DTS Sentinel unit serial number:	SN410029Multiplexer serial number:	ORYXHardware model number:	OX2-SRSoftware version number:	ORYX F/W v4,00 Oryx Data Collector v3.7.2.0data status	okinstallation	B6 Nyhavnadifferential loss correction	single-endedforward channel	channel 2reverse channel	N/Adate	2023/12/08time	04:55:08forward acquisition time	300,00reverse acquisition time	0,00gamma	499,1914k internal	0,3165k external	0,3165temperature offset calibration	1,0000default loss term (dB/km)	0,3820temperature slope calibration	1,0000multiplexer offset coefficient	1,0000multiplexer slope coefficient	1,0000fibre end	0,00T internal ref (°C)	13,04T ext. ref 1 (°C)	-3,77T ext. ref 2 (°C)	-3,74length (m)	temperature (°C)	Stokes	anti-Stokes-744,400	-16,699	0,071	-0,033
-743,385	-72,824	-0,275	-0,074
-742,371	204,603	0,127	0,145
-741,356	-92,262	-0,263	0,054
-740,342	163,106	0,113	0,116
-739,327	-73,818	-0,175	0,046
-738,312	11,489	0,045	0,025
-737,298	-145,652	-0,386	-0,025
-736,283	537,229	0,033	-0,058
-735,269	-99,955	-0,343	-0,062
-734,254	49,849	0,129	0,089
-733,239	-83,208	-0,609	-0,143
-732,225	-40,380	0,327	0,124
-731,210	-73,672	0,109	-0,029
-730,196	207,438	-0,040	-0,046
-729,181	197,211	-0,086	0,097
-728,167	566,553	0,009	-0,016
-727,152	-3,690	0,054	-0,027
-726,137	-200,000	-0,027	-0,091
-725,123	-200,000	0,018	-0,105
-724,108	-174,006	-0,094	0,002
-723,094	-200,000	-0,004	-0,212
-722,079	-200,000	-0,025	-0,090
-721,064	-146,981	-0,024	-0,001
-720,050	209,858	-0,028	-0,032
-719,035	-200,000	0,033	0,168
-718,021	-200,000	-0,003	-0,023
-717,006	-39,363	-0,116	-0,044
-715,991	214,771	-0,122	-0,143
-714,977	800,000	0,039	0,085
-713,962	336,573	-0,086	0,123
-712,948	-200,000	-0,003	-0,079
-711,933	-15,038	0,135	-0,063
-710,918	-139,302	0,052	-0,004
-709,904	132,738	-0,103	-0,098
-708,889	439,656	-0,057	-0,092
-707,875	-200,000	-0,003	-0,105
-706,860	-65,550	0,036	-0,011
-705,845	374,704	0,101	0,152
-704,831	800,000	-0,060	0,181
-703,816	800,000	0,025	-0,054
-702,802	800,000	0,033	-0,077
-701,787	-200,000	0,000	0,049
-700,772	-200,000	-0,017	-0,122
-699,758	-29,193	-0,105	-0,044
-698,743	800,000	0,031	0,087
-697,729	134,377	0,098	0,094
-696,714	-107,063	-0,081	-0,013
-695,699	-15,931	-0,060	0,028
-694,685	-110,541	0,069	0,010
-693,670	9,329	-0,037	-0,021
-692,656	251,350	0,055	0,069
-691,641	-54,385	0,017	-0,006
-690,627	-96,278	0,084	-0,016
-689,612	118,851	-0,052	0,047
-688,597	-200,000	-0,038	-0,183
-687,583	800,000	0,036	-0,101
-686,568	-200,000	-0,004	-0,025
-685,554	-175,385	-0,079	0,002
-684,539	-109,119	-0,053	0,008
-683,524	-13,098	-0,074	-0,035
-682,510	-65,261	-0,067	0,020
-681,495	800,000	-0,010	-0,026
-680,481	-125,172	-0,187	-0,021
-679,466	-30,799	-0,011	0,005
-678,451	531,647	0,080	-0,139
-677,437	-200,000	0,021	-0,139
-676,422	14,358	-0,115	0,066
-675,408	-200,000	-0,022	0,138
-674,393	-80,056	0,116	0,028
-673,378	49,834	0,079	-0,054
-672,364	454,237	0,041	-0,067
-671,349	6,629	0,053	-0,029
-670,335	-200,000	-0,064	0,207
-669,320	262,855	-0,099	0,127
-668,305	396,916	0,053	0,082
-667,291	-200,000	-0,030	-0,113
-666,276	39,273	0,064	-0,042
-665,262	-69,216	-0,218	-0,061
-664,247	800,000	-0,040	-0,088
-663,232	-200,000	-0,042	-0,138
-662,218	-200,000	-0,003	0,043
-661,203	-200,000	-0,000	0,035
-660,189	95,625	0,068	0,057
-659,174	800,000	-0,041	-0,090
-658,159	385,293	0,016	-0,025
-657,145	-24,350	0,096	-0,042
-656,130	282,009	-0,017	0,022
-655,116	-42,079	0,144	0,054
-654,101	-200,000	0,009	-0,068
-653,086	81,818	0,042	-0,033
-652,072	-200,000	-0,022	0,127
-651,057	686,186	-0,057	-0,110
-650,043	-55,364	0,089	0,029
-649,028	-116,424	0,130	-0,017
-648,014	272,889	0,057	-0,074
-646,999	378,723	-0,081	-0,121
-645,984	-24,674	0,033	-0,015
-644,970	-200,000	-0,004	0,056
-643,955	-200,000	-0,001	-0,079
-642,941	82,432	-0,018	0,015
-641,926	-123,428	0,049	0,006
-640,911	-1,608	-0,106	0,055
-639,897	-78,267	0,096	0,024
-638,882	-200,000	-0,009	0,034
-637,868	-113,760	-0,024	0,003
-636,853	325,804	-0,054	-0,076
-635,838	-74,225	-0,125	0,033
-634,824	141,515	-0,046	0,045
-633,809	-128,281	-0,130	-0,013
-632,795	307,763	-0,075	0,102
-631,780	-21,188	-0,048	-0,021
-630,765	-200,000	-0,004	0,062
-629,751	451,726	0,039	-0,064
-628,736	442,295	0,097	-0,156
-627,722	-200,000	0,014	-0,130
-626,707	-37,085	-0,019	-0,007
-625,692	722,900	0,040	-0,079
-624,678	-116,615	0,144	0,019
-623,663	-185,734	0,086	-0,001
-622,649	-168,321	-0,205	-0,006
-621,634	515,399	-0,067	0,115
-620,619	-71,929	-0,049	-0,013
-619,605	248,680	0,016	-0,020
-618,590	130,815	0,025	-0,024
-617,576	65,224	0,095	-0,070
-616,561	-33,116	-0,111	0,045
-615,546	33,677	-0,036	0,023
-614,532	-32,796	-0,102	-0,041
-613,517	800,000	0,007	-0,018
-612,503	206,811	-0,060	0,068
-611,488	-200,000	0,007	0,032
-610,474	-200,000	0,004	-0,121
-609,459	8,082	0,070	0,038
-608,444	162,843	-0,078	-0,081
-607,430	256,949	-0,061	-0,077
-606,415	51,682	0,033	-0,023
-605,401	-88,452	0,023	0,005
-604,386	-200,000	0,008	-0,046
-603,371	-119,341	0,130	0,016
-602,357	196,277	-0,153	0,171
-601,342	-117,067	-0,084	0,011
-600,328	-200,000	0,002	-0,062
-599,313	-151,618	0,070	-0,004
-598,298	104,262	-0,090	-0,078
-597,284	-200,000	0,011	0,103
-596,269	-200,000	-0,005	-0,038
-595,255	6,460	-0,076	0,041
-594,240	206,655	-0,137	0,156
-593,225	-200,000	0,000	-0,023
-592,211	-43,833	-0,137	-0,050
-591,196	394,381	0,051	-0,079
-590,182	-200,000	0,024	0,144
-589,167	5,221	0,062	-0,034
-588,152	115,983	0,084	-0,075
-587,138	283,904	-0,046	-0,061
-586,123	800,000	-0,064	-0,133
-585,109	610,497	-0,062	-0,113
-584,094	-200,000	-0,005	0,091
-583,079	130,895	0,137	0,129
-582,065	122,919	-0,064	-0,059
-581,050	-24,346	0,070	-0,031
-580,036	-121,679	-0,044	0,005
-579,021	294,914	-0,035	-0,047
-578,006	183,011	0,058	-0,062
-576,992	413,187	0,126	-0,196
-575,977	513,809	-0,019	0,033
-574,963	-200,000	0,001	0,114
-573,948	84,516	0,055	-0,044
-572,934	154,282	-0,142	0,143
-571,919	-69,430	0,072	-0,020
-570,904	800,000	0,063	-0,166
-569,890	224,972	0,114	0,135
-568,875	452,565	0,036	0,058
-567,861	-200,000	-0,019	0,155
-566,846	-128,218	0,082	0,008
-565,831	-49,611	0,046	-0,016
-564,817	355,680	-0,054	0,079
-563,802	-150,638	-0,068	0,004
-562,788	-147,271	-0,091	-0,006
-561,773	-110,544	0,068	0,010
-560,758	-200,000	0,019	0,172
-559,744	427,450	0,037	0,059
-558,729	-46,403	-0,042	0,015
-557,715	-200,000	-0,011	0,042
-556,700	800,000	-0,024	-0,062
-555,685	800,000	0,014	-0,043
-554,671	-200,000	0,003	-0,063
-553,656	795,401	-0,016	0,033
-552,642	-60,186	0,079	0,024
-551,627	-139,045	-0,051	-0,004
-550,612	34,326	-0,194	-0,123
-549,598	21,493	-0,085	-0,051
-548,583	684,024	0,045	-0,087
-547,569	90,276	0,116	-0,095
-546,554	20,091	0,092	0,054
-545,539	-62,411	-0,045	0,014
-544,525	-200,000	0,037	0,179
-543,510	800,000	0,037	0,094
-542,496	800,000	-0,026	-0,074
-541,481	-82,537	-0,144	-0,034
-540,466	231,319	0,044	-0,053
-539,452	-16,025	-0,089	0,041
-538,437	-14,366	0,034	-0,016
-537,423	70,345	0,044	0,033
-536,408	277,221	-0,130	-0,169
-535,393	-200,000	0,060	-0,250
-534,379	800,000	-0,016	-0,043
-533,364	-117,614	0,082	-0,011
-532,350	800,000	0,069	-0,185
-531,335	85,727	-0,052	0,041
-530,321	-136,254	-0,089	0,008
-529,306	241,122	0,028	-0,034
-528,291	-146,795	0,044	0,003
-527,277	-200,000	-0,053	-0,231
-526,262	-200,000	-0,032	-0,212
-525,248	800,000	0,032	0,097
-524,233	53,681	0,057	-0,040
-523,218	-200,000	0,004	-0,182
-522,204	800,000	-0,033	0,096
-521,189	55,583	-0,024	-0,017
-520,175	-116,746	0,093	0,012
-519,160	800,000	0,043	-0,097
-518,145	-200,000	-0,013	0,064
-517,131	-58,645	-0,026	0,008
-516,116	800,000	-0,026	0,053
-515,102	101,543	0,038	0,032
-514,087	665,790	-0,067	-0,127
-513,072	-96,039	0,154	-0,030
-512,058	-123,138	-0,044	-0,005
-511,043	15,476	-0,093	0,053
-510,029	800,000	0,073	-0,167
-509,014	405,996	-0,052	-0,081
-507,999	-167,308	-0,092	-0,003
-506,985	800,000	0,021	0,045
-505,970	-126,672	-0,077	-0,008
-504,956	-200,000	-0,018	-0,066
-503,941	98,994	-0,047	0,040
-502,926	251,161	-0,043	0,053
-501,912	105,738	-0,064	0,055
-500,897	545,789	0,022	0,039
-499,883	-12,797	0,044	0,021
-498,868	-36,007	-0,098	-0,038
-497,853	800,000	-0,079	-0,166
-496,839	-200,000	-0,010	-0,064
-495,824	-200,000	0,008	0,148
-494,810	800,000	-0,008	0,020
-493,795	129,914	-0,028	-0,026
-492,781	-200,000	-0,005	0,099
-491,766	-188,505	-0,055	-0,000
-490,751	612,903	-0,009	0,016
-489,737	-46,095	-0,056	0,020
-488,722	247,208	0,082	0,101
-487,708	600,692	0,031	-0,057
-486,693	-21,748	-0,039	0,017
-485,678	-105,123	0,021	0,004
-484,664	-93,337	-0,063	-0,013
-483,649	412,305	0,019	-0,029
-482,635	-200,000	-0,023	-0,079
-481,620	800,000	0,027	0,080
-480,605	-38,855	0,179	0,069
-479,591	120,486	-0,074	0,067
-478,576	126,236	0,013	0,012
-477,562	-200,000	-0,048	-0,192
-476,547	-124,726	0,018	-0,002
-475,532	-200,000	-0,023	-0,077
-474,518	800,000	-0,041	-0,093
-473,503	-110,453	0,094	0,014
-472,489	366,839	0,045	0,067
-471,474	18,062	-0,117	0,067
-470,459	-92,348	0,048	-0,010
-469,445	201,020	0,078	0,087
-468,430	332,528	0,042	-0,060
-467,416	-49,363	0,092	0,032
-466,401	-200,000	0,012	0,076
-465,386	800,000	0,040	0,093
-464,372	722,096	0,040	-0,077
-463,357	207,238	-0,050	-0,057
-462,343	526,609	-0,085	-0,146
-461,328	800,000	-0,007	-0,015
-460,313	-200,000	0,016	-0,111
-459,299	247,022	0,065	-0,080
-458,284	-104,282	-0,064	0,011
-457,270	10,867	-0,054	0,030
-456,255	51,076	-0,011	0,008
-455,241	327,212	-0,014	-0,020
-454,226	42,602	-0,074	0,049
-453,211	-200,000	0,045	0,160
-452,197	318,134	-0,075	-0,104
-451,182	-6,501	-0,070	0,035
-450,168	88,475	0,102	0,082
-449,153	-200,000	0,006	0,038
-448,138	-200,000	-0,016	0,097
-447,124	800,000	-0,064	-0,146
-446,109	171,585	-0,071	-0,074
-445,095	-200,000	-0,024	0,164
-444,080	367,882	0,028	0,041
-443,065	-33,669	0,047	0,019
-442,051	24,027	0,055	0,033
-441,036	-200,000	-0,029	-0,098
-440,022	197,478	-0,099	-0,111
-439,007	-135,173	-0,041	0,004
-437,992	-37,168	0,163	0,063
-436,978	800,000	0,022	0,069
-435,963	206,756	0,038	-0,043
-434,949	163,616	-0,067	0,069
-433,934	-0,423	-0,100	-0,052
-432,919	-200,000	-0,010	-0,087
-431,905	800,000	-0,022	-0,064
-430,890	61,109	0,062	0,044
-429,876	-200,000	-0,006	0,070
-428,861	-144,703	0,094	0,006
-427,846	153,424	-0,085	-0,084
-426,832	-82,368	-0,126	-0,029
-425,817	143,804	0,032	0,031
-424,803	-173,438	-0,138	-0,003
-423,788	138,732	-0,087	0,083
-422,773	98,567	0,036	-0,030
-421,759	-184,277	0,143	0,002
-420,744	59,594	0,112	0,080
-419,730	781,483	-0,036	-0,072
-418,715	189,495	-0,070	-0,077
-417,701	-200,000	0,005	0,051
-416,686	800,000	0,040	0,097
-415,671	-23,810	0,057	0,025
-414,657	-200,000	0,010	0,061
-413,642	76,606	-0,037	-0,029
-412,628	-108,903	-0,112	-0,017
-411,613	800,000	-0,022	-0,047
-410,598	634,628	-0,013	0,025
-409,584	304,773	0,059	-0,079
-408,569	-200,000	-0,005	-0,099
-407,555	-200,000	0,030	0,176
-406,540	129,793	0,096	0,089
-405,525	197,168	-0,079	-0,087
-404,511	-84,293	0,050	0,011
-403,496	173,704	0,068	0,071
-402,482	-200,000	0,007	0,192
-401,467	-40,195	-0,141	0,053
-400,452	394,651	0,105	0,159
-399,438	-190,640	-0,021	0,000
-398,423	100,016	-0,074	-0,062
-397,409	57,310	-0,074	-0,052
-396,394	-85,936	0,099	-0,022
-395,379	175,842	0,025	0,027
-394,365	-168,920	0,180	-0,005
-393,350	66,722	0,112	0,082
-392,336	86,472	0,090	-0,072
-391,321	-7,153	-0,119	-0,058
-390,306	-63,916	-0,073	-0,022
-389,292	186,370	-0,017	-0,018
-388,277	135,338	0,060	-0,057
-387,263	34,066	-0,030	-0,019
-386,248	800,000	-0,018	0,050
-385,233	800,000	0,034	0,077
-384,219	216,193	-0,067	-0,077
-383,204	-100,026	0,079	-0,014
-382,190	507,613	0,095	-0,161
-381,175	106,257	0,090	0,077
-380,160	800,000	0,042	-0,115
-379,146	-27,859	0,085	0,036
-378,131	-200,000	-0,002	-0,008
-377,117	5,575	0,085	-0,045
-376,102	19,650	-0,137	-0,080
-375,088	800,000	0,040	-0,122
-374,073	-135,619	-0,094	-0,008
-373,058	-43,882	0,061	-0,022
-372,044	800,000	-0,014	0,038
-371,029	148,132	0,078	0,076
-370,015	800,000	-0,049	0,131
-369,000	-129,524	-0,162	-0,016
-367,985	800,000	-0,058	0,174
-366,971	117,409	-0,013	-0,011
-365,956	-119,692	0,040	-0,005
-364,942	-47,798	-0,102	0,036
-363,927	-200,000	0,026	0,110
-362,912	66,285	0,032	0,024
-361,898	-78,648	-0,077	0,019
-360,883	-200,000	-0,007	0,067
-359,869	800,000	-0,059	-0,136
-358,854	23,330	0,063	0,037
-357,839	140,783	-0,045	0,043
-356,825	-90,815	-0,018	0,004
-355,810	-131,644	-0,164	-0,015
-354,796	-200,000	0,032	0,144
-353,781	800,000	0,027	-0,069
-352,766	101,474	0,052	-0,044
-351,752	66,385	0,064	-0,047
-350,737	9,920	0,028	-0,016
-349,723	800,000	-0,037	0,093
-348,708	-200,000	-0,023	-0,119
-347,693	-38,277	-0,076	-0,029
-346,679	28,759	-0,089	-0,054
-345,664	-85,187	-0,062	0,014
-344,650	82,561	0,053	-0,041
-343,635	-200,000	0,027	-0,096
-342,620	-200,000	-0,000	0,052
-341,606	800,000	-0,031	0,077
-340,591	-200,000	-0,002	-0,124
-339,577	-110,695	-0,127	0,019
-338,562	-132,054	0,176	-0,016
-337,548	326,640	0,023	0,032
-336,533	-200,000	-0,000	-0,009
-335,518	-200,000	0,021	0,129
-334,504	153,680	-0,066	-0,065
-333,489	-15,735	-0,064	0,030
-332,475	-136,444	-0,032	-0,003
-331,460	290,270	-0,086	-0,113
-330,445	-200,000	0,029	-0,102
-329,431	-200,000	-0,002	0,010
-328,416	-146,030	0,061	0,004
-327,402	-3,377	-0,072	0,036
-326,387	-200,000	0,000	-0,089
-325,372	107,709	-0,063	-0,055
-324,358	272,449	0,032	-0,041
-323,343	154,551	-0,124	-0,123
-322,329	800,000	-0,046	-0,147
-321,314	-200,000	-0,034	0,135
-320,299	-200,000	-0,013	0,105
-319,285	97,406	-0,017	-0,014
-318,270	46,306	-0,121	-0,081
-317,256	13,745	0,089	-0,050
-316,241	-92,433	-0,128	0,026
-315,226	-28,140	0,136	-0,056
-314,212	-78,365	0,089	-0,022
-313,197	800,000	0,036	-0,104
-312,183	44,694	0,072	0,048
-311,168	-66,913	0,104	0,029
-310,153	-49,343	-0,097	-0,033
-309,139	800,000	-0,046	-0,125
-308,124	61,007	0,140	-0,100
-307,110	-200,000	0,012	0,118
-306,095	800,000	0,022	-0,062
-305,080	520,804	0,044	-0,074
-304,066	183,406	-0,127	0,136
-303,051	800,000	0,015	-0,048
-302,037	-200,000	-0,003	-0,060
-301,022	131,017	0,064	0,059
-300,008	372,981	0,064	0,094
-298,993	-158,102	0,087	-0,004
-297,978	3,530	0,056	-0,029
-296,964	41,860	-0,085	-0,056
-295,949	-200,000	-0,004	-0,179
-294,935	-200,000	-0,000	0,041
-293,920	64,225	-0,120	-0,087
-292,905	-13,030	0,049	0,023
-291,891	-88,777	-0,119	0,025
-290,876	-4,693	0,126	0,063
-289,862	-129,495	-0,186	0,018
-288,847	331,354	0,063	-0,088
-287,832	-124,645	0,050	0,006
-286,818	507,654	0,042	-0,071
-285,803	362,233	0,100	0,145
-284,789	79,203	-0,067	0,052
-283,774	38,604	0,120	0,077
-282,759	143,534	0,036	0,035
-281,745	538,115	-0,087	-0,149
-280,730	503,023	-0,050	-0,084
-279,716	267,088	-0,046	-0,059
-278,701	-69,861	-0,116	0,032
-277,686	-69,120	-0,105	0,029
-276,672	87,474	-0,043	-0,035
-275,657	-28,049	-0,064	0,027
-274,643	133,309	-0,040	0,037
-273,628	-200,000	-0,001	0,012
-272,613	223,774	0,019	-0,022
-271,599	-126,981	0,233	-0,024
-270,584	-200,000	0,028	0,137
-269,570	-200,000	-0,022	0,141
-268,555	-122,326	0,127	0,015
-267,540	-200,000	0,006	-0,138
-266,526	-200,000	0,003	-0,107
-265,511	-200,000	0,006	-0,043
-264,497	32,455	0,143	-0,089
-263,482	182,141	0,074	0,079
-262,467	-75,050	0,104	0,027
-261,453	-200,000	0,006	0,151
-260,438	-110,164	0,084	-0,013
-259,424	-200,000	0,006	-0,044
-258,409	-40,111	-0,074	-0,028
-257,395	-31,009	-0,069	-0,028
-256,380	-200,000	-0,059	0,233
-255,365	263,048	-0,038	-0,048
-254,351	186,721	0,043	-0,047
-253,336	-200,000	-0,006	0,053
-252,322	800,000	0,041	-0,124
-251,307	-18,548	-0,076	0,034
-250,292	287,465	0,051	0,067
-249,278	133,510	0,094	-0,088
-248,263	-4,814	-0,075	-0,037
-247,249	631,404	-0,049	0,090
-246,234	-200,000	-0,007	0,033
-245,219	393,293	0,049	0,074
-244,205	158,341	-0,035	0,035
-243,190	-125,631	0,181	0,020
-242,176	800,000	-0,021	0,067
-241,161	648,856	0,014	0,026
-240,146	800,000	-0,018	0,046
-239,132	-200,000	-0,005	0,035
-238,117	-103,840	-0,059	0,010
-237,103	-200,000	-0,007	0,058
-236,088	-200,000	-0,014	-0,120
-235,073	-200,000	0,010	0,066
-234,059	800,000	0,024	0,067
-233,044	-80,888	-0,050	0,012
-232,030	346,285	0,051	-0,072
-231,015	800,000	-0,019	-0,052
-230,000	800,000	0,032	-0,087
-228,986	594,743	0,040	0,072
-227,971	-111,451	0,157	0,023
-226,957	4,848	-0,051	0,027
-225,942	-200,000	0,015	0,102
-224,927	244,652	0,034	0,041
-223,913	268,938	-0,114	-0,144
-222,898	-11,689	0,120	0,056
-221,884	800,000	-0,052	0,106
-220,869	800,000	-0,039	0,088
-219,855	-65,371	-0,079	0,023
-218,840	-200,000	-0,045	0,151
-217,825	-200,000	-0,014	-0,106
-216,811	800,000	0,015	-0,034
-215,796	128,371	-0,043	-0,039
-214,782	-13,029	0,036	0,017
-213,767	800,000	0,041	0,111
-212,752	-200,000	0,028	0,103
-211,738	800,000	-0,034	0,075
-210,723	-200,000	0,004	0,015
-209,709	-92,948	-0,069	-0,014
-208,694	-100,085	0,105	-0,019
-207,679	-93,120	0,091	-0,018
-206,665	26,459	0,051	-0,031
-205,650	800,000	0,044	0,120
-204,636	218,119	0,085	0,098
-203,621	-200,000	-0,020	0,065
-202,606	-124,018	0,194	0,022
-201,592	410,090	0,038	-0,058
-200,577	148,066	-0,130	-0,126
-199,563	141,791	0,061	0,058
-198,548	-82,870	0,085	-0,019
-197,533	143,313	0,062	0,059
-196,519	656,152	-0,016	-0,029
-195,504	9,196	0,028	-0,015
-194,490	-1,998	0,075	0,038
-193,475	60,129	-0,104	0,074
-192,460	-200,000	0,005	-0,053
-191,446	-200,000	-0,009	-0,039
-190,431	441,003	0,013	-0,020
-189,417	-122,959	0,022	0,003
-188,402	13,937	0,091	-0,051
-187,387	120,568	-0,075	-0,067
-186,373	-96,088	0,045	0,008
-185,358	-200,000	0,000	0,028
-184,344	124,092	0,045	-0,041
-183,329	401,664	-0,099	0,150
-182,315	-200,000	0,024	0,124
-181,300	-200,000	0,007	0,046
-180,285	178,335	-0,041	-0,043
-179,271	340,689	0,048	-0,068
-178,256	800,000	-0,058	0,162
-177,242	800,000	0,007	0,018
-176,227	-200,000	0,009	-0,058
-175,212	108,711	-0,209	0,180
-174,198	-200,000	-0,014	0,117
-173,183	-100,602	-0,063	0,011
-172,169	-138,932	0,041	-0,003
-171,154	-158,277	0,112	-0,005
-170,139	-87,007	-0,109	-0,024
-169,125	-103,045	0,126	0,021
-168,110	263,797	-0,090	0,112
-167,096	-135,576	0,097	0,008
-166,081	-200,000	0,001	-0,037
-165,066	17,039	-0,042	-0,024
-164,052	800,000	-0,015	0,044
-163,037	332,525	0,010	-0,014
-162,023	125,861	-0,030	-0,027
-161,008	112,094	0,099	0,086
-159,993	-10,018	0,083	-0,040
-158,979	58,770	0,101	0,072
-157,964	152,911	0,075	0,073
-156,950	4,448	0,080	0,042
-155,935	-200,000	0,032	0,113
-154,920	-200,000	-0,045	0,196
-153,906	-43,204	0,107	0,039
-152,891	-200,000	-0,024	-0,077
-151,877	-64,026	-0,098	-0,029
-150,862	800,000	-0,032	-0,099
-149,847	292,546	0,097	-0,127
-148,833	230,703	0,051	0,060
-147,818	-200,000	0,025	0,117
-146,804	800,000	-0,056	0,171
-145,789	196,939	-0,049	-0,054
-144,775	-12,141	-0,079	0,037
-143,760	800,000	-0,008	0,023
-142,745	800,000	0,021	-0,051
-141,731	96,693	0,106	0,087
-140,716	551,704	-0,040	0,069
-139,702	-138,017	0,095	-0,008
-138,687	-95,708	-0,099	-0,019
-137,672	-200,000	0,005	-0,018
-136,658	100,671	-0,073	0,061
-135,643	185,005	0,027	-0,029
-134,629	305,989	0,099	-0,132
-133,614	-59,969	-0,104	0,032
-132,599	800,000	-0,034	0,088
-131,585	39,073	0,086	0,055
-130,570	-200,000	0,002	-0,162
-129,556	303,866	-0,024	-0,032
-128,541	-200,000	-0,001	0,026
-127,526	36,819	-0,094	-0,059
-126,512	5,633	-0,026	-0,014
-125,497	-200,000	0,089	-0,000
-124,483	-171,849	0,078	-0,002
-123,468	800,000	-0,018	-0,039
-122,453	-112,128	-0,050	-0,007
-121,439	-200,000	-0,039	-0,130
-120,424	76,078	-0,070	-0,053
-119,410	51,474	0,206	-0,140
-118,395	-90,218	0,132	0,027
-117,380	257,443	0,055	0,067
-116,366	-35,673	-0,142	0,055
-115,351	-200,000	0,009	0,052
-114,337	96,499	-0,125	-0,102
-113,322	-200,000	0,008	0,080
-112,307	-200,000	-0,001	0,004
-111,293	435,464	-0,064	-0,100
-110,278	-200,000	-0,004	0,042
-109,264	-200,000	0,005	-0,045
-108,249	134,698	0,146	-0,136
-107,234	-199,949	-0,076	0,000
-106,220	800,000	-0,056	-0,154
-105,205	229,830	0,065	0,076
-104,191	292,794	-0,069	0,090
-103,176	427,952	0,070	-0,108
-102,162	-1,792	0,116	0,058
-101,147	-53,259	-0,078	-0,026
-100,132	382,220	-0,015	-0,022
-99,118	-200,000	0,026	-0,117
-98,103	134,311	-0,049	0,045
-97,089	-200,000	-0,006	0,095
-96,074	373,133	-0,082	0,120
-95,059	-13,145	0,131	0,061
-94,045	214,398	-0,057	0,065
-93,030	-40,890	0,105	-0,039
-92,016	2,449	-0,152	-0,079
-91,001	-5,125	0,135	0,066
-89,986	-134,799	0,093	-0,008
-88,972	750,341	0,025	0,049
-87,957	131,078	0,127	-0,117
-86,943	-102,629	-0,169	-0,029
-85,928	-93,163	0,040	-0,008
-84,913	-132,590	0,049	-0,004
-83,899	66,016	0,078	0,057
-82,884	-200,000	-0,028	0,187
-81,870	800,000	0,099	0,267
-80,855	-97,352	0,036	-0,007
-79,840	-200,000	0,003	0,020
-78,826	-200,000	0,003	0,107
-77,811	-200,000	-0,004	0,267
-76,797	269,111	-0,001	-0,001
-75,782	-38,154	0,054	0,020
-74,767	800,000	-0,015	0,041
-73,753	156,296	0,087	0,086
-72,738	455,482	-0,054	-0,086
-71,724	800,000	-0,041	-0,085
-70,709	220,417	-0,091	-0,105
-69,694	-8,903	-0,059	-0,028
-68,680	-31,071	0,043	0,017
-67,665	88,412	-0,097	0,077
-66,651	593,539	0,038	0,067
-65,636	-200,000	-0,002	0,018
-64,622	-200,000	0,013	0,067
-63,607	1,119	-0,131	-0,067
-62,592	-172,810	0,067	-0,001
-61,578	11,715	-0,118	-0,065
-60,563	69,822	0,026	0,019
-59,549	415,194	0,028	-0,042
-58,534	33,446	-2,278	-1,414
-57,519	-200,000	0,076	-0,550
-56,505	-200,000	-1,344	-5,214
-55,490	74,052	0,928	0,696
-54,476	800,000	5,504	12,184
-53,461	-200,000	18,918	320,272
-52,446	800,000	741,701	2324,500
-51,432	548,323	1654,725	2848,615
-50,417	109,565	1637,536	1404,510
-49,403	73,233	1287,532	963,068
-48,388	29,319	1029,605	624,715
-47,373	19,517	992,585	569,847
-46,359	16,856	980,028	553,879
-45,344	13,440	976,471	540,640
-44,330	13,768	974,769	540,750
-43,315	13,133	972,830	537,574
-42,300	13,036	971,892	536,719
-41,286	13,061	971,019	536,296
-40,271	13,072	970,005	535,752
-39,257	13,059	969,151	535,216
-38,242	13,055	968,382	534,756
-37,227	12,998	967,566	534,100
-36,213	13,075	966,605	533,797
-35,198	13,042	965,700	533,170
-34,184	13,118	964,966	532,992
-33,169	13,014	964,052	532,126
-32,154	13,035	963,026	531,609
-31,140	13,033	962,198	531,123
-30,125	13,067	961,373	530,756
-29,111	13,060	960,474	530,217
-28,096	13,072	959,977	529,961
-27,082	13,065	959,233	529,505
-26,067	13,081	958,506	529,135
-25,052	13,097	957,704	528,724
-24,038	13,069	957,210	528,338
-23,023	13,095	956,474	527,995
-22,009	13,098	955,678	527,545
-20,994	13,061	955,215	527,148
-19,979	13,085	954,636	526,886
-18,965	13,056	954,031	526,439
-17,950	13,148	953,231	526,269
-16,936	13,091	952,505	525,667
-15,921	13,061	951,915	525,223
-14,906	12,973	951,263	524,560
-13,892	12,974	950,769	524,271
-12,877	12,939	950,043	523,738
-11,863	13,003	949,286	523,505
-10,848	12,983	948,779	523,141
-9,833	13,043	948,321	523,060
-8,819	13,012	947,618	522,551
-7,804	13,023	946,912	522,178
-6,790	12,944	946,521	521,688
-5,775	13,000	945,766	521,429
-4,760	13,010	945,288	521,176
-3,746	12,978	944,564	520,656
-2,731	12,863	944,023	519,974
-1,717	12,802	943,337	519,379
-0,702	12,832	942,676	519,091
0,313	12,595	942,147	518,833
1,327	16,113	939,721	528,561
2,342	25,375	790,203	468,868
3,356	21,333	445,285	258,191
4,371	-7,757	298,745	143,837
5,386	-11,697	280,561	131,295
6,400	-12,849	274,806	127,509
7,415	-12,894	272,718	126,487
8,429	-13,176	271,151	125,487
9,444	-13,160	270,181	125,042
10,459	-13,339	269,592	124,593
11,473	-13,488	269,066	124,202
12,488	-13,453	268,543	123,982
13,502	-13,374	267,821	123,710
14,517	-13,539	267,342	123,327
15,531	-13,548	267,131	123,210
16,546	-13,406	266,636	123,100
17,561	-13,375	266,297	122,961
18,575	-13,204	265,828	122,889
19,590	-13,402	265,548	122,568
20,604	-13,121	265,367	122,729
21,619	-13,468	265,007	122,237
22,634	-13,391	264,648	122,131
23,648	-13,413	264,336	121,956
24,663	-13,253	264,061	121,963
25,677	-13,229	263,757	121,833
26,692	-13,224	263,334	121,631
27,707	-13,419	263,110	121,341
28,721	-13,532	263,047	121,200
29,736	-13,474	262,599	121,035
30,750	-13,578	262,438	120,857
31,765	-13,618	262,251	120,724
32,780	-13,653	261,916	120,528
33,794	-13,501	261,672	120,541
34,809	-13,407	261,277	120,432
35,823	-13,375	260,915	120,282
36,838	-13,569	260,980	120,129
37,853	-13,692	260,765	119,910
38,867	-13,808	260,486	119,668
39,882	-13,531	260,243	119,791
40,896	-13,539	260,129	119,721
41,911	-13,572	259,631	119,452
42,926	-13,410	259,406	119,481
43,940	-13,537	259,224	119,275
44,955	-13,646	258,961	119,047
45,969	-13,715	258,844	118,921
46,984	-13,845	258,466	118,622
47,999	-14,197	258,105	118,137
49,013	-14,104	257,987	118,154
50,028	-14,424	257,628	117,698
51,042	-14,369	257,391	117,628
52,057	-14,264	257,200	117,622
53,071	-14,370	256,963	117,411
54,086	-14,268	256,888	117,455
55,101	-14,135	256,705	117,477
56,115	-13,924	256,548	117,579
57,130	-13,321	256,395	118,025
58,144	-13,238	256,221	118,006
59,159	-13,279	255,888	117,806
60,174	-13,280	255,803	117,756
61,188	-13,400	255,584	117,540
62,203	-13,290	255,327	117,508
63,217	-13,248	255,086	117,422
64,232	-13,394	254,802	117,155
65,247	-13,204	254,697	117,261
66,261	-13,370	254,586	117,055
67,276	-13,666	254,159	116,593
68,290	-13,663	253,783	116,412
69,305	-14,122	253,742	115,987
70,320	-13,941	253,574	116,056
71,334	-13,690	253,380	116,173
72,349	-13,347	253,144	116,350
73,363	-13,539	253,158	116,181
74,378	-13,284	252,895	116,269
75,393	-13,433	252,730	116,055
76,407	-13,550	252,435	115,808
77,422	-13,588	252,244	115,678
78,436	-13,416	251,981	115,694
79,451	-13,298	251,785	115,695
80,466	-13,646	251,491	115,252
81,480	-13,658	251,323	115,154
82,495	-13,677	250,826	114,900
83,509	-13,589	250,876	114,988
84,524	-13,679	250,594	114,772
85,539	-13,964	250,520	114,485
86,553	-14,184	250,356	114,213
87,568	-13,674	249,955	114,453
88,582	-13,833	249,836	114,253
89,597	-14,037	249,750	114,031
90,611	-13,557	249,547	114,335
91,626	-13,507	249,288	114,248
92,641	-13,503	249,218	114,209
93,655	-13,611	248,926	113,974
94,670	-13,684	248,594	113,750
95,684	-13,766	248,690	113,715
96,699	-13,611	248,203	113,612
97,714	-13,767	248,088	113,419
98,728	-13,927	247,885	113,181
99,743	-13,819	247,660	113,159
100,757	-14,165	247,478	112,775
101,772	-13,744	247,297	113,036
102,787	-13,728	246,964	112,887
103,801	-13,553	246,921	113,004
104,816	-13,663	246,847	112,868
105,830	-13,572	246,888	112,952
106,845	-13,386	246,574	112,954
107,860	-13,532	246,382	112,734
108,874	-13,421	246,085	112,681
109,889	-13,655	245,776	112,334
110,903	-13,717	245,707	112,241
111,918	-13,682	245,454	112,145
112,933	-13,672	245,227	112,040
113,947	-13,516	245,115	112,107
114,962	-13,567	244,984	111,995
115,976	-13,619	244,911	111,909
116,991	-13,514	244,559	111,826
118,006	-13,335	244,342	111,864
119,020	-13,445	244,402	111,791
120,035	-13,476	244,214	111,669
121,049	-13,383	243,951	111,615
122,064	-13,399	243,822	111,533
123,079	-13,309	243,363	111,388
124,093	-13,829	243,408	110,970
125,108	-13,846	243,114	110,812
126,122	-14,177	242,861	110,415
127,137	-14,005	242,610	110,432
128,151	-13,986	242,556	110,414
129,166	-13,683	242,277	110,525
130,181	-13,740	242,159	110,414
131,195	-13,653	241,815	110,319
132,210	-13,649	241,783	110,297
133,224	-13,680	241,763	110,253
134,239	-13,548	241,432	110,200
135,254	-13,526	241,339	110,166
136,268	-13,664	241,019	109,897
137,283	-13,871	240,695	109,572
138,297	-13,993	240,583	109,411
139,312	-13,982	240,303	109,283
140,327	-13,707	240,244	109,470
141,341	-13,261	240,238	109,820
142,356	-13,238	240,229	109,824
143,370	-13,148	239,915	109,744
144,385	-12,912	239,752	109,851
145,400	-13,072	239,655	109,667
146,414	-13,290	239,462	109,393
147,429	-13,138	239,373	109,465
148,443	-13,098	239,033	109,332
149,458	-13,419	238,853	108,981
150,473	-13,107	238,670	109,139
151,487	-13,317	238,520	108,892
152,502	-13,302	238,398	108,838
153,516	-13,192	238,280	108,863
154,531	-13,099	238,085	108,840
155,546	-13,139	237,779	108,658
156,560	-13,297	237,670	108,471
157,575	-13,597	237,458	108,125
158,589	-13,244	237,172	108,267
159,604	-13,224	237,190	108,282
160,619	-13,109	237,048	108,300
161,633	-13,203	236,953	108,171
162,648	-13,315	236,788	107,997
163,662	-13,275	236,498	107,887
164,677	-13,275	236,379	107,823
165,692	-13,147	236,332	107,894
166,706	-13,295	236,127	107,673
167,721	-12,958	235,840	107,800
168,735	-13,144	235,884	107,663
169,750	-13,135	235,582	107,522
170,764	-13,209	235,406	107,374
171,779	-13,077	235,279	107,411
172,794	-13,094	235,140	107,324
173,808	-13,304	234,952	107,063
174,823	-13,642	234,549	106,602
175,837	-13,793	234,426	106,418
176,852	-13,352	234,339	106,717
177,867	-13,177	234,288	106,822
178,881	-13,236	234,310	106,777
179,896	-13,233	234,068	106,659
180,910	-13,056	233,792	106,663
181,925	-13,429	233,686	106,311
182,940	-13,149	233,662	106,511
183,954	-13,013	233,286	106,437
184,969	-12,958	233,360	106,505
185,983	-13,199	233,222	106,243
186,998	-12,839	232,857	106,349
188,013	-12,779	232,750	106,338
189,027	-12,986	232,703	106,146
190,042	-13,027	232,468	105,997
191,056	-13,131	232,373	105,863
192,071	-12,813	232,154	106,001
193,086	-13,136	232,077	105,705
194,100	-12,971	231,646	105,627
195,115	-13,240	231,248	105,228
196,129	-13,334	231,444	105,234
197,144	-7,482	233,331	110,669
198,159	-1,869	235,329	116,031
199,173	2,395	236,362	119,896
200,188	3,024	236,441	120,421
201,202	2,954	236,173	120,219
202,217	3,095	235,949	120,205
203,232	3,048	236,042	120,205
204,246	3,237	235,762	120,200
205,261	3,293	235,709	120,206
206,275	3,502	235,580	120,294
207,290	3,607	235,412	120,279
208,304	3,489	235,171	120,053
209,319	3,591	235,052	120,061
210,334	3,662	234,753	119,953
211,348	3,227	234,656	119,553
212,363	2,903	234,432	119,175
213,377	2,738	234,182	118,909
214,392	2,594	233,928	118,657
215,407	2,787	233,894	118,780
216,421	2,796	233,625	118,639
217,436	2,735	233,625	118,582
218,450	2,648	233,351	118,364
219,465	2,491	233,244	118,178
220,480	2,523	233,163	118,151
221,494	2,620	232,879	118,072
222,509	2,860	232,806	118,210
223,523	2,954	232,703	118,221
224,538	2,721	232,457	117,904
225,553	2,611	232,322	117,740
226,567	2,841	232,278	117,886
227,582	2,929	232,126	117,865
228,596	3,011	232,106	117,908
229,611	2,660	231,859	117,502
230,626	2,665	231,627	117,377
231,640	2,574	231,359	117,161
232,655	2,950	231,279	117,399
233,669	3,131	231,202	117,489
234,684	3,113	231,166	117,446
235,699	2,946	231,012	117,229
236,713	2,648	230,880	116,923
237,728	2,989	230,492	116,978
238,742	2,628	230,344	116,616
239,757	2,672	230,199	116,565
240,772	2,596	230,091	116,442
241,786	2,743	229,923	116,459
242,801	2,883	229,892	116,540
243,815	3,087	229,840	116,659
244,830	3,115	229,546	116,521
245,844	2,872	229,407	116,255
246,859	2,714	229,236	116,037
247,874	2,897	229,165	116,131
248,888	3,047	228,963	116,132
249,903	2,962	228,717	115,932
250,917	2,668	228,620	115,649
251,932	2,738	228,519	115,641
252,947	2,575	228,231	115,361
253,961	2,572	228,138	115,302
254,976	2,771	227,995	115,370
255,990	2,934	227,873	115,421
257,005	2,831	227,877	115,335
258,020	2,989	227,788	115,399
259,034	3,007	227,465	115,239
260,049	2,937	227,355	115,120
261,063	3,091	227,068	115,080
262,078	3,142	227,072	115,110
263,093	3,355	227,115	115,282
264,107	3,138	226,933	115,016
265,122	3,156	226,644	114,873
266,136	3,117	226,714	114,869
267,151	3,069	226,483	114,706
268,166	2,950	226,088	114,406
269,180	2,468	225,895	113,938
270,195	2,536	225,983	114,023
271,209	2,669	225,698	113,968
272,224	2,680	225,599	113,916
273,239	3,070	225,432	114,113
274,253	2,723	225,285	113,770
275,268	2,626	225,080	113,584
276,282	2,495	224,843	113,356
277,297	2,490	224,723	113,282
278,312	2,350	224,639	113,126
279,326	2,918	224,456	113,445
280,341	2,794	224,389	113,310
281,355	2,791	224,246	113,224
282,370	2,749	224,068	113,093
283,384	2,351	223,890	112,699
284,399	2,475	223,830	112,750
285,414	2,378	223,719	112,613
286,428	2,945	223,470	112,897
287,443	2,894	223,393	112,809
288,457	2,980	223,390	112,861
289,472	2,704	223,093	112,498
290,487	2,092	223,022	112,001
291,501	2,206	222,681	111,903
292,516	2,471	222,647	112,071
293,530	2,465	222,439	111,952
294,545	2,666	222,311	112,025
295,560	2,675	222,256	111,994
296,574	2,905	222,063	112,056
297,589	2,571	222,000	111,769
298,603	2,985	221,852	111,989
299,618	2,889	221,646	111,804
300,633	2,895	221,652	111,802
301,647	2,993	221,399	111,736
302,662	2,954	221,244	111,619
303,676	3,143	221,057	111,653
304,691	2,960	221,099	111,530
305,706	3,190	220,884	111,580
306,720	3,181	220,792	111,517
307,735	2,804	220,533	111,101
308,749	2,566	220,400	110,851
309,764	2,838	220,239	110,958
310,779	3,203	220,069	111,128
311,793	2,798	219,997	110,787
312,808	2,830	219,800	110,701
313,822	2,691	219,673	110,527
314,837	2,620	219,491	110,374
315,852	2,492	219,407	110,229
316,866	2,805	219,373	110,429
317,881	2,920	219,161	110,395
318,895	3,105	218,959	110,418
319,910	2,759	218,804	110,080
320,925	2,348	218,630	109,686
321,939	2,343	218,194	109,454
322,954	2,487	218,248	109,575
323,968	2,890	218,399	109,931
324,983	2,924	218,195	109,843
325,997	3,077	218,055	109,872
327,012	2,873	217,965	109,671
328,027	2,901	217,869	109,633
329,041	3,316	217,727	109,849
330,056	2,874	217,612	109,465
331,070	2,919	217,340	109,350
332,085	2,578	217,161	109,007
333,100	2,909	216,981	109,143
334,114	3,017	216,867	109,153
335,129	2,483	216,779	108,718
336,143	2,328	216,549	108,482
337,158	2,704	216,538	108,735
338,173	3,052	216,382	108,895
339,187	2,700	216,349	108,618
340,202	2,456	216,149	108,335
341,216	2,568	215,858	108,259
342,231	2,753	215,712	108,307
343,246	2,724	215,745	108,294
344,260	2,623	215,541	108,110
345,275	2,694	215,484	108,122
346,289	2,904	215,457	108,248
347,304	2,787	215,320	108,086
348,319	2,666	215,067	107,864
349,333	2,682	214,866	107,764
350,348	2,857	214,726	107,809
351,362	2,953	214,653	107,830
352,377	2,863	214,522	107,691
353,392	3,092	214,446	107,805
354,406	2,733	214,255	107,446
355,421	196,547	1314,853	1391,102
356,435	157,254	1448,883	1391,036
