DTS Sentinel unit serial number:	SN410029Multiplexer serial number:	ORYXHardware model number:	OX2-SRSoftware version number:	ORYX F/W v4,00 Oryx Data Collector v3.7.2.0data status	okinstallation	B6 Nyhavnadifferential loss correction	single-endedforward channel	channel 2reverse channel	N/Adate	2023/12/09time	04:45:08forward acquisition time	300,00reverse acquisition time	0,00gamma	499,1914k internal	0,3146k external	0,3146temperature offset calibration	1,0000default loss term (dB/km)	0,3820temperature slope calibration	1,0000multiplexer offset coefficient	1,0000multiplexer slope coefficient	1,0000fibre end	0,00T internal ref (°C)	17,30T ext. ref 1 (°C)	1,86T ext. ref 2 (°C)	1,88length (m)	temperature (°C)	Stokes	anti-Stokes-744,400	800,000	-0,031	-0,076
-743,385	-200,000	-0,259	0,000
-742,371	38,010	0,158	-0,104
-741,356	56,254	-0,210	0,150
-740,342	164,781	0,158	-0,165
-739,327	-26,599	-0,149	-0,064
-738,312	94,430	0,044	-0,037
-737,298	-82,037	-0,472	0,113
-736,283	63,150	0,117	0,087
-735,269	247,509	-0,153	0,191
-734,254	88,935	0,138	0,114
-733,239	-22,975	-0,513	-0,228
-732,225	-40,195	0,125	0,048
-731,210	-17,633	-0,066	0,031
-730,196	-111,851	-0,046	0,007
-729,181	-200,000	0,014	-0,083
-728,167	384,292	-0,086	-0,131
-727,152	51,574	-0,045	0,032
-726,137	352,776	-0,030	-0,044
-725,123	-200,000	-0,011	-0,060
-724,108	106,283	-0,095	-0,083
-723,094	51,180	-0,183	-0,128
-722,079	124,199	-0,065	-0,060
-721,064	-200,000	0,011	-0,069
-720,050	-100,095	-0,152	-0,028
-719,035	68,612	-0,151	0,114
-718,021	107,062	-0,069	-0,061
-717,006	221,170	-0,045	-0,054
-715,991	305,103	-0,048	0,066
-714,977	254,417	-0,032	0,040
-713,962	-200,000	0,014	-0,057
-712,948	-45,202	-0,167	0,061
-711,933	317,687	0,097	-0,137
-710,918	-200,000	0,003	-0,119
-709,904	678,488	-0,037	-0,072
-708,889	21,380	-0,135	-0,081
-707,875	800,000	-0,092	-0,212
-706,860	-88,821	0,049	-0,011
-705,845	-200,000	-0,010	-0,085
-704,831	-137,101	0,060	0,005
-703,816	-76,253	0,131	0,034
-702,802	800,000	-0,001	-0,002
-701,787	-78,050	0,051	-0,013
-700,772	-200,000	-0,002	-0,034
-699,758	-11,250	-0,087	0,042
-698,743	26,722	0,051	-0,032
-697,729	-109,567	0,063	0,010
-696,714	357,408	0,071	0,105
-695,699	42,313	0,062	-0,042
-694,685	800,000	0,003	0,006
-693,670	-71,964	0,040	-0,011
-692,656	-200,000	-0,010	-0,104
-691,641	-50,157	0,089	-0,031
-690,627	-23,129	-0,079	0,035
-689,612	275,495	0,075	-0,098
-688,597	-200,000	0,013	-0,080
-687,583	-200,000	0,031	-0,216
-686,568	-139,246	-0,076	0,006
-685,554	-200,000	-0,017	0,080
-684,539	111,307	0,023	-0,021
-683,524	-3,563	0,096	0,049
-682,510	-86,924	-0,109	-0,024
-681,495	558,539	-0,041	0,074
-680,481	781,692	0,006	-0,012
-679,466	284,185	-0,019	-0,026
-678,451	132,675	-0,012	0,012
-677,437	-200,000	0,010	-0,050
-676,422	77,817	-0,028	0,022
-675,408	709,456	-0,052	-0,102
-674,393	800,000	-0,051	0,108
-673,378	140,155	-0,129	-0,126
-672,364	14,758	0,044	-0,025
-671,349	294,030	0,036	-0,049
-670,335	-28,877	0,073	0,031
-669,320	-135,468	0,137	-0,012
-668,305	29,986	0,047	0,029
-667,291	3,783	-0,100	-0,054
-666,276	326,519	-0,107	-0,151
-665,262	469,193	-0,056	-0,093
-664,247	165,637	-0,031	-0,032
-663,232	-5,730	0,076	-0,038
-662,218	-33,318	-0,052	0,021
-661,203	250,115	-0,098	0,122
-660,189	-126,582	-0,095	-0,010
-659,174	258,392	-0,090	-0,114
-658,159	334,992	-0,082	-0,118
-657,145	142,628	-0,071	0,069
-656,130	266,353	0,058	0,075
-655,116	74,797	0,091	0,070
-654,101	-111,390	0,050	0,007
-653,086	354,412	0,060	-0,088
-652,072	-200,000	-0,006	-0,060
-651,057	-70,702	-0,094	-0,026
-650,043	426,156	-0,034	-0,055
-649,028	-106,494	-0,054	0,009
-648,014	-48,639	0,048	0,017
-646,999	28,058	-0,075	-0,047
-645,984	-86,531	0,028	-0,006
-644,970	-200,000	0,015	-0,072
-643,955	36,626	0,123	-0,080
-642,941	-200,000	0,010	-0,066
-641,926	800,000	0,022	0,067
-640,911	-200,000	-0,012	0,055
-639,897	-200,000	0,014	0,083
-638,882	-200,000	0,006	0,129
-637,868	-200,000	0,001	0,032
-636,853	800,000	-0,048	-0,115
-635,838	800,000	-0,057	-0,167
-634,824	422,284	0,071	-0,113
-633,809	480,226	-0,076	-0,127
-632,795	-45,825	0,103	0,037
-631,780	-200,000	0,024	-0,082
-630,765	98,419	0,061	-0,052
-629,751	302,708	0,022	0,029
-628,736	-200,000	-0,008	-0,051
-627,722	-85,436	0,061	-0,014
-626,707	-29,814	0,089	-0,037
-625,692	-200,000	0,004	0,060
-624,678	-200,000	0,014	0,059
-623,663	115,489	-0,104	0,094
-622,649	-119,069	0,119	-0,015
-621,634	98,814	-0,141	-0,120
-620,619	-3,845	-0,074	-0,038
-619,605	116,498	-0,069	-0,063
-618,590	46,335	-0,031	-0,021
-617,576	-119,404	0,087	-0,011
-616,561	-58,376	0,056	-0,018
-615,546	-71,786	-0,040	-0,011
-614,532	-149,163	-0,079	-0,005
-613,517	435,874	0,018	0,029
-612,503	356,137	-0,059	-0,087
-611,488	-200,000	-0,013	0,055
-610,474	-161,288	-0,192	0,007
-609,459	-5,834	0,054	0,027
-608,444	43,847	0,057	-0,038
-607,430	-160,079	-0,157	-0,006
-606,415	724,208	-0,031	0,061
-605,401	-21,656	0,069	0,031
-604,386	-200,000	-0,019	0,087
-603,371	116,665	0,105	0,095
-602,357	-74,703	-0,066	0,017
-601,342	800,000	-0,015	-0,043
-600,328	-200,000	-0,029	-0,134
-599,313	21,628	-0,042	-0,025
-598,298	632,008	-0,064	0,119
-597,284	-59,776	-0,020	0,006
-596,269	78,556	-0,024	0,019
-595,255	102,150	0,122	0,105
-594,240	-25,062	0,176	-0,076
-593,225	160,814	-0,121	-0,124
-592,211	370,447	0,070	-0,105
-591,196	158,053	0,044	-0,045
-590,182	143,731	0,091	-0,089
-589,167	76,739	0,120	-0,093
-588,152	-200,000	-0,021	-0,094
-587,138	-190,232	0,013	0,000
-586,123	800,000	-0,024	-0,071
-585,109	702,834	0,042	0,081
-584,094	347,477	-0,042	-0,062
-583,079	-200,000	-0,022	0,099
-582,065	800,000	-0,063	0,141
-581,050	-200,000	0,011	0,048
-580,036	51,164	0,027	0,019
-579,021	195,277	-0,052	-0,058
-578,006	-200,000	0,003	0,064
-576,992	-31,611	0,068	0,028
-575,977	87,088	0,091	0,074
-574,963	-26,464	-0,083	0,036
-573,948	-55,933	0,087	-0,028
-572,934	-51,107	-0,117	0,040
-571,919	174,056	0,094	-0,100
-570,904	-12,771	-0,072	0,034
-569,890	77,443	-0,129	-0,101
-568,875	24,676	0,101	0,062
-567,861	-163,554	-0,055	-0,002
-566,846	191,571	0,126	-0,139
-565,831	446,857	-0,044	0,071
-564,817	-75,310	-0,126	-0,033
-563,802	-200,000	-0,000	-0,126
-562,788	-14,500	0,105	0,050
-561,773	-200,000	0,007	-0,036
-560,758	1,526	0,023	0,012
-559,744	-46,730	-0,092	0,033
-558,729	89,672	0,099	0,081
-557,715	-200,000	-0,047	0,159
-556,700	148,932	-0,080	0,080
-555,685	-149,242	-0,175	-0,010
-554,671	85,727	-0,102	0,082
-553,656	173,986	0,063	0,067
-552,642	379,875	0,027	0,040
-551,627	470,967	0,052	0,086
-550,612	-200,000	0,011	0,065
-549,598	223,353	-0,035	0,042
-548,583	-200,000	0,006	-0,032
-547,569	800,000	-0,008	-0,018
-546,554	-54,343	-0,072	-0,024
-545,539	34,946	0,067	0,043
-544,525	-39,938	0,080	-0,030
-543,510	-200,000	-0,003	-0,073
-542,496	211,065	-0,027	-0,031
-541,481	-200,000	0,000	0,024
-540,466	25,069	-0,090	0,055
-539,452	85,474	-0,005	-0,004
-538,437	-200,000	-0,002	0,101
-537,423	387,144	-0,078	0,118
-536,408	48,311	-0,140	-0,096
-535,393	-154,019	0,029	-0,001
-534,379	-200,000	-0,014	-0,190
-533,364	800,000	0,031	0,100
-532,350	297,295	-0,096	0,129
-531,335	-135,275	0,160	0,014
-530,321	-126,136	0,053	0,006
-529,306	-102,916	-0,107	0,019
-528,291	743,807	0,041	-0,081
-527,277	-200,000	-0,007	0,046
-526,262	-92,546	-0,116	-0,024
-525,248	800,000	-0,009	-0,024
-524,233	-77,134	0,066	0,017
-523,218	-200,000	0,000	0,085
-522,204	-104,547	0,053	0,009
-521,189	-85,767	-0,111	0,025
-520,175	-200,000	-0,010	-0,073
-519,160	-200,000	-0,012	-0,045
-518,145	253,185	-0,042	0,052
-517,131	92,033	0,102	-0,084
-516,116	266,870	0,002	0,003
-515,102	800,000	-0,085	0,179
-514,087	-137,850	-0,103	0,008
-513,072	-200,000	-0,004	0,039
-512,058	-116,477	-0,096	-0,013
-511,043	-94,604	0,217	-0,043
-510,029	-144,115	0,112	0,008
-509,014	-173,706	-0,150	0,003
-507,999	-115,980	0,076	0,010
-506,985	800,000	-0,055	-0,118
-505,970	-200,000	-0,062	-0,250
-504,956	-200,000	-0,007	0,041
-503,941	-200,000	-0,011	0,068
-502,926	-158,911	0,088	-0,004
-501,912	-200,000	-0,023	0,080
-500,897	-11,409	0,037	0,018
-499,883	800,000	-0,031	-0,068
-498,868	800,000	-0,039	-0,088
-497,853	154,309	0,054	0,054
-496,839	171,696	-0,066	-0,069
-495,824	-200,000	-0,013	0,065
-494,810	800,000	-0,021	0,063
-493,795	800,000	-0,042	0,097
-492,781	-200,000	0,004	0,090
-491,766	-18,888	0,074	-0,034
-490,751	-182,371	-0,035	-0,000
-489,737	196,636	0,081	-0,090
-488,722	-81,956	0,031	-0,007
-487,708	800,000	0,039	0,096
-486,693	-18,726	-0,083	-0,038
-485,678	698,286	-0,039	-0,076
-484,664	93,527	-0,084	-0,070
-483,649	732,699	0,110	-0,216
-482,635	-200,000	-0,014	-0,059
-481,620	-200,000	-0,016	0,128
-480,605	208,393	0,086	0,099
-479,591	-135,547	0,172	0,015
-478,576	-90,387	0,110	0,023
-477,562	800,000	-0,029	-0,071
-476,547	-101,442	-0,030	0,005
-475,532	441,022	0,043	-0,070
-474,518	148,573	0,055	-0,054
-473,503	-200,000	0,021	0,138
-472,489	-200,000	0,006	0,090
-471,474	-200,000	-0,008	0,032
-470,459	135,582	-0,111	0,105
-469,445	-75,935	-0,084	0,022
-468,430	-12,820	-0,104	-0,049
-467,416	-152,414	-0,025	-0,001
-466,401	-200,000	-0,017	0,115
-465,386	-200,000	0,007	0,100
-464,372	-200,000	-0,008	0,067
-463,357	16,966	-0,053	-0,031
-462,343	-200,000	0,014	0,116
-461,328	-132,497	0,064	0,006
-460,313	-16,221	-0,032	-0,015
-459,299	119,237	0,033	0,030
-458,284	-125,822	0,050	0,005
-457,270	-200,000	0,006	0,044
-456,255	116,223	0,023	0,020
-455,241	-90,853	-0,040	0,008
-454,226	-153,479	0,034	0,002
-453,211	-6,776	0,088	-0,044
-452,197	-124,077	0,043	0,005
-451,182	-15,881	0,081	0,037
-450,168	-98,280	-0,067	0,012
-449,153	-73,315	-0,103	-0,027
-448,138	59,520	0,026	-0,018
-447,124	-159,987	0,039	-0,002
-446,109	-26,557	0,095	-0,040
-445,095	305,443	-0,041	-0,056
-444,080	-29,899	-0,048	0,020
-443,065	111,094	-0,081	0,071
-442,051	-200,000	0,023	-0,199
-441,036	-17,715	-0,149	-0,068
-440,022	145,465	-0,039	-0,038
-439,007	267,780	0,071	-0,092
-437,992	800,000	-0,066	0,172
-436,978	299,916	-0,005	-0,007
-435,963	282,196	0,076	0,100
-434,949	-143,289	-0,169	0,012
-433,934	800,000	-0,050	0,104
-432,919	-162,261	0,091	-0,003
-431,905	800,000	0,046	-0,143
-430,890	-200,000	0,003	0,060
-429,876	-79,159	0,130	-0,032
-428,861	363,031	-0,077	0,114
-427,846	-128,028	-0,097	-0,010
-426,832	-67,262	0,068	-0,020
-425,817	800,000	0,039	-0,120
-424,803	-161,411	-0,015	0,001
-423,788	31,228	0,128	0,080
-422,773	-200,000	-0,029	0,095
-421,759	199,688	0,051	0,058
-420,744	53,336	-0,104	0,072
-419,730	61,226	-0,169	-0,123
-418,715	800,000	0,025	0,062
-417,701	-200,000	0,002	-0,040
-416,686	-155,782	-0,085	-0,004
-415,671	-157,422	0,113	-0,005
-414,657	28,011	-0,073	-0,045
-413,642	-200,000	-0,009	-0,037
-412,628	800,000	0,022	0,059
-411,613	-200,000	-0,006	0,097
-410,598	150,286	0,065	0,064
-409,584	-81,151	0,067	0,016
-408,569	314,148	0,050	-0,069
-407,555	-12,041	0,088	0,042
-406,540	-73,785	0,013	-0,003
-405,525	503,029	0,072	0,122
-404,511	-200,000	-0,002	-0,072
-403,496	295,830	-0,046	-0,061
-402,482	-86,788	-0,228	0,050
-401,467	-200,000	-0,016	0,077
-400,452	-137,679	0,093	0,008
-399,438	800,000	-0,035	0,077
-398,423	222,134	0,013	0,015
-397,409	272,026	0,078	-0,100
-396,394	690,585	-0,044	-0,085
-395,379	-83,906	0,090	0,021
-394,365	-90,261	-0,055	0,012
-393,350	-200,000	-0,001	-0,106
-392,336	-200,000	-0,010	-0,065
-391,321	218,290	-0,047	0,054
-390,306	450,547	-0,045	-0,073
-389,292	-200,000	-0,016	-0,180
-388,277	-56,595	-0,101	0,033
-387,263	-200,000	0,002	-0,072
-386,248	-200,000	0,040	-0,175
-385,233	-200,000	0,001	0,009
-384,219	800,000	-0,062	-0,147
-383,204	43,343	0,088	-0,058
-382,190	654,192	-0,033	-0,062
-381,175	-98,277	0,076	0,014
-380,160	-159,537	0,087	-0,003
-379,146	-200,000	0,004	0,038
-378,131	9,337	0,103	0,057
-377,117	800,000	-0,007	-0,019
-376,102	415,825	0,038	0,060
-375,088	-40,195	0,072	-0,027
-374,073	-200,000	0,015	0,098
-373,058	-105,920	-0,067	0,011
-372,044	145,145	0,031	0,030
-371,029	219,969	0,070	-0,082
-370,015	69,701	0,029	0,022
-369,000	200,182	0,038	-0,043
-367,985	800,000	-0,036	-0,101
-366,971	-60,766	0,078	0,024
-365,956	-14,796	0,062	0,029
-364,942	800,000	0,028	0,082
-363,927	-76,483	0,102	-0,026
-362,912	295,087	0,064	-0,086
-361,898	-61,314	0,081	0,025
-360,883	446,027	-0,057	-0,092
-359,869	-46,894	0,147	0,052
-358,854	-173,185	-0,061	-0,001
-357,839	-200,000	-0,003	0,037
-356,825	-200,000	0,001	0,126
-355,810	800,000	0,036	0,087
-354,796	75,615	-0,063	-0,048
-353,781	-129,254	-0,042	-0,004
-352,766	-91,997	0,075	0,015
-351,752	-101,298	0,065	-0,011
-350,737	800,000	-0,034	0,076
-349,723	771,422	0,007	-0,013
-348,708	-4,064	-0,066	-0,033
-347,693	-200,000	0,002	0,177
-346,679	-35,691	0,061	0,024
-345,664	-200,000	-0,020	-0,186
-344,650	-200,000	0,013	-0,163
-343,635	-98,896	-0,042	-0,008
-342,620	800,000	-0,057	0,136
-341,606	-200,000	-0,002	-0,054
-340,591	506,735	-0,043	-0,073
-339,577	-200,000	0,019	-0,072
-338,562	-200,000	0,001	-0,068
-337,548	598,333	0,093	-0,169
-336,533	800,000	0,009	-0,029
-335,518	-200,000	-0,028	0,149
-334,504	611,579	-0,035	-0,065
-333,489	751,731	0,037	-0,073
-332,475	756,044	-0,063	-0,125
-331,460	196,392	-0,053	0,059
-330,445	-51,215	-0,022	0,007
-329,431	215,046	-0,024	0,028
-328,416	-33,142	0,184	0,074
-327,402	-116,729	-0,132	0,017
-326,387	-94,349	-0,090	0,018
-325,372	-200,000	0,010	0,056
-324,358	-162,793	-0,165	-0,006
-323,343	-139,365	0,085	0,007
-322,329	800,000	-0,023	0,047
-321,314	-27,674	-0,126	-0,053
-320,299	-200,000	-0,007	0,048
-319,285	-200,000	-0,024	0,184
-318,270	-200,000	-0,033	0,129
-317,256	12,894	-0,099	-0,056
-316,241	-76,814	-0,171	-0,043
-315,226	83,481	0,037	0,030
-314,212	800,000	-0,024	0,056
-313,197	-102,707	-0,112	-0,019
-312,183	76,919	-0,106	0,081
-311,168	-22,424	-0,080	-0,035
-310,153	267,969	-0,046	-0,059
-309,139	74,292	-0,042	-0,032
-308,124	301,408	0,084	-0,114
-307,110	800,000	-0,013	0,034
-306,095	800,000	-0,005	0,014
-305,080	-200,000	-0,023	0,113
-304,066	-104,468	0,077	-0,013
-303,051	-55,812	-0,025	-0,008
-302,037	60,159	-0,046	0,033
-301,022	-60,724	0,024	0,007
-300,008	-104,405	0,225	-0,038
-298,993	332,928	0,036	-0,051
-297,978	-15,004	-0,040	0,018
-296,964	-200,000	-0,008	0,045
-295,949	800,000	0,035	-0,071
-294,935	-41,425	-0,085	0,032
-293,920	131,218	0,077	0,072
-292,905	800,000	0,039	-0,085
-291,891	-69,861	0,075	-0,021
-290,876	800,000	-0,046	0,113
-289,862	-200,000	-0,004	0,031
-288,847	137,468	-0,126	-0,120
-287,832	318,294	0,012	0,016
-286,818	-200,000	-0,031	0,145
-285,803	-90,342	0,089	0,019
-284,789	-73,374	0,165	0,044
-283,774	800,000	0,031	0,084
-282,759	-105,415	-0,031	-0,005
-281,745	-200,000	0,022	0,135
-280,730	-86,353	0,083	0,018
-279,716	-200,000	-0,010	-0,050
-278,701	800,000	-0,025	-0,062
-277,686	-154,081	0,124	0,006
-276,672	-31,515	0,049	-0,020
-275,657	800,000	-0,034	-0,095
-274,643	-200,000	-0,001	0,045
-273,628	-200,000	-0,030	0,105
-272,613	115,263	-0,042	-0,038
-271,599	193,292	-0,062	0,068
-270,584	154,245	0,031	0,031
-269,570	800,000	-0,023	0,066
-268,555	800,000	-0,009	-0,019
-267,540	-148,605	-0,162	-0,009
-266,526	-200,000	0,027	-0,148
-265,511	176,407	0,070	-0,074
-264,497	63,498	-0,055	0,040
-263,482	800,000	0,052	0,125
-262,467	593,251	-0,055	-0,099
-261,453	-11,737	-0,037	0,018
-260,438	26,927	0,071	0,043
-259,424	152,001	-0,075	-0,074
-258,409	-200,000	0,001	-0,097
-257,395	-200,000	-0,009	-0,041
-256,380	797,636	0,035	0,070
-255,365	-69,113	0,133	0,037
-254,351	800,000	-0,045	0,101
-253,336	-200,000	0,009	-0,088
-252,322	-51,962	0,102	0,034
-251,307	800,000	-0,039	0,097
-250,292	-94,329	0,060	-0,012
-249,278	-200,000	-0,012	0,107
-248,263	-200,000	0,010	0,136
-247,249	721,009	0,018	0,035
-246,234	548,716	-0,022	-0,038
-245,219	-126,909	-0,040	0,004
-244,205	678,892	-0,053	-0,101
-243,190	-200,000	-0,004	-0,168
-242,176	-200,000	0,014	0,080
-241,161	44,848	0,073	0,048
-240,146	-19,852	-0,044	0,020
-239,132	800,000	-0,016	0,048
-238,117	12,321	0,041	0,023
-237,103	-9,292	-0,036	0,017
-236,088	-106,151	-0,078	0,013
-235,073	-19,078	0,055	0,025
-234,059	-45,137	0,015	-0,005
-233,044	800,000	0,053	0,144
-232,030	-164,925	0,112	-0,004
-231,015	72,730	0,097	-0,073
-230,000	-27,771	-0,101	0,042
-228,986	31,159	0,046	0,029
-227,971	59,609	-0,042	-0,030
-226,957	800,000	0,036	-0,091
-225,942	156,367	0,088	0,088
-224,927	-18,201	-0,077	0,035
-223,913	76,165	0,030	-0,023
-222,898	219,608	-0,053	-0,062
-221,884	20,573	-0,139	0,081
-220,869	4,763	-0,093	0,049
-219,855	-200,000	0,032	0,137
-218,840	800,000	-0,030	-0,079
-217,825	529,022	-0,053	-0,091
-216,811	229,029	0,069	-0,082
-215,796	228,478	-0,079	-0,093
-214,782	290,102	-0,075	0,099
-213,767	29,164	-0,048	-0,030
-212,752	623,329	0,033	0,060
-211,738	186,211	-0,040	0,043
-210,723	-173,625	-0,126	0,003
-209,709	-200,000	-0,034	-0,134
-208,694	-200,000	0,028	-0,212
-207,679	92,609	-0,081	-0,066
-206,665	-49,111	-0,099	-0,034
-205,650	-3,443	0,028	-0,014
-204,636	800,000	0,092	-0,192
-203,621	-200,000	0,006	0,031
-202,606	228,757	0,043	0,051
-201,592	-200,000	0,025	-0,111
-200,577	800,000	-0,043	0,097
-199,563	-57,746	0,077	0,024
-198,548	600,883	-0,035	0,064
-197,533	-34,562	-0,089	0,035
-196,519	-95,233	-0,050	0,010
-195,504	575,086	0,046	-0,081
-194,490	-88,482	-0,041	-0,009
-193,475	800,000	0,037	-0,115
-192,460	-200,000	0,022	-0,084
-191,446	800,000	0,086	0,218
-190,431	126,262	0,049	0,045
-189,417	-200,000	-0,021	-0,070
-188,402	-200,000	-0,009	-0,034
-187,387	45,571	-0,082	-0,055
-186,373	-97,007	0,136	0,026
-185,358	120,879	0,039	-0,035
-184,344	58,353	0,077	0,055
-183,329	-81,480	0,208	0,049
-182,315	-79,285	-0,121	-0,029
-181,300	-200,000	-0,008	-0,030
-180,285	-98,118	-0,088	0,016
-179,271	553,747	-0,089	0,156
-178,256	-200,000	-0,023	0,146
-177,242	-200,000	0,019	0,095
-176,227	195,377	-0,066	0,073
-175,212	800,000	0,007	-0,020
-174,198	652,649	0,021	0,039
-173,183	-200,000	0,027	-0,148
-172,169	800,000	-0,036	-0,075
-171,154	53,504	0,131	-0,091
-170,139	107,645	0,076	-0,065
-169,125	699,088	0,110	0,210
-168,110	12,278	0,033	-0,018
-167,096	48,644	0,132	-0,089
-166,081	-131,881	-0,074	-0,007
-165,066	-200,000	-0,010	-0,053
-164,052	133,832	-0,041	0,038
-163,037	-200,000	-0,004	-0,072
-162,023	-119,866	0,171	-0,021
-161,008	17,893	0,132	0,076
-159,993	-63,843	0,090	-0,027
-158,979	-200,000	-0,010	-0,171
-157,964	66,443	-0,099	-0,073
-156,950	-200,000	0,004	-0,131
-155,935	-59,230	-0,130	-0,040
-154,920	-12,461	0,155	0,073
-153,906	-88,372	-0,047	-0,010
-152,891	-76,868	-0,047	-0,012
-151,877	62,132	0,126	-0,091
-150,862	70,196	0,053	-0,040
-149,847	354,035	-0,052	-0,074
-148,833	-61,647	-0,123	0,037
-147,818	-200,000	0,011	0,090
-146,804	-200,000	-0,022	0,190
-145,789	-200,000	-0,018	0,123
-144,775	-132,376	-0,115	0,011
-143,760	39,875	0,111	0,072
-142,745	632,731	0,026	-0,047
-141,731	106,765	0,087	-0,075
-140,716	-100,050	0,100	-0,018
-139,702	-136,323	-0,098	-0,008
-138,687	800,000	-0,023	0,064
-137,672	99,065	0,037	-0,031
-136,658	-85,404	-0,102	-0,023
-135,643	800,000	-0,026	-0,083
-134,629	710,775	0,003	0,006
-133,614	-200,000	0,011	0,111
-132,599	483,927	0,062	0,102
-131,585	800,000	-0,052	0,147
-130,570	800,000	-0,011	0,023
-129,556	12,553	-0,117	0,065
-128,541	353,491	0,049	-0,070
-127,526	193,270	-0,089	0,097
-126,512	-117,347	0,053	-0,007
-125,497	-101,836	0,080	0,014
-124,483	-62,134	0,154	-0,046
-123,468	76,250	-0,023	0,017
-122,453	-200,000	0,028	-0,120
-121,439	232,172	-0,054	0,064
-120,424	697,935	0,050	-0,096
-119,410	-200,000	0,042	0,152
-118,395	800,000	-0,065	0,135
-117,380	-200,000	0,004	0,027
-116,366	-200,000	-0,004	0,022
-115,351	62,595	-0,050	-0,036
-114,337	457,326	-0,061	-0,097
-113,322	680,303	0,089	-0,168
-112,307	106,967	-0,071	-0,061
-111,293	-127,291	0,045	-0,005
-110,278	-200,000	-0,044	-0,149
-109,264	30,914	0,078	-0,048
-108,249	237,749	-0,097	-0,117
-107,234	-200,000	0,004	-0,167
-106,220	-77,871	-0,083	-0,020
-105,205	96,851	-0,044	-0,037
-104,191	113,728	0,058	-0,051
-103,176	-83,731	-0,083	0,019
-102,162	-116,248	0,099	-0,013
-101,147	-41,587	-0,082	-0,030
-100,132	800,000	-0,061	0,131
-99,118	-74,905	0,060	0,015
-98,103	-85,302	0,191	0,043
-97,089	351,033	-0,015	0,021
-96,074	-200,000	-0,019	0,102
-95,059	137,139	0,097	0,092
-94,045	-200,000	-0,011	0,039
-93,030	593,293	-0,051	-0,091
-92,016	-200,000	-0,035	-0,155
-91,001	-200,000	0,006	-0,028
-89,986	-12,466	0,107	-0,050
-88,972	33,003	-0,014	0,009
-87,957	56,368	-0,027	0,019
-86,943	-200,000	-0,013	-0,110
-85,928	-200,000	-0,010	-0,077
-84,913	-20,078	-0,174	0,077
-83,899	-52,074	0,071	0,024
-82,884	-200,000	0,001	0,076
-81,870	40,360	0,081	0,053
-80,855	340,873	0,119	0,168
-79,840	505,262	-0,037	0,061
-78,826	-200,000	-0,029	-0,195
-77,811	-100,278	-0,090	0,016
-76,797	-200,000	0,027	0,162
-75,782	249,548	0,054	0,067
-74,767	-200,000	0,027	0,158
-73,753	-200,000	-0,007	0,093
-72,738	303,754	0,012	0,017
-71,724	236,859	-0,136	-0,163
-70,709	-200,000	0,002	-0,025
-69,694	-200,000	-0,002	0,068
-68,680	-100,204	0,154	0,027
-67,665	-200,000	-0,010	0,121
-66,651	800,000	-0,063	0,134
-65,636	362,736	-0,037	0,053
-64,622	118,339	-0,031	-0,028
-63,607	800,000	0,035	-0,112
-62,592	800,000	-0,051	-0,153
-61,578	442,798	-0,079	-0,126
-60,563	-93,430	0,141	0,028
-59,549	800,000	0,041	0,087
-58,534	-29,950	-1,863	-0,761
-57,519	-200,000	-0,311	-1,174
-56,505	-200,000	-1,231	-4,982
-55,490	-107,387	0,812	0,127
-54,476	800,000	5,375	12,142
-53,461	-200,000	16,654	274,530
-52,446	800,000	713,176	2208,894
-51,432	542,450	1626,363	2804,712
-50,417	117,090	1621,933	1435,332
-49,403	79,195	1283,037	989,446
-48,388	35,077	1030,065	648,531
-47,373	20,730	992,912	577,593
-46,359	19,543	981,474	566,997
-45,344	17,670	977,196	558,337
-44,330	17,851	975,757	558,088
-43,315	17,446	974,006	555,733
-42,300	17,401	973,162	555,083
-41,286	17,319	972,259	554,276
-40,271	17,393	971,143	553,862
-39,257	17,355	970,322	553,247
-38,242	17,294	969,630	552,630
-37,227	17,347	968,852	552,339
-36,213	17,281	968,096	551,669
-35,198	17,327	967,041	551,197
-34,184	17,332	966,216	550,722
-33,169	17,303	965,267	550,063
-32,154	17,400	964,310	549,812
-31,140	17,374	963,388	549,181
-30,125	17,415	962,754	548,929
-29,111	17,335	961,861	548,140
-28,096	17,356	961,322	547,879
-27,082	17,367	960,447	547,393
-26,067	17,290	959,909	546,817
-25,052	17,280	959,206	546,363
-24,038	17,345	958,274	546,020
-23,023	17,343	957,628	545,622
-22,009	17,342	957,058	545,275
-20,994	17,374	956,378	544,969
-19,979	17,373	955,682	544,545
-18,965	17,314	955,096	544,001
-17,950	17,357	954,586	543,826
-16,936	17,272	953,854	543,113
-15,921	17,245	953,279	542,680
-14,906	17,201	952,454	542,047
-13,892	17,191	951,797	541,619
-12,877	17,177	951,084	541,147
-11,863	17,138	950,643	540,750
-10,848	17,276	949,909	540,753
-9,833	17,331	949,432	540,635
-8,819	17,320	948,739	540,185
-7,804	17,249	948,199	539,630
-6,790	17,220	947,535	539,136
-5,775	17,223	947,129	538,893
-4,760	17,307	946,419	538,737
-3,746	17,225	945,877	538,145
-2,731	17,119	945,141	537,368
-1,717	17,058	944,449	536,758
-0,702	17,076	943,721	536,381
0,313	16,846	943,108	536,111
1,327	20,190	941,402	545,697
2,342	29,599	797,301	487,225
3,356	26,772	449,457	270,401
4,371	-2,682	296,104	148,596
5,386	-6,599	277,363	135,455
6,400	-7,966	271,739	131,421
7,415	-8,204	269,345	130,032
8,429	-8,191	267,922	129,345
9,444	-8,444	267,187	128,747
10,459	-8,561	266,501	128,298
11,473	-8,727	265,945	127,867
12,488	-8,767	265,274	127,497
13,502	-8,987	264,693	127,006
14,517	-9,117	264,319	126,698
15,531	-9,153	263,827	126,417
16,546	-9,290	263,446	126,100
17,561	-9,151	262,913	125,959
18,575	-9,036	262,656	125,928
19,590	-9,264	262,324	125,552
20,604	-9,148	262,022	125,501
21,619	-9,293	261,718	125,214
22,634	-9,189	261,245	125,070
23,648	-9,376	261,006	124,777
24,663	-9,303	260,810	124,738
25,677	-9,411	260,745	124,599
26,692	-9,263	260,296	124,505
27,707	-9,170	260,008	124,439
28,721	-9,379	259,600	124,047
29,736	-9,505	259,529	123,890
30,750	-9,377	259,145	123,809
31,765	-9,474	258,876	123,584
32,780	-9,361	258,634	123,557
33,794	-9,231	258,438	123,568
34,809	-9,521	258,218	123,195
35,823	-9,542	258,122	123,120
36,838	-9,501	257,697	122,942
37,853	-9,623	257,551	122,754
38,867	-9,659	257,198	122,543
39,882	-9,378	257,034	122,701
40,896	-9,371	256,704	122,539
41,911	-9,593	256,530	122,249
42,926	-9,435	256,242	122,240
43,940	-9,519	255,941	122,012
44,955	-9,551	255,861	121,935
45,969	-9,752	255,578	121,614
46,984	-9,852	255,335	121,399
47,999	-10,113	255,178	121,086
49,013	-10,257	254,734	120,739
50,028	-10,263	254,542	120,632
51,042	-10,362	254,374	120,456
52,057	-10,423	254,072	120,249
53,071	-10,416	254,067	120,241
54,086	-10,292	253,677	120,154
55,101	-10,080	253,657	120,318
56,115	-9,729	253,529	120,551
57,130	-9,299	253,507	120,902
58,144	-9,128	253,341	120,961
59,159	-9,193	253,134	120,795
60,174	-9,020	252,804	120,776
61,188	-9,016	252,603	120,672
62,203	-9,221	252,412	120,394
63,217	-9,204	252,084	120,241
64,232	-9,155	251,970	120,218
65,247	-9,039	251,754	120,204
66,261	-9,240	251,608	119,951
67,276	-9,665	251,178	119,370
68,290	-9,851	250,997	119,114
69,305	-9,865	250,811	119,003
70,320	-9,683	250,449	118,977
71,334	-9,424	250,477	119,201
72,349	-9,212	250,365	119,318
73,363	-9,099	250,056	119,257
74,378	-9,017	249,898	119,241
75,393	-9,142	249,815	119,084
76,407	-9,208	249,370	118,806
77,422	-9,261	249,278	118,706
78,436	-9,205	249,131	118,673
79,451	-9,287	248,848	118,458
80,466	-9,528	248,623	118,135
81,480	-9,652	248,421	117,924
82,495	-9,740	248,201	117,734
83,509	-9,788	248,042	117,608
84,524	-9,652	247,648	117,526
85,539	-9,942	247,449	117,176
86,553	-9,819	247,258	117,178
87,568	-9,826	247,186	117,128
88,582	-9,684	246,989	117,144
89,597	-9,697	246,802	117,034
90,611	-9,406	246,574	117,160
91,626	-9,332	246,617	117,232
92,641	-9,541	246,347	116,918
93,655	-9,523	245,974	116,745
94,670	-9,766	245,946	116,518
95,684	-9,629	245,739	116,525
96,699	-9,588	245,610	116,487
97,714	-9,794	245,387	116,199
98,728	-9,801	245,094	116,044
99,743	-9,947	244,993	115,864
100,757	-9,841	244,574	115,744
101,772	-9,798	244,378	115,676
102,787	-9,698	244,381	115,750
103,801	-9,567	244,091	115,712
104,816	-9,490	244,166	115,801
105,830	-9,284	243,941	115,856
106,845	-9,298	243,882	115,805
107,860	-9,432	243,650	115,574
108,874	-9,562	243,355	115,316
109,889	-9,440	243,045	115,260
110,903	-9,397	242,834	115,185
111,918	-9,644	242,837	114,972
112,933	-9,440	242,664	115,048
113,947	-9,539	242,508	114,882
114,962	-9,410	242,364	114,910
115,976	-9,388	242,124	114,804
116,991	-9,532	241,851	114,546
118,006	-9,345	241,713	114,624
119,020	-9,318	241,674	114,617
120,035	-9,369	241,543	114,503
121,049	-9,225	241,329	114,510
122,064	-9,205	241,185	114,447
123,079	-9,452	241,007	114,151
124,093	-9,420	240,733	114,037
125,108	-9,571	240,352	113,723
126,122	-10,024	240,191	113,266
127,137	-10,046	240,084	113,188
128,151	-9,897	239,841	113,185
129,166	-9,730	239,857	113,318
130,181	-9,838	239,553	113,076
131,195	-9,794	239,330	112,998
132,210	-9,700	239,406	113,099
133,224	-9,555	239,243	113,130
134,239	-9,461	238,951	113,058
135,254	-9,359	238,876	113,096
136,268	-9,477	238,425	112,777
137,283	-9,724	238,045	112,387
138,297	-9,779	237,998	112,311
139,312	-9,791	237,850	112,221
140,327	-9,267	237,736	112,580
141,341	-8,916	237,820	112,892
142,356	-8,980	237,692	112,770
143,370	-8,804	237,417	112,772
144,385	-8,999	237,318	112,558
145,400	-8,845	237,171	112,602
146,414	-9,067	237,070	112,366
147,429	-8,927	236,845	112,361
148,443	-8,875	236,567	112,261
149,458	-9,032	236,412	112,052
150,473	-9,025	236,121	111,909
151,487	-9,166	236,141	111,796
152,502	-9,088	236,091	111,825
153,516	-9,106	235,910	111,714
154,531	-9,046	235,778	111,690
155,546	-9,233	235,547	111,421
156,560	-9,204	235,261	111,299
157,575	-9,267	235,021	111,126
158,589	-9,105	234,944	111,209
159,604	-8,823	234,717	111,315
160,619	-8,826	234,551	111,224
161,633	-8,741	234,461	111,239
162,648	-8,786	234,327	111,130
163,662	-8,967	234,242	110,936
164,677	-9,145	233,967	110,655
165,692	-9,061	234,015	110,734
166,706	-8,655	233,659	110,878
167,721	-8,607	233,546	110,852
168,735	-8,728	233,418	110,685
169,750	-8,752	233,235	110,570
170,764	-8,999	233,186	110,342
171,779	-8,712	232,955	110,449
172,794	-8,824	232,850	110,300
173,808	-9,098	232,676	109,993
174,823	-9,499	232,223	109,454
175,837	-9,720	231,950	109,142
176,852	-9,409	232,232	109,509
177,867	-8,936	232,041	109,781
178,881	-8,718	231,841	109,847
179,896	-8,884	231,753	109,666
180,910	-8,780	231,546	109,640
181,925	-8,801	231,419	109,553
182,940	-8,683	231,194	109,529
183,954	-8,716	231,155	109,475
184,969	-8,728	230,968	109,367
185,983	-8,646	230,742	109,314
186,998	-8,703	230,707	109,244
188,013	-8,436	230,405	109,299
189,027	-8,570	230,260	109,116
190,042	-8,558	230,068	109,025
191,056	-8,595	229,974	108,942
192,071	-8,643	229,801	108,812
193,086	-8,364	229,747	108,994
194,100	-8,346	229,705	108,978
195,115	-8,252	229,567	108,976
196,129	-8,171	229,632	109,060
197,144	-3,546	230,789	113,200
198,159	0,497	232,154	117,017
199,173	3,158	232,719	119,370
200,188	3,529	232,768	119,674
201,202	3,601	232,578	119,622
202,217	3,810	232,489	119,728
203,232	3,795	232,374	119,646
204,246	3,874	232,221	119,618
205,261	3,841	232,224	119,584
206,275	4,144	232,186	119,789
207,290	4,195	231,873	119,657
208,304	4,146	231,579	119,456
209,319	4,106	231,510	119,379
210,334	4,051	231,294	119,214
211,348	3,763	231,080	118,871
212,363	3,410	230,788	118,437
213,377	3,240	230,541	118,168
214,392	3,116	230,383	117,980
215,407	3,212	230,438	118,073
216,421	3,480	230,256	118,176
217,436	3,151	230,066	117,814
218,450	3,153	229,737	117,637
219,465	3,194	229,648	117,612
220,480	2,982	229,682	117,456
221,494	3,027	229,434	117,353
222,509	3,210	229,275	117,402
223,523	3,256	229,141	117,358
224,538	3,236	228,886	117,202
225,553	3,136	228,844	117,093
226,567	3,377	228,783	117,236
227,582	3,372	228,596	117,126
228,596	3,537	228,501	117,192
229,611	3,382	228,368	116,996
230,626	3,229	227,968	116,664
231,640	3,029	227,901	116,467
232,655	3,439	227,967	116,802
233,669	3,847	227,802	117,019
234,684	4,090	227,635	117,107
235,699	3,754	227,527	116,785
236,713	3,389	227,218	116,340
237,728	3,289	227,086	116,185
238,742	3,185	226,773	115,936
239,757	3,313	226,587	115,927
240,772	3,235	226,496	115,811
241,786	3,056	226,429	115,631
242,801	3,411	226,355	115,852
243,815	3,583	226,320	115,954
244,830	3,655	226,085	115,878
245,844	3,414	225,795	115,536
246,859	3,306	225,778	115,436
247,874	3,548	225,630	115,533
248,888	3,610	225,545	115,526
249,903	3,481	225,356	115,322
250,917	3,456	225,054	115,138
251,932	3,371	224,900	114,985
252,947	3,322	224,787	114,881
253,961	3,175	224,647	114,688
254,976	3,247	224,609	114,712
255,990	3,533	224,523	114,873
257,005	3,432	224,406	114,727
258,020	3,304	224,247	114,539
259,034	3,647	224,198	114,761
260,049	3,476	223,974	114,508
261,063	3,479	223,856	114,440
262,078	3,538	223,706	114,397
263,093	3,777	223,476	114,447
264,107	3,561	223,396	114,236
265,122	3,819	223,188	114,311
266,136	3,754	223,191	114,253
267,151	3,656	222,927	114,036
268,166	3,353	222,654	113,661
269,180	3,107	222,483	113,381
270,195	2,975	222,323	113,191
271,209	2,886	222,274	113,090
272,224	3,298	222,256	113,376
273,239	3,532	221,997	113,407
274,253	3,283	221,942	113,185
275,268	3,278	221,764	113,080
276,282	3,065	221,356	112,705
277,297	3,194	221,442	112,834
278,312	3,147	221,297	112,715
279,326	3,190	221,112	112,643
280,341	3,404	220,953	112,709
281,355	3,242	220,802	112,503
282,370	3,396	220,600	112,503
283,384	3,033	220,417	112,133
284,399	2,860	220,277	111,926
285,414	2,918	220,253	111,946
286,428	3,291	220,208	112,187
287,443	3,409	220,113	112,214
288,457	3,451	219,928	112,140
289,472	3,467	219,768	112,061
290,487	2,829	219,489	111,443
291,501	2,690	219,334	111,252
292,516	3,000	219,322	111,463
293,530	2,980	219,132	111,342
294,545	3,080	219,033	111,354
295,560	3,020	219,049	111,309
296,574	3,250	218,676	111,277
297,589	3,283	218,546	111,225
298,603	3,342	218,466	111,217
299,618	3,278	218,431	111,142
300,633	3,430	218,243	111,147
301,647	3,556	218,100	111,156
302,662	3,391	218,027	110,989
303,676	3,578	217,927	111,064
304,691	3,691	217,709	111,025
305,706	3,643	217,624	110,936
306,720	3,548	217,447	110,768
307,735	3,235	217,218	110,415
308,749	3,102	217,115	110,258
309,764	3,367	216,958	110,359
310,779	3,526	216,783	110,375
311,793	3,388	216,683	110,214
312,808	3,393	216,398	110,063
313,822	3,305	216,473	110,028
314,837	3,266	216,311	109,908
315,852	2,951	215,992	109,510
316,866	3,191	215,910	109,631
317,881	3,313	215,910	109,708
318,895	3,432	215,523	109,587
319,910	3,445	215,353	109,500
320,925	3,480	215,279	109,478
321,939	2,989	215,313	109,135
322,954	2,945	215,233	109,053
323,968	3,266	215,121	109,215
324,983	3,488	214,926	109,265
325,997	3,623	214,683	109,228
327,012	3,483	214,613	109,083
328,027	3,343	214,440	108,885
329,041	3,622	214,519	109,114
330,056	3,544	214,425	109,002
331,070	3,288	214,181	108,686
332,085	2,952	213,924	108,308
333,100	2,954	213,788	108,231
334,114	3,434	213,605	108,468
335,129	3,361	213,535	108,371
336,143	3,251	213,352	108,191
337,158	3,285	213,237	108,147
338,173	3,054	213,133	107,921
339,187	2,923	212,898	107,700
340,202	2,900	212,713	107,581
341,216	2,811	212,715	107,510
342,231	2,939	212,687	107,576
343,246	2,988	212,399	107,456
344,260	3,000	212,311	107,410
345,275	3,317	212,123	107,528
346,289	3,429	211,991	107,530
347,304	3,328	212,022	107,465
348,319	3,348	211,752	107,332
349,333	3,275	211,691	107,241
350,348	3,060	211,672	107,071
351,362	3,411	211,433	107,186
352,377	3,600	211,185	107,183
353,392	3,319	211,056	106,912
354,406	3,486	211,138	107,061
355,421	195,019	1341,179	1422,741
356,435	155,751	1478,868	1422,765
