DTS Sentinel unit serial number:	SN410029Multiplexer serial number:	ORYXHardware model number:	OX2-SRSoftware version number:	ORYX F/W v4,00 Oryx Data Collector v3.7.2.0data status	okinstallation	B6 Nyhavnadifferential loss correction	single-endedforward channel	channel 2reverse channel	N/Adate	2023/12/08time	15:10:08forward acquisition time	300,00reverse acquisition time	0,00gamma	499,1914k internal	0,3159k external	0,3159temperature offset calibration	1,0000default loss term (dB/km)	0,3820temperature slope calibration	1,0000multiplexer offset coefficient	1,0000multiplexer slope coefficient	1,0000fibre end	0,00T internal ref (°C)	15,06T ext. ref 1 (°C)	-1,48T ext. ref 2 (°C)	-1,48length (m)	temperature (°C)	Stokes	anti-Stokes-744,400	74,744	-0,051	-0,039
-743,385	-121,207	-0,249	-0,030
-742,371	371,626	0,077	0,116
-741,356	-134,907	-0,247	-0,022
-740,342	-200,000	0,024	0,108
-739,327	-164,970	-0,221	-0,007
-738,312	107,627	0,054	0,048
-737,298	5,226	-0,308	-0,167
-736,283	-161,253	0,104	-0,004
-735,269	-186,796	-0,260	0,003
-734,254	39,570	0,151	-0,100
-733,239	-7,636	-0,386	-0,192
-732,225	-127,165	0,169	0,018
-731,210	435,356	-0,064	0,102
-730,196	-113,678	-0,069	-0,010
-729,181	45,210	-0,183	-0,124
-728,167	-15,345	-0,138	0,065
-727,152	-105,050	-0,056	0,009
-726,137	-49,122	-0,091	0,032
-725,123	181,798	-0,076	0,082
-724,108	800,000	0,030	0,065
-723,094	188,247	-0,079	0,087
-722,079	111,241	-0,063	-0,056
-721,064	-11,754	0,020	0,009
-720,050	-200,000	-0,001	-0,083
-719,035	449,091	-0,076	0,124
-718,021	260,751	-0,080	0,102
-717,006	-119,440	0,032	0,004
-715,991	30,352	-0,050	-0,032
-714,977	-21,675	-0,068	0,031
-713,962	-71,274	-0,043	0,012
-712,948	-178,095	-0,140	0,002
-711,933	240,833	-0,112	0,137
-710,918	9,377	-0,057	0,032
-709,904	196,839	-0,141	-0,158
-708,889	-28,551	-0,102	-0,043
-707,875	482,888	-0,052	-0,087
-706,860	-108,937	0,069	-0,011
-705,845	-200,000	0,016	0,056
-704,831	-186,014	-0,213	-0,002
-703,816	800,000	-0,037	0,096
-702,802	68,652	0,101	0,076
-701,787	134,742	-0,066	-0,063
-700,772	229,175	-0,081	-0,097
-699,758	113,084	0,007	-0,007
-698,743	-153,752	0,111	0,006
-697,729	-148,385	0,091	-0,005
-696,714	250,973	0,023	-0,029
-695,699	75,329	-0,073	0,057
-694,685	55,190	0,062	-0,044
-693,670	205,853	0,048	-0,055
-692,656	-96,271	0,083	0,016
-691,641	152,892	-0,051	-0,051
-690,627	357,458	-0,060	0,089
-689,612	-92,838	-0,087	-0,018
-688,597	190,041	0,010	0,012
-687,583	800,000	0,034	-0,106
-686,568	-107,467	-0,142	-0,023
-685,554	307,443	-0,029	-0,040
-684,539	-110,923	0,071	-0,011
-683,524	800,000	-0,027	-0,075
-682,510	-70,418	0,080	-0,022
-681,495	197,574	-0,147	-0,165
-680,481	93,586	-0,071	0,059
-679,466	-200,000	-0,035	-0,180
-678,451	707,225	-0,053	-0,104
-677,437	251,552	-0,116	-0,146
-676,422	-200,000	-0,016	-0,102
-675,408	491,285	0,083	0,140
-674,393	729,617	0,020	-0,039
-673,378	-105,363	0,132	0,022
-672,364	173,522	-0,070	-0,074
-671,349	-2,059	-0,097	-0,050
-670,335	800,000	0,042	0,136
-669,320	517,853	0,042	0,072
-668,305	159,246	0,077	0,079
-667,291	139,538	-0,054	-0,052
-666,276	160,339	-0,042	0,043
-665,262	-189,875	-0,044	-0,000
-664,247	112,561	0,103	-0,092
-663,232	273,707	0,025	0,032
-662,218	-11,818	0,084	0,040
-661,203	159,372	-0,053	0,055
-660,189	-200,000	0,009	0,194
-659,174	-200,000	-0,004	0,139
-658,159	-200,000	0,002	-0,033
-657,145	-200,000	-0,044	-0,157
-656,130	800,000	0,038	-0,094
-655,116	124,059	0,067	0,062
-654,101	60,990	-0,112	-0,082
-653,086	-200,000	-0,006	-0,066
-652,072	800,000	-0,035	-0,102
-651,057	-200,000	0,007	-0,131
-650,043	-38,801	0,040	0,015
-649,028	-109,961	0,096	0,015
-648,014	-200,000	-0,000	0,038
-646,999	-51,237	0,200	0,068
-645,984	372,117	0,043	0,065
-644,970	-118,986	-0,093	-0,012
-643,955	93,035	-0,068	-0,056
-642,941	20,126	0,018	0,010
-641,926	-60,528	-0,045	0,014
-640,911	294,186	0,056	0,076
-639,897	-93,269	0,109	-0,022
-638,882	-88,744	-0,075	-0,016
-637,868	-100,166	-0,038	-0,007
-636,853	327,467	-0,139	-0,196
-635,838	137,440	-0,063	0,061
-634,824	-48,625	0,021	-0,007
-633,809	800,000	-0,009	0,028
-632,795	671,836	-0,038	0,072
-631,780	-59,999	-0,115	0,036
-630,765	-9,606	0,051	-0,025
-629,751	-153,092	-0,062	0,003
-628,736	33,624	-0,057	-0,036
-627,722	22,673	0,044	-0,027
-626,707	528,571	-0,046	-0,080
-625,692	-50,420	0,076	0,026
-624,678	800,000	-0,035	0,082
-623,663	270,971	-0,083	-0,108
-622,649	-100,359	-0,122	0,022
-621,634	122,908	0,126	-0,115
-620,619	-200,000	-0,023	0,096
-619,605	-52,062	-0,091	-0,031
-618,590	16,631	0,073	-0,042
-617,576	-95,653	0,030	-0,006
-616,561	163,334	0,023	-0,023
-615,546	358,917	-0,064	0,095
-614,532	377,824	-0,034	-0,052
-613,517	800,000	0,019	0,059
-612,503	587,147	0,079	-0,144
-611,488	-109,299	0,148	0,023
-610,474	199,535	0,106	0,120
-609,459	-200,000	0,003	0,027
-608,444	34,150	-0,152	-0,097
-607,430	333,729	0,024	-0,035
-606,415	212,121	0,046	-0,053
-605,401	-50,820	-0,151	-0,052
-604,386	-200,000	-0,004	-0,070
-603,371	444,769	-0,038	-0,061
-602,357	208,067	0,005	-0,006
-601,342	367,473	-0,024	0,036
-600,328	373,827	0,016	-0,024
-599,313	-86,996	0,061	0,014
-598,298	233,921	-0,060	0,073
-597,284	26,385	-0,110	-0,067
-596,269	-200,000	-0,008	-0,070
-595,255	-106,583	0,123	-0,020
-594,240	146,555	0,038	-0,037
-593,225	-200,000	-0,010	-0,092
-592,211	-200,000	0,006	-0,126
-591,196	-200,000	-0,041	-0,203
-590,182	551,104	-0,053	0,093
-589,167	-200,000	0,026	0,101
-588,152	107,384	-0,106	-0,092
-587,138	-8,025	-0,122	0,060
-586,123	169,345	0,057	-0,060
-585,109	-200,000	-0,003	-0,093
-584,094	168,222	-0,059	-0,062
-583,079	-0,815	0,097	-0,050
-582,065	109,754	0,107	0,094
-581,050	-7,767	0,085	-0,042
-580,036	415,789	0,044	-0,069
-579,021	800,000	-0,020	-0,053
-578,006	56,619	-0,146	-0,104
-576,992	-200,000	-0,056	-0,190
-575,977	-121,100	0,149	0,018
-574,963	-48,738	0,205	0,072
-573,948	-28,311	-0,128	0,054
-572,934	2,661	-0,212	0,112
-571,919	-39,750	-0,041	-0,015
-570,904	237,890	0,040	-0,049
-569,890	69,695	-0,165	-0,124
-568,875	800,000	-0,027	0,079
-567,861	-33,670	0,070	-0,028
-566,846	-200,000	-0,025	0,090
-565,831	-200,000	0,028	-0,104
-564,817	-200,000	0,014	-0,121
-563,802	-128,505	-0,060	-0,006
-562,788	-86,924	-0,088	0,020
-561,773	-70,698	0,121	0,033
-560,758	146,653	0,067	-0,066
-559,744	188,259	0,044	0,049
-558,729	38,230	-0,094	0,061
-557,715	58,899	0,036	0,026
-556,700	-12,010	-0,048	0,023
-555,685	-18,757	-0,114	0,052
-554,671	-105,001	0,052	0,009
-553,656	-200,000	-0,007	0,061
-552,642	800,000	-0,004	0,008
-551,627	234,089	-0,051	0,062
-550,612	-24,324	0,114	0,050
-549,598	-200,000	-0,026	-0,113
-548,583	-7,208	-0,078	-0,039
-547,569	387,246	0,029	-0,044
-546,554	800,000	0,048	0,149
-545,539	123,615	0,019	-0,017
-544,525	316,624	0,042	-0,059
-543,510	129,294	-0,137	0,128
-542,496	-89,079	-0,053	-0,011
-541,481	173,636	-0,066	0,070
-540,466	213,668	-0,037	-0,043
-539,452	-31,071	0,229	-0,094
-538,437	-200,000	-0,004	0,109
-537,423	61,087	0,044	0,032
-536,408	-196,747	-0,135	-0,001
-535,393	-200,000	-0,002	-0,013
-534,379	-65,107	0,149	-0,044
-533,364	-200,000	-0,150	0,000
-532,350	-200,000	0,035	0,157
-531,335	-200,000	-0,011	0,035
-530,321	514,059	0,073	-0,124
-529,306	-52,071	0,117	-0,040
-528,291	800,000	0,083	-0,179
-527,277	176,543	-0,164	-0,174
-526,262	200,399	0,088	-0,099
-525,248	348,680	0,035	-0,051
-524,233	-55,090	0,088	0,029
-523,218	800,000	0,066	0,141
-522,204	-200,000	-0,024	0,198
-521,189	23,765	0,076	-0,046
-520,175	-165,466	0,055	-0,002
-519,160	-42,177	-0,100	0,037
-518,145	87,687	0,052	0,042
-517,131	-200,000	0,056	0,192
-516,116	298,820	0,075	-0,102
-515,102	800,000	-0,008	0,024
-514,087	252,801	-0,047	0,058
-513,072	-200,000	-0,046	-0,217
-512,058	800,000	-0,024	0,052
-511,043	-200,000	-0,005	-0,038
-510,029	23,027	-0,109	0,065
-509,014	-200,000	0,009	-0,075
-507,999	-200,000	0,025	-0,105
-506,985	800,000	0,027	-0,069
-505,970	-200,000	0,007	-0,064
-504,956	-200,000	0,001	0,025
-503,941	166,852	0,012	-0,012
-502,926	-200,000	0,004	0,099
-501,912	10,119	0,155	0,086
-500,897	-200,000	-0,005	-0,129
-499,883	450,083	-0,031	-0,051
-498,868	792,885	0,081	0,163
-497,853	-200,000	-0,012	-0,085
-496,839	3,026	0,039	0,021
-495,824	-200,000	-0,009	-0,031
-494,810	14,286	0,042	0,024
-493,795	-200,000	-0,004	0,070
-492,781	-200,000	0,004	0,087
-491,766	-135,031	-0,152	0,013
-490,751	-200,000	-0,009	-0,097
-489,737	-200,000	0,000	-0,089
-488,722	5,358	0,048	0,026
-487,708	-200,000	0,013	-0,043
-486,693	800,000	0,037	0,110
-485,678	-96,890	-0,150	0,028
-484,664	23,783	0,031	0,019
-483,649	159,708	0,040	0,041
-482,635	-94,829	-0,042	-0,008
-481,620	-100,316	0,033	-0,006
-480,605	-109,721	-0,082	-0,012
-479,591	-99,832	-0,052	-0,009
-478,576	-200,000	0,002	0,098
-477,562	64,576	-0,111	-0,082
-476,547	-200,000	0,008	0,090
-475,532	84,272	-0,094	-0,075
-474,518	96,303	-0,110	-0,092
-473,503	800,000	-0,030	0,062
-472,489	-101,991	-0,123	0,021
-471,474	138,778	0,029	-0,028
-470,459	-80,033	0,091	-0,022
-469,445	-200,000	0,022	-0,094
-468,430	61,964	-0,079	-0,057
-467,416	-200,000	-0,016	0,151
-466,401	800,000	0,022	0,067
-465,386	115,178	0,072	-0,064
-464,372	-42,910	0,090	0,033
-463,357	-174,209	0,027	0,001
-462,343	170,949	0,040	0,042
-461,328	-200,000	-0,006	-0,045
-460,313	-200,000	-0,020	0,098
-459,299	62,761	0,078	-0,057
-458,284	-200,000	-0,052	0,203
-457,270	800,000	-0,029	0,064
-456,255	9,362	0,027	0,015
-455,241	536,999	0,042	-0,072
-454,226	-44,418	-0,037	0,014
-453,211	-138,857	0,061	-0,005
-452,197	700,105	0,046	0,089
-451,182	543,876	0,074	0,129
-450,168	201,438	0,105	-0,117
-449,153	-200,000	-0,003	-0,062
-448,138	-200,000	-0,027	0,099
-447,124	800,000	0,042	-0,089
-446,109	-155,261	0,040	-0,002
-445,095	-200,000	0,018	0,063
-444,080	-200,000	0,001	-0,020
-443,065	-200,000	0,018	0,087
-442,051	-196,905	0,039	0,000
-441,036	-56,437	0,106	-0,034
-440,022	50,939	-0,154	-0,106
-439,007	-200,000	0,009	0,035
-437,992	-69,857	0,175	-0,048
-436,978	556,436	0,063	0,111
-435,963	-88,473	-0,036	0,008
-434,949	-7,902	-0,059	-0,029
-433,934	800,000	0,027	-0,081
-432,919	-67,273	-0,236	-0,067
-431,905	9,314	-0,087	-0,048
-430,890	259,686	-0,028	-0,036
-429,876	-200,000	0,006	0,042
-428,861	-200,000	0,020	0,115
-427,846	83,581	-0,034	-0,027
-426,832	439,356	0,054	-0,086
-425,817	-71,821	0,064	-0,017
-424,803	-200,000	0,005	-0,104
-423,788	-200,000	-0,006	0,042
-422,773	-107,154	-0,055	-0,009
-421,759	800,000	-0,050	0,127
-420,744	-108,040	0,071	0,011
-419,730	170,489	0,004	-0,004
-418,715	222,568	-0,075	-0,088
-417,701	165,321	0,032	-0,033
-416,686	800,000	-0,018	-0,056
-415,671	158,080	-0,060	0,060
-414,657	800,000	0,010	-0,020
-413,642	170,853	0,108	-0,113
-412,628	-36,799	-0,024	-0,009
-411,613	136,776	0,121	-0,115
-410,598	-200,000	0,013	0,134
-409,584	-76,931	0,107	0,027
-408,569	-41,638	0,168	0,062
-407,555	111,624	0,073	0,064
-406,540	-85,063	-0,074	0,017
-405,525	-200,000	-0,025	0,142
-404,511	73,206	-0,113	0,086
-403,496	53,623	-0,139	0,097
-402,482	275,578	0,046	-0,060
-401,467	273,200	0,086	0,110
-400,452	-200,000	0,018	0,117
-399,438	-200,000	0,020	0,246
-398,423	-200,000	-0,003	-0,031
-397,409	394,402	-0,110	-0,167
-396,394	435,247	-0,074	-0,117
-395,379	44,413	0,100	-0,067
-394,365	-200,000	-0,004	0,056
-393,350	800,000	-0,031	0,091
-392,336	800,000	-0,029	0,086
-391,321	-86,729	-0,173	-0,038
-390,306	566,555	-0,062	-0,111
-389,292	800,000	-0,068	-0,140
-388,277	800,000	0,022	0,065
-387,263	37,535	-0,131	-0,084
-386,248	-60,186	0,047	0,015
-385,233	-143,744	-0,055	-0,004
-384,219	800,000	0,022	-0,065
-383,204	-200,000	0,028	-0,158
-382,190	-7,445	-0,057	-0,028
-381,175	113,336	0,028	0,025
-380,160	-83,181	-0,047	0,011
-379,146	800,000	0,042	-0,100
-378,131	57,249	0,071	-0,050
-377,117	180,979	0,022	-0,023
-376,102	47,803	-0,182	-0,124
-375,088	120,524	-0,016	-0,014
-374,073	-200,000	-0,011	0,046
-373,058	186,377	0,076	-0,082
-372,044	13,436	-0,054	-0,030
-371,029	-43,238	0,140	0,051
-370,015	-68,161	-0,080	-0,022
-369,000	124,655	0,031	-0,028
-367,985	344,105	0,028	0,040
-366,971	-185,689	-0,078	0,001
-365,956	-174,476	-0,047	-0,001
-364,942	-200,000	0,006	-0,038
-363,927	423,346	0,080	0,125
-362,912	-200,000	0,006	0,052
-361,898	-200,000	0,008	0,124
-360,883	141,371	0,085	-0,082
-359,869	-125,277	-0,130	-0,014
-358,854	-44,275	0,029	0,011
-357,839	632,755	0,086	-0,160
-356,825	800,000	-0,046	0,122
-355,810	-22,882	0,070	0,030
-354,796	-200,000	0,022	-0,083
-353,781	113,492	-0,055	-0,048
-352,766	-200,000	-0,020	-0,155
-351,752	-24,214	-0,070	-0,030
-350,737	-200,000	0,023	-0,128
-349,723	-29,718	-0,063	0,026
-348,708	80,726	0,026	0,020
-347,693	-200,000	0,006	0,029
-346,679	-200,000	-0,020	-0,140
-345,664	139,163	-0,094	-0,089
-344,650	324,604	0,017	0,024
-343,635	-200,000	0,014	0,084
-342,620	-200,000	0,055	0,184
-341,606	-32,333	0,161	0,065
-340,591	-62,533	-0,061	0,018
-339,577	-200,000	0,004	0,055
-338,562	174,207	-0,088	0,092
-337,548	217,004	0,090	0,105
-336,533	-146,002	0,107	-0,007
-335,518	-200,000	0,039	-0,138
-334,504	800,000	-0,047	-0,122
-333,489	-72,280	0,062	-0,017
-332,475	800,000	-0,033	0,103
-331,460	64,890	-0,053	-0,039
-330,445	800,000	0,037	-0,097
-329,431	121,089	0,079	0,071
-328,416	-200,000	0,010	0,057
-327,402	-53,310	0,058	0,019
-326,387	244,212	-0,063	-0,077
-325,372	-200,000	0,001	-0,056
-324,358	800,000	-0,030	-0,064
-323,343	508,676	-0,039	0,067
-322,329	-200,000	-0,009	0,109
-321,314	-38,560	-0,124	0,047
-320,299	-200,000	-0,006	-0,090
-319,285	124,546	0,110	-0,100
-318,270	-200,000	0,017	-0,099
-317,256	-200,000	0,003	-0,016
-316,241	-130,067	-0,072	-0,007
-315,226	800,000	0,050	0,150
-314,212	632,605	-0,018	0,033
-313,197	33,349	0,118	-0,074
-312,183	-189,288	-0,121	-0,001
-311,168	447,052	0,024	-0,039
-310,153	-200,000	0,007	-0,090
-309,139	413,430	-0,082	-0,127
-308,124	800,000	0,036	0,079
-307,110	800,000	0,089	0,183
-306,095	-58,513	0,074	0,023
-305,080	12,368	0,064	0,036
-304,066	76,816	0,028	0,021
-303,051	146,158	-0,072	-0,070
-302,037	156,878	-0,017	0,017
-301,022	-200,000	-0,034	-0,120
-300,008	800,000	0,043	0,090
-298,993	-68,391	-0,032	0,009
-297,978	107,725	-0,061	0,053
-296,964	-200,000	0,006	-0,139
-295,949	800,000	-0,005	-0,011
-294,935	185,702	-0,067	-0,072
-293,920	200,268	-0,055	-0,061
-292,905	-200,000	0,005	0,058
-291,891	20,480	0,075	0,044
-290,876	237,205	0,097	-0,117
-289,862	263,049	0,080	-0,101
-288,847	-54,639	-0,214	-0,070
-287,832	459,565	0,024	0,039
-286,818	100,818	0,061	0,051
-285,803	262,076	0,120	0,151
-284,789	-200,000	-0,013	0,218
-283,774	800,000	0,006	-0,015
-282,759	800,000	0,048	-0,105
-281,745	104,427	-0,055	0,047
-280,730	-12,658	-0,091	-0,043
-279,716	426,396	0,067	-0,104
-278,701	800,000	0,088	0,232
-277,686	-200,000	0,026	0,102
-276,672	800,000	0,019	0,054
-275,657	-161,569	0,060	-0,002
-274,643	-72,830	-0,057	0,015
-273,628	-200,000	0,014	-0,091
-272,613	-200,000	-0,014	0,133
-271,599	294,965	-0,025	-0,034
-270,584	489,505	0,051	0,085
-269,570	3,005	0,089	0,047
-268,555	44,573	0,041	-0,027
-267,540	800,000	-0,046	-0,103
-266,526	-93,767	0,047	0,009
-265,511	-200,000	-0,033	-0,177
-264,497	376,591	-0,050	-0,075
-263,482	-139,391	0,105	0,008
-262,467	44,499	-0,105	-0,070
-261,453	-200,000	-0,029	0,145
-260,438	800,000	0,040	0,104
-259,424	-200,000	-0,009	0,195
-258,409	-16,321	-0,102	0,047
-257,395	800,000	-0,023	0,050
-256,380	-5,388	-0,008	0,004
-255,365	-200,000	-0,018	0,123
-254,351	-62,005	0,100	0,030
-253,336	-11,705	-0,074	-0,035
-252,322	-200,000	0,006	-0,133
-251,307	68,823	-0,065	0,048
-250,292	-79,310	-0,083	0,020
-249,278	192,270	0,079	0,086
-248,263	-90,309	0,007	0,002
-247,249	191,159	-0,079	0,086
-246,234	217,702	0,021	-0,024
-245,219	1,782	0,019	0,010
-244,205	800,000	-0,065	-0,184
-243,190	-200,000	0,003	-0,114
-242,176	-30,869	0,117	-0,048
-241,161	-54,236	0,064	0,021
-240,146	244,590	-0,065	0,080
-239,132	-43,055	-0,151	0,055
-238,117	-111,468	-0,138	-0,020
-237,103	-200,000	-0,034	-0,138
-236,088	-200,000	0,008	-0,030
-235,073	-200,000	-0,014	0,105
-234,059	800,000	0,038	0,078
-233,044	800,000	0,010	-0,023
-232,030	-62,928	0,079	0,024
-231,015	739,136	0,022	0,043
-230,000	391,352	0,079	-0,118
-228,986	800,000	0,024	-0,060
-227,971	247,771	0,035	0,043
-226,957	713,914	0,025	0,047
-225,942	800,000	0,063	0,169
-224,927	184,459	0,061	0,065
-223,913	-89,417	0,086	-0,018
-222,898	-200,000	0,006	0,047
-221,884	800,000	-0,014	-0,033
-220,869	-200,000	0,005	-0,103
-219,855	-74,523	0,116	0,030
-218,840	23,534	-0,031	-0,018
-217,825	328,532	0,089	0,124
-216,811	332,024	-0,070	-0,098
-215,796	-16,837	0,098	-0,044
-214,782	-200,000	-0,022	0,113
-213,767	526,149	0,057	0,097
-212,752	69,119	0,002	-0,001
-211,738	226,662	-0,004	-0,005
-210,723	353,194	0,073	0,104
-209,709	-200,000	0,003	0,062
-208,694	-200,000	-0,020	-0,185
-207,679	-200,000	0,009	0,033
-206,665	-187,676	0,136	0,001
-205,650	-156,914	-0,114	-0,005
-204,636	800,000	0,031	-0,080
-203,621	-200,000	0,017	-0,053
-202,606	-11,436	0,083	0,039
-201,592	-39,147	-0,142	0,053
-200,577	662,335	-0,046	-0,085
-199,563	-70,840	-0,090	-0,024
-198,548	-96,115	0,161	0,031
-197,533	-139,789	0,162	0,012
-196,519	800,000	-0,027	0,071
-195,504	-200,000	-0,036	0,128
-194,490	-77,436	-0,057	-0,014
-193,475	80,715	0,038	0,029
-192,460	584,816	-0,027	-0,048
-191,446	-35,284	0,099	-0,039
-190,431	-200,000	-0,019	0,204
-189,417	-200,000	-0,026	0,204
-188,402	-40,558	-0,034	0,013
-187,387	57,356	0,103	-0,073
-186,373	-125,103	-0,222	-0,024
-185,358	800,000	0,011	0,031
-184,344	-85,145	0,038	0,008
-183,329	708,035	-0,053	0,101
-182,315	-22,710	0,131	0,057
-181,300	297,966	-0,077	0,103
-180,285	57,854	-0,106	-0,074
-179,271	-111,405	-0,048	0,007
-178,256	139,444	0,053	0,050
-177,242	-106,445	0,081	0,013
-176,227	633,008	0,031	0,057
-175,212	800,000	0,016	0,046
-174,198	527,941	-0,027	-0,046
-173,183	-28,755	-0,021	-0,009
-172,169	-200,000	0,005	0,029
-171,154	426,167	-0,032	-0,050
-170,139	800,000	-0,027	-0,068
-169,125	-34,417	-0,166	0,065
-168,110	29,405	0,068	-0,041
-167,096	-102,909	0,065	-0,011
-166,081	-175,632	-0,146	0,003
-165,066	40,764	0,037	0,024
-164,052	505,309	-0,059	0,098
-163,037	800,000	-0,048	-0,116
-162,023	-200,000	0,014	0,066
-161,008	-14,473	-0,077	0,036
-159,993	555,964	0,027	-0,047
-158,979	-64,394	-0,126	-0,037
-157,964	-125,289	-0,061	0,007
-156,950	183,381	0,117	-0,124
-155,935	524,975	-0,038	0,065
-154,920	-200,000	-0,006	-0,082
-153,906	-98,949	0,078	0,014
-152,891	-125,183	-0,057	-0,006
-151,877	-200,000	-0,001	0,060
-150,862	183,789	0,110	-0,118
-149,847	-200,000	0,013	0,049
-148,833	-200,000	0,013	-0,145
-147,818	64,798	0,083	0,060
-146,804	-200,000	0,018	0,125
-145,789	68,541	0,072	0,053
-144,775	-124,315	-0,139	-0,015
-143,760	-200,000	-0,001	-0,050
-142,745	-200,000	0,006	0,183
-141,731	-83,418	0,055	-0,013
-140,716	-200,000	0,001	0,018
-139,702	800,000	0,053	0,128
-138,687	37,580	0,044	0,028
-137,672	-200,000	-0,018	-0,160
-136,658	134,679	0,071	-0,066
-135,643	-111,506	-0,161	-0,023
-134,629	610,507	0,025	0,046
-133,614	-200,000	0,035	0,203
-132,599	713,448	0,062	0,120
-131,585	-200,000	-0,012	-0,095
-130,570	96,806	-0,101	0,083
-129,556	170,220	0,029	0,029
-128,541	219,540	0,056	0,065
-127,526	800,000	-0,033	0,087
-126,512	800,000	0,016	-0,041
-125,497	800,000	-0,036	0,085
-124,483	800,000	0,025	0,066
-123,468	-100,274	-0,017	-0,003
-122,453	-167,035	-0,097	-0,003
-121,439	800,000	0,053	-0,112
-120,424	-200,000	-0,004	0,016
-119,410	11,673	-0,100	0,055
-118,395	-6,124	0,148	-0,072
-117,380	-14,331	-0,088	0,041
-116,366	-200,000	-0,028	-0,110
-115,351	264,016	0,031	-0,039
-114,337	793,695	0,007	0,014
-113,322	800,000	-0,020	-0,061
-112,307	-200,000	0,020	-0,082
-111,293	166,895	0,139	0,142
-110,278	-200,000	-0,011	0,049
-109,264	-200,000	-0,011	-0,070
-108,249	-200,000	-0,024	0,147
-107,234	-200,000	0,017	0,059
-106,220	155,020	-0,072	-0,071
-105,205	15,112	0,099	-0,056
-104,191	-200,000	-0,001	0,041
-103,176	-61,873	0,043	-0,013
-102,162	800,000	-0,068	-0,137
-101,147	800,000	-0,011	0,031
-100,132	-200,000	0,017	-0,113
-99,118	6,454	0,109	-0,058
-98,103	800,000	-0,039	0,083
-97,089	386,942	0,093	-0,139
-96,074	237,288	-0,038	-0,046
-95,059	-200,000	0,000	0,043
-94,045	800,000	-0,093	-0,223
-93,030	800,000	0,078	-0,160
-92,016	39,414	-0,084	-0,054
-91,001	-200,000	-0,003	-0,069
-89,986	-200,000	0,019	-0,061
-88,972	289,093	0,038	0,049
-87,957	-200,000	-0,004	-0,077
-86,943	-69,805	-0,017	0,005
-85,928	-134,323	-0,047	-0,004
-84,913	-78,981	0,064	0,016
-83,899	9,408	0,062	0,034
-82,884	256,037	0,081	0,101
-81,870	-27,883	0,131	0,054
-80,855	105,219	-0,016	-0,014
-79,840	800,000	0,012	-0,037
-78,826	741,416	0,026	0,050
-77,811	-2,665	0,056	-0,028
-76,797	-66,091	0,121	0,034
-75,782	16,762	0,070	0,040
-74,767	-200,000	-0,005	0,061
-73,753	-167,462	-0,137	-0,004
-72,738	-52,628	0,064	-0,021
-71,724	225,361	-0,055	0,064
-70,709	-94,493	-0,134	0,026
-69,694	-147,750	-0,077	0,005
-68,680	-200,000	0,007	0,041
-67,665	797,515	0,064	-0,128
-66,651	-2,196	0,069	0,035
-65,636	-200,000	-0,000	0,051
-64,622	-200,000	0,034	0,135
-63,607	515,079	-0,064	-0,107
-62,592	-200,000	0,035	-0,121
-61,578	221,738	0,072	0,084
-60,563	298,288	-0,052	0,069
-59,549	800,000	-0,037	0,104
-58,534	37,841	-1,970	-1,254
-57,519	-200,000	-0,196	-0,893
-56,505	-200,000	-1,276	-4,965
-55,490	127,460	0,827	0,754
-54,476	800,000	5,207	11,534
-53,461	-200,000	17,970	289,478
-52,446	800,000	727,643	2223,766
-51,432	532,926	1640,387	2796,909
-50,417	108,747	1629,875	1396,816
-49,403	72,648	1283,078	959,311
-48,388	31,178	1025,914	630,038
-47,373	19,825	988,021	569,378
-46,359	18,179	975,901	556,983
-45,344	15,360	972,043	545,549
-44,330	15,556	970,692	545,407
-43,315	15,185	968,733	543,078
-42,300	15,082	967,621	542,095
-41,286	15,058	966,532	541,385
-40,271	15,018	965,686	540,761
-39,257	15,125	964,570	540,462
-38,242	15,134	963,909	540,101
-37,227	15,073	963,031	539,387
-36,213	15,137	962,083	539,044
-35,198	15,047	961,294	538,290
-34,184	15,121	960,566	538,099
-33,169	15,060	959,728	537,412
-32,154	15,153	958,532	537,021
-31,140	15,109	957,835	536,466
-30,125	15,101	957,161	536,040
-29,111	15,074	956,380	535,497
-28,096	15,085	955,689	535,122
-27,082	15,110	955,008	534,800
-26,067	15,080	954,098	534,173
-25,052	15,077	953,294	533,693
-24,038	15,055	952,934	533,398
-23,023	15,086	952,123	533,024
-22,009	15,170	951,342	532,834
-20,994	15,158	950,733	532,432
-19,979	15,079	950,266	531,899
-18,965	15,084	949,543	531,488
-17,950	15,115	948,994	531,258
-16,936	14,986	948,497	530,548
-15,921	14,988	947,723	530,103
-14,906	14,931	946,994	529,490
-13,892	15,034	946,137	529,319
-12,877	14,957	945,812	528,870
-11,863	14,967	945,175	528,525
-10,848	15,032	944,362	528,254
-9,833	15,050	944,244	528,227
-8,819	15,061	943,440	527,791
-7,804	15,007	942,810	527,244
-6,790	14,984	942,336	526,886
-5,775	15,040	941,705	526,689
-4,760	15,034	941,047	526,281
-3,746	15,019	940,398	525,851
-2,731	14,835	939,607	524,806
-1,717	14,812	939,048	524,402
-0,702	14,834	938,396	524,087
0,313	14,610	937,676	523,767
1,327	18,193	935,594	533,825
2,342	27,592	789,213	475,034
3,356	24,193	444,200	262,319
4,371	-5,721	295,353	144,543
5,386	-9,747	276,977	131,725
6,400	-10,930	271,127	127,834
7,415	-11,014	269,085	126,783
8,429	-11,037	267,680	126,088
9,444	-11,048	266,602	125,559
10,459	-11,105	266,189	125,302
11,473	-11,256	265,462	124,811
12,488	-11,300	264,840	124,467
13,502	-11,423	264,422	124,149
14,517	-11,460	264,084	123,946
15,531	-11,252	263,478	123,838
16,546	-11,305	263,195	123,646
17,561	-11,332	262,754	123,404
18,575	-11,346	262,483	123,252
19,590	-11,396	262,092	123,013
20,604	-11,229	261,883	123,054
21,619	-11,366	261,533	122,756
22,634	-11,318	261,328	122,692
23,648	-11,408	260,974	122,434
24,663	-11,378	260,669	122,307
25,677	-11,426	260,486	122,167
26,692	-11,228	260,057	122,131
27,707	-11,157	259,703	122,017
28,721	-11,413	259,557	121,710
29,736	-11,499	259,273	121,490
30,750	-11,606	258,993	121,254
31,765	-11,786	258,832	121,009
32,780	-11,517	258,512	121,086
33,794	-11,589	258,351	120,936
34,809	-11,510	258,087	120,871
35,823	-11,571	257,775	120,660
36,838	-11,481	257,505	120,602
37,853	-11,542	257,216	120,402
38,867	-11,563	257,074	120,306
39,882	-11,757	256,930	120,059
40,896	-11,444	256,599	120,168
41,911	-11,505	256,441	120,029
42,926	-11,615	256,145	119,784
43,940	-11,477	255,811	119,738
44,955	-11,721	255,674	119,450
45,969	-11,609	255,351	119,386
46,984	-11,945	255,249	119,035
47,999	-12,122	254,865	118,692
49,013	-12,067	254,613	118,611
50,028	-12,263	254,367	118,316
51,042	-12,389	254,070	118,058
52,057	-12,352	253,859	117,982
53,071	-12,331	253,588	117,863
54,086	-12,234	253,491	117,892
55,101	-12,017	253,312	117,985
56,115	-11,905	253,271	118,053
57,130	-11,434	253,275	118,451
58,144	-11,374	253,083	118,402
59,159	-11,262	252,838	118,373
60,174	-11,237	252,545	118,247
61,188	-11,314	252,403	118,104
62,203	-11,259	252,039	117,970
63,217	-11,318	251,972	117,877
64,232	-11,294	251,640	117,732
65,247	-11,266	251,449	117,656
66,261	-11,472	251,249	117,376
67,276	-11,634	250,960	117,092
68,290	-11,766	250,700	116,847
69,305	-11,828	250,562	116,720
70,320	-11,828	250,321	116,597
71,334	-11,527	250,138	116,758
72,349	-11,348	250,082	116,874
73,363	-11,278	249,898	116,837
74,378	-11,197	249,549	116,733
75,393	-11,336	249,558	116,608
76,407	-11,330	249,218	116,444
77,422	-11,311	248,985	116,340
78,436	-11,505	248,883	116,118
79,451	-11,438	248,608	116,036
80,466	-11,619	248,326	115,742
81,480	-11,701	248,117	115,564
82,495	-11,726	247,925	115,443
83,509	-11,579	247,704	115,454
84,524	-12,001	247,619	115,049
85,539	-11,808	247,238	115,024
86,553	-11,665	246,804	114,931
87,568	-11,865	246,911	114,803
88,582	-11,670	246,665	114,842
89,597	-11,856	246,583	114,638
90,611	-11,614	246,366	114,729
91,626	-11,419	246,210	114,810
92,641	-11,427	246,083	114,734
93,655	-11,673	245,811	114,391
94,670	-11,806	245,631	114,186
95,684	-11,588	245,414	114,257
96,699	-11,779	245,231	114,003
97,714	-11,811	245,117	113,912
98,728	-11,854	244,948	113,788
99,743	-11,925	244,598	113,556
100,757	-11,831	244,574	113,614
101,772	-11,696	244,156	113,521
102,787	-11,730	244,075	113,445
103,801	-11,640	243,922	113,438
104,816	-11,758	243,735	113,244
105,830	-11,294	243,619	113,563
106,845	-11,332	243,476	113,455
107,860	-11,527	243,234	113,171
108,874	-11,752	243,175	112,948
109,889	-11,744	242,755	112,750
110,903	-11,689	242,585	112,705
111,918	-11,714	242,344	112,563
112,933	-11,621	242,224	112,573
113,947	-11,535	242,104	112,579
114,962	-11,413	241,818	112,535
115,976	-11,467	241,693	112,423
116,991	-11,436	241,676	112,430
118,006	-11,493	241,383	112,238
119,020	-11,392	241,300	112,272
120,035	-11,515	241,242	112,134
121,049	-11,454	241,065	112,091
122,064	-11,656	240,894	111,837
123,079	-11,528	240,645	111,816
124,093	-11,666	240,400	111,579
125,108	-11,857	240,013	111,235
126,122	-11,981	239,970	111,104
127,137	-12,159	239,783	110,863
128,151	-11,775	239,489	111,029
129,166	-11,690	239,281	110,992
130,181	-12,038	239,219	110,671
131,195	-11,847	238,881	110,659
132,210	-11,827	239,077	110,756
133,224	-11,638	238,550	110,655
134,239	-11,604	238,537	110,666
135,254	-11,830	238,468	110,442
136,268	-11,637	238,168	110,449
137,283	-11,903	237,852	110,078
138,297	-11,896	237,579	109,947
139,312	-12,082	237,512	109,757
140,327	-11,783	237,415	109,943
141,341	-11,183	237,405	110,410
142,356	-11,233	237,246	110,287
143,370	-11,127	237,012	110,253
144,385	-11,236	236,993	110,147
145,400	-11,138	236,779	110,116
146,414	-11,051	236,575	110,081
147,429	-11,181	236,302	109,841
148,443	-11,273	236,181	109,701
149,458	-11,130	236,052	109,745
150,473	-11,148	235,887	109,644
151,487	-11,212	235,476	109,393
152,502	-11,329	235,549	109,323
153,516	-11,269	235,340	109,265
154,531	-11,188	235,138	109,226
155,546	-11,363	235,120	109,068
156,560	-11,488	234,838	108,829
157,575	-11,534	234,625	108,684
158,589	-11,457	234,403	108,632
159,604	-11,141	234,291	108,820
160,619	-11,033	234,132	108,823
161,633	-11,225	234,076	108,635
162,648	-11,085	233,788	108,602
163,662	-11,226	233,597	108,393
164,677	-11,296	233,505	108,285
165,692	-11,245	233,436	108,283
166,706	-11,132	233,313	108,306
167,721	-11,006	233,178	108,333
168,735	-11,068	232,946	108,167
169,750	-11,302	232,845	107,926
170,764	-11,312	232,818	107,896
171,779	-11,231	232,414	107,763
172,794	-11,091	232,382	107,848
173,808	-11,330	232,104	107,522
174,823	-11,688	231,879	107,128
175,837	-11,993	231,736	106,814
176,852	-11,437	231,542	107,150
177,867	-11,151	231,430	107,312
178,881	-11,312	231,407	107,165
179,896	-11,204	231,270	107,177
180,910	-10,970	231,066	107,255
181,925	-11,335	231,058	106,957
182,940	-11,278	230,841	106,891
183,954	-11,108	230,682	106,941
184,969	-10,878	230,479	107,016
185,983	-10,987	230,409	106,889
186,998	-11,022	230,304	106,804
188,013	-11,065	229,964	106,603
189,027	-11,031	230,023	106,647
190,042	-10,878	229,822	106,663
191,056	-10,912	229,593	106,521
192,071	-10,973	229,428	106,388
193,086	-11,027	229,244	106,251
194,100	-10,991	229,019	106,165
195,115	-11,278	228,688	105,782
196,129	-11,233	228,813	105,865
197,144	-5,865	230,492	110,793
198,159	-0,604	232,006	115,604
199,173	2,761	232,838	118,629
200,188	3,325	232,721	118,997
201,202	3,201	232,701	118,879
202,217	3,309	232,562	118,882
203,232	3,584	232,662	119,136
204,246	3,832	232,359	119,163
205,261	3,727	232,303	119,042
206,275	3,717	232,172	118,956
207,290	3,953	232,080	119,081
208,304	3,880	231,946	118,946
209,319	3,712	231,822	118,742
210,334	3,850	231,483	118,663
211,348	3,520	231,289	118,299
212,363	3,263	231,092	117,989
213,377	2,922	230,768	117,551
214,392	2,927	230,718	117,519
215,407	3,262	230,592	117,702
216,421	3,316	230,484	117,677
217,436	3,154	230,184	117,390
218,450	2,898	229,947	117,062
219,465	2,837	229,938	117,001
220,480	2,807	229,749	116,871
221,494	2,626	229,486	116,588
222,509	3,154	229,585	117,032
223,523	3,165	229,444	116,958
224,538	3,085	229,202	116,764
225,553	2,945	229,039	116,563
226,567	3,477	228,748	116,810
227,582	3,291	228,899	116,735
228,596	3,245	228,832	116,655
229,611	3,257	228,435	116,452
230,626	2,932	228,371	116,162
231,640	3,063	228,101	116,113
232,655	3,159	228,102	116,176
233,669	3,443	227,975	116,317
234,684	3,753	227,805	116,454
235,699	3,361	227,596	116,040
236,713	3,178	227,364	115,773
237,728	3,152	227,269	115,695
238,742	2,910	227,182	115,457
239,757	3,241	226,912	115,560
240,772	3,074	226,856	115,395
241,786	3,021	226,691	115,261
242,801	3,275	226,606	115,399
243,815	3,375	226,549	115,435
244,830	3,494	226,300	115,387
245,844	2,932	226,148	114,877
246,859	3,190	225,848	114,908
247,874	3,520	225,779	115,110
248,888	3,460	225,608	114,968
249,903	3,309	225,546	114,813
250,917	2,889	225,482	114,455
251,932	3,280	225,138	114,563
252,947	2,882	224,918	114,143
253,961	2,906	224,737	114,059
254,976	3,156	224,614	114,174
255,990	3,452	224,621	114,387
257,005	3,498	224,546	114,374
258,020	3,489	224,227	114,194
259,034	3,393	224,330	114,165
260,049	3,287	224,181	114,000
261,063	3,271	223,900	113,835
262,078	3,439	223,835	113,917
263,093	3,623	223,773	114,011
264,107	3,413	223,609	113,762
265,122	3,520	223,410	113,730
266,136	3,388	223,445	113,640
267,151	3,562	223,077	113,571
268,166	2,991	222,925	113,061
269,180	2,875	222,611	112,806
270,195	2,772	222,496	112,661
271,209	3,220	222,448	112,958
272,224	3,205	222,338	112,881
273,239	3,087	222,305	112,768
274,253	3,011	222,021	112,557
275,268	2,893	221,710	112,302
276,282	2,725	221,715	112,171
277,297	2,783	221,469	112,079
278,312	3,128	221,324	112,250
279,326	3,180	221,291	112,261
280,341	3,043	221,276	112,143
281,355	3,059	221,052	112,031
282,370	2,971	220,755	111,806
283,384	2,894	220,674	111,699
284,399	2,839	220,576	111,598
285,414	2,749	220,360	111,414
286,428	3,072	220,245	111,582
287,443	3,267	220,250	111,716
288,457	3,005	220,093	111,436
289,472	3,033	219,857	111,327
290,487	2,547	219,643	110,855
291,501	2,631	219,337	110,751
292,516	2,794	219,393	110,888
293,530	2,987	219,256	110,949
294,545	2,867	219,107	110,777
295,560	2,749	219,088	110,672
296,574	3,114	218,816	110,789
297,589	3,197	218,725	110,793
298,603	3,129	218,644	110,693
299,618	2,987	218,378	110,446
300,633	3,277	218,469	110,692
301,647	3,420	218,288	110,694
302,662	3,107	218,271	110,449
303,676	3,390	217,861	110,436
304,691	3,327	217,985	110,444
305,706	3,306	217,760	110,305
306,720	3,228	217,606	110,160
307,735	3,026	217,377	109,889
308,749	2,907	217,250	109,730
309,764	3,259	217,128	109,911
310,779	3,316	217,159	109,958
311,793	3,474	216,790	109,875
312,808	3,288	216,651	109,662
313,822	3,305	216,416	109,544
314,837	3,276	216,363	109,488
315,852	2,960	216,186	109,162
316,866	3,071	216,272	109,275
317,881	3,242	216,183	109,343
318,895	3,210	215,815	109,124
319,910	3,207	215,528	108,967
320,925	2,714	215,525	108,605
321,939	2,635	215,341	108,446
322,954	2,698	215,386	108,504
323,968	3,243	215,244	108,810
324,983	3,205	215,104	108,703
325,997	3,316	214,905	108,671
327,012	3,198	214,751	108,500
328,027	3,384	214,687	108,590
329,041	3,350	214,698	108,562
330,056	3,538	214,289	108,478
331,070	2,861	214,237	107,963
332,085	2,870	213,874	107,777
333,100	2,789	213,899	107,722
334,114	3,253	213,776	107,978
335,129	3,149	213,606	107,810
336,143	2,922	213,599	107,637
337,158	3,196	213,446	107,743
338,173	3,020	213,153	107,461
339,187	2,990	213,170	107,439
340,202	2,914	212,827	107,204
341,216	2,934	212,802	107,196
342,231	2,951	212,740	107,167
343,246	2,867	212,528	106,991
344,260	2,929	212,402	106,962
345,275	3,070	212,484	107,093
346,289	3,282	212,255	107,116
347,304	3,277	212,159	107,054
348,319	3,029	211,945	106,764
349,333	3,126	211,825	106,762
350,348	2,754	211,795	106,477
351,362	3,226	211,591	106,695
352,377	3,461	211,405	106,754
353,392	3,339	211,217	106,565
354,406	3,181	211,180	106,428
355,421	196,103	1339,634	1418,721
356,435	156,664	1477,082	1418,678
