DTS Sentinel unit serial number:	SN410029Multiplexer serial number:	ORYXHardware model number:	OX2-SRSoftware version number:	ORYX F/W v4,00 Oryx Data Collector v3.7.2.0data status	okinstallation	B6 Nyhavnadifferential loss correction	single-endedforward channel	channel 2reverse channel	N/Adate	2023/12/07time	20:10:08forward acquisition time	300,00reverse acquisition time	0,00gamma	499,1914k internal	0,3164k external	0,3164temperature offset calibration	1,0000default loss term (dB/km)	0,3820temperature slope calibration	1,0000multiplexer offset coefficient	1,0000multiplexer slope coefficient	1,0000fibre end	0,00T internal ref (°C)	13,87T ext. ref 1 (°C)	-3,09T ext. ref 2 (°C)	-3,10length (m)	temperature (°C)	Stokes	anti-Stokes-744,400	385,922	0,043	0,066
-743,385	-36,254	-0,320	-0,126
-742,371	-200,000	0,049	0,194
-741,356	85,540	-0,202	0,163
-740,342	572,980	0,111	0,199
-739,327	-176,938	-0,427	0,008
-738,312	-36,277	0,146	0,058
-737,298	-133,577	-0,254	-0,023
-736,283	-16,460	0,157	0,073
-735,269	-147,214	-0,347	-0,021
-734,254	-200,000	0,038	0,149
-733,239	-72,493	-0,442	-0,119
-732,225	-60,838	0,188	-0,058
-731,210	57,192	-0,047	0,033
-730,196	212,062	0,065	-0,075
-729,181	-62,223	-0,029	0,009
-728,167	516,246	0,010	-0,018
-727,152	-200,000	0,008	0,102
-726,137	800,000	-0,038	-0,099
-725,123	-93,067	-0,059	-0,012
-724,108	167,295	-0,084	-0,087
-723,094	-114,729	-0,095	-0,013
-722,079	-200,000	-0,014	-0,153
-721,064	483,936	-0,055	-0,093
-720,050	36,629	-0,164	-0,106
-719,035	728,518	-0,018	0,036
-718,021	-67,556	-0,080	-0,023
-717,006	59,306	-0,152	-0,110
-715,991	256,873	-0,120	-0,151
-714,977	176,636	-0,134	-0,144
-713,962	-200,000	0,010	-0,144
-712,948	607,995	-0,023	-0,043
-711,933	-127,526	0,028	-0,003
-710,918	-97,889	-0,089	0,017
-709,904	36,075	-0,103	-0,066
-708,889	8,539	0,058	-0,032
-707,875	261,028	0,052	-0,066
-706,860	-200,000	0,001	0,045
-705,845	159,073	0,040	0,040
-704,831	-200,000	-0,001	0,047
-703,816	441,876	0,028	0,046
-702,802	234,580	0,069	0,084
-701,787	-200,000	-0,026	-0,169
-700,772	-117,751	-0,126	0,016
-699,758	-200,000	0,024	-0,141
-698,743	-69,765	0,067	-0,019
-697,729	-126,313	0,091	-0,010
-696,714	-200,000	-0,013	0,045
-695,699	-21,090	-0,094	0,042
-694,685	-200,000	-0,025	0,084
-693,670	122,767	0,083	-0,076
-692,656	31,114	0,052	0,032
-691,641	-37,656	0,032	0,013
-690,627	-42,178	0,093	0,035
-689,612	230,614	0,049	0,059
-688,597	-200,000	-0,012	0,049
-687,583	-200,000	-0,002	0,034
-686,568	141,890	-0,116	-0,113
-685,554	800,000	-0,020	-0,054
-684,539	-95,817	0,035	-0,007
-683,524	-200,000	-0,031	0,163
-682,510	16,229	-0,002	-0,001
-681,495	-129,136	-0,077	-0,008
-680,481	-93,648	-0,085	0,017
-679,466	-151,689	-0,149	0,008
-678,451	-200,000	-0,017	0,058
-677,437	235,478	-0,082	0,100
-676,422	800,000	0,033	0,069
-675,408	44,803	0,023	0,016
-674,393	134,120	0,031	-0,029
-673,378	520,303	0,026	0,045
-672,364	227,039	-0,024	-0,028
-671,349	-30,234	0,019	0,008
-670,335	-200,000	-0,011	0,057
-669,320	-200,000	-0,007	0,069
-668,305	-200,000	0,022	-0,078
-667,291	254,338	-0,023	-0,028
-666,276	-200,000	-0,014	-0,145
-665,262	-55,760	0,035	-0,011
-664,247	58,727	-0,066	-0,048
-663,232	106,538	-0,085	-0,074
-662,218	561,579	0,007	-0,013
-661,203	90,933	0,008	0,006
-660,189	161,174	-0,011	-0,011
-659,174	249,129	-0,013	0,016
-658,159	-200,000	-0,005	0,094
-657,145	652,146	-0,044	-0,083
-656,130	-13,759	-0,090	-0,043
-655,116	765,819	0,067	-0,134
-654,101	46,575	-0,047	-0,032
-653,086	-41,376	0,061	-0,023
-652,072	-200,000	-0,004	-0,026
-651,057	-3,447	-0,053	-0,027
-650,043	-115,389	-0,119	-0,016
-649,028	103,435	0,041	-0,035
-648,014	-143,051	-0,109	-0,008
-646,999	-200,000	0,015	0,110
-645,984	164,790	0,022	0,023
-644,970	-28,519	-0,161	-0,068
-643,955	387,852	-0,096	-0,145
-642,941	9,599	-0,063	-0,035
-641,926	800,000	-0,003	-0,008
-640,911	-200,000	0,010	0,093
-639,897	-200,000	0,030	-0,169
-638,882	-44,156	-0,075	0,027
-637,868	719,970	-0,028	-0,054
-636,853	-200,000	0,015	-0,090
-635,838	-7,098	0,060	0,030
-634,824	422,904	0,040	-0,063
-633,809	800,000	-0,016	-0,039
-632,795	-136,044	0,026	0,002
-631,780	189,244	0,053	-0,058
-630,765	-12,145	0,044	0,021
-629,751	-200,000	0,030	0,119
-628,736	-200,000	0,033	-0,138
-627,722	-200,000	0,045	-0,184
-626,707	97,237	0,076	0,064
-625,692	-33,871	-0,111	0,045
-624,678	121,645	0,062	-0,057
-623,663	70,501	-0,130	-0,098
-622,649	202,660	-0,104	-0,118
-621,634	800,000	0,047	-0,133
-620,619	-106,778	-0,109	-0,018
-619,605	31,873	-0,054	0,034
-618,590	166,918	0,087	0,091
-617,576	252,198	-0,062	-0,077
-616,561	129,010	-0,061	-0,057
-615,546	800,000	0,074	-0,179
-614,532	-200,000	0,011	-0,118
-613,517	800,000	-0,025	-0,073
-612,503	112,733	-0,047	-0,041
-611,488	-200,000	-0,005	0,053
-610,474	800,000	0,064	0,153
-609,459	174,760	0,124	-0,131
-608,444	-94,792	-0,056	-0,011
-607,430	159,985	-0,041	0,042
-606,415	800,000	-0,045	0,112
-605,401	129,490	0,064	0,060
-604,386	176,178	0,144	-0,153
-603,371	-173,129	-0,047	0,001
-602,357	143,157	-0,108	-0,106
-601,342	-200,000	-0,003	-0,226
-600,328	-200,000	-0,024	0,117
-599,313	-52,303	-0,103	-0,035
-598,298	738,330	-0,045	-0,088
-597,284	-200,000	-0,005	0,046
-596,269	180,744	0,100	0,108
-595,255	20,660	-0,120	0,071
-594,240	61,436	0,031	0,023
-593,225	-80,892	-0,001	0,000
-592,211	-200,000	-0,016	0,066
-591,196	800,000	0,025	0,057
-590,182	-52,229	0,093	-0,031
-589,167	-99,559	0,009	0,002
-588,152	800,000	-0,051	-0,105
-587,138	-200,000	0,048	-0,178
-586,123	375,986	-0,057	-0,085
-585,109	-87,583	-0,019	-0,004
-584,094	-87,390	-0,063	0,014
-583,079	-110,616	0,134	-0,020
-582,065	-53,397	0,020	-0,007
-581,050	-200,000	0,010	-0,053
-580,036	-200,000	0,008	-0,080
-579,021	6,557	-0,052	0,028
-578,006	-62,802	-0,148	-0,045
-576,992	-200,000	-0,004	0,031
-575,977	-20,414	-0,093	0,042
-574,963	237,797	-0,030	0,037
-573,948	68,212	-0,146	0,109
-572,934	-20,309	0,169	0,076
-571,919	509,459	0,062	-0,107
-570,904	-51,659	-0,047	0,016
-569,890	-200,000	-0,009	-0,070
-568,875	159,516	0,069	0,070
-567,861	-102,525	0,048	-0,008
-566,846	-200,000	0,009	-0,028
-565,831	46,021	-0,091	0,061
-564,817	50,147	-0,058	-0,040
-563,802	134,280	-0,121	-0,115
-562,788	-146,097	-0,104	-0,007
-561,773	800,000	0,016	-0,044
-560,758	301,080	0,030	0,040
-559,744	26,371	-0,048	-0,029
-558,729	132,936	0,099	0,093
-557,715	137,081	0,036	0,034
-556,700	-16,310	-0,088	-0,040
-555,685	-27,881	0,092	-0,039
-554,671	-134,072	-0,095	0,008
-553,656	-200,000	0,010	-0,040
-552,642	-200,000	0,001	0,120
-551,627	-200,000	-0,006	-0,112
-550,612	605,543	-0,052	-0,095
-549,598	129,649	0,122	-0,114
-548,583	-200,000	0,002	0,048
-547,569	86,125	-0,074	0,059
-546,554	31,585	0,050	-0,031
-545,539	425,143	0,053	0,084
-544,525	243,464	0,056	-0,069
-543,510	-70,507	0,070	-0,019
-542,496	-136,423	-0,092	0,008
-541,481	38,420	-0,084	0,054
-540,466	-200,000	0,004	0,096
-539,452	-200,000	0,013	0,125
-538,437	-44,492	0,124	-0,045
-537,423	800,000	0,021	-0,063
-536,408	99,164	0,080	-0,068
-535,393	-200,000	0,002	-0,054
-534,379	162,189	0,046	-0,047
-533,364	-110,789	0,009	-0,001
-532,350	45,506	0,170	0,115
-531,335	-200,000	-0,030	0,105
-530,321	-200,000	0,015	0,083
-529,306	154,035	-0,073	-0,073
-528,291	99,890	-0,084	-0,071
-527,277	122,487	-0,129	-0,118
-526,262	-200,000	-0,012	-0,167
-525,248	-2,256	0,094	0,048
-524,233	-37,709	0,094	0,036
-523,218	-200,000	-0,016	0,141
-522,204	-196,106	-0,166	0,001
-521,189	159,994	-0,037	-0,038
-520,175	728,596	0,020	0,039
-519,160	331,435	0,012	0,016
-518,145	186,917	0,049	-0,053
-517,131	158,427	0,067	-0,068
-516,116	67,258	-0,095	-0,070
-515,102	-50,338	0,121	0,041
-514,087	800,000	-0,049	-0,106
-513,072	-200,000	-0,007	-0,027
-512,058	126,349	0,045	-0,041
-511,043	107,837	-0,035	-0,031
-510,029	-200,000	-0,011	0,039
-509,014	-88,940	-0,056	-0,012
-507,999	-36,938	0,072	-0,028
-506,985	800,000	0,063	-0,136
-505,970	-200,000	0,009	-0,080
-504,956	-121,510	-0,266	0,032
-503,941	-6,787	0,018	0,009
-502,926	34,180	0,124	-0,078
-501,912	51,393	0,087	0,060
-500,897	-200,000	-0,023	0,095
-499,883	-200,000	-0,025	0,149
-498,868	397,406	-0,101	-0,155
-497,853	-200,000	-0,009	-0,117
-496,839	38,559	0,147	-0,095
-495,824	400,815	0,074	-0,114
-494,810	-200,000	0,026	-0,183
-493,795	321,129	0,070	0,097
-492,781	-19,094	-0,057	-0,026
-491,766	65,812	-0,023	-0,017
-490,751	13,380	0,067	-0,038
-489,737	656,272	0,057	-0,107
-488,722	23,979	0,100	0,060
-487,708	-68,247	0,115	0,032
-486,693	-200,000	-0,017	0,150
-485,678	-175,792	0,139	0,003
-484,664	131,254	-0,042	-0,040
-483,649	209,757	-0,016	-0,018
-482,635	800,000	-0,049	-0,106
-481,620	-128,426	0,158	-0,016
-480,605	420,591	0,039	0,061
-479,591	-200,000	-0,014	0,067
-478,576	-130,025	-0,046	-0,004
-477,562	88,907	-0,075	0,061
-476,547	-200,000	-0,028	-0,101
-475,532	-200,000	0,000	-0,045
-474,518	800,000	0,027	0,078
-473,503	-200,000	-0,020	0,079
-472,489	-200,000	0,031	0,129
-471,474	98,509	-0,051	0,043
-470,459	-200,000	0,013	0,082
-469,445	-32,592	-0,065	-0,026
-468,430	-68,183	0,032	-0,009
-467,416	-200,000	0,000	-0,073
-466,401	313,678	0,045	-0,062
-465,386	107,354	-0,044	-0,038
-464,372	15,342	-0,136	0,078
-463,357	-69,364	-0,011	-0,003
-462,343	-7,167	0,044	-0,022
-461,328	-1,691	-0,077	0,039
-460,313	12,677	-0,064	-0,036
-459,299	-6,447	-0,066	-0,033
-458,284	186,516	-0,025	-0,028
-457,270	99,491	0,038	0,032
-456,255	-73,011	-0,072	0,019
-455,241	-45,916	-0,120	-0,043
-454,226	-3,117	-0,087	-0,044
-453,211	81,397	0,049	0,038
-452,197	-151,308	-0,027	-0,001
-451,182	-150,042	0,085	0,005
-450,168	-200,000	0,014	-0,058
-449,153	75,779	-0,036	0,028
-448,138	-57,378	-0,095	-0,030
-447,124	281,276	0,077	0,100
-446,109	174,881	-0,050	-0,053
-445,095	800,000	-0,015	-0,031
-444,080	-179,506	0,039	0,001
-443,065	767,810	-0,009	-0,018
-442,051	-200,000	0,002	-0,079
-441,036	356,041	-0,083	-0,120
-440,022	-200,000	-0,006	-0,106
-439,007	-200,000	-0,021	-0,069
-437,992	800,000	0,029	0,073
-436,978	55,336	0,062	0,043
-435,963	201,769	0,071	0,080
-434,949	-48,907	0,056	0,020
-433,934	78,692	-0,169	0,131
-432,919	-14,041	-0,112	0,052
-431,905	26,366	0,040	0,024
-430,890	-157,524	0,097	0,004
-429,876	800,000	-0,053	0,113
-428,861	-200,000	0,009	0,067
-427,846	-200,000	0,017	0,100
-426,832	-200,000	0,020	0,094
-425,817	-64,485	-0,075	-0,022
-424,803	341,210	0,090	0,129
-423,788	161,599	0,043	0,044
-422,773	76,029	0,062	0,048
-421,759	800,000	-0,015	0,036
-420,744	-200,000	-0,042	0,137
-419,730	22,296	-0,087	0,052
-418,715	-90,783	0,078	-0,016
-417,701	200,075	0,125	-0,139
-416,686	-200,000	-0,037	0,131
-415,671	160,415	0,008	0,008
-414,657	66,091	0,068	0,050
-413,642	368,016	-0,062	-0,091
-412,628	321,453	-0,052	-0,072
-411,613	92,109	0,049	0,040
-410,598	-200,000	0,049	-0,169
-409,584	-200,000	-0,033	-0,126
-408,569	168,816	0,069	0,072
-407,555	718,172	0,075	0,146
-406,540	800,000	-0,028	-0,084
-405,525	800,000	0,044	-0,131
-404,511	-200,000	0,000	0,021
-403,496	154,576	-0,049	0,049
-402,482	216,066	-0,057	0,066
-401,467	645,550	0,023	0,043
-400,452	800,000	-0,043	-0,104
-399,438	-20,122	0,200	0,089
-398,423	-200,000	0,025	0,157
-397,409	78,965	0,020	0,016
-396,394	-200,000	0,008	-0,142
-395,379	800,000	0,027	-0,076
-394,365	-200,000	0,037	0,131
-393,350	-20,842	0,117	-0,052
-392,336	-200,000	-0,016	0,066
-391,321	-200,000	0,017	-0,105
-390,306	386,918	-0,048	-0,072
-389,292	447,654	0,015	0,024
-388,277	800,000	-0,015	0,039
-387,263	255,320	-0,031	-0,039
-386,248	18,528	-0,018	0,011
-385,233	-124,487	0,140	0,016
-384,219	570,801	-0,081	0,144
-383,204	-77,148	-0,066	-0,016
-382,190	800,000	0,043	-0,106
-381,175	-28,723	-0,093	0,039
-380,160	-16,317	0,081	0,037
-379,146	-200,000	-0,005	-0,120
-378,131	149,402	-0,071	-0,070
-377,117	68,950	0,024	0,018
-376,102	-200,000	-0,038	0,135
-375,088	-179,582	0,115	-0,002
-374,073	196,798	-0,050	0,056
-373,058	301,223	0,038	0,051
-372,044	-116,616	0,106	0,014
-371,029	166,319	-0,134	0,138
-370,015	532,431	0,000	-0,001
-369,000	496,952	0,011	0,019
-367,985	122,589	-0,085	-0,077
-366,971	-200,000	0,010	0,050
-365,956	-200,000	-0,009	0,054
-364,942	279,750	-0,043	0,056
-363,927	-200,000	-0,006	-0,024
-362,912	-45,651	0,057	0,020
-361,898	-200,000	-0,026	0,129
-360,883	678,323	0,095	-0,180
-359,869	-120,812	0,123	-0,015
-358,854	165,670	0,113	0,116
-357,839	-7,023	-0,031	0,015
-356,825	-144,009	0,096	0,006
-355,810	-112,921	-0,073	0,010
-354,796	-200,000	-0,008	0,034
-353,781	-153,232	0,079	0,004
-352,766	157,056	-0,084	0,084
-351,752	800,000	0,008	-0,023
-350,737	-200,000	-0,003	0,040
-349,723	800,000	0,060	0,152
-348,708	-200,000	0,014	0,073
-347,693	-2,939	-0,032	0,016
-346,679	-23,953	-0,070	0,030
-345,664	607,889	-0,067	0,122
-344,650	-200,000	-0,008	0,092
-343,635	53,268	0,109	-0,075
-342,620	-200,000	-0,023	0,097
-341,606	-160,765	-0,096	0,004
-340,591	791,209	-0,059	-0,118
-339,577	76,716	-0,066	-0,051
-338,562	741,828	0,098	-0,192
-337,548	-198,683	-0,093	-0,000
-336,533	16,757	0,053	-0,030
-335,518	-119,511	0,152	0,019
-334,504	163,848	-0,011	0,011
-333,489	800,000	0,070	0,220
-332,475	800,000	-0,043	-0,101
-331,460	0,650	0,049	0,026
-330,445	495,840	0,030	-0,049
-329,431	349,178	0,091	0,130
-328,416	-200,000	-0,033	0,122
-327,402	-82,795	0,056	-0,013
-326,387	-200,000	-0,014	0,096
-325,372	-51,980	-0,045	-0,015
-324,358	630,950	-0,027	-0,049
-323,343	-95,869	0,229	-0,044
-322,329	122,213	0,061	-0,055
-321,314	-49,297	0,259	-0,089
-320,299	172,234	-0,096	0,100
-319,285	-200,000	0,005	-0,017
-318,270	57,167	0,075	0,053
-317,256	292,023	-0,028	-0,037
-316,241	192,183	0,026	-0,028
-315,226	15,293	0,112	-0,064
-314,212	800,000	-0,027	0,059
-313,197	-33,848	-0,087	0,035
-312,183	-200,000	0,023	-0,110
-311,168	447,864	-0,038	-0,060
-310,153	-200,000	-0,017	0,066
-309,139	-117,544	-0,183	0,024
-308,124	800,000	-0,029	-0,060
-307,110	-58,401	-0,193	0,060
-306,095	-98,944	0,048	0,009
-305,080	-200,000	-0,043	0,211
-304,066	-130,752	-0,055	0,005
-303,051	-200,000	0,022	0,114
-302,037	-97,482	-0,090	-0,017
-301,022	1,172	-0,006	-0,003
-300,008	-66,776	-0,094	0,027
-298,993	155,678	0,090	0,090
-297,978	-0,726	-0,062	0,032
-296,964	800,000	0,023	-0,064
-295,949	-79,468	-0,028	-0,007
-294,935	330,658	-0,106	-0,147
-293,920	-87,488	0,071	-0,015
-292,905	338,235	0,092	0,130
-291,891	526,547	-0,059	0,101
-290,876	800,000	-0,048	-0,104
-289,862	-38,307	-0,066	-0,025
-288,847	-150,820	-0,145	0,008
-287,832	-101,401	-0,206	-0,036
-286,818	60,813	0,003	-0,002
-285,803	543,472	0,038	-0,065
-284,789	57,820	0,078	0,055
-283,774	-10,088	0,036	0,017
-282,759	-200,000	-0,005	-0,081
-281,745	-22,949	-0,106	0,046
-280,730	133,048	0,045	0,042
-279,716	174,589	-0,047	0,049
-278,701	-200,000	0,001	0,071
-277,686	260,409	0,022	-0,028
-276,672	800,000	-0,026	0,080
-275,657	-59,552	-0,110	0,034
-274,643	800,000	0,057	-0,146
-273,628	-91,258	0,063	-0,013
-272,613	-58,738	0,080	-0,025
-271,599	90,140	0,071	-0,057
-270,584	-84,664	0,101	0,023
-269,570	26,226	0,101	-0,061
-268,555	-200,000	0,025	-0,154
-267,540	-34,488	-0,014	-0,005
-266,526	-200,000	0,029	-0,100
-265,511	24,324	0,138	0,082
-264,497	-142,680	-0,060	0,004
-263,482	384,936	-0,069	-0,104
-262,467	-200,000	0,011	0,104
-261,453	340,822	0,079	0,111
-260,438	63,642	-0,096	0,069
-259,424	-200,000	-0,007	-0,041
-258,409	-82,631	0,021	0,005
-257,395	215,600	0,078	-0,090
-256,380	-133,112	-0,171	0,015
-255,365	18,553	0,090	0,052
-254,351	-23,738	-0,069	-0,030
-253,336	295,966	-0,027	-0,036
-252,322	-200,000	-0,001	-0,133
-251,307	159,707	0,039	0,039
-250,292	456,453	0,030	-0,048
-249,278	9,252	0,073	0,040
-248,263	-76,258	0,079	0,020
-247,249	800,000	-0,034	0,099
-246,234	218,551	-0,035	-0,040
-245,219	800,000	0,036	-0,079
-244,205	-31,331	-0,114	0,046
-243,190	800,000	0,058	-0,160
-242,176	-200,000	-0,038	0,219
-241,161	84,391	0,062	0,049
-240,146	21,748	-0,060	-0,035
-239,132	92,834	-0,039	0,032
-238,117	404,449	-0,024	0,037
-237,103	800,000	-0,009	0,025
-236,088	211,008	0,115	-0,131
-235,073	537,856	0,050	-0,086
-234,059	25,383	0,144	-0,086
-233,044	800,000	-0,042	0,125
-232,030	-200,000	0,029	-0,129
-231,015	-36,023	0,081	0,031
-230,000	680,903	0,020	0,038
-228,986	-11,476	0,139	-0,066
-227,971	-120,309	0,124	0,015
-226,957	525,069	-0,063	-0,108
-225,942	-72,910	0,125	0,033
-224,927	800,000	0,045	0,107
-223,913	275,041	-0,020	-0,026
-222,898	-44,115	-0,160	-0,058
-221,884	214,997	-0,143	-0,164
-220,869	144,202	-0,141	0,135
-219,855	83,103	0,020	-0,016
-218,840	-200,000	0,000	-0,059
-217,825	800,000	0,010	-0,031
-216,811	-98,173	-0,106	-0,019
-215,796	800,000	0,007	0,016
-214,782	-200,000	-0,012	0,066
-213,767	-200,000	0,022	0,126
-212,752	417,259	0,035	0,054
-211,738	193,677	-0,107	0,116
-210,723	-200,000	-0,019	0,088
-209,709	141,038	-0,044	0,042
-208,694	-118,991	-0,164	-0,020
-207,679	0,997	-0,124	0,064
-206,665	800,000	-0,039	0,080
-205,650	-21,274	-0,084	0,037
-204,636	6,696	-0,064	0,034
-203,621	189,624	-0,046	0,050
-202,606	477,749	0,064	-0,104
-201,592	-200,000	-0,033	0,159
-200,577	318,692	-0,081	0,111
-199,563	-10,902	0,065	-0,031
-198,548	331,163	-0,074	0,103
-197,533	-200,000	0,028	0,147
-196,519	-200,000	-0,006	-0,041
-195,504	-154,445	-0,208	-0,010
-194,490	146,235	-0,085	0,082
-193,475	-69,817	-0,097	0,027
-192,460	-182,498	0,114	0,001
-191,446	63,356	0,163	-0,117
-190,431	-78,086	0,082	0,020
-189,417	-82,859	-0,197	0,046
-188,402	477,983	-0,014	0,023
-187,387	-200,000	-0,008	0,038
-186,373	-200,000	0,008	-0,047
-185,358	-200,000	0,004	-0,076
-184,344	-200,000	0,006	0,036
-183,329	44,960	-0,046	-0,030
-182,315	-26,337	0,129	0,054
-181,300	637,882	-0,056	-0,103
-180,285	81,009	-0,030	-0,023
-179,271	800,000	-0,050	-0,153
-178,256	-80,886	0,144	0,034
-177,242	696,044	0,072	0,137
-176,227	510,782	0,025	-0,042
-175,212	640,921	0,058	-0,106
-174,198	800,000	0,053	0,113
-173,183	-182,621	-0,130	-0,002
-172,169	-200,000	0,011	0,125
-171,154	-134,169	0,061	-0,005
-170,139	-200,000	0,002	-0,035
-169,125	275,373	0,168	0,215
-168,110	-95,278	0,079	0,015
-167,096	800,000	0,044	-0,109
-166,081	38,926	0,036	0,023
-165,066	690,539	-0,025	0,047
-164,052	432,602	0,075	0,117
-163,037	159,509	0,081	0,081
-162,023	-122,143	-0,025	-0,003
-161,008	-55,575	-0,065	0,021
-159,993	36,202	0,100	-0,064
-158,979	405,843	-0,052	-0,080
-157,964	386,979	0,106	-0,158
-156,950	137,212	-0,075	-0,071
-155,935	-200,000	0,002	0,067
-154,920	-21,124	-0,088	0,039
-153,906	200,064	0,119	0,131
-152,891	800,000	-0,053	-0,112
-151,877	74,981	-0,108	0,082
-150,862	384,439	-0,051	-0,076
-149,847	800,000	0,051	-0,115
-148,833	-17,342	0,051	0,023
-147,818	534,251	0,057	0,098
-146,804	382,547	-0,038	-0,056
-145,789	187,914	-0,032	0,034
-144,775	129,341	-0,108	0,099
-143,760	-200,000	0,002	-0,049
-142,745	800,000	0,062	-0,141
-141,731	-200,000	0,012	-0,107
-140,716	210,725	0,083	-0,094
-139,702	138,213	-0,040	0,037
-138,687	-90,610	0,086	0,018
-137,672	93,432	-0,055	-0,045
-136,658	573,812	-0,063	-0,111
-135,643	-200,000	0,013	0,107
-134,629	-200,000	0,009	-0,093
-133,614	32,029	0,170	-0,105
-132,599	194,113	0,042	0,046
-131,585	512,310	0,027	-0,045
-130,570	45,292	0,039	0,026
-129,556	240,893	0,067	0,081
-128,541	-110,415	-0,188	0,028
-127,526	25,105	-0,064	-0,038
-126,512	190,113	0,104	0,112
-125,497	-29,448	0,170	0,069
-124,483	168,628	0,040	-0,041
-123,468	800,000	0,022	0,057
-122,453	-200,000	0,011	-0,120
-121,439	27,934	-0,040	-0,024
-120,424	-55,837	0,174	-0,055
-119,410	800,000	0,001	0,004
-118,395	-99,439	0,062	-0,011
-117,380	-200,000	-0,009	-0,039
-116,366	-200,000	-0,001	-0,116
-115,351	123,324	-0,009	0,008
-114,337	-200,000	-0,017	-0,085
-113,322	-12,228	-0,059	0,028
-112,307	9,638	-0,023	-0,012
-111,293	203,572	-0,062	0,069
-110,278	-101,029	-0,059	0,010
-109,264	-200,000	0,008	0,105
-108,249	-146,107	0,070	-0,004
-107,234	800,000	0,015	0,032
-106,220	574,772	0,038	0,068
-105,205	-200,000	-0,004	-0,083
-104,191	36,595	0,049	0,031
-103,176	-30,101	-0,062	-0,025
-102,162	-86,584	0,142	-0,031
-101,147	-108,898	-0,074	-0,011
-100,132	106,866	-0,081	-0,069
-99,118	125,093	-0,096	-0,087
-98,103	-33,289	0,048	0,019
-97,089	111,106	-0,143	0,123
-96,074	800,000	0,039	0,086
-95,059	800,000	0,056	0,135
-94,045	-200,000	0,006	-0,030
-93,030	-200,000	0,008	-0,119
-92,016	-200,000	-0,009	0,050
-91,001	-200,000	-0,005	0,117
-89,986	-100,967	0,010	0,002
-88,972	4,942	-0,047	0,025
-87,957	333,885	0,097	-0,136
-86,943	642,920	0,061	-0,112
-85,928	-200,000	0,006	-0,103
-84,913	110,845	0,116	0,100
-83,899	75,089	-0,088	-0,067
-82,884	-200,000	-0,054	0,217
-81,870	-107,345	0,113	0,018
-80,855	-200,000	-0,038	0,208
-79,840	-79,897	-0,092	0,022
-78,826	154,623	0,058	0,058
-77,811	352,031	-0,050	-0,071
-76,797	-200,000	0,052	0,174
-75,782	-66,950	0,013	-0,004
-74,767	-52,948	0,115	-0,038
-73,753	-48,809	-0,161	-0,055
-72,738	800,000	-0,014	-0,042
-71,724	800,000	0,026	-0,071
-70,709	800,000	-0,034	-0,082
-69,694	201,848	0,075	0,082
-68,680	-200,000	0,016	0,167
-67,665	800,000	0,062	-0,139
-66,651	-200,000	-0,019	-0,092
-65,636	-200,000	-0,039	0,169
-64,622	800,000	0,027	0,070
-63,607	212,356	-0,054	-0,061
-62,592	-200,000	-0,001	-0,068
-61,578	-200,000	-0,002	-0,039
-60,563	800,000	0,032	0,092
-59,549	262,260	0,113	0,141
-58,534	29,473	-2,161	-1,313
-57,519	-200,000	0,047	-0,772
-56,505	-200,000	-1,321	-5,101
-55,490	97,889	0,822	0,677
-54,476	800,000	5,305	12,036
-53,461	-200,000	18,580	303,138
-52,446	800,000	735,758	2259,976
-51,432	532,380	1648,704	2805,169
-50,417	107,851	1634,938	1394,497
-49,403	71,688	1285,743	955,831
-48,388	29,933	1026,696	625,227
-47,373	19,737	989,061	568,723
-46,359	17,513	976,719	554,329
-45,344	14,267	972,798	541,477
-44,330	14,585	971,242	541,626
-43,315	13,907	969,302	538,314
-42,300	13,899	968,276	537,696
-41,286	13,909	967,459	537,253
-40,271	13,893	966,412	536,600
-39,257	13,848	965,696	536,034
-38,242	13,905	964,633	535,606
-37,227	13,874	963,936	535,098
-36,213	13,884	963,046	534,616
-35,198	13,846	962,169	533,984
-34,184	13,920	961,507	533,837
-33,169	13,849	960,535	533,044
-32,154	13,937	959,464	532,714
-31,140	13,938	958,525	532,174
-30,125	13,935	957,910	531,803
-29,111	13,863	956,993	531,041
-28,096	13,949	956,326	530,924
-27,082	13,925	955,732	530,497
-26,067	13,951	954,939	530,119
-25,052	13,875	954,259	529,478
-24,038	13,887	953,588	529,124
-23,023	13,931	952,825	528,821
-22,009	13,875	952,331	528,344
-20,994	13,939	951,725	528,192
-19,979	13,913	950,904	527,632
-18,965	13,931	950,235	527,297
-17,950	13,994	949,511	527,077
-16,936	13,873	949,305	526,554
-15,921	13,883	948,424	526,079
-14,906	13,831	947,811	525,552
-13,892	13,768	947,245	525,016
-12,877	13,821	946,467	524,732
-11,863	13,788	945,708	524,186
-10,848	13,763	945,283	523,849
-9,833	13,842	944,996	523,923
-8,819	13,887	944,092	523,542
-7,804	13,835	943,549	523,054
-6,790	13,820	943,010	522,689
-5,775	13,830	942,335	522,325
-4,760	13,817	941,852	521,995
-3,746	13,859	941,103	521,691
-2,731	13,652	940,554	520,714
-1,717	13,599	939,938	520,185
-0,702	13,623	939,079	519,763
0,313	13,447	938,584	519,719
1,327	16,891	936,475	529,340
2,342	26,216	788,067	469,944
3,356	22,417	443,195	258,661
4,371	-7,053	295,695	143,122
5,386	-11,160	277,534	130,427
6,400	-12,602	271,719	126,344
7,415	-12,509	269,361	125,322
8,429	-12,718	268,073	124,520
9,444	-12,598	267,119	124,175
10,459	-12,804	266,505	123,691
11,473	-12,749	265,884	123,442
12,488	-12,720	265,260	123,168
13,502	-12,990	264,820	122,708
14,517	-12,810	264,304	122,620
15,531	-12,817	263,968	122,448
16,546	-12,862	263,608	122,229
17,561	-12,974	263,288	121,970
18,575	-12,836	262,885	121,895
19,590	-12,903	262,687	121,733
20,604	-12,885	262,275	121,547
21,619	-12,862	261,923	121,394
22,634	-12,761	261,483	121,269
23,648	-12,935	261,201	120,972
24,663	-12,851	260,980	120,934
25,677	-12,868	260,655	120,757
26,692	-12,761	260,369	120,709
27,707	-12,868	260,344	120,591
28,721	-13,081	260,036	120,250
29,736	-12,973	259,608	120,137
30,750	-12,930	259,373	120,055
31,765	-13,022	259,175	119,872
32,780	-12,878	258,916	119,868
33,794	-12,812	258,609	119,773
34,809	-12,866	258,430	119,633
35,823	-12,824	258,148	119,528
36,838	-13,013	257,888	119,231
37,853	-13,149	257,680	119,004
38,867	-12,925	257,484	119,101
39,882	-13,054	257,089	118,794
40,896	-12,922	256,853	118,790
41,911	-13,126	256,693	118,526
42,926	-12,993	256,377	118,486
43,940	-12,875	256,116	118,458
44,955	-12,967	256,051	118,337
45,969	-13,143	255,824	118,068
46,984	-13,318	255,487	117,750
47,999	-13,320	255,346	117,673
49,013	-13,587	254,977	117,260
50,028	-13,469	254,624	117,189
51,042	-13,640	254,435	116,944
52,057	-13,934	254,198	116,570
53,071	-13,728	254,041	116,666
54,086	-13,690	254,041	116,688
55,101	-13,289	253,728	116,881
56,115	-13,367	253,571	116,730
57,130	-13,000	253,416	116,966
58,144	-12,675	253,248	117,157
59,159	-12,774	253,031	116,961
60,174	-12,778	252,937	116,904
61,188	-12,825	252,464	116,634
62,203	-12,773	252,366	116,624
63,217	-12,811	252,202	116,505
64,232	-12,959	251,863	116,212
65,247	-12,718	251,622	116,296
66,261	-12,801	251,480	116,149
67,276	-12,994	251,243	115,864
68,290	-13,185	250,964	115,562
69,305	-13,154	250,632	115,425
70,320	-13,260	250,500	115,264
71,334	-12,970	250,445	115,476
72,349	-12,869	250,216	115,445
73,363	-12,841	250,021	115,369
74,378	-12,723	249,839	115,375
75,393	-12,831	249,597	115,161
76,407	-12,847	249,477	115,082
77,422	-12,932	249,355	114,944
78,436	-12,950	249,071	114,787
79,451	-12,905	249,001	114,782
80,466	-12,992	248,394	114,419
81,480	-12,997	248,204	114,317
82,495	-13,030	248,103	114,233
83,509	-13,272	247,990	113,967
84,524	-13,338	247,829	113,827
85,539	-13,184	247,609	113,845
86,553	-13,117	247,324	113,761
87,568	-13,033	247,154	113,743
88,582	-13,038	246,875	113,600
89,597	-13,126	246,825	113,493
90,611	-13,005	246,736	113,544
91,626	-12,747	246,458	113,621
92,641	-12,835	246,352	113,489
93,655	-12,947	246,065	113,253
94,670	-12,962	245,759	113,089
95,684	-12,799	245,578	113,132
96,699	-12,875	245,529	113,036
97,714	-13,114	245,243	112,695
98,728	-13,140	245,046	112,573
99,743	-13,349	244,932	112,337
100,757	-13,256	244,672	112,285
101,772	-13,257	244,452	112,173
102,787	-13,312	244,382	112,086
103,801	-13,146	244,155	112,109
104,816	-12,961	244,009	112,184
105,830	-12,762	243,877	112,278
106,845	-12,701	243,571	112,178
107,860	-12,991	243,520	111,905
108,874	-12,881	243,187	111,833
109,889	-12,986	242,938	111,621
110,903	-13,262	243,029	111,426
111,918	-13,184	242,670	111,316
112,933	-13,007	242,442	111,347
113,947	-13,031	242,323	111,263
114,962	-12,958	242,036	111,181
115,976	-12,648	241,860	111,343
116,991	-12,836	241,878	111,189
118,006	-12,843	241,566	111,030
119,020	-13,040	241,515	110,835
120,035	-12,936	241,493	110,900
121,049	-12,897	241,237	110,804
122,064	-12,961	241,037	110,650
123,079	-12,825	240,808	110,646
124,093	-13,028	240,444	110,303
125,108	-13,373	240,355	109,972
126,122	-13,163	239,976	109,960
127,137	-13,389	239,721	109,650
128,151	-13,478	239,757	109,585
129,166	-13,176	239,569	109,733
130,181	-13,154	239,256	109,598
131,195	-13,229	239,127	109,468
132,210	-13,099	238,998	109,505
133,224	-13,048	238,799	109,445
134,239	-12,930	238,727	109,497
135,254	-12,806	238,480	109,474
136,268	-12,949	238,188	109,215
137,283	-13,349	237,900	108,752
138,297	-13,356	237,815	108,698
139,312	-13,412	237,485	108,492
140,327	-12,901	237,476	108,889
141,341	-12,645	237,554	109,120
142,356	-12,530	237,236	109,057
143,370	-12,671	237,144	108,891
144,385	-12,584	237,137	108,948
145,400	-12,698	236,938	108,756
146,414	-12,556	236,737	108,768
147,429	-12,668	236,234	108,438
148,443	-12,862	236,224	108,268
149,458	-12,622	236,060	108,375
150,473	-12,829	236,004	108,174
151,487	-12,980	235,740	107,924
152,502	-12,699	235,623	108,084
153,516	-12,553	235,410	108,093
154,531	-12,839	235,208	107,764
155,546	-12,649	235,047	107,830
156,560	-12,795	234,792	107,589
157,575	-12,907	234,580	107,393
158,589	-12,726	234,397	107,443
159,604	-12,425	234,468	107,704
160,619	-12,547	234,281	107,512
161,633	-12,446	234,200	107,545
162,648	-12,688	233,919	107,215
163,662	-12,727	233,679	107,065
164,677	-12,754	233,663	107,027
165,692	-12,742	233,460	106,933
166,706	-12,497	233,277	107,033
167,721	-12,748	233,221	106,801
168,735	-12,510	233,077	106,912
169,750	-12,636	232,819	106,685
170,764	-12,582	232,588	106,612
171,779	-12,627	232,518	106,535
172,794	-12,562	232,427	106,535
173,808	-12,866	232,297	106,228
174,823	-13,082	231,868	105,854
175,837	-13,254	231,738	105,650
176,852	-12,970	231,716	105,853
177,867	-12,758	231,453	105,888
178,881	-12,658	231,477	105,968
179,896	-12,582	231,219	105,900
180,910	-12,440	231,145	105,967
181,925	-12,405	230,923	105,883
182,940	-12,675	230,733	105,577
183,954	-12,553	230,678	105,637
184,969	-12,457	230,691	105,708
185,983	-12,418	230,379	105,586
186,998	-12,476	230,218	105,458
188,013	-12,416	229,977	105,384
189,027	-12,542	229,811	105,201
190,042	-12,540	229,717	105,150
191,056	-12,440	229,541	105,138
192,071	-12,450	229,402	105,057
193,086	-12,411	229,214	104,991
194,100	-12,556	229,130	104,832
195,115	-13,001	228,771	104,316
196,129	-13,093	228,781	104,241
197,144	-7,148	230,715	109,720
198,159	-1,562	232,338	114,830
199,173	1,928	233,107	117,917
200,188	2,295	233,191	118,235
201,202	2,242	232,860	118,016
202,217	2,325	232,791	118,035
203,232	2,534	232,732	118,156
204,246	2,431	232,642	118,020
205,261	2,605	232,506	118,076
206,275	2,652	232,355	118,024
207,290	2,686	232,247	117,985
208,304	2,605	231,961	117,767
209,319	2,433	231,913	117,599
210,334	2,602	231,540	117,530
211,348	2,479	231,344	117,326
212,363	2,061	231,090	116,864
213,377	1,991	231,016	116,762
214,392	2,077	230,775	116,696
215,407	1,915	230,774	116,560
216,421	2,069	230,579	116,571
217,436	1,945	230,423	116,386
218,450	1,615	230,290	116,055
219,465	1,660	230,086	115,976
220,480	1,728	229,947	115,948
221,494	1,637	229,745	115,766
222,509	2,089	229,634	116,045
223,523	2,148	229,642	116,084
224,538	1,881	229,449	115,772
225,553	1,833	229,206	115,603
226,567	1,822	229,073	115,517
227,582	2,367	228,873	115,821
228,596	2,498	228,851	115,899
229,611	2,085	228,573	115,434
230,626	1,742	228,384	115,068
231,640	1,836	228,302	115,087
232,655	2,066	228,174	115,187
233,669	2,272	228,199	115,346
234,684	2,645	227,942	115,489
235,699	2,281	227,821	115,141
236,713	2,158	227,570	114,911
237,728	2,186	227,322	114,797
238,742	1,910	227,218	114,525
239,757	1,963	227,210	114,551
240,772	1,895	226,952	114,359
241,786	1,904	226,686	114,222
242,801	2,230	226,826	114,528
243,815	2,210	226,869	114,525
244,830	2,362	226,543	114,464
245,844	2,128	226,262	114,136
246,859	2,076	226,210	114,061
247,874	2,402	225,988	114,183
248,888	2,170	225,889	113,949
249,903	2,318	225,617	113,913
250,917	2,207	225,452	113,736
251,932	1,853	225,397	113,433
252,947	1,892	225,162	113,334
253,961	1,639	225,084	113,096
254,976	1,889	224,953	113,206
255,990	2,234	224,831	113,392
257,005	2,289	224,649	113,331
258,020	2,161	224,489	113,146
259,034	2,389	224,304	113,212
260,049	2,403	224,270	113,194
261,063	2,242	224,080	112,969
262,078	2,423	224,001	113,054
263,093	2,236	223,915	112,862
264,107	2,273	223,664	112,752
265,122	2,174	223,591	112,632
266,136	2,420	223,616	112,817
267,151	2,257	223,383	112,569
268,166	1,974	223,028	112,170
269,180	1,754	222,855	111,910
270,195	1,871	222,654	111,886
271,209	2,038	222,619	111,982
272,224	2,067	222,414	111,890
273,239	2,190	222,370	111,948
274,253	2,020	222,230	111,743
275,268	1,929	221,867	111,484
276,282	1,566	221,856	111,201
277,297	1,648	221,672	111,159
278,312	1,971	221,490	111,295
279,326	2,019	221,417	111,283
280,341	2,114	221,382	111,326
281,355	2,290	221,195	111,351
282,370	2,221	221,052	111,219
283,384	1,986	220,778	110,899
284,399	1,829	220,719	110,745
285,414	1,808	220,689	110,704
286,428	2,200	220,533	110,902
287,443	2,578	220,329	111,065
288,457	2,079	220,375	110,715
289,472	1,975	220,109	110,496
290,487	1,579	219,639	109,962
291,501	1,444	219,522	109,795
292,516	1,647	219,588	109,966
293,530	1,852	219,415	110,019
294,545	1,904	219,218	109,948
295,560	1,998	219,244	110,019
296,574	2,122	219,089	110,022
297,589	2,115	218,836	109,880
298,603	1,972	218,774	109,735
299,618	1,925	218,621	109,615
300,633	2,123	218,549	109,712
301,647	2,185	218,510	109,727
302,662	2,388	218,268	109,742
303,676	2,364	218,144	109,653
304,691	2,417	218,070	109,644
305,706	2,248	217,987	109,471
306,720	2,314	217,709	109,369
307,735	2,091	217,513	109,100
308,749	1,936	217,443	108,944
309,764	2,023	217,401	108,976
310,779	2,218	217,212	109,012
311,793	2,120	216,938	108,794
312,808	2,315	216,799	108,855
313,822	2,126	216,644	108,631
314,837	2,102	216,591	108,578
315,852	2,116	216,288	108,426
316,866	2,064	216,323	108,397
317,881	2,339	216,258	108,552
318,895	2,188	215,911	108,260
319,910	1,847	215,796	107,950
320,925	1,617	215,563	107,660
321,939	1,477	215,293	107,416
322,954	1,570	215,384	107,518
323,968	1,980	215,437	107,826
324,983	2,254	215,182	107,884
325,997	2,434	215,099	107,960
327,012	2,399	214,902	107,827
328,027	1,955	214,750	107,426
329,041	2,312	214,832	107,711
330,056	2,778	214,559	107,894
331,070	2,228	214,360	107,396
332,085	1,939	214,086	107,045
333,100	1,971	214,124	107,077
334,114	2,307	214,010	107,247
335,129	2,026	213,783	106,926
336,143	1,951	213,685	106,815
337,158	1,866	213,599	106,702
338,173	2,070	213,484	106,779
339,187	1,835	213,124	106,424
340,202	1,764	212,980	106,292
341,216	1,709	212,904	106,207
342,231	2,138	212,927	106,510
343,246	2,062	212,874	106,420
344,260	2,331	212,602	106,464
345,275	2,459	212,532	106,509
346,289	2,251	212,502	106,338
347,304	2,375	212,236	106,282
348,319	2,226	212,123	106,112
349,333	2,100	211,702	105,804
350,348	2,205	211,687	105,861
351,362	2,349	211,754	105,985
352,377	2,330	211,644	105,907
353,392	2,208	211,455	105,718
354,406	2,266	211,304	105,674
355,421	196,284	1315,311	1391,182
356,435	156,935	1449,783	1391,125
