DTS Sentinel unit serial number:	SN410029Multiplexer serial number:	ORYXHardware model number:	OX2-SRSoftware version number:	ORYX F/W v4,00 Oryx Data Collector v3.7.2.0data status	okinstallation	B6 Nyhavnadifferential loss correction	single-endedforward channel	channel 2reverse channel	N/Adate	2023/12/11time	09:25:08forward acquisition time	300,00reverse acquisition time	0,00gamma	499,1914k internal	0,3138k external	0,3138temperature offset calibration	1,0000default loss term (dB/km)	0,3820temperature slope calibration	1,0000multiplexer offset coefficient	1,0000multiplexer slope coefficient	1,0000fibre end	0,00T internal ref (°C)	16,74T ext. ref 1 (°C)	-0,80T ext. ref 2 (°C)	-0,83length (m)	temperature (°C)	Stokes	anti-Stokes-744,400	-138,699	0,065	-0,005
-743,385	-69,688	-0,125	0,035
-742,371	261,164	0,098	0,126
-741,356	-62,008	-0,235	0,072
-740,342	-102,923	0,176	0,031
-739,327	-87,062	-0,289	-0,065
-738,312	-68,355	0,064	0,018
-737,298	-88,360	-0,317	0,070
-736,283	800,000	-0,026	0,056
-735,269	-145,375	-0,187	-0,012
-734,254	-37,253	-0,059	-0,023
-733,239	-80,551	-0,563	-0,138
-732,225	-95,547	0,136	0,027
-731,210	-200,000	0,050	0,000
-730,196	1,901	-0,181	0,097
-729,181	-200,000	0,010	-0,041
-728,167	59,057	-0,089	-0,065
-727,152	-132,475	-0,101	0,010
-726,137	80,729	0,011	-0,009
-725,123	-200,000	-0,001	0,017
-724,108	-19,842	-0,095	-0,043
-723,094	-200,000	-0,006	0,050
-722,079	422,627	-0,062	-0,098
-721,064	340,078	0,067	-0,098
-720,050	-200,000	0,018	-0,132
-719,035	655,905	0,065	-0,124
-718,021	194,810	0,086	-0,097
-717,006	35,387	0,069	-0,045
-715,991	-200,000	0,016	-0,104
-714,977	-200,000	-0,017	-0,108
-713,962	76,040	-0,111	-0,087
-712,948	536,970	-0,070	0,124
-711,933	444,070	-0,012	0,020
-710,918	171,709	-0,033	-0,036
-709,904	-200,000	0,003	-0,057
-708,889	-55,865	0,061	-0,020
-707,875	112,483	-0,111	0,100
-706,860	-200,000	-0,031	0,187
-705,845	-154,720	-0,081	0,004
-704,831	171,038	0,040	-0,043
-703,816	800,000	-0,024	-0,062
-702,802	-200,000	-0,006	-0,030
-701,787	106,852	0,055	-0,048
-700,772	-200,000	-0,018	0,071
-699,758	-200,000	-0,007	0,027
-698,743	-60,455	-0,053	0,017
-697,729	-39,020	0,096	0,037
-696,714	800,000	-0,055	-0,149
-695,699	-200,000	-0,016	-0,076
-694,685	800,000	-0,011	-0,030
-693,670	63,688	0,031	-0,023
-692,656	-200,000	-0,024	0,207
-691,641	-200,000	-0,000	0,030
-690,627	-200,000	-0,017	-0,070
-689,612	-200,000	0,013	-0,081
-688,597	800,000	-0,027	-0,079
-687,583	800,000	-0,002	-0,006
-686,568	-0,791	0,089	-0,046
-685,554	-200,000	0,016	-0,077
-684,539	316,316	0,020	-0,028
-683,524	-200,000	-0,018	-0,059
-682,510	193,296	0,031	0,035
-681,495	266,151	-0,047	-0,061
-680,481	-200,000	0,023	-0,115
-679,466	-32,229	-0,098	-0,040
-678,451	-75,224	-0,096	-0,025
-677,437	800,000	0,026	0,056
-676,422	-200,000	0,003	0,040
-675,408	-90,649	0,013	0,003
-674,393	-200,000	0,021	0,201
-673,378	-200,000	0,012	-0,108
-672,364	50,661	-0,108	-0,075
-671,349	-200,000	0,019	-0,074
-670,335	380,116	-0,036	0,055
-669,320	693,866	0,042	0,081
-668,305	800,000	-0,022	0,048
-667,291	19,623	0,086	-0,051
-666,276	173,972	-0,148	-0,158
-665,262	-200,000	-0,005	-0,137
-664,247	29,547	-0,137	-0,086
-663,232	800,000	-0,007	-0,021
-662,218	-6,285	0,053	0,027
-661,203	-136,103	-0,005	0,000
-660,189	-200,000	-0,001	0,032
-659,174	152,313	-0,067	-0,068
-658,159	-39,280	0,071	0,027
-657,145	-6,530	0,076	0,038
-656,130	800,000	-0,020	0,055
-655,116	45,430	0,088	0,060
-654,101	800,000	-0,108	0,236
-653,086	105,867	-0,097	0,085
-652,072	351,010	-0,103	0,151
-651,057	287,240	-0,072	-0,097
-650,043	-200,000	0,017	-0,089
-649,028	-54,248	-0,056	0,019
-648,014	164,955	0,079	-0,083
-646,999	324,587	0,083	0,117
-645,984	-112,194	0,131	0,019
-644,970	-200,000	-0,015	-0,063
-643,955	-200,000	-0,034	-0,146
-642,941	-46,688	-0,074	-0,027
-641,926	14,987	-0,070	-0,040
-640,911	277,975	0,025	0,033
-639,897	-84,213	-0,098	0,023
-638,882	145,247	-0,027	0,026
-637,868	3,126	-0,165	0,088
-636,853	98,574	-0,189	-0,161
-635,838	-84,407	0,079	-0,018
-634,824	-200,000	0,009	-0,061
-633,809	17,880	-0,004	0,002
-632,795	27,172	0,016	-0,010
-631,780	-15,651	0,049	-0,023
-630,765	216,879	-0,155	-0,182
-629,751	59,921	0,088	0,064
-628,736	-200,000	-0,009	0,035
-627,722	419,810	0,031	0,049
-626,707	-39,934	-0,084	0,032
-625,692	18,354	-0,099	0,058
-624,678	15,857	0,074	0,043
-623,663	-36,794	0,130	-0,051
-622,649	-165,919	-0,115	0,004
-621,634	98,536	-0,118	0,100
-620,619	-86,578	0,037	0,008
-619,605	-114,360	0,048	-0,007
-618,590	-200,000	0,007	-0,056
-617,576	-200,000	-0,000	0,066
-616,561	570,293	-0,062	0,112
-615,546	-200,000	-0,021	-0,101
-614,532	-112,237	-0,050	0,007
-613,517	-97,755	-0,141	0,027
-612,503	-200,000	0,006	0,074
-611,488	-200,000	0,001	0,043
-610,474	32,003	-0,006	0,004
-609,459	0,658	-0,112	0,059
-608,444	78,144	-0,030	-0,023
-607,430	655,532	0,055	-0,104
-606,415	-200,000	-0,051	-0,189
-605,401	-200,000	-0,022	-0,099
-604,386	-50,927	0,060	0,021
-603,371	-200,000	-0,032	-0,155
-602,357	-125,520	0,070	-0,008
-601,342	4,301	-0,031	0,017
-600,328	-200,000	-0,021	0,126
-599,313	93,713	0,116	-0,097
-598,298	-200,000	-0,009	-0,033
-597,284	-6,899	-0,112	-0,056
-596,269	474,844	0,047	0,078
-595,255	-27,752	-0,154	0,066
-594,240	800,000	0,017	0,047
-593,225	32,815	0,034	-0,022
-592,211	238,961	-0,077	-0,094
-591,196	107,447	0,042	-0,037
-590,182	16,911	-0,118	0,069
-589,167	-122,857	0,102	-0,012
-588,152	-40,224	0,205	0,078
-587,138	168,602	-0,066	0,069
-586,123	90,195	0,100	0,082
-585,109	-35,308	-0,069	0,028
-584,094	-151,662	-0,121	-0,006
-583,079	13,070	-0,075	-0,043
-582,065	88,102	-0,013	-0,011
-581,050	48,206	-0,118	0,082
-580,036	-39,008	-0,009	0,004
-579,021	260,139	0,046	-0,059
-578,006	800,000	-0,058	-0,141
-576,992	-200,000	0,030	0,154
-575,977	342,769	0,049	0,071
-574,963	-61,957	0,015	0,004
-573,948	-55,553	-0,185	0,061
-572,934	-200,000	0,020	0,105
-571,919	-118,721	-0,111	0,014
-570,904	-59,493	-0,018	0,006
-569,890	-11,885	-0,011	-0,005
-568,875	114,678	-0,094	0,084
-567,861	-200,000	-0,002	-0,055
-566,846	596,617	-0,068	0,124
-565,831	-183,901	-0,036	0,000
-564,817	-200,000	0,000	0,034
-563,802	119,497	-0,038	-0,035
-562,788	86,086	0,038	0,031
-561,773	-200,000	-0,001	-0,006
-560,758	742,971	0,019	-0,037
-559,744	-200,000	0,001	-0,020
-558,729	-200,000	0,039	-0,133
-557,715	800,000	-0,066	-0,207
-556,700	-174,217	0,046	-0,001
-555,685	-200,000	0,009	-0,050
-554,671	635,997	0,040	-0,076
-553,656	-69,586	0,123	0,035
-552,642	800,000	-0,029	0,065
-551,627	-39,147	0,057	0,022
-550,612	-33,283	-0,084	0,034
-549,598	800,000	-0,041	-0,093
-548,583	-109,566	-0,185	-0,028
-547,569	-91,681	-0,075	0,016
-546,554	-188,250	0,082	-0,001
-545,539	156,573	0,153	-0,156
-544,525	-185,510	0,019	-0,000
-543,510	200,282	-0,075	-0,085
-542,496	-81,034	-0,060	0,014
-541,481	370,389	-0,061	-0,091
-540,466	727,280	0,038	0,075
-539,452	-116,964	0,153	0,020
-538,437	320,634	-0,020	0,028
-537,423	6,668	0,144	-0,079
-536,408	411,697	0,037	-0,059
-535,393	-92,252	0,038	0,008
-534,379	-115,853	0,044	0,006
-533,364	-140,001	-0,031	0,002
-532,350	397,739	0,058	0,090
-531,335	800,000	-0,032	-0,089
-530,321	-200,000	-0,007	-0,098
-529,306	17,450	0,154	-0,090
-528,291	-46,195	-0,161	-0,058
-527,277	32,871	-0,049	-0,031
-526,262	-73,849	-0,066	0,018
-525,248	261,880	0,069	-0,089
-524,233	33,704	-0,051	0,033
-523,218	204,689	-0,052	-0,059
-522,204	743,831	0,051	-0,101
-521,189	-200,000	-0,021	-0,069
-520,175	-20,323	-0,116	-0,052
-519,160	214,331	0,067	-0,078
-518,145	363,348	0,087	0,128
-517,131	-31,782	0,107	0,044
-516,116	-200,000	0,036	-0,118
-515,102	-97,419	-0,042	-0,008
-514,087	-140,745	-0,036	0,003
-513,072	2,917	-0,061	0,033
-512,058	-71,507	0,073	0,020
-511,043	-59,373	-0,068	-0,021
-510,029	327,462	-0,042	-0,059
-509,014	127,078	0,020	0,018
-507,999	-104,123	-0,052	-0,009
-506,985	31,608	-0,116	0,073
-505,970	800,000	0,036	-0,078
-504,956	-75,105	0,016	-0,004
-503,941	-200,000	0,001	0,068
-502,926	-49,649	-0,121	0,042
-501,912	-167,653	-0,076	0,002
-500,897	140,193	0,055	0,053
-499,883	-81,052	0,121	-0,029
-498,868	800,000	0,051	0,130
-497,853	800,000	-0,026	0,054
-496,839	28,385	-0,071	-0,044
-495,824	800,000	0,045	0,111
-494,810	-200,000	0,019	0,097
-493,795	-200,000	-0,017	-0,081
-492,781	800,000	0,038	-0,116
-491,766	-200,000	-0,028	-0,104
-490,751	25,025	-0,036	0,022
-489,737	-200,000	0,063	-0,214
-488,722	-59,073	0,087	-0,028
-487,708	77,827	-0,036	0,029
-486,693	-200,000	-0,003	0,183
-485,678	11,774	-0,022	0,012
-484,664	800,000	-0,036	0,075
-483,649	-200,000	0,011	0,094
-482,635	-200,000	0,037	-0,136
-481,620	-200,000	0,032	0,152
-480,605	45,120	-0,076	0,051
-479,591	800,000	0,029	0,062
-478,576	-90,205	-0,103	0,022
-477,562	-58,766	-0,031	-0,010
-476,547	217,316	-0,039	0,046
-475,532	161,751	-0,047	0,048
-474,518	52,590	0,104	0,073
-473,503	84,728	0,046	0,037
-472,489	-200,000	0,013	0,075
-471,474	-69,753	0,138	0,039
-470,459	490,338	-0,029	-0,049
-469,445	-194,497	-0,131	-0,001
-468,430	230,039	0,022	-0,026
-467,416	-1,783	0,018	0,009
-466,401	-200,000	0,004	0,055
-465,386	-200,000	0,007	-0,035
-464,372	-64,816	0,011	0,003
-463,357	689,864	0,026	-0,049
-462,343	25,840	-0,120	-0,073
-461,328	109,672	0,039	0,034
-460,313	26,553	0,168	-0,103
-459,299	136,311	0,029	-0,028
-458,284	-200,000	0,002	0,189
-457,270	474,708	0,014	-0,023
-456,255	-107,084	-0,145	-0,023
-455,241	-8,431	0,035	-0,017
-454,226	124,770	-0,100	0,092
-453,211	-189,771	0,038	-0,000
-452,197	800,000	0,053	-0,114
-451,182	200,563	0,034	0,039
-450,168	-146,911	0,066	0,004
-449,153	800,000	-0,057	0,176
-448,138	-200,000	-0,027	0,102
-447,124	-36,560	-0,064	0,025
-446,109	-200,000	0,001	0,060
-445,095	-41,134	-0,136	0,051
-444,080	-127,025	0,102	0,011
-443,065	139,976	0,083	0,080
-442,051	-200,000	-0,012	-0,057
-441,036	-156,475	-0,139	-0,006
-440,022	-15,545	-0,062	-0,029
-439,007	35,043	0,135	-0,086
-437,992	800,000	-0,048	0,139
-436,978	-21,446	0,032	-0,014
-435,963	478,710	0,031	0,052
-434,949	-167,860	-0,130	0,004
-433,934	137,096	-0,078	-0,074
-432,919	120,937	0,056	-0,051
-431,905	-200,000	-0,002	-0,019
-430,890	2,015	0,144	0,076
-429,876	800,000	0,085	0,184
-428,861	-73,820	0,060	0,016
-427,846	-140,379	0,123	0,009
-426,832	-119,992	-0,033	0,004
-425,817	-200,000	-0,038	0,125
-424,803	-200,000	-0,004	0,066
-423,788	800,000	-0,021	0,054
-422,773	134,763	0,105	0,100
-421,759	-123,118	-0,011	-0,001
-420,744	-200,000	0,002	-0,133
-419,730	-200,000	-0,017	-0,131
-418,715	-58,344	0,075	-0,024
-417,701	-20,191	0,103	0,046
-416,686	188,382	-0,030	0,032
-415,671	800,000	0,016	0,049
-414,657	75,867	-0,141	-0,109
-413,642	84,369	-0,044	-0,035
-412,628	800,000	0,036	-0,078
-411,613	52,643	-0,067	-0,047
-410,598	423,574	0,054	-0,085
-409,584	-200,000	-0,010	0,073
-408,569	-166,850	0,076	-0,002
-407,555	226,591	-0,064	0,076
-406,540	-200,000	0,023	0,131
-405,525	-200,000	0,000	0,045
-404,511	-14,399	-0,184	-0,087
-403,496	36,844	-0,058	0,037
-402,482	-50,971	0,163	-0,056
-401,467	-200,000	0,010	-0,115
-400,452	184,370	0,043	0,046
-399,438	60,574	0,059	0,043
-398,423	262,184	-0,026	-0,033
-397,409	4,107	0,142	-0,076
-396,394	412,193	0,068	-0,107
-395,379	-200,000	0,003	-0,022
-394,365	800,000	-0,083	0,186
-393,350	763,285	0,015	0,031
-392,336	-152,556	0,099	0,005
-391,321	-8,513	-0,074	-0,036
-390,306	35,439	-0,187	-0,120
-389,292	-200,000	0,019	0,064
-388,277	-194,168	-0,035	-0,000
-387,263	-26,613	0,025	0,011
-386,248	49,023	0,039	0,026
-385,233	-200,000	0,012	-0,042
-384,219	-106,912	-0,161	-0,026
-383,204	79,572	-0,009	0,007
-382,190	800,000	0,054	-0,127
-381,175	292,058	0,035	0,047
-380,160	-200,000	-0,007	0,078
-379,146	337,533	0,064	-0,092
-378,131	14,990	-0,044	0,025
-377,117	-132,139	-0,126	-0,012
-376,102	-200,000	0,008	-0,087
-375,088	544,068	-0,023	0,040
-374,073	800,000	0,040	-0,119
-373,058	513,740	-0,033	-0,056
-372,044	-197,716	0,103	0,000
-371,029	-80,930	0,051	0,012
-370,015	-97,187	-0,190	0,036
-369,000	-134,159	-0,064	0,006
-367,985	-200,000	-0,001	-0,179
-366,971	800,000	0,010	-0,029
-365,956	-176,559	0,070	-0,001
-364,942	452,164	0,085	0,138
-363,927	-200,000	0,021	-0,072
-362,912	-41,864	0,070	0,026
-361,898	800,000	-0,049	0,140
-360,883	-109,504	-0,018	-0,003
-359,869	92,724	-0,083	-0,068
-358,854	73,261	0,082	-0,063
-357,839	474,743	0,032	0,054
-356,825	246,334	0,038	-0,046
-355,810	800,000	0,068	0,164
-354,796	418,905	0,035	0,055
-353,781	80,365	-0,116	-0,092
-352,766	150,881	0,061	-0,061
-351,752	16,243	-0,121	-0,069
-350,737	-11,059	0,055	0,026
-349,723	313,837	0,076	0,104
-348,708	-200,000	0,005	0,061
-347,693	-200,000	-0,048	-0,156
-346,679	-21,302	-0,084	-0,037
-345,664	-200,000	-0,006	-0,074
-344,650	-200,000	0,010	0,056
-343,635	727,863	-0,089	0,175
-342,620	-200,000	0,010	0,083
-341,606	-200,000	-0,011	-0,085
-340,591	-62,367	-0,056	-0,017
-339,577	90,855	-0,125	-0,102
-338,562	153,145	0,152	-0,152
-337,548	-51,032	-0,086	0,029
-336,533	-200,000	0,014	0,049
-335,518	352,209	0,039	0,057
-334,504	-21,001	0,130	0,058
-333,489	-200,000	0,016	0,065
-332,475	800,000	0,015	0,039
-331,460	-96,135	-0,171	-0,033
-330,445	-47,248	-0,126	-0,044
-329,431	-32,587	0,097	-0,039
-328,416	-200,000	0,035	0,233
-327,402	800,000	0,057	0,149
-326,387	800,000	0,032	0,066
-325,372	-25,488	0,093	0,040
-324,358	26,295	-0,091	-0,055
-323,343	214,666	-0,062	-0,072
-322,329	186,288	0,033	-0,036
-321,314	-106,085	0,099	0,016
-320,299	517,666	-0,027	0,047
-319,285	800,000	0,070	-0,159
-318,270	-200,000	0,022	0,102
-317,256	306,363	0,036	0,049
-316,241	321,524	-0,037	0,051
-315,226	6,624	0,105	0,057
-314,212	-130,288	0,110	-0,011
-313,197	71,439	0,060	0,045
-312,183	32,010	0,067	0,042
-311,168	152,614	0,007	0,007
-310,153	86,168	-0,082	0,066
-309,139	800,000	0,031	-0,095
-308,124	533,056	-0,033	0,056
-307,110	522,392	0,042	0,072
-306,095	-200,000	-0,003	-0,034
-305,080	244,680	-0,059	0,072
-304,066	101,193	0,066	0,056
-303,051	800,000	-0,020	-0,044
-302,037	-129,543	-0,012	-0,001
-301,022	26,516	0,092	0,056
-300,008	-200,000	0,005	-0,040
-298,993	21,009	0,046	-0,027
-297,978	30,016	0,033	-0,020
-296,964	800,000	0,024	-0,055
-295,949	88,245	0,032	0,026
-294,935	-68,819	-0,154	-0,043
-293,920	344,455	0,065	-0,093
-292,905	380,584	0,046	-0,069
-291,891	-200,000	0,016	0,074
-290,876	-200,000	0,013	0,153
-289,862	800,000	0,063	-0,132
-288,847	459,499	0,087	-0,141
-287,832	800,000	-0,055	0,139
-286,818	499,987	0,081	0,136
-285,803	-200,000	-0,041	-0,141
-284,789	152,218	0,053	-0,053
-283,774	73,194	-0,030	-0,023
-282,759	800,000	-0,031	0,097
-281,745	800,000	0,053	-0,120
-280,730	156,915	-0,072	-0,073
-279,716	77,219	0,077	-0,059
-278,701	60,062	-0,050	-0,036
-277,686	-200,000	0,041	0,143
-276,672	208,418	0,091	-0,104
-275,657	-200,000	0,003	-0,040
-274,643	74,956	-0,108	0,083
-273,628	-14,201	-0,132	-0,062
-272,613	800,000	0,065	-0,137
-271,599	800,000	-0,066	0,151
-270,584	311,957	-0,021	0,029
-269,570	800,000	0,020	-0,058
-268,555	-200,000	-0,004	-0,063
-267,540	390,447	-0,076	-0,116
-266,526	-104,748	0,118	-0,020
-265,511	-200,000	-0,027	-0,122
-264,497	-166,235	0,147	0,004
-263,482	-47,132	0,103	0,037
-262,467	144,206	-0,126	0,122
-261,453	-200,000	-0,012	0,092
-260,438	-181,860	-0,033	0,000
-259,424	-151,966	-0,047	-0,002
-258,409	438,934	0,047	-0,075
-257,395	396,866	-0,004	-0,006
-256,380	-200,000	-0,042	0,160
-255,365	800,000	0,004	-0,011
-254,351	110,079	-0,073	-0,064
-253,336	-138,105	-0,152	0,012
-252,322	59,375	0,047	-0,033
-251,307	800,000	-0,030	0,090
-250,292	-43,187	0,047	0,017
-249,278	358,049	0,173	0,252
-248,263	-54,638	0,052	0,017
-247,249	206,877	0,032	-0,037
-246,234	-151,454	-0,057	-0,003
-245,219	800,000	-0,040	-0,115
-244,205	456,848	0,072	-0,117
-243,190	145,695	-0,047	-0,046
-242,176	-200,000	-0,016	0,066
-241,161	-200,000	0,002	0,028
-240,146	69,038	0,071	-0,053
-239,132	249,263	0,050	0,062
-238,117	800,000	-0,033	-0,071
-237,103	800,000	0,007	-0,019
-236,088	299,887	0,055	0,074
-235,073	-49,581	-0,064	0,022
-234,059	-87,953	-0,087	-0,019
-233,044	-19,577	-0,050	-0,022
-232,030	800,000	0,047	0,114
-231,015	-133,018	-0,024	-0,002
-230,000	269,009	-0,062	-0,080
-228,986	118,372	0,070	-0,063
-227,971	-153,311	0,117	-0,006
-226,957	800,000	0,028	-0,081
-225,942	203,666	0,053	0,060
-224,927	800,000	0,043	-0,117
-223,913	-200,000	0,009	-0,036
-222,898	144,637	-0,095	-0,092
-221,884	62,920	-0,067	-0,048
-220,869	146,276	0,028	0,028
-219,855	-77,234	0,151	0,038
-218,840	800,000	0,046	0,119
-217,825	13,752	0,077	0,043
-216,811	93,258	-0,058	0,048
-215,796	84,030	0,127	-0,100
-214,782	19,602	-0,038	-0,022
-213,767	-200,000	-0,008	0,066
-212,752	800,000	0,024	0,074
-211,738	186,150	-0,062	0,068
-210,723	138,225	0,095	0,091
-209,709	71,316	-0,081	0,061
-208,694	142,328	0,013	0,013
-207,679	399,799	-0,031	-0,047
-206,665	-103,643	0,106	-0,018
-205,650	-200,000	0,009	0,110
-204,636	-53,111	0,097	0,032
-203,621	800,000	0,024	-0,050
-202,606	187,950	-0,058	-0,063
-201,592	-111,514	-0,154	0,023
-200,577	35,692	-0,064	0,041
-199,563	220,286	0,042	0,049
-198,548	5,986	0,134	0,072
-197,533	-200,000	-0,008	0,085
-196,519	94,637	0,073	-0,060
-195,504	150,517	-0,031	-0,031
-194,490	800,000	-0,032	-0,102
-193,475	44,961	0,031	0,021
-192,460	800,000	-0,064	-0,149
-191,446	338,307	0,032	-0,045
-190,431	463,019	0,085	0,138
-189,417	-174,406	0,073	-0,001
-188,402	-200,000	-0,035	0,113
-187,387	800,000	0,040	-0,083
-186,373	172,430	-0,058	0,061
-185,358	-108,256	-0,059	-0,009
-184,344	-200,000	0,038	-0,144
-183,329	-119,731	-0,097	-0,012
-182,315	221,471	0,119	-0,139
-181,300	-117,049	-0,067	0,009
-180,285	-118,442	-0,117	0,015
-179,271	-200,000	0,005	-0,115
-178,256	-200,000	-0,035	-0,150
-177,242	800,000	0,045	0,134
-176,227	-2,826	0,097	0,049
-175,212	800,000	-0,041	-0,130
-174,198	800,000	-0,035	-0,075
-173,183	-71,665	0,099	-0,027
-172,169	-113,486	0,052	-0,007
-171,154	-67,349	0,068	0,019
-170,139	217,702	-0,087	-0,100
-169,125	-200,000	-0,006	0,159
-168,110	800,000	-0,056	0,117
-167,096	437,021	0,100	0,159
-166,081	35,626	-0,142	-0,090
-165,066	-200,000	0,012	0,042
-164,052	-42,491	0,032	0,012
-163,037	-158,635	0,116	0,005
-162,023	-41,893	0,170	-0,063
-161,008	-200,000	-0,001	0,103
-159,993	241,754	-0,088	-0,107
-158,979	800,000	-0,011	-0,033
-157,964	-100,554	-0,088	-0,016
-156,950	-20,667	-0,070	0,031
-155,935	-200,000	0,001	0,113
-154,920	-67,752	-0,086	-0,024
-153,906	-40,612	0,095	0,036
-152,891	-200,000	-0,015	-0,103
-151,877	-200,000	0,027	0,151
-150,862	394,254	-0,098	0,148
-149,847	-200,000	0,009	0,066
-148,833	800,000	0,032	-0,067
-147,818	800,000	0,035	-0,090
-146,804	231,380	0,041	0,049
-145,789	21,545	0,132	-0,078
-144,775	280,379	-0,103	-0,133
-143,760	270,818	-0,079	-0,101
-142,745	800,000	-0,022	0,067
-141,731	-136,014	0,162	-0,014
-140,716	-25,793	0,134	0,057
-139,702	261,306	0,079	-0,099
-138,687	-200,000	0,003	-0,061
-137,672	274,597	0,040	-0,051
-136,658	-200,000	0,003	-0,060
-135,643	-16,808	-0,065	-0,030
-134,629	-20,746	0,055	-0,024
-133,614	-200,000	0,021	0,098
-132,599	592,701	0,023	0,042
-131,585	-200,000	-0,014	-0,077
-130,570	800,000	-0,007	0,014
-129,556	-104,581	0,027	-0,005
-128,541	4,609	-0,139	0,074
-127,526	670,613	0,048	0,091
-126,512	115,999	-0,034	0,030
-125,497	-200,000	-0,007	0,124
-124,483	-200,000	0,053	0,176
-123,468	-200,000	0,001	0,040
-122,453	495,038	-0,043	-0,072
-121,439	-200,000	0,014	0,080
-120,424	-53,874	-0,069	-0,023
-119,410	-28,683	0,147	-0,061
-118,395	214,295	0,034	0,039
-117,380	800,000	0,055	0,138
-116,366	800,000	0,024	0,054
-115,351	-200,000	-0,007	-0,028
-114,337	-200,000	-0,009	-0,053
-113,322	129,578	-0,066	0,061
-112,307	-200,000	-0,005	-0,064
-111,293	800,000	-0,048	0,108
-110,278	53,667	-0,129	0,089
-109,264	90,249	0,051	-0,041
-108,249	65,850	-0,026	0,019
-107,234	66,358	0,044	0,033
-106,220	-200,000	-0,004	0,109
-105,205	30,732	0,029	0,018
-104,191	-200,000	0,008	0,104
-103,176	-46,737	0,022	-0,008
-102,162	-200,000	0,003	-0,063
-101,147	-59,728	-0,055	-0,017
-100,132	22,646	-0,081	0,048
-99,118	-200,000	0,002	0,038
-98,103	800,000	0,020	-0,041
-97,089	-111,098	0,088	-0,013
-96,074	122,007	-0,083	0,075
-95,059	-200,000	-0,009	0,154
-94,045	758,926	-0,064	-0,126
-93,030	-200,000	-0,001	-0,095
-92,016	-75,723	-0,061	-0,016
-91,001	376,281	-0,006	-0,009
-89,986	-12,817	0,106	0,050
-88,972	-200,000	-0,016	0,054
-87,957	79,274	0,117	0,091
-86,943	-95,917	0,122	0,023
-85,928	65,471	-0,185	-0,136
-84,913	-200,000	-0,001	-0,177
-83,899	140,934	0,038	-0,036
-82,884	20,083	0,158	0,092
-81,870	98,616	0,014	0,012
-80,855	35,757	0,060	-0,038
-79,840	659,502	-0,050	0,093
-78,826	281,540	0,042	-0,054
-77,811	223,389	-0,113	-0,132
-76,797	336,814	0,034	-0,048
-75,782	800,000	-0,052	-0,146
-74,767	-60,599	0,055	-0,017
-73,753	90,472	-0,078	0,063
-72,738	-200,000	-0,009	0,037
-71,724	98,534	-0,082	0,069
-70,709	105,982	-0,084	-0,072
-69,694	167,835	-0,028	0,029
-68,680	-65,015	0,058	-0,017
-67,665	-147,626	0,063	-0,004
-66,651	-200,000	0,020	0,099
-65,636	179,370	0,084	-0,089
-64,622	-159,681	-0,110	0,004
-63,607	-10,462	-0,135	0,064
-62,592	-54,240	0,033	-0,011
-61,578	181,062	-0,061	0,065
-60,563	217,468	-0,032	0,037
-59,549	-149,777	-0,120	0,007
-58,534	-10,764	-1,847	-0,879
-57,519	800,000	-0,297	-0,939
-56,505	-200,000	-1,187	-5,016
-55,490	-103,117	0,671	0,114
-54,476	800,000	5,296	12,170
-53,461	-200,000	16,941	275,859
-52,446	800,000	714,316	2216,463
-51,432	557,961	1624,781	2841,190
-50,417	114,354	1621,986	1425,997
-49,403	79,161	1282,266	991,166
-48,388	33,937	1027,534	644,650
-47,373	20,649	989,250	576,617
-46,359	19,231	977,688	565,179
-45,344	17,017	973,638	555,532
-44,330	17,170	972,419	555,316
-43,315	16,789	970,578	552,991
-42,300	16,781	969,468	552,312
-41,286	16,742	968,304	551,499
-40,271	16,759	967,639	551,152
-39,257	16,771	966,498	550,520
-38,242	16,854	965,575	550,243
-37,227	16,737	964,849	549,428
-36,213	16,755	964,099	549,038
-35,198	16,740	963,323	548,525
-34,184	16,729	962,457	547,976
-33,169	16,706	961,400	547,275
-32,154	16,838	960,561	547,204
-31,140	16,827	959,563	546,578
-30,125	16,793	958,926	546,083
-29,111	16,770	957,924	545,419
-28,096	16,858	957,360	545,360
-27,082	16,803	956,759	544,819
-26,067	16,772	955,813	544,157
-25,052	16,803	955,123	543,842
-24,038	16,808	954,559	543,515
-23,023	16,811	953,740	543,039
-22,009	16,801	953,104	542,623
-20,994	16,884	952,491	542,519
-19,979	16,836	951,943	542,031
-18,965	16,810	951,234	541,522
-17,950	16,800	950,686	541,155
-16,936	16,697	950,111	540,477
-15,921	16,705	949,442	540,101
-14,906	16,603	948,789	539,381
-13,892	16,637	947,975	539,005
-12,877	16,609	947,338	538,531
-11,863	16,581	946,737	538,081
-10,848	16,565	946,228	537,716
-9,833	16,756	945,659	537,983
-8,819	16,662	945,171	537,385
-7,804	16,661	944,242	536,830
-6,790	16,653	943,785	536,523
-5,775	16,701	943,273	536,367
-4,760	16,679	942,747	535,974
-3,746	16,646	942,018	535,432
-2,731	16,485	941,298	534,491
-1,717	16,478	940,619	534,062
-0,702	16,491	940,158	533,820
0,313	16,360	939,370	533,763
1,327	19,559	937,574	542,829
2,342	28,994	793,081	484,244
3,356	25,535	446,764	267,594
4,371	-5,497	295,011	145,561
5,386	-9,612	276,515	132,507
6,400	-11,023	270,757	128,420
7,415	-11,333	268,434	127,020
8,429	-10,911	267,222	126,823
9,444	-10,784	266,353	126,516
10,459	-10,931	266,052	126,228
11,473	-10,886	265,322	125,911
12,488	-10,839	264,857	125,722
13,502	-10,982	264,244	125,290
14,517	-10,785	263,969	125,327
15,531	-10,341	263,567	125,528
16,546	-10,146	263,220	125,528
17,561	-10,429	262,913	125,115
18,575	-10,098	262,586	125,247
19,590	-10,340	262,298	124,880
20,604	-10,057	261,975	124,970
21,619	-10,174	261,569	124,660
22,634	-10,170	261,259	124,505
23,648	-10,254	260,964	124,277
24,663	-10,215	260,735	124,192
25,677	-10,282	260,531	124,025
26,692	-10,319	260,367	123,902
27,707	-10,253	260,138	123,841
28,721	-10,330	259,734	123,569
29,736	-10,359	259,579	123,458
30,750	-10,228	259,158	123,364
31,765	-10,271	258,873	123,179
32,780	-10,268	258,723	123,099
33,794	-10,115	258,662	123,196
34,809	-10,201	258,303	122,936
35,823	-10,223	258,055	122,788
36,838	-10,392	257,771	122,492
37,853	-10,326	257,588	122,454
38,867	-10,274	257,270	122,337
39,882	-10,129	256,997	122,325
40,896	-10,445	256,880	121,979
41,911	-10,333	256,767	122,014
42,926	-10,316	256,452	121,867
43,940	-10,310	256,153	121,720
44,955	-10,414	256,039	121,563
45,969	-10,562	255,905	121,359
46,984	-10,347	255,470	121,330
47,999	-10,597	255,413	121,073
49,013	-10,131	255,096	121,320
50,028	-10,475	255,033	120,978
51,042	-10,415	254,707	120,865
52,057	-10,334	254,416	120,787
53,071	-10,374	254,148	120,614
54,086	-10,461	254,009	120,462
55,101	-10,401	253,873	120,439
56,115	-10,215	253,484	120,405
57,130	-10,416	253,441	120,200
58,144	-10,273	253,177	120,187
59,159	-10,300	253,007	120,073
60,174	-10,448	252,820	119,846
61,188	-10,301	252,590	119,853
62,203	-10,063	252,440	119,977
63,217	-10,235	252,142	119,676
64,232	-10,232	251,976	119,589
65,247	-10,354	251,677	119,331
66,261	-10,331	251,445	119,231
67,276	-10,231	251,196	119,188
68,290	-10,352	250,977	118,970
69,305	-10,479	250,762	118,747
70,320	-10,538	250,735	118,673
71,334	-10,379	250,560	118,716
72,349	-10,326	250,333	118,644
73,363	-10,523	250,086	118,348
74,378	-10,326	249,792	118,367
75,393	-10,321	249,609	118,274
76,407	-10,252	249,419	118,231
77,422	-10,204	249,145	118,132
78,436	-10,398	248,951	117,864
79,451	-10,334	248,725	117,801
80,466	-10,236	248,545	117,789
81,480	-10,462	248,465	117,548
82,495	-10,274	248,073	117,512
83,509	-10,287	248,145	117,524
84,524	-10,272	247,845	117,384
85,539	-10,293	247,618	117,249
86,553	-10,244	247,535	117,240
87,568	-10,363	247,153	116,948
88,582	-10,280	246,839	116,860
89,597	-10,432	246,849	116,725
90,611	-10,248	246,614	116,760
91,626	-10,345	246,421	116,576
92,641	-10,222	246,308	116,615
93,655	-10,146	246,065	116,554
94,670	-10,248	245,935	116,396
95,684	-10,350	245,609	116,146
96,699	-10,432	245,579	116,053
97,714	-10,565	245,440	115,865
98,728	-10,342	245,153	115,906
99,743	-10,360	244,975	115,796
100,757	-10,342	244,807	115,722
101,772	-10,429	244,555	115,519
102,787	-10,364	244,363	115,473
103,801	-10,441	244,239	115,340
104,816	-10,551	244,025	115,137
105,830	-10,264	243,887	115,300
106,845	-10,542	243,620	114,933
107,860	-10,463	243,566	114,962
108,874	-10,477	243,228	114,781
109,889	-10,386	243,094	114,783
110,903	-10,514	242,789	114,523
111,918	-10,815	242,621	114,184
112,933	-10,541	242,428	114,310
113,947	-10,378	242,185	114,320
114,962	-10,396	242,121	114,265
115,976	-10,466	242,150	114,210
116,991	-10,516	241,883	114,032
118,006	-10,491	241,761	113,986
119,020	-10,485	241,573	113,892
120,035	-10,594	241,475	113,745
121,049	-10,423	241,199	113,747
122,064	-10,366	240,981	113,680
123,079	-10,476	240,721	113,457
124,093	-10,431	240,567	113,411
125,108	-10,350	240,365	113,372
126,122	-10,280	240,207	113,345
127,137	-10,221	240,068	113,318
128,151	-10,471	239,877	113,013
129,166	-10,337	239,615	112,989
130,181	-10,550	239,592	112,794
131,195	-10,373	239,363	112,821
132,210	-10,461	239,078	112,605
133,224	-10,323	238,943	112,643
134,239	-10,444	238,743	112,440
135,254	-10,432	238,483	112,317
136,268	-10,483	238,410	112,232
137,283	-10,611	238,183	112,011
138,297	-10,659	238,110	111,928
139,312	-10,672	237,806	111,765
140,327	-10,412	237,569	111,853
141,341	-10,394	237,571	111,859
142,356	-10,449	237,357	111,704
143,370	-10,334	237,154	111,691
144,385	-10,242	237,142	111,750
145,400	-10,363	236,893	111,525
146,414	-10,200	236,733	111,571
147,429	-10,015	236,452	111,578
148,443	-10,414	236,373	111,209
149,458	-10,185	236,164	111,285
150,473	-10,216	236,106	111,224
151,487	-10,478	235,774	110,846
152,502	-10,470	235,728	110,821
153,516	-10,189	235,515	110,936
154,531	-10,169	235,216	110,802
155,546	-10,224	235,078	110,683
156,560	-10,266	234,871	110,542
157,575	-10,506	234,729	110,274
158,589	-10,313	234,569	110,343
159,604	-10,328	234,550	110,312
160,619	-10,276	234,450	110,297
161,633	-10,063	234,155	110,318
162,648	-9,973	233,995	110,304
163,662	-10,383	233,784	109,869
164,677	-10,522	233,850	109,780
165,692	-10,342	233,490	109,743
166,706	-10,252	233,425	109,775
167,721	-10,221	233,331	109,745
168,735	-9,976	233,052	109,798
169,750	-10,092	232,830	109,592
170,764	-10,422	232,665	109,244
171,779	-10,311	232,650	109,315
172,794	-10,361	232,647	109,264
173,808	-10,359	232,201	109,046
174,823	-10,623	232,010	108,739
175,837	-10,273	231,829	108,920
176,852	-10,352	231,715	108,794
177,867	-10,505	231,732	108,673
178,881	-10,320	231,503	108,701
179,896	-10,176	231,238	108,680
180,910	-10,256	231,025	108,508
181,925	-10,271	230,884	108,419
182,940	-10,387	230,799	108,279
183,954	-10,171	230,604	108,347
184,969	-10,209	230,570	108,291
185,983	-10,205	230,565	108,282
186,998	-10,039	230,224	108,243
188,013	-10,098	230,115	108,136
189,027	-10,096	229,813	107,986
190,042	-10,208	229,695	107,833
191,056	-10,252	229,588	107,739
192,071	-10,231	229,336	107,628
193,086	-10,422	229,198	107,405
194,100	-10,976	228,710	106,738
195,115	-12,163	228,128	105,538
196,129	-11,677	228,381	106,022
197,144	-6,971	229,795	110,331
198,159	-1,955	231,351	114,988
199,173	0,681	231,948	117,335
200,188	1,758	232,107	118,246
201,202	2,376	232,130	118,731
202,217	2,898	232,124	119,124
203,232	2,892	232,154	119,124
204,246	3,284	231,885	119,282
205,261	3,107	231,828	119,104
206,275	3,188	231,681	119,081
207,290	3,127	231,590	118,976
208,304	3,079	231,275	118,766
209,319	3,145	231,048	118,690
210,334	2,894	230,928	118,423
211,348	2,795	230,583	118,159
212,363	2,338	230,401	117,701
213,377	1,837	230,123	117,161
214,392	1,706	230,004	116,989
215,407	1,722	229,848	116,912
216,421	1,837	229,552	116,839
217,436	1,681	229,417	116,640
218,450	1,864	229,215	116,668
219,465	1,689	229,108	116,468
220,480	1,698	229,063	116,442
221,494	1,675	228,917	116,340
222,509	2,031	228,693	116,489
223,523	1,764	228,619	116,236
224,538	2,016	228,346	116,280
225,553	1,896	228,303	116,155
226,567	1,894	228,134	116,058
227,582	1,957	227,917	115,985
228,596	1,869	227,877	115,887
229,611	1,803	227,733	115,753
230,626	1,874	227,567	115,712
231,640	1,875	227,375	115,606
232,655	1,922	227,133	115,508
233,669	1,833	227,082	115,404
234,684	1,611	226,978	115,172
235,699	1,832	226,774	115,226
236,713	1,934	226,774	115,293
237,728	2,035	226,589	115,265
238,742	2,028	226,413	115,160
239,757	1,765	226,208	114,846
240,772	2,020	226,027	114,938
241,786	1,987	226,040	114,909
242,801	2,241	225,836	114,988
243,815	2,342	225,591	114,928
244,830	2,469	225,688	115,063
245,844	2,251	225,434	114,760
246,859	2,127	225,225	114,549
247,874	2,041	225,258	114,491
248,888	1,982	224,975	114,293
249,903	2,081	224,757	114,246
250,917	2,159	224,624	114,227
251,932	2,066	224,614	114,142
252,947	2,158	224,338	114,061
253,961	2,233	224,149	114,011
254,976	2,238	224,037	113,947
255,990	2,345	223,979	113,987
257,005	2,150	223,741	113,710
258,020	2,396	223,678	113,852
259,034	2,286	223,561	113,700
260,049	2,253	223,448	113,608
261,063	2,206	223,281	113,478
262,078	2,255	223,278	113,502
263,093	2,316	222,964	113,379
264,107	2,652	222,658	113,463
265,122	2,295	222,677	113,197
266,136	2,289	222,451	113,067
267,151	2,239	222,378	112,983
268,166	2,293	222,169	112,907
269,180	2,153	221,999	112,706
270,195	2,200	221,926	112,694
271,209	1,952	221,725	112,398
272,224	1,742	221,746	112,243
273,239	1,988	221,372	112,226
274,253	2,126	221,352	112,308
275,268	2,349	221,057	112,312
276,282	1,915	221,006	111,957
277,297	1,907	220,791	111,832
278,312	1,990	220,657	111,815
279,326	1,952	220,624	111,760
280,341	2,209	220,504	111,878
281,355	2,271	220,348	111,836
282,370	1,958	220,149	111,494
283,384	1,980	219,985	111,418
284,399	1,933	219,810	111,284
285,414	2,300	219,651	111,463
286,428	2,068	219,828	111,373
287,443	2,230	219,522	111,326
288,457	2,161	219,502	111,256
289,472	2,079	219,331	111,099
290,487	2,265	218,986	111,050
291,501	2,071	218,815	110,812
292,516	2,135	218,695	110,788
293,530	2,043	218,744	110,736
294,545	2,186	218,489	110,702
295,560	2,226	218,422	110,687
296,574	2,192	218,312	110,596
297,589	2,181	218,133	110,488
298,603	2,299	217,879	110,435
299,618	2,403	217,882	110,502
300,633	2,216	217,856	110,344
301,647	2,454	217,551	110,352
302,662	2,284	217,479	110,182
303,676	2,469	217,400	110,266
304,691	2,461	217,159	110,128
305,706	2,357	216,994	109,960
306,720	2,292	216,868	109,839
307,735	2,291	216,701	109,744
308,749	2,435	216,437	109,704
309,764	2,319	216,435	109,610
310,779	2,385	216,298	109,578
311,793	2,330	216,083	109,420
312,808	2,144	215,956	109,212
313,822	2,132	215,888	109,159
314,837	2,375	215,644	109,201
315,852	2,259	215,566	109,068
316,866	2,241	215,480	109,003
317,881	2,338	215,348	108,995
318,895	2,224	215,148	108,803
319,910	2,205	214,927	108,668
320,925	2,271	214,828	108,655
321,939	2,099	214,650	108,432
322,954	2,033	214,700	108,401
323,968	2,193	214,557	108,433
324,983	2,163	214,312	108,278
325,997	2,153	214,260	108,235
327,012	2,231	214,103	108,202
328,027	2,007	213,931	107,946
329,041	2,137	213,701	107,912
330,056	2,110	213,628	107,846
331,070	2,345	213,462	107,920
332,085	2,102	213,268	107,640
333,100	2,183	213,166	107,636
334,114	2,359	213,068	107,702
335,129	2,361	212,892	107,605
336,143	2,384	212,763	107,547
337,158	2,220	212,670	107,374
338,173	2,180	212,536	107,268
339,187	2,033	212,450	107,112
340,202	2,255	212,117	107,091
341,216	2,071	212,173	106,980
342,231	2,273	211,934	106,992
343,246	2,361	211,977	107,066
344,260	2,162	211,744	106,798
345,275	2,189	211,669	106,770
346,289	2,215	211,453	106,670
347,304	2,296	211,385	106,684
348,319	2,523	211,235	106,757
349,333	2,210	210,985	106,402
350,348	2,372	210,929	106,478
351,362	2,326	210,808	106,375
352,377	1,961	210,696	106,054
353,392	2,111	210,643	106,123
354,406	2,191	210,297	105,995
355,421	195,145	1342,184	1427,740
356,435	155,825	1480,089	1427,752
