DTS Sentinel unit serial number:	SN410029Multiplexer serial number:	ORYXHardware model number:	OX2-SRSoftware version number:	ORYX F/W v4,00 Oryx Data Collector v3.7.2.0data status	okinstallation	B6 Nyhavnadifferential loss correction	single-endedforward channel	channel 2reverse channel	N/Adate	2023/12/09time	12:55:08forward acquisition time	300,00reverse acquisition time	0,00gamma	499,1914k internal	0,3137k external	0,3137temperature offset calibration	1,0000default loss term (dB/km)	0,3820temperature slope calibration	1,0000multiplexer offset coefficient	1,0000multiplexer slope coefficient	1,0000fibre end	0,00T internal ref (°C)	19,70T ext. ref 1 (°C)	4,45T ext. ref 2 (°C)	4,43length (m)	temperature (°C)	Stokes	anti-Stokes-744,400	247,289	-0,087	-0,109
-743,385	80,536	-0,104	-0,083
-742,371	-200,000	-0,009	0,063
-741,356	-40,564	-0,232	0,089
-740,342	5,596	-0,045	-0,024
-739,327	3,506	-0,285	0,154
-738,312	240,686	0,091	-0,112
-737,298	-76,905	-0,354	0,091
-736,283	-6,683	0,132	-0,066
-735,269	-168,163	-0,255	-0,007
-734,254	-61,911	0,085	-0,026
-733,239	-16,212	-0,454	-0,213
-732,225	-62,947	0,194	0,059
-731,210	800,000	0,037	0,119
-730,196	448,378	-0,059	-0,097
-729,181	-200,000	-0,000	-0,062
-728,167	-200,000	0,010	0,076
-727,152	227,733	0,021	0,025
-726,137	18,087	-0,140	-0,083
-725,123	-72,368	0,059	0,016
-724,108	-84,810	-0,136	0,031
-723,094	-127,261	0,034	0,004
-722,079	800,000	-0,031	-0,087
-721,064	-73,243	-0,037	-0,010
-720,050	-176,077	-0,178	0,003
-719,035	53,054	-0,048	-0,034
-718,021	-200,000	-0,011	0,061
-717,006	-200,000	0,008	0,055
-715,991	318,982	-0,053	-0,075
-714,977	-26,462	-0,090	-0,039
-713,962	-200,000	-0,015	-0,140
-712,948	-88,613	0,083	-0,018
-711,933	800,000	-0,029	-0,083
-710,918	-200,000	0,000	-0,022
-709,904	424,278	-0,091	-0,145
-708,889	-200,000	0,029	-0,188
-707,875	-200,000	0,015	-0,063
-706,860	161,167	0,023	0,023
-705,845	-200,000	-0,006	0,079
-704,831	44,159	-0,185	-0,125
-703,816	-44,284	-0,155	0,057
-702,802	152,963	-0,097	-0,099
-701,787	-42,231	-0,089	0,034
-700,772	301,715	-0,036	0,050
-699,758	-130,305	-0,104	-0,010
-698,743	12,831	0,037	-0,021
-697,729	-200,000	0,022	-0,089
-696,714	-89,657	-0,009	-0,002
-695,699	186,983	-0,028	-0,030
-694,685	-104,646	0,103	-0,017
-693,670	12,821	-0,177	-0,101
-692,656	680,746	-0,050	-0,096
-691,641	86,695	-0,058	-0,048
-690,627	-200,000	-0,017	-0,071
-689,612	22,663	-0,043	-0,026
-688,597	-200,000	-0,010	-0,048
-687,583	654,635	-0,053	-0,101
-686,568	147,467	-0,122	-0,122
-685,554	-200,000	-0,010	-0,045
-684,539	-168,239	0,067	0,002
-683,524	-6,205	0,066	-0,033
-682,510	-114,393	-0,108	0,015
-681,495	-200,000	0,001	-0,018
-680,481	175,945	0,147	-0,158
-679,466	-38,661	-0,133	-0,052
-678,451	785,565	-0,042	-0,085
-677,437	800,000	0,046	-0,108
-676,422	8,487	-0,036	0,020
-675,408	-75,019	-0,109	0,029
-674,393	-11,351	0,062	-0,030
-673,378	-200,000	-0,021	-0,176
-672,364	-200,000	-0,003	0,041
-671,349	92,624	0,062	0,052
-670,335	229,755	-0,026	0,032
-669,320	157,671	0,094	-0,096
-668,305	100,292	0,079	0,068
-667,291	-16,883	0,015	0,007
-666,276	123,151	0,024	0,022
-665,262	321,566	-0,012	-0,017
-664,247	-160,119	0,100	-0,004
-663,232	-200,000	-0,015	-0,060
-662,218	-200,000	0,003	-0,038
-661,203	-118,892	0,185	0,024
-660,189	281,348	-0,139	-0,184
-659,174	-50,579	-0,059	-0,020
-658,159	12,766	-0,134	0,077
-657,145	-42,655	0,052	-0,019
-656,130	14,280	0,065	0,037
-655,116	800,000	-0,054	0,148
-654,101	-69,783	0,063	-0,018
-653,086	72,997	-0,157	0,121
-652,072	-200,000	0,018	0,099
-651,057	416,422	-0,093	-0,148
-650,043	-34,396	0,102	-0,041
-649,028	384,975	-0,107	-0,164
-648,014	226,411	0,069	0,083
-646,999	-200,000	0,068	0,253
-645,984	-32,801	-0,121	-0,050
-644,970	102,222	-0,085	-0,073
-643,955	111,773	0,027	-0,024
-642,941	-93,736	0,077	-0,015
-641,926	-200,000	0,018	-0,075
-640,911	-33,120	-0,117	0,048
-639,897	-200,000	0,037	0,136
-638,882	74,427	0,122	0,095
-637,868	303,107	-0,076	-0,104
-636,853	49,678	0,054	-0,038
-635,838	-71,915	-0,041	0,011
-634,824	-200,000	-0,016	-0,114
-633,809	33,662	-0,024	0,015
-632,795	-196,371	0,121	-0,001
-631,780	-86,120	0,075	-0,017
-630,765	342,054	-0,006	-0,009
-629,751	-200,000	0,006	0,022
-628,736	175,963	-0,073	-0,079
-627,722	109,378	-0,115	0,101
-626,707	0,911	0,112	-0,059
-625,692	800,000	0,015	-0,037
-624,678	-66,655	-0,100	0,029
-623,663	64,181	0,129	-0,096
-622,649	150,422	0,066	-0,066
-621,634	293,421	0,060	-0,081
-620,619	-188,231	-0,053	0,000
-619,605	129,111	0,114	0,107
-618,590	-200,000	-0,004	0,043
-617,576	800,000	-0,051	0,121
-616,561	-172,667	-0,107	0,002
-615,546	70,947	-0,108	-0,083
-614,532	74,421	0,029	0,022
-613,517	556,661	0,056	0,100
-612,503	401,471	-0,082	-0,128
-611,488	334,245	-0,043	-0,062
-610,474	-200,000	0,029	0,097
-609,459	-11,015	-0,067	0,033
-608,444	800,000	-0,049	-0,104
-607,430	-200,000	0,006	-0,097
-606,415	-200,000	0,011	-0,073
-605,401	111,802	0,050	-0,044
-604,386	187,798	0,102	0,112
-603,371	82,449	-0,050	-0,040
-602,357	-19,521	0,056	0,025
-601,342	225,482	-0,078	0,093
-600,328	75,165	-0,165	-0,128
-599,313	37,733	0,023	-0,015
-598,298	800,000	0,018	-0,039
-597,284	-200,000	0,016	0,081
-596,269	-32,824	0,090	-0,037
-595,255	-139,480	-0,071	0,006
-594,240	-200,000	-0,012	-0,043
-593,225	-200,000	0,013	0,051
-592,211	212,875	-0,047	-0,055
-591,196	-93,982	0,091	0,018
-590,182	301,953	-0,043	-0,058
-589,167	-200,000	0,001	0,009
-588,152	-77,919	0,136	0,034
-587,138	-104,279	0,023	-0,004
-586,123	92,844	-0,084	-0,070
-585,109	586,548	-0,111	-0,202
-584,094	112,025	-0,105	-0,094
-583,079	84,062	0,048	0,039
-582,065	0,761	0,080	-0,042
-581,050	187,401	-0,056	-0,061
-580,036	120,461	-0,107	-0,098
-579,021	-200,000	-0,031	-0,115
-578,006	-11,761	-0,074	-0,036
-576,992	-11,664	-0,170	0,082
-575,977	392,902	0,048	0,073
-574,963	76,705	0,062	-0,048
-573,948	800,000	0,025	-0,053
-572,934	-98,794	-0,026	-0,005
-571,919	458,271	-0,083	-0,136
-570,904	21,930	0,101	-0,060
-569,890	800,000	0,007	0,019
-568,875	200,453	-0,022	0,025
-567,861	72,320	-0,084	0,064
-566,846	184,560	0,084	0,092
-565,831	673,726	-0,035	-0,067
-564,817	-200,000	0,016	0,066
-563,802	-130,376	-0,037	-0,004
-562,788	-91,730	-0,093	0,019
-561,773	270,563	0,048	-0,062
-560,758	-200,000	-0,020	0,114
-559,744	80,141	0,013	-0,011
-558,729	-161,064	0,050	0,002
-557,715	-200,000	-0,030	0,139
-556,700	46,202	-0,069	0,047
-555,685	-9,033	0,046	-0,023
-554,671	-112,715	-0,124	0,018
-553,656	70,479	0,117	-0,089
-552,642	-22,146	0,035	-0,016
-551,627	38,839	-0,116	-0,076
-550,612	-12,725	-0,125	0,060
-549,598	86,310	-0,081	-0,066
-548,583	-200,000	0,006	0,036
-547,569	99,747	0,081	0,069
-546,554	800,000	-0,039	0,117
-545,539	34,131	0,065	0,042
-544,525	223,180	-0,036	-0,043
-543,510	10,870	-0,031	-0,018
-542,496	-40,864	0,088	0,033
-541,481	-200,000	0,000	0,075
-540,466	581,883	0,027	0,048
-539,452	-200,000	-0,034	0,117
-538,437	45,409	-0,117	-0,079
-537,423	569,517	-0,062	0,112
-536,408	-200,000	-0,017	0,088
-535,393	-177,491	0,236	0,004
-534,379	47,140	-0,089	-0,061
-533,364	800,000	0,046	0,111
-532,350	184,761	0,087	-0,096
-531,335	-200,000	-0,012	0,061
-530,321	-200,000	-0,016	-0,094
-529,306	281,076	-0,067	-0,089
-528,291	62,254	-0,025	-0,018
-527,277	134,476	-0,029	-0,028
-526,262	-200,000	0,039	-0,171
-525,248	122,379	0,049	-0,046
-524,233	800,000	0,044	0,106
-523,218	800,000	0,027	0,064
-522,204	27,322	0,042	-0,026
-521,189	279,172	-0,103	0,135
-520,175	222,060	0,031	-0,036
-519,160	182,909	0,057	-0,062
-518,145	-200,000	-0,002	-0,035
-517,131	-15,107	0,048	0,023
-516,116	-200,000	0,029	0,097
-515,102	-22,199	-0,059	-0,026
-514,087	800,000	-0,004	0,010
-513,072	487,558	0,030	0,050
-512,058	21,806	0,048	0,028
-511,043	-21,141	-0,057	0,025
-510,029	-133,089	0,265	0,024
-509,014	230,649	-0,028	0,034
-507,999	14,124	-0,086	-0,049
-506,985	395,128	0,017	0,026
-505,970	283,042	0,078	-0,104
-504,956	-200,000	-0,010	-0,099
-503,941	29,825	-0,031	0,019
-502,926	100,341	0,031	0,026
-501,912	-34,221	0,083	0,034
-500,897	800,000	0,030	0,074
-499,883	204,286	0,095	-0,108
-498,868	14,639	0,100	0,057
-497,853	-200,000	0,019	0,062
-496,839	96,975	0,093	0,078
-495,824	77,715	-0,016	-0,012
-494,810	-30,862	-0,146	0,060
-493,795	-200,000	0,041	0,145
-492,781	101,042	0,022	0,019
-491,766	15,250	-0,093	-0,053
-490,751	-55,978	0,075	-0,024
-489,737	420,460	-0,079	-0,124
-488,722	-50,791	0,092	0,031
-487,708	-200,000	-0,020	0,093
-486,693	-62,086	-0,053	-0,016
-485,678	-59,220	0,024	0,007
-484,664	-200,000	-0,007	-0,052
-483,649	-14,966	0,094	-0,044
-482,635	56,303	0,061	0,043
-481,620	800,000	-0,042	-0,118
-480,605	-200,000	0,011	0,043
-479,591	-4,133	0,108	0,055
-478,576	800,000	-0,016	0,042
-477,562	252,351	-0,072	0,091
-476,547	-200,000	-0,005	-0,050
-475,532	70,949	-0,056	-0,043
-474,518	-200,000	0,019	0,095
-473,503	-200,000	-0,018	0,085
-472,489	-45,999	0,131	0,047
-471,474	45,013	-0,040	-0,027
-470,459	26,229	-0,082	-0,050
-469,445	-200,000	0,030	-0,116
-468,430	107,642	-0,076	0,067
-467,416	800,000	0,026	0,061
-466,401	-200,000	-0,004	0,025
-465,386	-200,000	-0,000	-0,078
-464,372	14,727	-0,158	-0,090
-463,357	-200,000	-0,010	-0,091
-462,343	800,000	0,021	-0,059
-461,328	-200,000	-0,000	-0,113
-460,313	-9,620	0,088	-0,043
-459,299	-88,908	0,073	-0,016
-458,284	-200,000	0,007	0,064
-457,270	-153,586	0,129	-0,006
-456,255	229,398	-0,027	-0,032
-455,241	226,320	-0,020	0,024
-454,226	-200,000	-0,019	-0,120
-453,211	-200,000	-0,005	0,039
-452,197	-40,992	-0,085	-0,032
-451,182	87,170	0,025	0,020
-450,168	-200,000	-0,000	0,072
-449,153	137,743	0,007	0,006
-448,138	9,807	0,095	-0,053
-447,124	-200,000	0,010	0,114
-446,109	424,713	-0,116	0,183
-445,095	211,891	0,114	0,132
-444,080	-26,095	-0,100	0,043
-443,065	104,687	0,045	-0,039
-442,051	800,000	-0,045	-0,100
-441,036	-200,000	0,011	0,063
-440,022	800,000	-0,033	-0,092
-439,007	-118,618	0,119	0,015
-437,992	-200,000	0,015	0,098
-436,978	-136,926	0,167	0,014
-435,963	2,950	-0,023	0,012
-434,949	49,427	-0,064	-0,044
-433,934	-43,221	-0,067	-0,025
-432,919	-9,578	-0,038	-0,018
-431,905	-3,560	-0,083	-0,042
-430,890	-145,853	-0,033	0,002
-429,876	204,209	0,024	0,027
-428,861	-135,420	0,076	-0,007
-427,846	-14,668	-0,083	0,039
-426,832	40,441	-0,057	-0,038
-425,817	172,293	-0,043	0,045
-424,803	-200,000	0,028	0,197
-423,788	-13,289	-0,078	-0,037
-422,773	323,127	0,079	0,110
-421,759	800,000	-0,036	0,093
-420,744	-153,688	0,110	0,005
-419,730	-200,000	-0,033	-0,156
-418,715	-50,362	-0,084	0,029
-417,701	800,000	0,044	0,123
-416,686	-200,000	0,001	-0,020
-415,671	-200,000	-0,020	0,125
-414,657	-101,644	-0,083	0,015
-413,642	-81,889	-0,017	-0,004
-412,628	-133,505	0,104	0,009
-411,613	-55,535	-0,081	0,027
-410,598	-65,774	-0,260	-0,076
-409,584	-48,716	0,130	0,045
-408,569	-200,000	-0,034	0,122
-407,555	-200,000	0,027	0,101
-406,540	555,159	0,063	0,111
-405,525	28,449	-0,079	-0,049
-404,511	32,237	-0,131	0,082
-403,496	-200,000	0,000	-0,051
-402,482	343,879	-0,058	-0,083
-401,467	6,661	0,050	0,027
-400,452	-72,080	-0,067	0,018
-399,438	13,567	-0,076	0,043
-398,423	-55,855	-0,042	0,014
-397,409	643,784	0,071	0,133
-396,394	-200,000	-0,004	-0,063
-395,379	-200,000	-0,001	-0,053
-394,365	800,000	0,008	-0,019
-393,350	-200,000	-0,008	0,069
-392,336	165,517	-0,068	-0,070
-391,321	14,019	-0,042	0,024
-390,306	114,038	-0,092	-0,082
-389,292	-200,000	0,008	-0,124
-388,277	-173,698	-0,108	0,002
-387,263	-134,511	-0,085	-0,008
-386,248	-74,319	0,092	-0,024
-385,233	81,863	0,034	0,027
-384,219	800,000	0,061	-0,144
-383,204	800,000	0,040	-0,118
-382,190	-200,000	0,027	-0,255
-381,175	-200,000	-0,013	0,047
-380,160	98,794	-0,114	-0,096
-379,146	-200,000	0,006	-0,067
-378,131	-200,000	-0,003	-0,094
-377,117	-200,000	0,023	0,106
-376,102	-200,000	-0,008	0,061
-375,088	291,391	0,075	0,101
-374,073	-5,690	-0,033	0,016
-373,058	800,000	0,046	0,094
-372,044	405,655	0,127	0,197
-371,029	-15,116	-0,075	0,035
-370,015	496,151	0,061	0,103
-369,000	202,790	0,125	0,142
-367,985	-47,872	0,084	-0,030
-366,971	75,165	-0,106	0,082
-365,956	91,380	0,141	0,116
-364,942	446,800	-0,099	0,160
-363,927	-200,000	-0,002	-0,019
-362,912	0,381	0,065	0,034
-361,898	-52,743	-0,061	0,020
-360,883	-200,000	-0,027	-0,121
-359,869	-56,864	-0,188	-0,060
-358,854	-169,270	0,088	-0,002
-357,839	800,000	-0,083	-0,234
-356,825	-36,937	0,074	-0,029
-355,810	-200,000	0,002	0,049
-354,796	122,890	0,103	-0,094
-353,781	-200,000	0,003	-0,072
-352,766	-82,355	-0,031	0,007
-351,752	-12,730	0,085	0,040
-350,737	-86,082	0,044	-0,010
-349,723	714,517	0,026	0,051
-348,708	-24,497	0,043	-0,019
-347,693	-200,000	-0,010	-0,050
-346,679	-187,427	0,096	-0,001
-345,664	-121,290	-0,089	0,011
-344,650	-197,386	-0,061	0,000
-343,635	-141,510	0,073	0,005
-342,620	9,144	0,039	0,022
-341,606	-200,000	0,018	-0,078
-340,591	2,577	0,062	-0,033
-339,577	-86,579	0,134	-0,030
-338,562	179,996	-0,074	-0,079
-337,548	-200,000	0,014	-0,128
-336,533	672,089	0,076	0,144
-335,518	800,000	-0,067	0,196
-334,504	210,565	0,038	0,043
-333,489	28,086	0,065	0,040
-332,475	800,000	-0,012	0,028
-331,460	379,099	-0,073	-0,109
-330,445	52,745	0,043	0,030
-329,431	599,531	0,065	0,118
-328,416	800,000	-0,067	0,141
-327,402	800,000	0,027	0,064
-326,387	-193,641	0,027	0,000
-325,372	-200,000	0,001	-0,119
-324,358	-18,687	-0,056	-0,025
-323,343	-200,000	0,046	0,151
-322,329	-146,104	-0,049	-0,003
-321,314	-200,000	0,001	0,048
-320,299	-30,891	0,197	0,081
-319,285	-150,996	-0,055	-0,003
-318,270	-29,151	0,111	0,046
-317,256	-114,298	-0,120	0,017
-316,241	-127,008	-0,039	-0,004
-315,226	-156,001	0,060	0,003
-314,212	-158,479	0,056	-0,002
-313,197	-125,225	-0,089	-0,010
-312,183	-200,000	-0,002	-0,057
-311,168	-161,737	-0,140	0,005
-310,153	295,652	0,078	-0,105
-309,139	364,754	0,027	0,040
-308,124	-55,081	-0,074	0,024
-307,110	-34,611	0,062	-0,025
-306,095	-200,000	0,011	0,069
-305,080	451,900	0,037	0,060
-304,066	793,916	0,024	0,048
-303,051	800,000	-0,010	-0,027
-302,037	-146,512	-0,123	-0,008
-301,022	206,934	0,040	-0,045
-300,008	-42,458	0,099	-0,036
-298,993	-200,000	-0,007	0,070
-297,978	85,616	-0,107	-0,086
-296,964	104,709	0,040	-0,034
-295,949	800,000	-0,013	-0,039
-294,935	-20,614	0,087	-0,039
-293,920	800,000	-0,019	-0,052
-292,905	-200,000	-0,010	0,106
-291,891	99,851	-0,128	0,108
-290,876	215,142	-0,031	-0,036
-289,862	-200,000	0,003	-0,024
-288,847	-200,000	-0,014	-0,068
-287,832	57,412	-0,039	-0,028
-286,818	125,428	0,099	0,091
-285,803	800,000	0,035	-0,082
-284,789	184,332	0,014	0,015
-283,774	2,938	0,208	0,110
-282,759	-75,494	-0,074	0,019
-281,745	125,973	0,063	-0,058
-280,730	-55,343	-0,197	-0,064
-279,716	80,153	0,015	0,012
-278,701	636,284	0,023	0,043
-277,686	800,000	-0,043	-0,105
-276,672	-42,342	-0,056	-0,021
-275,657	-200,000	0,007	-0,043
-274,643	4,797	0,072	0,038
-273,628	-75,691	-0,114	0,029
-272,613	-200,000	-0,006	0,066
-271,599	118,549	-0,068	-0,061
-270,584	-200,000	0,008	0,102
-269,570	-200,000	-0,004	-0,065
-268,555	171,363	0,044	0,046
-267,540	-181,896	-0,148	0,002
-266,526	-200,000	-0,020	0,067
-265,511	19,524	0,024	-0,014
-264,497	-39,389	-0,035	0,013
-263,482	728,942	0,031	-0,061
-262,467	45,394	-0,028	-0,019
-261,453	-23,101	-0,009	0,004
-260,438	-22,527	-0,078	-0,034
-259,424	-200,000	-0,000	0,003
-258,409	8,147	-0,072	-0,039
-257,395	23,593	0,104	-0,062
-256,380	200,595	0,093	0,104
-255,365	-200,000	0,004	0,067
-254,351	-200,000	-0,030	0,121
-253,336	800,000	0,041	-0,121
-252,322	-200,000	-0,011	-0,064
-251,307	50,583	-0,095	0,065
-250,292	-54,043	-0,008	0,003
-249,278	800,000	0,048	0,130
-248,263	-96,087	0,056	0,011
-247,249	800,000	-0,024	0,057
-246,234	-200,000	0,002	0,069
-245,219	32,423	0,066	-0,041
-244,205	248,325	0,005	0,007
-243,190	-25,542	-0,076	-0,033
-242,176	311,308	-0,028	0,038
-241,161	-103,685	0,145	0,024
-240,146	-200,000	-0,040	0,151
-239,132	435,241	0,036	-0,057
-238,117	67,171	-0,007	-0,005
-237,103	800,000	-0,074	-0,198
-236,088	-73,203	-0,088	0,023
-235,073	374,261	0,041	0,061
-234,059	-125,895	-0,068	0,007
-233,044	477,845	0,016	-0,026
-232,030	800,000	0,007	0,021
-231,015	-188,567	-0,080	-0,001
-230,000	800,000	-0,046	-0,127
-228,986	800,000	-0,034	-0,085
-227,971	-200,000	-0,009	-0,044
-226,957	-7,257	0,070	0,034
-225,942	-12,872	-0,035	0,016
-224,927	800,000	0,026	-0,068
-223,913	-200,000	0,013	-0,106
-222,898	213,699	-0,095	-0,109
-221,884	-126,065	-0,167	0,018
-220,869	220,730	0,083	-0,097
-219,855	-64,755	0,098	-0,029
-218,840	300,631	0,107	-0,145
-217,825	-3,578	0,102	0,051
-216,811	185,991	0,041	0,044
-215,796	124,395	0,042	-0,038
-214,782	-200,000	-0,007	-0,076
-213,767	40,809	-0,097	0,064
-212,752	34,532	0,089	0,057
-211,738	-9,550	0,157	-0,076
-210,723	-200,000	-0,016	0,075
-209,709	-78,356	0,026	-0,007
-208,694	-117,211	0,025	-0,003
-207,679	99,357	0,149	-0,125
-206,665	5,100	0,137	0,073
-205,650	800,000	0,009	0,020
-204,636	574,361	-0,084	-0,150
-203,621	800,000	0,036	0,112
-202,606	-200,000	0,024	0,096
-201,592	282,146	0,020	-0,026
-200,577	-4,010	-0,066	-0,033
-199,563	-121,033	0,067	-0,008
-198,548	322,169	0,086	-0,119
-197,533	194,644	0,093	0,102
-196,519	40,173	0,054	-0,035
-195,504	595,489	-0,121	-0,218
-194,490	-119,043	-0,025	-0,003
-193,475	32,117	0,137	0,086
-192,460	-11,807	-0,036	-0,017
-191,446	-200,000	-0,033	-0,122
-190,431	-200,000	-0,003	0,139
-189,417	800,000	0,016	-0,034
-188,402	800,000	-0,040	0,114
-187,387	-200,000	-0,014	-0,081
-186,373	463,562	0,038	0,061
-185,358	800,000	0,029	-0,081
-184,344	-200,000	-0,011	-0,055
-183,329	-200,000	0,005	0,081
-182,315	463,179	0,033	0,054
-181,300	80,947	-0,156	0,122
-180,285	-88,108	-0,016	0,004
-179,271	-41,944	-0,186	-0,069
-178,256	-200,000	0,005	0,027
-177,242	13,770	-0,050	0,028
-176,227	609,391	-0,054	0,098
-175,212	-200,000	0,004	-0,092
-174,198	120,782	0,007	-0,006
-173,183	-81,001	0,095	-0,023
-172,169	800,000	-0,020	-0,043
-171,154	-34,114	-0,172	-0,068
-170,139	-200,000	-0,036	-0,117
-169,125	-200,000	0,002	-0,027
-168,110	167,387	0,107	0,110
-167,096	248,673	0,145	-0,178
-166,081	-94,941	-0,116	-0,023
-165,066	92,337	-0,072	-0,059
-164,052	-200,000	0,008	-0,079
-163,037	800,000	0,027	0,073
-162,023	11,529	-0,117	-0,065
-161,008	-193,978	0,137	0,001
-159,993	-200,000	-0,007	-0,063
-158,979	184,776	-0,019	0,020
-157,964	91,969	0,049	-0,040
-156,950	-106,176	-0,053	0,009
-155,935	293,540	-0,027	0,036
-154,920	33,987	0,117	0,074
-153,906	-200,000	0,010	0,125
-152,891	-200,000	-0,024	-0,088
-151,877	95,673	-0,026	0,021
-150,862	-200,000	-0,016	0,131
-149,847	-200,000	-0,008	0,048
-148,833	483,000	-0,053	0,088
-147,818	800,000	-0,009	0,024
-146,804	-7,810	0,126	-0,062
-145,789	-200,000	-0,008	0,041
-144,775	-128,582	-0,212	-0,021
-143,760	-200,000	0,007	0,030
-142,745	89,936	0,018	-0,014
-141,731	41,347	0,115	0,075
-140,716	-59,519	0,125	0,039
-139,702	-24,831	0,099	-0,043
-138,687	800,000	0,051	-0,129
-137,672	-43,951	-0,110	0,040
-136,658	197,471	-0,020	-0,023
-135,643	190,662	-0,120	-0,131
-134,629	479,461	-0,026	0,043
-133,614	203,938	0,022	0,025
-132,599	800,000	0,006	-0,020
-131,585	409,947	0,059	0,091
-130,570	-200,000	-0,003	-0,020
-129,556	800,000	-0,048	0,127
-128,541	67,541	0,072	0,053
-127,526	-200,000	0,002	0,113
-126,512	-29,587	0,040	-0,017
-125,497	-79,479	0,104	0,025
-124,483	723,107	-0,033	0,063
-123,468	-200,000	-0,031	-0,128
-122,453	-121,829	0,104	0,012
-121,439	574,858	-0,045	0,081
-120,424	-131,441	0,108	-0,010
-119,410	-200,000	-0,024	-0,113
-118,395	800,000	0,045	-0,098
-117,380	245,654	0,053	0,064
-116,366	-200,000	-0,007	0,124
-115,351	-200,000	0,000	-0,023
-114,337	-42,796	-0,069	0,025
-113,322	-200,000	0,016	0,153
-112,307	109,898	-0,052	-0,045
-111,293	800,000	0,015	0,045
-110,278	235,251	0,040	-0,048
-109,264	800,000	-0,050	-0,110
-108,249	53,519	-0,104	-0,072
-107,234	-42,131	-0,160	-0,059
-106,220	131,166	0,105	-0,097
-105,205	108,943	0,059	-0,051
-104,191	26,210	0,056	0,034
-103,176	800,000	-0,037	0,081
-102,162	191,115	-0,030	-0,033
-101,147	-54,498	0,110	-0,036
-100,132	11,630	-0,072	0,040
-99,118	111,867	-0,073	0,064
-98,103	-51,222	-0,091	0,031
-97,089	-47,676	0,053	0,019
-96,074	55,771	0,071	0,050
-95,059	322,364	-0,024	0,033
-94,045	-200,000	-0,011	0,105
-93,030	74,896	-0,066	-0,050
-92,016	-128,258	0,137	-0,014
-91,001	-21,772	-0,034	-0,015
-89,986	800,000	0,038	0,095
-88,972	45,122	0,149	0,099
-87,957	-87,150	0,113	0,025
-86,943	-200,000	-0,005	-0,061
-85,928	-200,000	0,011	-0,151
-84,913	-200,000	-0,016	0,061
-83,899	-86,900	0,070	-0,015
-82,884	-0,072	0,085	0,043
-81,870	286,139	0,038	0,049
-80,855	157,697	-0,146	0,146
-79,840	-160,085	0,021	-0,001
-78,826	800,000	-0,041	-0,084
-77,811	-69,631	0,078	0,021
-76,797	346,826	-0,050	-0,071
-75,782	-200,000	-0,007	-0,055
-74,767	-200,000	-0,160	-0,000
-73,753	-175,907	0,100	0,002
-72,738	35,425	-0,067	-0,042
-71,724	800,000	0,013	-0,037
-70,709	-200,000	-0,019	-0,075
-69,694	800,000	0,053	-0,107
-68,680	-200,000	0,008	0,057
-67,665	-200,000	-0,013	-0,092
-66,651	-200,000	0,000	0,033
-65,636	800,000	0,048	0,147
-64,622	-200,000	0,010	-0,067
-63,607	42,902	0,161	0,106
-62,592	-14,443	-0,027	-0,013
-61,578	-62,138	-0,105	-0,031
-60,563	-200,000	0,026	-0,088
-59,549	-200,000	0,011	0,080
-58,534	-60,849	-1,616	-0,491
-57,519	607,361	-0,629	-1,139
-56,505	-200,000	-1,123	-4,763
-55,490	-16,096	0,557	-0,255
-54,476	800,000	5,178	12,155
-53,461	-200,000	15,289	262,835
-52,446	800,000	699,972	2199,942
-51,432	547,413	1621,388	2813,832
-50,417	119,304	1628,407	1455,289
-49,403	79,081	1284,175	992,456
-48,388	37,273	1024,197	653,968
-47,373	22,272	985,012	579,609
-46,359	21,326	974,014	570,013
-45,344	19,949	969,735	562,984
-44,330	19,978	968,462	562,319
-43,315	19,761	966,910	560,685
-42,300	19,788	965,801	560,110
-41,286	19,774	964,825	559,475
-40,271	19,781	963,735	558,843
-39,257	19,814	962,965	558,483
-38,242	19,761	962,152	557,815
-37,227	19,776	961,397	557,404
-36,213	19,759	960,370	556,733
-35,198	19,650	959,630	555,930
-34,184	19,762	958,780	555,777
-33,169	19,668	957,779	554,870
-32,154	19,761	957,051	554,727
-31,140	19,712	956,293	554,106
-30,125	19,766	955,374	553,728
-29,111	19,764	954,567	553,231
-28,096	19,805	953,732	552,858
-27,082	19,722	953,295	552,314
-26,067	19,718	952,408	551,767
-25,052	19,739	951,519	551,298
-24,038	19,783	950,924	551,072
-23,023	19,758	950,194	550,547
-22,009	19,742	949,649	550,158
-20,994	19,800	948,945	549,914
-19,979	19,727	948,536	549,422
-18,965	19,714	947,995	549,044
-17,950	19,721	947,404	548,703
-16,936	19,639	946,675	547,996
-15,921	19,726	945,763	547,725
-14,906	19,620	945,183	547,028
-13,892	19,616	944,515	546,608
-12,877	19,631	943,964	546,315
-11,863	19,504	943,362	545,540
-10,848	19,563	942,805	545,384
-9,833	19,735	942,254	545,590
-8,819	19,680	941,914	545,197
-7,804	19,681	940,998	544,649
-6,790	19,623	940,455	544,130
-5,775	19,622	939,900	543,784
-4,760	19,675	939,117	543,477
-3,746	19,586	938,699	542,932
-2,731	19,466	937,984	542,118
-1,717	19,465	937,058	541,558
-0,702	19,420	936,469	541,054
0,313	19,228	936,116	541,060
1,327	22,379	934,005	549,710
2,342	31,675	794,019	491,981
3,356	29,236	449,728	274,974
4,371	-0,199	294,798	150,838
5,386	-4,428	276,166	137,283
6,400	-5,640	270,562	133,358
7,415	-5,920	268,273	131,961
8,429	-6,078	266,875	131,116
9,444	-5,931	265,910	130,764
10,459	-6,088	265,314	130,317
11,473	-6,199	264,792	129,948
12,488	-6,399	264,232	129,479
13,502	-6,444	263,599	129,117
14,517	-6,616	263,282	128,795
15,531	-6,915	262,871	128,312
16,546	-6,717	262,431	128,264
17,561	-6,720	262,063	128,070
18,575	-6,766	261,703	127,842
19,590	-6,880	261,230	127,496
20,604	-6,738	261,113	127,556
21,619	-6,832	260,674	127,246
22,634	-6,902	260,344	127,011
23,648	-6,828	260,016	126,905
24,663	-6,811	259,734	126,771
25,677	-6,782	259,531	126,687
26,692	-6,919	259,379	126,480
27,707	-6,765	258,949	126,395
28,721	-6,981	258,713	126,077
29,736	-6,894	258,498	126,039
30,750	-7,021	258,190	125,765
31,765	-6,935	257,883	125,680
32,780	-6,945	257,754	125,597
33,794	-7,164	257,565	125,300
34,809	-7,073	257,271	125,226
35,823	-7,028	256,947	125,097
36,838	-7,001	256,725	125,001
37,853	-6,999	256,459	124,862
38,867	-6,942	256,330	124,838
39,882	-6,964	256,100	124,696
40,896	-7,170	255,839	124,377
41,911	-7,143	255,689	124,317
42,926	-7,018	255,383	124,267
43,940	-7,130	255,099	124,020
44,955	-7,194	254,957	123,883
45,969	-7,134	254,689	123,794
46,984	-7,308	254,449	123,515
47,999	-7,705	254,127	123,002
49,013	-7,712	253,881	122,866
50,028	-7,646	253,539	122,747
51,042	-8,011	253,619	122,457
52,057	-7,889	253,390	122,442
53,071	-7,807	252,935	122,281
54,086	-7,645	252,755	122,324
55,101	-7,675	252,635	122,229
56,115	-7,306	252,395	122,421
57,130	-6,938	252,464	122,762
58,144	-6,738	252,450	122,917
59,159	-6,705	252,096	122,762
60,174	-6,706	251,936	122,672
61,188	-6,550	251,575	122,621
62,203	-6,753	251,410	122,354
63,217	-6,866	251,229	122,158
64,232	-6,745	251,057	122,167
65,247	-6,847	250,957	122,020
66,261	-6,654	250,547	121,976
67,276	-7,068	250,232	121,457
68,290	-7,374	250,120	121,129
69,305	-7,365	249,787	120,965
70,320	-7,248	249,605	120,967
71,334	-6,935	249,518	121,181
72,349	-6,808	249,423	121,233
73,363	-6,588	249,203	121,302
74,378	-6,681	249,078	121,151
75,393	-6,753	248,761	120,924
76,407	-6,734	248,480	120,793
77,422	-6,879	248,206	120,527
78,436	-6,753	248,235	120,637
79,451	-6,746	247,925	120,481
80,466	-7,100	247,637	120,031
81,480	-7,140	247,318	119,832
82,495	-7,030	247,260	119,886
83,509	-7,260	247,146	119,626
84,524	-7,352	246,941	119,439
85,539	-7,259	246,577	119,330
86,553	-7,243	246,410	119,252
87,568	-7,089	246,268	119,302
88,582	-7,216	246,199	119,151
89,597	-7,167	245,892	119,033
90,611	-7,138	245,808	119,006
91,626	-6,894	245,680	119,139
92,641	-6,953	245,509	118,995
93,655	-6,945	245,252	118,866
94,670	-7,153	245,143	118,630
95,684	-7,053	244,754	118,514
96,699	-7,100	244,699	118,437
97,714	-7,210	244,529	118,253
98,728	-7,436	244,288	117,937
99,743	-7,419	244,114	117,857
100,757	-7,387	243,826	117,734
101,772	-6,998	243,588	117,932
102,787	-7,184	243,461	117,705
103,801	-7,161	243,335	117,654
104,816	-6,969	243,319	117,795
105,830	-7,064	243,165	117,631
106,845	-7,020	242,999	117,576
107,860	-6,851	242,770	117,595
108,874	-6,988	242,508	117,344
109,889	-7,194	242,522	117,170
110,903	-7,071	242,310	117,159
111,918	-7,019	241,848	116,968
112,933	-6,897	241,747	117,009
113,947	-6,882	241,679	116,978
114,962	-6,837	241,524	116,929
115,976	-6,966	241,357	116,733
116,991	-6,945	241,099	116,614
118,006	-6,910	240,950	116,561
119,020	-6,828	240,844	116,566
120,035	-6,779	240,825	116,586
121,049	-6,718	240,575	116,505
122,064	-6,859	240,290	116,242
123,079	-6,998	240,227	116,087
124,093	-6,903	239,883	115,988
125,108	-7,339	239,661	115,515
126,122	-7,495	239,387	115,245
127,137	-7,422	239,291	115,248
128,151	-7,365	239,208	115,244
129,166	-7,151	238,987	115,301
130,181	-7,374	238,812	115,025
131,195	-7,231	238,647	115,052
132,210	-6,861	238,315	115,181
133,224	-7,038	238,301	115,021
134,239	-6,696	238,069	115,176
135,254	-6,676	238,088	115,191
136,268	-6,904	237,737	114,827
137,283	-7,368	237,466	114,310
138,297	-7,503	237,209	114,068
139,312	-7,382	237,131	114,118
140,327	-6,976	237,097	114,419
141,341	-6,755	237,190	114,631
142,356	-6,284	236,937	114,878
143,370	-6,509	236,707	114,575
144,385	-6,318	236,581	114,658
145,400	-6,493	236,426	114,432
146,414	-6,499	236,183	114,300
147,429	-6,633	236,045	114,114
148,443	-6,760	235,925	113,945
149,458	-6,511	235,747	114,048
150,473	-6,408	235,543	114,021
151,487	-6,602	235,288	113,733
152,502	-6,778	235,338	113,607
153,516	-6,446	235,069	113,732
154,531	-6,514	234,899	113,585
155,546	-6,565	234,683	113,430
156,560	-6,750	234,483	113,176
157,575	-6,683	234,412	113,185
158,589	-6,769	234,119	112,965
159,604	-6,637	234,043	113,022
160,619	-6,427	233,858	113,090
161,633	-6,370	233,670	113,034
162,648	-6,440	233,555	112,913
163,662	-6,630	233,432	112,693
164,677	-6,537	233,294	112,690
165,692	-6,540	233,219	112,641
166,706	-6,367	233,080	112,701
167,721	-6,307	232,939	112,671
168,735	-6,204	232,786	112,667
169,750	-6,395	232,526	112,380
170,764	-6,442	232,382	112,264
171,779	-6,328	232,231	112,271
172,794	-6,253	232,040	112,227
173,808	-6,515	231,909	111,948
174,823	-6,914	231,483	111,420
175,837	-7,182	231,345	111,133
176,852	-6,884	231,344	111,356
177,867	-6,291	231,388	111,833
178,881	-6,630	231,245	111,487
179,896	-6,407	231,021	111,545
180,910	-6,186	230,742	111,572
181,925	-6,380	230,790	111,434
182,940	-6,415	230,598	111,304
183,954	-6,217	230,342	111,325
184,969	-6,286	230,266	111,225
185,983	-6,447	230,228	111,071
186,998	-6,191	229,817	111,062
188,013	-6,023	229,888	111,217
189,027	-6,145	229,621	110,983
190,042	-6,237	229,432	110,811
191,056	-6,085	229,247	110,829
192,071	-6,045	229,107	110,783
193,086	-6,189	229,115	110,665
194,100	-5,838	228,979	110,861
195,115	-5,956	228,727	110,638
196,129	-5,935	228,648	110,606
197,144	-2,357	229,802	113,933
198,159	1,547	230,920	117,515
199,173	3,592	231,342	119,311
200,188	3,597	231,309	119,287
201,202	3,796	230,998	119,271
202,217	3,924	231,067	119,395
203,232	4,319	230,922	119,616
204,246	4,277	230,764	119,491
205,261	4,072	230,664	119,269
206,275	4,391	230,744	119,547
207,290	4,332	230,418	119,322
208,304	4,523	230,237	119,366
209,319	4,620	230,041	119,328
210,334	4,220	229,951	118,962
211,348	4,089	229,664	118,701
212,363	3,757	229,349	118,273
213,377	3,427	229,274	117,970
214,392	3,585	229,094	117,988
215,407	3,635	229,047	117,992
216,421	3,859	228,750	118,001
217,436	3,725	228,527	117,772
218,450	3,410	228,394	117,452
219,465	3,369	228,185	117,302
220,480	3,596	228,013	117,377
221,494	3,401	227,979	117,200
222,509	3,527	227,965	117,278
223,523	3,666	227,675	117,225
224,538	3,388	227,605	116,966
225,553	3,570	227,387	116,983
226,567	3,774	227,290	117,077
227,582	3,909	227,368	117,210
228,596	3,899	227,127	117,069
229,611	3,824	226,797	116,831
230,626	3,358	226,615	116,373
231,640	3,538	226,549	116,465
232,655	3,727	226,484	116,565
233,669	4,284	226,473	116,971
234,684	4,203	226,342	116,832
235,699	4,032	225,998	116,514
236,713	3,729	225,871	116,209
237,728	3,584	225,685	115,993
238,742	3,516	225,483	115,828
239,757	3,610	225,287	115,787
240,772	3,448	225,250	115,636
241,786	3,412	225,021	115,481
242,801	3,666	225,061	115,683
243,815	3,895	224,954	115,790
244,830	4,062	224,809	115,831
245,844	3,833	224,500	115,489
246,859	3,531	224,389	115,195
247,874	3,823	224,299	115,357
248,888	3,875	224,139	115,304
249,903	3,685	224,155	115,159
250,917	3,645	223,853	114,964
251,932	3,304	223,692	114,616
252,947	3,465	223,384	114,568
253,961	3,380	223,246	114,424
254,976	3,671	223,135	114,574
255,990	3,942	222,982	114,687
257,005	3,744	222,936	114,506
258,020	3,697	222,943	114,464
259,034	4,096	222,703	114,628
260,049	4,047	222,625	114,541
261,063	3,837	222,422	114,270
262,078	4,135	222,139	114,336
263,093	3,974	222,152	114,213
264,107	3,868	222,010	114,051
265,122	3,697	221,889	113,851
266,136	3,986	221,855	114,038
267,151	3,868	221,742	113,882
268,166	3,762	221,233	113,533
269,180	3,635	220,988	113,303
270,195	3,589	220,958	113,244
271,209	3,451	220,867	113,084
272,224	3,531	220,721	113,060
273,239	3,764	220,668	113,194
274,253	3,398	220,554	112,856
275,268	3,310	220,327	112,665
276,282	3,211	220,071	112,451
277,297	3,386	220,000	112,533
278,312	3,342	219,886	112,432
279,326	3,608	219,800	112,573
280,341	3,639	219,664	112,517
281,355	3,529	219,535	112,360
282,370	3,557	219,459	112,332
283,384	3,381	219,000	111,958
284,399	3,058	218,977	111,700
285,414	3,492	218,708	111,870
286,428	3,691	218,858	112,082
287,443	3,569	218,710	111,907
288,457	3,778	218,516	111,950
289,472	3,676	218,256	111,733
290,487	3,201	217,997	111,245
291,501	2,888	217,955	110,986
292,516	2,929	217,911	110,983
293,530	3,220	217,660	111,057
294,545	3,333	217,516	111,056
295,560	3,391	217,548	111,104
296,574	3,358	217,408	110,998
297,589	3,592	217,118	111,010
298,603	3,676	217,154	111,079
299,618	3,771	217,089	111,105
300,633	3,663	216,868	110,904
301,647	4,042	216,631	111,046
302,662	3,970	216,631	110,985
303,676	3,636	216,587	110,711
304,691	3,871	216,365	110,757
305,706	3,775	216,274	110,631
306,720	3,807	216,014	110,511
307,735	3,663	215,707	110,241
308,749	3,726	215,692	110,269
309,764	4,060	215,706	110,506
310,779	3,981	215,518	110,343
311,793	3,464	215,538	109,972
312,808	3,727	215,293	110,026
313,822	3,946	215,070	110,059
314,837	3,419	214,908	109,590
315,852	3,401	214,668	109,444
316,866	3,604	214,635	109,563
317,881	3,732	214,636	109,645
318,895	3,736	214,287	109,460
319,910	3,554	214,247	109,300
320,925	2,942	214,108	108,783
321,939	3,012	213,836	108,685
322,954	3,019	213,704	108,613
323,968	3,527	213,737	108,982
324,983	3,545	213,592	108,911
325,997	3,938	213,356	109,060
327,012	3,821	213,288	108,932
328,027	3,632	213,216	108,752
329,041	4,136	213,011	108,994
330,056	4,157	212,995	108,991
331,070	3,766	212,778	108,594
332,085	3,749	212,396	108,378
333,100	3,701	212,443	108,358
334,114	3,425	212,378	108,120
335,129	3,740	212,285	108,286
336,143	3,716	211,924	108,075
337,158	3,459	211,905	107,875
338,173	3,671	211,708	107,914
339,187	3,366	211,564	107,617
340,202	3,272	211,331	107,422
341,216	3,282	211,143	107,324
342,231	3,224	211,277	107,342
343,246	3,269	210,934	107,190
344,260	3,397	210,891	107,248
345,275	3,484	210,841	107,273
346,289	3,599	210,858	107,353
347,304	3,579	210,669	107,233
348,319	3,545	210,600	107,165
349,333	3,524	210,356	107,017
350,348	3,769	210,301	107,150
351,362	3,912	210,193	107,185
352,377	3,728	210,010	106,954
353,392	3,652	209,817	106,793
354,406	3,772	209,655	106,785
355,421	195,763	1341,546	1429,263
356,435	156,326	1479,515	1429,331
