DTS Sentinel unit serial number:	SN410029Multiplexer serial number:	ORYXHardware model number:	OX2-SRSoftware version number:	ORYX F/W v4,00 Oryx Data Collector v3.7.2.0data status	okinstallation	B6 Nyhavnadifferential loss correction	single-endedforward channel	channel 2reverse channel	N/Adate	2023/12/10time	03:05:08forward acquisition time	300,00reverse acquisition time	0,00gamma	499,1914k internal	0,3126k external	0,3126temperature offset calibration	1,0000default loss term (dB/km)	0,3820temperature slope calibration	1,0000multiplexer offset coefficient	1,0000multiplexer slope coefficient	1,0000fibre end	0,00T internal ref (°C)	22,00T ext. ref 1 (°C)	5,82T ext. ref 2 (°C)	5,80length (m)	temperature (°C)	Stokes	anti-Stokes-744,400	-168,413	-0,051	-0,001
-743,385	100,247	-0,163	0,140
-742,371	-200,000	-0,029	-0,140
-741,356	-127,189	-0,212	0,023
-740,342	-200,000	0,023	-0,126
-739,327	163,796	-0,152	0,159
-738,312	-200,000	0,008	-0,102
-737,298	-42,742	-0,144	0,054
-736,283	800,000	-0,022	0,055
-735,269	55,653	-0,212	0,152
-734,254	92,025	0,070	0,058
-733,239	-34,492	-0,456	-0,185
-732,225	569,170	0,047	0,086
-731,210	800,000	0,029	-0,062
-730,196	-200,000	-0,027	-0,098
-729,181	74,602	-0,053	0,042
-728,167	-89,416	0,164	-0,036
-727,152	28,478	-0,067	-0,042
-726,137	114,832	-0,084	-0,077
-725,123	-100,947	-0,077	0,014
-724,108	548,755	-0,094	-0,168
-723,094	800,000	0,062	-0,129
-722,079	-141,795	-0,111	0,008
-721,064	42,685	0,061	0,041
-720,050	-89,303	0,106	0,023
-719,035	295,267	-0,052	0,071
-718,021	-61,878	-0,041	-0,013
-717,006	312,928	-0,119	-0,167
-715,991	241,178	-0,098	-0,122
-714,977	342,952	0,075	0,110
-713,962	-127,375	-0,173	-0,018
-712,948	-4,044	-0,128	-0,066
-711,933	154,576	0,059	0,060
-710,918	25,472	0,142	0,088
-709,904	-110,624	-0,029	-0,004
-708,889	-87,627	-0,163	-0,036
-707,875	-200,000	0,015	-0,073
-706,860	572,489	0,028	0,051
-705,845	283,157	-0,039	0,052
-704,831	676,871	-0,039	-0,076
-703,816	175,488	-0,049	0,053
-702,802	-200,000	0,006	-0,120
-701,787	800,000	-0,082	-0,217
-700,772	134,795	0,024	0,023
-699,758	-134,061	0,057	0,005
-698,743	-31,280	0,107	-0,045
-697,729	-200,000	-0,015	-0,072
-696,714	433,889	-0,046	-0,074
-695,699	574,739	-0,091	-0,167
-694,685	-200,000	-0,010	-0,060
-693,670	-112,447	0,023	0,003
-692,656	-200,000	0,015	-0,077
-691,641	-91,098	-0,043	0,009
-690,627	326,527	0,050	0,071
-689,612	-83,483	-0,079	0,019
-688,597	59,675	-0,079	-0,058
-687,583	584,639	-0,037	0,067
-686,568	54,157	-0,121	-0,087
-685,554	8,285	0,093	-0,052
-684,539	800,000	-0,022	-0,052
-683,524	-200,000	0,004	0,020
-682,510	800,000	0,031	0,094
-681,495	63,998	0,072	0,054
-680,481	5,265	-0,081	-0,044
-679,466	329,822	-0,081	-0,116
-678,451	-200,000	0,012	-0,116
-677,437	43,737	0,089	0,060
-676,422	304,165	-0,044	0,061
-675,408	-200,000	-0,020	0,105
-674,393	285,236	-0,044	-0,060
-673,378	-200,000	0,001	0,015
-672,364	39,230	-0,094	0,063
-671,349	131,897	0,047	-0,045
-670,335	674,612	-0,060	-0,116
-669,320	5,876	0,179	0,098
-668,305	7,088	0,049	0,027
-667,291	-74,306	-0,092	-0,025
-666,276	-200,000	-0,006	0,032
-665,262	-54,434	0,045	0,015
-664,247	481,646	-0,048	-0,082
-663,232	191,706	0,026	-0,029
-662,218	-200,000	0,009	-0,106
-661,203	-200,000	-0,005	0,059
-660,189	-15,162	-0,143	0,068
-659,174	-33,575	-0,057	0,023
-658,159	-200,000	-0,007	-0,172
-657,145	-24,107	0,012	0,005
-656,130	-200,000	0,003	-0,010
-655,116	337,306	-0,047	-0,067
-654,101	-98,912	0,163	0,030
-653,086	-200,000	0,003	0,176
-652,072	62,579	-0,023	-0,017
-651,057	-177,640	0,100	-0,002
-650,043	-39,462	0,038	-0,015
-649,028	121,488	-0,065	-0,060
-648,014	-200,000	-0,073	0,252
-646,999	-200,000	0,006	0,092
-645,984	79,750	0,068	0,054
-644,970	217,885	-0,038	-0,045
-643,955	166,312	-0,099	-0,104
-642,941	-39,392	-0,114	0,044
-641,926	570,022	0,045	-0,081
-640,911	-52,031	-0,149	-0,051
-639,897	122,673	-0,052	-0,048
-638,882	92,587	0,088	0,074
-637,868	-200,000	0,000	-0,058
-636,853	-200,000	-0,014	-0,111
-635,838	239,380	-0,085	-0,105
-634,824	-200,000	-0,040	-0,145
-633,809	53,649	0,130	-0,092
-632,795	800,000	-0,064	-0,155
-631,780	-3,828	-0,128	-0,066
-630,765	-200,000	-0,010	-0,041
-629,751	334,397	0,017	0,024
-628,736	800,000	-0,061	-0,140
-627,722	-200,000	-0,014	-0,102
-626,707	-200,000	0,020	0,069
-625,692	-200,000	-0,007	-0,025
-624,678	189,258	0,051	0,057
-623,663	-113,071	0,057	-0,008
-622,649	21,926	-0,037	-0,022
-621,634	800,000	-0,030	-0,074
-620,619	-168,477	-0,069	0,002
-619,605	-127,178	0,031	-0,003
-618,590	-65,236	0,028	0,008
-617,576	32,183	0,033	-0,021
-616,561	-200,000	0,022	-0,079
-615,546	321,544	-0,066	-0,094
-614,532	800,000	0,025	-0,080
-613,517	304,418	-0,047	-0,065
-612,503	-99,791	-0,112	0,021
-611,488	-119,595	0,088	-0,011
-610,474	-200,000	-0,029	0,123
-609,459	116,819	-0,069	0,063
-608,444	800,000	-0,037	0,098
-607,430	-20,998	-0,072	0,033
-606,415	-200,000	0,042	-0,142
-605,401	-200,000	0,019	0,108
-604,386	226,359	-0,037	0,045
-603,371	6,209	0,113	0,062
-602,357	-157,334	0,122	0,005
-601,342	-200,000	0,006	0,051
-600,328	-73,675	0,055	-0,015
-599,313	-200,000	-0,052	-0,178
-598,298	-200,000	-0,005	0,022
-597,284	-164,519	0,097	0,003
-596,269	800,000	-0,005	0,017
-595,255	134,584	0,014	-0,013
-594,240	-200,000	-0,024	-0,142
-593,225	-195,334	0,047	-0,000
-592,211	72,037	0,054	-0,042
-591,196	104,732	-0,033	-0,029
-590,182	18,493	0,072	-0,043
-589,167	-200,000	0,014	0,101
-588,152	-158,197	-0,095	-0,004
-587,138	19,952	0,107	0,064
-586,123	-200,000	0,017	-0,212
-585,109	-184,023	-0,146	-0,002
-584,094	-5,424	-0,048	0,024
-583,079	-9,785	0,072	0,035
-582,065	-200,000	-0,007	0,030
-581,050	-119,132	0,033	0,004
-580,036	-28,343	0,027	0,011
-579,021	-200,000	-0,037	-0,165
-578,006	-200,000	0,007	0,078
-576,992	-137,768	-0,093	0,008
-575,977	161,548	0,057	0,059
-574,963	213,164	0,033	0,039
-573,948	-200,000	0,001	-0,042
-572,934	59,280	-0,012	0,008
-571,919	-200,000	-0,034	-0,194
-570,904	31,008	-0,022	0,014
-569,890	117,957	-0,070	-0,064
-568,875	-172,293	-0,143	0,003
-567,861	800,000	-0,073	0,153
-566,846	53,159	0,053	-0,038
-565,831	-200,000	-0,004	-0,031
-564,817	-200,000	-0,005	0,051
-563,802	-14,581	-0,066	0,031
-562,788	-200,000	-0,033	-0,130
-561,773	393,463	0,060	0,092
-560,758	-200,000	-0,035	-0,139
-559,744	800,000	0,058	-0,128
-558,729	775,624	0,016	0,032
-557,715	80,520	-0,130	-0,104
-556,700	165,193	-0,075	-0,079
-555,685	292,102	-0,039	0,052
-554,671	-200,000	-0,006	-0,053
-553,656	137,134	0,115	-0,111
-552,642	6,920	-0,041	-0,022
-551,627	186,767	0,084	0,093
-550,612	87,417	0,040	-0,033
-549,598	108,364	-0,086	-0,076
-548,583	473,179	0,045	-0,075
-547,569	377,742	0,046	-0,069
-546,554	236,228	-0,084	0,102
-545,539	-95,828	0,051	-0,010
-544,525	-200,000	0,025	0,084
-543,510	259,687	-0,098	-0,125
-542,496	109,589	-0,105	0,093
-541,481	-170,369	-0,101	0,003
-540,466	10,965	-0,015	0,008
-539,452	800,000	0,011	0,034
-538,437	-100,159	0,107	-0,019
-537,423	800,000	0,031	0,098
-536,408	-16,829	0,077	-0,036
-535,393	800,000	-0,025	-0,069
-534,379	283,750	0,033	0,044
-533,364	78,187	-0,049	0,039
-532,350	378,407	0,042	0,064
-531,335	96,495	0,044	-0,037
-530,321	-200,000	0,000	-0,017
-529,306	243,824	-0,031	-0,038
-528,291	-52,264	-0,135	0,046
-527,277	426,606	-0,052	0,083
-526,262	800,000	0,019	0,042
-525,248	362,392	0,137	0,204
-524,233	-200,000	0,003	0,056
-523,218	-127,528	-0,171	-0,018
-522,204	800,000	-0,015	-0,048
-521,189	-200,000	-0,033	-0,132
-520,175	-165,476	-0,166	0,005
-519,160	800,000	0,015	-0,045
-518,145	233,458	0,034	0,041
-517,131	-177,837	0,102	-0,002
-516,116	352,147	0,051	-0,075
-515,102	800,000	0,014	-0,041
-514,087	-119,181	-0,085	-0,011
-513,072	84,542	-0,055	-0,044
-512,058	-186,025	-0,160	0,002
-511,043	768,777	0,014	-0,029
-510,029	-82,539	0,118	0,028
-509,014	-200,000	0,037	0,221
-507,999	21,624	-0,013	-0,008
-506,985	331,744	0,045	0,064
-505,970	-35,296	-0,136	0,054
-504,956	188,401	-0,067	-0,074
-503,941	-200,000	0,001	-0,068
-502,926	85,310	0,084	0,068
-501,912	-38,895	-0,043	0,016
-500,897	194,378	-0,075	-0,084
-499,883	-59,191	-0,138	-0,044
-498,868	-134,793	-0,088	0,008
-497,853	800,000	-0,025	-0,054
-496,839	800,000	0,094	-0,202
-495,824	-200,000	0,038	0,146
-494,810	-116,413	0,086	-0,012
-493,795	-200,000	0,046	-0,151
-492,781	-59,818	-0,043	0,014
-491,766	167,121	-0,035	-0,037
-490,751	85,800	-0,080	0,065
-489,737	-47,026	0,094	-0,034
-488,722	795,317	0,028	-0,057
-487,708	-200,000	-0,001	-0,133
-486,693	-200,000	0,000	-0,094
-485,678	93,525	-0,055	0,046
-484,664	120,271	-0,075	0,069
-483,649	800,000	-0,038	0,103
-482,635	124,965	-0,075	-0,070
-481,620	-200,000	0,017	-0,085
-480,605	-200,000	0,006	-0,044
-479,591	150,194	0,149	0,149
-478,576	800,000	-0,005	0,015
-477,562	167,361	0,039	0,041
-476,547	-200,000	0,025	-0,209
-475,532	-200,000	-0,019	-0,073
-474,518	34,010	0,077	0,050
-473,503	-113,270	-0,028	0,004
-472,489	-5,942	0,041	0,021
-471,474	-74,981	0,014	0,004
-470,459	612,949	-0,044	-0,082
-469,445	-126,984	-0,221	0,024
-468,430	-200,000	-0,007	-0,096
-467,416	-200,000	0,012	-0,143
-466,401	-200,000	0,014	-0,089
-465,386	224,913	0,037	0,045
-464,372	760,267	0,092	0,185
-463,357	800,000	0,006	-0,014
-462,343	112,575	-0,046	-0,041
-461,328	-200,000	0,022	-0,186
-460,313	-55,376	0,103	0,034
-459,299	-200,000	-0,010	-0,048
-458,284	800,000	-0,103	0,234
-457,270	123,853	-0,023	0,021
-456,255	-62,628	0,021	-0,006
-455,241	-110,152	-0,112	0,017
-454,226	50,590	-0,064	0,045
-453,211	-26,829	0,040	0,017
-452,197	164,309	0,101	0,105
-451,182	-34,917	-0,143	0,057
-450,168	800,000	-0,055	-0,135
-449,153	243,395	-0,062	0,076
-448,138	15,301	0,155	0,089
-447,124	-200,000	0,003	-0,024
-446,109	42,241	-0,032	-0,021
-445,095	-3,906	-0,141	0,072
-444,080	-200,000	-0,016	0,165
-443,065	25,378	0,123	-0,075
-442,051	-200,000	0,011	-0,095
-441,036	-38,267	0,107	0,042
-440,022	800,000	-0,025	0,056
-439,007	-200,000	-0,009	0,053
-437,992	800,000	0,022	0,070
-436,978	800,000	0,019	-0,043
-435,963	-200,000	0,002	0,033
-434,949	585,380	-0,086	-0,156
-433,934	800,000	0,034	-0,072
-432,919	-94,210	-0,115	-0,023
-431,905	-132,451	-0,038	-0,004
-430,890	-82,292	-0,157	0,037
-429,876	608,236	0,026	-0,048
-428,861	800,000	-0,026	-0,054
-427,846	-200,000	0,000	0,016
-426,832	-95,814	-0,100	-0,019
-425,817	400,879	-0,044	0,068
-424,803	-157,848	-0,041	-0,002
-423,788	-42,683	0,063	-0,024
-422,773	-51,637	0,129	-0,044
-421,759	800,000	-0,048	-0,098
-420,744	24,762	0,114	0,069
-419,730	7,088	0,031	0,017
-418,715	66,605	0,090	-0,067
-417,701	-200,000	-0,001	-0,062
-416,686	-39,031	-0,087	0,033
-415,671	-108,913	-0,066	-0,010
-414,657	-200,000	0,007	-0,053
-413,642	-121,371	-0,092	-0,011
-412,628	-162,507	0,049	-0,002
-411,613	114,300	-0,116	0,104
-410,598	-123,917	-0,044	0,005
-409,584	1,770	0,040	0,021
-408,569	-122,845	-0,040	-0,005
-407,555	133,403	-0,092	0,087
-406,540	311,405	0,085	0,117
-405,525	-200,000	-0,022	-0,072
-404,511	684,173	0,025	0,048
-403,496	-91,461	0,114	-0,024
-402,482	-49,029	-0,059	-0,021
-401,467	800,000	0,048	0,116
-400,452	384,338	0,071	0,108
-399,438	55,914	-0,038	0,027
-398,423	-200,000	-0,015	-0,080
-397,409	800,000	-0,040	-0,088
-396,394	-200,000	0,016	-0,213
-395,379	414,429	0,030	-0,048
-394,365	800,000	0,063	0,161
-393,350	-200,000	0,005	0,061
-392,336	-200,000	-0,025	-0,083
-391,321	800,000	-0,015	0,041
-390,306	496,611	-0,056	0,095
-389,292	-149,416	-0,083	-0,005
-388,277	-96,653	-0,058	0,011
-387,263	32,204	-0,068	0,043
-386,248	-69,651	0,115	-0,032
-385,233	800,000	0,018	0,043
-384,219	-200,000	0,031	0,142
-383,204	250,685	-0,062	0,078
-382,190	-200,000	0,003	-0,144
-381,175	-133,183	0,046	-0,004
-380,160	55,713	0,092	-0,065
-379,146	69,307	0,069	-0,052
-378,131	13,014	-0,058	-0,033
-377,117	533,719	0,083	0,145
-376,102	375,465	-0,053	-0,079
-375,088	152,329	-0,118	0,118
-374,073	-200,000	-0,019	0,089
-373,058	-200,000	-0,001	0,076
-372,044	-58,306	-0,126	-0,040
-371,029	-200,000	-0,014	-0,079
-370,015	382,904	0,088	0,134
-369,000	-200,000	0,036	-0,144
-367,985	-200,000	-0,004	-0,033
-366,971	55,922	-0,162	-0,115
-365,956	-80,479	0,055	0,013
-364,942	560,826	0,069	0,122
-363,927	-170,674	0,062	-0,002
-362,912	-36,741	-0,094	0,037
-361,898	-138,286	0,063	-0,005
-360,883	-200,000	0,025	-0,100
-359,869	-200,000	0,017	0,089
-358,854	320,113	0,037	0,051
-357,839	-200,000	-0,011	0,094
-356,825	6,823	0,131	-0,071
-355,810	110,767	-0,058	-0,051
-354,796	800,000	0,016	-0,044
-353,781	-200,000	0,008	-0,099
-352,766	53,713	-0,141	-0,099
-351,752	-75,381	0,159	-0,041
-350,737	-73,022	0,057	-0,015
-349,723	-200,000	0,020	0,101
-348,708	-192,089	0,147	-0,001
-347,693	181,388	0,106	-0,114
-346,679	-200,000	0,040	-0,144
-345,664	800,000	-0,037	-0,115
-344,650	800,000	0,031	0,083
-343,635	-200,000	0,050	0,171
-342,620	68,469	0,096	0,072
-341,606	-29,954	-0,060	-0,025
-340,591	285,229	0,019	0,025
-339,577	-200,000	0,001	0,058
-338,562	-200,000	-0,014	-0,075
-337,548	104,866	-0,077	0,067
-336,533	774,625	-0,017	0,034
-335,518	48,291	0,056	0,038
-334,504	-200,000	0,030	0,166
-333,489	-91,972	-0,062	0,013
-332,475	-42,655	-0,127	-0,047
-331,460	-18,337	-0,078	0,036
-330,445	-13,210	-0,069	-0,033
-329,431	172,388	-0,021	0,023
-328,416	76,603	0,129	0,100
-327,402	-200,000	0,014	0,053
-326,387	29,477	0,073	0,045
-325,372	340,497	-0,019	-0,028
-324,358	-151,341	0,100	0,005
-323,343	800,000	0,041	0,086
-322,329	311,622	0,064	0,088
-321,314	-117,701	0,045	0,006
-320,299	163,331	-0,053	0,055
-319,285	-41,616	-0,152	-0,057
-318,270	47,291	0,045	-0,031
-317,256	57,790	-0,031	-0,022
-316,241	-48,923	-0,115	-0,040
-315,226	330,815	-0,008	0,011
-314,212	-19,706	0,122	0,055
-313,197	133,639	0,090	0,086
-312,183	-64,370	0,080	0,024
-311,168	-88,185	0,146	-0,032
-310,153	73,274	0,011	-0,008
-309,139	800,000	0,046	-0,104
-308,124	373,661	-0,095	-0,142
-307,110	-23,857	0,063	-0,028
-306,095	-200,000	0,029	0,199
-305,080	-101,993	0,078	0,014
-304,066	473,216	0,014	-0,024
-303,051	77,549	0,014	0,011
-302,037	800,000	0,007	0,016
-301,022	-200,000	0,014	-0,089
-300,008	-200,000	-0,003	-0,063
-298,993	-128,232	0,089	-0,009
-297,978	-129,455	-0,056	-0,006
-296,964	-200,000	-0,013	0,085
-295,949	158,382	-0,038	-0,039
-294,935	-200,000	-0,011	-0,153
-293,920	-178,285	-0,082	0,001
-292,905	-200,000	0,029	-0,115
-291,891	-200,000	-0,000	-0,013
-290,876	555,818	0,023	0,041
-289,862	84,707	-0,014	-0,011
-288,847	-47,159	-0,145	-0,051
-287,832	-1,248	-0,168	-0,086
-286,818	361,291	-0,019	-0,029
-285,803	-126,888	0,047	0,005
-284,789	169,892	0,015	0,015
-283,774	595,954	0,080	0,145
-282,759	172,750	-0,029	-0,031
-281,745	171,062	-0,059	0,062
-280,730	193,436	0,048	0,054
-279,716	84,648	-0,092	0,074
-278,701	615,708	0,030	0,055
-277,686	-26,185	0,098	0,042
-276,672	95,217	0,086	0,072
-275,657	-155,606	-0,130	0,006
-274,643	-128,697	0,103	0,011
-273,628	506,279	-0,031	-0,053
-272,613	-34,201	-0,127	-0,051
-271,599	-84,019	0,065	-0,015
-270,584	-200,000	-0,013	0,072
-269,570	-200,000	-0,008	-0,029
-268,555	-120,783	-0,092	-0,011
-267,540	393,124	0,042	0,063
-266,526	-86,034	-0,063	0,014
-265,511	215,209	0,024	-0,028
-264,497	-200,000	0,011	0,075
-263,482	162,222	0,086	0,088
-262,467	32,823	0,084	0,053
-261,453	16,145	0,150	0,086
-260,438	-148,863	-0,056	-0,003
-259,424	-0,659	0,221	-0,114
-258,409	293,916	-0,016	-0,022
-257,395	481,454	0,031	0,051
-256,380	131,709	-0,138	0,129
-255,365	179,318	0,066	-0,070
-254,351	-66,318	0,121	-0,035
-253,336	383,047	-0,098	-0,148
-252,322	-64,183	-0,111	-0,033
-251,307	-23,375	0,061	0,027
-250,292	15,555	0,035	-0,020
-249,278	-17,643	0,106	0,049
-248,263	-73,832	-0,147	0,039
-247,249	131,305	0,035	-0,033
-246,234	130,121	-0,095	0,089
-245,219	800,000	0,042	-0,088
-244,205	133,995	-0,083	-0,079
-243,190	800,000	0,015	0,034
-242,176	-136,073	0,089	0,008
-241,161	20,111	0,120	0,071
-240,146	-49,777	-0,022	-0,008
-239,132	-200,000	0,008	0,080
-238,117	-29,486	-0,022	-0,009
-237,103	128,822	0,085	-0,079
-236,088	26,435	0,081	0,049
-235,073	737,302	-0,047	0,093
-234,059	-200,000	0,002	-0,132
-233,044	775,946	-0,043	-0,086
-232,030	-200,000	-0,003	0,083
-231,015	-150,206	-0,139	-0,008
-230,000	-59,637	0,117	-0,036
-228,986	339,085	-0,045	0,064
-227,971	-144,488	0,091	-0,006
-226,957	-90,468	0,041	-0,009
-225,942	28,359	0,055	0,034
-224,927	-139,361	-0,079	-0,006
-223,913	-113,275	0,062	0,009
-222,898	-121,454	-0,025	0,003
-221,884	-78,353	-0,157	0,039
-220,869	117,907	0,049	-0,044
-219,855	-148,824	0,100	0,006
-218,840	61,593	-0,029	0,021
-217,825	-200,000	-0,002	0,161
-216,811	28,522	0,061	-0,037
-215,796	-200,000	-0,003	0,033
-214,782	-87,999	0,026	-0,006
-213,767	207,523	0,117	-0,133
-212,752	77,817	0,074	0,057
-211,738	571,338	-0,068	0,122
-210,723	162,779	-0,070	0,072
-209,709	-200,000	0,008	-0,074
-208,694	800,000	-0,045	0,115
-207,679	142,843	0,036	-0,035
-206,665	284,757	0,065	0,085
-205,650	-30,478	0,212	-0,087
-204,636	215,704	0,011	0,013
-203,621	-200,000	0,014	0,161
-202,606	-61,135	-0,094	-0,029
-201,592	-96,967	0,144	0,027
-200,577	800,000	-0,021	0,054
-199,563	-109,259	0,199	0,031
-198,548	-100,066	0,099	0,018
-197,533	-90,474	-0,057	0,012
-196,519	484,381	-0,055	0,092
-195,504	184,554	-0,053	0,057
-194,490	-21,034	-0,122	0,054
-193,475	-200,000	0,002	0,018
-192,460	-200,000	0,000	0,040
-191,446	-200,000	-0,018	0,189
-190,431	-171,440	0,062	0,001
-189,417	-95,411	0,093	-0,018
-188,402	718,816	0,031	-0,060
-187,387	-200,000	0,008	-0,041
-186,373	137,088	0,069	-0,066
-185,358	185,780	-0,072	0,078
-184,344	208,631	-0,011	0,012
-183,329	14,320	0,028	0,016
-182,315	800,000	-0,070	0,150
-181,300	108,924	0,032	-0,028
-180,285	-65,220	-0,098	0,029
-179,271	530,885	0,017	0,030
-178,256	29,323	0,023	-0,014
-177,242	-200,000	-0,007	0,055
-176,227	105,622	-0,068	-0,058
-175,212	-15,397	0,042	0,019
-174,198	-24,804	0,061	0,026
-173,183	-200,000	-0,037	0,149
-172,169	258,283	0,039	-0,049
-171,154	63,616	-0,041	-0,030
-170,139	-200,000	0,001	0,032
-169,125	580,569	0,070	0,125
-168,110	-200,000	-0,002	0,026
-167,096	-18,058	0,087	0,040
-166,081	-200,000	-0,011	0,061
-165,066	160,363	-0,030	-0,031
-164,052	29,225	-0,111	-0,069
-163,037	187,616	0,045	0,049
-162,023	31,267	0,062	0,039
-161,008	11,631	-0,112	-0,062
-159,993	-200,000	0,001	-0,029
-158,979	-193,253	0,081	0,001
-157,964	-17,109	0,078	0,035
-156,950	-200,000	0,014	-0,083
-155,935	86,404	0,094	-0,075
-154,920	-200,000	-0,008	-0,069
-153,906	152,915	0,020	0,020
-152,891	800,000	0,044	-0,110
-151,877	-141,136	-0,052	-0,004
-150,862	220,326	-0,058	0,068
-149,847	627,454	-0,066	-0,121
-148,833	-200,000	-0,015	0,101
-147,818	800,000	0,040	-0,099
-146,804	262,965	0,080	0,102
-145,789	-200,000	-0,023	0,078
-144,775	-200,000	0,016	-0,054
-143,760	-100,879	-0,093	-0,017
-142,745	421,562	-0,065	-0,102
-141,731	31,459	0,081	0,051
-140,716	-121,442	-0,039	0,005
-139,702	46,249	0,029	0,020
-138,687	-200,000	0,019	0,128
-137,672	62,440	-0,061	0,044
-136,658	221,578	-0,073	-0,086
-135,643	84,133	0,059	-0,047
-134,629	-58,816	0,118	0,037
-133,614	393,979	-0,030	0,045
-132,599	72,603	0,098	0,075
-131,585	-200,000	-0,012	-0,058
-130,570	-200,000	-0,021	0,093
-129,556	-5,727	0,094	0,047
-128,541	-87,899	-0,033	0,007
-127,526	140,469	0,082	-0,079
-126,512	-3,601	-0,066	0,033
-125,497	-37,900	0,106	0,041
-124,483	83,968	-0,081	-0,064
-123,468	-114,132	0,101	-0,014
-122,453	285,751	-0,100	-0,131
-121,439	-125,639	-0,077	0,008
-120,424	244,950	-0,071	0,087
-119,410	-200,000	-0,018	0,117
-118,395	68,625	0,076	-0,057
-117,380	-107,013	0,152	0,024
-116,366	364,405	0,033	0,049
-115,351	9,983	0,150	-0,083
-114,337	800,000	-0,049	-0,118
-113,322	-160,783	0,032	-0,001
-112,307	63,149	-0,050	0,037
-111,293	-138,539	0,063	0,005
-110,278	-200,000	-0,003	-0,024
-109,264	-61,826	-0,057	0,017
-108,249	800,000	-0,047	-0,106
-107,234	-16,151	-0,034	0,016
-106,220	434,954	0,106	0,169
-105,205	-66,515	-0,159	-0,046
-104,191	-110,083	0,105	-0,016
-103,176	-200,000	0,003	0,137
-102,162	-200,000	-0,009	0,126
-101,147	-8,061	-0,054	0,027
-100,132	-200,000	0,009	0,144
-99,118	294,251	-0,015	0,020
-98,103	48,558	0,145	0,098
-97,089	-200,000	-0,026	0,149
-96,074	-200,000	0,001	0,070
-95,059	-200,000	0,012	-0,053
-94,045	-62,078	-0,085	0,026
-93,030	-77,976	-0,084	0,021
-92,016	92,658	-0,090	0,074
-91,001	-42,028	0,044	0,016
-89,986	9,479	0,047	0,026
-88,972	-65,594	0,110	0,032
-87,957	-31,852	0,138	0,056
-86,943	-121,729	-0,113	0,013
-85,928	122,307	0,026	0,024
-84,913	47,158	-0,114	-0,077
-83,899	800,000	0,025	-0,055
-82,884	41,728	-0,065	-0,042
-81,870	-200,000	-0,003	0,031
-80,855	800,000	0,053	0,153
-79,840	-200,000	0,003	0,019
-78,826	-162,777	-0,101	0,004
-77,811	-200,000	-0,006	-0,129
-76,797	-137,194	-0,022	-0,002
-75,782	-59,672	-0,066	-0,021
-74,767	800,000	-0,053	0,168
-73,753	-76,614	0,125	0,032
-72,738	35,019	-0,071	0,045
-71,724	-123,352	-0,144	0,016
-70,709	-37,272	0,047	0,018
-69,694	-200,000	0,009	-0,045
-68,680	394,323	-0,030	-0,046
-67,665	2,165	-0,059	0,031
-66,651	-200,000	0,014	0,152
-65,636	-173,477	0,027	-0,001
-64,622	-79,925	-0,135	0,033
-63,607	-199,348	-0,136	0,001
-62,592	628,933	-0,013	-0,025
-61,578	14,792	0,060	-0,034
-60,563	31,739	0,144	-0,090
-59,549	-119,751	-0,083	0,010
-58,534	-110,379	-1,430	-0,213
-57,519	758,690	-0,773	-1,526
-56,505	-200,000	-1,047	-4,480
-55,490	-49,621	0,723	-0,248
-54,476	800,000	4,894	11,665
-53,461	-200,000	13,886	252,926
-52,446	-200,000	692,471	2240,580
-51,432	576,715	1623,150	2887,529
-50,417	117,764	1633,154	1457,753
-49,403	72,363	1287,087	971,347
-48,388	37,597	1023,215	656,927
-47,373	23,993	981,307	585,323
-46,359	23,238	970,768	576,544
-45,344	22,248	966,602	570,815
-44,330	22,168	965,151	569,673
-43,315	22,048	963,653	568,376
-42,300	22,103	962,536	567,875
-41,286	22,064	961,568	567,153
-40,271	22,013	960,657	566,429
-39,257	22,003	959,790	565,864
-38,242	22,041	958,850	565,409
-37,227	21,970	957,890	564,589
-36,213	21,982	957,047	564,110
-35,198	21,914	956,271	563,409
-34,184	21,963	955,626	563,165
-33,169	21,962	954,771	562,638
-32,154	22,051	953,720	562,281
-31,140	22,064	952,851	561,787
-30,125	22,063	952,029	561,280
-29,111	22,031	951,357	560,756
-28,096	22,031	950,545	560,258
-27,082	22,018	949,957	559,846
-26,067	22,038	949,053	559,354
-25,052	22,079	948,377	559,065
-24,038	22,065	947,762	558,637
-23,023	22,071	947,134	558,264
-22,009	22,070	946,524	557,877
-20,994	22,069	945,868	557,465
-19,979	22,081	945,171	557,073
-18,965	22,062	944,644	556,677
-17,950	22,048	944,046	556,260
-16,936	22,020	943,198	555,648
-15,921	21,975	942,667	555,171
-14,906	21,978	941,793	554,642
-13,892	21,931	941,282	554,171
-12,877	21,920	940,643	553,739
-11,863	21,870	939,999	553,179
-10,848	21,927	939,450	553,014
-9,833	21,957	939,108	552,885
-8,819	21,987	938,395	552,538
-7,804	21,953	937,610	551,949
-6,790	21,923	937,145	551,555
-5,775	21,945	936,585	551,276
-4,760	21,973	935,992	550,993
-3,746	21,937	935,340	550,472
-2,731	21,779	934,591	549,510
-1,717	21,729	933,954	548,958
-0,702	21,732	933,214	548,511
0,313	21,585	932,616	548,523
1,327	24,652	930,643	556,946
2,342	34,196	795,009	501,152
3,356	32,010	450,993	280,980
4,371	1,162	294,027	152,392
5,386	-3,431	274,925	138,132
6,400	-4,498	269,327	134,315
7,415	-4,932	267,006	132,746
8,429	-4,838	265,762	132,202
9,444	-4,905	264,911	131,706
10,459	-4,641	264,119	131,541
11,473	-4,897	263,771	131,123
12,488	-4,867	263,178	130,844
13,502	-5,011	262,710	130,469
14,517	-4,824	262,103	130,325
15,531	-4,906	261,810	130,093
16,546	-5,034	261,566	129,846
17,561	-4,794	261,059	129,798
18,575	-4,773	260,793	129,673
19,590	-4,995	260,581	129,357
20,604	-4,766	260,183	129,353
21,619	-4,955	259,779	128,972
22,634	-4,951	259,398	128,774
23,648	-4,889	259,055	128,647
24,663	-4,851	258,995	128,641
25,677	-4,964	258,685	128,374
26,692	-4,934	258,324	128,211
27,707	-5,055	258,304	128,081
28,721	-4,932	257,898	127,978
29,736	-4,906	257,648	127,865
30,750	-5,007	257,364	127,624
31,765	-4,931	257,182	127,589
32,780	-4,951	256,877	127,409
33,794	-4,957	256,663	127,286
34,809	-4,853	256,468	127,270
35,823	-4,951	256,173	127,025
36,838	-5,018	255,897	126,818
37,853	-5,193	255,759	126,585
38,867	-5,202	255,560	126,467
39,882	-5,133	255,420	126,447
40,896	-5,111	255,220	126,356
41,911	-5,143	254,893	126,156
42,926	-5,134	254,653	126,033
43,940	-5,111	254,545	125,988
44,955	-5,046	254,098	125,813
45,969	-5,168	254,004	125,648
46,984	-5,401	253,842	125,354
47,999	-5,621	253,567	125,015
49,013	-5,654	253,166	124,778
50,028	-5,572	252,985	124,749
51,042	-5,820	252,700	124,382
52,057	-5,963	252,653	124,223
53,071	-5,743	252,260	124,209
54,086	-5,598	252,223	124,306
55,101	-5,627	252,047	124,183
56,115	-5,133	251,757	124,456
57,130	-4,938	251,652	124,561
58,144	-4,706	251,533	124,692
59,159	-4,778	251,299	124,503
60,174	-4,775	251,141	124,416
61,188	-4,820	250,943	124,268
62,203	-4,802	250,825	124,215
63,217	-4,759	250,417	124,038
64,232	-4,928	250,438	123,892
65,247	-4,829	250,011	123,755
66,261	-4,984	249,968	123,589
67,276	-5,088	249,504	123,260
68,290	-5,278	249,290	122,981
69,305	-5,313	249,110	122,851
70,320	-5,457	248,951	122,639
71,334	-5,035	248,784	122,906
72,349	-4,766	248,790	123,127
73,363	-4,871	248,554	122,910
74,378	-4,722	248,355	122,927
75,393	-4,911	248,089	122,624
76,407	-4,887	247,834	122,507
77,422	-5,000	247,741	122,355
78,436	-4,679	247,472	122,483
79,451	-4,853	247,232	122,206
80,466	-5,057	246,980	121,898
81,480	-5,125	246,816	121,749
82,495	-5,262	246,594	121,512
83,509	-5,095	246,631	121,661
84,524	-5,029	246,246	121,516
85,539	-5,092	245,857	121,260
86,553	-5,126	245,833	121,209
87,568	-5,241	245,680	121,026
88,582	-5,220	245,642	121,014
89,597	-5,193	245,309	120,862
90,611	-5,142	245,278	120,878
91,626	-4,950	244,980	120,882
92,641	-5,065	244,713	120,643
93,655	-4,976	244,643	120,672
94,670	-5,088	244,414	120,455
95,684	-5,011	244,164	120,385
96,699	-5,080	244,011	120,242
97,714	-5,094	243,857	120,143
98,728	-5,298	243,557	119,814
99,743	-5,245	243,493	119,816
100,757	-5,296	243,295	119,666
101,772	-5,168	243,059	119,646
102,787	-5,110	242,899	119,604
103,801	-5,347	242,841	119,369
104,816	-5,162	242,577	119,381
105,830	-4,838	242,434	119,569
106,845	-4,939	242,255	119,387
107,860	-5,159	242,140	119,137
108,874	-5,133	241,794	118,978
109,889	-5,191	241,694	118,870
110,903	-5,167	241,623	118,844
111,918	-5,194	241,257	118,631
112,933	-4,838	241,027	118,801
113,947	-5,089	241,050	118,595
114,962	-5,044	240,860	118,528
115,976	-5,051	240,614	118,390
116,991	-5,066	240,404	118,264
118,006	-5,206	240,321	118,098
119,020	-5,252	240,195	117,988
120,035	-5,128	240,157	118,060
121,049	-5,034	240,024	118,061
122,064	-4,813	239,641	118,043
123,079	-4,887	239,459	117,882
124,093	-4,872	239,170	117,742
125,108	-5,268	239,019	117,334
126,122	-5,399	238,826	117,122
127,137	-5,519	238,643	116,924
128,151	-5,349	238,486	116,975
129,166	-5,145	238,253	117,016
130,181	-5,376	238,018	116,703
131,195	-5,568	237,895	116,477
132,210	-5,266	237,716	116,623
133,224	-5,032	237,753	116,821
134,239	-4,932	237,543	116,788
135,254	-4,956	237,395	116,686
136,268	-5,044	237,103	116,460
137,283	-5,233	236,850	116,174
138,297	-5,495	236,749	115,902
139,312	-5,594	236,481	115,680
140,327	-4,731	236,366	116,309
141,341	-5,073	236,650	116,162
142,356	-4,679	236,280	116,288
143,370	-4,680	236,009	116,144
144,385	-4,808	235,858	115,956
145,400	-4,745	235,706	115,921
146,414	-4,799	235,630	115,830
147,429	-4,757	235,365	115,724
148,443	-4,687	235,085	115,632
149,458	-4,809	235,043	115,503
150,473	-4,672	234,894	115,529
151,487	-4,589	234,787	115,533
152,502	-4,777	234,515	115,238
153,516	-4,735	234,439	115,224
154,531	-4,858	234,111	114,954
155,546	-4,836	234,141	114,977
156,560	-4,805	233,946	114,895
157,575	-4,983	233,658	114,602
158,589	-4,878	233,329	114,514
159,604	-4,788	233,383	114,602
160,619	-4,673	233,345	114,664
161,633	-4,616	233,156	114,606
162,648	-4,712	232,976	114,432
163,662	-5,015	232,829	114,109
164,677	-4,869	232,682	114,143
165,692	-4,779	232,462	114,095
166,706	-4,807	232,506	114,085
167,721	-4,695	232,412	114,117
168,735	-4,549	232,028	114,033
169,750	-4,637	231,890	113,886
170,764	-4,622	231,630	113,760
171,779	-4,823	231,685	113,618
172,794	-4,709	231,402	113,559
173,808	-4,700	231,268	113,490
174,823	-5,040	230,793	112,981
175,837	-5,106	230,670	112,859
176,852	-5,062	230,654	112,875
177,867	-4,693	230,572	113,114
178,881	-4,694	230,559	113,097
179,896	-4,329	230,309	113,250
180,910	-4,739	230,230	112,880
181,925	-4,626	230,094	112,892
182,940	-4,667	229,999	112,803
183,954	-4,535	229,698	112,748
184,969	-4,595	229,559	112,623
185,983	-4,520	229,503	112,644
186,998	-4,468	229,280	112,565
188,013	-4,552	229,085	112,394
189,027	-4,478	228,965	112,383
190,042	-4,530	228,785	112,244
191,056	-4,431	228,562	112,201
192,071	-4,537	228,449	112,054
193,086	-4,476	228,324	112,030
194,100	-4,632	228,124	111,801
195,115	-4,713	227,786	111,562
196,129	-5,391	227,716	110,994
197,144	-3,098	228,117	112,954
198,159	0,536	229,479	116,441
199,173	3,595	230,157	119,153
200,188	4,201	229,994	119,528
201,202	4,174	230,017	119,509
202,217	4,305	229,807	119,490
203,232	4,254	229,637	119,352
204,246	4,425	229,643	119,477
205,261	4,682	229,356	119,515
206,275	4,697	229,422	119,551
207,290	4,812	229,268	119,549
208,304	4,698	229,132	119,379
209,319	4,696	228,787	119,187
210,334	4,504	228,713	118,990
211,348	4,474	228,453	118,820
212,363	3,989	228,207	118,309
213,377	3,782	228,018	118,042
214,392	3,532	228,032	117,847
215,407	3,663	227,785	117,809
216,421	4,083	227,578	118,013
217,436	4,016	227,351	117,834
218,450	3,658	227,094	117,416
219,465	3,426	227,008	117,184
220,480	3,503	226,882	117,168
221,494	3,594	226,822	117,196
222,509	3,521	226,623	117,026
223,523	3,887	226,422	117,192
224,538	3,632	226,455	117,004
225,553	3,725	226,089	116,875
226,567	3,981	226,056	117,042
227,582	4,148	225,900	117,078
228,596	4,065	226,050	117,081
229,611	3,982	225,562	116,756
230,626	3,650	225,445	116,433
231,640	3,513	225,277	116,232
232,655	4,061	225,205	116,600
233,669	4,364	225,182	116,806
234,684	4,358	225,043	116,720
235,699	4,033	224,904	116,391
236,713	4,108	224,661	116,312
237,728	3,758	224,484	115,946
238,742	3,808	224,270	115,862
239,757	3,771	224,097	115,735
240,772	3,829	223,915	115,674
241,786	3,690	223,815	115,508
242,801	3,995	223,796	115,717
243,815	4,240	223,650	115,815
244,830	4,332	223,522	115,808
245,844	4,072	223,239	115,455
246,859	4,105	223,075	115,385
247,874	4,089	223,144	115,399
248,888	4,116	222,976	115,322
249,903	3,794	222,747	114,952
250,917	3,708	222,630	114,817
251,932	3,802	222,512	114,817
252,947	3,824	222,166	114,644
253,961	3,465	222,185	114,375
254,976	3,818	222,048	114,559
255,990	3,903	221,865	114,517
257,005	4,107	221,598	114,521
258,020	4,169	221,597	114,556
259,034	4,139	221,571	114,510
260,049	4,093	221,339	114,346
261,063	4,020	221,207	114,214
262,078	4,190	221,167	114,308
263,093	4,219	221,033	114,251
264,107	4,206	220,808	114,115
265,122	3,987	220,658	113,865
266,136	4,252	220,423	113,929
267,151	4,238	220,449	113,922
268,166	3,864	220,133	113,473
269,180	3,443	219,924	113,045
270,195	3,697	219,796	113,156
271,209	3,558	219,720	113,004
272,224	3,727	219,509	113,010
273,239	4,041	219,506	113,229
274,253	3,706	219,384	112,909
275,268	3,572	219,153	112,683
276,282	3,500	218,875	112,477
277,297	3,304	218,796	112,282
278,312	3,724	218,596	112,477
279,326	3,764	218,508	112,451
280,341	3,803	218,486	112,459
281,355	3,943	218,320	112,465
282,370	3,686	218,091	112,150
283,384	3,523	217,882	111,913
284,399	3,295	217,788	111,688
285,414	3,653	217,606	111,846
286,428	3,765	217,580	111,905
287,443	3,973	217,601	112,056
288,457	3,991	217,432	111,973
289,472	3,728	217,223	111,664
290,487	3,334	216,919	111,211
291,501	3,240	216,651	110,996
292,516	3,114	216,585	110,861
293,530	3,241	216,549	110,925
294,545	3,317	216,321	110,853
295,560	3,466	216,303	110,942
296,574	3,863	216,215	111,174
297,589	3,646	216,148	110,973
298,603	3,753	216,019	110,974
299,618	3,717	215,814	110,833
300,633	3,894	215,635	110,859
301,647	4,128	215,525	110,961
302,662	4,093	215,482	110,904
303,676	3,971	215,341	110,734
304,691	4,006	215,298	110,727
305,706	3,883	215,119	110,536
306,720	3,929	214,888	110,440
307,735	3,951	214,769	110,385
308,749	3,752	214,480	110,084
309,764	3,705	214,531	110,067
310,779	4,178	214,355	110,306
311,793	3,946	214,241	110,071
312,808	3,857	214,110	109,931
313,822	3,945	213,853	109,852
314,837	3,879	213,785	109,760
315,852	3,632	213,637	109,498
316,866	3,978	213,359	109,592
317,881	4,050	213,415	109,662
318,895	4,129	213,252	109,625
319,910	3,631	213,148	109,208
320,925	3,378	212,833	108,856
321,939	3,358	212,618	108,723
322,954	3,465	212,677	108,819
323,968	3,781	212,567	108,977
324,983	3,986	212,542	109,100
325,997	3,883	212,359	108,924
327,012	3,881	212,073	108,766
328,027	3,867	212,044	108,731
329,041	4,198	211,904	108,884
330,056	4,573	211,751	109,060
331,070	3,959	211,619	108,549
332,085	3,535	211,436	108,147
333,100	3,518	211,266	108,038
334,114	3,867	211,130	108,204
335,129	4,060	210,912	108,219
336,143	3,716	210,806	107,914
337,158	3,860	210,750	107,976
338,173	3,945	210,615	107,957
339,187	3,527	210,366	107,527
340,202	3,635	210,186	107,501
341,216	3,541	210,100	107,381
342,231	3,732	209,991	107,450
343,246	3,590	209,747	107,216
344,260	3,575	209,770	107,207
345,275	3,496	209,764	107,140
346,289	3,818	209,644	107,294
347,304	3,884	209,487	107,250
348,319	3,914	209,278	107,154
349,333	3,767	209,141	106,972
350,348	4,102	208,942	107,094
351,362	4,170	208,990	107,157
352,377	4,126	208,879	107,059
353,392	4,169	208,646	106,960
354,406	3,842	208,444	106,620
355,421	193,819	1344,382	1431,368
356,435	154,646	1482,883	1431,477
