DTS Sentinel unit serial number:	SN410029Multiplexer serial number:	ORYXHardware model number:	OX2-SRSoftware version number:	ORYX F/W v4,00 Oryx Data Collector v3.7.2.0data status	okinstallation	B6 Nyhavnadifferential loss correction	single-endedforward channel	channel 2reverse channel	N/Adate	2023/12/10time	19:15:08forward acquisition time	300,00reverse acquisition time	0,00gamma	499,1914k internal	0,3122k external	0,3122temperature offset calibration	1,0000default loss term (dB/km)	0,3820temperature slope calibration	1,0000multiplexer offset coefficient	1,0000multiplexer slope coefficient	1,0000fibre end	0,00T internal ref (°C)	22,32T ext. ref 1 (°C)	6,01T ext. ref 2 (°C)	6,03length (m)	temperature (°C)	Stokes	anti-Stokes-744,400	-200,000	-0,006	-0,032
-743,385	-96,261	-0,328	0,064
-742,371	114,862	0,059	-0,053
-741,356	-4,709	-0,233	0,119
-740,342	-8,942	0,054	0,027
-739,327	80,738	-0,205	0,165
-738,312	71,695	-0,055	0,043
-737,298	-30,586	-0,237	0,100
-736,283	800,000	-0,011	0,029
-735,269	-29,088	-0,250	0,106
-734,254	620,607	0,013	0,025
-733,239	-49,565	-0,412	-0,146
-732,225	-31,700	0,071	-0,030
-731,210	-114,014	-0,045	-0,006
-730,196	-200,000	0,013	-0,148
-729,181	-200,000	0,034	-0,138
-728,167	-123,358	-0,050	0,006
-727,152	-200,000	-0,001	0,041
-726,137	531,997	0,134	-0,238
-725,123	113,286	-0,019	0,017
-724,108	-33,115	-0,141	-0,058
-723,094	80,333	-0,012	0,009
-722,079	33,598	-0,062	0,040
-721,064	256,759	0,088	0,113
-720,050	800,000	-0,049	-0,140
-719,035	322,491	-0,018	0,026
-718,021	-1,022	-0,080	0,042
-717,006	-200,000	-0,027	-0,110
-715,991	133,532	-0,108	-0,104
-714,977	-48,773	-0,131	-0,046
-713,962	-33,771	-0,052	-0,021
-712,948	150,876	-0,053	0,053
-711,933	-42,008	-0,153	-0,058
-710,918	-12,200	-0,036	-0,017
-709,904	245,443	-0,053	0,066
-708,889	414,214	-0,010	-0,015
-707,875	232,627	0,039	-0,048
-706,860	-200,000	-0,007	0,075
-705,845	-200,000	-0,037	-0,169
-704,831	-200,000	-0,012	-0,081
-703,816	-54,075	-0,078	-0,026
-702,802	33,275	0,105	0,068
-701,787	-112,803	-0,086	-0,012
-700,772	-172,304	-0,051	0,001
-699,758	-200,000	0,005	-0,154
-698,743	-148,775	-0,144	-0,009
-697,729	-74,125	-0,064	-0,017
-696,714	-200,000	0,018	0,070
-695,699	-100,954	-0,130	-0,024
-694,685	-67,164	-0,134	-0,039
-693,670	-200,000	0,036	-0,122
-692,656	-142,405	0,040	-0,003
-691,641	-200,000	0,026	-0,161
-690,627	800,000	0,038	0,081
-689,612	-40,471	-0,070	0,027
-688,597	141,762	0,059	-0,058
-687,583	800,000	0,013	-0,035
-686,568	-20,158	-0,175	-0,080
-685,554	207,581	0,091	-0,105
-684,539	-124,927	-0,033	0,004
-683,524	647,523	0,024	-0,046
-682,510	773,213	-0,045	0,091
-681,495	-84,001	0,071	0,017
-680,481	13,169	-0,042	-0,024
-679,466	-120,161	-0,120	0,015
-678,451	-200,000	-0,033	0,126
-677,437	-126,882	-0,076	-0,008
-676,422	-83,022	0,093	0,022
-675,408	424,247	-0,032	0,051
-674,393	-200,000	-0,030	0,103
-673,378	131,516	-0,220	-0,210
-672,364	28,084	0,090	0,056
-671,349	258,167	-0,045	-0,058
-670,335	478,984	0,023	0,039
-669,320	-126,508	-0,038	-0,004
-668,305	-86,380	-0,076	0,017
-667,291	204,773	-0,064	0,073
-666,276	134,781	-0,058	-0,056
-665,262	-2,359	-0,054	-0,028
-664,247	-200,000	0,020	0,111
-663,232	154,525	-0,054	-0,055
-662,218	2,981	-0,037	-0,020
-661,203	-200,000	-0,027	0,118
-660,189	76,820	-0,014	-0,011
-659,174	272,408	-0,037	-0,049
-658,159	127,602	-0,100	0,094
-657,145	153,428	0,058	-0,059
-656,130	-200,000	0,006	-0,028
-655,116	-200,000	-0,010	0,059
-654,101	752,163	-0,025	-0,050
-653,086	-9,257	0,160	-0,079
-652,072	3,040	0,110	-0,059
-651,057	-200,000	0,028	-0,127
-650,043	103,865	-0,057	-0,049
-649,028	-200,000	-0,013	-0,088
-648,014	160,136	-0,060	-0,063
-646,999	-200,000	-0,005	0,040
-645,984	800,000	0,005	0,012
-644,970	-200,000	-0,004	-0,090
-643,955	-200,000	0,009	-0,041
-642,941	219,757	-0,074	0,088
-641,926	115,075	0,051	0,046
-640,911	109,738	0,076	0,068
-639,897	60,215	-0,044	0,032
-638,882	800,000	0,019	0,049
-637,868	156,408	0,096	0,098
-636,853	-111,435	-0,082	-0,012
-635,838	-26,900	0,035	0,015
-634,824	-200,000	0,006	0,041
-633,809	-105,587	0,050	0,008
-632,795	-200,000	-0,008	0,051
-631,780	50,864	-0,064	0,045
-630,765	64,877	-0,018	0,013
-629,751	39,296	-0,075	0,049
-628,736	110,319	-0,091	-0,081
-627,722	119,881	0,044	-0,040
-626,707	63,869	0,099	-0,074
-625,692	800,000	-0,020	-0,052
-624,678	-200,000	-0,002	-0,009
-623,663	-143,237	0,083	0,006
-622,649	-200,000	0,017	-0,154
-621,634	31,672	-0,144	-0,092
-620,619	-200,000	0,003	-0,012
-619,605	-12,311	-0,012	-0,006
-618,590	254,504	0,059	-0,075
-617,576	-14,800	0,127	0,060
-616,561	26,577	0,053	0,033
-615,546	17,606	-0,148	0,087
-614,532	-17,281	0,012	0,005
-613,517	179,166	-0,079	-0,086
-612,503	-44,514	-0,036	-0,013
-611,488	-58,199	0,104	0,033
-610,474	800,000	0,053	0,132
-609,459	-91,473	0,112	0,023
-608,444	-12,075	-0,166	-0,081
-607,430	800,000	0,053	-0,137
-606,415	40,518	0,093	-0,062
-605,401	800,000	0,064	0,168
-604,386	-11,552	0,024	0,012
-603,371	501,421	-0,014	-0,025
-602,357	-200,000	0,009	-0,052
-601,342	217,777	-0,102	0,121
-600,328	-56,508	-0,095	0,031
-599,313	563,132	0,041	0,073
-598,298	-80,281	0,067	0,016
-597,284	-66,982	-0,075	0,022
-596,269	-96,749	0,138	0,027
-595,255	-11,823	-0,142	0,069
-594,240	-200,000	0,009	-0,078
-593,225	800,000	-0,041	-0,121
-592,211	-49,210	0,090	-0,032
-591,196	800,000	-0,028	-0,066
-590,182	-200,000	0,005	-0,024
-589,167	-90,248	0,040	-0,009
-588,152	177,908	-0,101	0,109
-587,138	462,850	0,057	0,094
-586,123	438,078	-0,059	-0,096
-585,109	266,351	-0,106	-0,137
-584,094	-200,000	0,005	-0,047
-583,079	-200,000	0,045	-0,196
-582,065	-200,000	0,040	-0,157
-581,050	545,036	-0,092	-0,163
-580,036	800,000	0,044	-0,106
-579,021	-200,000	-0,016	-0,102
-578,006	-200,000	-0,017	-0,155
-576,992	-28,250	-0,039	0,017
-575,977	165,696	0,092	0,096
-574,963	-108,527	0,023	-0,004
-573,948	54,389	0,062	-0,044
-572,934	81,306	0,017	0,014
-571,919	232,547	-0,074	-0,090
-570,904	-172,644	0,090	0,002
-569,890	-200,000	-0,003	-0,104
-568,875	340,976	0,062	0,090
-567,861	-200,000	0,001	-0,125
-566,846	370,361	0,072	-0,108
-565,831	138,411	-0,071	-0,069
-564,817	800,000	-0,020	0,050
-563,802	-3,219	-0,160	-0,082
-562,788	-200,000	-0,010	-0,166
-561,773	133,513	0,024	-0,023
-560,758	-200,000	-0,016	0,105
-559,744	-200,000	0,007	-0,070
-558,729	18,575	-0,086	-0,051
-557,715	-200,000	-0,003	0,048
-556,700	-129,368	0,202	-0,021
-555,685	800,000	0,040	-0,125
-554,671	800,000	0,050	-0,158
-553,656	25,522	0,146	-0,090
-552,642	800,000	0,021	-0,053
-551,627	-147,015	0,031	-0,002
-550,612	14,727	0,039	0,023
-549,598	800,000	-0,034	-0,100
-548,583	-146,943	-0,109	0,007
-547,569	272,449	-0,051	0,067
-546,554	-41,221	0,109	-0,041
-545,539	-134,827	0,141	0,012
-544,525	14,249	-0,092	0,053
-543,510	-39,600	0,068	-0,026
-542,496	-60,132	-0,154	-0,048
-541,481	800,000	0,042	-0,113
-540,466	2,501	-0,113	-0,060
-539,452	-29,641	0,045	-0,019
-538,437	472,816	-0,068	0,114
-537,423	97,674	-0,055	-0,047
-536,408	190,861	-0,098	-0,109
-535,393	201,432	-0,107	-0,122
-534,379	800,000	-0,041	-0,116
-533,364	238,280	0,017	0,022
-532,350	314,813	0,043	0,061
-531,335	-95,323	0,130	-0,026
-530,321	-27,840	0,052	-0,022
-529,306	-92,124	-0,017	-0,004
-528,291	-200,000	-0,010	-0,050
-527,277	49,517	-0,079	0,055
-526,262	443,319	-0,035	0,056
-525,248	274,501	0,030	-0,039
-524,233	-200,000	-0,003	0,107
-523,218	-200,000	-0,018	0,068
-522,204	106,720	0,060	0,053
-521,189	35,190	-0,103	-0,067
-520,175	105,276	0,082	-0,071
-519,160	-144,504	-0,052	0,003
-518,145	-10,394	0,152	0,074
-517,131	23,694	0,036	-0,022
-516,116	534,996	0,060	0,105
-515,102	150,190	-0,086	-0,086
-514,087	61,922	-0,032	-0,023
-513,072	-106,620	-0,039	0,006
-512,058	11,141	0,088	-0,050
-511,043	501,144	-0,031	0,053
-510,029	-143,555	0,022	-0,002
-509,014	-200,000	-0,006	-0,021
-507,999	-140,264	-0,105	0,008
-506,985	75,799	0,044	0,034
-505,970	-200,000	-0,020	0,101
-504,956	-104,909	0,196	-0,033
-503,941	-200,000	0,003	0,032
-502,926	-200,000	0,008	0,114
-501,912	-200,000	0,008	0,076
-500,897	800,000	0,054	-0,135
-499,883	800,000	0,052	-0,129
-498,868	30,352	-0,093	0,059
-497,853	-200,000	-0,005	-0,041
-496,839	94,584	-0,011	0,009
-495,824	-12,465	0,098	-0,047
-494,810	-42,183	0,118	0,044
-493,795	-200,000	0,021	0,085
-492,781	-200,000	-0,022	0,108
-491,766	100,914	-0,012	-0,010
-490,751	-200,000	0,025	0,102
-489,737	-95,690	-0,089	-0,017
-488,722	-36,285	0,116	0,046
-487,708	138,596	0,065	0,063
-486,693	-42,485	0,060	-0,022
-485,678	-118,797	-0,130	0,017
-484,664	-200,000	-0,013	0,087
-483,649	103,672	0,096	-0,083
-482,635	-71,589	-0,063	-0,017
-481,620	51,820	0,059	0,041
-480,605	-10,182	0,103	-0,050
-479,591	695,759	0,044	0,085
-478,576	-10,731	0,037	0,018
-477,562	-140,496	-0,053	-0,004
-476,547	66,812	0,098	-0,074
-475,532	74,301	-0,165	-0,128
-474,518	-59,567	0,096	-0,030
-473,503	-79,028	0,055	0,014
-472,489	800,000	0,040	0,103
-471,474	64,847	-0,065	-0,048
-470,459	239,426	-0,085	-0,104
-469,445	-200,000	0,014	-0,083
-468,430	-200,000	0,003	-0,043
-467,416	-200,000	0,002	0,072
-466,401	-200,000	-0,013	0,093
-465,386	-19,449	0,070	0,032
-464,372	800,000	-0,049	-0,121
-463,357	-76,138	-0,068	-0,018
-462,343	-130,031	-0,149	-0,015
-461,328	273,946	-0,063	-0,083
-460,313	800,000	-0,014	-0,039
-459,299	334,379	-0,027	0,038
-458,284	-200,000	-0,062	0,256
-457,270	537,981	-0,031	0,055
-456,255	139,631	0,063	0,061
-455,241	-200,000	-0,004	-0,015
-454,226	-200,000	0,001	-0,030
-453,211	351,531	-0,049	-0,072
-452,197	-19,185	0,117	0,053
-451,182	154,415	0,048	-0,048
-450,168	-200,000	-0,009	-0,097
-449,153	-63,664	-0,127	0,038
-448,138	-200,000	-0,012	-0,087
-447,124	-200,000	-0,001	-0,088
-446,109	-131,472	-0,039	0,004
-445,095	-200,000	0,016	-0,112
-444,080	58,168	-0,052	-0,037
-443,065	800,000	-0,034	0,100
-442,051	443,472	-0,078	-0,127
-441,036	-136,252	-0,094	0,008
-440,022	157,318	-0,087	0,089
-439,007	800,000	-0,036	-0,082
-437,992	22,907	-0,104	0,063
-436,978	800,000	0,032	-0,079
-435,963	334,294	0,066	0,094
-434,949	-200,000	0,004	-0,067
-433,934	4,885	0,003	0,002
-432,919	-200,000	-0,002	0,116
-431,905	-200,000	-0,004	0,144
-430,890	281,191	0,053	0,070
-429,876	800,000	-0,034	-0,076
-428,861	-26,110	-0,023	-0,010
-427,846	147,922	-0,090	-0,089
-426,832	-128,389	-0,092	0,010
-425,817	-85,204	-0,046	-0,011
-424,803	-131,237	0,064	-0,006
-423,788	-133,045	-0,062	-0,006
-422,773	-26,027	-0,060	0,026
-421,759	299,024	-0,106	0,144
-420,744	800,000	0,023	0,065
-419,730	-27,458	-0,172	-0,073
-418,715	-43,956	0,119	-0,044
-417,701	416,309	-0,021	-0,033
-416,686	-200,000	0,005	-0,062
-415,671	-56,609	0,130	0,042
-414,657	-77,682	0,134	0,034
-413,642	-200,000	0,002	0,006
-412,628	-71,410	-0,081	0,022
-411,613	83,080	-0,044	-0,035
-410,598	-140,040	0,048	-0,004
-409,584	-200,000	-0,002	-0,077
-408,569	-56,550	0,180	-0,058
-407,555	161,552	-0,107	0,110
-406,540	254,558	-0,050	-0,064
-405,525	-10,319	-0,096	0,047
-404,511	-0,955	-0,100	-0,052
-403,496	127,467	0,104	-0,097
-402,482	185,974	0,084	-0,091
-401,467	-200,000	0,014	0,099
-400,452	370,675	0,013	0,020
-399,438	-200,000	-0,005	0,164
-398,423	-200,000	0,022	-0,140
-397,409	-55,199	-0,054	-0,018
-396,394	-98,694	-0,031	0,006
-395,379	-145,118	-0,134	-0,009
-394,365	27,605	0,062	-0,038
-393,350	-200,000	-0,001	0,178
-392,336	154,584	0,007	0,007
-391,321	304,868	0,026	0,036
-390,306	618,659	0,076	-0,141
-389,292	222,340	0,081	-0,096
-388,277	-29,529	0,094	-0,039
-387,263	-46,348	0,158	-0,057
-386,248	62,413	0,130	0,095
-385,233	15,710	0,090	0,052
-384,219	91,098	0,046	0,038
-383,204	-200,000	-0,016	0,064
-382,190	-21,365	-0,014	0,006
-381,175	-200,000	-0,005	0,025
-380,160	43,713	-0,063	-0,042
-379,146	361,403	0,052	0,077
-378,131	-43,518	-0,120	0,044
-377,117	303,057	-0,082	0,111
-376,102	152,410	-0,063	0,064
-375,088	688,992	-0,018	-0,034
-374,073	-8,620	-0,029	0,014
-373,058	86,649	-0,056	-0,045
-372,044	-45,413	0,136	-0,049
-371,029	-200,000	-0,016	0,118
-370,015	-183,514	-0,114	0,001
-369,000	5,217	-0,049	-0,027
-367,985	142,972	0,035	0,034
-366,971	-27,417	0,087	-0,037
-365,956	161,723	0,087	-0,090
-364,942	37,525	0,107	0,069
-363,927	-16,560	-0,057	0,026
-362,912	-200,000	0,031	0,115
-361,898	190,697	0,024	-0,027
-360,883	569,633	-0,046	-0,082
-359,869	135,354	-0,055	0,052
-358,854	-200,000	0,049	0,000
-357,839	71,811	-0,021	-0,016
-356,825	-109,582	0,108	-0,017
-355,810	-9,428	0,044	-0,022
-354,796	57,699	-0,060	-0,043
-353,781	598,575	-0,044	-0,080
-352,766	21,548	0,113	0,068
-351,752	-200,000	-0,012	0,104
-350,737	-200,000	0,017	-0,099
-349,723	800,000	0,046	0,111
-348,708	-141,567	0,131	-0,010
-347,693	204,989	-0,032	0,037
-346,679	518,257	-0,083	0,143
-345,664	55,033	-0,097	0,069
-344,650	-114,783	0,022	0,003
-343,635	-131,529	-0,062	0,006
-342,620	-40,535	-0,114	-0,043
-341,606	478,041	-0,051	0,085
-340,591	-200,000	-0,005	0,043
-339,577	-14,273	-0,093	-0,044
-338,562	94,117	-0,066	-0,055
-337,548	-13,563	0,079	-0,037
-336,533	230,712	0,089	0,107
-335,518	-39,789	-0,082	0,031
-334,504	497,030	0,055	-0,093
-333,489	19,436	0,110	-0,065
-332,475	109,789	-0,072	0,063
-331,460	800,000	-0,011	-0,029
-330,445	76,892	0,158	-0,123
-329,431	183,431	-0,057	0,062
-328,416	-200,000	0,006	0,063
-327,402	800,000	-0,013	0,037
-326,387	22,025	-0,075	0,045
-325,372	211,956	-0,020	0,023
-324,358	-100,866	-0,133	-0,024
-323,343	130,507	0,028	0,026
-322,329	-79,565	0,081	0,020
-321,314	7,149	0,124	0,068
-320,299	800,000	0,045	0,132
-319,285	-200,000	-0,020	-0,089
-318,270	-200,000	0,001	-0,060
-317,256	88,928	0,030	-0,024
-316,241	-200,000	0,008	0,116
-315,226	-47,010	0,036	0,013
-314,212	800,000	0,015	0,041
-313,197	369,171	0,015	-0,022
-312,183	-189,367	-0,100	-0,001
-311,168	-200,000	0,009	0,072
-310,153	800,000	-0,024	0,068
-309,139	-137,078	0,009	0,001
-308,124	-200,000	0,013	-0,046
-307,110	-200,000	0,022	0,097
-306,095	800,000	0,046	0,126
-305,080	-111,640	-0,051	-0,007
-304,066	286,314	0,099	-0,132
-303,051	-14,997	-0,053	0,025
-302,037	-200,000	0,001	0,092
-301,022	-200,000	-0,008	0,086
-300,008	-200,000	-0,008	0,035
-298,993	389,190	-0,027	0,041
-297,978	800,000	-0,041	0,099
-296,964	-84,092	-0,182	0,042
-295,949	18,643	-0,091	0,053
-294,935	-200,000	0,000	-0,085
-293,920	800,000	-0,051	-0,134
-292,905	469,159	0,048	0,079
-291,891	-200,000	-0,016	0,125
-290,876	-200,000	-0,033	0,141
-289,862	287,954	0,051	-0,067
-288,847	800,000	0,032	-0,073
-287,832	-200,000	-0,005	-0,094
-286,818	-200,000	0,003	0,152
-285,803	800,000	-0,008	0,021
-284,789	56,269	0,106	-0,075
-283,774	755,740	-0,054	0,107
-282,759	-11,650	0,019	0,009
-281,745	800,000	-0,071	-0,192
-280,730	67,642	0,013	-0,009
-279,716	-128,773	0,115	0,012
-278,701	546,040	0,026	-0,045
-277,686	-200,000	0,067	-0,000
-276,672	-37,509	0,035	0,014
-275,657	-200,000	-0,001	0,076
-274,643	439,443	-0,042	0,067
-273,628	-200,000	-0,015	-0,127
-272,613	800,000	-0,043	-0,111
-271,599	-14,066	-0,100	0,047
-270,584	-104,826	0,128	0,021
-269,570	-200,000	0,007	-0,031
-268,555	800,000	0,044	0,102
-267,540	20,927	-0,083	-0,049
-266,526	-45,564	0,072	-0,026
-265,511	411,074	-0,073	-0,114
-264,497	-102,152	0,176	-0,031
-263,482	-72,726	0,072	0,019
-262,467	-200,000	0,023	-0,121
-261,453	200,026	-0,036	-0,041
-260,438	106,427	0,036	-0,031
-259,424	-58,336	-0,064	0,020
-258,409	-200,000	0,007	-0,029
-257,395	-46,637	-0,080	0,029
-256,380	260,110	0,065	-0,082
-255,365	-100,464	0,120	-0,021
-254,351	-200,000	0,012	0,073
-253,336	-67,204	-0,174	0,050
-252,322	-107,408	-0,139	-0,022
-251,307	168,089	-0,047	0,049
-250,292	-200,000	0,011	0,058
-249,278	52,998	0,055	0,038
-248,263	561,885	0,080	0,142
-247,249	236,229	-0,094	0,114
-246,234	-102,679	-0,060	-0,010
-245,219	134,023	-0,053	0,050
-244,205	126,282	-0,112	0,104
-243,190	-200,000	0,012	0,079
-242,176	319,526	-0,055	0,076
-241,161	520,140	-0,012	-0,021
-240,146	734,127	0,063	0,124
-239,132	-200,000	0,005	-0,127
-238,117	800,000	-0,043	-0,092
-237,103	672,400	-0,021	-0,039
-236,088	100,830	0,062	0,053
-235,073	210,000	0,069	0,080
-234,059	112,960	0,059	-0,052
-233,044	-24,950	-0,065	0,028
-232,030	82,704	-0,029	-0,023
-231,015	800,000	0,053	0,151
-230,000	800,000	0,014	0,034
-228,986	33,483	0,053	-0,033
-227,971	-200,000	0,022	0,093
-226,957	-75,208	0,057	0,015
-225,942	28,098	0,054	0,033
-224,927	-200,000	0,029	0,161
-223,913	-200,000	0,013	-0,085
-222,898	-104,990	-0,084	0,014
-221,884	348,755	0,034	-0,049
-220,869	-200,000	0,032	0,123
-219,855	-200,000	0,058	0,212
-218,840	-160,392	0,057	0,002
-217,825	12,945	-0,087	-0,049
-216,811	586,372	0,035	-0,064
-215,796	388,842	-0,089	-0,134
-214,782	685,184	-0,020	-0,037
-213,767	-144,424	0,167	0,011
-212,752	800,000	0,015	-0,039
-211,738	-14,800	0,069	-0,032
-210,723	188,764	0,086	0,095
-209,709	-115,550	-0,170	0,023
-208,694	315,885	0,023	-0,032
-207,679	-200,000	-0,007	-0,107
-206,665	-134,130	-0,010	0,001
-205,650	-200,000	0,010	0,130
-204,636	-200,000	-0,001	-0,088
-203,621	800,000	-0,042	-0,115
-202,606	-68,912	-0,052	-0,014
-201,592	98,869	-0,133	-0,112
-200,577	-19,003	0,059	0,027
-199,563	-200,000	-0,007	0,065
-198,548	-91,110	-0,118	-0,024
-197,533	150,342	0,117	0,116
-196,519	-200,000	-0,020	0,067
-195,504	62,610	0,096	-0,070
-194,490	505,457	0,113	0,191
-193,475	-200,000	-0,011	0,052
-192,460	587,559	0,003	0,006
-191,446	-20,734	0,008	0,004
-190,431	640,294	-0,047	0,088
-189,417	800,000	-0,094	0,208
-188,402	111,881	0,144	-0,127
-187,387	-48,522	-0,042	-0,015
-186,373	-40,684	0,045	-0,017
-185,358	236,928	-0,055	0,066
-184,344	107,479	0,165	0,143
-183,329	24,807	0,044	0,026
-182,315	800,000	0,014	-0,033
-181,300	-47,141	-0,165	-0,058
-180,285	-200,000	-0,062	-0,219
-179,271	800,000	0,047	-0,123
-178,256	-33,851	-0,055	-0,022
-177,242	-200,000	0,008	-0,216
-176,227	207,735	-0,048	-0,054
-175,212	347,819	0,107	0,154
-174,198	-200,000	0,010	0,077
-173,183	56,842	-0,148	-0,105
-172,169	-200,000	-0,004	0,045
-171,154	-200,000	-0,016	-0,108
-170,139	358,560	0,071	-0,103
-169,125	137,514	-0,070	-0,067
-168,110	286,329	0,036	-0,048
-167,096	800,000	0,035	0,085
-166,081	390,696	0,052	0,079
-165,066	-200,000	-0,037	0,000
-164,052	-200,000	-0,025	-0,154
-163,037	800,000	-0,019	0,051
-162,023	-200,000	0,012	0,148
-161,008	-200,000	-0,018	0,100
-159,993	-104,101	-0,052	0,009
-158,979	-93,172	-0,063	0,013
-157,964	-115,978	-0,058	0,008
-156,950	115,638	-0,031	-0,028
-155,935	35,930	-0,085	0,054
-154,920	26,035	0,163	0,099
-153,906	429,767	-0,039	-0,061
-152,891	-200,000	-0,008	0,097
-151,877	172,284	0,078	0,082
-150,862	800,000	0,016	0,038
-149,847	-42,136	-0,108	-0,040
-148,833	83,212	0,140	-0,111
-147,818	-200,000	0,010	0,084
-146,804	-105,118	-0,049	-0,008
-145,789	116,678	0,039	0,035
-144,775	-71,815	-0,214	0,058
-143,760	-200,000	-0,002	0,039
-142,745	126,228	-0,020	-0,019
-141,731	288,825	-0,042	0,055
-140,716	-200,000	-0,008	0,039
-139,702	-83,293	-0,076	-0,018
-138,687	356,079	0,113	0,165
-137,672	-200,000	-0,020	0,109
-136,658	-32,182	0,039	-0,016
-135,643	74,635	-0,069	0,053
-134,629	-76,089	0,090	-0,023
-133,614	431,101	-0,041	0,065
-132,599	277,318	0,089	0,115
-131,585	56,814	0,041	-0,029
-130,570	-20,309	-0,052	0,023
-129,556	261,633	-0,049	0,062
-128,541	288,131	-0,030	-0,040
-127,526	555,579	0,046	0,081
-126,512	527,758	-0,017	0,030
-125,497	-112,367	-0,062	0,009
-124,483	95,234	0,040	-0,033
-123,468	663,791	0,058	0,110
-122,453	-75,733	-0,104	-0,027
-121,439	321,271	-0,022	0,030
-120,424	-200,000	0,008	0,153
-119,410	-187,015	0,047	0,000
-118,395	-200,000	0,027	-0,128
-117,380	212,726	0,078	-0,090
-116,366	-60,506	0,183	-0,056
-115,351	130,081	0,059	-0,055
-114,337	-125,948	-0,025	0,003
-113,322	800,000	-0,021	-0,064
-112,307	-4,381	-0,142	0,071
-111,293	-66,502	-0,054	0,015
-110,278	35,811	-0,026	-0,017
-109,264	38,836	-0,087	0,056
-108,249	-36,861	-0,137	0,053
-107,234	-200,000	0,015	-0,125
-106,220	-31,599	-0,026	0,011
-105,205	-136,670	-0,057	-0,005
-104,191	-200,000	-0,005	0,067
-103,176	-121,396	0,086	-0,010
-102,162	-200,000	0,001	0,041
-101,147	-104,201	0,114	0,019
-100,132	-133,821	-0,053	0,005
-99,118	84,155	-0,065	-0,052
-98,103	800,000	-0,023	-0,061
-97,089	60,431	-0,059	-0,042
-96,074	116,133	0,071	0,063
-95,059	800,000	0,042	0,087
-94,045	-200,000	-0,020	0,089
-93,030	-200,000	0,030	0,139
-92,016	-200,000	0,009	-0,119
-91,001	-133,292	-0,100	-0,009
-89,986	800,000	0,020	0,051
-88,972	-65,584	-0,082	0,024
-87,957	-43,876	-0,151	0,055
-86,943	800,000	0,060	0,136
-85,928	98,434	-0,028	0,024
-84,913	800,000	0,037	-0,112
-83,899	800,000	-0,065	0,146
-82,884	-200,000	0,006	-0,058
-81,870	-14,260	0,166	0,078
-80,855	800,000	0,017	0,050
-79,840	-200,000	0,013	-0,058
-78,826	800,000	0,020	-0,041
-77,811	-200,000	0,021	0,147
-76,797	-123,758	0,190	-0,022
-75,782	800,000	0,072	-0,155
-74,767	386,331	0,007	-0,010
-73,753	589,654	0,029	-0,052
-72,738	800,000	-0,038	-0,121
-71,724	73,072	0,103	-0,078
-70,709	103,872	-0,096	-0,082
-69,694	23,945	-0,094	-0,056
-68,680	126,000	-0,087	0,079
-67,665	381,402	0,083	0,123
-66,651	-200,000	0,011	0,089
-65,636	52,823	-0,043	-0,030
-64,622	-200,000	0,012	0,166
-63,607	-200,000	-0,016	-0,169
-62,592	-119,814	0,050	-0,006
-61,578	-200,000	0,007	-0,074
-60,563	96,060	0,102	0,084
-59,549	20,332	-0,094	0,055
-58,534	-113,006	-1,442	-0,205
-57,519	587,744	-0,757	-1,358
-56,505	-200,000	-0,750	-4,443
-55,490	-1,687	0,668	-0,340
-54,476	800,000	4,902	12,005
-53,461	-200,000	13,606	253,845
-52,446	-200,000	690,042	2258,757
-51,432	590,055	1622,449	2915,535
-50,417	119,089	1634,995	1467,185
-49,403	73,123	1288,948	976,823
-48,388	38,009	1024,330	659,706
-47,373	24,217	982,093	587,126
-46,359	23,579	971,506	578,682
-45,344	22,565	967,403	572,898
-44,330	22,500	965,873	571,758
-43,315	22,390	964,297	570,445
-42,300	22,385	963,317	569,825
-41,286	22,423	962,294	569,321
-40,271	22,325	961,474	568,496
-39,257	22,330	960,470	567,894
-38,242	22,270	959,727	567,237
-37,227	22,315	958,848	566,842
-36,213	22,307	957,870	566,216
-35,198	22,271	956,909	565,509
-34,184	22,309	956,536	565,389
-33,169	22,336	955,461	564,819
-32,154	22,366	954,537	564,347
-31,140	22,355	953,560	563,712
-30,125	22,385	952,950	563,424
-29,111	22,384	952,061	562,873
-28,096	22,323	951,624	562,396
-27,082	22,363	950,816	562,027
-26,067	22,320	949,974	561,369
-25,052	22,420	948,971	561,075
-24,038	22,341	948,640	560,603
-23,023	22,307	948,117	560,163
-22,009	22,425	947,244	560,001
-20,994	22,402	946,697	559,583
-19,979	22,391	946,130	559,190
-18,965	22,363	945,532	558,725
-17,950	22,425	944,718	558,421
-16,936	22,289	944,282	557,706
-15,921	22,354	943,432	557,388
-14,906	22,293	942,690	556,733
-13,892	22,234	941,986	556,107
-12,877	22,233	941,470	555,777
-11,863	22,214	940,891	555,354
-10,848	22,225	940,320	555,030
-9,833	22,348	939,883	555,141
-8,819	22,299	939,254	554,592
-7,804	22,293	938,546	554,131
-6,790	22,217	937,989	553,540
-5,775	22,287	937,230	553,292
-4,760	22,298	936,578	552,920
-3,746	22,288	936,112	552,592
-2,731	22,091	935,560	551,623
-1,717	22,003	934,954	550,965
-0,702	22,031	934,092	550,523
0,313	21,869	933,411	550,443
1,327	25,073	931,286	559,215
2,342	34,758	795,940	503,735
3,356	32,708	451,659	282,732
4,371	1,594	293,991	152,964
5,386	-2,809	274,779	138,787
6,400	-4,372	269,060	134,434
7,415	-4,826	266,716	132,834
8,429	-4,608	265,464	132,398
9,444	-4,620	264,607	131,948
10,459	-4,645	263,893	131,557
11,473	-4,659	263,338	131,256
12,488	-4,712	262,779	130,918
13,502	-4,926	262,246	130,447
14,517	-4,658	261,868	130,489
15,531	-4,656	261,531	130,312
16,546	-4,622	261,131	130,132
17,561	-4,409	260,675	130,085
18,575	-4,520	260,542	129,906
19,590	-4,681	260,022	129,492
20,604	-4,671	259,938	129,447
21,619	-4,674	259,445	129,187
22,634	-4,654	259,017	128,980
23,648	-4,836	258,846	128,721
24,663	-4,670	258,650	128,760
25,677	-4,691	258,410	128,611
26,692	-4,620	258,025	128,470
27,707	-4,706	257,675	128,208
28,721	-4,862	257,576	128,009
29,736	-4,802	257,260	127,894
30,750	-4,737	257,001	127,812
31,765	-4,834	256,780	127,604
32,780	-4,829	256,689	127,552
33,794	-4,999	256,559	127,326
34,809	-4,748	256,136	127,326
35,823	-5,006	255,868	126,954
36,838	-4,742	255,559	127,022
37,853	-4,900	255,357	126,771
38,867	-4,754	255,199	126,810
39,882	-4,737	254,925	126,677
40,896	-4,851	254,738	126,473
41,911	-4,682	254,415	126,450
42,926	-5,051	254,310	126,063
43,940	-4,645	253,931	126,218
44,955	-4,835	253,867	126,009
45,969	-4,964	253,563	125,735
46,984	-5,231	253,333	125,377
47,999	-5,358	253,101	125,140
49,013	-5,505	252,719	124,812
50,028	-5,535	252,543	124,689
51,042	-5,786	252,363	124,370
52,057	-5,836	252,164	124,218
53,071	-5,731	252,055	124,244
54,086	-5,626	251,657	124,128
55,101	-5,273	251,561	124,375
56,115	-5,212	251,420	124,347
57,130	-4,893	251,376	124,589
58,144	-4,644	251,293	124,752
59,159	-4,622	251,053	124,641
60,174	-4,625	250,811	124,507
61,188	-4,590	250,557	124,400
62,203	-4,585	250,405	124,318
63,217	-4,852	250,389	124,069
64,232	-4,618	249,966	124,049
65,247	-4,795	249,836	123,822
66,261	-4,534	249,549	123,893
67,276	-4,882	249,221	123,421
68,290	-5,151	249,089	123,114
69,305	-5,317	248,934	122,885
70,320	-5,018	248,660	122,994
71,334	-4,824	248,495	123,066
72,349	-4,861	248,517	123,035
73,363	-4,716	248,090	122,936
74,378	-4,619	247,848	122,887
75,393	-4,690	247,778	122,782
76,407	-4,724	247,603	122,655
77,422	-4,697	247,458	122,595
78,436	-4,730	247,257	122,457
79,451	-4,761	246,953	122,269
80,466	-4,900	246,683	122,007
81,480	-4,996	246,562	121,855
82,495	-5,075	246,329	121,662
83,509	-4,999	246,132	121,618
84,524	-4,851	245,929	121,632
85,539	-4,945	245,529	121,344
86,553	-5,145	245,480	121,141
87,568	-5,156	245,369	121,066
88,582	-5,120	245,289	121,046
89,597	-5,057	244,938	120,914
90,611	-5,005	244,741	120,850
91,626	-4,693	244,740	121,100
92,641	-4,940	244,575	120,802
93,655	-4,794	244,335	120,794
94,670	-4,972	244,062	120,499
95,684	-4,865	243,850	120,474
96,699	-4,727	243,674	120,492
97,714	-5,146	243,560	120,074
98,728	-5,039	243,303	120,026
99,743	-5,045	243,034	119,877
100,757	-5,087	242,847	119,740
101,772	-4,969	242,706	119,758
102,787	-5,105	242,420	119,493
103,801	-4,933	242,509	119,669
104,816	-5,034	242,371	119,506
105,830	-4,767	242,045	119,556
106,845	-4,891	242,056	119,449
107,860	-4,816	241,716	119,332
108,874	-4,823	241,558	119,237
109,889	-4,951	241,371	119,029
110,903	-4,838	241,177	119,016
111,918	-5,066	240,972	118,716
112,933	-4,698	240,815	118,931
113,947	-5,039	240,702	118,585
114,962	-4,866	240,493	118,613
115,976	-4,841	240,281	118,519
116,991	-4,859	240,238	118,472
118,006	-4,846	240,030	118,369
119,020	-4,793	240,023	118,399
120,035	-4,802	239,838	118,290
121,049	-4,662	239,588	118,270
122,064	-4,677	239,402	118,156
123,079	-4,708	239,249	118,045
124,093	-4,742	238,962	117,865
125,108	-5,103	238,690	117,425
126,122	-5,231	238,352	117,144
127,137	-5,256	238,278	117,077
128,151	-5,179	238,239	117,110
129,166	-5,088	237,969	117,041
130,181	-5,017	237,768	116,990
131,195	-5,217	237,791	116,828
132,210	-4,959	237,548	116,908
133,224	-4,927	237,444	116,872
134,239	-4,854	237,268	116,834
135,254	-4,878	237,010	116,677
136,268	-4,882	236,818	116,569
137,283	-5,344	236,558	116,057
138,297	-5,382	236,361	115,920
139,312	-5,114	236,077	115,986
140,327	-4,904	236,144	116,178
141,341	-4,712	236,174	116,337
142,356	-4,594	235,947	116,310
143,370	-4,448	235,776	116,333
144,385	-4,401	235,639	116,292
145,400	-4,498	235,403	116,087
146,414	-4,479	235,355	116,069
147,429	-4,632	235,189	115,854
148,443	-4,678	235,081	115,754
149,458	-4,414	234,814	115,823
150,473	-4,533	234,660	115,642
151,487	-4,677	234,417	115,397
152,502	-4,460	234,226	115,465
153,516	-4,449	234,212	115,457
154,531	-4,357	233,994	115,412
155,546	-4,579	233,762	115,111
156,560	-4,802	233,599	114,843
157,575	-4,697	233,331	114,784
158,589	-4,723	233,289	114,733
159,604	-4,500	233,220	114,865
160,619	-4,393	233,126	114,895
161,633	-4,407	232,934	114,779
162,648	-4,447	232,810	114,675
163,662	-4,302	232,443	114,599
164,677	-4,567	232,253	114,285
165,692	-4,567	232,118	114,209
166,706	-4,398	232,069	114,308
167,721	-4,218	231,878	114,347
168,735	-4,105	231,733	114,354
169,750	-4,478	231,775	114,070
170,764	-4,485	231,476	113,907
171,779	-4,508	231,355	113,819
172,794	-4,492	231,290	113,789
173,808	-4,659	231,006	113,508
174,823	-5,101	230,662	112,983
175,837	-4,995	230,398	112,926
176,852	-4,801	230,547	113,141
177,867	-4,366	230,278	113,340
178,881	-4,575	230,318	113,186
179,896	-4,277	230,079	113,291
180,910	-4,445	229,864	113,044
181,925	-4,502	229,725	112,921
182,940	-4,398	229,535	112,899
183,954	-4,295	229,529	112,966
184,969	-4,361	229,283	112,783
185,983	-4,390	229,182	112,701
186,998	-4,365	229,008	112,625
188,013	-4,287	228,876	112,611
189,027	-4,334	228,743	112,499
190,042	-4,184	228,628	112,549
191,056	-4,327	228,421	112,326
192,071	-4,355	228,329	112,249
193,086	-4,355	227,892	112,024
194,100	-4,400	227,911	111,989
195,115	-4,627	227,629	111,664
196,129	-5,637	227,113	110,622
197,144	-2,812	227,929	113,195
198,159	1,750	229,439	117,481
199,173	4,267	229,980	119,703
200,188	4,277	230,068	119,746
201,202	4,418	229,826	119,719
202,217	4,500	229,645	119,677
203,232	4,480	229,627	119,642
204,246	4,807	229,386	119,759
205,261	4,916	229,341	119,809
206,275	5,055	229,256	119,861
207,290	5,263	228,860	119,804
208,304	5,072	228,835	119,633
209,319	4,882	228,667	119,388
210,334	4,983	228,423	119,328
211,348	4,674	228,202	118,964
212,363	4,319	227,934	118,541
213,377	4,082	227,772	118,264
214,392	4,129	227,651	118,226
215,407	4,127	227,496	118,134
216,421	4,264	227,382	118,169
217,436	4,142	227,209	117,976
218,450	3,747	227,104	117,609
219,465	3,768	226,891	117,503
220,480	3,808	226,791	117,471
221,494	3,786	226,593	117,341
222,509	4,083	226,489	117,504
223,523	4,089	226,305	117,403
224,538	3,996	226,129	117,230
225,553	4,163	226,062	117,312
226,567	4,324	225,844	117,311
227,582	4,331	225,713	117,238
228,596	4,308	225,685	117,196
229,611	4,345	225,416	117,073
230,626	4,085	225,195	116,751
231,640	3,840	225,173	116,543
232,655	4,310	224,992	116,795
233,669	4,788	224,959	117,129
234,684	4,732	225,000	117,098
235,699	4,509	224,749	116,788
236,713	4,339	224,444	116,491
237,728	4,158	224,236	116,236
238,742	4,116	224,121	116,134
239,757	4,041	223,984	115,997
240,772	3,966	223,855	115,863
241,786	3,903	223,749	115,751
242,801	4,101	223,623	115,824
243,815	4,497	223,483	116,038
244,830	4,482	223,329	115,937
245,844	4,160	223,152	115,593
246,859	4,205	222,886	115,479
247,874	4,350	222,806	115,536
248,888	4,322	222,764	115,483
249,903	4,176	222,500	115,226
250,917	4,249	222,344	115,190
251,932	4,275	222,229	115,139
252,947	4,246	222,127	115,054
253,961	4,169	221,917	114,878
254,976	4,276	221,797	114,886
255,990	4,086	221,744	114,707
257,005	4,335	221,545	114,779
258,020	4,389	221,339	114,702
259,034	4,463	221,410	114,783
260,049	4,215	221,280	114,522
261,063	4,138	221,134	114,378
262,078	4,649	220,886	114,619
263,093	4,359	220,794	114,346
264,107	4,431	220,647	114,313
265,122	4,614	220,416	114,318
266,136	4,697	220,435	114,380
267,151	4,545	220,350	114,213
268,166	3,868	220,095	113,570
269,180	4,033	219,871	113,567
270,195	4,094	219,581	113,451
271,209	4,128	219,509	113,429
272,224	4,021	219,476	113,324
273,239	4,331	219,179	113,388
274,253	4,201	219,037	113,209
275,268	3,731	218,954	112,811
276,282	3,771	218,757	112,729
277,297	3,907	218,529	112,701
278,312	3,577	218,570	112,470
279,326	4,088	218,413	112,753
280,341	4,033	218,298	112,643
281,355	4,050	218,175	112,582
282,370	4,223	217,888	112,550
283,384	3,910	217,778	112,255
284,399	3,861	217,609	112,122
285,414	4,040	217,542	112,209
286,428	4,087	217,478	112,200
287,443	4,155	217,265	112,129
288,457	4,259	217,183	112,152
289,472	4,212	216,862	111,942
290,487	3,428	216,845	111,354
291,501	3,565	216,664	111,351
292,516	3,816	216,409	111,391
293,530	3,901	216,533	111,508
294,545	3,846	216,231	111,302
295,560	4,125	216,162	111,459
296,574	4,008	216,068	111,315
297,589	4,000	215,889	111,208
298,603	4,083	215,831	111,228
299,618	4,248	215,657	111,247
300,633	4,084	215,610	111,094
301,647	4,148	215,615	111,133
302,662	4,288	215,339	111,083
303,676	4,495	215,154	111,126
304,691	4,257	215,162	110,949
305,706	4,414	214,908	110,921
306,720	4,455	214,714	110,840
307,735	4,183	214,579	110,566
308,749	3,772	214,451	110,195
309,764	4,009	214,487	110,374
310,779	4,249	214,201	110,388
311,793	4,300	213,998	110,311
312,808	4,340	213,721	110,187
313,822	4,172	213,835	110,115
314,837	4,148	213,572	109,953
315,852	4,060	213,318	109,750
316,866	4,149	213,099	109,690
317,881	4,306	213,260	109,875
318,895	4,289	213,066	109,754
319,910	4,187	212,933	109,602
320,925	3,880	212,614	109,210
321,939	3,629	212,513	108,971
322,954	3,735	212,439	108,999
323,968	4,222	212,351	109,289
324,983	4,080	212,330	109,168
325,997	4,198	212,069	109,107
327,012	4,287	211,845	109,045
328,027	4,230	211,901	109,024
329,041	4,526	211,771	109,157
330,056	4,378	211,607	108,958
331,070	4,246	211,405	108,751
332,085	3,869	211,274	108,408
333,100	3,854	210,967	108,231
334,114	4,261	210,903	108,475
335,129	4,300	210,788	108,433
336,143	4,135	210,584	108,202
337,158	4,108	210,441	108,100
338,173	3,913	210,423	107,944
339,187	3,689	210,314	107,722
340,202	3,688	210,142	107,624
341,216	3,696	209,988	107,540
342,231	3,940	209,836	107,624
343,246	3,816	209,753	107,485
344,260	4,003	209,594	107,524
345,275	4,047	209,509	107,503
346,289	4,166	209,386	107,512
347,304	4,285	209,242	107,512
348,319	3,678	209,261	107,089
349,333	4,034	209,008	107,198
350,348	3,904	208,952	107,069
351,362	4,409	208,709	107,286
352,377	4,285	208,629	107,149
353,392	3,875	208,557	106,818
354,406	4,033	208,357	106,816
355,421	192,990	1346,009	1431,819
356,435	153,943	1484,715	1431,938
