DTS Sentinel unit serial number:	SN410029Multiplexer serial number:	ORYXHardware model number:	OX2-SRSoftware version number:	ORYX F/W v4,00 Oryx Data Collector v3.7.2.0data status	okinstallation	B6 Nyhavnadifferential loss correction	single-endedforward channel	channel 2reverse channel	N/Adate	2023/12/08time	16:35:08forward acquisition time	300,00reverse acquisition time	0,00gamma	499,1914k internal	0,3159k external	0,3159temperature offset calibration	1,0000default loss term (dB/km)	0,3820temperature slope calibration	1,0000multiplexer offset coefficient	1,0000multiplexer slope coefficient	1,0000fibre end	0,00T internal ref (°C)	15,12T ext. ref 1 (°C)	-1,42T ext. ref 2 (°C)	-1,42length (m)	temperature (°C)	Stokes	anti-Stokes-744,400	800,000	0,028	0,060
-743,385	-175,165	-0,237	0,005
-742,371	-113,295	0,300	-0,043
-741,356	-151,326	-0,327	0,018
-740,342	-104,412	0,152	0,026
-739,327	-77,266	-0,342	-0,087
-738,312	800,000	0,029	0,070
-737,298	-48,874	-0,321	-0,113
-736,283	69,695	0,105	-0,080
-735,269	-123,941	-0,263	0,030
-734,254	-57,259	0,057	-0,018
-733,239	-25,871	-0,489	-0,211
-732,225	-109,651	0,234	0,036
-731,210	800,000	-0,016	-0,046
-730,196	-200,000	-0,003	-0,040
-729,181	400,411	-0,118	-0,183
-728,167	-200,000	-0,022	-0,117
-727,152	-183,192	-0,190	-0,002
-726,137	275,177	-0,093	-0,122
-725,123	66,025	-0,040	0,030
-724,108	-200,000	0,002	0,031
-723,094	-22,109	-0,103	-0,046
-722,079	-56,732	-0,147	-0,047
-721,064	9,071	-0,037	0,021
-720,050	191,774	-0,050	0,055
-719,035	-30,723	-0,082	0,034
-718,021	-200,000	-0,022	0,000
-717,006	-200,000	0,007	-0,095
-715,991	204,080	-0,084	-0,096
-714,977	259,794	0,059	-0,075
-713,962	231,252	0,021	-0,025
-712,948	-200,000	0,004	-0,025
-711,933	141,194	-0,022	-0,021
-710,918	26,681	-0,175	-0,108
-709,904	-200,000	-0,011	-0,072
-708,889	-200,000	0,020	-0,084
-707,875	-200,000	-0,040	0,171
-706,860	20,060	0,036	-0,021
-705,845	-124,473	-0,057	-0,006
-704,831	123,587	-0,046	-0,042
-703,816	-82,554	-0,130	0,031
-702,802	-161,457	0,076	-0,003
-701,787	-72,246	0,114	-0,031
-700,772	-119,231	0,028	-0,004
-699,758	-110,780	-0,072	-0,011
-698,743	154,772	0,020	-0,020
-697,729	800,000	0,023	0,053
-696,714	-96,205	-0,111	0,021
-695,699	-200,000	0,000	0,051
-694,685	211,992	-0,058	0,068
-693,670	-58,002	-0,166	-0,053
-692,656	-121,451	0,109	0,013
-691,641	393,065	0,018	0,027
-690,627	158,359	0,075	0,076
-689,612	-142,918	-0,132	-0,009
-688,597	-200,000	0,008	0,044
-687,583	363,287	0,010	-0,016
-686,568	79,677	-0,057	-0,045
-685,554	136,754	0,029	0,028
-684,539	-200,000	-0,004	-0,232
-683,524	192,921	0,105	0,117
-682,510	-15,103	0,223	-0,104
-681,495	800,000	-0,071	-0,160
-680,481	-200,000	0,015	-0,111
-679,466	254,028	0,032	-0,041
-678,451	800,000	0,054	-0,175
-677,437	480,039	0,031	-0,051
-676,422	-200,000	-0,028	0,103
-675,408	800,000	-0,034	0,095
-674,393	578,318	-0,060	-0,108
-673,378	419,243	0,016	0,026
-672,364	-55,330	-0,133	0,043
-671,349	-200,000	-0,003	-0,181
-670,335	-200,000	0,010	-0,096
-669,320	-200,000	0,016	0,193
-668,305	194,846	-0,119	0,133
-667,291	476,180	0,111	-0,185
-666,276	-77,662	-0,328	0,083
-665,262	800,000	-0,025	-0,066
-664,247	457,109	0,021	-0,034
-663,232	-42,623	-0,078	-0,029
-662,218	306,494	-0,025	0,034
-661,203	274,366	-0,027	-0,036
-660,189	-200,000	0,021	-0,077
-659,174	685,357	-0,025	0,047
-658,159	800,000	-0,039	0,086
-657,145	263,595	-0,076	-0,097
-656,130	359,129	-0,104	0,153
-655,116	-200,000	-0,037	0,138
-654,101	145,052	0,071	0,070
-653,086	-200,000	-0,025	-0,119
-652,072	107,586	-0,165	-0,144
-651,057	-50,256	-0,139	-0,048
-650,043	-200,000	-0,029	-0,154
-649,028	219,806	0,059	0,069
-648,014	-200,000	-0,017	0,074
-646,999	-200,000	-0,009	0,086
-645,984	323,319	0,069	0,097
-644,970	-200,000	0,005	-0,072
-643,955	35,693	-0,112	-0,072
-642,941	574,271	-0,068	-0,122
-641,926	-11,722	0,037	0,018
-640,911	-43,924	0,133	0,049
-639,897	136,625	-0,160	-0,154
-638,882	-200,000	-0,009	0,093
-637,868	-200,000	-0,019	-0,102
-636,853	-200,000	-0,017	-0,060
-635,838	7,537	-0,057	-0,031
-634,824	69,681	-0,050	-0,037
-633,809	800,000	-0,044	0,116
-632,795	177,639	-0,049	-0,052
-631,780	543,288	-0,041	0,073
-630,765	-195,332	0,148	0,001
-629,751	800,000	0,023	0,058
-628,736	14,579	-0,126	-0,072
-627,722	218,357	-0,048	-0,057
-626,707	58,307	-0,049	0,035
-625,692	-200,000	0,041	0,160
-624,678	-200,000	0,044	-0,167
-623,663	120,706	0,040	0,036
-622,649	73,730	-0,043	-0,033
-621,634	-200,000	-0,024	0,088
-620,619	-115,819	-0,135	0,018
-619,605	-66,060	0,138	-0,040
-618,590	298,203	-0,044	-0,059
-617,576	-200,000	-0,013	0,242
-616,561	-148,359	-0,075	0,004
-615,546	800,000	0,043	-0,088
-614,532	-105,494	-0,064	0,011
-613,517	-131,924	0,027	-0,003
-612,503	-54,972	0,120	0,039
-611,488	-10,761	0,059	0,028
-610,474	290,055	-0,034	0,046
-609,459	-94,662	0,054	0,011
-608,444	611,703	-0,068	0,125
-607,430	-71,002	-0,107	-0,029
-606,415	428,475	0,124	-0,197
-605,401	-200,000	-0,026	-0,149
-604,386	-1,227	-0,089	0,046
-603,371	582,774	-0,071	0,129
-602,357	-94,450	-0,153	0,030
-601,342	-152,752	-0,078	0,004
-600,328	563,315	-0,102	-0,182
-599,313	-27,607	-0,029	0,012
-598,298	-0,072	-0,071	0,037
-597,284	800,000	-0,023	-0,050
-596,269	-200,000	-0,012	-0,059
-595,255	588,083	0,061	-0,111
-594,240	-87,214	-0,019	-0,004
-593,225	29,080	-0,139	-0,086
-592,211	204,066	-0,007	-0,008
-591,196	800,000	0,039	-0,121
-590,182	-30,323	0,044	-0,018
-589,167	800,000	0,036	0,084
-588,152	-200,000	0,002	0,186
-587,138	-72,210	-0,087	-0,023
-586,123	412,207	0,056	0,088
-585,109	-200,000	0,024	-0,085
-584,094	370,096	0,066	-0,099
-583,079	285,829	-0,086	-0,114
-582,065	2,995	-0,036	-0,019
-581,050	71,832	-0,183	0,139
-580,036	-200,000	0,005	-0,117
-579,021	-200,000	-0,051	-0,175
-578,006	210,101	0,059	-0,068
-576,992	-97,155	-0,048	0,009
-575,977	-200,000	0,102	0,000
-574,963	352,262	-0,079	0,116
-573,948	189,242	0,077	0,085
-572,934	636,413	-0,061	0,114
-571,919	-200,000	0,023	0,078
-570,904	-200,000	0,011	0,178
-569,890	-200,000	-0,024	-0,154
-568,875	-69,609	0,139	0,039
-567,861	-200,000	-0,001	-0,090
-566,846	-200,000	0,004	0,013
-565,831	-92,292	-0,059	0,012
-564,817	-64,317	0,077	0,023
-563,802	70,084	-0,071	0,053
-562,788	185,526	-0,084	0,092
-561,773	-200,000	0,038	-0,164
-560,758	800,000	-0,040	-0,090
-559,744	149,041	0,086	0,085
-558,729	-5,363	0,090	-0,045
-557,715	230,143	0,048	-0,058
-556,700	302,245	-0,096	0,130
-555,685	-8,696	-0,122	-0,060
-554,671	362,633	0,130	-0,191
-553,656	-200,000	0,003	-0,154
-552,642	86,044	0,062	0,050
-551,627	247,809	0,074	0,092
-550,612	50,305	0,074	0,051
-549,598	-4,454	-0,049	-0,025
-548,583	-81,884	-0,077	0,018
-547,569	-200,000	-0,001	0,019
-546,554	85,305	-0,115	0,092
-545,539	-99,596	0,090	0,016
-544,525	-50,973	0,081	0,028
-543,510	42,377	0,080	-0,053
-542,496	301,657	0,046	-0,062
-541,481	-55,303	-0,088	-0,029
-540,466	13,907	0,033	0,019
-539,452	203,999	-0,050	0,057
-538,437	198,151	-0,070	0,078
-537,423	152,660	-0,052	-0,052
-536,408	-96,916	-0,036	-0,007
-535,393	-200,000	0,002	-0,027
-534,379	22,827	-0,004	-0,002
-533,364	-158,373	-0,089	0,004
-532,350	-200,000	0,004	-0,026
-531,335	-200,000	0,003	0,050
-530,321	197,209	0,064	0,071
-529,306	155,626	-0,160	-0,161
-528,291	38,010	0,051	-0,033
-527,277	325,252	-0,036	-0,051
-526,262	84,184	0,072	0,058
-525,248	-64,543	0,046	-0,014
-524,233	108,503	0,145	0,126
-523,218	459,347	-0,153	-0,249
-522,204	-31,562	-0,079	-0,032
-521,189	11,426	-0,047	0,026
-520,175	79,175	-0,031	-0,024
-519,160	-32,889	-0,174	0,070
-518,145	800,000	0,015	0,046
-517,131	88,242	0,036	0,029
-516,116	-173,110	-0,036	-0,001
-515,102	414,217	-0,105	-0,164
-514,087	-78,027	0,106	-0,026
-513,072	-200,000	0,017	-0,075
-512,058	-125,787	0,056	-0,006
-511,043	152,617	0,017	-0,016
-510,029	-133,524	0,090	-0,008
-509,014	-200,000	0,002	0,133
-507,999	800,000	-0,062	0,189
-506,985	224,809	-0,023	0,027
-505,970	-131,012	0,124	-0,012
-504,956	-26,668	-0,164	-0,070
-503,941	78,487	0,095	-0,074
-502,926	173,283	-0,135	0,143
-501,912	-200,000	0,005	0,024
-500,897	-200,000	0,010	0,063
-499,883	-200,000	-0,012	0,130
-498,868	800,000	0,022	-0,053
-497,853	-118,138	-0,044	0,006
-496,839	342,002	0,069	0,099
-495,824	-200,000	0,008	0,073
-494,810	20,890	-0,055	-0,032
-493,795	-200,000	0,004	-0,078
-492,781	-60,287	-0,179	-0,055
-491,766	-30,194	0,129	0,053
-490,751	35,926	0,057	-0,036
-489,737	308,511	-0,045	-0,061
-488,722	-200,000	0,016	0,110
-487,708	-168,424	0,121	0,003
-486,693	-112,346	-0,143	-0,021
-485,678	147,798	0,070	0,069
-484,664	62,634	-0,061	0,045
-483,649	-68,719	0,062	0,017
-482,635	23,303	0,151	-0,090
-481,620	642,158	0,074	-0,138
-480,605	106,737	0,071	-0,061
-479,591	-134,804	0,018	0,002
-478,576	9,256	-0,022	0,012
-477,562	103,943	-0,136	-0,117
-476,547	800,000	-0,021	-0,056
-475,532	566,238	-0,026	-0,047
-474,518	-4,896	0,105	0,053
-473,503	149,310	0,008	-0,008
-472,489	-40,712	-0,179	0,067
-471,474	-45,373	-0,095	-0,034
-470,459	-66,217	-0,062	-0,018
-469,445	800,000	0,026	0,067
-468,430	-43,482	-0,094	0,034
-467,416	247,720	0,069	0,085
-466,401	-106,349	-0,032	0,005
-465,386	-200,000	0,021	0,140
-464,372	-97,953	0,094	0,018
-463,357	800,000	-0,013	0,041
-462,343	-108,286	-0,036	0,006
-461,328	-6,265	-0,094	-0,047
-460,313	610,566	0,071	0,130
-459,299	24,159	0,170	0,102
-458,284	800,000	0,055	-0,117
-457,270	-46,667	-0,170	0,060
-456,255	78,288	-0,073	-0,057
-455,241	800,000	0,046	-0,129
-454,226	-69,470	-0,135	-0,037
-453,211	-97,777	0,020	0,004
-452,197	630,711	-0,023	-0,042
-451,182	575,048	-0,047	-0,083
-450,168	-138,311	0,083	0,007
-449,153	-148,517	-0,196	-0,011
-448,138	-200,000	0,047	-0,194
-447,124	309,700	0,079	-0,108
-446,109	-200,000	-0,005	0,067
-445,095	152,009	0,107	-0,106
-444,080	800,000	-0,034	0,069
-443,065	474,841	-0,030	0,050
-442,051	408,159	0,033	-0,050
-441,036	-200,000	-0,006	0,041
-440,022	-90,458	-0,090	0,019
-439,007	-46,907	-0,053	0,019
-437,992	800,000	0,014	0,039
-436,978	0,999	0,078	0,040
-435,963	215,917	0,089	-0,103
-434,949	308,587	-0,065	-0,088
-433,934	401,692	-0,066	0,101
-432,919	-94,899	-0,042	0,008
-431,905	38,590	-0,056	-0,036
-430,890	-43,001	0,050	-0,018
-429,876	800,000	0,031	0,064
-428,861	-200,000	-0,007	0,031
-427,846	96,609	-0,039	0,032
-426,832	-125,584	-0,094	-0,010
-425,817	-200,000	0,008	0,030
-424,803	-200,000	0,029	0,098
-423,788	65,261	0,132	-0,097
-422,773	243,740	-0,075	-0,092
-421,759	-200,000	-0,046	-0,162
-420,744	-139,249	0,177	0,014
-419,730	-200,000	-0,022	-0,102
-418,715	-44,021	-0,051	-0,018
-417,701	-200,000	-0,000	-0,049
-416,686	800,000	-0,027	-0,062
-415,671	-45,412	0,063	0,023
-414,657	-117,437	0,125	0,016
-413,642	9,014	-0,096	0,053
-412,628	45,290	-0,113	-0,076
-411,613	-200,000	0,000	-0,016
-410,598	-200,000	0,003	-0,036
-409,584	-200,000	0,007	-0,084
-408,569	108,140	0,054	-0,046
-407,555	-200,000	0,006	0,031
-406,540	-36,237	0,132	0,052
-405,525	475,144	0,049	-0,081
-404,511	744,363	-0,036	-0,072
-403,496	441,729	-0,026	-0,041
-402,482	-61,762	0,104	-0,031
-401,467	182,752	0,084	-0,090
-400,452	-143,987	0,014	0,001
-399,438	-58,268	-0,063	-0,020
-398,423	-60,600	0,184	-0,056
-397,409	-61,973	0,091	-0,028
-396,394	510,706	-0,028	0,047
-395,379	100,034	0,133	0,112
-394,365	-148,157	0,206	0,012
-393,350	42,680	0,104	0,069
-392,336	-19,756	-0,070	0,032
-391,321	-165,262	-0,033	-0,001
-390,306	800,000	-0,084	-0,214
-389,292	-61,612	-0,091	0,027
-388,277	-200,000	0,014	-0,053
-387,263	-48,115	-0,107	0,037
-386,248	152,371	-0,046	0,046
-385,233	87,658	0,195	0,157
-384,219	-187,625	0,037	-0,000
-383,204	120,050	-0,073	-0,065
-382,190	172,972	-0,061	0,064
-381,175	-38,172	-0,050	-0,019
-380,160	-88,489	0,068	0,015
-379,146	-97,338	0,225	0,042
-378,131	54,593	-0,060	0,042
-377,117	238,550	0,046	-0,056
-376,102	-34,015	-0,033	-0,013
-375,088	400,385	-0,079	-0,120
-374,073	697,603	0,050	-0,096
-373,058	-200,000	-0,008	0,116
-372,044	-200,000	0,011	0,160
-371,029	552,344	0,101	0,177
-370,015	94,710	-0,009	0,007
-369,000	-128,647	0,043	-0,004
-367,985	479,875	0,078	-0,129
-366,971	-200,000	-0,005	0,026
-365,956	724,626	-0,032	-0,062
-364,942	800,000	0,046	0,146
-363,927	-200,000	0,029	0,142
-362,912	-200,000	0,002	-0,121
-361,898	312,797	0,040	-0,055
-360,883	800,000	0,048	-0,139
-359,869	-95,876	-0,058	0,011
-358,854	-200,000	0,020	-0,067
-357,839	576,190	0,036	0,064
-356,825	41,025	-0,181	0,118
-355,810	-200,000	0,009	-0,071
-354,796	-36,130	0,038	-0,015
-353,781	488,636	0,013	-0,021
-352,766	-200,000	0,004	-0,016
-351,752	-27,704	0,130	-0,055
-350,737	8,269	0,167	0,091
-349,723	-79,007	0,070	0,017
-348,708	-200,000	-0,001	-0,069
-347,693	177,691	0,020	-0,022
-346,679	-200,000	0,016	0,058
-345,664	-103,381	0,113	0,019
-344,650	468,750	0,033	0,053
-343,635	-158,056	-0,063	-0,003
-342,620	201,258	-0,029	0,032
-341,606	-144,739	-0,018	0,001
-340,591	-20,709	0,040	0,018
-339,577	-200,000	-0,002	0,010
-338,562	29,917	-0,099	0,061
-337,548	113,080	0,056	0,049
-336,533	332,353	0,022	0,031
-335,518	-200,000	0,031	-0,144
-334,504	-200,000	0,002	-0,088
-333,489	395,175	-0,034	0,052
-332,475	184,670	0,016	0,017
-331,460	-91,774	-0,124	-0,025
-330,445	-51,033	0,038	-0,013
-329,431	-125,713	-0,062	0,007
-328,416	800,000	-0,054	0,161
-327,402	-72,662	0,054	0,014
-326,387	800,000	0,072	-0,163
-325,372	24,491	-0,099	0,059
-324,358	389,425	-0,059	-0,089
-323,343	192,904	-0,050	-0,054
-322,329	-41,503	0,100	0,037
-321,314	-200,000	0,005	0,070
-320,299	-200,000	0,012	0,118
-319,285	253,434	0,027	-0,033
-318,270	787,882	-0,035	-0,069
-317,256	-35,202	-0,121	0,047
-316,241	-200,000	0,002	0,108
-315,226	-152,386	-0,069	0,004
-314,212	94,966	0,066	0,054
-313,197	507,570	-0,052	0,088
-312,183	-200,000	0,001	0,095
-311,168	152,457	-0,094	-0,093
-310,153	36,305	-0,063	-0,040
-309,139	-200,000	0,003	0,102
-308,124	341,067	0,105	0,149
-307,110	492,423	-0,017	0,028
-306,095	31,874	0,101	0,063
-305,080	-200,000	0,008	0,224
-304,066	-200,000	-0,007	-0,118
-303,051	800,000	-0,082	-0,164
-302,037	8,298	0,131	-0,071
-301,022	39,738	-0,091	0,059
-300,008	800,000	0,064	-0,134
-298,993	-200,000	0,006	-0,091
-297,978	6,865	0,065	-0,035
-296,964	38,610	-0,166	-0,107
-295,949	-130,770	-0,081	0,008
-294,935	362,300	-0,081	0,119
-293,920	-200,000	0,005	0,088
-292,905	-200,000	0,021	-0,089
-291,891	800,000	-0,054	0,115
-290,876	800,000	-0,039	-0,104
-289,862	-101,165	0,102	0,018
-288,847	383,673	-0,096	-0,144
-287,832	332,419	0,073	-0,103
-286,818	800,000	-0,018	-0,055
-285,803	-121,778	-0,057	-0,007
-284,789	-163,309	0,099	-0,003
-283,774	-65,244	0,102	0,030
-282,759	-115,301	-0,067	-0,009
-281,745	800,000	-0,039	-0,107
-280,730	-119,615	0,077	-0,010
-279,716	800,000	-0,031	0,065
-278,701	-0,216	0,088	0,045
-277,686	-61,517	0,124	0,038
-276,672	-128,866	-0,038	-0,004
-275,657	-144,768	-0,075	-0,005
-274,643	-3,153	0,137	-0,069
-273,628	800,000	-0,061	0,126
-272,613	194,443	0,098	0,108
-271,599	674,439	0,047	0,089
-270,584	-22,201	0,099	0,043
-269,570	28,160	0,087	0,053
-268,555	169,955	-0,036	0,038
-267,540	412,778	0,044	-0,067
-266,526	800,000	0,033	-0,077
-265,511	-16,460	0,067	-0,031
-264,497	562,298	0,059	0,103
-263,482	200,538	0,037	0,042
-262,467	-88,062	0,059	0,013
-261,453	800,000	-0,081	0,168
-260,438	800,000	-0,037	-0,091
-259,424	-200,000	0,003	-0,060
-258,409	-200,000	-0,010	0,058
-257,395	-200,000	-0,008	-0,060
-256,380	-200,000	-0,013	0,081
-255,365	118,178	0,092	-0,082
-254,351	-200,000	0,023	0,075
-253,336	646,015	-0,028	-0,051
-252,322	-200,000	-0,002	0,039
-251,307	-200,000	-0,014	-0,054
-250,292	-140,711	0,151	-0,011
-249,278	-200,000	0,000	0,047
-248,263	439,935	-0,036	0,056
-247,249	-200,000	0,015	0,090
-246,234	440,055	-0,045	-0,072
-245,219	-200,000	-0,039	-0,143
-244,205	-32,176	-0,091	-0,036
-243,190	39,681	0,097	0,063
-242,176	-126,161	-0,107	-0,011
-241,161	215,124	0,032	-0,037
-240,146	-173,426	-0,090	0,002
-239,132	-200,000	0,006	0,043
-238,117	131,098	0,111	-0,103
-237,103	-200,000	0,011	0,094
-236,088	800,000	0,018	-0,042
-235,073	800,000	0,038	-0,113
-234,059	-200,000	0,002	0,168
-233,044	-176,020	0,140	0,003
-232,030	-104,461	0,123	-0,020
-231,015	225,435	-0,086	0,100
-230,000	-200,000	-0,000	-0,103
-228,986	-78,202	-0,111	0,027
-227,971	-200,000	0,021	0,130
-226,957	800,000	-0,054	0,148
-225,942	-133,050	-0,101	-0,009
-224,927	24,946	0,057	0,034
-223,913	-7,883	-0,099	0,048
-222,898	218,356	0,065	-0,076
-221,884	800,000	-0,063	-0,156
-220,869	-18,814	0,031	-0,014
-219,855	265,488	-0,054	-0,068
-218,840	800,000	0,019	0,044
-217,825	110,615	-0,059	-0,051
-216,811	-3,318	-0,115	0,058
-215,796	-79,318	0,063	0,015
-214,782	-200,000	-0,012	-0,049
-213,767	651,491	-0,042	0,077
-212,752	221,256	0,034	0,039
-211,738	28,167	-0,055	0,033
-210,723	800,000	-0,021	0,049
-209,709	9,275	0,097	-0,053
-208,694	-34,494	-0,098	0,039
-207,679	-92,324	0,051	0,010
-206,665	-163,554	0,123	0,004
-205,650	16,310	-0,089	0,050
-204,636	187,677	0,047	0,051
-203,621	179,924	-0,046	0,049
-202,606	-200,000	-0,004	-0,030
-201,592	-120,477	-0,083	-0,010
-200,577	-200,000	0,006	-0,050
-199,563	800,000	0,062	0,141
-198,548	-110,004	0,075	0,011
-197,533	182,937	0,017	-0,018
-196,519	-200,000	-0,015	0,063
-195,504	46,691	-0,069	-0,046
-194,490	800,000	0,035	0,089
-193,475	-200,000	-0,007	-0,185
-192,460	-23,428	0,119	0,051
-191,446	287,760	-0,083	0,109
-190,431	356,023	0,123	0,177
-189,417	-54,224	0,130	0,042
-188,402	-118,033	-0,049	-0,006
-187,387	-200,000	-0,015	-0,079
-186,373	-35,320	-0,101	-0,039
-185,358	-92,522	-0,026	0,005
-184,344	110,750	0,046	-0,040
-183,329	-200,000	-0,020	0,169
-182,315	242,507	0,030	0,036
-181,300	-200,000	0,009	-0,172
-180,285	124,552	-0,129	-0,117
-179,271	146,762	0,038	-0,037
-178,256	-157,407	-0,106	-0,005
-177,242	-180,079	-0,067	-0,001
-176,227	-200,000	0,004	0,133
-175,212	-123,445	0,093	0,011
-174,198	459,399	0,021	-0,034
-173,183	302,693	-0,048	-0,064
-172,169	123,081	-0,186	-0,168
-171,154	-46,186	0,095	0,033
-170,139	305,993	0,062	0,083
-169,125	800,000	0,063	-0,129
-168,110	-69,104	-0,024	0,007
-167,096	-200,000	-0,007	-0,034
-166,081	-31,466	-0,049	0,020
-165,066	637,729	-0,012	-0,023
-164,052	110,385	0,051	0,044
-163,037	214,377	0,093	-0,107
-162,023	-20,418	0,104	0,046
-161,008	-157,369	0,073	0,003
-159,993	-200,000	-0,028	0,147
-158,979	-24,189	-0,169	-0,072
-157,964	82,757	0,031	0,024
-156,950	800,000	-0,016	0,035
-155,935	800,000	0,006	-0,014
-154,920	800,000	0,013	0,032
-153,906	28,080	-0,025	0,015
-152,891	800,000	-0,005	-0,010
-151,877	160,124	0,054	0,054
-150,862	-113,206	-0,107	-0,015
-149,847	63,808	0,122	-0,088
-148,833	-80,314	-0,062	0,015
-147,818	800,000	-0,043	0,109
-146,804	31,122	-0,079	-0,049
-145,789	-42,716	0,030	0,011
-144,775	-200,000	0,017	-0,073
-143,760	312,963	-0,038	-0,052
-142,745	800,000	-0,041	0,119
-141,731	-4,663	-0,071	0,035
-140,716	-66,752	0,156	-0,044
-139,702	-200,000	0,013	0,072
-138,687	800,000	0,078	0,201
-137,672	-135,363	-0,170	-0,014
-136,658	279,356	0,033	-0,043
-135,643	-114,397	-0,028	-0,004
-134,629	-109,406	-0,009	-0,001
-133,614	-200,000	0,023	0,210
-132,599	-60,644	-0,085	-0,026
-131,585	-200,000	-0,023	0,113
-130,570	-156,403	-0,122	0,005
-129,556	800,000	0,065	-0,157
-128,541	-74,588	-0,118	-0,030
-127,526	-74,159	0,067	0,017
-126,512	-64,503	-0,066	0,019
-125,497	260,222	0,063	0,078
-124,483	-80,211	0,046	0,011
-123,468	256,200	-0,156	0,192
-122,453	800,000	-0,063	-0,151
-121,439	800,000	0,020	-0,061
-120,424	-200,000	0,003	0,013
-119,410	703,140	-0,029	-0,054
-118,395	-200,000	-0,009	0,054
-117,380	-38,387	-0,010	-0,004
-116,366	-66,229	0,134	0,038
-115,351	800,000	-0,088	0,198
-114,337	-200,000	-0,001	0,007
-113,322	-93,808	-0,085	0,017
-112,307	104,287	-0,043	0,037
-111,293	-134,702	0,065	0,006
-110,278	-200,000	0,006	0,041
-109,264	-113,862	0,047	0,007
-108,249	-1,781	-0,096	0,048
-107,234	-45,604	0,066	0,023
-106,220	629,782	0,072	-0,131
-105,205	800,000	-0,029	-0,088
-104,191	423,322	0,072	0,111
-103,176	142,997	0,177	0,169
-102,162	-28,790	-0,058	-0,024
-101,147	-200,000	0,021	-0,072
-100,132	792,739	0,048	-0,095
-99,118	-142,482	0,030	0,002
-98,103	800,000	-0,076	0,152
-97,089	-51,202	0,059	-0,020
-96,074	-74,483	-0,069	-0,018
-95,059	-200,000	0,030	0,106
-94,045	800,000	-0,071	0,168
-93,030	-92,399	0,122	0,025
-92,016	798,561	0,088	0,176
-91,001	72,598	0,018	0,014
-89,986	-200,000	-0,010	0,139
-88,972	-200,000	0,019	-0,111
-87,957	-189,999	-0,114	-0,001
-86,943	800,000	-0,074	-0,154
-85,928	800,000	-0,035	-0,087
-84,913	-53,071	0,113	0,037
-83,899	-42,988	0,093	0,034
-82,884	99,669	-0,142	0,118
-81,870	-200,000	0,012	-0,046
-80,855	32,761	0,068	0,042
-79,840	-7,812	0,104	0,050
-78,826	425,415	0,019	0,030
-77,811	129,477	0,056	-0,052
-76,797	-97,697	0,113	-0,021
-75,782	800,000	0,023	0,049
-74,767	-200,000	-0,032	0,108
-73,753	800,000	0,024	-0,050
-72,738	800,000	-0,022	0,066
-71,724	-200,000	-0,024	-0,099
-70,709	13,887	0,026	-0,015
-69,694	-98,950	0,153	0,028
-68,680	-200,000	0,003	0,038
-67,665	50,678	0,085	-0,058
-66,651	-200,000	0,012	0,202
-65,636	800,000	0,052	0,119
-64,622	-200,000	-0,000	0,124
-63,607	-17,215	-0,056	-0,025
-62,592	-200,000	-0,035	0,135
-61,578	-200,000	0,016	-0,146
-60,563	-87,109	-0,048	0,010
-59,549	-200,000	-0,009	0,123
-58,534	21,178	-2,023	-1,175
-57,519	-200,000	-0,098	-0,783
-56,505	-200,000	-1,265	-4,945
-55,490	102,464	0,943	0,791
-54,476	800,000	5,054	11,535
-53,461	-200,000	17,894	289,819
-52,446	800,000	727,427	2225,328
-51,432	533,978	1640,130	2798,401
-50,417	109,006	1629,563	1397,624
-49,403	72,796	1282,881	959,641
-48,388	31,347	1025,736	630,429
-47,373	19,911	988,034	569,603
-46,359	18,222	975,820	557,010
-45,344	15,462	972,055	545,825
-44,330	15,633	970,585	545,536
-43,315	15,170	968,799	543,001
-42,300	15,135	967,710	542,257
-41,286	15,177	966,697	541,802
-40,271	15,135	965,626	541,045
-39,257	15,136	964,909	540,624
-38,242	15,145	964,034	540,141
-37,227	15,205	962,964	539,714
-36,213	15,159	962,300	539,174
-35,198	15,121	961,291	538,462
-34,184	15,157	960,743	538,252
-33,169	15,121	959,721	537,540
-32,154	15,182	958,729	537,161
-31,140	15,108	957,997	536,492
-30,125	15,122	957,293	536,122
-29,111	15,173	956,396	535,760
-28,096	15,242	955,712	535,578
-27,082	15,201	955,097	535,081
-26,067	15,171	954,293	534,513
-25,052	15,145	953,541	533,986
-24,038	15,161	952,964	533,694
-23,023	15,137	952,353	533,254
-22,009	15,126	951,594	532,771
-20,994	15,176	950,980	532,566
-19,979	15,143	950,328	532,076
-18,965	15,124	949,728	531,657
-17,950	15,156	949,017	531,341
-16,936	15,112	948,373	530,819
-15,921	15,155	947,627	530,519
-14,906	15,076	947,050	529,921
-13,892	15,085	946,464	529,601
-12,877	14,996	945,877	528,969
-11,863	15,043	945,055	528,638
-10,848	15,042	944,614	528,368
-9,833	15,129	944,212	528,398
-8,819	15,135	943,515	528,006
-7,804	15,086	942,929	527,500
-6,790	15,059	942,411	527,103
-5,775	15,084	941,728	526,780
-4,760	15,114	940,966	526,430
-3,746	15,111	940,389	526,075
-2,731	14,959	939,733	525,209
-1,717	14,906	939,072	524,649
-0,702	14,864	938,545	524,203
0,313	14,716	937,884	524,158
1,327	18,132	935,699	533,632
2,342	27,340	789,559	474,526
3,356	23,867	444,545	262,009
4,371	-5,723	295,628	144,659
5,386	-9,619	277,259	131,966
6,400	-10,786	271,666	128,207
7,415	-11,041	269,490	126,934
8,429	-11,045	268,054	126,243
9,444	-11,012	267,096	125,811
10,459	-11,071	266,413	125,424
11,473	-11,020	265,845	125,191
12,488	-11,251	265,446	124,782
13,502	-11,536	264,761	124,191
14,517	-11,413	264,377	124,112
15,531	-11,544	264,038	123,823
16,546	-11,354	263,564	123,761
17,561	-11,297	263,166	123,614
18,575	-11,296	262,865	123,462
19,590	-11,395	262,579	123,228
20,604	-11,236	262,351	123,253
21,619	-11,410	261,927	122,887
22,634	-11,353	261,654	122,798
23,648	-11,487	261,167	122,440
24,663	-11,363	261,056	122,488
25,677	-11,328	260,710	122,345
26,692	-11,219	260,489	122,328
27,707	-11,319	260,252	122,117
28,721	-11,314	259,854	121,923
29,736	-11,598	259,657	121,568
30,750	-11,412	259,226	121,521
31,765	-11,397	259,119	121,472
32,780	-11,392	258,880	121,354
33,794	-11,338	258,606	121,263
34,809	-11,374	258,423	121,134
35,823	-11,293	258,081	121,035
36,838	-11,337	257,847	120,875
37,853	-11,340	257,634	120,762
38,867	-11,553	257,384	120,447
39,882	-11,395	257,138	120,460
40,896	-11,657	257,041	120,173
41,911	-11,717	256,739	119,969
42,926	-11,594	256,512	119,960
43,940	-11,490	256,191	119,890
44,955	-11,435	255,994	119,835
45,969	-11,519	255,733	119,630
46,984	-11,784	255,498	119,278
47,999	-12,151	255,292	118,851
49,013	-12,096	255,011	118,758
50,028	-12,366	254,619	118,330
51,042	-12,287	254,446	118,307
52,057	-12,370	254,270	118,143
53,071	-12,276	254,024	118,100
54,086	-12,078	253,921	118,213
55,101	-11,912	253,869	118,322
56,115	-12,051	253,632	118,080
57,130	-11,374	253,530	118,608
58,144	-11,122	253,314	118,714
59,159	-11,275	253,201	118,518
60,174	-11,362	253,034	118,354
61,188	-11,227	252,776	118,339
62,203	-11,070	252,542	118,354
63,217	-11,347	252,377	118,028
64,232	-11,415	252,002	117,784
65,247	-11,357	251,819	117,738
66,261	-11,270	251,749	117,769
67,276	-11,464	251,387	117,423
68,290	-11,942	251,048	116,845
69,305	-11,804	250,728	116,804
70,320	-11,628	250,484	116,830
71,334	-11,603	250,518	116,856
72,349	-11,201	250,540	117,200
73,363	-11,159	250,133	117,034
74,378	-11,334	249,884	116,759
75,393	-11,067	249,655	116,868
76,407	-11,371	249,564	116,557
77,422	-11,430	249,329	116,386
78,436	-11,387	249,187	116,347
79,451	-11,301	248,966	116,306
80,466	-11,420	248,692	116,067
81,480	-11,627	248,467	115,777
82,495	-11,621	248,290	115,689
83,509	-11,817	248,189	115,466
84,524	-11,465	247,872	115,605
85,539	-11,792	247,594	115,189
86,553	-11,735	247,445	115,158
87,568	-11,621	247,356	115,202
88,582	-11,721	247,087	114,982
89,597	-11,705	246,879	114,889
90,611	-11,549	246,636	114,896
91,626	-11,481	246,552	114,904
92,641	-11,464	246,533	114,899
93,655	-11,469	246,205	114,732
94,670	-11,519	246,026	114,596
95,684	-11,501	245,870	114,528
96,699	-11,600	245,661	114,338
97,714	-11,619	245,409	114,195
98,728	-11,741	245,304	114,035
99,743	-11,944	244,928	113,681
100,757	-12,019	244,795	113,547
101,772	-11,812	244,566	113,602
102,787	-11,834	244,478	113,533
103,801	-11,663	244,190	113,530
104,816	-11,689	244,285	113,543
105,830	-11,404	243,985	113,630
106,845	-11,457	244,076	113,618
107,860	-11,345	243,541	113,451
108,874	-11,567	243,319	113,154
109,889	-11,602	243,125	113,025
110,903	-11,665	243,083	112,943
111,918	-11,604	242,699	112,805
112,933	-11,472	242,541	112,830
113,947	-11,615	242,408	112,641
114,962	-11,502	242,232	112,642
115,976	-11,454	242,055	112,589
116,991	-11,580	242,034	112,466
118,006	-11,432	241,813	112,474
119,020	-11,433	241,646	112,386
120,035	-11,402	241,548	112,356
121,049	-11,302	241,431	112,373
122,064	-11,295	241,215	112,268
123,079	-11,444	240,944	112,011
124,093	-11,575	240,730	111,794
125,108	-11,853	240,513	111,457
126,122	-11,944	240,262	111,257
127,137	-11,827	240,020	111,230
128,151	-11,984	239,898	111,036
129,166	-11,850	239,805	111,091
130,181	-11,831	239,499	110,955
131,195	-11,927	239,334	110,791
132,210	-11,667	239,287	110,970
133,224	-11,315	239,067	111,143
134,239	-11,528	238,987	110,924
135,254	-11,445	238,628	110,814
136,268	-11,686	238,447	110,525
137,283	-11,786	238,092	110,271
138,297	-12,107	238,139	110,024
139,312	-11,786	237,743	110,089
140,327	-11,454	237,820	110,382
141,341	-11,101	237,731	110,615
142,356	-11,032	237,649	110,623
143,370	-11,097	237,461	110,473
144,385	-11,026	237,169	110,384
145,400	-11,011	237,157	110,381
146,414	-11,089	236,875	110,177
147,429	-11,222	236,804	110,028
148,443	-11,235	236,537	109,884
149,458	-11,197	236,377	109,830
150,473	-11,193	236,318	109,796
151,487	-11,336	236,006	109,527
152,502	-11,143	235,862	109,605
153,516	-10,978	235,699	109,650
154,531	-11,279	235,645	109,376
155,546	-11,199	235,226	109,235
156,560	-11,286	235,086	109,092
157,575	-11,495	235,010	108,880
158,589	-11,313	234,827	108,930
159,604	-10,957	234,652	109,122
160,619	-10,970	234,509	109,035
161,633	-11,026	234,452	108,955
162,648	-11,139	234,272	108,771
163,662	-11,215	234,035	108,592
164,677	-11,019	233,675	108,570
165,692	-11,099	233,624	108,473
166,706	-10,858	233,543	108,616
167,721	-11,001	233,626	108,532
168,735	-11,011	233,394	108,407
169,750	-11,091	233,204	108,246
170,764	-11,212	233,062	108,075
171,779	-10,974	232,880	108,168
172,794	-11,064	232,869	108,083
173,808	-11,079	232,389	107,838
174,823	-11,665	232,143	107,256
175,837	-11,735	231,948	107,102
176,852	-11,552	232,058	107,286
177,867	-10,924	231,869	107,680
178,881	-11,081	231,717	107,477
179,896	-10,928	231,521	107,496
180,910	-11,186	231,481	107,267
181,925	-11,030	231,209	107,253
182,940	-10,941	231,136	107,278
183,954	-11,009	231,016	107,160
184,969	-10,902	230,866	107,164
185,983	-10,750	230,550	107,126
186,998	-10,782	230,569	107,101
188,013	-10,844	230,395	106,962
189,027	-10,904	230,160	106,797
190,042	-10,877	230,082	106,773
191,056	-10,877	230,055	106,750
192,071	-10,822	229,587	106,566
193,086	-11,067	229,619	106,382
194,100	-10,851	229,471	106,470
195,115	-11,073	229,049	106,094
196,129	-11,073	229,037	106,079
197,144	-5,765	230,739	110,976
198,159	-0,494	232,353	115,849
199,173	2,764	233,352	118,879
200,188	3,309	233,168	119,199
201,202	3,268	233,214	119,180
202,217	3,296	233,096	119,130
203,232	3,806	232,882	119,407
204,246	3,852	232,752	119,365
205,261	3,924	232,599	119,332
206,275	4,018	232,578	119,384
207,290	4,147	232,437	119,400
208,304	3,985	232,341	119,216
209,319	3,832	232,094	118,960
210,334	3,950	231,754	118,866
211,348	3,942	231,617	118,779
212,363	3,267	231,443	118,158
213,377	3,155	231,001	117,835
214,392	3,154	230,979	117,813
215,407	3,283	230,985	117,905
216,421	3,173	230,801	117,716
217,436	3,145	230,808	117,687
218,450	2,886	230,278	117,208
219,465	2,812	230,368	117,186
220,480	3,021	230,056	117,177
221,494	2,725	230,069	116,947
222,509	3,142	229,877	117,158
223,523	3,201	229,669	117,087
224,538	3,102	229,536	116,933
225,553	3,020	229,465	116,824
226,567	3,205	229,224	116,832
227,582	3,638	229,210	117,145
228,596	3,483	229,083	116,951
229,611	3,229	228,801	116,603
230,626	2,945	228,531	116,239
231,640	2,964	228,448	116,201
232,655	3,159	228,497	116,364
233,669	3,747	228,280	116,690
234,684	3,625	228,291	116,593
235,699	3,452	228,059	116,332
236,713	3,242	227,817	116,039
237,728	3,039	227,625	115,776
238,742	3,154	227,296	115,687
239,757	3,155	227,237	115,647
240,772	2,901	227,188	115,419
241,786	3,100	226,934	115,430
242,801	3,277	226,967	115,570
243,815	3,602	226,815	115,728
244,830	3,645	226,728	115,706
245,844	3,287	226,292	115,204
246,859	3,343	226,267	115,223
247,874	3,452	226,103	115,211
248,888	3,480	226,059	115,199
249,903	3,378	225,784	114,973
250,917	3,079	225,600	114,644
251,932	3,088	225,523	114,601
252,947	3,056	225,281	114,444
253,961	2,999	225,076	114,287
254,976	3,265	225,031	114,453
255,990	3,467	225,031	114,594
257,005	3,378	225,026	114,515
258,020	3,338	224,728	114,323
259,034	3,361	224,650	114,290
260,049	3,575	224,574	114,401
261,063	3,399	224,348	114,145
262,078	3,461	224,279	114,146
263,093	3,599	224,109	114,152
264,107	3,319	224,003	113,879
265,122	3,480	223,828	113,900
266,136	3,589	223,778	113,945
267,151	3,402	223,536	113,673
268,166	3,217	223,206	113,358
269,180	2,938	222,914	112,993
270,195	2,866	222,878	112,911
271,209	2,967	222,702	112,887
272,224	3,171	222,771	113,063
273,239	3,217	222,471	112,934
274,253	3,253	222,300	112,864
275,268	3,139	222,116	112,676
276,282	2,850	221,994	112,392
277,297	2,897	221,967	112,403
278,312	2,880	221,820	112,306
279,326	3,141	221,615	112,383
280,341	3,110	221,522	112,304
281,355	3,304	221,392	112,370
282,370	3,013	221,434	112,168
283,384	2,937	220,915	111,839
284,399	2,760	220,868	111,675
285,414	2,879	220,708	111,672
286,428	2,899	220,648	111,647
287,443	3,180	220,568	111,802
288,457	3,344	220,511	111,883
289,472	3,174	220,218	111,599
290,487	2,781	219,919	111,152
291,501	2,667	219,903	111,050
292,516	2,664	219,778	110,976
293,530	2,973	219,591	111,096
294,545	2,880	219,477	110,961
295,560	3,004	219,381	110,992
296,574	3,291	219,378	111,190
297,589	3,087	219,113	110,897
298,603	3,375	218,937	111,007
299,618	3,382	218,755	110,909
300,633	3,224	218,805	110,811
301,647	3,566	218,638	110,963
302,662	3,454	218,563	110,835
303,676	3,426	218,339	110,691
304,691	3,418	218,210	110,610
305,706	3,389	218,095	110,521
306,720	3,540	217,838	110,490
307,735	3,097	217,751	110,117
308,749	3,122	217,503	110,000
309,764	3,215	217,603	110,107
310,779	3,513	217,371	110,195
311,793	3,391	217,270	110,046
312,808	3,405	217,221	110,021
313,822	3,130	216,900	109,651
314,837	3,020	216,769	109,497
315,852	3,016	216,481	109,338
316,866	3,195	216,467	109,449
317,881	3,431	216,520	109,636
318,895	3,458	216,266	109,517
319,910	3,019	216,153	109,136
320,925	2,941	215,896	108,941
321,939	2,827	215,658	108,730
322,954	2,994	215,546	108,782
323,968	3,015	215,569	108,800
324,983	3,355	215,473	108,983
325,997	3,397	215,344	108,938
327,012	3,515	215,026	108,851
328,027	3,331	214,869	108,632
329,041	3,357	214,896	108,654
330,056	3,364	214,733	108,567
331,070	2,853	214,498	108,077
332,085	2,667	214,290	107,831
333,100	3,074	214,304	108,116
334,114	3,412	214,186	108,286
335,129	3,515	214,021	108,265
336,143	3,055	213,985	107,913
337,158	3,214	213,786	107,914
338,173	3,143	213,684	107,804
339,187	2,924	213,446	107,519
340,202	2,996	213,224	107,448
341,216	2,760	213,028	107,174
342,231	3,023	212,959	107,315
343,246	2,876	212,884	107,164
344,260	3,042	212,726	107,192
345,275	3,167	212,767	107,291
346,289	3,495	212,471	107,362
347,304	3,287	212,415	107,178
348,319	3,171	212,252	107,005
349,333	3,156	212,144	106,931
350,348	3,132	212,091	106,877
351,362	3,194	212,045	106,888
352,377	3,381	211,808	106,890
353,392	3,367	211,474	106,702
354,406	3,219	211,655	106,681
355,421	195,036	1340,149	1415,664
356,435	155,783	1477,604	1415,631
