DTS Sentinel unit serial number:	SN410029Multiplexer serial number:	ORYXHardware model number:	OX2-SRSoftware version number:	ORYX F/W v4,00 Oryx Data Collector v3.7.2.0data status	okinstallation	B6 Nyhavnadifferential loss correction	single-endedforward channel	channel 2reverse channel	N/Adate	2023/12/09time	14:25:08forward acquisition time	300,00reverse acquisition time	0,00gamma	499,1914k internal	0,3133k external	0,3133temperature offset calibration	1,0000default loss term (dB/km)	0,3820temperature slope calibration	1,0000multiplexer offset coefficient	1,0000multiplexer slope coefficient	1,0000fibre end	0,00T internal ref (°C)	20,52T ext. ref 1 (°C)	4,33T ext. ref 2 (°C)	4,34length (m)	temperature (°C)	Stokes	anti-Stokes-744,400	139,848	0,089	-0,087
-743,385	-69,723	-0,176	-0,050
-742,371	128,811	0,082	-0,078
-741,356	-76,876	-0,190	0,049
-740,342	-84,605	0,064	-0,015
-739,327	151,680	-0,215	0,217
-738,312	87,520	-0,053	-0,044
-737,298	-33,609	-0,191	-0,078
-736,283	-200,000	0,009	-0,067
-735,269	-59,624	-0,189	0,060
-734,254	-200,000	-0,022	0,099
-733,239	-41,578	-0,621	-0,236
-732,225	-191,195	0,142	0,001
-731,210	-88,833	-0,104	-0,023
-730,196	-200,000	0,013	0,198
-729,181	100,378	0,063	-0,054
-728,167	800,000	-0,044	-0,112
-727,152	-104,482	-0,097	0,016
-726,137	467,297	-0,039	-0,065
-725,123	-177,760	-0,085	-0,001
-724,108	140,125	0,063	-0,061
-723,094	-200,000	0,025	-0,157
-722,079	-99,362	-0,076	0,014
-721,064	-0,683	0,055	-0,029
-720,050	-60,827	0,034	0,011
-719,035	-200,000	-0,001	0,029
-718,021	-200,000	-0,024	-0,158
-717,006	-200,000	0,021	-0,090
-715,991	-200,000	0,037	-0,183
-714,977	-200,000	-0,014	-0,087
-713,962	-74,293	-0,035	0,009
-712,948	-94,907	0,060	-0,012
-711,933	-200,000	-0,014	0,070
-710,918	108,840	-0,099	0,087
-709,904	-159,438	-0,172	0,007
-708,889	130,743	0,083	0,079
-707,875	800,000	-0,018	-0,058
-706,860	800,000	0,100	0,242
-705,845	-200,000	0,001	-0,014
-704,831	-132,552	0,129	-0,012
-703,816	-200,000	-0,026	-0,129
-702,802	212,881	-0,085	-0,100
-701,787	-68,602	-0,086	-0,025
-700,772	534,607	-0,029	0,052
-699,758	-200,000	0,025	0,121
-698,743	34,491	-0,127	-0,082
-697,729	105,041	-0,018	0,016
-696,714	-17,020	-0,071	0,033
-695,699	12,673	0,038	0,022
-694,685	197,508	0,062	-0,070
-693,670	-0,860	-0,077	0,040
-692,656	800,000	0,055	-0,147
-691,641	588,521	0,007	-0,013
-690,627	-67,121	0,159	-0,046
-689,612	-3,985	-0,103	-0,053
-688,597	-32,252	0,125	-0,051
-687,583	218,496	0,074	-0,088
-686,568	-20,287	0,058	0,026
-685,554	-68,382	-0,073	-0,021
-684,539	800,000	-0,015	0,045
-683,524	-81,247	-0,100	0,024
-682,510	-29,746	-0,079	-0,033
-681,495	26,368	0,079	0,049
-680,481	139,636	-0,054	-0,053
-679,466	668,308	0,080	-0,154
-678,451	2,116	-0,099	-0,053
-677,437	18,820	-0,037	0,022
-676,422	80,758	0,022	0,018
-675,408	-21,695	0,080	-0,036
-674,393	-200,000	0,002	0,122
-673,378	-200,000	0,017	-0,067
-672,364	-137,563	-0,198	0,016
-671,349	800,000	0,044	0,109
-670,335	-200,000	-0,006	-0,020
-669,320	-200,000	0,008	0,082
-668,305	39,798	-0,077	0,051
-667,291	671,685	-0,069	0,134
-666,276	-71,262	-0,075	0,021
-665,262	800,000	-0,053	-0,127
-664,247	671,751	0,044	-0,084
-663,232	800,000	-0,038	-0,121
-662,218	800,000	-0,022	-0,062
-661,203	-80,744	-0,065	-0,016
-660,189	800,000	-0,038	0,122
-659,174	15,758	-0,094	-0,055
-658,159	-200,000	-0,021	0,112
-657,145	-200,000	-0,028	-0,096
-656,130	277,154	0,048	0,063
-655,116	201,826	-0,048	0,055
-654,101	800,000	-0,020	0,043
-653,086	-120,290	0,071	-0,009
-652,072	-98,493	-0,067	0,013
-651,057	63,755	-0,119	0,088
-650,043	-200,000	0,033	-0,127
-649,028	-200,000	0,013	-0,112
-648,014	-98,006	0,024	-0,005
-646,999	-51,920	0,110	0,038
-645,984	-200,000	-0,008	0,046
-644,970	-178,474	0,098	-0,002
-643,955	218,264	0,053	0,063
-642,941	800,000	-0,055	-0,141
-641,926	15,679	-0,095	-0,055
-640,911	-79,133	0,084	0,021
-639,897	205,782	0,078	-0,090
-638,882	89,130	-0,078	-0,064
-637,868	800,000	-0,049	0,121
-636,853	86,983	-0,064	0,053
-635,838	800,000	0,031	0,073
-634,824	-200,000	-0,025	-0,135
-633,809	47,589	0,093	-0,064
-632,795	800,000	0,039	0,104
-631,780	59,265	-0,075	-0,055
-630,765	10,926	-0,019	-0,011
-629,751	100,382	-0,054	0,047
-628,736	138,600	0,075	-0,073
-627,722	434,841	-0,055	0,089
-626,707	-25,540	0,054	0,023
-625,692	-66,898	0,110	0,032
-624,678	-109,086	-0,027	-0,004
-623,663	269,498	-0,075	-0,098
-622,649	-159,050	0,137	-0,006
-621,634	-200,000	-0,012	-0,107
-620,619	301,184	-0,047	-0,064
-619,605	-66,468	0,113	-0,033
-618,590	-200,000	-0,003	-0,056
-617,576	275,972	0,034	0,045
-616,561	483,071	0,022	-0,037
-615,546	601,061	0,066	-0,121
-614,532	-60,038	-0,176	-0,055
-613,517	479,202	0,079	0,133
-612,503	123,233	0,065	0,060
-611,488	446,113	-0,053	0,086
-610,474	-200,000	0,024	-0,143
-609,459	233,240	0,086	-0,105
-608,444	-200,000	0,016	-0,081
-607,430	-112,502	-0,120	0,018
-606,415	161,215	0,028	0,028
-605,401	294,986	0,042	-0,057
-604,386	-3,733	-0,049	-0,025
-603,371	800,000	-0,046	-0,147
-602,357	-200,000	-0,015	-0,129
-601,342	800,000	-0,038	0,090
-600,328	31,752	-0,156	-0,099
-599,313	-164,181	-0,141	-0,005
-598,298	-200,000	-0,008	-0,094
-597,284	-93,453	0,176	0,036
-596,269	-162,666	0,081	0,003
-595,255	-112,640	-0,117	0,017
-594,240	250,787	0,019	0,024
-593,225	308,245	0,019	-0,026
-592,211	-141,565	-0,130	-0,010
-591,196	-200,000	0,003	-0,160
-590,182	800,000	0,037	-0,091
-589,167	-200,000	-0,008	-0,042
-588,152	-200,000	0,008	0,089
-587,138	79,680	-0,092	-0,073
-586,123	800,000	0,012	0,025
-585,109	509,888	-0,036	-0,063
-584,094	-200,000	0,019	-0,093
-583,079	-165,793	0,132	0,004
-582,065	91,486	0,143	-0,118
-581,050	-33,558	0,038	-0,015
-580,036	477,011	0,033	-0,056
-579,021	-200,000	0,012	0,129
-578,006	-200,000	-0,012	0,040
-576,992	61,480	0,118	-0,086
-575,977	46,310	0,103	0,071
-574,963	-31,692	0,090	0,037
-573,948	135,582	-0,022	0,022
-572,934	-200,000	0,024	0,084
-571,919	72,178	0,056	-0,043
-570,904	800,000	-0,038	-0,080
-569,890	800,000	-0,051	-0,110
-568,875	-93,288	0,061	0,012
-567,861	-7,250	0,055	0,028
-566,846	-19,818	0,120	-0,054
-565,831	800,000	-0,015	-0,045
-564,817	27,164	-0,047	0,029
-563,802	-200,000	-0,007	0,042
-562,788	-81,690	-0,081	-0,019
-561,773	242,885	-0,035	-0,043
-560,758	278,679	0,086	-0,113
-559,744	314,586	0,092	0,128
-558,729	12,768	0,128	0,073
-557,715	199,978	-0,027	0,031
-556,700	79,974	-0,042	-0,034
-555,685	-71,800	-0,098	-0,027
-554,671	-32,371	-0,153	0,063
-553,656	723,446	0,078	0,155
-552,642	158,566	0,039	0,040
-551,627	31,990	0,067	-0,042
-550,612	369,190	-0,106	0,159
-549,598	-46,978	-0,142	0,051
-548,583	44,700	-0,050	-0,034
-547,569	449,975	0,071	0,117
-546,554	800,000	0,044	0,109
-545,539	-200,000	0,021	0,119
-544,525	-200,000	-0,003	0,042
-543,510	523,337	0,037	-0,064
-542,496	-200,000	0,003	-0,115
-541,481	626,082	-0,045	-0,083
-540,466	-14,037	-0,092	0,044
-539,452	-7,428	-0,088	-0,044
-538,437	42,721	0,038	-0,025
-537,423	800,000	0,045	-0,100
-536,408	557,156	-0,007	0,012
-535,393	800,000	0,028	0,079
-534,379	31,492	-0,022	0,014
-533,364	67,675	-0,043	0,032
-532,350	800,000	-0,027	0,065
-531,335	200,771	0,061	0,070
-530,321	-166,136	-0,063	-0,002
-529,306	-106,187	-0,043	0,007
-528,291	-18,973	-0,039	0,018
-527,277	-200,000	-0,016	-0,090
-526,262	-200,000	-0,011	-0,063
-525,248	-55,897	0,104	0,034
-524,233	-200,000	0,039	0,165
-523,218	-148,396	0,123	0,007
-522,204	162,006	0,097	-0,100
-521,189	-200,000	0,013	-0,134
-520,175	-200,000	-0,011	-0,084
-519,160	-200,000	-0,019	-0,112
-518,145	-94,018	0,035	0,007
-517,131	376,316	-0,112	0,169
-516,116	-200,000	0,015	0,091
-515,102	264,200	0,050	-0,064
-514,087	-200,000	0,019	-0,077
-513,072	-200,000	-0,012	-0,056
-512,058	-200,000	-0,016	-0,084
-511,043	-200,000	0,004	-0,047
-510,029	68,674	0,087	-0,066
-509,014	-200,000	-0,026	-0,163
-507,999	-57,696	0,019	0,006
-506,985	-79,180	-0,050	-0,012
-505,970	800,000	-0,013	0,039
-504,956	-88,425	-0,036	0,008
-503,941	-58,981	-0,126	0,040
-502,926	-200,000	-0,006	0,142
-501,912	800,000	0,023	-0,073
-500,897	98,213	0,052	-0,044
-499,883	-49,606	0,113	-0,039
-498,868	-200,000	-0,000	0,078
-497,853	408,717	-0,059	-0,092
-496,839	73,916	0,028	-0,021
-495,824	800,000	0,020	0,059
-494,810	-200,000	-0,013	0,158
-493,795	785,541	0,100	0,203
-492,781	-200,000	0,024	0,083
-491,766	383,460	-0,092	-0,139
-490,751	800,000	-0,069	-0,181
-489,737	800,000	-0,049	-0,109
-488,722	243,476	0,031	0,039
-487,708	66,782	0,107	0,080
-486,693	513,972	-0,036	-0,061
-485,678	-30,176	-0,048	0,020
-484,664	800,000	-0,037	-0,113
-483,649	-200,000	-0,011	-0,056
-482,635	43,160	-0,143	0,096
-481,620	196,935	-0,053	0,060
-480,605	41,218	0,136	0,090
-479,591	800,000	-0,020	0,064
-478,576	-11,833	-0,015	-0,007
-477,562	800,000	-0,018	-0,051
-476,547	-94,997	0,031	0,006
-475,532	-200,000	-0,051	0,182
-474,518	800,000	0,026	-0,058
-473,503	-34,755	0,177	0,071
-472,489	145,496	-0,016	0,015
-471,474	-11,505	0,150	0,072
-470,459	-56,350	-0,142	0,046
-469,445	-200,000	0,011	0,057
-468,430	-85,094	-0,108	-0,025
-467,416	-200,000	0,034	0,200
-466,401	-200,000	0,020	0,139
-465,386	-106,385	0,081	0,013
-464,372	-200,000	0,015	-0,065
-463,357	-200,000	0,003	-0,020
-462,343	-62,687	0,123	0,037
-461,328	185,051	-0,096	0,105
-460,313	800,000	0,020	-0,059
-459,299	-43,334	0,133	-0,049
-458,284	-1,525	-0,124	0,064
-457,270	-200,000	0,037	0,147
-456,255	-0,418	-0,176	0,091
-455,241	-140,676	0,061	0,005
-454,226	72,921	-0,095	-0,073
-453,211	-200,000	0,022	-0,078
-452,197	800,000	0,089	0,205
-451,182	176,335	0,096	0,103
-450,168	-39,970	-0,115	-0,044
-449,153	57,642	-0,120	0,086
-448,138	-146,302	0,108	-0,007
-447,124	800,000	0,056	-0,172
-446,109	129,474	-0,086	0,081
-445,095	800,000	-0,035	0,075
-444,080	121,637	0,109	0,100
-443,065	-200,000	-0,016	0,068
-442,051	800,000	-0,083	0,209
-441,036	-200,000	0,016	0,099
-440,022	-14,764	0,044	-0,021
-439,007	-200,000	-0,005	-0,075
-437,992	-65,762	0,028	-0,008
-436,978	495,862	-0,015	-0,026
-435,963	92,286	-0,076	0,062
-434,949	-35,863	0,070	0,028
-433,934	276,450	-0,079	-0,103
-432,919	-200,000	0,004	-0,138
-431,905	-135,786	0,091	-0,008
-430,890	800,000	-0,069	0,147
-429,876	165,037	-0,063	0,066
-428,861	56,108	-0,040	-0,029
-427,846	800,000	-0,044	0,131
-426,832	800,000	-0,044	-0,092
-425,817	-77,020	-0,078	0,020
-424,803	800,000	-0,036	-0,104
-423,788	-139,797	0,036	-0,003
-422,773	577,338	0,056	0,100
-421,759	207,517	-0,061	0,070
-420,744	-58,303	-0,081	-0,026
-419,730	-80,154	0,053	-0,013
-418,715	357,358	0,051	-0,075
-417,701	800,000	-0,046	0,147
-416,686	606,997	0,094	-0,173
-415,671	-68,541	0,021	-0,006
-414,657	181,909	-0,057	-0,062
-413,642	-200,000	0,001	-0,020
-412,628	800,000	-0,030	-0,090
-411,613	84,947	0,022	0,018
-410,598	311,125	-0,064	-0,088
-409,584	319,203	0,118	-0,164
-408,569	74,145	-0,116	0,089
-407,555	259,380	0,067	0,085
-406,540	800,000	0,048	0,132
-405,525	-200,000	-0,020	0,112
-404,511	73,949	-0,144	-0,111
-403,496	-103,598	0,098	0,017
-402,482	25,493	0,053	0,032
-401,467	-200,000	-0,003	-0,048
-400,452	-101,447	-0,014	0,002
-399,438	5,394	0,089	0,048
-398,423	141,975	0,084	-0,082
-397,409	-200,000	0,003	-0,121
-396,394	-93,351	-0,064	0,013
-395,379	800,000	-0,006	0,013
-394,365	-200,000	0,002	0,045
-393,350	14,985	0,056	0,032
-392,336	171,534	-0,047	-0,050
-391,321	1,159	-0,048	0,025
-390,306	5,972	-0,155	-0,084
-389,292	800,000	0,040	-0,121
-388,277	-200,000	-0,012	0,065
-387,263	47,691	0,039	0,026
-386,248	-42,216	-0,097	0,036
-385,233	800,000	0,066	0,135
-384,219	-56,857	0,049	0,016
-383,204	-77,811	-0,026	0,007
-382,190	800,000	0,029	0,090
-381,175	-158,123	-0,092	0,004
-380,160	110,222	0,109	0,096
-379,146	499,840	0,076	0,129
-378,131	256,336	-0,037	-0,046
-377,117	-73,667	-0,055	0,015
-376,102	-31,083	0,125	0,052
-375,088	170,159	-0,045	-0,047
-374,073	480,593	0,067	-0,111
-373,058	-106,099	-0,031	-0,005
-372,044	-103,587	0,153	-0,026
-371,029	12,070	-0,062	-0,035
-370,015	711,245	0,031	-0,060
-369,000	-78,007	0,135	0,034
-367,985	-200,000	-0,016	-0,118
-366,971	-152,162	-0,111	0,006
-365,956	-127,658	0,072	-0,008
-364,942	45,269	0,062	-0,041
-363,927	228,258	0,093	0,111
-362,912	126,048	0,061	-0,056
-361,898	36,445	0,030	0,019
-360,883	-111,246	0,075	0,011
-359,869	-113,468	-0,090	-0,013
-358,854	486,392	0,087	0,146
-357,839	-151,640	-0,089	-0,005
-356,825	-138,564	0,099	0,008
-355,810	-31,247	0,046	0,019
-354,796	133,128	-0,097	-0,091
-353,781	60,965	-0,141	-0,102
-352,766	-120,959	0,099	-0,012
-351,752	-91,976	0,153	-0,032
-350,737	188,413	-0,043	0,047
-349,723	-54,041	0,089	0,029
-348,708	345,803	-0,029	0,042
-347,693	-200,000	-0,006	-0,023
-346,679	1,036	-0,069	-0,036
-345,664	-200,000	-0,022	-0,201
-344,650	125,561	0,042	-0,039
-343,635	-168,666	0,059	-0,002
-342,620	-200,000	0,002	-0,015
-341,606	-148,527	-0,049	-0,003
-340,591	-33,121	0,065	0,026
-339,577	-47,360	-0,155	-0,055
-338,562	-200,000	-0,029	-0,149
-337,548	153,458	-0,034	0,034
-336,533	800,000	0,043	-0,134
-335,518	-115,881	0,021	-0,003
-334,504	111,869	0,122	0,108
-333,489	600,070	0,066	0,121
-332,475	-200,000	-0,006	-0,046
-331,460	-77,838	-0,075	-0,019
-330,445	449,936	-0,066	-0,106
-329,431	-78,646	0,098	0,024
-328,416	163,103	-0,139	0,143
-327,402	85,977	0,085	0,069
-326,387	21,109	-0,093	0,055
-325,372	-141,402	-0,047	-0,003
-324,358	800,000	-0,043	-0,119
-323,343	-200,000	0,018	-0,069
-322,329	800,000	-0,032	0,066
-321,314	27,790	0,015	-0,009
-320,299	9,589	0,040	0,022
-319,285	-200,000	-0,008	-0,092
-318,270	784,855	0,022	0,043
-317,256	93,032	-0,111	-0,092
-316,241	-6,732	-0,063	-0,031
-315,226	-122,619	0,037	0,004
-314,212	94,679	-0,066	0,054
-313,197	236,446	0,040	0,048
-312,183	110,923	-0,024	0,021
-311,168	-72,975	-0,094	0,025
-310,153	150,171	-0,048	-0,048
-309,139	490,917	0,030	0,050
-308,124	56,386	0,056	0,040
-307,110	-200,000	0,003	-0,018
-306,095	-200,000	0,019	-0,099
-305,080	-64,064	-0,116	0,034
-304,066	33,624	-0,115	0,073
-303,051	-200,000	0,000	-0,057
-302,037	-100,321	-0,077	-0,014
-301,022	379,867	0,016	-0,025
-300,008	800,000	-0,094	0,207
-298,993	-200,000	-0,040	0,223
-297,978	107,617	0,113	0,098
-296,964	-200,000	-0,003	-0,021
-295,949	82,166	0,056	-0,044
-294,935	-110,599	-0,072	-0,011
-293,920	15,522	0,069	0,040
-292,905	486,395	0,024	0,040
-291,891	-189,586	0,102	0,001
-290,876	-66,329	-0,053	0,015
-289,862	-200,000	0,018	-0,059
-288,847	-200,000	0,018	-0,186
-287,832	-86,776	-0,077	0,017
-286,818	293,723	-0,019	0,025
-285,803	-116,823	0,102	-0,014
-284,789	66,335	0,051	-0,038
-283,774	-200,000	-0,022	-0,083
-282,759	-200,000	-0,016	0,064
-281,745	651,904	-0,010	-0,019
-280,730	-155,041	-0,061	-0,003
-279,716	800,000	0,028	-0,070
-278,701	542,140	-0,046	0,081
-277,686	800,000	0,048	0,108
-276,672	-200,000	-0,011	0,078
-275,657	-200,000	-0,007	0,032
-274,643	437,133	0,117	-0,186
-273,628	-135,884	-0,151	0,013
-272,613	-153,599	-0,039	-0,002
-271,599	250,659	-0,005	-0,006
-270,584	1,091	0,030	-0,016
-269,570	-47,778	-0,077	-0,027
-268,555	-196,134	-0,092	0,000
-267,540	800,000	-0,024	0,067
-266,526	-164,532	-0,097	0,003
-265,511	122,679	0,086	-0,078
-264,497	-200,000	0,010	0,049
-263,482	-200,000	0,034	0,189
-262,467	800,000	-0,053	0,147
-261,453	-200,000	0,006	-0,070
-260,438	-178,234	-0,083	-0,001
-259,424	105,204	-0,072	-0,062
-258,409	-200,000	-0,006	0,045
-257,395	155,624	0,015	0,015
-256,380	-50,118	0,076	-0,026
-255,365	-200,000	0,041	0,142
-254,351	-157,425	-0,097	-0,004
-253,336	800,000	-0,027	-0,062
-252,322	20,356	-0,151	-0,089
-251,307	114,171	-0,018	-0,016
-250,292	-172,551	-0,054	0,001
-249,278	137,016	0,151	-0,143
-248,263	543,414	-0,039	-0,069
-247,249	-200,000	0,003	-0,078
-246,234	-200,000	0,012	-0,157
-245,219	-200,000	0,039	-0,139
-244,205	6,694	-0,009	-0,005
-243,190	800,000	0,019	0,045
-242,176	111,892	0,059	0,052
-241,161	155,838	0,084	0,085
-240,146	-200,000	0,019	0,129
-239,132	800,000	-0,050	-0,113
-238,117	-146,883	-0,037	0,002
-237,103	-78,409	-0,133	-0,033
-236,088	-111,072	0,037	0,006
-235,073	401,900	-0,072	-0,110
-234,059	268,845	-0,064	0,082
-233,044	194,103	0,143	0,158
-232,030	123,974	-0,024	-0,022
-231,015	537,713	-0,052	-0,090
-230,000	800,000	-0,026	0,057
-228,986	47,620	0,124	-0,084
-227,971	-131,642	-0,147	0,014
-226,957	800,000	0,052	0,120
-225,942	41,850	0,035	-0,023
-224,927	-200,000	-0,013	-0,085
-223,913	1,404	-0,040	-0,021
-222,898	-90,135	0,014	0,003
-221,884	800,000	-0,007	0,017
-220,869	-200,000	-0,011	-0,050
-219,855	-37,750	0,074	-0,029
-218,840	32,697	0,034	-0,022
-217,825	84,979	0,046	-0,037
-216,811	-200,000	-0,009	0,030
-215,796	-200,000	-0,024	-0,099
-214,782	-200,000	0,003	0,024
-213,767	667,358	0,060	0,114
-212,752	800,000	-0,006	-0,013
-211,738	365,534	0,047	-0,069
-210,723	-32,565	0,082	-0,033
-209,709	-164,686	-0,108	0,003
-208,694	-121,622	-0,085	-0,010
-207,679	12,753	-0,119	0,067
-206,665	112,299	0,058	0,051
-205,650	-200,000	0,021	0,103
-204,636	369,585	0,050	-0,073
-203,621	497,951	0,029	0,048
-202,606	800,000	-0,054	-0,165
-201,592	161,889	0,019	-0,019
-200,577	800,000	0,010	-0,024
-199,563	79,440	0,103	0,080
-198,548	35,818	-0,048	-0,031
-197,533	4,213	-0,056	0,029
-196,519	800,000	0,005	0,015
-195,504	657,754	0,056	-0,105
-194,490	-200,000	-0,019	0,133
-193,475	800,000	-0,047	-0,096
-192,460	-96,457	-0,078	-0,015
-191,446	422,433	-0,079	0,123
-190,431	133,573	-0,028	0,026
-189,417	236,508	-0,073	0,088
-188,402	-200,000	-0,007	-0,071
-187,387	-89,829	-0,077	-0,016
-186,373	-111,813	0,078	0,011
-185,358	98,950	0,140	0,118
-184,344	-59,634	-0,116	0,036
-183,329	70,932	0,072	-0,054
-182,315	193,701	-0,052	0,057
-181,300	800,000	0,014	0,030
-180,285	113,583	-0,079	-0,070
-179,271	-200,000	0,001	0,024
-178,256	69,398	-0,084	-0,063
-177,242	241,156	0,060	-0,073
-176,227	-200,000	-0,011	0,138
-175,212	-85,244	-0,053	-0,012
-174,198	359,235	0,054	-0,078
-173,183	-200,000	-0,054	-0,192
-172,169	264,479	0,157	0,199
-171,154	223,866	0,074	-0,087
-170,139	-113,312	0,063	0,009
-169,125	115,525	0,006	0,005
-168,110	386,310	-0,069	0,103
-167,096	147,158	0,075	0,073
-166,081	-9,878	0,011	-0,005
-165,066	38,043	0,123	-0,079
-164,052	-14,802	-0,051	-0,024
-163,037	800,000	-0,018	0,040
-162,023	192,197	0,075	0,083
-161,008	-200,000	-0,003	0,090
-159,993	-168,957	-0,137	0,004
-158,979	104,336	-0,052	0,045
-157,964	244,156	0,021	0,026
-156,950	408,582	-0,122	-0,188
-155,935	26,387	-0,149	-0,090
-154,920	-32,128	0,086	0,035
-153,906	800,000	0,031	0,068
-152,891	78,728	0,057	0,044
-151,877	-13,038	0,094	-0,044
-150,862	-171,378	0,085	-0,002
-149,847	800,000	-0,077	-0,160
-148,833	25,268	0,075	0,045
-147,818	9,371	0,105	0,057
-146,804	-200,000	-0,017	-0,138
-145,789	736,708	0,021	-0,042
-144,775	-80,727	0,045	0,011
-143,760	-5,629	-0,084	-0,041
-142,745	-132,538	-0,107	-0,010
-141,731	-71,391	0,168	-0,045
-140,716	107,325	0,058	-0,050
-139,702	-122,688	0,161	0,019
-138,687	394,396	0,094	0,143
-137,672	433,220	-0,006	0,009
-136,658	800,000	-0,023	-0,051
-135,643	-74,160	-0,051	0,013
-134,629	800,000	0,006	0,015
-133,614	213,138	0,085	0,097
-132,599	732,184	0,029	0,057
-131,585	591,355	-0,044	0,080
-130,570	-106,440	0,076	-0,012
-129,556	-200,000	-0,023	-0,099
-128,541	190,617	-0,054	0,059
-127,526	-200,000	0,010	0,048
-126,512	115,722	0,112	-0,100
-125,497	-91,662	0,090	-0,018
-124,483	-194,570	0,139	0,001
-123,468	96,880	0,036	-0,030
-122,453	-200,000	-0,016	0,056
-121,439	54,414	-0,101	0,070
-120,424	-200,000	-0,002	0,023
-119,410	-200,000	-0,001	0,111
-118,395	108,854	0,018	0,016
-117,380	-88,099	0,081	0,017
-116,366	295,671	0,019	-0,025
-115,351	-54,706	0,091	-0,030
-114,337	-200,000	-0,009	0,069
-113,322	-200,000	0,033	0,110
-112,307	-123,423	0,154	0,018
-111,293	60,996	0,107	0,077
-110,278	-200,000	0,016	0,126
-109,264	23,602	-0,148	-0,088
-108,249	800,000	0,020	-0,056
-107,234	36,472	-0,029	-0,019
-106,220	800,000	-0,024	-0,074
-105,205	-41,090	-0,053	-0,020
-104,191	-21,681	0,089	0,039
-103,176	109,616	0,094	0,081
-102,162	730,070	-0,057	0,111
-101,147	88,713	-0,042	0,034
-100,132	73,604	0,108	-0,082
-99,118	208,096	-0,104	-0,117
-98,103	19,924	0,123	0,072
-97,089	-90,085	0,153	0,032
-96,074	242,217	-0,048	-0,058
-95,059	114,499	0,077	0,068
-94,045	584,191	-0,030	-0,053
-93,030	61,541	-0,147	-0,106
-92,016	68,538	0,171	-0,127
-91,001	619,190	-0,100	-0,183
-89,986	-130,451	0,134	-0,013
-88,972	-200,000	-0,033	0,130
-87,957	-98,337	0,091	0,017
-86,943	356,800	-0,020	0,029
-85,928	-26,366	-0,083	-0,035
-84,913	800,000	-0,074	0,179
-83,899	-147,522	0,088	0,005
-82,884	-36,719	0,107	0,042
-81,870	-74,859	0,098	0,025
-80,855	-8,777	0,069	-0,033
-79,840	-200,000	0,003	-0,098
-78,826	383,646	-0,094	0,141
-77,811	-200,000	-0,025	-0,220
-76,797	425,515	0,044	-0,069
-75,782	-98,805	-0,041	-0,008
-74,767	800,000	-0,017	0,038
-73,753	-85,897	-0,099	-0,022
-72,738	307,211	0,079	0,106
-71,724	-200,000	-0,014	-0,158
-70,709	-200,000	-0,029	-0,130
-69,694	800,000	0,017	-0,039
-68,680	-163,863	0,116	0,004
-67,665	-36,741	-0,013	-0,005
-66,651	257,939	-0,034	0,042
-65,636	111,579	-0,027	0,024
-64,622	-200,000	0,006	0,094
-63,607	-146,589	-0,088	0,005
-62,592	-50,331	-0,108	-0,037
-61,578	129,993	0,039	-0,036
-60,563	-200,000	0,021	0,067
-59,549	800,000	-0,002	0,004
-58,534	-60,334	-1,572	-0,481
-57,519	800,000	-0,517	-1,503
-56,505	-200,000	-1,045	-4,582
-55,490	-89,040	0,675	-0,143
-54,476	800,000	5,005	11,958
-53,461	-200,000	14,847	263,980
-52,446	-200,000	698,306	2239,366
-51,432	565,161	1622,026	2855,118
-50,417	119,122	1628,765	1456,633
-49,403	76,577	1282,942	982,763
-48,388	37,453	1022,300	654,211
-47,373	22,894	982,051	580,672
-46,359	22,028	971,218	571,410
-45,344	20,791	967,012	564,880
-44,330	20,799	965,445	563,969
-43,315	20,635	964,097	562,625
-42,300	20,654	963,018	562,032
-41,286	20,639	962,025	561,383
-40,271	20,552	961,011	560,487
-39,257	20,522	960,254	559,927
-38,242	20,580	959,344	559,560
-37,227	20,553	958,455	558,933
-36,213	20,453	957,658	558,122
-35,198	20,481	956,485	557,508
-34,184	20,540	955,944	557,359
-33,169	20,440	955,018	556,475
-32,154	20,560	954,062	556,284
-31,140	20,588	953,051	555,762
-30,125	20,544	952,421	555,231
-29,111	20,531	951,733	554,766
-28,096	20,560	951,149	554,496
-27,082	20,557	950,267	553,952
-26,067	20,566	949,366	553,431
-25,052	20,511	948,790	552,899
-24,038	20,548	948,120	552,605
-23,023	20,564	947,390	552,208
-22,009	20,612	946,724	551,953
-20,994	20,557	946,146	551,418
-19,979	20,642	945,688	551,400
-18,965	20,603	945,083	550,902
-17,950	20,624	944,316	550,500
-16,936	20,492	943,745	549,723
-15,921	20,533	942,889	549,334
-14,906	20,464	942,371	548,789
-13,892	20,436	941,698	548,288
-12,877	20,430	941,088	547,892
-11,863	20,381	940,451	547,344
-10,848	20,470	939,905	547,288
-9,833	20,503	939,546	547,160
-8,819	20,494	938,931	546,752
-7,804	20,466	938,365	546,312
-6,790	20,443	937,718	545,840
-5,775	20,445	937,049	545,436
-4,760	20,468	936,311	545,056
-3,746	20,407	935,881	544,592
-2,731	20,305	935,076	543,782
-1,717	20,314	934,570	543,493
-0,702	20,255	933,790	542,834
0,313	20,094	933,202	542,806
1,327	23,109	931,338	551,139
2,342	32,235	793,200	493,589
3,356	29,264	450,915	276,099
4,371	-0,338	296,099	151,558
5,386	-4,823	277,349	137,673
6,400	-5,873	271,521	133,787
7,415	-6,329	269,009	132,114
8,429	-6,193	267,907	131,687
9,444	-6,003	266,892	131,351
10,459	-5,960	266,262	131,069
11,473	-6,241	265,798	130,572
12,488	-6,247	265,268	130,295
13,502	-6,484	264,670	129,773
14,517	-6,443	264,265	129,600
15,531	-6,460	263,883	129,386
16,546	-6,220	263,569	129,437
17,561	-6,401	263,162	129,063
18,575	-6,197	262,770	129,044
19,590	-6,279	262,474	128,812
20,604	-6,204	262,279	128,773
21,619	-6,384	261,873	128,400
22,634	-6,464	261,490	128,129
23,648	-6,423	261,306	128,064
24,663	-6,378	260,996	127,941
25,677	-6,205	260,727	127,953
26,692	-6,361	260,444	127,663
27,707	-6,417	260,270	127,516
28,721	-6,276	259,842	127,421
29,736	-6,459	259,611	127,133
30,750	-6,358	259,357	127,087
31,765	-6,495	259,093	126,825
32,780	-6,361	258,895	126,836
33,794	-6,378	258,747	126,737
34,809	-6,329	258,393	126,595
35,823	-6,455	258,160	126,359
36,838	-6,673	257,909	126,031
37,853	-6,560	257,722	126,028
38,867	-6,665	257,489	125,811
39,882	-6,459	257,199	125,839
40,896	-6,614	256,978	125,583
41,911	-6,469	256,820	125,622
42,926	-6,557	256,598	125,426
43,940	-6,910	256,428	125,020
44,955	-6,526	255,975	125,126
45,969	-6,615	255,812	124,957
46,984	-6,801	255,556	124,658
47,999	-7,102	255,290	124,253
49,013	-7,152	255,101	124,106
50,028	-7,274	254,689	123,789
51,042	-7,362	254,482	123,600
52,057	-7,285	254,204	123,520
53,071	-7,311	254,130	123,451
54,086	-7,164	253,870	123,442
55,101	-7,138	253,774	123,407
56,115	-7,077	253,670	123,398
57,130	-6,539	253,594	123,818
58,144	-6,186	253,347	123,993
59,159	-6,149	253,035	123,861
60,174	-6,379	253,017	123,642
61,188	-6,190	252,781	123,680
62,203	-6,321	252,779	123,554
63,217	-6,324	252,340	123,326
64,232	-6,323	252,146	123,220
65,247	-6,398	251,903	123,026
66,261	-6,424	251,731	122,909
67,276	-6,490	251,249	122,606
68,290	-6,790	251,121	122,275
69,305	-6,904	250,918	122,067
70,320	-6,853	250,604	121,947
71,334	-6,669	250,731	122,156
72,349	-6,406	250,555	122,285
73,363	-6,236	250,415	122,351
74,378	-6,324	250,080	122,101
75,393	-6,341	249,873	121,975
76,407	-6,335	249,740	121,904
77,422	-6,363	249,389	121,698
78,436	-6,297	249,218	121,660
79,451	-6,542	249,034	121,350
80,466	-6,476	248,677	121,222
81,480	-6,775	248,530	120,885
82,495	-6,709	248,455	120,894
83,509	-6,398	248,104	120,977
84,524	-6,813	248,092	120,608
85,539	-6,667	247,754	120,557
86,553	-6,815	247,602	120,346
87,568	-7,008	247,434	120,091
88,582	-6,717	247,274	120,248
89,597	-6,634	247,090	120,218
90,611	-6,602	246,932	120,158
91,626	-6,546	246,835	120,147
92,641	-6,470	246,650	120,110
93,655	-6,763	246,446	119,753
94,670	-6,674	246,144	119,671
95,684	-6,652	246,025	119,621
96,699	-6,607	245,762	119,520
97,714	-6,652	245,599	119,392
98,728	-6,817	245,447	119,170
99,743	-6,900	245,265	119,001
100,757	-6,851	244,974	118,890
101,772	-7,019	244,818	118,664
102,787	-6,745	244,668	118,809
103,801	-6,793	244,576	118,713
104,816	-6,545	244,294	118,773
105,830	-6,533	244,225	118,739
106,845	-6,443	243,993	118,691
107,860	-6,366	243,825	118,662
108,874	-6,559	243,544	118,354
109,889	-6,579	243,359	118,237
110,903	-6,687	243,155	118,038
111,918	-6,696	242,946	117,919
112,933	-6,641	242,816	117,890
113,947	-6,669	242,842	117,870
114,962	-6,541	242,479	117,789
115,976	-6,515	242,366	117,745
116,991	-6,646	242,102	117,498
118,006	-6,546	242,084	117,561
119,020	-6,562	241,901	117,449
120,035	-6,400	241,739	117,493
121,049	-6,591	241,706	117,309
122,064	-6,460	241,453	117,284
123,079	-6,539	241,253	117,112
124,093	-6,632	241,049	116,926
125,108	-6,553	240,694	116,807
126,122	-6,798	240,482	116,494
127,137	-7,029	240,379	116,244
128,151	-6,910	240,346	116,315
129,166	-6,840	239,986	116,188
130,181	-6,847	239,818	116,091
131,195	-6,850	239,713	116,027
132,210	-6,732	239,463	115,991
133,224	-6,702	239,411	115,981
134,239	-6,599	239,189	115,947
135,254	-6,608	239,081	115,877
136,268	-6,745	238,817	115,626
137,283	-6,904	238,512	115,339
138,297	-7,022	238,291	115,127
139,312	-7,034	238,225	115,075
140,327	-6,683	238,083	115,281
141,341	-6,275	238,168	115,642
142,356	-6,170	237,920	115,597
143,370	-6,174	237,568	115,412
144,385	-6,070	237,509	115,457
145,400	-6,241	237,425	115,267
146,414	-6,040	237,096	115,259
147,429	-6,238	237,008	115,047
148,443	-6,394	236,977	114,896
149,458	-6,268	236,771	114,887
150,473	-6,375	236,679	114,746
151,487	-6,079	236,256	114,769
152,502	-6,049	236,147	114,730
153,516	-6,098	236,147	114,680
154,531	-6,108	235,812	114,499
155,546	-6,407	235,725	114,207
156,560	-6,317	235,539	114,179
157,575	-6,410	235,317	113,987
158,589	-6,372	235,150	113,926
159,604	-6,182	234,907	113,950
160,619	-6,158	234,928	113,969
161,633	-6,244	234,758	113,808
162,648	-6,023	234,497	113,847
163,662	-6,087	234,317	113,699
164,677	-6,210	234,219	113,543
165,692	-6,240	234,103	113,453
166,706	-6,089	234,080	113,552
167,721	-6,181	233,988	113,424
168,735	-5,909	233,702	113,491
169,750	-6,109	233,526	113,237
170,764	-6,125	233,325	113,117
171,779	-6,260	233,319	112,996
172,794	-6,076	233,224	113,086
173,808	-6,165	232,856	112,827
174,823	-6,513	232,553	112,396
175,837	-6,828	232,276	112,004
176,852	-6,319	232,303	112,408
177,867	-6,254	232,322	112,458
178,881	-6,221	232,033	112,334
179,896	-6,180	232,114	112,396
180,910	-6,259	231,811	112,177
181,925	-6,112	231,582	112,171
182,940	-6,131	231,524	112,119
183,954	-5,990	231,482	112,199
184,969	-5,837	231,171	112,158
185,983	-6,059	231,093	111,937
186,998	-5,951	231,005	111,968
188,013	-5,903	230,781	111,888
189,027	-6,080	230,636	111,668
190,042	-5,972	230,401	111,629
191,056	-5,835	230,266	111,661
192,071	-5,940	230,145	111,510
193,086	-5,966	229,864	111,344
194,100	-6,200	229,820	111,131
195,115	-6,226	229,363	110,879
196,129	-6,626	229,222	110,491
197,144	-3,105	230,421	113,804
198,159	1,153	231,702	117,758
199,173	3,464	232,379	119,901
200,188	3,831	232,164	120,066
201,202	3,676	231,902	119,798
202,217	3,880	231,950	119,972
203,232	3,977	231,806	119,962
204,246	4,232	231,705	120,098
205,261	4,234	231,448	119,956
206,275	4,465	231,426	120,113
207,290	4,387	231,343	119,999
208,304	4,365	231,092	119,841
209,319	4,323	230,921	119,708
210,334	4,302	230,744	119,590
211,348	3,983	230,539	119,226
212,363	3,916	230,162	118,969
213,377	3,450	230,031	118,530
214,392	3,470	229,787	118,409
215,407	3,544	229,832	118,479
216,421	3,760	229,621	118,527
217,436	3,631	229,269	118,235
218,450	3,583	229,094	118,097
219,465	3,581	229,029	118,051
220,480	3,270	228,873	117,721
221,494	3,259	228,883	117,707
222,509	3,410	228,713	117,725
223,523	3,424	228,451	117,590
224,538	3,495	228,246	117,530
225,553	3,422	228,218	117,449
226,567	3,713	228,021	117,559
227,582	4,072	227,975	117,800
228,596	3,911	227,950	117,653
229,611	3,766	227,632	117,368
230,626	3,422	227,453	117,003
231,640	3,400	227,424	116,961
232,655	3,593	227,399	117,084
233,669	4,128	227,379	117,472
234,684	4,341	227,135	117,498
235,699	4,082	226,913	117,175
236,713	3,598	226,806	116,741
237,728	3,729	226,444	116,644
238,742	3,817	226,201	116,575
239,757	3,681	226,154	116,437
240,772	3,483	226,081	116,239
241,786	3,569	225,854	116,178
242,801	3,644	225,865	116,229
243,815	3,973	225,723	116,395
244,830	4,021	225,726	116,422
245,844	3,749	225,339	116,008
246,859	3,491	225,062	115,659
247,874	3,939	224,992	115,951
248,888	3,758	224,995	115,806
249,903	3,558	224,809	115,549
250,917	3,494	224,557	115,361
251,932	3,538	224,508	115,359
252,947	3,766	224,065	115,292
253,961	3,333	224,102	114,976
254,976	3,554	223,991	115,075
255,990	3,592	223,963	115,078
257,005	3,789	223,810	115,137
258,020	3,742	223,538	114,951
259,034	3,876	223,517	115,031
260,049	3,963	223,319	114,984
261,063	3,814	223,264	114,834
262,078	3,972	223,079	114,846
263,093	4,074	222,996	114,870
264,107	3,854	222,729	114,558
265,122	3,998	222,646	114,612
266,136	4,277	222,456	114,712
267,151	4,012	222,446	114,499
268,166	3,908	222,121	114,244
269,180	3,325	221,897	113,687
270,195	3,543	221,643	113,708
271,209	3,551	221,704	113,734
272,224	3,449	221,526	113,558
273,239	3,923	221,471	113,870
274,253	3,525	221,279	113,467
275,268	3,372	220,923	113,161
276,282	3,353	220,826	113,087
277,297	3,291	220,622	112,927
278,312	3,363	220,661	112,990
279,326	3,481	220,504	112,987
280,341	3,578	220,345	112,966
281,355	3,779	220,227	113,044
282,370	3,641	220,056	112,845
283,384	3,442	219,836	112,576
284,399	3,325	219,570	112,344
285,414	3,318	219,572	112,329
286,428	3,523	219,507	112,437
287,443	3,804	219,509	112,633
288,457	3,945	219,281	112,610
289,472	3,629	218,985	112,216
290,487	3,321	218,872	111,923
291,501	3,090	218,748	111,682
292,516	3,205	218,569	111,664
293,530	3,380	218,579	111,787
294,545	3,032	218,392	111,427
295,560	3,406	218,410	111,700
296,574	3,672	218,227	111,789
297,589	3,503	218,029	111,555
298,603	3,767	217,871	111,656
299,618	3,561	217,654	111,385
300,633	3,526	217,689	111,368
301,647	3,801	217,557	111,490
302,662	3,927	217,395	111,488
303,676	3,623	217,205	111,161
304,691	3,896	217,174	111,333
305,706	3,676	216,923	111,035
306,720	3,667	216,704	110,907
307,735	3,595	216,531	110,757
308,749	3,545	216,529	110,709
309,764	3,939	216,422	110,929
310,779	3,960	216,256	110,849
311,793	3,678	216,231	110,623
312,808	3,744	215,967	110,526
313,822	3,766	215,800	110,446
314,837	3,649	215,594	110,247
315,852	3,296	215,404	109,887
316,866	3,694	215,237	110,077
317,881	3,769	215,441	110,225
318,895	3,660	215,275	110,052
319,910	3,459	214,998	109,757
320,925	3,334	214,632	109,471
321,939	3,066	214,528	109,217
322,954	3,175	214,468	109,254
323,968	3,414	214,525	109,445
324,983	3,705	214,382	109,570
325,997	3,904	214,128	109,572
327,012	3,715	214,057	109,391
328,027	3,561	213,989	109,236
329,041	3,866	213,989	109,445
330,056	3,849	213,765	109,307
331,070	3,561	213,575	108,997
332,085	3,431	213,224	108,715
333,100	3,390	213,142	108,635
334,114	3,531	212,974	108,640
335,129	3,800	212,827	108,745
336,143	3,601	212,660	108,509
337,158	3,689	212,576	108,519
338,173	3,552	212,576	108,412
339,187	3,402	212,365	108,189
340,202	3,236	212,200	107,978
341,216	3,150	212,012	107,812
342,231	3,655	211,928	108,116
343,246	3,599	211,828	108,015
344,260	3,271	211,737	107,729
345,275	3,496	211,534	107,774
346,289	3,827	211,459	107,959
347,304	3,656	211,379	107,789
348,319	3,613	211,149	107,631
349,333	3,563	211,078	107,550
350,348	3,672	210,943	107,548
351,362	3,984	210,890	107,730
352,377	4,046	210,681	107,657
353,392	3,601	210,563	107,277
354,406	3,767	210,298	107,247
355,421	194,480	1342,514	1427,965
356,435	155,261	1480,534	1428,034
