DTS Sentinel unit serial number:	SN410029Multiplexer serial number:	ORYXHardware model number:	OX2-SRSoftware version number:	ORYX F/W v4,00 Oryx Data Collector v3.7.2.0data status	okinstallation	B6 Nyhavnadifferential loss correction	single-endedforward channel	channel 2reverse channel	N/Adate	2023/12/07time	14:10:08forward acquisition time	300,00reverse acquisition time	0,00gamma	499,1914k internal	0,3198k external	0,3198temperature offset calibration	1,0000default loss term (dB/km)	0,3820temperature slope calibration	1,0000multiplexer offset coefficient	1,0000multiplexer slope coefficient	1,0000fibre end	0,00T internal ref (°C)	13,34T ext. ref 1 (°C)	-1,73T ext. ref 2 (°C)	-1,72length (m)	temperature (°C)	Stokes	anti-Stokes-744,400	-131,288	0,206	0,020
-743,385	-87,223	-0,243	0,053
-742,371	5,758	0,122	0,066
-741,356	-129,732	-0,360	-0,036
-740,342	18,531	0,127	-0,074
-739,327	-137,543	-0,259	-0,021
-738,312	366,663	0,041	0,061
-737,298	-82,270	-0,449	-0,106
-736,283	-141,177	0,201	-0,015
-735,269	-161,124	-0,287	0,011
-734,254	800,000	0,028	0,086
-733,239	-181,563	-0,399	0,006
-732,225	88,933	0,209	0,169
-731,210	526,553	-0,059	0,101
-730,196	760,861	-0,060	-0,118
-729,181	110,191	-0,092	-0,080
-728,167	-200,000	0,007	-0,052
-727,152	800,000	0,010	-0,028
-726,137	-46,266	0,087	-0,031
-725,123	235,788	-0,041	-0,049
-724,108	800,000	-0,054	0,120
-723,094	211,998	0,022	0,026
-722,079	434,530	-0,038	-0,060
-721,064	-169,987	0,093	0,002
-720,050	-58,795	0,140	0,044
-719,035	-161,037	-0,017	0,001
-718,021	211,098	-0,039	0,044
-717,006	325,771	-0,099	-0,139
-715,991	800,000	-0,044	-0,131
-714,977	233,825	-0,055	-0,066
-713,962	-200,000	-0,008	-0,122
-712,948	-200,000	-0,027	-0,091
-711,933	-105,842	-0,136	0,022
-710,918	-8,426	-0,052	-0,025
-709,904	-200,000	-0,004	-0,088
-708,889	-34,374	-0,043	0,017
-707,875	-65,247	-0,236	-0,069
-706,860	800,000	-0,022	0,051
-705,845	800,000	-0,068	0,195
-704,831	513,416	0,021	-0,036
-703,816	7,750	-0,028	0,015
-702,802	800,000	-0,063	-0,141
-701,787	148,804	0,141	-0,139
-700,772	-18,175	-0,166	-0,075
-699,758	7,728	-0,002	-0,001
-698,743	-200,000	-0,005	0,075
-697,729	620,465	0,034	-0,062
-696,714	800,000	0,030	-0,084
-695,699	69,518	0,107	0,080
-694,685	-200,000	-0,037	0,171
-693,670	-80,036	-0,051	0,012
-692,656	-52,585	0,069	0,023
-691,641	353,425	0,063	0,091
-690,627	75,963	0,004	0,003
-689,612	63,175	-0,028	0,020
-688,597	-200,000	0,023	0,115
-687,583	800,000	0,043	0,106
-686,568	-94,410	-0,057	-0,011
-685,554	0,693	-0,089	-0,046
-684,539	-200,000	0,014	-0,047
-683,524	769,100	-0,014	-0,029
-682,510	800,000	-0,025	-0,076
-681,495	-200,000	-0,020	-0,121
-680,481	-123,885	0,107	-0,012
-679,466	20,057	0,021	0,012
-678,451	-144,920	0,064	0,004
-677,437	-156,425	-0,098	-0,004
-676,422	43,909	0,103	0,068
-675,408	64,637	-0,032	0,024
-674,393	90,140	-0,086	0,069
-673,378	18,117	-0,091	-0,052
-672,364	228,802	0,039	-0,046
-671,349	79,369	0,058	0,045
-670,335	-200,000	0,006	-0,064
-669,320	800,000	-0,043	0,132
-668,305	-33,650	0,091	0,036
-667,291	-200,000	-0,019	-0,102
-666,276	497,754	0,047	-0,079
-665,262	52,749	-0,059	-0,041
-664,247	-164,128	-0,039	-0,001
-663,232	-28,341	0,178	0,074
-662,218	-111,138	0,163	0,024
-661,203	-200,000	0,034	-0,195
-660,189	-185,202	0,089	-0,001
-659,174	-99,606	0,119	-0,021
-658,159	-84,962	-0,147	-0,033
-657,145	-88,702	-0,016	0,003
-656,130	-98,420	0,113	0,021
-655,116	47,816	-0,123	-0,083
-654,101	-200,000	-0,008	-0,079
-653,086	800,000	0,013	-0,032
-652,072	93,629	-0,096	0,079
-651,057	550,619	-0,089	-0,155
-650,043	800,000	-0,040	-0,112
-649,028	-13,318	-0,116	0,055
-648,014	60,448	0,146	0,105
-646,999	-35,072	0,065	0,026
-645,984	-16,203	-0,051	-0,023
-644,970	-92,671	0,055	-0,011
-643,955	136,069	0,131	-0,124
-642,941	-200,000	0,002	0,014
-641,926	489,932	0,097	-0,162
-640,911	-200,000	0,021	-0,091
-639,897	-200,000	0,009	0,098
-638,882	-94,985	0,130	-0,025
-637,868	-28,989	0,070	-0,029
-636,853	-78,266	0,069	-0,017
-635,838	-200,000	-0,009	0,049
-634,824	135,375	0,016	0,016
-633,809	-200,000	-0,003	0,090
-632,795	-2,893	0,129	0,065
-631,780	-131,811	0,091	-0,009
-630,765	-200,000	-0,005	-0,064
-629,751	-110,381	-0,029	-0,004
-628,736	-200,000	-0,026	-0,110
-627,722	404,110	0,072	-0,109
-626,707	232,163	-0,036	0,043
-625,692	-200,000	0,018	0,066
-624,678	-55,319	0,221	-0,071
-623,663	800,000	-0,038	-0,079
-622,649	-200,000	-0,008	-0,030
-621,634	699,275	-0,048	0,093
-620,619	800,000	0,027	-0,080
-619,605	676,072	0,061	-0,115
-618,590	800,000	-0,029	-0,073
-617,576	257,885	-0,014	0,017
-616,561	-63,890	-0,092	0,027
-615,546	92,599	0,099	-0,081
-614,532	-200,000	0,021	0,135
-613,517	-157,817	0,021	-0,001
-612,503	-200,000	0,000	-0,069
-611,488	-200,000	-0,002	0,103
-610,474	-29,116	0,042	0,017
-609,459	-112,149	-0,058	0,008
-608,444	-88,062	-0,068	-0,015
-607,430	-200,000	0,016	-0,054
-606,415	132,991	-0,076	0,071
-605,401	13,033	0,130	-0,072
-604,386	-200,000	0,014	0,095
-603,371	-200,000	0,010	-0,050
-602,357	17,736	-0,193	0,111
-601,342	-200,000	-0,020	-0,078
-600,328	-41,973	-0,084	0,031
-599,313	173,430	-0,051	-0,054
-598,298	128,549	0,049	-0,045
-597,284	-144,687	-0,063	-0,004
-596,269	646,417	-0,033	0,061
-595,255	762,357	0,063	0,125
-594,240	-102,360	-0,118	-0,020
-593,225	-20,442	-0,104	0,046
-592,211	424,097	0,072	-0,113
-591,196	2,959	0,081	-0,042
-590,182	117,104	-0,071	-0,063
-589,167	-200,000	-0,004	0,064
-588,152	50,215	0,023	-0,015
-587,138	-200,000	-0,033	0,136
-586,123	270,524	0,042	0,054
-585,109	-18,300	-0,157	-0,071
-584,094	-91,229	-0,074	-0,015
-583,079	-200,000	-0,020	0,142
-582,065	-200,000	0,004	-0,030
-581,050	800,000	0,024	-0,059
-580,036	385,076	-0,133	-0,199
-579,021	-200,000	-0,024	-0,087
-578,006	70,634	-0,083	-0,062
-576,992	-200,000	-0,003	0,093
-575,977	300,399	-0,057	0,076
-574,963	-200,000	-0,005	-0,082
-573,948	90,931	-0,124	0,101
-572,934	800,000	0,055	0,127
-571,919	800,000	-0,064	-0,148
-570,904	456,469	0,089	-0,143
-569,890	-95,746	0,044	0,009
-568,875	-34,867	0,166	0,065
-567,861	-200,000	-0,003	0,186
-566,846	-91,181	0,058	0,012
-565,831	-21,730	-0,094	0,041
-564,817	157,430	0,063	-0,063
-563,802	-200,000	-0,006	0,077
-562,788	-2,863	-0,069	0,035
-561,773	800,000	0,006	-0,019
-560,758	-200,000	-0,046	-0,149
-559,744	82,328	-0,076	-0,060
-558,729	-200,000	-0,015	0,140
-557,715	800,000	0,023	-0,064
-556,700	-139,465	0,048	-0,004
-555,685	23,485	-0,088	0,052
-554,671	-200,000	0,003	0,031
-553,656	800,000	-0,011	0,035
-552,642	83,462	0,018	-0,014
-551,627	800,000	0,012	-0,035
-550,612	-200,000	0,039	-0,137
-549,598	-112,865	-0,078	0,011
-548,583	10,993	-0,038	-0,021
-547,569	800,000	0,016	0,033
-546,554	-110,915	0,061	0,009
-545,539	-200,000	0,018	0,061
-544,525	-200,000	0,036	0,207
-543,510	270,172	0,058	0,073
-542,496	-200,000	-0,001	-0,090
-541,481	800,000	-0,008	0,022
-540,466	-95,072	-0,060	0,012
-539,452	-200,000	0,139	-0,000
-538,437	-112,453	-0,089	0,013
-537,423	800,000	0,030	0,093
-536,408	130,534	0,073	-0,068
-535,393	263,949	-0,093	-0,117
-534,379	800,000	0,013	-0,035
-533,364	-200,000	-0,024	0,143
-532,350	-200,000	0,016	0,107
-531,335	-200,000	-0,013	-0,060
-530,321	11,184	-0,112	-0,062
-529,306	800,000	0,013	0,039
-528,291	224,233	0,068	-0,080
-527,277	87,389	0,099	-0,079
-526,262	535,467	-0,062	-0,106
-525,248	25,212	0,111	-0,067
-524,233	-10,282	-0,100	-0,048
-523,218	-0,139	-0,086	-0,044
-522,204	800,000	0,012	0,034
-521,189	-200,000	-0,023	0,114
-520,175	37,659	-0,069	-0,044
-519,160	-184,845	-0,118	-0,001
-518,145	-200,000	0,006	0,068
-517,131	800,000	-0,031	0,069
-516,116	191,293	-0,054	0,058
-515,102	126,918	-0,097	0,089
-514,087	3,929	-0,104	-0,055
-513,072	-200,000	0,011	0,043
-512,058	800,000	-0,023	-0,067
-511,043	-200,000	0,019	-0,100
-510,029	-128,901	0,123	0,012
-509,014	-200,000	0,048	-0,193
-507,999	641,562	0,014	0,025
-506,985	-16,401	0,073	-0,033
-505,970	-102,136	-0,052	0,009
-504,956	800,000	0,004	-0,014
-503,941	-29,768	0,085	0,035
-502,926	-46,877	-0,042	-0,015
-501,912	696,096	-0,036	0,068
-500,897	125,757	0,011	0,010
-499,883	-0,444	0,086	0,044
-498,868	65,986	0,121	-0,088
-497,853	14,742	-0,074	0,042
-496,839	800,000	0,027	-0,060
-495,824	800,000	0,051	0,121
-494,810	-80,830	-0,074	0,018
-493,795	800,000	0,062	0,166
-492,781	192,106	-0,028	-0,030
-491,766	-98,581	0,031	-0,006
-490,751	332,852	0,048	-0,067
-489,737	-1,081	-0,097	-0,049
-488,722	-200,000	0,015	0,120
-487,708	-97,973	0,173	-0,032
-486,693	-134,270	-0,082	-0,007
-485,678	-59,679	-0,113	0,035
-484,664	199,698	-0,060	0,066
-483,649	683,869	-0,044	-0,083
-482,635	-70,943	-0,087	0,023
-481,620	800,000	0,071	-0,147
-480,605	23,292	-0,104	0,062
-479,591	279,532	0,048	0,062
-478,576	-150,800	-0,133	-0,007
-477,562	-200,000	0,010	0,112
-476,547	-5,009	-0,057	0,028
-475,532	-56,687	-0,074	-0,023
-474,518	800,000	-0,036	0,099
-473,503	657,957	-0,034	0,064
-472,489	800,000	-0,031	0,065
-471,474	-200,000	-0,007	0,031
-470,459	422,136	-0,017	-0,026
-469,445	126,869	-0,152	-0,139
-468,430	-91,547	-0,033	0,007
-467,416	800,000	-0,020	-0,049
-466,401	-200,000	-0,029	0,098
-465,386	304,057	0,063	0,084
-464,372	-200,000	0,012	0,105
-463,357	800,000	-0,017	-0,040
-462,343	396,592	-0,063	0,095
-461,328	145,974	-0,094	-0,091
-460,313	63,577	0,066	0,048
-459,299	-200,000	-0,004	-0,080
-458,284	-76,494	-0,192	0,048
-457,270	-200,000	0,014	-0,068
-456,255	106,300	-0,044	-0,038
-455,241	-200,000	0,001	-0,125
-454,226	-8,913	-0,086	-0,041
-453,211	-200,000	0,006	-0,092
-452,197	800,000	0,045	0,103
-451,182	800,000	-0,032	0,077
-450,168	-20,040	0,046	0,020
-449,153	-77,585	-0,093	0,023
-448,138	-87,720	-0,052	0,011
-447,124	49,005	-0,039	0,026
-446,109	79,928	0,040	0,031
-445,095	-69,944	0,140	-0,038
-444,080	0,691	-0,032	-0,017
-443,065	622,509	0,065	0,118
-442,051	-200,000	0,001	-0,082
-441,036	691,106	0,078	-0,148
-440,022	38,716	-0,044	-0,028
-439,007	-26,676	-0,030	-0,013
-437,992	-200,000	0,005	-0,022
-436,978	-69,057	0,168	0,046
-435,963	-75,194	-0,050	-0,013
-434,949	131,741	-0,034	0,032
-433,934	345,165	-0,083	-0,117
-432,919	800,000	0,007	0,021
-431,905	205,818	0,026	0,029
-430,890	-200,000	0,021	0,141
-429,876	-200,000	0,012	0,111
-428,861	-200,000	-0,012	0,097
-427,846	438,084	-0,028	-0,044
-426,832	280,894	0,035	-0,045
-425,817	-35,155	0,014	-0,006
-424,803	800,000	-0,033	-0,087
-423,788	446,511	-0,083	-0,132
-422,773	-67,696	0,044	0,012
-421,759	800,000	-0,013	-0,026
-420,744	800,000	-0,015	-0,039
-419,730	172,568	-0,100	-0,103
-418,715	28,818	0,086	-0,052
-417,701	-171,669	0,057	-0,001
-416,686	-77,242	-0,134	0,033
-415,671	-200,000	-0,017	0,101
-414,657	101,003	0,066	-0,055
-413,642	-200,000	-0,001	0,065
-412,628	-26,091	0,004	0,002
-411,613	134,765	-0,063	-0,059
-410,598	-200,000	0,035	-0,110
-409,584	101,110	0,061	0,051
-408,569	-54,311	0,067	-0,022
-407,555	-200,000	0,031	-0,124
-406,540	207,454	-0,073	0,082
-405,525	800,000	-0,011	-0,025
-404,511	800,000	-0,056	0,133
-403,496	-200,000	0,004	-0,119
-402,482	-25,807	0,068	0,029
-401,467	4,166	0,076	0,040
-400,452	-59,149	0,099	0,030
-399,438	800,000	-0,064	0,141
-398,423	-191,935	0,079	0,001
-397,409	-200,000	-0,007	0,084
-396,394	169,145	-0,081	0,084
-395,379	98,117	0,008	-0,006
-394,365	-48,528	-0,062	-0,021
-393,350	80,510	0,061	-0,047
-392,336	373,168	-0,135	0,197
-391,321	800,000	0,086	0,176
-390,306	-92,540	-0,069	-0,014
-389,292	800,000	-0,023	0,055
-388,277	-200,000	0,007	0,125
-387,263	75,756	0,169	0,128
-386,248	-200,000	-0,030	0,142
-385,233	-83,555	0,067	-0,015
-384,219	124,830	-0,049	-0,044
-383,204	-200,000	0,001	-0,071
-382,190	-66,392	-0,145	-0,041
-381,175	-162,667	-0,084	0,003
-380,160	-50,273	0,042	-0,014
-379,146	44,859	0,156	0,103
-378,131	-78,575	-0,196	0,048
-377,117	80,897	-0,067	-0,052
-376,102	141,650	0,029	-0,028
-375,088	-108,868	0,031	-0,005
-374,073	800,000	-0,028	-0,067
-373,058	70,959	-0,079	-0,058
-372,044	800,000	0,036	-0,072
-371,029	362,086	-0,038	-0,055
-370,015	605,055	-0,062	0,110
-369,000	92,363	0,100	0,080
-367,985	434,145	0,063	-0,098
-366,971	-120,070	0,037	-0,004
-365,956	509,535	0,006	0,010
-364,942	38,193	-0,079	-0,050
-363,927	-97,203	0,063	0,012
-362,912	-200,000	0,001	-0,045
-361,898	147,586	-0,077	-0,074
-360,883	73,059	-0,037	-0,027
-359,869	147,488	0,033	-0,032
-358,854	266,900	0,064	0,081
-357,839	14,628	-0,079	0,044
-356,825	800,000	0,020	0,061
-355,810	800,000	0,045	-0,091
-354,796	186,930	-0,071	-0,076
-353,781	-43,664	-0,076	0,027
-352,766	143,643	0,011	0,011
-351,752	204,732	0,094	0,104
-350,737	-98,562	0,145	-0,026
-349,723	-162,279	-0,111	0,004
-348,708	460,976	0,075	-0,120
-347,693	800,000	0,051	0,157
-346,679	93,835	-0,108	-0,088
-345,664	-63,483	-0,095	0,028
-344,650	800,000	0,071	0,170
-343,635	-200,000	0,003	-0,042
-342,620	-200,000	0,013	-0,076
-341,606	-200,000	-0,017	0,092
-340,591	-35,130	-0,042	0,016
-339,577	444,666	0,050	0,079
-338,562	-115,641	-0,089	0,012
-337,548	-200,000	-0,007	-0,142
-336,533	-111,541	0,049	0,007
-335,518	473,352	-0,136	0,220
-334,504	-8,626	0,028	0,014
-333,489	-79,620	-0,100	0,024
-332,475	-200,000	-0,006	-0,071
-331,460	68,288	-0,035	-0,025
-330,445	800,000	-0,017	0,034
-329,431	182,306	0,047	-0,050
-328,416	-200,000	-0,021	0,192
-327,402	12,729	0,124	0,068
-326,387	16,503	-0,090	0,051
-325,372	800,000	-0,025	-0,063
-324,358	800,000	-0,043	-0,091
-323,343	700,638	0,065	0,122
-322,329	-107,542	0,095	0,015
-321,314	-122,139	-0,092	0,011
-320,299	-77,691	0,074	0,018
-319,285	800,000	0,047	-0,114
-318,270	79,036	0,043	-0,033
-317,256	80,986	-0,051	0,040
-316,241	333,067	0,046	0,064
-315,226	800,000	0,010	-0,022
-314,212	-200,000	-0,011	0,073
-313,197	-200,000	-0,002	0,189
-312,183	187,692	0,089	-0,096
-311,168	-153,631	-0,138	0,007
-310,153	279,393	-0,078	-0,099
-309,139	800,000	0,042	-0,085
-308,124	-30,047	0,032	0,013
-307,110	-200,000	0,025	0,136
-306,095	-86,907	0,131	0,028
-305,080	-70,368	-0,070	0,019
-304,066	-93,454	0,145	-0,029
-303,051	176,980	-0,129	-0,135
-302,037	111,045	-0,044	-0,038
-301,022	-12,817	-0,033	0,015
-300,008	175,853	0,042	0,044
-298,993	196,707	0,021	0,023
-297,978	104,361	0,028	0,024
-296,964	86,966	-0,157	-0,124
-295,949	-100,910	-0,031	-0,005
-294,935	-40,421	0,140	-0,052
-293,920	-114,787	-0,057	0,008
-292,905	-200,000	0,001	-0,042
-291,891	610,084	0,023	-0,041
-290,876	-139,576	0,039	-0,003
-289,862	-200,000	0,017	0,075
-288,847	144,326	-0,083	-0,079
-287,832	-79,129	-0,094	-0,023
-286,818	-200,000	0,018	-0,073
-285,803	132,293	-0,076	-0,070
-284,789	-200,000	0,003	-0,099
-283,774	14,807	0,044	0,025
-282,759	220,739	-0,153	-0,175
-281,745	269,639	-0,111	-0,140
-280,730	-64,565	0,019	0,005
-279,716	11,757	0,127	-0,069
-278,701	-200,000	-0,016	-0,075
-277,686	2,056	0,011	0,006
-276,672	84,318	0,101	-0,079
-275,657	-200,000	0,004	-0,047
-274,643	-125,953	-0,113	0,012
-273,628	582,348	0,038	-0,066
-272,613	-138,313	0,039	0,003
-271,599	-91,638	0,100	-0,020
-270,584	-200,000	0,025	0,234
-269,570	-200,000	0,014	-0,053
-268,555	800,000	0,007	0,016
-267,540	-15,842	0,030	-0,014
-266,526	-200,000	0,019	-0,108
-265,511	-46,000	-0,088	0,031
-264,497	800,000	0,035	0,095
-263,482	84,112	0,127	0,099
-262,467	476,265	0,033	0,054
-261,453	-147,956	-0,107	0,006
-260,438	-200,000	0,015	-0,107
-259,424	2,635	-0,087	-0,045
-258,409	-100,573	0,075	-0,013
-257,395	-85,695	0,062	0,014
-256,380	-164,504	0,135	0,004
-255,365	3,558	0,023	0,012
-254,351	-67,529	-0,031	-0,009
-253,336	30,598	0,019	0,012
-252,322	170,692	-0,070	-0,071
-251,307	313,981	-0,105	-0,142
-250,292	-112,132	0,038	-0,005
-249,278	-200,000	0,022	0,101
-248,263	616,399	0,028	-0,051
-247,249	-200,000	0,059	0,209
-246,234	-200,000	-0,011	0,057
-245,219	294,930	0,058	-0,076
-244,205	-200,000	0,015	-0,100
-243,190	-29,774	-0,058	-0,023
-242,176	-200,000	0,007	-0,045
-241,161	-145,150	0,072	0,005
-240,146	20,594	-0,132	0,076
-239,132	-200,000	0,046	-0,168
-238,117	-195,026	-0,020	0,000
-237,103	800,000	0,037	-0,110
-236,088	11,178	-0,021	0,011
-235,073	107,464	0,028	-0,024
-234,059	-83,310	-0,170	0,039
-233,044	14,175	0,086	-0,048
-232,030	-200,000	0,039	0,166
-231,015	-200,000	-0,004	0,027
-230,000	-108,805	-0,089	0,013
-228,986	268,011	0,046	0,058
-227,971	226,157	0,051	0,059
-226,957	206,021	-0,051	-0,057
-225,942	48,241	0,170	-0,113
-224,927	152,559	-0,128	0,125
-223,913	-200,000	0,013	-0,123
-222,898	-108,016	0,147	-0,023
-221,884	-103,402	0,066	-0,011
-220,869	-200,000	0,008	-0,089
-219,855	-200,000	0,012	0,048
-218,840	-134,701	0,103	-0,009
-217,825	800,000	-0,020	0,048
-216,811	800,000	-0,035	-0,071
-215,796	800,000	-0,026	-0,076
-214,782	-200,000	-0,039	-0,165
-213,767	74,287	-0,125	0,093
-212,752	-57,992	0,067	-0,021
-211,738	-38,219	0,184	0,069
-210,723	-121,087	-0,052	-0,006
-209,709	800,000	0,026	0,071
-208,694	73,874	0,021	-0,016
-207,679	-200,000	0,026	-0,183
-206,665	432,361	0,063	0,097
-205,650	360,960	-0,035	0,050
-204,636	800,000	-0,039	0,087
-203,621	800,000	-0,054	0,145
-202,606	-200,000	0,016	0,080
-201,592	234,554	-0,154	-0,182
-200,577	8,089	0,153	-0,081
-199,563	-101,179	0,084	-0,014
-198,548	-200,000	0,013	-0,055
-197,533	14,596	-0,047	-0,026
-196,519	210,725	0,039	0,044
-195,504	-7,335	0,055	-0,026
-194,490	23,995	0,116	0,068
-193,475	157,237	-0,060	-0,059
-192,460	-192,721	-0,132	0,001
-191,446	182,713	0,053	-0,056
-190,431	-7,940	0,079	0,038
-189,417	0,883	-0,015	-0,008
-188,402	800,000	0,046	-0,100
-187,387	192,798	0,096	-0,103
-186,373	-200,000	0,010	-0,072
-185,358	0,346	0,092	0,046
-184,344	-200,000	0,022	0,167
-183,329	-67,013	0,083	-0,023
-182,315	-59,865	0,148	0,045
-181,300	-88,229	0,066	-0,014
-180,285	-26,241	-0,180	-0,075
-179,271	-103,660	-0,033	-0,006
-178,256	-75,622	0,087	0,022
-177,242	800,000	0,087	0,211
-176,227	17,067	0,064	0,036
-175,212	-200,000	0,023	0,123
-174,198	178,904	-0,035	-0,037
-173,183	353,518	-0,049	-0,069
-172,169	439,498	0,037	-0,058
-171,154	43,343	0,055	0,036
-170,139	87,138	-0,075	-0,059
-169,125	14,353	0,068	0,038
-168,110	-1,577	0,021	-0,011
-167,096	-200,000	-0,013	0,112
-166,081	-5,021	-0,042	-0,020
-165,066	117,872	-0,111	-0,097
-164,052	-152,443	0,089	-0,004
-163,037	-200,000	0,010	0,079
-162,023	186,379	0,050	-0,053
-161,008	-39,670	0,083	-0,031
-159,993	-200,000	0,009	-0,067
-158,979	-200,000	0,008	-0,027
-157,964	192,920	-0,033	0,035
-156,950	139,344	-0,134	-0,125
-155,935	-46,725	0,049	0,017
-154,920	356,961	0,053	0,075
-153,906	-200,000	-0,045	0,277
-152,891	55,270	-0,041	-0,028
-151,877	-200,000	0,015	-0,122
-150,862	30,942	-0,106	-0,064
-149,847	-200,000	0,017	-0,127
-148,833	376,080	-0,098	0,143
-147,818	46,355	0,050	0,033
-146,804	594,807	0,105	0,186
-145,789	90,272	-0,014	0,011
-144,775	214,497	-0,080	-0,090
-143,760	-79,086	-0,062	0,015
-142,745	-200,000	0,019	-0,084
-141,731	800,000	0,057	0,120
-140,716	800,000	0,035	-0,091
-139,702	361,337	0,045	0,064
-138,687	787,534	0,024	-0,046
-137,672	800,000	-0,022	-0,061
-136,658	-26,279	0,031	0,013
-135,643	-96,900	-0,283	-0,052
-134,629	-200,000	-0,004	-0,090
-133,614	-108,249	0,193	-0,029
-132,599	-200,000	0,007	0,038
-131,585	-200,000	-0,017	0,054
-130,570	-123,560	0,056	-0,006
-129,556	-138,917	-0,130	0,010
-128,541	-200,000	0,022	-0,112
-127,526	-1,330	0,149	0,074
-126,512	166,967	0,054	0,055
-125,497	329,525	-0,005	0,007
-124,483	-200,000	0,026	-0,091
-123,468	-127,734	0,147	-0,015
-122,453	122,161	-0,082	-0,073
-121,439	-131,068	0,054	0,005
-120,424	252,216	-0,123	-0,150
-119,410	-126,216	0,100	-0,010
-118,395	-200,000	-0,014	-0,104
-117,380	-102,601	-0,112	0,019
-116,366	308,493	0,030	-0,040
-115,351	-22,242	0,055	0,023
-114,337	800,000	-0,020	0,040
-113,322	-62,258	0,059	0,017
-112,307	-200,000	0,038	-0,164
-111,293	-32,426	0,186	0,073
-110,278	231,249	0,050	0,058
-109,264	-24,475	0,148	0,062
-108,249	62,189	-0,091	-0,065
-107,234	41,148	-0,111	-0,071
-106,220	306,515	0,019	-0,025
-105,205	-76,211	0,080	0,020
-104,191	-135,648	0,203	0,017
-103,176	-3,831	0,061	-0,030
-102,162	-158,155	-0,058	-0,002
-101,147	521,758	0,069	-0,116
-100,132	288,836	-0,111	-0,143
-99,118	103,589	-0,117	-0,097
-98,103	-114,295	0,138	0,019
-97,089	66,734	0,138	0,100
-96,074	205,231	0,032	0,035
-95,059	800,000	0,008	-0,018
-94,045	-200,000	0,001	-0,099
-93,030	-200,000	0,009	-0,038
-92,016	-200,000	-0,016	-0,070
-91,001	800,000	-0,050	-0,113
-89,986	131,173	0,059	0,054
-88,972	36,673	0,049	-0,031
-87,957	-200,000	-0,019	-0,081
-86,943	100,981	0,117	0,097
-85,928	16,172	0,062	0,035
-84,913	152,450	-0,078	-0,076
-83,899	184,374	-0,092	0,097
-82,884	-7,118	-0,074	-0,036
-81,870	-145,807	0,090	-0,006
-80,855	50,061	-0,034	-0,023
-79,840	294,297	-0,048	-0,063
-78,826	131,304	-0,148	-0,135
-77,811	800,000	0,065	-0,200
-76,797	133,266	0,151	0,139
-75,782	800,000	0,062	-0,127
-74,767	-200,000	-0,006	0,036
-73,753	-200,000	0,014	0,101
-72,738	-134,349	-0,080	-0,007
-71,724	303,975	-0,134	-0,177
-70,709	800,000	-0,040	-0,107
-69,694	206,147	-0,069	0,077
-68,680	423,050	-0,051	-0,079
-67,665	721,293	0,008	0,015
-66,651	-200,000	-0,022	0,093
-65,636	-200,000	0,009	0,043
-64,622	205,685	0,020	-0,022
-63,607	30,850	0,078	-0,048
-62,592	-104,316	-0,137	-0,022
-61,578	357,998	-0,045	-0,064
-60,563	253,642	0,011	-0,013
-59,549	59,050	0,140	0,097
-58,534	33,689	-2,216	-1,363
-57,519	-200,000	-0,102	-0,657
-56,505	-200,000	-1,361	-5,096
-55,490	180,184	0,936	0,974
-54,476	800,000	5,228	11,878
-53,461	-200,000	18,746	310,414
-52,446	800,000	738,216	2276,832
-51,432	542,571	1649,786	2798,533
-50,417	76,119	1675,788	1255,346
-49,403	20,427	1597,172	912,280
-48,388	14,991	1551,376	858,116
-47,373	17,609	1542,301	866,471
-46,359	16,486	1531,787	854,823
-45,344	13,496	1527,137	837,009
-44,330	13,390	1525,046	835,290
-43,315	13,371	1523,342	834,229
-42,300	13,295	1522,231	833,199
-41,286	13,261	1520,802	832,215
-40,271	13,307	1519,149	831,506
-39,257	13,346	1517,699	830,881
-38,242	13,364	1516,008	830,011
-37,227	13,305	1514,840	829,041
-36,213	13,324	1513,361	828,295
-35,198	13,268	1512,110	827,297
-34,184	13,388	1510,782	827,141
-33,169	13,364	1509,237	826,139
-32,154	13,404	1507,694	825,462
-31,140	13,392	1506,373	824,647
-30,125	13,415	1505,097	824,033
-29,111	13,404	1503,592	823,120
-28,096	13,405	1502,771	822,640
-27,082	13,400	1501,938	822,127
-26,067	13,384	1500,488	821,222
-25,052	13,355	1499,479	820,494
-24,038	13,369	1498,195	819,829
-23,023	13,342	1496,962	818,985
-22,009	13,431	1495,909	818,819
-20,994	13,389	1495,086	818,129
-19,979	13,373	1494,113	817,482
-18,965	13,364	1493,109	816,858
-17,950	13,379	1492,208	816,404
-16,936	13,347	1491,007	815,559
-15,921	13,305	1489,964	814,747
-14,906	13,253	1488,900	813,877
-13,892	13,273	1487,784	813,332
-12,877	13,278	1486,856	812,815
-11,863	13,232	1485,590	811,866
-10,848	13,258	1485,041	811,662
-9,833	13,321	1483,999	811,371
-8,819	13,338	1482,944	810,848
-7,804	13,305	1481,813	810,034
-6,790	13,276	1481,287	809,570
-5,775	13,275	1480,448	809,072
-4,760	13,305	1479,228	808,523
-3,746	13,259	1478,255	807,734
-2,731	13,118	1477,425	806,554
-1,717	13,026	1476,250	805,430
-0,702	13,064	1475,235	805,031
0,313	12,870	1474,311	804,788
1,327	16,513	1470,967	820,710
2,342	25,973	1238,258	729,508
3,356	22,312	697,651	402,567
4,371	-7,076	466,775	223,473
5,386	-10,850	438,697	204,418
6,400	-12,018	429,557	198,445
7,415	-12,325	426,058	196,369
8,429	-12,566	423,544	194,848
9,444	-12,696	422,275	194,061
10,459	-12,808	421,110	193,348
11,473	-12,917	420,161	192,741
12,488	-13,299	419,133	191,710
13,502	-13,450	418,224	191,065
14,517	-13,425	417,332	190,676
15,531	-13,545	416,506	190,111
16,546	-13,660	416,161	189,775
17,561	-13,663	415,553	189,477
18,575	-13,596	414,754	189,190
19,590	-13,711	414,333	188,821
20,604	-13,599	413,723	188,682
21,619	-13,867	413,360	188,126
22,634	-13,634	412,716	188,140
23,648	-13,820	412,205	187,631
24,663	-13,858	411,799	187,376
25,677	-13,806	411,356	187,230
26,692	-13,856	411,005	186,985
27,707	-13,861	410,563	186,761
28,721	-13,773	410,059	186,637
29,736	-13,929	409,488	186,144
30,750	-13,833	409,259	186,157
31,765	-13,920	408,792	185,807
32,780	-13,849	408,389	185,705
33,794	-13,886	408,120	185,515
34,809	-13,922	407,615	185,219
35,823	-13,994	407,225	184,927
36,838	-13,891	406,839	184,877
37,853	-13,939	406,379	184,586
38,867	-13,929	406,038	184,427
39,882	-14,057	405,656	184,062
40,896	-14,011	405,311	183,953
41,911	-14,019	404,943	183,757
42,926	-13,982	404,436	183,562
43,940	-14,044	404,030	183,277
44,955	-14,022	403,617	183,103
45,969	-14,092	403,339	182,866
46,984	-14,299	403,011	182,419
47,999	-14,618	402,568	181,770
49,013	-14,548	402,122	181,648
50,028	-14,827	401,675	181,051
51,042	-14,750	401,228	180,938
52,057	-14,783	400,977	180,763
53,071	-14,696	400,583	180,687
54,086	-14,671	400,271	180,564
55,101	-14,617	400,169	180,574
56,115	-14,239	399,831	180,915
57,130	-13,719	399,697	181,540
58,144	-13,514	399,579	181,745
59,159	-13,526	399,126	181,507
60,174	-13,513	398,703	181,316
61,188	-13,494	398,308	181,144
62,203	-13,691	398,132	180,785
63,217	-13,798	397,506	180,342
64,232	-13,754	397,383	180,328
65,247	-13,514	397,056	180,484
66,261	-13,688	396,745	180,095
67,276	-14,054	396,099	179,298
68,290	-14,279	395,688	178,796
69,305	-14,200	395,255	178,690
70,320	-14,191	394,976	178,559
71,334	-14,030	394,832	178,692
72,349	-13,714	394,769	179,067
73,363	-13,566	394,408	179,084
74,378	-13,670	394,092	178,787
75,393	-13,736	393,521	178,424
76,407	-13,856	393,259	178,131
77,422	-13,727	392,793	178,075
78,436	-13,616	392,553	178,096
79,451	-13,663	392,131	177,827
80,466	-13,865	391,797	177,393
81,480	-13,975	391,339	177,026
82,495	-14,182	391,066	176,614
83,509	-14,065	390,963	176,705
84,524	-14,019	390,416	176,503
85,539	-14,310	390,148	175,985
86,553	-14,149	389,694	175,974
87,568	-14,032	389,589	176,066
88,582	-14,062	389,198	175,834
89,597	-14,097	388,968	175,668
90,611	-13,905	388,660	175,764
91,626	-13,775	388,627	175,903
92,641	-13,797	388,101	175,620
93,655	-13,928	387,730	175,266
94,670	-13,947	387,479	175,112
95,684	-13,915	387,102	174,968
96,699	-13,941	386,718	174,745
97,714	-14,030	386,509	174,520
98,728	-14,302	386,022	173,932
99,743	-14,394	385,837	173,714
100,757	-14,283	385,467	173,675
101,772	-14,174	385,310	173,730
102,787	-13,984	384,878	173,765
103,801	-14,009	384,691	173,633
104,816	-14,053	384,507	173,478
105,830	-13,719	384,154	173,734
106,845	-13,717	383,996	173,649
107,860	-13,815	383,679	173,364
108,874	-13,793	383,350	173,229
109,889	-13,837	383,001	172,999
110,903	-13,955	382,707	172,699
111,918	-13,807	382,295	172,688
112,933	-13,799	381,928	172,517
113,947	-13,680	381,732	172,565
114,962	-13,770	381,669	172,406
115,976	-13,750	381,255	172,229
116,991	-13,865	380,832	171,876
118,006	-13,845	380,831	171,886
119,020	-13,844	380,573	171,756
120,035	-13,631	380,393	171,930
121,049	-13,605	380,081	171,807
122,064	-13,622	379,627	171,564
123,079	-13,695	379,375	171,342
124,093	-13,906	379,223	170,990
125,108	-14,083	378,571	170,457
126,122	-14,318	378,243	169,996
127,137	-14,406	377,809	169,674
128,151	-14,289	377,735	169,775
129,166	-14,185	377,421	169,750
130,181	-14,165	377,049	169,592
131,195	-14,140	376,698	169,452
132,210	-13,810	376,637	169,825
133,224	-13,783	376,300	169,692
134,239	-13,754	376,210	169,672
135,254	-13,776	375,783	169,437
136,268	-13,858	375,430	169,159
137,283	-14,201	374,959	168,502
138,297	-14,259	374,612	168,259
139,312	-14,270	374,398	168,134
140,327	-13,753	374,309	168,726
141,341	-13,420	374,345	169,143
142,356	-13,364	374,004	169,045
143,370	-13,490	373,894	168,823
144,385	-13,425	373,680	168,792
145,400	-13,331	373,266	168,707
146,414	-13,327	372,940	168,549
147,429	-13,464	372,686	168,248
148,443	-13,548	372,170	167,896
149,458	-13,543	372,049	167,833
150,473	-13,429	371,690	167,798
151,487	-13,585	371,525	167,515
152,502	-13,503	371,389	167,540
153,516	-13,467	370,971	167,381
154,531	-13,368	370,700	167,368
155,546	-13,565	370,442	166,991
156,560	-13,539	370,196	166,898
157,575	-13,604	369,723	166,589
158,589	-13,516	369,571	166,615
159,604	-13,158	369,372	166,952
160,619	-13,168	369,263	166,875
161,633	-13,090	368,974	166,826
162,648	-13,179	368,651	166,556
163,662	-13,337	368,359	166,214
164,677	-13,559	368,157	165,836
165,692	-13,514	367,879	165,751
166,706	-13,153	367,645	166,073
167,721	-13,163	367,530	165,994
168,735	-13,081	367,323	165,987
169,750	-13,226	366,962	165,632
170,764	-13,374	366,870	165,394
171,779	-13,348	366,525	165,255
172,794	-13,090	366,241	165,427
173,808	-13,489	365,947	164,794
174,823	-13,869	365,221	163,989
175,837	-14,168	365,173	163,589
176,852	-13,557	364,960	164,223
177,867	-13,361	364,957	164,445
178,881	-13,513	364,698	164,129
179,896	-13,386	364,375	164,123
180,910	-13,142	364,106	164,283
181,925	-13,306	363,999	164,021
182,940	-13,253	363,690	163,931
183,954	-13,138	363,554	163,994
184,969	-13,218	363,256	163,748
185,983	-13,061	362,940	163,781
186,998	-12,958	362,752	163,807
188,013	-13,000	362,515	163,634
189,027	-13,157	362,191	163,284
190,042	-13,219	361,972	163,096
191,056	-13,048	361,670	163,152
192,071	-13,015	361,707	163,194
193,086	-12,798	361,123	163,175
194,100	-12,698	361,366	163,391
195,115	-12,430	360,991	163,529
196,129	-12,309	361,103	163,711
197,144	-8,150	363,105	169,622
198,159	-4,285	364,823	175,087
199,173	-0,844	366,435	180,020
200,188	-0,030	366,496	181,020
201,202	-0,294	366,062	180,470
202,217	-0,338	365,719	180,232
203,232	-0,116	365,686	180,468
204,246	0,110	365,484	180,625
205,261	0,194	365,442	180,690
206,275	0,322	365,188	180,703
207,290	0,405	364,825	180,606
208,304	0,371	364,580	180,428
209,319	0,309	364,323	180,210
210,334	0,312	364,060	180,068
211,348	0,191	363,760	179,757
212,363	-0,066	363,369	179,241
213,377	-0,176	363,272	179,045
214,392	-0,006	362,950	179,074
215,407	0,188	362,746	179,189
216,421	0,188	362,567	179,084
217,436	0,106	362,231	178,805
218,450	0,009	361,986	178,552
219,465	-0,319	361,758	178,032
220,480	-0,194	361,448	178,013
221,494	-0,283	361,254	177,795
222,509	0,056	361,265	178,189
223,523	0,145	360,916	178,106
224,538	-0,015	360,537	177,714
225,553	-0,135	360,401	177,489
226,567	-0,086	360,216	177,439
227,582	0,168	360,060	177,649
228,596	0,430	360,145	177,986
229,611	0,130	359,596	177,343
230,626	-0,290	359,241	176,655
231,640	-0,006	358,940	176,826
232,655	0,279	358,953	177,155
233,669	0,498	358,783	177,314
234,684	0,530	358,622	177,257
235,699	0,316	358,332	176,845
236,713	0,096	357,923	176,367
237,728	-0,048	357,560	176,003
238,742	-0,252	357,279	175,609
239,757	0,082	357,068	175,882
240,772	-0,123	356,888	175,537
241,786	-0,142	356,580	175,348
242,801	0,269	356,416	175,734
243,815	0,568	356,399	176,061
244,830	0,314	356,042	175,570
245,844	0,022	355,651	175,020
246,859	-0,134	355,438	174,718
247,874	0,260	355,176	175,034
248,888	0,381	355,023	175,083
249,903	0,202	354,782	174,740
250,917	0,175	354,533	174,571
251,932	-0,015	354,371	174,254
252,947	-0,259	353,925	173,735
253,961	-0,260	353,703	173,609
254,976	-0,061	353,543	173,746
255,990	0,142	353,526	173,959
257,005	0,251	353,351	173,983
258,020	0,157	353,082	173,727
259,034	0,122	352,782	173,523
260,049	0,214	352,528	173,490
261,063	0,315	352,251	173,455
262,078	0,419	352,311	173,589
263,093	0,590	352,098	173,667
264,107	0,359	351,851	173,263
265,122	0,340	351,504	173,054
266,136	0,463	351,323	173,091
267,151	0,428	350,985	172,869
268,166	0,037	350,559	172,193
269,180	-0,296	350,386	171,710
270,195	-0,089	350,133	171,809
271,209	-0,112	349,909	171,657
272,224	0,082	349,686	171,755
273,239	0,116	349,633	171,752
274,253	0,082	349,335	171,552
275,268	-0,147	348,983	171,102
276,282	-0,273	348,712	170,809
277,297	-0,434	348,616	170,562
278,312	-0,028	348,451	170,931
279,326	0,038	348,222	170,878
280,341	0,147	347,888	170,824
281,355	0,321	347,633	170,882
282,370	0,286	347,645	170,833
283,384	0,036	347,168	170,299
284,399	-0,130	346,854	169,940
285,414	-0,159	346,721	169,827
286,428	0,007	346,574	169,929
287,443	0,366	346,410	170,241
288,457	0,313	346,198	170,062
289,472	0,033	345,830	169,548
290,487	-0,146	345,270	169,056
291,501	-0,345	345,111	168,738
292,516	-0,329	345,162	168,765
293,530	-0,162	344,858	168,791
294,545	-0,224	344,697	168,627
295,560	0,097	344,608	168,931
296,574	0,026	344,411	168,739
297,589	-0,203	344,174	168,349
298,603	0,157	343,962	168,636
299,618	0,137	343,711	168,476
300,633	0,197	343,670	168,508
301,647	0,427	343,361	168,601
302,662	0,461	343,244	168,566
303,676	0,333	343,015	168,295
304,691	0,384	342,776	168,221
305,706	0,374	342,618	168,116
306,720	0,449	342,208	167,984
307,735	-0,005	341,928	167,323
308,749	0,018	341,687	167,216
309,764	0,179	341,618	167,347
310,779	0,328	341,357	167,372
311,793	0,008	341,126	166,886
312,808	0,160	340,878	166,920
313,822	0,339	340,664	166,999
314,837	0,187	340,470	166,720
315,852	-0,008	340,158	166,335
316,866	0,186	340,051	166,484
317,881	0,378	339,695	166,508
318,895	0,291	339,484	166,293
319,910	-0,059	339,107	165,706
320,925	-0,413	338,867	165,181
321,939	-0,465	338,626	164,992
322,954	-0,439	338,702	165,043
323,968	0,226	338,596	165,712
324,983	0,418	338,278	165,755
325,997	0,692	338,317	166,062
327,012	0,571	337,908	165,712
328,027	0,540	337,644	165,533
329,041	0,546	337,624	165,516
330,056	0,441	337,272	165,213
331,070	0,066	336,957	164,631
332,085	-0,227	336,626	164,132
333,100	-0,011	336,482	164,285
334,114	0,439	336,264	164,658
335,129	0,402	336,162	164,553
336,143	0,402	335,855	164,388
337,158	0,285	335,763	164,199
338,173	0,207	335,416	163,930
339,187	0,042	335,097	163,579
340,202	0,035	334,913	163,466
341,216	-0,078	334,796	163,272
342,231	0,002	334,629	163,263
343,246	0,269	334,227	163,344
344,260	0,047	334,212	163,080
345,275	0,188	334,038	163,134
346,289	0,222	333,697	162,990
347,304	-0,037	333,524	162,609
348,319	0,327	333,160	162,813
349,333	0,538	333,251	163,072
350,348	0,515	332,991	162,905
351,362	0,654	332,927	163,010
352,377	0,548	332,651	162,745
353,392	0,484	332,379	162,528
354,406	0,347	332,096	162,227
355,421	198,225	1326,779	1394,376
356,435	162,325	1447,892	1394,321
