DTS Sentinel unit serial number:	SN410029Multiplexer serial number:	ORYXHardware model number:	OX2-SRSoftware version number:	ORYX F/W v4,00 Oryx Data Collector v3.7.2.0data status	okinstallation	B6 Nyhavnadifferential loss correction	single-endedforward channel	channel 2reverse channel	N/Adate	2023/12/10time	04:25:08forward acquisition time	300,00reverse acquisition time	0,00gamma	499,1914k internal	0,3125k external	0,3125temperature offset calibration	1,0000default loss term (dB/km)	0,3820temperature slope calibration	1,0000multiplexer offset coefficient	1,0000multiplexer slope coefficient	1,0000fibre end	0,00T internal ref (°C)	22,18T ext. ref 1 (°C)	6,23T ext. ref 2 (°C)	6,20length (m)	temperature (°C)	Stokes	anti-Stokes-744,400	-70,769	0,042	0,012
-743,385	-123,321	-0,316	0,037
-742,371	5,844	0,090	-0,050
-741,356	-105,291	-0,219	0,037
-740,342	112,524	0,035	-0,031
-739,327	-76,973	-0,253	0,065
-738,312	45,749	-0,076	0,053
-737,298	37,348	-0,291	0,192
-736,283	14,046	0,125	0,072
-735,269	336,866	-0,169	0,245
-734,254	133,426	0,071	0,068
-733,239	-117,733	-0,476	0,063
-732,225	232,071	0,112	-0,137
-731,210	0,020	-0,059	-0,031
-730,196	231,120	-0,037	0,046
-729,181	800,000	-0,037	0,089
-728,167	-200,000	0,035	-0,137
-727,152	-82,752	-0,139	0,033
-726,137	-200,000	0,031	0,124
-725,123	141,523	-0,032	-0,031
-724,108	-200,000	-0,002	-0,012
-723,094	-137,368	-0,040	-0,003
-722,079	198,531	-0,073	-0,083
-721,064	4,823	-0,020	0,011
-720,050	-200,000	0,003	0,013
-719,035	483,425	0,036	0,060
-718,021	332,095	-0,021	-0,030
-717,006	29,903	-0,148	-0,094
-715,991	-163,371	-0,021	-0,001
-714,977	45,103	-0,059	0,041
-713,962	60,960	-0,102	-0,075
-712,948	162,416	-0,009	0,009
-711,933	550,278	0,021	-0,037
-710,918	55,210	-0,127	-0,091
-709,904	178,957	-0,080	-0,088
-708,889	47,445	-0,100	0,070
-707,875	53,664	-0,030	0,022
-706,860	-200,000	0,003	0,102
-705,845	656,256	-0,038	-0,073
-704,831	-143,866	0,029	-0,002
-703,816	-173,345	-0,075	0,002
-702,802	-78,337	0,128	-0,032
-701,787	-60,008	-0,129	-0,041
-700,772	-130,007	-0,064	0,006
-699,758	-200,000	0,011	-0,164
-698,743	-200,000	-0,015	0,060
-697,729	800,000	0,031	-0,081
-696,714	-44,858	0,094	0,035
-695,699	49,745	0,073	0,051
-694,685	511,705	-0,068	-0,119
-693,670	93,100	0,071	-0,060
-692,656	-68,361	0,081	0,023
-691,641	-200,000	-0,010	-0,173
-690,627	-137,727	-0,050	0,004
-689,612	322,154	-0,083	-0,117
-688,597	-85,750	-0,093	0,021
-687,583	-200,000	-0,014	0,123
-686,568	31,577	-0,125	-0,080
-685,554	-200,000	0,007	-0,115
-684,539	-39,345	0,061	0,024
-683,524	-200,000	0,002	0,018
-682,510	158,640	0,063	0,065
-681,495	-200,000	-0,012	-0,062
-680,481	46,702	-0,054	0,037
-679,466	-36,655	-0,038	0,015
-678,451	-102,613	0,107	0,019
-677,437	34,957	0,140	0,091
-676,422	-85,541	0,031	0,007
-675,408	537,521	0,010	-0,018
-674,393	800,000	-0,022	-0,047
-673,378	800,000	-0,061	-0,154
-672,364	-32,514	-0,140	-0,058
-671,349	-200,000	-0,024	-0,084
-670,335	-43,551	0,072	0,027
-669,320	800,000	-0,054	0,137
-668,305	411,935	-0,074	0,116
-667,291	399,576	-0,054	-0,084
-666,276	112,622	-0,117	-0,105
-665,262	270,792	-0,022	0,028
-664,247	283,276	-0,089	0,119
-663,232	-7,690	0,057	0,028
-662,218	770,413	-0,041	-0,083
-661,203	42,770	-0,063	0,042
-660,189	-121,356	0,074	0,009
-659,174	-200,000	-0,005	-0,029
-658,159	-14,737	-0,171	0,081
-657,145	127,366	0,027	0,025
-656,130	800,000	-0,076	0,242
-655,116	421,197	0,089	0,142
-654,101	-58,166	-0,030	0,010
-653,086	-30,544	-0,035	0,015
-652,072	-200,000	-0,012	-0,059
-651,057	531,095	-0,081	-0,142
-650,043	8,192	-0,056	0,031
-649,028	375,039	-0,041	0,063
-648,014	127,129	-0,057	-0,054
-646,999	-27,767	0,126	-0,054
-645,984	271,301	-0,051	0,066
-644,970	168,765	0,007	0,007
-643,955	167,217	0,011	-0,011
-642,941	-47,910	-0,107	-0,038
-641,926	-35,485	0,102	-0,041
-640,911	105,745	0,063	0,055
-639,897	800,000	0,060	0,146
-638,882	-40,049	0,065	-0,025
-637,868	-200,000	-0,010	-0,144
-636,853	403,278	-0,072	-0,113
-635,838	158,649	-0,121	0,125
-634,824	-200,000	-0,007	0,054
-633,809	-18,697	0,019	0,009
-632,795	-200,000	0,000	-0,105
-631,780	-56,938	-0,127	-0,041
-630,765	730,640	-0,035	0,069
-629,751	-71,883	-0,126	0,034
-628,736	800,000	0,016	0,034
-627,722	-17,252	-0,071	0,033
-626,707	26,331	0,071	0,044
-625,692	-157,894	0,111	0,005
-624,678	588,950	-0,045	-0,082
-623,663	-46,235	0,121	0,044
-622,649	-200,000	-0,007	-0,037
-621,634	-200,000	-0,008	-0,080
-620,619	74,338	-0,102	-0,079
-619,605	-200,000	0,005	-0,091
-618,590	-200,000	0,018	0,101
-617,576	172,844	0,148	0,158
-616,561	625,276	0,034	0,064
-615,546	363,288	-0,051	-0,076
-614,532	459,564	-0,032	0,053
-613,517	-200,000	-0,018	-0,113
-612,503	225,933	0,045	-0,054
-611,488	217,918	0,084	-0,100
-610,474	-74,985	-0,061	-0,016
-609,459	-125,954	-0,070	-0,008
-608,444	781,397	-0,081	-0,166
-607,430	180,391	0,091	-0,099
-606,415	-200,000	-0,002	-0,116
-605,401	-169,257	0,015	-0,000
-604,386	235,007	-0,031	-0,038
-603,371	800,000	-0,022	-0,066
-602,357	-77,587	-0,061	0,015
-601,342	16,557	-0,057	0,033
-600,328	-45,054	-0,085	-0,031
-599,313	800,000	0,009	0,025
-598,298	196,868	0,054	0,060
-597,284	-76,864	0,055	-0,014
-596,269	345,770	0,036	-0,053
-595,255	81,016	-0,047	-0,037
-594,240	800,000	0,009	0,022
-593,225	636,842	0,046	0,087
-592,211	800,000	0,054	-0,117
-591,196	612,689	-0,059	-0,110
-590,182	-186,481	-0,112	-0,001
-589,167	-200,000	-0,034	0,147
-588,152	197,788	0,044	0,050
-587,138	-200,000	0,015	0,077
-586,123	114,176	-0,075	0,068
-585,109	-56,442	-0,100	-0,033
-584,094	-1,551	0,067	0,035
-583,079	800,000	0,046	0,109
-582,065	687,024	-0,022	-0,042
-581,050	312,604	-0,020	0,027
-580,036	-193,981	-0,060	0,000
-579,021	2,692	-0,066	-0,035
-578,006	38,764	0,066	0,044
-576,992	121,502	0,091	-0,084
-575,977	357,362	0,045	-0,066
-574,963	800,000	-0,037	0,094
-573,948	280,523	-0,062	0,082
-572,934	-200,000	-0,008	0,049
-571,919	148,578	-0,088	-0,088
-570,904	-200,000	0,016	-0,114
-569,890	800,000	-0,033	-0,081
-568,875	-200,000	0,015	-0,058
-567,861	-200,000	-0,040	0,132
-566,846	-200,000	-0,029	0,130
-565,831	36,450	-0,101	-0,066
-564,817	761,532	-0,008	-0,016
-563,802	-80,810	0,046	-0,011
-562,788	-65,773	-0,095	-0,028
-561,773	-88,520	0,083	-0,018
-560,758	119,161	-0,088	0,081
-559,744	297,603	0,081	-0,110
-558,729	-162,973	-0,105	0,004
-557,715	800,000	0,031	-0,064
-556,700	-140,026	-0,066	-0,005
-555,685	118,411	0,071	-0,065
-554,671	85,070	0,024	-0,019
-553,656	337,354	0,064	0,093
-552,642	800,000	0,031	-0,075
-551,627	182,328	0,073	0,080
-550,612	389,089	-0,073	-0,113
-549,598	270,529	-0,044	0,058
-548,583	425,436	0,056	0,089
-547,569	-200,000	0,003	0,174
-546,554	397,443	-0,018	0,027
-545,539	489,483	0,026	-0,045
-544,525	-200,000	-0,002	-0,020
-543,510	468,036	-0,037	0,062
-542,496	493,459	-0,104	-0,177
-541,481	-8,676	-0,149	0,074
-540,466	-124,123	-0,081	0,009
-539,452	-200,000	-0,003	0,073
-538,437	-35,095	0,052	-0,021
-537,423	4,659	0,116	-0,063
-536,408	-200,000	0,001	-0,031
-535,393	-200,000	0,038	-0,144
-534,379	143,386	0,081	0,080
-533,364	51,613	0,065	0,046
-532,350	-59,767	0,151	0,047
-531,335	-61,615	-0,050	-0,016
-530,321	310,908	0,076	0,105
-529,306	800,000	-0,043	0,112
-528,291	-200,000	0,009	0,062
-527,277	800,000	-0,042	-0,129
-526,262	20,796	-0,134	0,080
-525,248	-11,771	0,101	0,049
-524,233	27,894	0,013	0,008
-523,218	-72,836	-0,084	-0,023
-522,204	-24,906	0,150	0,066
-521,189	800,000	0,059	-0,123
-520,175	203,384	-0,127	-0,145
-519,160	251,023	-0,096	-0,120
-518,145	186,236	0,078	-0,086
-517,131	-200,000	0,014	-0,067
-516,116	-67,094	0,157	0,045
-515,102	84,741	-0,042	-0,034
-514,087	-200,000	-0,040	-0,173
-513,072	45,733	-0,062	-0,042
-512,058	-104,625	-0,078	0,013
-511,043	-200,000	0,000	-0,025
-510,029	-200,000	-0,016	0,108
-509,014	207,415	-0,025	-0,029
-507,999	260,101	-0,097	0,124
-506,985	168,686	-0,032	0,034
-505,970	81,975	-0,082	-0,065
-504,956	-159,416	-0,039	-0,002
-503,941	-87,671	0,112	-0,025
-502,926	-200,000	-0,000	-0,011
-501,912	-66,406	0,142	0,041
-500,897	316,566	-0,025	-0,035
-499,883	40,934	-0,127	0,084
-498,868	800,000	-0,013	0,043
-497,853	800,000	-0,037	-0,092
-496,839	107,318	-0,075	-0,066
-495,824	110,849	0,076	-0,067
-494,810	800,000	0,029	-0,062
-493,795	180,096	0,069	0,075
-492,781	463,898	0,035	0,057
-491,766	-200,000	0,021	-0,150
-490,751	150,689	-0,116	-0,117
-489,737	-104,295	0,157	0,027
-488,722	800,000	0,028	-0,088
-487,708	-200,000	-0,006	0,055
-486,693	-59,210	-0,110	0,035
-485,678	31,961	0,123	-0,078
-484,664	-162,963	-0,067	-0,002
-483,649	-28,540	0,052	0,022
-482,635	16,454	0,141	0,082
-481,620	46,232	-0,071	0,049
-480,605	386,883	-0,054	0,082
-479,591	8,932	0,102	0,057
-478,576	-200,000	0,005	0,067
-477,562	-126,578	0,032	0,003
-476,547	102,923	-0,098	0,085
-475,532	42,447	0,062	0,041
-474,518	-200,000	-0,005	-0,102
-473,503	-200,000	-0,017	0,100
-472,489	-116,437	0,059	-0,008
-471,474	99,282	0,079	0,068
-470,459	-86,020	-0,047	-0,011
-469,445	800,000	0,007	-0,020
-468,430	-200,000	0,000	-0,051
-467,416	194,718	0,046	-0,052
-466,401	17,662	0,062	0,036
-465,386	217,594	0,061	0,071
-464,372	-200,000	0,015	0,169
-463,357	185,419	0,012	-0,013
-462,343	800,000	0,016	0,048
-461,328	123,238	0,034	0,031
-460,313	-10,431	-0,036	0,017
-459,299	167,343	-0,108	0,114
-458,284	-200,000	0,017	-0,058
-457,270	422,103	0,083	0,132
-456,255	-200,000	-0,022	0,117
-455,241	800,000	-0,097	-0,208
-454,226	43,029	-0,082	-0,055
-453,211	-68,140	-0,079	0,022
-452,197	137,670	0,022	0,021
-451,182	32,149	-0,118	-0,075
-450,168	800,000	-0,037	-0,105
-449,153	-40,556	0,087	-0,033
-448,138	-200,000	-0,013	-0,123
-447,124	-200,000	0,027	-0,100
-446,109	-200,000	0,014	-0,080
-445,095	800,000	0,034	0,103
-444,080	-200,000	0,014	0,077
-443,065	-67,978	0,069	-0,020
-442,051	747,300	0,051	-0,102
-441,036	-200,000	-0,012	-0,132
-440,022	-200,000	-0,012	0,084
-439,007	-57,405	-0,081	0,026
-437,992	103,653	-0,083	0,072
-436,978	111,904	0,036	-0,032
-435,963	-200,000	-0,002	-0,117
-434,949	-200,000	-0,000	0,093
-433,934	-53,648	-0,168	-0,056
-432,919	-35,880	-0,035	0,014
-431,905	365,540	0,058	0,087
-430,890	-200,000	0,014	0,136
-429,876	46,302	0,073	0,050
-428,861	116,699	-0,030	-0,027
-427,846	-200,000	0,022	-0,093
-426,832	93,955	-0,178	-0,149
-425,817	-18,920	-0,122	0,056
-424,803	-200,000	0,007	-0,247
-423,788	-53,276	-0,040	0,014
-422,773	61,688	0,110	0,080
-421,759	157,621	-0,107	-0,109
-420,744	-200,000	0,011	-0,136
-419,730	-107,544	-0,061	0,010
-418,715	628,721	-0,029	0,053
-417,701	607,372	0,005	0,008
-416,686	-200,000	-0,020	0,130
-415,671	204,858	0,043	-0,049
-414,657	-65,285	0,128	0,038
-413,642	-173,754	0,067	0,001
-412,628	-98,825	-0,065	-0,012
-411,613	-200,000	0,049	-0,303
-410,598	800,000	0,021	-0,054
-409,584	-33,495	0,076	-0,031
-408,569	-21,769	0,130	0,058
-407,555	-34,650	0,108	0,043
-406,540	449,447	-0,014	0,023
-405,525	-77,459	-0,039	0,010
-404,511	163,278	-0,104	-0,108
-403,496	-200,000	0,015	0,060
-402,482	-25,900	-0,077	0,033
-401,467	800,000	0,035	0,092
-400,452	-200,000	-0,002	0,073
-399,438	-80,901	0,045	-0,011
-398,423	227,839	-0,100	0,120
-397,409	450,905	-0,085	-0,139
-396,394	-110,596	0,085	0,013
-395,379	376,546	-0,066	-0,100
-394,365	-157,934	0,095	-0,004
-393,350	-141,580	-0,060	-0,004
-392,336	193,524	-0,061	0,068
-391,321	-200,000	0,014	0,073
-390,306	22,667	-0,093	0,056
-389,292	800,000	0,023	0,064
-388,277	141,204	0,066	0,064
-387,263	-84,163	0,080	-0,018
-386,248	-39,900	-0,079	-0,030
-385,233	524,887	-0,006	0,010
-384,219	-200,000	-0,024	-0,083
-383,204	800,000	-0,039	0,083
-382,190	-200,000	0,001	0,025
-381,175	-98,945	0,052	0,010
-380,160	-162,885	0,072	0,003
-379,146	150,884	0,026	0,026
-378,131	800,000	-0,055	0,136
-377,117	171,308	0,018	-0,019
-376,102	-200,000	0,010	-0,049
-375,088	7,376	-0,052	0,028
-374,073	-81,576	0,101	-0,024
-373,058	-200,000	-0,012	0,047
-372,044	-20,403	0,047	-0,021
-371,029	-200,000	0,027	0,127
-370,015	81,999	0,079	-0,063
-369,000	308,704	-0,027	0,037
-367,985	-200,000	-0,023	-0,133
-366,971	-200,000	-0,008	-0,070
-365,956	800,000	0,033	-0,092
-364,942	613,702	0,064	0,117
-363,927	-62,357	0,040	-0,012
-362,912	-27,359	0,061	0,026
-361,898	68,459	0,085	-0,064
-360,883	-200,000	-0,007	0,171
-359,869	5,393	0,061	-0,033
-358,854	-200,000	0,003	0,020
-357,839	-35,352	-0,109	0,043
-356,825	118,931	0,063	0,057
-355,810	92,986	0,117	0,097
-354,796	-200,000	-0,004	0,135
-353,781	800,000	0,027	-0,082
-352,766	101,278	-0,112	-0,096
-351,752	26,691	0,090	0,055
-350,737	-115,623	0,147	0,020
-349,723	-148,964	0,152	-0,009
-348,708	11,017	0,086	0,048
-347,693	-200,000	-0,003	-0,109
-346,679	-75,476	0,030	-0,008
-345,664	208,750	0,044	-0,051
-344,650	800,000	0,010	0,026
-343,635	-118,603	0,041	0,005
-342,620	800,000	-0,014	-0,035
-341,606	706,353	-0,008	0,016
-340,591	-128,464	0,197	-0,020
-339,577	37,285	-0,052	0,034
-338,562	800,000	-0,019	0,048
-337,548	84,789	0,030	0,024
-336,533	-200,000	0,008	-0,074
-335,518	-151,193	-0,107	-0,006
-334,504	58,473	0,057	-0,041
-333,489	-157,157	-0,095	0,004
-332,475	316,835	0,075	-0,105
-331,460	316,005	-0,025	-0,034
-330,445	199,627	-0,115	0,129
-329,431	60,630	-0,184	0,133
-328,416	4,080	0,059	0,032
-327,402	60,286	0,055	-0,040
-326,387	455,286	-0,019	0,030
-325,372	-3,262	-0,118	-0,060
-324,358	-200,000	0,013	-0,069
-323,343	-27,539	-0,056	0,024
-322,329	-92,720	-0,044	0,009
-321,314	81,535	0,105	0,083
-320,299	-129,484	0,244	-0,024
-319,285	-8,284	0,141	0,069
-318,270	220,403	0,080	-0,094
-317,256	86,886	-0,085	-0,068
-316,241	-13,967	0,104	-0,049
-315,226	336,667	0,049	0,070
-314,212	-127,421	-0,055	0,006
-313,197	800,000	-0,025	0,073
-312,183	4,840	0,023	-0,012
-311,168	126,963	-0,114	0,106
-310,153	-164,729	0,084	0,003
-309,139	55,221	-0,049	-0,035
-308,124	800,000	-0,053	-0,155
-307,110	27,285	0,132	-0,081
-306,095	-82,062	0,117	0,028
-305,080	800,000	-0,024	-0,063
-304,066	800,000	0,058	-0,126
-303,051	-200,000	0,036	-0,134
-302,037	145,248	0,148	-0,145
-301,022	-108,150	-0,151	0,024
-300,008	-63,842	-0,105	-0,031
-298,993	-57,117	0,103	0,033
-297,978	-147,426	0,034	0,002
-296,964	88,677	-0,011	0,009
-295,949	546,661	-0,041	-0,072
-294,935	-103,719	-0,071	-0,012
-293,920	-200,000	0,000	0,114
-292,905	-200,000	-0,019	-0,106
-291,891	91,592	-0,088	0,072
-290,876	149,576	0,095	0,094
-289,862	48,450	-0,108	0,074
-288,847	19,319	-0,055	-0,032
-287,832	800,000	-0,015	0,039
-286,818	-9,033	-0,145	0,071
-285,803	-95,469	-0,112	0,022
-284,789	-200,000	0,143	0,000
-283,774	-171,507	-0,121	-0,003
-282,759	-113,989	-0,024	-0,003
-281,745	44,363	-0,084	-0,056
-280,730	800,000	-0,043	0,106
-279,716	-46,965	0,103	0,037
-278,701	304,328	-0,039	-0,054
-277,686	110,291	0,041	0,036
-276,672	-200,000	0,005	0,072
-275,657	-7,786	-0,126	-0,062
-274,643	53,635	-0,107	-0,075
-273,628	271,888	0,058	-0,075
-272,613	42,616	0,076	-0,050
-271,599	800,000	0,025	0,072
-270,584	229,773	-0,098	-0,118
-269,570	409,561	0,078	0,121
-268,555	-24,078	0,099	-0,043
-267,540	12,816	-0,091	0,051
-266,526	800,000	0,047	-0,122
-265,511	800,000	0,013	0,035
-264,497	-200,000	-0,001	-0,032
-263,482	140,795	0,055	0,054
-262,467	-200,000	0,013	0,093
-261,453	-200,000	-0,008	0,055
-260,438	-200,000	0,024	0,083
-259,424	45,083	0,095	-0,064
-258,409	800,000	-0,033	-0,096
-257,395	-121,088	0,114	0,014
-256,380	58,284	0,039	-0,028
-255,365	105,187	-0,115	-0,099
-254,351	-183,618	-0,109	0,001
-253,336	-49,324	0,068	-0,024
-252,322	-27,853	-0,177	-0,074
-251,307	-200,000	0,001	0,007
-250,292	-42,162	0,058	-0,022
-249,278	-200,000	-0,002	-0,042
-248,263	-81,358	0,142	0,034
-247,249	-2,195	-0,083	0,042
-246,234	4,385	-0,098	-0,052
-245,219	-60,527	0,068	-0,021
-244,205	800,000	0,043	-0,110
-243,190	800,000	-0,040	0,114
-242,176	176,695	-0,095	0,101
-241,161	31,041	0,048	0,030
-240,146	260,689	0,050	-0,063
-239,132	324,986	0,107	-0,150
-238,117	562,561	0,049	0,087
-237,103	27,705	-0,162	-0,099
-236,088	-200,000	-0,007	-0,045
-235,073	164,100	0,041	-0,042
-234,059	503,559	-0,071	0,121
-233,044	-92,546	-0,120	0,024
-232,030	104,711	0,006	-0,005
-231,015	54,033	-0,075	-0,053
-230,000	-200,000	0,002	-0,069
-228,986	498,651	0,023	-0,038
-227,971	214,748	0,042	-0,049
-226,957	800,000	-0,028	-0,082
-225,942	14,116	-0,080	0,045
-224,927	-200,000	-0,010	0,120
-223,913	161,651	0,026	-0,027
-222,898	529,217	-0,044	-0,076
-221,884	-159,144	0,069	-0,003
-220,869	-169,134	-0,027	-0,001
-219,855	8,336	0,118	-0,065
-218,840	-6,776	0,080	0,039
-217,825	800,000	-0,011	-0,027
-216,811	41,532	-0,011	0,007
-215,796	-109,283	0,104	-0,016
-214,782	-94,356	-0,190	-0,037
-213,767	-130,650	-0,013	0,001
-212,752	800,000	-0,027	0,064
-211,738	-80,937	0,070	0,017
-210,723	34,369	0,105	0,067
-209,709	-118,734	-0,115	-0,015
-208,694	-200,000	0,034	-0,115
-207,679	343,797	-0,076	-0,109
-206,665	-134,336	-0,131	0,012
-205,650	600,654	0,050	0,091
-204,636	-14,362	0,034	0,016
-203,621	-200,000	-0,025	0,085
-202,606	-168,156	-0,056	0,002
-201,592	-34,909	0,069	-0,027
-200,577	-44,594	0,107	-0,039
-199,563	169,054	0,066	-0,069
-198,548	137,017	0,047	0,045
-197,533	-82,358	0,063	-0,015
-196,519	-155,046	0,136	0,006
-195,504	-200,000	-0,012	0,108
-194,490	436,541	0,053	0,084
-193,475	-200,000	-0,006	-0,120
-192,460	39,227	0,089	0,058
-191,446	-200,000	0,035	0,190
-190,431	-57,242	0,230	0,073
-189,417	800,000	-0,027	-0,058
-188,402	800,000	-0,037	-0,083
-187,387	-44,223	-0,131	0,048
-186,373	-155,880	-0,172	-0,008
-185,358	-200,000	-0,009	0,063
-184,344	272,646	-0,028	0,036
-183,329	-200,000	-0,030	0,105
-182,315	-130,155	0,058	-0,006
-181,300	129,021	-0,076	0,071
-180,285	259,111	-0,047	0,060
-179,271	-118,682	-0,018	-0,002
-178,256	-44,565	-0,053	-0,019
-177,242	800,000	-0,038	-0,102
-176,227	-200,000	0,000	0,058
-175,212	800,000	-0,076	-0,160
-174,198	16,428	-0,039	-0,022
-173,183	-20,830	-0,093	0,041
-172,169	800,000	-0,036	-0,087
-171,154	-145,292	-0,073	-0,005
-170,139	800,000	-0,097	0,214
-169,125	-200,000	-0,006	0,033
-168,110	800,000	0,034	0,105
-167,096	262,445	-0,033	-0,042
-166,081	-200,000	-0,025	0,088
-165,066	-200,000	0,014	0,079
-164,052	800,000	-0,035	-0,111
-163,037	414,124	0,022	0,035
-162,023	333,064	0,131	0,185
-161,008	419,346	0,072	0,113
-159,993	-74,133	0,056	-0,015
-158,979	-85,530	0,060	-0,014
-157,964	-66,001	-0,091	0,026
-156,950	135,998	-0,045	-0,042
-155,935	91,132	0,061	0,050
-154,920	-200,000	-0,006	0,078
-153,906	-200,000	0,026	0,213
-152,891	-200,000	-0,003	0,116
-151,877	-165,596	-0,053	0,002
-150,862	291,642	-0,080	0,106
-149,847	36,485	-0,092	-0,059
-148,833	471,748	-0,086	-0,141
-147,818	401,409	0,070	0,108
-146,804	-96,849	0,136	-0,026
-145,789	-200,000	0,002	0,025
-144,775	534,487	0,094	0,163
-143,760	800,000	-0,046	0,104
-142,745	347,021	0,014	-0,020
-141,731	-86,259	0,125	-0,028
-140,716	169,560	-0,012	0,013
-139,702	522,537	0,070	0,121
-138,687	421,275	0,037	0,058
-137,672	-200,000	0,008	0,025
-136,658	-200,000	0,003	-0,040
-135,643	800,000	0,031	-0,069
-134,629	252,986	0,055	0,068
-133,614	9,568	-0,023	0,013
-132,599	800,000	0,014	0,032
-131,585	-117,032	0,063	-0,008
-130,570	-200,000	-0,001	-0,074
-129,556	800,000	-0,054	-0,135
-128,541	-66,152	-0,165	0,047
-127,526	97,793	0,053	-0,044
-126,512	-66,613	0,123	-0,035
-125,497	11,051	0,118	-0,066
-124,483	-200,000	0,028	0,153
-123,468	-154,480	-0,019	0,001
-122,453	21,662	-0,018	-0,010
-121,439	-155,024	-0,146	0,007
-120,424	-115,633	-0,088	-0,012
-119,410	18,477	0,050	0,029
-118,395	281,251	0,041	0,054
-117,380	130,158	-0,135	0,125
-116,366	46,569	-0,155	0,104
-115,351	-47,087	0,025	0,009
-114,337	-135,200	-0,153	-0,013
-113,322	-200,000	0,012	0,107
-112,307	-200,000	-0,010	0,046
-111,293	-0,084	0,117	0,060
-110,278	800,000	-0,094	0,246
-109,264	639,182	0,036	-0,066
-108,249	-75,067	-0,131	0,034
-107,234	-149,452	-0,103	0,006
-106,220	90,609	0,101	-0,082
-105,205	-23,165	0,052	-0,023
-104,191	-45,893	-0,099	0,035
-103,176	45,867	0,102	0,068
-102,162	259,688	-0,088	0,110
-101,147	-16,954	-0,044	-0,020
-100,132	-78,109	-0,077	0,019
-99,118	773,458	-0,038	-0,076
-98,103	-200,000	0,013	0,053
-97,089	207,937	0,040	-0,045
-96,074	2,606	-0,074	0,039
-95,059	-200,000	0,008	0,052
-94,045	3,180	-0,046	-0,024
-93,030	-200,000	0,000	-0,036
-92,016	-7,625	-0,027	-0,013
-91,001	-200,000	0,007	-0,093
-89,986	-200,000	0,007	0,151
-88,972	-200,000	0,029	0,170
-87,957	-200,000	-0,016	-0,057
-86,943	-58,868	-0,155	0,048
-85,928	233,629	-0,102	0,122
-84,913	443,378	0,063	0,101
-83,899	72,934	0,083	0,063
-82,884	-111,441	0,039	0,006
-81,870	-200,000	0,020	0,077
-80,855	17,883	0,116	0,067
-79,840	244,974	0,059	-0,073
-78,826	57,800	-0,139	-0,099
-77,811	402,067	-0,043	-0,066
-76,797	-200,000	0,015	0,076
-75,782	-107,306	0,038	0,006
-74,767	800,000	0,047	-0,120
-73,753	-60,969	0,032	-0,010
-72,738	-156,451	-0,109	-0,005
-71,724	26,481	-0,051	-0,031
-70,709	278,866	-0,016	-0,020
-69,694	118,007	-0,069	0,061
-68,680	-109,800	0,050	0,007
-67,665	517,963	0,029	0,050
-66,651	-141,008	-0,095	0,007
-65,636	17,922	-0,132	-0,076
-64,622	75,537	-0,077	0,059
-63,607	-200,000	0,024	-0,096
-62,592	-41,237	-0,052	0,019
-61,578	-200,000	0,088	0,000
-60,563	-200,000	-0,007	0,040
-59,549	-200,000	0,014	-0,076
-58,534	-107,055	-1,364	-0,216
-57,519	535,514	-0,857	-1,481
-56,505	-200,000	-0,794	-4,486
-55,490	37,119	0,559	-0,358
-54,476	800,000	4,927	11,655
-53,461	-200,000	13,656	252,540
-52,446	-200,000	690,706	2246,664
-51,432	582,074	1622,413	2897,291
-50,417	118,461	1633,858	1461,922
-49,403	72,561	1287,897	972,907
-48,388	37,757	1023,577	657,801
-47,373	24,135	981,293	585,872
-46,359	23,367	971,039	577,212
-45,344	22,425	966,606	571,480
-44,330	22,325	965,190	570,295
-43,315	22,261	963,627	569,140
-42,300	22,279	962,578	568,557
-41,286	22,217	961,718	567,823
-40,271	22,201	960,785	567,198
-39,257	22,231	959,789	566,685
-38,242	22,202	958,917	566,053
-37,227	22,192	957,988	565,451
-36,213	22,219	957,109	564,996
-35,198	22,166	956,345	564,353
-34,184	22,214	955,741	564,127
-33,169	22,144	954,925	563,398
-32,154	22,252	953,852	563,090
-31,140	22,202	953,136	562,483
-30,125	22,200	952,399	562,020
-29,111	22,291	951,393	561,698
-28,096	22,187	950,841	561,015
-27,082	22,210	950,166	560,670
-26,067	22,203	949,279	560,101
-25,052	22,202	948,600	559,676
-24,038	22,231	947,939	559,355
-23,023	22,212	947,402	558,955
-22,009	22,229	946,660	558,549
-20,994	22,247	946,045	558,221
-19,979	22,274	945,353	557,877
-18,965	22,297	944,702	557,544
-17,950	22,288	944,123	557,153
-16,936	22,197	943,371	556,398
-15,921	22,132	942,878	555,878
-14,906	22,132	942,101	555,396
-13,892	22,075	941,402	554,782
-12,877	22,108	940,742	554,476
-11,863	22,069	940,159	553,985
-10,848	22,110	939,614	553,773
-9,833	22,183	939,199	553,739
-8,819	22,183	938,641	553,388
-7,804	22,100	937,952	552,695
-6,790	22,109	937,312	552,327
-5,775	22,131	936,759	552,048
-4,760	22,142	936,219	551,741
-3,746	22,080	935,545	551,127
-2,731	21,988	934,902	550,435
-1,717	21,872	934,033	549,536
-0,702	21,887	933,565	549,286
0,313	21,726	932,835	549,181
1,327	24,784	930,978	557,645
2,342	34,267	795,322	501,612
3,356	32,164	451,157	281,357
4,371	1,639	293,688	152,720
5,386	-2,935	274,549	138,433
6,400	-4,166	268,919	134,440
7,415	-4,540	266,508	132,879
8,429	-4,334	265,254	132,430
9,444	-4,485	264,414	131,862
10,459	-4,356	263,903	131,712
11,473	-4,344	263,256	131,389
12,488	-4,543	262,657	130,898
13,502	-4,647	262,281	130,605
14,517	-4,759	261,744	130,224
15,531	-4,864	261,479	129,987
16,546	-4,510	260,901	130,006
17,561	-4,646	260,623	129,733
18,575	-4,602	260,319	129,610
19,590	-4,776	259,951	129,259
20,604	-4,577	259,657	129,280
21,619	-4,731	259,400	129,002
22,634	-4,652	258,950	128,837
23,648	-4,600	258,577	128,687
24,663	-4,640	258,432	128,568
25,677	-4,674	258,142	128,382
26,692	-4,700	257,991	128,272
27,707	-4,705	257,573	128,049
28,721	-4,788	257,491	127,923
29,736	-4,841	257,085	127,663
30,750	-4,851	257,027	127,613
31,765	-4,780	256,613	127,459
32,780	-4,755	256,236	127,283
33,794	-4,787	256,123	127,188
34,809	-4,794	255,884	127,051
35,823	-4,883	255,737	126,889
36,838	-4,771	255,536	126,876
37,853	-4,962	255,299	126,579
38,867	-4,923	254,967	126,438
39,882	-4,774	254,822	126,485
40,896	-4,819	254,667	126,358
41,911	-4,820	254,498	126,262
42,926	-4,706	254,057	126,131
43,940	-4,614	253,729	126,037
44,955	-4,895	253,728	125,780
45,969	-4,879	253,341	125,592
46,984	-5,119	253,163	125,283
47,999	-5,274	252,899	125,007
49,013	-5,197	252,609	124,918
50,028	-5,563	252,423	124,498
51,042	-5,404	252,208	124,519
52,057	-5,562	251,987	124,262
53,071	-5,498	251,680	124,154
54,086	-5,523	251,696	124,130
55,101	-5,204	251,323	124,211
56,115	-5,091	251,249	124,260
57,130	-4,769	251,215	124,510
58,144	-4,652	251,229	124,607
59,159	-4,508	250,855	124,534
60,174	-4,534	250,608	124,378
61,188	-4,619	250,506	124,243
62,203	-4,648	250,255	124,082
63,217	-4,550	250,102	124,080
64,232	-4,534	249,730	123,898
65,247	-4,754	249,627	123,647
66,261	-4,673	249,313	123,550
67,276	-4,943	249,268	123,286
68,290	-4,902	248,804	123,080
69,305	-5,168	248,694	122,788
70,320	-5,135	248,367	122,644
71,334	-4,676	248,208	122,945
72,349	-4,532	248,108	123,007
73,363	-4,777	248,032	122,750
74,378	-4,708	247,739	122,653
75,393	-4,614	247,515	122,611
76,407	-4,577	247,314	122,531
77,422	-4,643	247,123	122,370
78,436	-4,519	246,947	122,377
79,451	-4,722	246,865	122,154
80,466	-4,554	246,376	122,043
81,480	-4,819	246,331	121,786
82,495	-4,802	246,053	121,652
83,509	-4,882	245,891	121,494
84,524	-4,905	245,782	121,410
85,539	-4,967	245,474	121,194
86,553	-5,100	245,291	120,981
87,568	-4,993	245,079	120,956
88,582	-5,025	245,220	120,988
89,597	-5,060	244,732	120,707
90,611	-4,692	244,635	120,956
91,626	-4,657	244,622	120,969
92,641	-4,845	244,517	120,749
93,655	-4,957	244,190	120,483
94,670	-4,944	244,002	120,390
95,684	-4,980	243,727	120,213
96,699	-4,603	243,564	120,437
97,714	-4,810	243,221	120,084
98,728	-5,178	243,213	119,763
99,743	-4,985	242,878	119,748
100,757	-4,877	242,630	119,704
101,772	-5,024	242,665	119,589
102,787	-4,997	242,514	119,527
103,801	-4,874	242,116	119,422
104,816	-4,754	242,123	119,514
105,830	-4,630	241,966	119,528
106,845	-4,764	241,868	119,358
107,860	-4,620	241,661	119,364
108,874	-4,794	241,236	119,000
109,889	-4,787	241,233	118,994
110,903	-4,790	240,891	118,812
111,918	-4,959	240,774	118,605
112,933	-4,962	240,655	118,533
113,947	-4,713	240,516	118,659
114,962	-4,785	240,371	118,518
115,976	-4,727	240,076	118,409
116,991	-4,895	239,994	118,220
118,006	-4,763	239,759	118,202
119,020	-4,768	239,691	118,154
120,035	-4,681	239,558	118,149
121,049	-4,629	239,478	118,142
122,064	-4,854	239,262	117,841
123,079	-4,536	239,034	117,977
124,093	-4,803	238,698	117,584
125,108	-4,796	238,559	117,510
126,122	-5,069	238,324	117,162
127,137	-5,248	238,145	116,918
128,151	-5,260	238,024	116,839
129,166	-4,950	237,808	116,974
130,181	-4,858	237,618	116,944
131,195	-5,142	237,452	116,622
132,210	-4,849	237,214	116,732
133,224	-4,734	237,087	116,752
134,239	-4,618	237,011	116,798
135,254	-4,571	236,903	116,772
136,268	-4,765	236,517	116,415
137,283	-5,033	236,442	116,152
138,297	-5,195	236,347	115,964
139,312	-5,201	236,023	115,790
140,327	-4,823	235,963	116,055
141,341	-4,633	236,022	116,226
142,356	-4,379	235,756	116,289
143,370	-4,502	235,663	116,134
144,385	-4,364	235,391	116,100
145,400	-4,333	235,231	116,035
146,414	-4,431	235,065	115,865
147,429	-4,504	234,904	115,717
148,443	-4,718	234,719	115,444
149,458	-4,328	234,567	115,671
150,473	-4,513	234,426	115,443
151,487	-4,556	234,374	115,373
152,502	-4,586	234,026	115,168
153,516	-4,289	233,883	115,323
154,531	-4,500	233,708	115,058
155,546	-4,275	233,532	115,141
156,560	-4,623	233,453	114,815
157,575	-4,507	232,994	114,671
158,589	-4,773	233,071	114,488
159,604	-4,451	233,032	114,713
160,619	-4,486	232,788	114,556
161,633	-4,328	232,555	114,556
162,648	-4,307	232,448	114,509
163,662	-4,378	232,172	114,307
164,677	-4,494	232,139	114,189
165,692	-4,376	231,905	114,157
166,706	-4,394	231,885	114,123
167,721	-4,251	231,749	114,159
168,735	-4,304	231,583	114,025
169,750	-4,392	231,511	113,910
170,764	-4,518	231,356	113,724
171,779	-4,370	231,004	113,657
172,794	-4,281	231,109	113,769
173,808	-4,458	230,745	113,440
174,823	-4,767	230,300	112,970
175,837	-5,074	230,231	112,685
176,852	-4,823	230,323	112,918
177,867	-4,495	230,303	113,154
178,881	-4,356	230,023	113,115
179,896	-4,395	229,949	113,038
180,910	-4,319	229,583	112,908
181,925	-4,457	229,529	112,763
182,940	-4,401	229,402	112,734
183,954	-4,093	229,219	112,874
184,969	-4,356	229,144	112,623
185,983	-4,224	228,976	112,632
186,998	-4,310	228,776	112,457
188,013	-4,239	228,618	112,425
189,027	-4,248	228,496	112,348
190,042	-3,939	228,184	112,423
191,056	-3,964	228,046	112,326
192,071	-4,085	228,030	112,215
193,086	-4,165	227,877	112,068
194,100	-4,127	227,824	112,061
195,115	-4,470	227,495	111,624
196,129	-4,731	227,223	111,280
197,144	-2,650	227,852	113,185
198,159	0,577	228,873	116,183
199,173	3,873	229,558	119,075
200,188	4,306	229,455	119,348
201,202	4,062	229,406	119,122
202,217	4,381	229,289	119,297
203,232	4,429	229,134	119,243
204,246	4,487	229,103	119,261
205,261	4,665	228,831	119,246
206,275	4,830	228,834	119,365
207,290	4,690	228,662	119,157
208,304	4,734	228,565	119,129
209,319	4,868	228,255	119,060
210,334	4,643	228,029	118,759
211,348	4,433	228,056	118,601
212,363	4,154	227,695	118,189
213,377	3,791	227,403	117,748
214,392	3,927	227,326	117,802
215,407	4,030	227,226	117,818
216,421	4,016	227,020	117,690
217,436	3,941	226,827	117,523
218,450	3,815	226,622	117,309
219,465	3,589	226,477	117,051
220,480	3,859	226,279	117,145
221,494	3,882	226,186	117,104
222,509	3,940	226,060	117,072
223,523	3,772	225,838	116,820
224,538	3,847	225,846	116,869
225,553	4,066	225,434	116,812
226,567	4,027	225,578	116,847
227,582	4,142	225,499	116,883
228,596	4,226	225,432	116,901
229,611	3,979	225,186	116,576
230,626	3,971	224,904	116,414
231,640	3,666	224,857	116,148
232,655	3,609	224,827	116,079
233,669	4,446	224,705	116,639
234,684	4,550	224,494	116,597
235,699	4,310	224,298	116,304
236,713	4,088	224,004	115,974
237,728	3,929	223,920	115,800
238,742	3,913	223,714	115,672
239,757	4,051	223,618	115,715
240,772	3,905	223,361	115,462
241,786	3,832	223,377	115,406
242,801	4,052	223,233	115,486
243,815	4,213	223,145	115,551
244,830	4,186	222,996	115,444
245,844	4,020	222,716	115,164
246,859	4,031	222,604	115,103
247,874	4,065	222,522	115,077
248,888	4,243	222,305	115,087
249,903	3,946	222,355	114,881
250,917	3,906	222,040	114,678
251,932	3,987	221,828	114,619
252,947	3,901	221,760	114,510
253,961	3,685	221,568	114,239
254,976	3,652	221,410	114,123
255,990	4,026	221,474	114,423
257,005	3,780	221,378	114,181
258,020	3,928	221,265	114,222
259,034	4,398	221,059	114,454
260,049	4,135	220,983	114,210
261,063	4,236	220,713	114,136
262,078	4,405	220,641	114,213
263,093	4,368	220,432	114,067
264,107	4,123	220,262	113,788
265,122	4,299	220,147	113,848
266,136	4,467	220,021	113,897
267,151	4,418	219,868	113,772
268,166	4,094	219,663	113,417
269,180	3,687	219,379	112,960
270,195	3,725	219,344	112,960
271,209	3,502	219,226	112,725
272,224	3,858	219,080	112,902
273,239	3,905	218,904	112,836
274,253	3,748	218,684	112,597
275,268	3,690	218,611	112,507
276,282	3,587	218,457	112,342
277,297	3,747	218,240	112,337
278,312	3,739	218,191	112,297
279,326	4,021	217,966	112,377
280,341	3,954	217,898	112,283
281,355	4,012	217,712	112,219
282,370	3,922	217,601	112,087
283,384	3,641	217,510	111,825
284,399	3,524	217,463	111,705
285,414	3,712	217,111	111,651
286,428	3,882	217,014	111,716
287,443	3,876	217,091	111,740
288,457	4,107	216,794	111,745
289,472	3,859	216,673	111,493
290,487	3,263	216,364	110,893
291,501	3,268	216,316	110,861
292,516	3,465	216,093	110,880
293,530	3,464	216,039	110,842
294,545	3,566	215,684	110,723
295,560	3,791	215,719	110,893
296,574	3,896	215,686	110,943
297,589	3,888	215,441	110,801
298,603	3,842	215,426	110,750
299,618	3,890	215,346	110,734
300,633	3,770	215,276	110,601
301,647	4,104	215,043	110,712
302,662	4,022	214,955	110,598
303,676	4,136	214,770	110,575
304,691	3,944	214,786	110,435
305,706	4,256	214,541	110,524
306,720	4,119	214,291	110,286
307,735	3,737	214,300	110,007
308,749	4,016	213,951	110,018
309,764	4,040	213,962	110,031
310,779	4,001	213,879	109,950
311,793	4,166	213,758	109,997
312,808	4,017	213,464	109,729
313,822	4,216	213,282	109,768
314,837	4,158	213,166	109,657
315,852	3,794	213,049	109,328
316,866	3,919	212,897	109,329
317,881	3,880	212,949	109,318
318,895	4,187	212,724	109,411
319,910	4,122	212,432	109,205
320,925	3,579	212,225	108,704
321,939	3,463	212,100	108,548
322,954	3,355	212,011	108,417
323,968	4,052	211,960	108,874
324,983	3,899	211,963	108,757
325,997	4,171	211,727	108,819
327,012	3,840	211,685	108,554
328,027	4,075	211,531	108,631
329,041	4,297	211,428	108,725
330,056	4,395	211,330	108,734
331,070	3,859	211,176	108,268
332,085	3,743	210,904	108,037
333,100	3,747	210,662	107,906
334,114	3,762	210,709	107,931
335,129	4,040	210,595	108,058
336,143	3,929	210,231	107,785
337,158	4,059	210,246	107,873
338,173	4,026	210,083	107,757
339,187	3,762	209,835	107,436
340,202	3,638	209,694	107,267
341,216	3,314	209,734	107,052
342,231	3,994	209,448	107,370
343,246	3,641	209,414	107,097
344,260	3,838	209,267	107,150
345,275	3,677	209,181	106,984
346,289	3,919	209,123	107,113
347,304	4,051	208,913	107,088
348,319	3,810	208,796	106,851
349,333	3,936	208,723	106,892
350,348	3,760	208,566	106,679
351,362	4,031	208,414	106,780
352,377	4,013	208,243	106,671
353,392	3,918	208,244	106,596
354,406	3,892	208,102	106,496
355,421	194,469	1344,019	1433,325
356,435	155,189	1482,510	1433,451
