DTS Sentinel unit serial number:	SN410029Multiplexer serial number:	ORYXHardware model number:	OX2-SRSoftware version number:	ORYX F/W v4,00 Oryx Data Collector v3.7.2.0data status	okinstallation	B6 Nyhavnadifferential loss correction	single-endedforward channel	channel 2reverse channel	N/Adate	2023/12/09time	04:55:08forward acquisition time	300,00reverse acquisition time	0,00gamma	499,1914k internal	0,3145k external	0,3145temperature offset calibration	1,0000default loss term (dB/km)	0,3820temperature slope calibration	1,0000multiplexer offset coefficient	1,0000multiplexer slope coefficient	1,0000fibre end	0,00T internal ref (°C)	17,45T ext. ref 1 (°C)	1,99T ext. ref 2 (°C)	2,01length (m)	temperature (°C)	Stokes	anti-Stokes-744,400	-200,000	0,016	0,092
-743,385	-137,338	-0,258	-0,021
-742,371	-8,608	0,088	-0,044
-741,356	-33,307	-0,124	0,051
-740,342	-200,000	-0,021	0,136
-739,327	-176,166	-0,505	0,010
-738,312	15,100	0,063	0,037
-737,298	-123,974	-0,201	0,023
-736,283	-147,396	0,131	0,008
-735,269	-10,394	-0,283	0,138
-734,254	-200,000	0,020	0,088
-733,239	-45,654	-0,494	-0,180
-732,225	-79,611	0,193	0,048
-731,210	-32,266	0,132	0,054
-730,196	233,455	0,066	-0,081
-729,181	800,000	-0,027	0,058
-728,167	41,679	0,095	-0,064
-727,152	800,000	-0,026	-0,081
-726,137	217,844	-0,068	-0,080
-725,123	-200,000	-0,010	0,055
-724,108	181,938	0,005	0,005
-723,094	-200,000	-0,006	-0,121
-722,079	291,673	0,032	0,044
-721,064	240,528	0,072	-0,089
-720,050	800,000	0,028	0,061
-719,035	31,296	-0,090	0,057
-718,021	-145,780	-0,067	0,004
-717,006	-200,000	0,029	-0,190
-715,991	120,186	0,117	-0,107
-714,977	-192,278	-0,108	0,001
-713,962	800,000	-0,014	0,030
-712,948	-15,228	0,059	0,028
-711,933	194,323	0,078	-0,087
-710,918	29,485	0,052	-0,033
-709,904	157,102	-0,102	-0,104
-708,889	-53,317	-0,113	-0,038
-707,875	-200,000	-0,009	-0,082
-706,860	-98,065	-0,114	-0,022
-705,845	89,648	0,030	-0,025
-704,831	-109,441	0,084	-0,013
-703,816	136,614	-0,044	-0,042
-702,802	-70,689	-0,218	0,060
-701,787	96,055	-0,104	-0,088
-700,772	-200,000	0,019	0,105
-699,758	-140,742	0,085	0,006
-698,743	-200,000	-0,018	0,242
-697,729	-200,000	-0,010	-0,062
-696,714	76,919	0,024	0,018
-695,699	22,798	-0,144	-0,087
-694,685	66,644	-0,033	0,024
-693,670	-200,000	-0,105	0,000
-692,656	8,571	0,112	-0,062
-691,641	161,808	-0,064	-0,066
-690,627	477,364	-0,051	-0,085
-689,612	800,000	-0,018	-0,047
-688,597	-118,842	-0,074	0,009
-687,583	-200,000	0,008	-0,233
-686,568	-200,000	-0,017	-0,079
-685,554	-59,176	-0,026	-0,008
-684,539	-200,000	0,008	0,058
-683,524	15,083	-0,063	0,036
-682,510	-200,000	-0,003	0,026
-681,495	60,978	0,050	0,037
-680,481	117,906	-0,088	0,080
-679,466	-200,000	0,033	0,120
-678,451	167,063	-0,050	0,052
-677,437	800,000	-0,086	-0,206
-676,422	583,071	-0,011	-0,020
-675,408	-200,000	0,001	0,104
-674,393	-108,785	-0,067	0,010
-673,378	60,147	-0,045	0,033
-672,364	114,429	-0,045	0,041
-671,349	-200,000	-0,010	-0,060
-670,335	-200,000	0,008	-0,050
-669,320	71,163	-0,072	0,055
-668,305	-200,000	-0,003	-0,063
-667,291	-95,195	-0,072	0,014
-666,276	279,531	0,040	-0,053
-665,262	194,102	-0,064	-0,072
-664,247	800,000	0,036	-0,107
-663,232	156,938	0,048	-0,049
-662,218	-53,925	-0,053	0,018
-661,203	800,000	0,048	0,131
-660,189	-78,086	-0,119	0,030
-659,174	800,000	0,033	-0,068
-658,159	669,528	0,022	-0,042
-657,145	-151,281	-0,126	-0,007
-656,130	544,790	0,079	-0,141
-655,116	10,059	-0,061	-0,034
-654,101	-71,098	0,061	0,017
-653,086	-128,701	0,122	-0,013
-652,072	-200,000	-0,015	0,051
-651,057	-44,347	-0,150	-0,055
-650,043	5,133	-0,087	0,047
-649,028	9,446	-0,038	0,021
-648,014	-200,000	0,006	0,055
-646,999	-62,153	0,086	0,026
-645,984	-15,958	-0,099	0,046
-644,970	800,000	-0,033	0,098
-643,955	800,000	0,034	0,073
-642,941	48,888	-0,110	0,076
-641,926	359,828	-0,079	-0,118
-640,911	233,221	0,088	-0,107
-639,897	800,000	0,007	-0,018
-638,882	561,551	0,034	0,060
-637,868	33,136	0,023	-0,015
-636,853	-200,000	0,022	-0,102
-635,838	17,221	-0,115	-0,067
-634,824	233,164	0,055	0,067
-633,809	-110,576	-0,028	0,004
-632,795	-200,000	-0,003	-0,019
-631,780	149,678	-0,054	0,054
-630,765	-200,000	0,022	-0,112
-629,751	-45,908	0,077	-0,028
-628,736	-150,325	-0,135	-0,008
-627,722	139,798	-0,039	0,038
-626,707	-46,469	0,113	0,041
-625,692	-200,000	-0,014	0,100
-624,678	95,813	0,044	0,037
-623,663	-200,000	-0,196	0,000
-622,649	-200,000	-0,028	-0,128
-621,634	738,649	-0,087	-0,173
-620,619	-200,000	0,017	-0,137
-619,605	-200,000	-0,003	0,018
-618,590	28,077	-0,067	-0,041
-617,576	227,370	0,028	0,033
-616,561	800,000	0,049	-0,137
-615,546	-174,966	-0,130	-0,003
-614,532	800,000	-0,045	0,111
-613,517	328,945	-0,063	0,089
-612,503	800,000	-0,060	-0,169
-611,488	527,152	0,047	-0,082
-610,474	-96,285	-0,068	-0,013
-609,459	-200,000	0,010	0,066
-608,444	18,921	0,065	-0,038
-607,430	53,254	-0,075	-0,052
-606,415	661,555	0,008	-0,014
-605,401	-200,000	-0,025	-0,111
-604,386	-165,327	0,055	-0,002
-603,371	70,840	0,133	0,101
-602,357	-200,000	0,000	-0,043
-601,342	-69,090	-0,083	0,023
-600,328	535,831	-0,039	0,069
-599,313	-69,292	0,113	-0,032
-598,298	-76,423	-0,062	-0,016
-597,284	-96,933	0,143	0,027
-596,269	-200,000	0,003	0,055
-595,255	800,000	0,011	0,030
-594,240	800,000	0,054	-0,120
-593,225	800,000	-0,026	-0,064
-592,211	-200,000	-0,016	-0,132
-591,196	-0,384	-0,045	0,023
-590,182	367,420	-0,044	0,065
-589,167	10,364	-0,040	-0,022
-588,152	6,343	-0,019	0,010
-587,138	-102,041	0,086	-0,015
-586,123	413,977	-0,085	-0,133
-585,109	-48,088	0,006	-0,002
-584,094	41,553	0,031	-0,021
-583,079	800,000	-0,017	0,040
-582,065	-29,351	-0,084	-0,035
-581,050	800,000	0,050	-0,112
-580,036	-200,000	0,007	0,197
-579,021	593,967	-0,080	0,146
-578,006	33,140	-0,136	0,087
-576,992	631,280	0,014	-0,026
-575,977	-114,350	-0,113	0,016
-574,963	-200,000	0,012	-0,050
-573,948	104,555	-0,032	-0,027
-572,934	91,058	-0,100	0,082
-571,919	-191,943	-0,093	0,001
-570,904	109,825	-0,087	-0,076
-569,890	-200,000	0,026	-0,113
-568,875	800,000	0,026	-0,054
-567,861	-86,836	0,116	0,026
-566,846	-134,948	0,036	0,003
-565,831	12,882	-0,085	-0,048
-564,817	-200,000	0,004	-0,114
-563,802	404,666	0,125	-0,195
-562,788	59,270	-0,073	0,053
-561,773	8,287	0,119	0,066
-560,758	-149,152	-0,086	-0,005
-559,744	-200,000	-0,015	0,197
-558,729	-113,535	-0,121	-0,017
-557,715	29,215	-0,151	-0,094
-556,700	-200,000	-0,000	-0,186
-555,685	569,681	-0,016	0,029
-554,671	-13,790	0,064	0,030
-553,656	-89,487	0,052	-0,011
-552,642	-13,301	0,110	-0,052
-551,627	-168,898	0,100	0,003
-550,612	-91,505	0,075	-0,016
-549,598	221,884	-0,114	0,135
-548,583	-38,180	-0,100	0,039
-547,569	800,000	0,018	-0,052
-546,554	-47,675	-0,040	-0,014
-545,539	-200,000	-0,007	0,085
-544,525	-93,064	-0,015	0,003
-543,510	42,524	-0,056	-0,038
-542,496	125,807	-0,027	-0,025
-541,481	26,355	0,049	0,030
-540,466	481,348	-0,054	-0,090
-539,452	-103,377	-0,149	-0,026
-538,437	116,347	0,161	-0,145
-537,423	800,000	-0,038	-0,124
-536,408	-2,697	-0,083	0,043
-535,393	-85,277	-0,160	-0,037
-534,379	-190,015	-0,106	0,001
-533,364	93,165	-0,029	-0,024
-532,350	-144,501	0,150	0,010
-531,335	211,763	-0,059	0,069
-530,321	282,119	-0,051	0,067
-529,306	539,742	-0,025	-0,044
-528,291	600,116	0,054	-0,100
-527,277	-185,786	-0,021	-0,000
-526,262	601,015	-0,063	-0,115
-525,248	-200,000	0,015	0,078
-524,233	288,577	0,056	-0,075
-523,218	254,469	0,053	-0,067
-522,204	96,484	-0,126	0,106
-521,189	-70,425	0,114	-0,031
-520,175	-200,000	0,013	0,042
-519,160	442,459	0,029	0,047
-518,145	550,325	0,094	0,166
-517,131	386,669	0,081	0,122
-516,116	137,395	0,073	-0,070
-515,102	-200,000	-0,033	-0,135
-514,087	-167,370	0,131	-0,004
-513,072	-22,398	0,023	-0,010
-512,058	-107,874	-0,044	-0,007
-511,043	800,000	0,036	-0,105
-510,029	-114,741	0,223	0,031
-509,014	-42,122	-0,108	0,040
-507,999	-200,000	0,021	-0,109
-506,985	196,939	-0,032	0,036
-505,970	800,000	0,037	0,077
-504,956	130,781	-0,075	-0,071
-503,941	434,448	-0,029	-0,047
-502,926	800,000	-0,067	-0,158
-501,912	-200,000	0,002	-0,027
-500,897	239,657	0,031	-0,038
-499,883	-200,000	-0,009	-0,066
-498,868	-30,253	-0,110	0,045
-497,853	253,250	0,037	0,047
-496,839	576,274	0,025	0,045
-495,824	212,049	0,042	0,048
-494,810	44,532	0,118	0,079
-493,795	201,602	0,107	-0,121
-492,781	-125,572	0,136	-0,015
-491,766	53,679	0,046	-0,032
-490,751	43,031	-0,126	-0,084
-489,737	-200,000	-0,010	-0,063
-488,722	13,584	-0,022	-0,012
-487,708	558,488	0,022	0,039
-486,693	9,094	-0,019	-0,010
-485,678	-101,851	-0,099	0,017
-484,664	657,166	0,040	-0,075
-483,649	73,144	-0,081	-0,062
-482,635	71,548	0,112	-0,085
-481,620	664,144	0,028	-0,052
-480,605	800,000	0,069	-0,160
-479,591	142,262	0,191	0,186
-478,576	-28,227	-0,069	0,029
-477,562	-200,000	-0,024	-0,118
-476,547	-115,394	0,062	0,009
-475,532	-99,357	0,052	-0,010
-474,518	456,185	-0,032	0,052
-473,503	-200,000	-0,009	0,082
-472,489	156,948	-0,079	0,081
-471,474	-34,791	0,037	-0,015
-470,459	679,416	0,026	0,050
-469,445	-200,000	-0,008	-0,028
-468,430	81,623	-0,068	-0,053
-467,416	-200,000	-0,003	-0,058
-466,401	251,402	0,074	0,093
-465,386	138,222	0,036	0,035
-464,372	-100,675	-0,101	-0,018
-463,357	800,000	-0,041	-0,118
-462,343	70,823	-0,008	0,006
-461,328	102,990	0,064	0,055
-460,313	-54,104	-0,032	-0,011
-459,299	26,009	-0,075	-0,046
-458,284	-200,000	-0,012	0,160
-457,270	800,000	-0,046	0,125
-456,255	424,247	0,010	-0,016
-455,241	-200,000	0,005	0,024
-454,226	-7,888	0,123	-0,061
-453,211	-200,000	-0,014	0,098
-452,197	63,378	-0,045	0,033
-451,182	294,623	-0,036	0,048
-450,168	-200,000	0,003	-0,125
-449,153	238,250	0,054	-0,065
-448,138	-4,242	-0,086	0,043
-447,124	309,761	0,027	-0,037
-446,109	-154,758	-0,093	-0,004
-445,095	800,000	-0,015	0,043
-444,080	-200,000	0,003	-0,101
-443,065	-200,000	-0,005	-0,177
-442,051	-10,079	0,109	-0,053
-441,036	-15,538	-0,143	-0,066
-440,022	800,000	-0,069	0,144
-439,007	-10,264	-0,064	0,031
-437,992	-71,870	0,099	-0,027
-436,978	-200,000	0,001	0,034
-435,963	-53,473	0,073	0,024
-434,949	49,303	0,089	0,061
-433,934	14,779	-0,121	0,069
-432,919	-200,000	0,005	0,022
-431,905	-200,000	0,007	-0,100
-430,890	-172,551	0,104	0,002
-429,876	-109,268	0,134	0,021
-428,861	-200,000	-0,019	0,123
-427,846	-200,000	0,032	0,135
-426,832	800,000	-0,039	-0,118
-425,817	-200,000	0,002	-0,107
-424,803	147,834	0,084	-0,083
-423,788	565,616	-0,036	0,064
-422,773	-140,384	0,152	0,011
-421,759	800,000	-0,069	0,142
-420,744	-0,771	0,270	0,139
-419,730	13,015	-0,084	-0,048
-418,715	-166,936	0,056	-0,002
-417,701	-200,000	0,011	0,106
-416,686	-112,843	-0,050	0,007
-415,671	800,000	-0,054	0,121
-414,657	-159,098	0,083	-0,003
-413,642	-60,617	0,104	-0,032
-412,628	167,050	-0,031	-0,033
-411,613	-200,000	0,042	0,148
-410,598	320,824	-0,078	-0,109
-409,584	421,285	0,053	0,084
-408,569	-14,781	0,103	0,048
-407,555	-200,000	-0,002	0,096
-406,540	-200,000	0,002	0,015
-405,525	-200,000	-0,017	-0,060
-404,511	132,449	-0,101	-0,095
-403,496	-200,000	-0,001	-0,111
-402,482	-200,000	-0,026	-0,116
-401,467	128,756	-0,013	0,012
-400,452	-200,000	0,015	0,051
-399,438	744,559	-0,015	0,029
-398,423	213,771	-0,014	0,017
-397,409	-200,000	-0,023	-0,080
-396,394	160,806	-0,032	-0,032
-395,379	133,435	0,085	0,081
-394,365	-172,276	-0,062	-0,001
-393,350	54,398	0,073	0,051
-392,336	-20,706	-0,072	-0,032
-391,321	176,383	0,033	0,035
-390,306	360,475	-0,056	-0,082
-389,292	241,578	-0,061	0,074
-388,277	-102,978	0,185	-0,032
-387,263	33,977	-0,063	0,040
-386,248	-91,173	0,017	-0,004
-385,233	331,853	0,049	0,069
-384,219	0,404	-0,056	0,029
-383,204	-115,171	0,132	0,018
-382,190	-6,008	-0,140	-0,070
-381,175	800,000	-0,021	-0,047
-380,160	6,423	0,117	-0,063
-379,146	-73,104	-0,167	0,044
-378,131	-90,586	0,080	0,017
-377,117	453,834	-0,029	-0,046
-376,102	-81,672	-0,059	0,014
-375,088	72,685	-0,063	0,048
-374,073	-200,000	-0,027	-0,136
-373,058	-41,533	0,095	0,035
-372,044	-36,507	-0,136	0,053
-371,029	18,969	0,111	0,065
-370,015	-200,000	0,021	-0,104
-369,000	357,492	0,047	-0,069
-367,985	338,496	-0,060	0,086
-366,971	800,000	-0,032	-0,072
-365,956	0,588	0,063	-0,033
-364,942	800,000	-0,060	0,147
-363,927	-200,000	-0,004	0,029
-362,912	67,206	-0,101	-0,075
-361,898	-94,915	0,064	0,013
-360,883	800,000	-0,032	-0,090
-359,869	-51,306	-0,098	0,033
-358,854	800,000	0,014	0,040
-357,839	-200,000	-0,005	0,066
-356,825	592,710	0,042	0,076
-355,810	800,000	-0,038	0,082
-354,796	-200,000	-0,050	0,196
-353,781	791,245	0,008	0,016
-352,766	-23,412	0,047	0,021
-351,752	-96,370	-0,068	0,013
-350,737	800,000	0,076	0,185
-349,723	-128,859	-0,172	0,017
-348,708	166,537	0,114	0,118
-347,693	44,661	-0,107	-0,072
-346,679	52,464	0,031	0,022
-345,664	-143,782	-0,191	-0,013
-344,650	-86,366	0,128	-0,029
-343,635	20,763	0,090	0,053
-342,620	-44,834	-0,019	-0,007
-341,606	45,992	0,143	0,097
-340,591	-200,000	-0,010	0,047
-339,577	-68,239	0,079	-0,022
-338,562	-14,892	-0,005	-0,002
-337,548	282,565	-0,061	0,080
-336,533	448,533	0,069	-0,111
-335,518	461,154	-0,033	0,053
-334,504	-200,000	0,001	0,120
-333,489	192,310	0,097	-0,107
-332,475	296,136	0,085	-0,114
-331,460	-157,437	0,105	0,005
-330,445	-200,000	-0,000	-0,069
-329,431	360,535	0,069	0,100
-328,416	-34,274	-0,017	0,007
-327,402	800,000	0,059	0,156
-326,387	16,833	0,101	0,058
-325,372	-103,685	-0,022	0,004
-324,358	-56,692	-0,057	0,018
-323,343	-176,811	0,073	-0,001
-322,329	408,090	-0,035	0,054
-321,314	192,626	-0,065	-0,072
-320,299	-200,000	0,017	0,116
-319,285	-136,914	-0,085	-0,007
-318,270	-200,000	-0,010	0,039
-317,256	-159,097	-0,082	0,003
-316,241	800,000	0,020	-0,047
-315,226	88,566	0,011	0,009
-314,212	800,000	-0,033	0,101
-313,197	249,691	0,120	0,149
-312,183	800,000	-0,054	0,120
-311,168	437,959	0,045	0,072
-310,153	-200,000	-0,029	0,112
-309,139	-200,000	0,021	0,171
-308,124	159,151	-0,091	0,092
-307,110	18,034	-0,031	0,018
-306,095	-138,307	-0,110	-0,009
-305,080	257,686	0,042	-0,052
-304,066	408,043	-0,075	0,116
-303,051	800,000	-0,050	0,116
-302,037	383,198	0,022	-0,033
-301,022	800,000	0,062	-0,134
-300,008	148,910	0,013	0,013
-298,993	-200,000	-0,019	0,158
-297,978	12,192	0,071	0,040
-296,964	-200,000	0,040	-0,184
-295,949	139,879	0,068	0,066
-294,935	-14,274	-0,108	-0,050
-293,920	3,911	0,067	0,035
-292,905	-200,000	0,000	0,080
-291,891	90,892	0,068	0,056
-290,876	291,362	0,088	0,117
-289,862	-200,000	-0,011	-0,094
-288,847	-110,939	-0,058	-0,009
-287,832	-110,225	0,084	-0,013
-286,818	27,265	-0,145	-0,088
-285,803	-78,038	-0,102	0,025
-284,789	-15,379	0,046	-0,021
-283,774	328,049	-0,066	0,093
-282,759	338,043	0,061	-0,087
-281,745	-110,247	-0,068	-0,010
-280,730	110,542	-0,028	0,024
-279,716	-72,056	0,045	-0,012
-278,701	-160,972	-0,037	0,001
-277,686	18,806	-0,060	-0,035
-276,672	-82,466	0,132	0,031
-275,657	-200,000	-0,006	-0,071
-274,643	800,000	-0,062	-0,135
-273,628	-200,000	-0,000	-0,005
-272,613	-200,000	-0,043	-0,174
-271,599	376,449	0,039	0,057
-270,584	800,000	0,055	0,116
-269,570	350,195	0,031	-0,045
-268,555	-200,000	0,033	0,112
-267,540	800,000	-0,021	0,047
-266,526	800,000	-0,031	0,078
-265,511	-61,966	-0,085	0,026
-264,497	800,000	0,028	-0,088
-263,482	-141,454	-0,009	0,001
-262,467	194,033	-0,051	0,056
-261,453	395,214	-0,106	0,162
-260,438	171,892	0,075	-0,079
-259,424	766,055	-0,023	-0,045
-258,409	-140,295	-0,091	0,007
-257,395	-47,546	0,076	0,027
-256,380	-200,000	0,006	0,033
-255,365	800,000	-0,033	0,069
-254,351	-8,782	0,041	0,020
-253,336	462,366	0,031	-0,051
-252,322	29,431	-0,071	0,044
-251,307	-119,116	-0,090	-0,011
-250,292	126,647	-0,030	0,028
-249,278	-167,726	0,165	-0,005
-248,263	-135,238	-0,076	0,007
-247,249	-37,265	0,083	0,032
-246,234	-43,355	0,111	0,041
-245,219	256,216	-0,102	-0,128
-244,205	800,000	-0,015	0,033
-243,190	151,534	-0,063	-0,062
-242,176	-58,619	0,055	0,017
-241,161	29,585	0,040	0,025
-240,146	-200,000	-0,000	-0,006
-239,132	-200,000	-0,031	-0,122
-238,117	-200,000	-0,001	0,088
-237,103	18,608	0,059	-0,034
-236,088	-71,798	-0,152	-0,041
-235,073	800,000	0,016	0,045
-234,059	800,000	-0,027	0,075
-233,044	-200,000	0,016	-0,110
-232,030	363,318	-0,060	-0,088
-231,015	303,317	0,082	-0,111
-230,000	53,603	0,032	0,022
-228,986	157,476	0,048	-0,048
-227,971	-200,000	0,035	0,131
-226,957	-94,265	0,142	0,028
-225,942	800,000	0,036	0,072
-224,927	-135,357	0,132	0,011
-223,913	-155,314	-0,021	-0,001
-222,898	0,735	0,068	-0,035
-221,884	-200,000	-0,007	-0,177
-220,869	-166,026	0,143	-0,004
-219,855	-58,309	0,059	0,019
-218,840	800,000	-0,041	0,103
-217,825	-167,917	-0,036	-0,001
-216,811	-23,382	-0,034	-0,015
-215,796	-200,000	-0,002	-0,040
-214,782	-200,000	0,034	0,111
-213,767	-67,822	-0,101	0,028
-212,752	90,687	0,115	0,094
-211,738	800,000	0,035	0,089
-210,723	138,550	-0,104	-0,099
-209,709	-85,568	0,082	-0,018
-208,694	-104,709	-0,051	-0,008
-207,679	-200,000	0,036	0,124
-206,665	-200,000	0,015	-0,192
-205,650	288,426	-0,022	0,030
-204,636	-200,000	-0,027	-0,178
-203,621	-154,548	-0,134	-0,006
-202,606	554,041	0,019	0,033
-201,592	-200,000	0,013	-0,062
-200,577	10,525	-0,098	-0,054
-199,563	208,263	-0,018	-0,020
-198,548	-75,983	-0,073	-0,019
-197,533	-96,557	0,112	-0,021
-196,519	-3,563	0,007	-0,003
-195,504	800,000	0,059	-0,153
-194,490	797,921	0,079	-0,158
-193,475	-200,000	-0,003	-0,023
-192,460	333,781	-0,023	-0,033
-191,446	78,067	0,154	-0,119
-190,431	-104,392	0,126	0,021
-189,417	54,231	-0,148	0,103
-188,402	-200,000	-0,026	-0,103
-187,387	451,612	-0,066	-0,106
-186,373	461,794	-0,056	-0,090
-185,358	370,162	-0,062	-0,091
-184,344	-200,000	-0,015	-0,070
-183,329	-21,165	-0,046	0,020
-182,315	-7,013	0,081	0,040
-181,300	91,930	-0,054	-0,044
-180,285	-200,000	-0,000	-0,106
-179,271	145,764	-0,068	0,066
-178,256	-117,064	-0,086	0,011
-177,242	800,000	0,051	0,112
-176,227	-200,000	0,004	0,040
-175,212	800,000	-0,032	0,087
-174,198	-35,091	0,085	0,033
-173,183	70,413	0,034	-0,025
-172,169	266,143	0,009	0,012
-171,154	3,122	-0,042	-0,022
-170,139	-28,456	0,046	0,019
-169,125	-160,788	0,166	0,006
-168,110	706,896	0,036	-0,069
-167,096	66,445	0,031	0,023
-166,081	-140,773	0,141	0,010
-165,066	-76,907	-0,079	0,020
-164,052	-17,197	0,090	-0,041
-163,037	-79,883	0,055	0,013
-162,023	154,590	-0,083	-0,083
-161,008	-200,000	0,056	0,211
-159,993	-133,438	-0,199	0,018
-158,979	-200,000	0,008	-0,037
-157,964	163,752	-0,106	-0,109
-156,950	-80,404	-0,109	0,026
-155,935	116,652	0,048	-0,042
-154,920	144,496	0,129	-0,125
-153,906	480,585	-0,046	0,076
-152,891	312,273	0,136	0,186
-151,877	176,028	-0,067	-0,071
-150,862	800,000	0,011	0,032
-149,847	12,390	-0,018	0,010
-148,833	201,122	-0,035	0,039
-147,818	115,681	0,052	-0,046
-146,804	121,706	0,124	-0,112
-145,789	-98,800	0,039	0,007
-144,775	15,871	-0,110	0,062
-143,760	96,350	-0,081	-0,067
-142,745	800,000	-0,051	-0,102
-141,731	202,443	-0,010	-0,011
-140,716	800,000	0,031	0,078
-139,702	432,277	0,092	0,144
-138,687	-101,374	-0,156	0,027
-137,672	-55,908	-0,061	0,020
-136,658	-191,657	-0,157	-0,001
-135,643	-200,000	0,002	-0,010
-134,629	-59,354	-0,105	-0,032
-133,614	-200,000	-0,001	0,038
-132,599	88,762	-0,096	-0,077
-131,585	549,093	0,022	0,038
-130,570	417,153	0,080	0,124
-129,556	183,412	0,067	-0,072
-128,541	13,185	-0,082	-0,046
-127,526	-132,042	-0,054	-0,005
-126,512	800,000	-0,018	0,052
-125,497	-200,000	0,013	0,111
-124,483	-200,000	-0,006	-0,080
-123,468	-197,897	0,050	0,000
-122,453	-200,000	-0,022	-0,089
-121,439	511,983	0,035	-0,060
-120,424	115,475	-0,067	-0,059
-119,410	347,621	0,049	-0,069
-118,395	177,142	0,031	-0,033
-117,380	-111,022	-0,085	0,013
-116,366	-115,854	0,116	0,015
-115,351	-146,936	-0,101	0,006
-114,337	259,530	-0,081	-0,102
-113,322	-200,000	-0,003	-0,046
-112,307	427,387	0,065	0,102
-111,293	-139,665	-0,006	0,000
-110,278	800,000	-0,050	-0,102
-109,264	-200,000	0,015	0,057
-108,249	800,000	-0,021	0,064
-107,234	-63,138	-0,113	0,033
-106,220	-56,105	-0,175	-0,056
-105,205	-200,000	0,004	0,025
-104,191	129,744	0,083	0,077
-103,176	-200,000	-0,008	0,119
-102,162	-101,317	-0,092	-0,016
-101,147	-200,000	-0,006	0,058
-100,132	-200,000	-0,019	0,066
-99,118	800,000	-0,018	0,043
-98,103	-3,567	-0,101	0,050
-97,089	-34,722	0,122	0,048
-96,074	-38,601	-0,100	0,038
-95,059	248,687	-0,102	0,125
-94,045	-200,000	0,007	0,024
-93,030	588,645	-0,011	-0,020
-92,016	-200,000	-0,003	-0,039
-91,001	72,593	-0,042	0,032
-89,986	424,929	-0,061	-0,095
-88,972	-200,000	-0,013	-0,096
-87,957	-200,000	-0,006	0,080
-86,943	-51,135	0,113	-0,038
-85,928	800,000	0,052	0,138
-84,913	-200,000	0,003	0,096
-83,899	-192,244	-0,062	0,000
-82,884	-200,000	0,010	-0,072
-81,870	595,600	-0,089	0,160
-80,855	-73,990	0,113	0,029
-79,840	-200,000	0,011	-0,072
-78,826	155,541	-0,074	-0,074
-77,811	115,799	-0,038	0,033
-76,797	541,829	-0,071	-0,123
-75,782	669,209	-0,019	-0,036
-74,767	67,463	0,037	-0,028
-73,753	174,204	-0,048	-0,050
-72,738	-200,000	0,017	0,075
-71,724	340,668	0,063	-0,089
-70,709	431,879	-0,055	-0,086
-69,694	-71,801	-0,011	-0,003
-68,680	-59,147	0,103	-0,032
-67,665	-73,337	0,093	0,024
-66,651	-40,467	0,099	-0,037
-65,636	132,275	-0,059	-0,055
-64,622	-200,000	-0,018	0,084
-63,607	775,195	0,022	-0,043
-62,592	-26,752	0,031	0,013
-61,578	-19,187	-0,115	0,051
-60,563	-102,829	-0,035	-0,006
-59,549	373,049	-0,080	0,117
-58,534	-14,678	-1,737	-0,801
-57,519	800,000	-0,409	-0,956
-56,505	-200,000	-1,211	-4,953
-55,490	-107,421	0,659	0,103
-54,476	800,000	5,261	12,135
-53,461	-200,000	16,485	274,561
-52,446	800,000	711,833	2213,811
-51,432	545,445	1625,278	2810,035
-50,417	118,913	1621,170	1443,682
-49,403	81,305	1282,098	997,419
-48,388	35,674	1029,516	650,427
-47,373	20,928	992,133	577,986
-46,359	19,665	980,581	567,068
-45,344	17,781	976,461	558,464
-44,330	17,953	975,054	558,202
-43,315	17,570	973,283	555,907
-42,300	17,494	972,437	555,155
-41,286	17,508	971,342	554,552
-40,271	17,491	970,400	553,937
-39,257	17,561	969,493	553,626
-38,242	17,509	968,685	552,971
-37,227	17,492	967,971	552,488
-36,213	17,454	967,252	551,932
-35,198	17,455	966,302	551,372
-34,184	17,501	965,480	551,031
-33,169	17,451	964,669	550,382
-32,154	17,551	963,451	549,989
-31,140	17,531	962,822	549,544
-30,125	17,484	962,102	548,958
-29,111	17,534	961,309	548,647
-28,096	17,536	960,615	548,237
-27,082	17,445	960,016	547,579
-26,067	17,467	959,122	547,118
-25,052	17,513	958,193	546,715
-24,038	17,471	957,673	546,258
-23,023	17,496	956,941	545,900
-22,009	17,562	956,249	545,698
-20,994	17,481	955,617	545,056
-19,979	17,477	955,045	544,693
-18,965	17,493	954,374	544,340
-17,950	17,428	953,873	543,824
-16,936	17,433	953,087	543,372
-15,921	17,422	952,475	542,965
-14,906	17,325	951,805	542,251
-13,892	17,390	950,977	541,966
-12,877	17,387	950,252	541,520
-11,863	17,316	949,817	541,024
-10,848	17,363	949,348	540,885
-9,833	17,426	948,809	540,760
-8,819	17,376	948,233	540,249
-7,804	17,394	947,557	539,901
-6,790	17,336	947,016	539,386
-5,775	17,392	946,358	539,170
-4,760	17,390	945,866	538,861
-3,746	17,362	945,011	538,261
-2,731	17,276	944,327	537,579
-1,717	17,251	943,498	537,005
-0,702	17,185	943,007	536,494
0,313	16,969	942,642	536,412
1,327	20,256	940,766	545,714
2,342	29,617	796,701	487,063
3,356	26,830	449,238	270,443
4,371	-2,604	295,969	148,656
5,386	-6,463	277,242	135,569
6,400	-7,813	271,663	131,569
7,415	-8,202	269,382	130,093
8,429	-8,270	268,065	129,383
9,444	-8,430	267,004	128,713
10,459	-8,482	266,248	128,289
11,473	-8,441	265,647	128,026
12,488	-8,529	265,186	127,712
13,502	-8,889	264,581	127,082
14,517	-8,798	264,223	126,982
15,531	-8,890	263,627	126,601
16,546	-8,943	263,323	126,396
17,561	-8,858	262,830	126,224
18,575	-8,697	262,642	126,268
19,590	-9,034	262,056	125,672
20,604	-9,087	261,994	125,584
21,619	-9,258	261,688	125,272
22,634	-9,072	261,172	125,181
23,648	-8,980	260,953	125,147
24,663	-9,087	260,612	124,877
25,677	-9,036	260,486	124,850
26,692	-9,118	260,189	124,624
27,707	-9,022	259,910	124,564
28,721	-9,170	259,536	124,242
29,736	-9,096	259,339	124,202
30,750	-9,225	259,083	123,955
31,765	-9,297	258,915	123,799
32,780	-9,188	258,581	123,725
33,794	-9,312	258,347	123,492
34,809	-9,260	258,127	123,422
35,823	-9,303	257,838	123,235
36,838	-9,180	257,584	123,211
37,853	-9,345	257,382	122,958
38,867	-9,356	257,132	122,818
39,882	-9,355	256,861	122,678
40,896	-9,288	256,647	122,624
41,911	-9,284	256,348	122,474
42,926	-9,339	256,289	122,386
43,940	-9,369	255,886	122,156
44,955	-9,403	255,741	122,047
45,969	-9,351	255,460	121,947
46,984	-9,634	255,243	121,585
47,999	-10,033	254,969	121,096
49,013	-9,935	254,710	121,047
50,028	-10,103	254,577	120,827
51,042	-10,280	254,156	120,462
52,057	-10,028	253,823	120,513
53,071	-10,050	253,786	120,466
54,086	-10,116	253,723	120,368
55,101	-10,066	253,396	120,246
56,115	-9,772	253,421	120,502
57,130	-9,051	253,385	121,098
58,144	-8,828	253,258	121,220
59,159	-8,804	253,059	121,135
60,174	-8,815	252,791	120,986
61,188	-8,841	252,428	120,779
62,203	-9,160	252,335	120,448
63,217	-9,094	252,193	120,427
64,232	-8,855	251,759	120,415
65,247	-8,923	251,594	120,267
66,261	-8,900	251,368	120,167
67,276	-9,243	250,979	119,677
68,290	-9,561	250,825	119,320
69,305	-9,611	250,656	119,187
70,320	-9,547	250,566	119,187
71,334	-9,409	250,218	119,129
72,349	-9,149	250,370	119,414
73,363	-8,704	250,127	119,667
74,378	-8,919	249,848	119,339
75,393	-9,053	249,492	119,045
76,407	-9,094	249,458	118,983
77,422	-9,169	249,208	118,790
78,436	-8,998	248,990	118,820
79,451	-9,060	248,867	118,698
80,466	-9,233	248,529	118,379
81,480	-9,424	248,202	118,051
82,495	-9,521	248,110	117,915
83,509	-9,272	247,937	118,033
84,524	-9,393	247,566	117,744
85,539	-9,817	247,441	117,315
86,553	-9,683	247,210	117,309
87,568	-9,491	247,089	117,403
88,582	-9,487	246,908	117,310
89,597	-9,663	246,841	117,119
90,611	-9,347	246,557	117,239
91,626	-9,178	246,532	117,359
92,641	-9,221	246,378	117,239
93,655	-9,322	246,006	116,967
94,670	-9,186	245,801	116,974
95,684	-9,328	245,665	116,779
96,699	-9,407	245,639	116,691
97,714	-9,439	245,299	116,492
98,728	-9,603	245,157	116,277
99,743	-9,645	244,719	116,024
100,757	-9,538	244,509	116,003
101,772	-9,603	244,408	115,891
102,787	-9,442	244,249	115,939
103,801	-9,479	244,252	115,899
104,816	-9,261	244,076	115,987
105,830	-9,138	243,877	115,984
106,845	-9,047	243,763	115,995
107,860	-9,145	243,718	115,881
108,874	-9,265	243,218	115,534
109,889	-9,356	243,072	115,379
110,903	-9,155	242,815	115,413
111,918	-9,222	242,708	115,297
112,933	-9,359	242,547	115,096
113,947	-9,326	242,490	115,086
114,962	-9,047	242,259	115,197
115,976	-9,033	242,054	115,101
116,991	-9,317	241,912	114,789
118,006	-9,296	241,824	114,754
119,020	-9,015	241,521	114,831
120,035	-9,087	241,315	114,664
121,049	-9,011	241,293	114,706
122,064	-9,312	241,204	114,406
123,079	-9,167	240,816	114,330
124,093	-9,302	240,683	114,147
125,108	-9,486	240,477	113,889
126,122	-9,732	240,202	113,547
127,137	-9,848	240,117	113,402
128,151	-9,667	239,860	113,418
129,166	-9,486	239,614	113,440
130,181	-9,546	239,543	113,346
131,195	-9,701	239,253	113,073
132,210	-9,379	239,256	113,327
133,224	-9,286	239,068	113,303
134,239	-9,068	238,887	113,384
135,254	-9,048	238,734	113,317
136,268	-9,193	238,477	113,067
137,283	-9,734	238,253	112,514
138,297	-9,763	238,098	112,407
139,312	-9,776	237,885	112,286
140,327	-9,500	237,987	112,547
141,341	-8,685	237,678	113,048
142,356	-8,772	237,678	112,968
143,370	-8,791	237,522	112,868
144,385	-8,639	237,440	112,942
145,400	-8,746	237,215	112,739
146,414	-8,666	236,971	112,677
147,429	-8,803	236,770	112,461
148,443	-9,147	236,722	112,152
149,458	-8,762	236,370	112,285
150,473	-8,751	236,249	112,225
151,487	-8,769	235,955	112,062
152,502	-8,753	235,818	111,999
153,516	-8,621	235,712	112,044
154,531	-8,887	235,652	111,794
155,546	-8,855	235,505	111,740
156,560	-9,082	235,317	111,459
157,575	-9,059	235,008	111,321
158,589	-9,054	234,841	111,236
159,604	-8,879	234,755	111,325
160,619	-8,642	234,586	111,423
161,633	-8,353	234,427	111,567
162,648	-8,895	234,357	111,094
163,662	-8,743	234,146	111,104
164,677	-8,919	233,925	110,850
165,692	-8,672	233,734	110,946
166,706	-8,702	233,809	110,947
167,721	-8,768	233,643	110,806
168,735	-8,655	233,437	110,788
169,750	-8,497	233,309	110,842
170,764	-8,882	233,222	110,487
171,779	-8,668	233,005	110,543
172,794	-8,401	232,816	110,654
173,808	-8,701	232,418	110,219
174,823	-9,414	232,226	109,557
175,837	-9,657	231,978	109,240
176,852	-9,016	232,124	109,803
177,867	-8,910	232,092	109,861
178,881	-8,670	231,905	109,951
179,896	-8,554	231,682	109,927
180,910	-8,594	231,571	109,832
181,925	-8,569	231,310	109,718
182,940	-8,513	231,192	109,697
183,954	-8,472	231,041	109,647
184,969	-8,446	230,923	109,601
185,983	-8,446	230,849	109,557
186,998	-8,395	230,622	109,479
188,013	-8,424	230,501	109,389
189,027	-8,412	230,426	109,353
190,042	-8,369	230,190	109,265
191,056	-8,308	230,159	109,288
192,071	-8,221	229,967	109,254
193,086	-8,376	229,778	109,035
194,100	-8,098	229,580	109,147
195,115	-7,889	229,536	109,278
196,129	-7,603	229,565	109,504
197,144	-3,355	230,830	113,405
198,159	0,675	232,112	117,172
199,173	3,230	232,663	119,436
200,188	3,785	232,707	119,881
201,202	3,645	232,669	119,741
202,217	3,736	232,401	119,664
203,232	3,917	232,315	119,750
204,246	4,047	232,160	119,760
205,261	3,961	232,146	119,675
206,275	4,120	232,059	119,743
207,290	4,165	231,884	119,677
208,304	4,255	231,600	119,590
209,319	4,110	231,528	119,430
210,334	3,961	231,124	119,096
211,348	3,994	231,022	119,058
212,363	3,413	230,841	118,505
213,377	3,400	230,491	118,304
214,392	3,607	230,322	118,366
215,407	3,498	230,281	118,251
216,421	3,545	230,062	118,164
217,436	3,429	229,970	118,017
218,450	3,250	229,607	117,683
219,465	3,165	229,516	117,560
220,480	3,168	229,448	117,517
221,494	3,148	229,432	117,484
222,509	3,201	229,287	117,439
223,523	3,318	229,054	117,399
224,538	3,105	228,971	117,183
225,553	3,216	228,875	117,209
226,567	3,408	228,658	117,234
227,582	3,631	228,570	117,349
228,596	3,856	228,401	117,423
229,611	3,357	228,217	116,938
230,626	3,073	227,930	116,563
231,640	3,006	227,958	116,516
232,655	3,321	227,881	116,706
233,669	3,809	227,883	117,069
234,684	4,028	227,694	117,128
235,699	3,743	227,428	116,764
236,713	3,669	227,070	116,514
237,728	3,272	227,053	116,193
238,742	3,312	226,611	115,987
239,757	3,353	226,652	116,028
240,772	3,075	226,564	115,763
241,786	3,007	226,497	115,666
242,801	3,239	226,376	115,770
243,815	3,645	226,247	116,001
244,830	3,809	226,130	116,054
245,844	3,341	225,905	115,576
246,859	3,419	225,796	115,568
247,874	3,569	225,631	115,587
248,888	3,662	225,480	115,569
249,903	3,573	225,223	115,360
250,917	3,615	225,020	115,277
251,932	3,476	224,859	115,080
252,947	3,301	224,756	114,885
253,961	3,308	224,625	114,814
254,976	3,254	224,492	114,695
255,990	3,669	224,466	114,983
257,005	3,562	224,418	114,868
258,020	3,567	224,271	114,786
259,034	3,667	224,111	114,769
260,049	3,717	223,986	114,731
261,063	3,725	223,722	114,592
262,078	3,666	223,579	114,464
263,093	3,781	223,446	114,472
264,107	3,719	223,353	114,368
265,122	3,633	223,134	114,182
266,136	3,966	223,133	114,418
267,151	3,797	222,944	114,186
268,166	3,440	222,710	113,791
269,180	3,281	222,436	113,523
270,195	3,338	222,214	113,442
271,209	3,381	222,086	113,397
272,224	3,422	222,051	113,401
273,239	3,504	222,015	113,432
274,253	3,347	221,882	113,238
275,268	3,077	221,676	112,924
276,282	3,215	221,397	112,873
277,297	3,155	221,348	112,794
278,312	3,136	221,227	112,708
279,326	3,298	221,129	112,768
280,341	3,359	221,038	112,756
281,355	3,580	220,779	112,776
282,370	3,563	220,685	112,706
283,384	2,948	220,351	112,074
284,399	2,978	220,335	112,078
285,414	3,185	220,195	112,149
286,428	3,231	220,164	112,157
287,443	3,306	220,092	112,164
288,457	3,521	219,892	112,210
289,472	3,422	219,618	111,988
290,487	2,775	219,305	111,346
291,501	2,945	219,222	111,418
292,516	3,075	219,117	111,449
293,530	3,068	219,109	111,430
294,545	3,038	218,893	111,289
295,560	3,211	218,852	111,384
296,574	3,424	218,559	111,380
297,589	3,365	218,516	111,305
298,603	3,433	218,476	111,324
299,618	3,440	218,238	111,198
300,633	3,559	218,121	111,215
301,647	3,468	218,097	111,127
302,662	3,758	217,822	111,187
303,676	3,563	217,732	110,990
304,691	3,570	217,695	110,966
305,706	3,626	217,534	110,915
306,720	3,415	217,504	110,736
307,735	3,373	217,211	110,547
308,749	3,188	217,082	110,338
309,764	3,428	216,989	110,455
310,779	3,725	216,839	110,582
311,793	3,266	216,633	110,137
312,808	3,240	216,545	110,063
313,822	3,358	216,380	110,054
314,837	3,236	216,181	109,856
315,852	3,120	216,071	109,707
316,866	3,245	215,993	109,747
317,881	3,416	215,841	109,782
318,895	3,603	215,590	109,779
319,910	3,868	215,426	109,875
320,925	3,388	215,379	109,499
321,939	3,158	215,152	109,209
322,954	3,304	215,152	109,304
323,968	3,306	215,078	109,258
324,983	3,543	214,925	109,339
325,997	3,567	214,755	109,260
327,012	3,709	214,501	109,222
328,027	3,607	214,481	109,130
329,041	3,580	214,504	109,112
330,056	4,073	214,172	109,284
331,070	3,401	213,945	108,682
332,085	3,077	213,852	108,395
333,100	3,273	213,654	108,424
334,114	3,495	213,618	108,553
335,129	3,616	213,457	108,547
336,143	3,313	213,295	108,241
337,158	3,300	213,153	108,150
338,173	3,012	213,194	107,958
339,187	2,819	213,039	107,733
340,202	3,218	212,594	107,780
341,216	3,173	212,394	107,637
342,231	3,265	212,416	107,703
343,246	3,047	212,385	107,524
344,260	3,314	212,386	107,703
345,275	3,573	212,115	107,738
346,289	3,746	211,971	107,777
347,304	3,421	211,812	107,458
348,319	3,479	211,785	107,476
349,333	3,239	211,647	107,228
350,348	3,571	211,418	107,335
351,362	3,568	211,368	107,298
352,377	3,708	211,221	107,312
353,392	3,414	211,134	107,052
354,406	3,534	210,919	107,018
355,421	195,859	1340,969	1425,698
356,435	156,449	1478,660	1425,719
