DTS Sentinel unit serial number:	SN410029Multiplexer serial number:	ORYXHardware model number:	OX2-SRSoftware version number:	ORYX F/W v4,00 Oryx Data Collector v3.7.2.0data status	okinstallation	B6 Nyhavnadifferential loss correction	single-endedforward channel	channel 2reverse channel	N/Adate	2023/12/08time	23:00:08forward acquisition time	300,00reverse acquisition time	0,00gamma	499,1914k internal	0,3157k external	0,3157temperature offset calibration	1,0000default loss term (dB/km)	0,3820temperature slope calibration	1,0000multiplexer offset coefficient	1,0000multiplexer slope coefficient	1,0000fibre end	0,00T internal ref (°C)	15,38T ext. ref 1 (°C)	-1,03T ext. ref 2 (°C)	-1,04length (m)	temperature (°C)	Stokes	anti-Stokes-744,400	192,155	0,130	0,145
-743,385	-99,157	-0,316	0,058
-742,371	0,366	0,191	-0,100
-741,356	-77,105	-0,274	0,070
-740,342	-21,716	0,306	0,137
-739,327	-192,857	-0,455	0,003
-738,312	208,323	0,021	-0,024
-737,298	-33,408	-0,337	0,137
-736,283	-102,358	0,105	0,018
-735,269	58,632	-0,231	0,167
-734,254	-116,397	0,112	-0,015
-733,239	-25,134	-0,478	-0,208
-732,225	-156,488	0,191	0,009
-731,210	229,627	0,040	0,049
-730,196	-26,854	0,078	0,033
-729,181	170,706	-0,029	0,030
-728,167	-200,000	-0,008	-0,041
-727,152	568,508	-0,046	0,082
-726,137	97,528	-0,091	-0,077
-725,123	800,000	-0,021	-0,053
-724,108	800,000	0,034	0,093
-723,094	-200,000	0,002	0,027
-722,079	800,000	-0,095	-0,219
-721,064	283,774	0,018	-0,024
-720,050	-200,000	0,010	0,078
-719,035	47,791	0,045	0,031
-718,021	-177,576	-0,176	0,003
-717,006	113,745	-0,057	-0,051
-715,991	-200,000	0,031	-0,102
-714,977	-200,000	-0,009	-0,094
-713,962	-102,190	-0,072	0,013
-712,948	-200,000	-0,028	0,117
-711,933	-29,035	-0,038	-0,016
-710,918	-125,938	0,106	0,012
-709,904	800,000	0,068	-0,148
-708,889	-172,345	-0,068	0,002
-707,875	70,009	-0,164	-0,125
-706,860	-45,944	-0,053	-0,019
-705,845	386,594	0,088	-0,134
-704,831	-136,726	0,058	-0,005
-703,816	156,179	0,013	0,013
-702,802	136,284	-0,065	-0,062
-701,787	-48,372	-0,109	-0,038
-700,772	14,529	0,029	-0,017
-699,758	16,904	-0,073	-0,043
-698,743	351,674	-0,036	0,052
-697,729	800,000	-0,062	0,139
-696,714	-89,197	0,003	0,001
-695,699	-200,000	0,001	0,107
-694,685	-135,471	-0,143	-0,012
-693,670	124,278	-0,059	0,055
-692,656	-200,000	-0,003	0,077
-691,641	-36,798	-0,053	0,021
-690,627	800,000	-0,012	-0,028
-689,612	-147,970	-0,119	0,007
-688,597	41,505	0,216	-0,144
-687,583	-62,704	-0,066	0,020
-686,568	51,678	-0,121	0,084
-685,554	800,000	-0,029	-0,082
-684,539	323,991	-0,106	-0,149
-683,524	97,894	-0,013	-0,011
-682,510	15,785	-0,068	0,039
-681,495	-102,293	-0,116	-0,020
-680,481	-200,000	0,017	-0,096
-679,466	298,498	-0,077	-0,104
-678,451	800,000	0,039	-0,097
-677,437	525,257	-0,084	-0,146
-676,422	26,887	-0,024	-0,015
-675,408	800,000	0,052	0,153
-674,393	191,180	-0,048	-0,053
-673,378	193,105	-0,052	-0,057
-672,364	-200,000	-0,020	-0,089
-671,349	38,526	-0,022	-0,014
-670,335	90,456	0,077	0,064
-669,320	800,000	-0,051	0,147
-668,305	-200,000	0,008	-0,069
-667,291	800,000	-0,048	-0,115
-666,276	-6,113	-0,076	-0,038
-665,262	800,000	0,021	-0,067
-664,247	470,746	0,085	-0,142
-663,232	391,732	0,089	-0,136
-662,218	-200,000	0,008	0,105
-661,203	800,000	-0,049	-0,131
-660,189	78,012	0,013	0,010
-659,174	90,465	-0,127	0,105
-658,159	237,072	-0,063	-0,077
-657,145	85,873	-0,026	0,021
-656,130	-200,000	0,007	-0,063
-655,116	-61,377	-0,012	0,004
-654,101	243,200	0,015	-0,019
-653,086	-200,000	-0,024	0,139
-652,072	377,138	-0,087	-0,131
-651,057	-70,389	-0,142	-0,039
-650,043	16,247	-0,026	-0,015
-649,028	-57,847	-0,090	-0,029
-648,014	-200,000	-0,007	-0,027
-646,999	201,188	0,057	-0,064
-645,984	-95,961	-0,195	-0,038
-644,970	180,242	-0,089	-0,096
-643,955	800,000	0,026	-0,058
-642,941	-151,101	-0,178	0,010
-641,926	6,014	-0,086	-0,047
-640,911	-24,793	-0,052	0,023
-639,897	574,448	-0,036	-0,064
-638,882	-200,000	-0,062	0,265
-637,868	34,472	0,100	0,064
-636,853	35,887	-0,133	-0,086
-635,838	267,782	0,039	-0,051
-634,824	-200,000	-0,034	0,139
-633,809	-17,991	0,057	0,026
-632,795	18,181	0,056	-0,033
-631,780	27,706	-0,070	0,043
-630,765	-200,000	-0,007	0,083
-629,751	800,000	-0,040	-0,083
-628,736	88,816	0,043	0,035
-627,722	107,244	-0,096	-0,084
-626,707	391,109	-0,051	0,078
-625,692	-160,502	-0,082	0,003
-624,678	332,895	0,033	-0,048
-623,663	800,000	0,019	-0,049
-622,649	456,477	-0,092	-0,151
-621,634	35,702	0,012	-0,008
-620,619	-21,840	0,095	-0,042
-619,605	-101,320	-0,121	-0,022
-618,590	800,000	0,031	-0,084
-617,576	800,000	0,043	0,110
-616,561	-200,000	-0,004	0,113
-615,546	154,013	-0,036	-0,036
-614,532	7,857	-0,089	-0,049
-613,517	-200,000	0,033	-0,176
-612,503	-99,407	-0,122	0,022
-611,488	800,000	0,018	0,041
-610,474	-200,000	-0,020	0,119
-609,459	-200,000	0,006	0,063
-608,444	-200,000	-0,028	0,092
-607,430	131,577	0,065	-0,061
-606,415	-200,000	0,024	0,104
-605,401	80,224	0,024	-0,019
-604,386	-107,143	0,044	0,007
-603,371	-200,000	0,026	0,088
-602,357	224,567	-0,009	0,010
-601,342	-89,128	-0,034	0,007
-600,328	-200,000	-0,015	-0,106
-599,313	492,663	-0,051	-0,087
-598,298	31,789	-0,024	-0,015
-597,284	-200,000	-0,002	0,035
-596,269	-148,323	-0,141	0,008
-595,255	-184,035	-0,123	-0,001
-594,240	88,336	0,059	-0,048
-593,225	-200,000	0,021	-0,084
-592,211	-46,348	-0,055	-0,020
-591,196	5,214	-0,104	0,056
-590,182	-0,225	-0,076	0,040
-589,167	-132,503	0,054	0,005
-588,152	-15,773	-0,047	-0,022
-587,138	-200,000	-0,010	0,053
-586,123	177,718	-0,135	-0,145
-585,109	-181,226	-0,043	-0,001
-584,094	92,081	-0,077	-0,064
-583,079	0,074	0,083	-0,043
-582,065	-113,938	0,040	0,006
-581,050	4,908	-0,067	0,036
-580,036	327,755	0,016	-0,023
-579,021	-170,378	-0,105	0,003
-578,006	702,476	0,033	0,065
-576,992	-64,408	0,089	0,026
-575,977	293,283	-0,016	-0,021
-574,963	-79,487	0,102	-0,025
-573,948	-200,000	-0,017	-0,057
-572,934	800,000	-0,022	0,064
-571,919	779,781	-0,015	-0,029
-570,904	285,338	0,087	-0,115
-569,890	143,839	0,071	-0,070
-568,875	-30,287	0,133	0,055
-567,861	-200,000	0,015	0,088
-566,846	542,038	-0,042	0,073
-565,831	20,959	0,092	-0,055
-564,817	-26,004	-0,066	0,028
-563,802	-200,000	-0,011	-0,110
-562,788	-4,719	-0,038	0,019
-561,773	61,800	0,081	0,059
-560,758	800,000	0,043	-0,103
-559,744	538,300	-0,051	0,090
-558,729	23,276	-0,037	-0,022
-557,715	177,181	-0,054	0,057
-556,700	-200,000	0,008	-0,150
-555,685	-200,000	-0,001	-0,095
-554,671	120,791	-0,207	0,188
-553,656	-87,216	-0,088	0,019
-552,642	-78,118	0,057	0,014
-551,627	-142,295	-0,099	-0,007
-550,612	-66,638	-0,159	0,046
-549,598	327,882	-0,054	-0,076
-548,583	-200,000	0,005	0,071
-547,569	85,013	-0,044	0,035
-546,554	-80,670	-0,069	0,017
-545,539	-138,535	-0,185	-0,015
-544,525	117,297	-0,025	0,022
-543,510	-200,000	-0,010	0,094
-542,496	7,338	0,028	-0,015
-541,481	139,295	0,074	-0,071
-540,466	-200,000	0,005	-0,075
-539,452	800,000	-0,036	-0,103
-538,437	158,133	0,042	-0,043
-537,423	132,195	-0,060	-0,057
-536,408	-86,268	0,061	-0,014
-535,393	193,488	0,002	0,002
-534,379	-129,766	-0,105	0,010
-533,364	654,060	-0,057	-0,108
-532,350	436,411	-0,037	-0,059
-531,335	-28,408	0,042	-0,018
-530,321	203,667	0,094	0,107
-529,306	-47,785	-0,161	0,057
-528,291	-166,077	0,038	-0,001
-527,277	800,000	0,056	0,126
-526,262	-36,748	0,102	-0,040
-525,248	-86,219	0,080	-0,018
-524,233	113,955	-0,085	0,075
-523,218	-148,585	0,166	-0,010
-522,204	636,133	-0,011	-0,021
-521,189	800,000	-0,004	-0,011
-520,175	433,950	-0,072	-0,115
-519,160	-43,636	0,038	0,014
-518,145	-80,454	0,145	0,035
-517,131	-163,215	0,102	-0,003
-516,116	171,462	-0,024	0,025
-515,102	-102,647	0,086	0,015
-514,087	-13,217	-0,080	-0,038
-513,072	-9,564	-0,057	0,028
-512,058	254,996	-0,033	-0,042
-511,043	800,000	0,061	0,148
-510,029	-111,452	0,078	0,011
-509,014	-200,000	-0,014	-0,103
-507,999	-143,584	0,117	0,008
-506,985	-3,907	0,136	-0,069
-505,970	-92,251	-0,039	-0,008
-504,956	42,294	0,084	-0,056
-503,941	12,987	0,051	0,029
-502,926	104,695	0,066	0,057
-501,912	19,235	0,100	0,059
-500,897	800,000	0,031	0,094
-499,883	-200,000	0,038	-0,123
-498,868	348,584	0,039	0,056
-497,853	70,114	0,087	0,066
-496,839	-200,000	0,020	-0,084
-495,824	310,459	-0,035	-0,048
-494,810	262,807	0,112	-0,143
-493,795	632,427	0,069	0,129
-492,781	-6,609	-0,126	-0,063
-491,766	-11,710	-0,066	-0,031
-490,751	-200,000	-0,038	0,143
-489,737	-118,320	0,042	-0,005
-488,722	-75,454	0,107	-0,028
-487,708	-162,632	-0,072	-0,003
-486,693	-74,423	-0,116	-0,030
-485,678	-149,137	-0,134	0,008
-484,664	-67,784	0,080	0,023
-483,649	-100,890	-0,134	-0,024
-482,635	-200,000	0,003	-0,036
-481,620	251,257	0,072	0,089
-480,605	-69,129	-0,043	-0,012
-479,591	338,184	0,048	-0,069
-478,576	50,720	-0,109	0,075
-477,562	57,571	-0,033	-0,024
-476,547	-10,800	-0,152	-0,073
-475,532	-70,835	0,030	-0,008
-474,518	26,301	0,143	-0,087
-473,503	800,000	0,087	0,193
-472,489	93,661	-0,113	0,093
-471,474	180,268	0,072	0,077
-470,459	210,370	0,096	0,110
-469,445	-200,000	-0,011	-0,119
-468,430	-200,000	0,000	-0,071
-467,416	-200,000	0,023	0,098
-466,401	-15,826	-0,121	0,056
-465,386	290,953	0,023	0,031
-464,372	-200,000	0,004	-0,083
-463,357	-149,626	0,077	0,004
-462,343	-83,512	-0,096	-0,022
-461,328	-41,910	-0,030	-0,011
-460,313	-119,097	0,102	0,013
-459,299	212,382	0,126	0,145
-458,284	121,830	0,023	-0,021
-457,270	81,365	-0,046	0,036
-456,255	329,068	0,081	-0,113
-455,241	-31,042	-0,035	-0,014
-454,226	-69,749	0,079	-0,022
-453,211	68,673	0,107	0,080
-452,197	-91,711	-0,065	0,013
-451,182	-200,000	-0,005	0,041
-450,168	147,917	0,014	0,014
-449,153	480,308	-0,027	0,044
-448,138	151,455	-0,112	-0,111
-447,124	69,987	-0,089	-0,067
-446,109	-43,448	0,036	0,013
-445,095	800,000	-0,041	0,088
-444,080	-200,000	-0,006	-0,034
-443,065	564,719	0,016	-0,028
-442,051	13,256	0,077	0,044
-441,036	800,000	0,006	-0,014
-440,022	-64,772	0,104	-0,031
-439,007	-127,817	-0,095	-0,010
-437,992	-200,000	-0,009	0,147
-436,978	-11,538	0,125	-0,060
-435,963	-157,647	-0,060	0,003
-434,949	40,204	0,134	0,088
-433,934	-10,439	0,096	0,046
-432,919	23,624	0,051	0,031
-431,905	800,000	-0,038	0,104
-430,890	800,000	-0,068	-0,203
-429,876	-184,373	0,033	0,000
-428,861	-126,124	0,071	-0,008
-427,846	-200,000	-0,014	-0,048
-426,832	280,119	-0,038	0,049
-425,817	54,033	0,074	-0,052
-424,803	771,394	0,050	-0,099
-423,788	-129,226	0,060	0,006
-422,773	273,425	-0,072	0,092
-421,759	79,493	0,132	0,103
-420,744	800,000	-0,041	0,103
-419,730	24,668	-0,016	-0,009
-418,715	323,296	-0,108	-0,150
-417,701	-200,000	0,002	-0,131
-416,686	800,000	0,065	0,145
-415,671	800,000	0,117	0,245
-414,657	-200,000	-0,009	0,043
-413,642	-109,710	-0,099	0,015
-412,628	541,079	-0,048	-0,083
-411,613	109,988	0,059	0,051
-410,598	220,246	0,083	0,097
-409,584	208,942	0,037	0,043
-408,569	-64,160	0,181	-0,054
-407,555	481,432	0,044	-0,073
-406,540	-134,307	-0,170	-0,015
-405,525	157,660	-0,114	-0,115
-404,511	800,000	0,059	0,172
-403,496	-200,000	-0,010	-0,120
-402,482	153,480	0,048	0,048
-401,467	137,693	0,074	-0,071
-400,452	63,914	-0,051	-0,037
-399,438	11,729	-0,052	-0,029
-398,423	461,531	-0,080	-0,131
-397,409	98,336	0,059	-0,049
-396,394	-162,671	-0,110	-0,004
-395,379	154,088	0,077	0,077
-394,365	283,478	-0,107	0,140
-393,350	94,559	0,090	0,074
-392,336	800,000	0,002	-0,006
-391,321	-200,000	-0,017	-0,126
-390,306	-78,602	0,051	0,013
-389,292	800,000	-0,074	-0,185
-388,277	-76,804	-0,013	0,003
-387,263	107,192	0,074	0,064
-386,248	-200,000	0,005	-0,164
-385,233	63,259	0,051	0,037
-384,219	43,708	0,034	0,022
-383,204	-55,001	0,162	-0,053
-382,190	197,991	-0,061	-0,067
-381,175	-71,562	-0,093	-0,025
-380,160	-200,000	0,023	0,076
-379,146	13,282	0,069	0,038
-378,131	-10,734	-0,016	-0,008
-377,117	-67,788	0,098	-0,028
-376,102	800,000	0,036	-0,088
-375,088	4,443	-0,101	0,054
-374,073	800,000	0,024	-0,052
-373,058	-200,000	0,000	-0,028
-372,044	-200,000	0,038	0,122
-371,029	132,904	0,101	-0,094
-370,015	-9,772	0,129	-0,062
-369,000	778,237	0,024	-0,049
-367,985	-126,575	-0,126	-0,013
-366,971	800,000	0,032	-0,097
-365,956	-200,000	-0,012	-0,057
-364,942	83,939	0,080	0,063
-363,927	387,003	-0,043	0,065
-362,912	387,686	0,016	0,024
-361,898	-122,575	-0,076	-0,009
-360,883	-200,000	-0,006	0,033
-359,869	-108,812	-0,151	-0,023
-358,854	-151,899	0,059	-0,003
-357,839	-185,555	0,066	-0,001
-356,825	-103,454	-0,112	-0,019
-355,810	142,295	-0,082	0,079
-354,796	57,818	-0,135	0,096
-353,781	800,000	0,007	0,022
-352,766	-200,000	-0,012	0,072
-351,752	-39,553	-0,029	0,011
-350,737	-81,785	-0,075	-0,018
-349,723	-174,561	0,237	-0,005
-348,708	-86,744	0,080	0,018
-347,693	116,868	-0,005	0,004
-346,679	-200,000	0,004	0,093
-345,664	-50,483	-0,111	-0,038
-344,650	800,000	-0,022	0,068
-343,635	-135,818	-0,046	0,004
-342,620	75,881	0,108	0,082
-341,606	-16,718	-0,141	-0,065
-340,591	-186,236	-0,088	-0,001
-339,577	800,000	-0,027	-0,056
-338,562	-82,209	-0,139	0,033
-337,548	721,859	0,012	-0,024
-336,533	-200,000	0,019	0,103
-335,518	705,047	-0,014	-0,027
-334,504	125,124	-0,019	-0,017
-333,489	800,000	-0,049	0,115
-332,475	128,290	0,067	-0,062
-331,460	64,816	-0,021	-0,016
-330,445	-200,000	-0,019	-0,124
-329,431	148,623	-0,068	0,066
-328,416	-200,000	0,016	-0,085
-327,402	94,428	0,096	0,079
-326,387	-200,000	-0,015	-0,062
-325,372	451,016	-0,052	-0,083
-324,358	780,748	-0,045	-0,089
-323,343	-200,000	0,012	0,058
-322,329	48,240	0,133	0,090
-321,314	120,543	0,128	0,116
-320,299	-134,198	-0,085	0,008
-319,285	216,054	-0,111	-0,129
-318,270	-200,000	-0,008	0,048
-317,256	7,817	-0,116	-0,063
-316,241	-200,000	0,009	-0,082
-315,226	452,986	0,012	-0,019
-314,212	116,277	0,042	0,037
-313,197	-200,000	-0,008	-0,057
-312,183	542,104	-0,025	-0,044
-311,168	800,000	-0,043	-0,136
-310,153	183,923	0,125	0,135
-309,139	-36,229	-0,124	0,048
-308,124	-34,833	0,078	0,031
-307,110	91,320	0,062	-0,050
-306,095	235,292	0,099	-0,118
-305,080	-38,229	0,022	0,009
-304,066	-69,634	-0,053	0,015
-303,051	-133,863	0,093	0,008
-302,037	767,746	-0,075	0,148
-301,022	-88,968	0,165	0,035
-300,008	-13,562	0,048	0,022
-298,993	800,000	0,074	0,198
-297,978	3,845	0,016	-0,008
-296,964	214,107	-0,031	-0,036
-295,949	-200,000	-0,005	0,048
-294,935	-200,000	0,028	-0,101
-293,920	135,499	0,052	-0,049
-292,905	-44,063	0,115	0,042
-291,891	800,000	-0,009	0,020
-290,876	16,808	-0,065	-0,037
-289,862	-128,197	-0,167	0,017
-288,847	-56,007	-0,047	0,015
-287,832	800,000	0,026	0,076
-286,818	-47,428	-0,161	0,056
-285,803	267,323	0,057	0,072
-284,789	428,478	0,063	0,099
-283,774	-200,000	-0,012	-0,058
-282,759	-200,000	0,020	-0,068
-281,745	70,787	-0,045	0,034
-280,730	-200,000	0,017	-0,078
-279,716	-34,762	0,015	-0,006
-278,701	-179,388	-0,101	-0,002
-277,686	-200,000	0,003	0,017
-276,672	-10,152	0,063	-0,030
-275,657	-73,396	0,113	-0,030
-274,643	-13,035	0,069	-0,032
-273,628	800,000	-0,006	-0,016
-272,613	13,540	0,040	-0,022
-271,599	373,955	0,085	0,126
-270,584	15,057	0,156	0,088
-269,570	128,510	-0,036	0,033
-268,555	718,529	0,004	-0,008
-267,540	378,080	-0,047	-0,070
-266,526	253,675	-0,064	0,079
-265,511	144,972	0,086	0,083
-264,497	-129,512	0,146	0,014
-263,482	-200,000	0,012	0,111
-262,467	109,523	0,083	0,072
-261,453	-200,000	0,028	0,146
-260,438	-200,000	-0,022	0,080
-259,424	-73,002	-0,098	-0,026
-258,409	7,249	0,058	-0,031
-257,395	-200,000	0,025	0,149
-256,380	800,000	0,023	0,047
-255,365	315,878	-0,022	-0,030
-254,351	-132,775	-0,080	-0,007
-253,336	-200,000	-0,019	-0,065
-252,322	244,335	-0,039	0,047
-251,307	-200,000	-0,014	-0,049
-250,292	-68,450	0,120	-0,033
-249,278	-200,000	0,025	0,115
-248,263	286,079	0,042	0,055
-247,249	-200,000	0,015	0,088
-246,234	-200,000	0,017	0,072
-245,219	16,968	-0,212	0,121
-244,205	59,731	-0,038	0,027
-243,190	66,725	-0,053	-0,039
-242,176	-52,204	0,081	-0,027
-241,161	-200,000	-0,018	0,107
-240,146	269,357	0,034	0,044
-239,132	-115,074	-0,068	-0,009
-238,117	800,000	-0,025	-0,059
-237,103	800,000	0,067	-0,149
-236,088	-60,769	0,066	-0,020
-235,073	-200,000	0,018	-0,090
-234,059	-200,000	-0,005	0,066
-233,044	228,587	0,065	0,077
-232,030	-200,000	-0,009	-0,030
-231,015	315,185	0,049	-0,067
-230,000	-200,000	-0,001	-0,041
-228,986	-63,580	-0,064	-0,019
-227,971	10,304	0,049	-0,027
-226,957	136,161	-0,080	0,076
-225,942	800,000	-0,051	0,112
-224,927	19,785	-0,067	-0,039
-223,913	15,133	-0,021	-0,012
-222,898	124,845	0,052	0,047
-221,884	-106,445	-0,033	-0,005
-220,869	228,303	0,051	-0,060
-219,855	-200,000	0,030	0,172
-218,840	-85,698	0,019	-0,004
-217,825	800,000	0,028	-0,079
-216,811	230,629	0,029	-0,034
-215,796	-200,000	0,010	-0,150
-214,782	29,613	0,081	0,050
-213,767	-200,000	0,000	0,027
-212,752	800,000	0,011	0,023
-211,738	28,184	0,028	-0,017
-210,723	226,622	0,085	-0,099
-209,709	-119,677	0,159	-0,020
-208,694	78,236	-0,042	-0,033
-207,679	757,207	-0,096	-0,189
-206,665	7,197	0,105	0,056
-205,650	118,748	0,035	0,031
-204,636	-118,670	0,139	-0,018
-203,621	-200,000	-0,002	0,091
-202,606	-10,250	-0,139	0,066
-201,592	800,000	-0,061	-0,172
-200,577	800,000	0,013	0,037
-199,563	49,240	0,061	-0,041
-198,548	-60,954	0,100	0,030
-197,533	-200,000	-0,024	0,140
-196,519	-200,000	0,012	-0,139
-195,504	62,768	-0,170	0,123
-194,490	800,000	-0,045	-0,137
-193,475	-200,000	0,007	-0,153
-192,460	800,000	0,078	-0,158
-191,446	-200,000	-0,031	-0,111
-190,431	289,172	-0,080	0,105
-189,417	-0,529	-0,110	0,056
-188,402	-46,054	-0,112	0,040
-187,387	64,354	0,057	-0,041
-186,373	-57,717	-0,109	0,034
-185,358	214,574	-0,031	-0,035
-184,344	489,927	0,089	-0,147
-183,329	-200,000	-0,005	0,055
-182,315	800,000	-0,031	0,080
-181,300	17,422	0,165	0,094
-180,285	36,514	-0,056	-0,035
-179,271	77,173	0,051	0,039
-178,256	800,000	-0,030	-0,092
-177,242	70,375	0,146	-0,108
-176,227	-130,651	0,101	-0,010
-175,212	59,233	0,060	0,042
-174,198	-69,786	-0,096	-0,026
-173,183	127,045	-0,133	-0,121
-172,169	335,736	-0,065	-0,092
-171,154	7,350	0,060	0,032
-170,139	-37,493	-0,006	-0,002
-169,125	96,810	-0,053	-0,044
-168,110	295,292	0,022	-0,030
-167,096	800,000	0,023	-0,046
-166,081	-168,188	0,096	-0,003
-165,066	800,000	-0,051	-0,154
-164,052	-200,000	0,030	-0,105
-163,037	-200,000	-0,001	0,006
-162,023	282,236	0,107	0,138
-161,008	-114,724	0,107	0,015
-159,993	800,000	-0,047	0,105
-158,979	331,681	0,036	0,051
-157,964	-200,000	-0,007	-0,080
-156,950	800,000	-0,029	-0,064
-155,935	-127,996	-0,155	0,016
-154,920	800,000	-0,031	0,064
-153,906	-200,000	-0,006	0,057
-152,891	-83,981	-0,110	-0,025
-151,877	246,837	-0,057	0,069
-150,862	307,599	-0,069	0,093
-149,847	-200,000	0,017	-0,067
-148,833	-200,000	-0,002	0,131
-147,818	246,537	-0,027	0,033
-146,804	-200,000	-0,011	0,088
-145,789	-200,000	0,020	0,113
-144,775	-200,000	-0,015	0,065
-143,760	800,000	-0,057	-0,147
-142,745	427,775	-0,062	-0,097
-141,731	-200,000	0,024	-0,139
-140,716	422,135	-0,056	-0,087
-139,702	-127,172	0,078	-0,008
-138,687	536,142	0,044	-0,076
-137,672	-106,424	0,037	-0,006
-136,658	41,363	-0,070	-0,045
-135,643	-18,212	-0,125	-0,056
-134,629	295,405	0,029	0,038
-133,614	249,871	0,050	0,061
-132,599	342,313	0,055	0,077
-131,585	-103,241	0,092	0,016
-130,570	6,239	-0,046	-0,025
-129,556	96,434	-0,092	-0,076
-128,541	83,880	-0,050	0,039
-127,526	-200,000	-0,001	-0,013
-126,512	800,000	-0,006	0,016
-125,497	-11,837	0,025	-0,012
-124,483	-5,638	0,137	0,067
-123,468	-200,000	-0,031	0,161
-122,453	413,326	0,033	-0,051
-121,439	-200,000	0,000	0,049
-120,424	93,452	-0,100	0,081
-119,410	68,392	-0,024	0,017
-118,395	-200,000	-0,016	0,110
-117,380	-13,416	0,104	-0,049
-116,366	-35,005	0,088	0,034
-115,351	34,498	0,038	-0,024
-114,337	-71,637	-0,175	-0,047
-113,322	-200,000	0,022	0,084
-112,307	-53,661	-0,023	0,007
-111,293	-49,953	-0,125	-0,043
-110,278	176,649	0,064	0,067
-109,264	-138,082	0,051	0,004
-108,249	-68,164	-0,133	-0,037
-107,234	391,773	-0,068	-0,102
-106,220	-88,599	-0,083	0,018
-105,205	647,840	0,092	0,169
-104,191	104,077	0,098	-0,083
-103,176	252,764	0,070	0,086
-102,162	160,869	0,056	0,056
-101,147	-200,000	-0,032	0,109
-100,132	-200,000	-0,042	-0,163
-99,118	398,818	-0,097	-0,147
-98,103	-6,735	0,075	-0,037
-97,089	-80,733	0,063	-0,015
-96,074	800,000	0,039	0,083
-95,059	-30,421	-0,055	0,022
-94,045	-200,000	-0,033	0,145
-93,030	80,386	-0,096	0,074
-92,016	-200,000	-0,011	-0,126
-91,001	-200,000	-0,006	-0,045
-89,986	-39,474	0,164	-0,061
-88,972	-200,000	-0,016	0,099
-87,957	-91,185	0,022	0,004
-86,943	-93,677	-0,098	0,019
-85,928	35,285	0,054	0,034
-84,913	-189,381	-0,179	0,001
-83,899	151,689	-0,004	-0,004
-82,884	-80,705	-0,027	0,006
-81,870	59,141	0,021	0,015
-80,855	358,824	0,021	0,030
-79,840	-99,147	-0,024	0,004
-78,826	79,194	-0,137	-0,105
-77,811	-200,000	-0,005	-0,069
-76,797	76,848	-0,014	0,011
-75,782	433,732	0,025	0,040
-74,767	-99,404	0,162	0,029
-73,753	75,574	0,056	0,043
-72,738	-18,606	0,066	-0,030
-71,724	-50,607	-0,127	-0,043
-70,709	106,148	0,086	0,073
-69,694	-200,000	0,052	-0,214
-68,680	-32,004	0,100	0,040
-67,665	111,320	-0,089	0,077
-66,651	619,895	0,021	-0,039
-65,636	-168,931	0,142	-0,004
-64,622	800,000	-0,063	0,126
-63,607	394,656	0,045	-0,067
-62,592	292,496	-0,037	-0,048
-61,578	-101,280	-0,077	0,013
-60,563	-176,187	0,097	0,002
-59,549	-41,954	-0,076	-0,028
-58,534	33,367	-1,911	-1,189
-57,519	800,000	-0,243	-0,690
-56,505	-200,000	-1,101	-5,007
-55,490	5,342	0,990	0,522
-54,476	800,000	5,274	12,137
-53,461	-200,000	17,685	289,434
-52,446	800,000	724,783	2234,346
-51,432	540,360	1637,740	2809,813
-50,417	110,691	1628,366	1405,580
-49,403	74,238	1283,171	966,278
-48,388	31,989	1026,329	633,402
-47,373	19,913	988,521	570,277
-46,359	18,364	976,509	558,248
-45,344	15,679	972,640	547,233
-44,330	15,917	971,149	547,150
-43,315	15,457	969,524	544,710
-42,300	15,391	968,400	543,843
-41,286	15,385	967,432	543,259
-40,271	15,406	966,142	542,582
-39,257	15,489	965,441	542,435
-38,242	15,423	964,568	541,709
-37,227	15,386	963,868	541,175
-36,213	15,379	963,158	540,733
-35,198	15,427	962,124	540,285
-34,184	15,454	961,299	539,889
-33,169	15,334	960,452	539,003
-32,154	15,419	959,410	538,672
-31,140	15,442	958,447	538,184
-30,125	15,387	957,882	537,666
-29,111	15,413	957,053	537,264
-28,096	15,451	956,367	536,982
-27,082	15,477	955,685	536,661
-26,067	15,457	954,883	536,122
-25,052	15,445	954,023	535,583
-24,038	15,397	953,370	535,039
-23,023	15,373	952,941	534,702
-22,009	15,489	952,076	534,567
-20,994	15,425	951,612	534,080
-19,979	15,421	950,995	533,698
-18,965	15,412	950,338	533,281
-17,950	15,380	949,801	532,854
-16,936	15,367	949,107	532,402
-15,921	15,421	948,336	532,122
-14,906	15,298	947,718	531,363
-13,892	15,359	946,934	531,096
-12,877	15,348	946,532	530,814
-11,863	15,235	945,856	530,053
-10,848	15,237	945,347	529,754
-9,833	15,378	944,891	529,927
-8,819	15,293	944,392	529,354
-7,804	15,317	943,520	528,922
-6,790	15,311	942,963	528,568
-5,775	15,381	942,442	528,479
-4,760	15,336	941,741	527,923
-3,746	15,299	941,102	527,426
-2,731	15,184	940,366	526,630
-1,717	15,117	939,834	526,096
-0,702	15,145	939,243	525,835
0,313	14,996	938,403	525,688
1,327	18,548	936,421	535,715
2,342	27,833	790,543	476,733
3,356	24,481	444,708	263,192
4,371	-5,327	294,732	144,716
5,386	-9,324	276,553	131,997
6,400	-10,623	270,785	128,029
7,415	-10,812	268,350	126,693
8,429	-10,779	266,942	126,047
9,444	-10,852	266,159	125,599
10,459	-10,695	265,513	125,426
11,473	-10,991	264,886	124,850
12,488	-11,137	264,208	124,388
13,502	-11,102	263,788	124,211
14,517	-10,992	263,393	124,112
15,531	-11,039	262,957	123,854
16,546	-10,848	262,565	123,829
17,561	-11,146	262,214	123,386
18,575	-11,003	261,944	123,376
19,590	-10,964	261,504	123,193
20,604	-10,982	261,215	123,029
21,619	-11,346	260,928	122,558
22,634	-11,062	260,676	122,682
23,648	-11,156	260,240	122,382
24,663	-11,092	260,174	122,397
25,677	-11,248	259,728	122,037
26,692	-11,096	259,479	122,045
27,707	-11,009	259,194	121,977
28,721	-11,061	258,957	121,808
29,736	-10,971	258,606	121,712
30,750	-11,242	258,492	121,408
31,765	-11,252	258,232	121,266
32,780	-11,256	258,131	121,205
33,794	-11,109	257,668	121,106
34,809	-11,295	257,478	120,842
35,823	-11,185	257,025	120,716
36,838	-11,177	256,987	120,694
37,853	-11,178	256,694	120,545
38,867	-11,281	256,532	120,367
39,882	-11,262	256,301	120,265
40,896	-11,158	256,062	120,233
41,911	-11,291	255,917	120,038
42,926	-11,504	255,603	119,695
43,940	-11,181	255,432	119,885
44,955	-11,290	255,026	119,589
45,969	-11,594	254,960	119,283
46,984	-11,631	254,564	119,055
47,999	-11,840	254,247	118,715
49,013	-11,919	254,132	118,582
50,028	-11,881	253,758	118,430
51,042	-11,986	253,538	118,226
52,057	-12,152	253,485	118,047
53,071	-11,941	253,175	118,074
54,086	-11,934	253,006	117,991
55,101	-11,742	252,799	118,049
56,115	-11,482	252,769	118,249
57,130	-11,242	252,599	118,365
58,144	-10,938	252,439	118,542
59,159	-11,131	252,251	118,277
60,174	-10,957	251,985	118,292
61,188	-11,066	251,860	118,129
62,203	-11,070	251,559	117,973
63,217	-11,070	251,457	117,915
64,232	-10,867	251,009	117,868
65,247	-10,889	251,005	117,837
66,261	-11,123	250,884	117,570
67,276	-11,333	250,424	117,164
68,290	-11,513	250,187	116,889
69,305	-11,646	249,882	116,624
70,320	-11,543	249,810	116,667
71,334	-11,197	249,579	116,842
72,349	-10,973	249,529	116,999
73,363	-10,972	249,264	116,865
74,378	-10,880	249,145	116,877
75,393	-11,192	248,807	116,444
76,407	-11,222	248,589	116,306
77,422	-11,261	248,468	116,207
78,436	-11,118	248,139	116,163
79,451	-10,917	247,969	116,242
80,466	-11,332	247,880	115,840
81,480	-11,208	247,459	115,738
82,495	-11,279	247,249	115,569
83,509	-11,434	247,296	115,450
84,524	-11,203	246,871	115,435
85,539	-11,410	246,590	115,120
86,553	-11,355	246,302	115,022
87,568	-11,432	246,297	114,945
88,582	-11,450	246,026	114,793
89,597	-11,648	245,944	114,579
90,611	-11,346	245,830	114,768
91,626	-11,295	245,757	114,766
92,641	-11,093	245,495	114,803
93,655	-11,362	245,336	114,494
94,670	-11,443	245,054	114,284
95,684	-11,307	244,895	114,313
96,699	-11,280	244,669	114,220
97,714	-11,470	244,593	114,016
98,728	-11,549	244,197	113,756
99,743	-11,623	243,969	113,578
100,757	-11,629	243,826	113,497
101,772	-11,524	243,684	113,507
102,787	-11,595	243,663	113,428
103,801	-11,432	243,322	113,395
104,816	-11,419	243,196	113,337
105,830	-11,298	243,115	113,389
106,845	-11,195	242,865	113,347
107,860	-11,135	242,641	113,281
108,874	-11,319	242,397	113,006
109,889	-11,238	242,281	113,008
110,903	-11,239	242,047	112,888
111,918	-11,367	241,908	112,708
112,933	-11,228	241,913	112,814
113,947	-11,253	241,613	112,644
114,962	-11,232	241,454	112,577
115,976	-11,210	241,178	112,457
116,991	-11,341	241,090	112,299
118,006	-11,297	240,870	112,222
119,020	-11,271	240,772	112,187
120,035	-11,100	240,638	112,254
121,049	-11,105	240,616	112,230
122,064	-10,859	240,243	112,246
123,079	-11,149	240,052	111,912
124,093	-11,292	239,842	111,688
125,108	-11,506	239,452	111,322
126,122	-11,760	239,373	111,069
127,137	-11,822	239,093	110,880
128,151	-11,475	239,042	111,127
129,166	-11,490	238,729	110,959
130,181	-11,745	238,660	110,711
131,195	-11,800	238,458	110,563
132,210	-11,398	238,232	110,773
133,224	-11,301	238,162	110,808
134,239	-11,193	238,026	110,823
135,254	-11,058	237,810	110,821
136,268	-11,428	237,646	110,437
137,283	-11,509	237,273	110,189
138,297	-11,753	237,182	109,940
139,312	-11,810	236,984	109,793
140,327	-11,381	236,868	110,074
141,341	-10,902	236,923	110,473
142,356	-10,795	236,683	110,438
143,370	-10,832	236,604	110,361
144,385	-10,799	236,262	110,217
145,400	-10,720	236,218	110,251
146,414	-10,680	235,969	110,157
147,429	-10,871	235,831	109,930
148,443	-11,045	235,666	109,705
149,458	-10,953	235,590	109,733
150,473	-11,070	235,442	109,561
151,487	-10,977	235,167	109,497
152,502	-10,867	235,055	109,523
153,516	-10,945	234,961	109,407
154,531	-10,942	234,744	109,299
155,546	-10,955	234,472	109,152
156,560	-11,126	234,417	108,981
157,575	-11,129	234,144	108,842
158,589	-11,041	233,895	108,786
159,604	-10,826	233,819	108,911
160,619	-10,681	233,675	108,949
161,633	-10,887	233,719	108,797
162,648	-10,899	233,502	108,677
163,662	-10,775	233,151	108,601
164,677	-10,928	233,038	108,419
165,692	-10,880	233,027	108,441
166,706	-10,752	232,954	108,499
167,721	-10,730	232,688	108,383
168,735	-10,655	232,500	108,344
169,750	-10,834	232,288	108,095
170,764	-10,828	232,142	108,022
171,779	-10,906	231,953	107,863
172,794	-10,782	232,014	107,980
173,808	-11,007	231,647	107,623
174,823	-11,563	231,324	107,029
175,837	-11,681	231,146	106,845
176,852	-11,312	231,190	107,144
177,867	-11,016	231,109	107,328
178,881	-10,850	230,950	107,374
179,896	-10,873	230,820	107,286
180,910	-10,902	230,724	107,209
181,925	-10,766	230,534	107,217
182,940	-10,654	230,212	107,145
183,954	-10,669	230,084	107,064
184,969	-10,649	230,152	107,101
185,983	-10,547	229,889	107,049
186,998	-10,573	229,711	106,936
188,013	-10,594	229,546	106,834
189,027	-10,650	229,344	106,687
190,042	-10,781	229,297	106,554
191,056	-10,729	229,015	106,454
192,071	-10,780	228,956	106,377
193,086	-10,695	228,782	106,353
194,100	-10,850	228,563	106,122
195,115	-11,105	228,260	105,776
196,129	-11,191	228,386	105,758
197,144	-5,334	230,143	111,097
198,159	0,443	231,928	116,443
199,173	2,992	232,505	118,705
200,188	3,362	232,312	118,883
201,202	3,501	232,240	118,943
202,217	3,477	232,096	118,840
203,232	3,934	232,215	119,245
204,246	4,037	231,900	119,153
205,261	3,906	231,814	118,996
206,275	4,113	231,769	119,122
207,290	4,159	231,648	119,085
208,304	4,162	231,406	118,953
209,319	4,212	231,186	118,867
210,334	3,946	231,133	118,624
211,348	3,770	230,888	118,353
212,363	3,547	230,470	117,956
213,377	2,960	230,447	117,482
214,392	3,102	230,135	117,421
215,407	3,291	230,108	117,542
216,421	3,654	229,765	117,635
217,436	3,166	229,837	117,288
218,450	3,156	229,474	117,084
219,465	2,821	229,449	116,804
220,480	3,120	229,193	116,893
221,494	3,148	229,042	116,826
222,509	3,238	229,091	116,910
223,523	3,348	228,897	116,884
224,538	3,173	228,663	116,621
225,553	3,293	228,502	116,619
226,567	3,400	228,396	116,637
227,582	3,544	228,440	116,759
228,596	3,872	228,244	116,897
229,611	3,431	227,996	116,425
230,626	2,970	227,877	116,003
231,640	3,238	227,707	116,110
232,655	3,485	227,615	116,240
233,669	3,848	227,558	116,476
234,684	3,970	227,389	116,472
235,699	3,697	227,200	116,157
236,713	3,443	227,031	115,869
237,728	3,467	226,762	115,739
238,742	3,283	226,532	115,473
239,757	3,277	226,509	115,447
240,772	3,446	226,251	115,432
241,786	3,146	226,152	115,145
242,801	3,507	226,002	115,330
243,815	3,546	226,167	115,433
244,830	3,530	225,900	115,274
245,844	3,342	225,724	115,033
246,859	3,341	225,431	114,873
247,874	3,492	225,292	114,906
248,888	3,496	225,329	114,916
249,903	3,349	225,124	114,692
250,917	3,302	224,940	114,553
251,932	3,225	224,835	114,432
252,947	3,354	224,554	114,375
253,961	3,103	224,495	114,147
254,976	3,211	224,376	114,157
255,990	3,606	224,224	114,364
257,005	3,386	224,064	114,108
258,020	3,465	223,916	114,082
259,034	3,771	223,873	114,277
260,049	3,644	223,719	114,093
261,063	3,522	223,540	113,902
262,078	3,637	223,432	113,922
263,093	3,942	223,178	114,009
264,107	3,705	223,082	113,774
265,122	3,772	222,933	113,737
266,136	3,805	222,924	113,747
267,151	3,717	222,714	113,564
268,166	3,529	222,492	113,302
269,180	3,194	222,225	112,909
270,195	3,204	222,213	112,900
271,209	3,194	221,973	112,761
272,224	3,049	221,933	112,623
273,239	3,108	221,870	112,625
274,253	3,210	221,607	112,556
275,268	2,967	221,430	112,278
276,282	3,036	221,172	112,188
277,297	2,881	221,101	112,028
278,312	3,021	220,938	112,038
279,326	3,329	220,899	112,234
280,341	3,215	220,937	112,159
281,355	3,561	220,665	112,265
282,370	3,283	220,561	111,999
283,384	2,974	220,233	111,596
284,399	2,840	220,069	111,405
285,414	2,858	219,932	111,339
286,428	3,321	219,918	111,660
287,443	3,395	219,921	111,706
288,457	3,731	219,658	111,807
289,472	3,400	219,430	111,440
290,487	2,974	219,148	110,977
291,501	2,811	219,010	110,779
292,516	2,876	218,988	110,805
293,530	2,909	218,892	110,771
294,545	2,965	218,758	110,733
295,560	3,112	218,682	110,791
296,574	3,275	218,586	110,851
297,589	3,379	218,328	110,786
298,603	3,560	218,233	110,859
299,618	3,335	217,972	110,553
300,633	3,394	217,949	110,575
301,647	3,395	217,993	110,588
302,662	3,338	217,871	110,475
303,676	3,414	217,605	110,385
304,691	3,510	217,526	110,404
305,706	3,635	217,503	110,473
306,720	3,555	217,152	110,227
307,735	3,280	216,805	109,843
308,749	3,240	216,907	109,857
309,764	3,361	216,686	109,822
310,779	3,604	216,471	109,877
311,793	3,510	216,452	109,791
312,808	3,405	216,282	109,620
313,822	3,383	216,149	109,526
314,837	3,271	215,937	109,329
315,852	3,441	215,726	109,334
316,866	3,601	215,660	109,405
317,881	3,711	215,531	109,408
318,895	3,493	215,451	109,202
319,910	3,424	215,237	109,035
320,925	2,942	215,210	108,669
321,939	2,830	214,890	108,418
322,954	2,906	214,898	108,466
323,968	3,106	214,743	108,520
324,983	3,369	214,652	108,651
325,997	3,626	214,573	108,784
327,012	3,657	214,402	108,709
328,027	3,395	214,241	108,433
329,041	3,874	214,120	108,700
330,056	3,976	214,103	108,754
331,070	3,575	213,841	108,328
332,085	3,124	213,641	107,899
333,100	3,124	213,586	107,862
334,114	3,318	213,483	107,937
335,129	3,364	213,318	107,876
336,143	3,115	213,086	107,574
337,158	3,308	213,064	107,689
338,173	3,277	212,830	107,539
339,187	3,348	212,672	107,500
340,202	3,011	212,565	107,200
341,216	3,056	212,276	107,076
342,231	3,045	212,242	107,042
343,246	3,066	212,125	106,987
344,260	3,115	211,941	106,920
345,275	3,212	211,943	106,979
346,289	3,462	211,797	107,070
347,304	3,546	211,759	107,100
348,319	3,485	211,434	106,884
349,333	3,536	211,348	106,867
350,348	3,410	211,290	106,740
351,362	3,563	211,265	106,824
352,377	3,777	210,939	106,799
353,392	3,417	210,989	106,564
354,406	3,521	210,683	106,472
355,421	195,816	1340,408	1419,408
356,435	156,405	1478,026	1419,385
