DTS Sentinel unit serial number:	SN410029Multiplexer serial number:	ORYXHardware model number:	OX2-SRSoftware version number:	ORYX F/W v4,00 Oryx Data Collector v3.7.2.0data status	okinstallation	B6 Nyhavnadifferential loss correction	single-endedforward channel	channel 2reverse channel	N/Adate	2023/12/10time	11:25:08forward acquisition time	300,00reverse acquisition time	0,00gamma	499,1914k internal	0,3123k external	0,3123temperature offset calibration	1,0000default loss term (dB/km)	0,3820temperature slope calibration	1,0000multiplexer offset coefficient	1,0000multiplexer slope coefficient	1,0000fibre end	0,00T internal ref (°C)	22,66T ext. ref 1 (°C)	6,56T ext. ref 2 (°C)	6,56length (m)	temperature (°C)	Stokes	anti-Stokes-744,400	322,646	0,038	0,054
-743,385	92,233	-0,213	0,179
-742,371	83,051	-0,060	-0,049
-741,356	-100,234	-0,291	0,053
-740,342	291,007	-0,050	0,068
-739,327	-39,511	-0,263	0,102
-738,312	800,000	0,030	-0,063
-737,298	-72,102	-0,227	0,062
-736,283	300,538	0,104	-0,143
-735,269	236,937	-0,144	0,178
-734,254	800,000	0,042	-0,115
-733,239	-99,812	-0,484	-0,089
-732,225	21,025	0,066	0,040
-731,210	-200,000	-0,009	0,035
-730,196	134,407	-0,031	-0,030
-729,181	53,737	-0,048	-0,034
-728,167	-27,255	-0,120	0,052
-727,152	-200,000	-0,019	0,137
-726,137	112,041	0,132	-0,119
-725,123	-91,633	-0,129	-0,027
-724,108	-200,000	0,001	-0,100
-723,094	374,180	-0,115	-0,175
-722,079	-200,000	0,005	0,062
-721,064	-187,208	-0,082	0,001
-720,050	-200,000	-0,001	0,085
-719,035	-111,300	-0,140	0,021
-718,021	-86,905	-0,043	0,010
-717,006	197,942	0,008	0,010
-715,991	-200,000	-0,030	-0,116
-714,977	-75,780	-0,043	-0,011
-713,962	-109,147	-0,055	0,009
-712,948	-48,577	-0,088	0,031
-711,933	182,717	-0,092	-0,102
-710,918	272,182	-0,005	-0,006
-709,904	-78,678	-0,034	0,009
-708,889	800,000	0,051	-0,132
-707,875	-200,000	-0,003	-0,095
-706,860	-200,000	0,002	-0,114
-705,845	117,973	-0,120	0,110
-704,831	-80,637	0,022	0,005
-703,816	170,243	0,047	0,050
-702,802	-62,567	-0,232	0,071
-701,787	166,483	0,045	-0,047
-700,772	285,531	-0,060	-0,081
-699,758	140,534	0,076	-0,075
-698,743	-93,485	-0,126	0,026
-697,729	800,000	-0,015	0,036
-696,714	-200,000	0,001	-0,047
-695,699	361,859	-0,138	0,207
-694,685	-52,868	0,015	0,005
-693,670	-200,000	0,008	-0,150
-692,656	337,324	-0,072	0,104
-691,641	174,788	0,098	0,106
-690,627	106,461	0,049	-0,044
-689,612	800,000	0,028	0,067
-688,597	440,936	-0,039	-0,063
-687,583	2,404	-0,078	-0,042
-686,568	316,489	0,061	0,086
-685,554	-11,666	-0,035	0,017
-684,539	-88,511	0,087	-0,019
-683,524	-124,925	0,160	-0,018
-682,510	197,810	-0,105	0,120
-681,495	-122,649	-0,075	-0,009
-680,481	94,394	0,131	-0,111
-679,466	-200,000	-0,060	-0,252
-678,451	-200,000	0,007	-0,182
-677,437	162,421	-0,110	-0,115
-676,422	90,946	-0,084	-0,070
-675,408	800,000	0,014	-0,042
-674,393	-75,473	0,061	0,016
-673,378	-200,000	0,011	0,091
-672,364	-68,106	0,050	-0,014
-671,349	548,915	-0,012	-0,022
-670,335	454,239	-0,064	0,105
-669,320	34,145	0,146	0,094
-668,305	390,515	0,035	-0,054
-667,291	70,231	0,065	-0,050
-666,276	-149,456	0,005	0,000
-665,262	-200,000	-0,040	-0,131
-664,247	-200,000	0,020	-0,141
-663,232	309,634	0,032	-0,045
-662,218	800,000	0,008	-0,027
-661,203	-21,358	-0,040	-0,018
-660,189	-200,000	0,018	0,074
-659,174	-36,124	-0,122	0,049
-658,159	-116,883	-0,097	0,013
-657,145	-165,131	0,068	0,002
-656,130	-64,932	-0,045	0,013
-655,116	81,875	0,059	-0,048
-654,101	-105,293	0,088	0,015
-653,086	113,432	0,053	-0,047
-652,072	255,947	-0,126	0,161
-651,057	800,000	-0,038	0,092
-650,043	-200,000	0,003	-0,015
-649,028	25,482	0,032	-0,020
-648,014	-8,567	0,083	-0,041
-646,999	-152,810	0,072	-0,004
-645,984	38,112	-0,047	-0,031
-644,970	4,544	-0,073	0,040
-643,955	-55,951	-0,034	0,011
-642,941	-141,916	-0,029	-0,002
-641,926	-200,000	-0,000	0,032
-640,911	-145,670	-0,128	-0,008
-639,897	800,000	0,030	0,077
-638,882	-102,333	-0,033	0,006
-637,868	54,549	0,066	0,047
-636,853	-200,000	0,009	0,128
-635,838	800,000	-0,059	-0,141
-634,824	800,000	0,015	-0,031
-633,809	-200,000	-0,002	0,051
-632,795	143,294	-0,015	-0,015
-631,780	131,776	-0,070	-0,067
-630,765	-200,000	-0,012	0,063
-629,751	-200,000	0,023	-0,089
-628,736	20,513	-0,057	-0,034
-627,722	-22,110	-0,023	0,011
-626,707	131,781	0,075	0,072
-625,692	799,984	0,042	0,087
-624,678	136,785	-0,045	-0,043
-623,663	1,241	-0,091	0,048
-622,649	44,868	0,040	-0,027
-621,634	800,000	-0,021	0,067
-620,619	221,897	-0,074	0,089
-619,605	213,547	0,056	-0,065
-618,590	-200,000	-0,008	0,071
-617,576	-132,850	0,060	-0,006
-616,561	-51,917	0,039	0,013
-615,546	632,756	-0,083	-0,156
-614,532	-200,000	0,002	0,038
-613,517	-61,673	0,049	-0,015
-612,503	10,389	0,077	-0,043
-611,488	-135,574	0,029	0,003
-610,474	-80,672	0,149	-0,037
-609,459	-200,000	0,042	0,138
-608,444	-169,593	-0,136	0,004
-607,430	221,038	-0,139	-0,166
-606,415	-1,245	-0,100	-0,052
-605,401	-5,502	-0,113	0,057
-604,386	800,000	0,038	0,114
-603,371	-118,202	0,123	0,016
-602,357	-24,590	-0,066	-0,029
-601,342	55,126	0,021	-0,015
-600,328	-200,000	0,034	-0,138
-599,313	158,552	-0,069	0,071
-598,298	70,681	-0,038	-0,029
-597,284	-200,000	-0,012	0,118
-596,269	-200,000	0,040	0,131
-595,255	-200,000	-0,003	0,079
-594,240	61,678	-0,061	0,045
-593,225	-200,000	0,007	-0,186
-592,211	-200,000	-0,002	0,012
-591,196	46,572	0,064	-0,044
-590,182	38,226	0,089	-0,058
-589,167	-6,475	0,108	0,054
-588,152	13,550	0,045	-0,026
-587,138	-200,000	-0,002	0,053
-586,123	-200,000	0,023	-0,153
-585,109	-200,000	-0,002	0,058
-584,094	-162,180	-0,072	0,003
-583,079	-132,694	0,016	0,001
-582,065	-49,679	-0,067	-0,024
-581,050	-104,039	0,123	0,021
-580,036	13,432	-0,107	-0,062
-579,021	179,124	-0,143	-0,155
-578,006	800,000	-0,034	-0,081
-576,992	66,416	-0,055	-0,042
-575,977	-131,267	-0,041	-0,004
-574,963	-60,011	0,062	0,020
-573,948	551,266	-0,019	-0,034
-572,934	-200,000	0,010	0,032
-571,919	144,529	-0,171	-0,169
-570,904	337,809	0,019	0,027
-569,890	739,408	-0,044	0,088
-568,875	-66,902	-0,138	-0,040
-567,861	490,166	-0,018	0,030
-566,846	-200,000	0,006	-0,028
-565,831	794,332	0,028	-0,057
-564,817	-200,000	-0,021	-0,071
-563,802	132,281	-0,053	-0,051
-562,788	-200,000	0,008	-0,111
-561,773	-200,000	0,023	0,091
-560,758	-63,014	0,017	-0,005
-559,744	130,501	-0,086	-0,081
-558,729	-200,000	0,028	0,172
-557,715	-178,183	-0,078	0,001
-556,700	800,000	0,035	-0,087
-555,685	258,032	0,109	-0,140
-554,671	-200,000	-0,016	0,059
-553,656	-48,394	-0,175	-0,062
-552,642	-200,000	-0,011	-0,041
-551,627	-78,809	0,048	0,012
-550,612	-200,000	-0,015	-0,064
-549,598	-200,000	-0,014	-0,085
-548,583	160,327	0,030	-0,031
-547,569	-11,662	0,105	0,051
-546,554	-200,000	0,002	0,059
-545,539	424,480	0,097	0,155
-544,525	176,229	0,079	0,085
-543,510	267,380	-0,033	-0,043
-542,496	-27,053	-0,111	-0,048
-541,481	-95,361	-0,123	-0,024
-540,466	-133,143	-0,046	-0,004
-539,452	800,000	0,067	0,179
-538,437	-95,785	-0,164	0,032
-537,423	-200,000	0,004	-0,024
-536,408	800,000	0,053	-0,114
-535,393	-84,591	-0,031	-0,007
-534,379	800,000	0,006	-0,017
-533,364	-200,000	0,017	-0,063
-532,350	675,910	-0,063	0,121
-531,335	-200,000	0,020	0,074
-530,321	458,756	-0,041	0,067
-529,306	-184,636	-0,090	-0,001
-528,291	258,584	-0,089	-0,113
-527,277	-125,428	0,034	0,004
-526,262	288,930	0,031	-0,042
-525,248	318,954	0,034	0,048
-524,233	239,593	0,063	0,078
-523,218	-160,997	0,109	0,004
-522,204	800,000	0,019	0,044
-521,189	81,721	-0,021	0,017
-520,175	-148,194	-0,111	0,007
-519,160	-200,000	0,036	0,141
-518,145	-63,554	-0,056	-0,017
-517,131	-51,291	0,053	0,018
-516,116	37,394	0,027	0,017
-515,102	8,855	0,106	-0,059
-514,087	-200,000	-0,001	-0,127
-513,072	355,493	0,074	0,109
-512,058	800,000	0,026	0,068
-511,043	-175,749	-0,019	0,000
-510,029	-200,000	-0,016	0,129
-509,014	-200,000	0,002	0,100
-507,999	155,730	0,118	0,120
-506,985	-200,000	-0,001	-0,012
-505,970	375,618	-0,064	-0,097
-504,956	-200,000	0,010	-0,036
-503,941	-156,109	-0,030	0,001
-502,926	-155,830	0,163	-0,008
-501,912	645,128	-0,036	0,068
-500,897	573,954	0,078	0,142
-499,883	-140,410	-0,043	0,003
-498,868	20,832	-0,062	0,037
-497,853	-141,981	0,065	-0,005
-496,839	198,580	0,080	0,091
-495,824	66,449	0,135	0,101
-494,810	800,000	0,023	0,054
-493,795	-200,000	0,029	0,112
-492,781	800,000	0,034	0,100
-491,766	332,180	-0,052	0,074
-490,751	-53,683	-0,113	-0,038
-489,737	368,883	0,016	-0,025
-488,722	354,828	0,037	0,054
-487,708	-24,096	0,127	-0,056
-486,693	-25,066	0,028	-0,012
-485,678	-154,153	-0,096	0,005
-484,664	-200,000	0,043	-0,168
-483,649	507,057	0,073	-0,126
-482,635	69,068	0,031	-0,024
-481,620	-80,924	-0,128	-0,031
-480,605	202,971	0,060	-0,069
-479,591	576,406	0,036	0,064
-478,576	-200,000	0,006	0,067
-477,562	51,821	0,101	0,071
-476,547	-200,000	-0,005	-0,194
-475,532	0,334	0,088	-0,046
-474,518	52,856	0,014	0,010
-473,503	-41,884	-0,125	-0,047
-472,489	547,020	-0,023	0,041
-471,474	-200,000	-0,023	0,106
-470,459	665,139	-0,009	-0,017
-469,445	800,000	-0,053	0,113
-468,430	800,000	0,026	-0,074
-467,416	-40,177	-0,127	0,048
-466,401	-146,768	0,075	-0,005
-465,386	36,241	0,144	-0,093
-464,372	304,722	-0,092	-0,126
-463,357	4,474	-0,075	-0,041
-462,343	278,810	-0,086	-0,113
-461,328	800,000	-0,026	0,053
-460,313	-29,852	0,031	0,013
-459,299	-130,563	0,142	-0,014
-458,284	-82,088	0,092	0,022
-457,270	127,365	0,077	0,073
-456,255	-0,706	0,066	-0,035
-455,241	220,806	0,074	-0,088
-454,226	-200,000	-0,065	0,225
-453,211	-25,294	-0,064	0,028
-452,197	37,836	0,212	0,139
-451,182	103,055	0,107	0,093
-450,168	477,583	0,122	0,204
-449,153	-200,000	-0,023	-0,102
-448,138	800,000	-0,059	-0,133
-447,124	285,548	-0,006	-0,007
-446,109	-38,750	-0,124	0,048
-445,095	331,121	0,061	0,087
-444,080	-44,244	0,054	0,020
-443,065	-200,000	0,006	0,030
-442,051	-78,209	-0,094	-0,024
-441,036	36,049	0,064	-0,042
-440,022	121,807	-0,151	-0,139
-439,007	-82,673	-0,079	0,019
-437,992	-51,265	0,058	-0,020
-436,978	425,255	0,055	-0,087
-435,963	-58,261	0,075	0,024
-434,949	11,423	-0,054	-0,030
-433,934	125,040	0,043	0,040
-432,919	-200,000	0,015	-0,062
-431,905	800,000	-0,020	0,049
-430,890	630,015	0,056	-0,104
-429,876	800,000	-0,003	0,007
-428,861	210,019	0,081	0,094
-427,846	-200,000	-0,036	-0,123
-426,832	6,337	-0,128	0,070
-425,817	409,392	-0,030	-0,048
-424,803	700,708	-0,031	-0,061
-423,788	-200,000	0,007	0,076
-422,773	-22,337	-0,083	0,037
-421,759	-29,235	-0,004	-0,002
-420,744	800,000	0,023	-0,061
-419,730	309,052	-0,053	-0,073
-418,715	-15,453	-0,108	-0,051
-417,701	122,534	0,122	-0,112
-416,686	-200,000	0,044	0,161
-415,671	-65,515	0,097	0,028
-414,657	713,916	-0,057	-0,112
-413,642	800,000	0,012	-0,028
-412,628	75,812	-0,066	-0,052
-411,613	6,552	-0,092	-0,050
-410,598	-70,559	-0,061	-0,017
-409,584	-62,853	0,039	0,012
-408,569	229,597	0,032	0,039
-407,555	-200,000	-0,001	0,146
-406,540	800,000	0,053	0,113
-405,525	-66,151	0,037	-0,011
-404,511	-200,000	-0,016	0,055
-403,496	106,152	0,041	-0,036
-402,482	263,528	0,089	0,115
-401,467	-38,930	0,123	0,047
-400,452	13,208	0,092	0,052
-399,438	123,969	-0,045	0,042
-398,423	800,000	0,022	-0,048
-397,409	-200,000	0,009	0,051
-396,394	-28,893	-0,110	0,046
-395,379	172,744	0,162	0,172
-394,365	196,555	-0,145	0,162
-393,350	197,017	-0,102	-0,115
-392,336	-200,000	0,031	0,121
-391,321	219,934	0,034	-0,040
-390,306	36,649	-0,113	-0,073
-389,292	526,417	-0,044	-0,077
-388,277	800,000	0,032	-0,071
-387,263	-200,000	0,022	-0,107
-386,248	-94,867	-0,113	0,022
-385,233	800,000	0,030	-0,079
-384,219	-67,803	-0,138	-0,039
-383,204	-200,000	0,007	-0,066
-382,190	-200,000	0,002	-0,026
-381,175	800,000	-0,020	-0,062
-380,160	-200,000	-0,023	0,085
-379,146	800,000	0,009	-0,025
-378,131	73,688	-0,088	0,068
-377,117	-200,000	0,029	-0,103
-376,102	323,621	-0,060	-0,085
-375,088	225,455	-0,078	-0,093
-374,073	-200,000	-0,024	-0,124
-373,058	-200,000	-0,013	-0,098
-372,044	164,803	0,028	-0,030
-371,029	773,585	0,027	-0,055
-370,015	23,545	0,094	0,056
-369,000	-200,000	-0,002	-0,108
-367,985	-200,000	0,027	-0,169
-366,971	283,342	-0,087	-0,115
-365,956	13,827	0,101	0,057
-364,942	-21,285	0,076	0,034
-363,927	-21,991	0,066	0,030
-362,912	-200,000	0,018	0,140
-361,898	-107,407	-0,082	-0,013
-360,883	-48,789	-0,122	-0,043
-359,869	-129,574	-0,126	-0,013
-358,854	194,441	0,068	-0,076
-357,839	82,641	0,092	0,073
-356,825	176,842	-0,035	-0,037
-355,810	800,000	-0,023	-0,065
-354,796	91,621	-0,203	0,167
-353,781	-200,000	-0,006	-0,022
-352,766	273,714	0,029	0,037
-351,752	-200,000	-0,031	0,113
-350,737	213,933	0,107	-0,124
-349,723	-143,847	0,199	0,014
-348,708	-200,000	-0,012	0,223
-347,693	543,845	0,021	0,038
-346,679	-53,719	-0,069	0,023
-345,664	51,916	-0,044	-0,030
-344,650	800,000	0,018	0,049
-343,635	277,535	0,041	-0,054
-342,620	-200,000	0,018	0,067
-341,606	-200,000	-0,054	0,203
-340,591	-200,000	0,004	0,017
-339,577	-200,000	-0,004	0,027
-338,562	800,000	0,028	0,061
-337,548	-113,745	0,097	-0,014
-336,533	-0,306	0,092	-0,048
-335,518	70,329	0,079	-0,060
-334,504	-78,983	-0,077	-0,019
-333,489	-200,000	-0,004	-0,033
-332,475	54,953	0,100	0,071
-331,460	-93,751	0,004	0,001
-330,445	50,004	0,100	-0,069
-329,431	-185,037	0,111	0,001
-328,416	244,171	0,071	0,088
-327,402	233,406	0,012	-0,015
-326,387	-131,751	-0,145	0,014
-325,372	-96,609	-0,050	0,010
-324,358	-186,675	0,111	0,001
-323,343	-122,681	-0,137	-0,016
-322,329	-200,000	0,036	0,132
-321,314	222,386	-0,031	0,037
-320,299	23,386	0,062	0,037
-319,285	-82,150	0,197	0,047
-318,270	-125,187	-0,127	-0,014
-317,256	800,000	-0,021	0,053
-316,241	368,987	-0,059	-0,088
-315,226	410,324	-0,065	-0,101
-314,212	-178,892	0,064	-0,001
-313,197	-79,995	-0,012	-0,003
-312,183	641,388	-0,060	0,112
-311,168	-200,000	-0,002	-0,106
-310,153	-62,448	0,044	0,013
-309,139	-200,000	0,012	-0,045
-308,124	-200,000	-0,023	-0,108
-307,110	-200,000	-0,009	0,055
-306,095	-200,000	0,002	0,028
-305,080	221,743	-0,060	0,071
-304,066	-159,690	0,092	-0,004
-303,051	-107,308	-0,083	0,013
-302,037	300,468	0,021	-0,028
-301,022	-58,648	0,073	0,023
-300,008	600,445	0,065	0,119
-298,993	-200,000	0,014	-0,089
-297,978	-8,898	0,133	0,065
-296,964	362,194	0,062	-0,092
-295,949	800,000	-0,025	-0,063
-294,935	-70,755	-0,112	0,031
-293,920	800,000	0,015	0,031
-292,905	467,386	-0,050	-0,082
-291,891	60,213	-0,023	0,017
-290,876	96,867	0,144	0,121
-289,862	601,121	0,050	0,091
-288,847	-200,000	0,016	0,088
-287,832	452,851	0,022	-0,036
-286,818	800,000	0,015	0,047
-285,803	13,515	0,079	0,045
-284,789	325,032	0,018	0,025
-283,774	79,922	0,055	-0,043
-282,759	-200,000	0,025	0,089
-281,745	772,601	0,047	-0,095
-280,730	-200,000	0,031	-0,126
-279,716	800,000	0,050	-0,125
-278,701	-200,000	-0,003	0,012
-277,686	225,167	0,082	0,098
-276,672	-149,988	-0,053	0,003
-275,657	-42,127	-0,075	-0,028
-274,643	410,311	-0,069	-0,108
-273,628	-37,828	-0,125	-0,048
-272,613	269,423	0,042	-0,055
-271,599	136,033	-0,063	0,060
-270,584	-110,910	-0,030	-0,004
-269,570	80,560	-0,030	0,023
-268,555	196,694	0,111	0,124
-267,540	800,000	0,022	-0,061
-266,526	151,055	-0,049	0,049
-265,511	-95,062	-0,119	-0,023
-264,497	-19,398	-0,100	-0,045
-263,482	800,000	-0,029	0,093
-262,467	163,129	-0,049	-0,051
-261,453	800,000	-0,017	0,035
-260,438	673,908	0,082	-0,156
-259,424	376,223	-0,065	0,097
-258,409	-200,000	0,002	0,078
-257,395	116,962	0,076	0,068
-256,380	41,948	0,080	-0,053
-255,365	-200,000	-0,003	0,090
-254,351	800,000	-0,034	0,105
-253,336	251,036	-0,096	-0,120
-252,322	-65,565	-0,064	0,019
-251,307	-199,885	0,071	0,000
-250,292	126,595	-0,058	-0,054
-249,278	497,236	-0,028	0,048
-248,263	-119,979	0,117	0,015
-247,249	-94,799	-0,031	-0,006
-246,234	64,448	-0,021	0,016
-245,219	800,000	0,021	-0,052
-244,205	318,762	-0,072	-0,100
-243,190	-200,000	0,007	0,094
-242,176	4,259	-0,078	0,042
-241,161	35,376	-0,036	-0,023
-240,146	221,987	-0,116	-0,137
-239,132	800,000	0,027	-0,064
-238,117	-79,132	-0,024	0,006
-237,103	164,627	0,102	-0,106
-236,088	51,212	0,068	0,047
-235,073	-17,987	0,064	0,029
-234,059	-157,669	-0,052	-0,002
-233,044	-120,377	0,013	0,002
-232,030	-200,000	0,027	-0,143
-231,015	-47,048	-0,072	0,026
-230,000	84,146	0,095	-0,075
-228,986	-200,000	0,010	0,164
-227,971	24,595	-0,083	0,050
-226,957	800,000	0,027	0,084
-225,942	800,000	-0,044	0,102
-224,927	-86,887	0,046	-0,010
-223,913	-134,240	0,030	0,003
-222,898	437,882	-0,050	-0,079
-221,884	-51,110	0,075	-0,025
-220,869	-200,000	-0,016	0,155
-219,855	800,000	-0,049	-0,145
-218,840	139,490	-0,177	-0,170
-217,825	-188,176	0,173	-0,002
-216,811	-94,007	0,118	0,023
-215,796	-42,106	-0,056	0,021
-214,782	47,687	-0,041	-0,028
-213,767	-134,692	0,086	0,008
-212,752	-200,000	-0,000	0,019
-211,738	-47,383	0,101	0,036
-210,723	-125,638	-0,068	-0,007
-209,709	243,180	0,019	0,023
-208,694	800,000	-0,009	-0,018
-207,679	800,000	-0,048	-0,120
-206,665	-103,772	0,090	-0,015
-205,650	-200,000	0,035	0,149
-204,636	464,700	-0,049	0,080
-203,621	-200,000	-0,003	0,026
-202,606	-139,445	0,011	-0,001
-201,592	-154,375	-0,050	-0,002
-200,577	800,000	0,040	-0,113
-199,563	-95,756	-0,029	-0,006
-198,548	645,817	0,013	-0,025
-197,533	-150,147	-0,059	0,003
-196,519	800,000	-0,057	0,124
-195,504	-200,000	-0,021	0,162
-194,490	800,000	-0,011	0,027
-193,475	370,628	-0,040	0,059
-192,460	-200,000	-0,003	0,043
-191,446	-200,000	0,000	0,050
-190,431	-179,339	0,025	-0,000
-189,417	118,250	-0,030	-0,027
-188,402	62,025	-0,093	-0,067
-187,387	-200,000	0,012	0,214
-186,373	15,917	-0,067	-0,038
-185,358	-37,020	0,040	-0,016
-184,344	-200,000	-0,006	0,057
-183,329	-200,000	0,009	-0,039
-182,315	-200,000	-0,004	-0,059
-181,300	-200,000	0,004	-0,066
-180,285	-200,000	-0,004	0,039
-179,271	401,259	-0,101	-0,155
-178,256	-98,845	0,055	-0,010
-177,242	-22,403	-0,128	0,056
-176,227	223,231	-0,041	-0,048
-175,212	-74,945	0,073	-0,019
-174,198	800,000	-0,038	-0,088
-173,183	800,000	0,033	-0,069
-172,169	-165,741	-0,152	0,005
-171,154	-80,820	0,054	-0,013
-170,139	-154,888	-0,184	-0,009
-169,125	37,205	0,075	-0,048
-168,110	800,000	-0,050	0,154
-167,096	-200,000	-0,012	-0,076
-166,081	65,212	-0,065	0,048
-165,066	-91,474	0,080	-0,016
-164,052	800,000	-0,036	-0,081
-163,037	-200,000	0,005	-0,038
-162,023	39,735	-0,091	0,059
-161,008	-103,659	0,123	-0,021
-159,993	331,501	-0,017	0,025
-158,979	-84,667	0,039	0,009
-157,964	-200,000	0,042	-0,134
-156,950	800,000	0,070	-0,150
-155,935	38,971	0,163	-0,106
-154,920	-200,000	0,026	-0,109
-153,906	800,000	-0,037	-0,112
-152,891	-91,275	0,048	-0,010
-151,877	23,545	-0,105	0,063
-150,862	-200,000	0,034	-0,139
-149,847	-88,939	-0,090	-0,019
-148,833	437,491	0,079	-0,126
-147,818	-22,591	0,137	0,060
-146,804	-102,789	-0,053	0,009
-145,789	70,097	0,022	-0,016
-144,775	-14,547	0,078	-0,037
-143,760	-200,000	0,008	-0,153
-142,745	-200,000	0,006	-0,020
-141,731	-200,000	0,004	-0,059
-140,716	800,000	-0,024	-0,053
-139,702	-108,504	0,149	0,023
-138,687	113,008	0,079	0,070
-137,672	-18,307	-0,133	-0,060
-136,658	94,940	-0,038	0,031
-135,643	-19,927	0,124	-0,055
-134,629	-20,620	0,135	-0,060
-133,614	-150,447	0,015	-0,001
-132,599	150,653	0,114	0,113
-131,585	-98,738	0,136	-0,025
-130,570	-200,000	0,013	-0,051
-129,556	-71,474	0,072	0,020
-128,541	-200,000	0,015	-0,108
-127,526	-43,913	-0,073	-0,027
-126,512	-200,000	-0,015	-0,082
-125,497	315,226	0,017	0,024
-124,483	63,643	-0,060	-0,044
-123,468	-117,658	0,009	0,001
-122,453	-200,000	0,043	-0,180
-121,439	-200,000	0,003	-0,179
-120,424	-119,268	-0,082	0,010
-119,410	4,640	-0,143	-0,076
-118,395	-96,808	0,085	0,016
-117,380	65,102	-0,071	0,052
-116,366	65,715	-0,053	0,039
-115,351	126,374	-0,049	0,045
-114,337	800,000	-0,027	-0,056
-113,322	-93,192	0,038	-0,008
-112,307	-200,000	0,006	-0,056
-111,293	-36,670	0,062	0,024
-110,278	800,000	-0,021	0,063
-109,264	-200,000	0,003	-0,083
-108,249	-200,000	0,010	0,040
-107,234	328,513	0,078	0,109
-106,220	-200,000	-0,015	-0,085
-105,205	-200,000	0,011	0,089
-104,191	493,053	0,142	0,238
-103,176	277,530	0,110	0,143
-102,162	-70,293	-0,123	-0,034
-101,147	-79,272	0,112	-0,027
-100,132	-116,058	-0,083	0,011
-99,118	-174,416	-0,081	0,002
-98,103	-200,000	-0,001	-0,062
-97,089	367,341	0,043	0,063
-96,074	607,846	0,061	0,110
-95,059	-200,000	-0,007	0,023
-94,045	-8,149	-0,024	-0,012
-93,030	800,000	-0,037	0,094
-92,016	800,000	-0,044	-0,122
-91,001	-101,944	-0,098	0,017
-89,986	-66,246	0,061	0,018
-88,972	-30,218	0,138	0,057
-87,957	-86,796	0,053	-0,012
-86,943	236,288	-0,067	0,081
-85,928	-146,096	-0,049	-0,003
-84,913	-118,175	-0,189	0,024
-83,899	-87,533	0,053	0,012
-82,884	-69,078	-0,170	-0,047
-81,870	427,181	0,024	0,038
-80,855	-200,000	0,001	0,027
-79,840	-200,000	-0,025	-0,093
-78,826	104,506	-0,028	0,024
-77,811	800,000	-0,038	-0,078
-76,797	126,021	0,095	0,088
-75,782	105,167	-0,072	0,061
-74,767	70,937	0,060	0,045
-73,753	-133,023	0,046	0,004
-72,738	-200,000	0,005	-0,112
-71,724	-200,000	0,000	0,023
-70,709	-200,000	-0,010	-0,035
-69,694	800,000	0,043	-0,098
-68,680	436,025	-0,038	0,060
-67,665	-200,000	-0,012	0,050
-66,651	349,508	-0,029	-0,042
-65,636	-200,000	-0,006	-0,076
-64,622	541,306	-0,069	0,120
-63,607	2,087	0,202	-0,106
-62,592	-200,000	0,005	0,023
-61,578	-200,000	0,014	0,051
-60,563	-200,000	0,041	0,231
-59,549	298,878	-0,050	-0,067
-58,534	-105,660	-1,320	-0,215
-57,519	800,000	-0,640	-1,426
-56,505	-200,000	-0,937	-4,238
-55,490	114,024	0,591	-0,522
-54,476	800,000	5,012	11,965
-53,461	-200,000	13,469	253,051
-52,446	-200,000	688,442	2271,134
-51,432	598,186	1622,981	2931,561
-50,417	121,072	1636,828	1477,903
-49,403	73,649	1290,894	980,202
-48,388	38,511	1025,242	661,843
-47,373	24,672	982,643	588,821
-46,359	23,836	972,584	580,027
-45,344	22,937	968,358	574,543
-44,330	22,860	966,926	573,421
-43,315	22,712	965,522	572,080
-42,300	22,734	964,413	571,474
-41,286	22,671	963,493	570,701
-40,271	22,625	962,829	570,135
-39,257	22,706	961,566	569,627
-38,242	22,699	960,545	568,977
-37,227	22,676	959,801	568,439
-36,213	22,642	958,925	567,788
-35,198	22,636	958,097	567,254
-34,184	22,686	957,448	567,010
-33,169	22,609	956,528	566,193
-32,154	22,696	955,746	565,991
-31,140	22,649	954,817	565,266
-30,125	22,694	953,896	564,845
-29,111	22,722	953,290	564,553
-28,096	22,743	952,460	564,105
-27,082	22,650	951,838	563,417
-26,067	22,683	951,064	563,043
-25,052	22,628	950,472	562,492
-24,038	22,680	949,814	562,246
-23,023	22,663	949,087	561,741
-22,009	22,729	948,410	561,528
-20,994	22,710	947,794	561,082
-19,979	22,764	947,084	560,812
-18,965	22,733	946,462	560,322
-17,950	22,698	945,928	559,869
-16,936	22,693	945,162	559,378
-15,921	22,691	944,518	558,970
-14,906	22,606	943,735	558,214
-13,892	22,585	943,092	557,744
-12,877	22,546	942,603	557,309
-11,863	22,553	941,928	556,908
-10,848	22,534	941,588	556,625
-9,833	22,731	940,828	556,781
-8,819	22,691	940,288	556,312
-7,804	22,568	939,819	555,623
-6,790	22,581	939,161	555,251
-5,775	22,703	938,337	555,130
-4,760	22,613	937,731	554,463
-3,746	22,586	937,196	554,039
-2,731	22,384	936,727	553,103
-1,717	22,439	935,824	552,720
-0,702	22,371	935,111	552,063
0,313	22,217	934,517	552,059
1,327	25,392	932,449	560,777
2,342	35,082	797,057	505,180
3,356	33,341	451,876	283,754
4,371	2,203	293,634	153,355
5,386	-2,283	274,474	139,097
6,400	-3,825	268,802	134,781
7,415	-4,220	266,292	133,147
8,429	-3,993	264,998	132,696
9,444	-3,916	264,102	132,306
10,459	-4,092	263,524	131,844
11,473	-4,175	263,048	131,519
12,488	-4,263	262,427	131,117
13,502	-4,252	261,893	130,848
14,517	-4,253	261,374	130,577
15,531	-4,393	261,046	130,275
16,546	-4,198	260,675	130,254
17,561	-4,256	260,289	129,997
18,575	-4,038	259,981	130,026
19,590	-4,208	259,829	129,788
20,604	-4,262	259,529	129,578
21,619	-4,363	259,146	129,284
22,634	-4,065	258,605	129,269
23,648	-4,333	258,447	128,939
24,663	-4,363	258,228	128,792
25,677	-4,299	257,904	128,676
26,692	-4,278	257,635	128,548
27,707	-4,262	257,492	128,481
28,721	-4,275	257,170	128,296
29,736	-4,344	256,919	128,098
30,750	-4,341	256,773	128,017
31,765	-4,386	256,490	127,825
32,780	-4,477	256,253	127,615
33,794	-4,220	255,978	127,694
34,809	-4,408	255,848	127,452
35,823	-4,334	255,481	127,323
36,838	-4,471	255,337	127,119
37,853	-4,422	255,085	127,025
38,867	-4,527	254,870	126,815
39,882	-4,569	254,790	126,727
40,896	-4,434	254,402	126,641
41,911	-4,220	254,185	126,708
42,926	-4,435	253,841	126,338
43,940	-4,477	253,812	126,275
44,955	-4,490	253,511	126,103
45,969	-4,506	253,311	125,978
46,984	-4,525	252,845	125,719
47,999	-4,824	252,632	125,342
49,013	-5,042	252,646	125,148
50,028	-5,084	252,241	124,901
51,042	-5,123	251,952	124,712
52,057	-5,222	251,727	124,504
53,071	-5,159	251,548	124,458
54,086	-4,960	251,399	124,546
55,101	-4,843	251,295	124,585
56,115	-4,816	251,199	124,549
57,130	-4,386	251,082	124,851
58,144	-4,132	251,003	125,020
59,159	-4,082	250,747	124,924
60,174	-3,976	250,610	124,936
61,188	-4,140	250,232	124,595
62,203	-4,056	250,016	124,549
63,217	-4,220	249,896	124,338
64,232	-4,249	249,550	124,129
65,247	-4,190	249,388	124,088
66,261	-4,261	249,236	123,941
67,276	-4,443	249,074	123,693
68,290	-4,634	248,616	123,292
69,305	-4,757	248,405	123,071
70,320	-4,767	248,329	123,014
71,334	-4,408	248,049	123,171
72,349	-4,216	248,040	123,319
73,363	-4,131	247,829	123,274
74,378	-4,201	247,634	123,107
75,393	-4,200	247,446	123,004
76,407	-4,413	247,174	122,677
77,422	-4,331	247,130	122,714
78,436	-4,208	246,875	122,680
79,451	-4,321	246,687	122,480
80,466	-4,360	246,385	122,286
81,480	-4,561	246,143	121,986
82,495	-4,673	245,969	121,793
83,509	-4,627	245,871	121,773
84,524	-4,533	245,647	121,730
85,539	-4,555	245,330	121,544
86,553	-4,615	245,161	121,399
87,568	-4,487	244,941	121,386
88,582	-4,363	244,784	121,402
89,597	-4,674	244,678	121,078
90,611	-4,449	244,501	121,169
91,626	-4,317	244,381	121,208
92,641	-4,288	244,223	121,144
93,655	-4,357	244,002	120,965
94,670	-4,501	243,788	120,729
95,684	-4,435	243,710	120,734
96,699	-4,418	243,460	120,614
97,714	-4,481	243,153	120,399
98,728	-4,609	243,077	120,244
99,743	-4,818	242,755	119,900
100,757	-4,711	242,520	119,862
101,772	-4,553	242,274	119,861
102,787	-4,514	242,260	119,875
103,801	-4,472	242,064	119,802
104,816	-4,396	241,991	119,819
105,830	-4,320	241,716	119,734
106,845	-4,311	241,799	119,772
107,860	-4,156	241,466	119,725
108,874	-4,239	241,236	119,532
109,889	-4,453	241,048	119,251
110,903	-4,532	240,771	119,039
111,918	-4,542	240,625	118,948
112,933	-4,279	240,566	119,124
113,947	-4,427	240,352	118,886
114,962	-4,322	240,312	118,942
115,976	-4,416	239,983	118,691
116,991	-4,286	239,736	118,665
118,006	-4,369	239,610	118,524
119,020	-4,445	239,496	118,395
120,035	-4,306	239,609	118,554
121,049	-4,297	239,372	118,434
122,064	-4,343	239,101	118,251
123,079	-4,414	238,935	118,101
124,093	-4,534	238,617	117,835
125,108	-4,390	238,327	117,799
126,122	-4,813	238,188	117,376
127,137	-4,800	238,183	117,373
128,151	-4,636	237,910	117,361
129,166	-4,692	237,764	117,233
130,181	-4,556	237,420	117,164
131,195	-4,581	237,292	117,070
132,210	-4,672	237,152	116,917
133,224	-4,298	237,045	117,156
134,239	-4,579	237,073	116,932
135,254	-4,124	236,725	117,117
136,268	-4,375	236,462	116,775
137,283	-4,610	236,201	116,446
138,297	-4,802	236,141	116,251
139,312	-4,785	235,870	116,121
140,327	-4,348	235,809	116,432
141,341	-3,993	235,855	116,730
142,356	-4,169	235,771	116,536
143,370	-3,925	235,582	116,629
144,385	-3,964	235,396	116,495
145,400	-3,819	235,083	116,446
146,414	-4,171	235,048	116,136
147,429	-4,074	234,806	116,084
148,443	-4,047	234,736	116,060
149,458	-4,085	234,612	115,958
150,473	-4,123	234,378	115,802
151,487	-4,105	234,178	115,708
152,502	-4,021	233,926	115,639
153,516	-3,697	233,733	115,792
154,531	-3,808	233,573	115,614
155,546	-4,055	233,340	115,292
156,560	-3,988	233,299	115,315
157,575	-4,301	233,025	114,921
158,589	-4,318	232,961	114,865
159,604	-3,970	232,825	115,063
160,619	-3,737	232,693	115,172
161,633	-3,829	232,572	115,030
162,648	-3,959	232,453	114,858
163,662	-3,837	232,163	114,801
164,677	-4,160	232,067	114,488
165,692	-4,046	231,927	114,498
166,706	-3,939	231,735	114,478
167,721	-4,031	231,741	114,399
168,735	-3,893	231,560	114,408
169,750	-3,944	231,440	114,297
170,764	-4,013	231,130	114,080
171,779	-3,767	231,053	114,225
172,794	-4,006	231,019	114,011
173,808	-4,128	230,767	113,780
174,823	-4,411	230,294	113,315
175,837	-4,803	230,337	113,019
176,852	-4,299	230,071	113,272
177,867	-4,035	230,176	113,521
178,881	-4,062	230,030	113,418
179,896	-3,969	229,793	113,363
180,910	-3,951	229,661	113,303
181,925	-3,688	229,334	113,336
182,940	-3,890	229,323	113,163
183,954	-3,978	229,228	113,038
184,969	-3,724	229,046	113,136
185,983	-3,957	229,026	112,934
186,998	-3,773	228,729	112,921
188,013	-3,762	228,509	112,810
189,027	-3,799	228,431	112,733
190,042	-3,706	228,231	112,696
191,056	-3,686	228,081	112,628
192,071	-3,722	228,049	112,574
193,086	-3,750	227,844	112,441
194,100	-3,754	227,698	112,356
195,115	-4,109	227,429	111,939
196,129	-4,360	227,090	111,569
197,144	-1,237	228,171	114,506
198,159	2,333	229,331	117,849
199,173	4,070	229,617	119,333
200,188	4,182	229,435	119,314
201,202	4,228	229,277	119,257
202,217	4,404	229,200	119,343
203,232	4,737	229,004	119,487
204,246	4,867	228,758	119,448
205,261	4,672	228,808	119,313
206,275	5,029	228,704	119,524
207,290	5,013	228,424	119,354
208,304	4,984	228,219	119,214
209,319	4,969	228,119	119,140
210,334	4,780	227,949	118,895
211,348	4,904	227,682	118,841
212,363	4,381	227,386	118,275
213,377	4,106	227,345	118,032
214,392	3,975	227,157	117,823
215,407	3,974	227,005	117,734
216,421	4,240	226,886	117,865
217,436	4,084	226,895	117,740
218,450	3,766	226,450	117,256
219,465	3,848	226,256	117,207
220,480	3,810	226,262	117,170
221,494	3,792	226,099	117,062
222,509	4,116	225,992	117,243
223,523	4,170	225,742	117,144
224,538	4,108	225,504	116,963
225,553	3,855	225,569	116,794
226,567	4,162	225,466	116,963
227,582	4,549	225,350	117,186
228,596	4,358	225,265	116,987
229,611	4,145	225,087	116,722
230,626	3,837	224,782	116,321
231,640	3,755	224,682	116,197
232,655	4,347	224,558	116,570
233,669	4,586	224,563	116,742
234,684	4,808	224,398	116,814
235,699	4,464	224,152	116,416
236,713	4,288	223,961	116,174
237,728	4,252	223,620	115,960
238,742	3,935	223,512	115,655
239,757	4,200	223,357	115,763
240,772	4,097	223,215	115,602
241,786	3,895	223,218	115,442
242,801	4,280	223,063	115,640
243,815	4,346	223,036	115,665
244,830	4,617	222,890	115,782
245,844	4,354	222,652	115,451
246,859	4,115	222,496	115,182
247,874	4,136	222,347	115,110
248,888	4,533	222,273	115,357
249,903	4,310	222,097	115,090
250,917	4,074	221,904	114,804
251,932	3,974	221,753	114,641
252,947	3,866	221,619	114,481
253,961	4,031	221,442	114,502
254,976	3,917	221,307	114,337
255,990	4,098	221,210	114,411
257,005	4,392	221,111	114,568
258,020	4,342	221,014	114,471
259,034	4,309	220,906	114,380
260,049	4,326	220,662	114,256
261,063	4,298	220,409	114,094
262,078	4,375	220,463	114,169
263,093	4,441	220,421	114,186
264,107	4,351	220,115	113,950
265,122	4,356	220,063	113,917
266,136	4,472	219,879	113,897
267,151	4,299	219,805	113,721
268,166	4,136	219,545	113,456
269,180	3,986	219,317	113,218
270,195	4,067	219,130	113,171
271,209	3,994	219,042	113,062
272,224	3,988	218,914	112,981
273,239	4,233	218,867	113,127
274,253	4,250	218,529	112,955
275,268	3,700	218,374	112,462
276,282	3,791	218,315	112,487
277,297	3,880	218,123	112,444
278,312	4,107	217,947	112,510
279,326	3,994	217,860	112,372
280,341	3,931	217,813	112,292
281,355	4,104	217,665	112,331
282,370	4,011	217,501	112,169
283,384	3,872	217,242	111,924
284,399	3,803	217,125	111,803
285,414	3,765	217,029	111,716
286,428	4,100	216,876	111,872
287,443	4,034	216,870	111,810
288,457	4,148	216,797	111,845
289,472	4,153	216,474	111,672
290,487	3,760	216,103	111,186
291,501	3,649	216,180	111,136
292,516	3,659	216,041	111,062
293,530	3,693	215,957	111,034
294,545	3,863	215,723	111,026
295,560	3,849	215,578	110,931
296,574	3,932	215,543	110,963
297,589	3,902	215,319	110,817
298,603	4,238	215,319	111,048
299,618	4,170	215,181	110,918
300,633	3,890	215,113	110,672
301,647	4,147	215,014	110,797
302,662	4,346	214,904	110,872
303,676	4,289	214,690	110,711
304,691	4,274	214,537	110,612
305,706	4,353	214,470	110,624
306,720	4,307	214,304	110,496
307,735	4,057	214,067	110,185
308,749	4,122	213,738	110,052
309,764	4,074	213,737	110,007
310,779	4,261	213,706	110,115
311,793	4,461	213,395	110,087
312,808	3,986	213,531	109,809
313,822	4,192	213,171	109,761
314,837	3,937	213,200	109,585
315,852	3,880	212,956	109,409
316,866	4,040	212,854	109,460
317,881	4,318	212,654	109,545
318,895	4,282	212,605	109,485
319,910	3,879	212,453	109,110
320,925	3,971	212,201	109,036
321,939	3,504	211,973	108,579
322,954	3,680	211,920	108,667
323,968	4,093	211,884	108,931
324,983	4,094	211,810	108,883
325,997	4,424	211,728	109,065
327,012	4,224	211,409	108,750
328,027	4,182	211,306	108,657
329,041	4,318	211,424	108,805
330,056	4,508	211,197	108,812
331,070	4,151	210,952	108,425
332,085	3,784	210,757	108,057
333,100	3,825	210,766	108,081
334,114	4,120	210,516	108,150
335,129	3,948	210,339	107,929
336,143	4,109	210,053	107,885
337,158	3,884	210,098	107,741
338,173	4,134	209,927	107,819
339,187	3,762	209,781	107,474
340,202	3,494	209,721	107,246
341,216	3,448	209,491	107,087
342,231	3,981	209,315	107,359
343,246	3,683	209,327	107,148
344,260	4,047	209,082	107,267
345,275	3,744	209,130	107,070
346,289	3,968	209,046	107,174
347,304	4,110	208,780	107,127
348,319	4,015	208,637	106,978
349,333	4,065	208,494	106,930
350,348	4,054	208,444	106,887
351,362	4,392	208,197	106,985
352,377	4,410	208,261	107,021
353,392	4,082	208,017	106,659
354,406	3,933	207,824	106,448
355,421	194,096	1347,798	1437,014
356,435	154,846	1486,800	1437,140
