DTS Sentinel unit serial number:	SN410029Multiplexer serial number:	ORYXHardware model number:	OX2-SRSoftware version number:	ORYX F/W v4,00 Oryx Data Collector v3.7.2.0data status	okinstallation	B6 Nyhavnadifferential loss correction	single-endedforward channel	channel 2reverse channel	N/Adate	2023/12/08time	20:30:08forward acquisition time	300,00reverse acquisition time	0,00gamma	499,1914k internal	0,3158k external	0,3158temperature offset calibration	1,0000default loss term (dB/km)	0,3820temperature slope calibration	1,0000multiplexer offset coefficient	1,0000multiplexer slope coefficient	1,0000fibre end	0,00T internal ref (°C)	15,19T ext. ref 1 (°C)	-1,38T ext. ref 2 (°C)	-1,37length (m)	temperature (°C)	Stokes	anti-Stokes-744,400	122,451	0,135	-0,125
-743,385	-101,168	-0,174	0,031
-742,371	6,348	0,087	-0,047
-741,356	-150,173	-0,214	-0,012
-740,342	-131,327	0,170	0,016
-739,327	-119,920	-0,336	-0,042
-738,312	-200,000	-0,006	-0,184
-737,298	-85,438	-0,366	0,083
-736,283	40,240	0,107	0,071
-735,269	78,894	-0,155	0,122
-734,254	-179,782	0,137	0,002
-733,239	-22,512	-0,466	-0,207
-732,225	146,085	0,177	0,175
-731,210	584,372	-0,051	0,093
-730,196	-63,262	-0,086	-0,026
-729,181	800,000	-0,014	-0,044
-728,167	489,854	-0,017	-0,029
-727,152	-65,144	-0,039	-0,012
-726,137	-200,000	-0,001	-0,145
-725,123	92,903	-0,115	0,096
-724,108	217,929	-0,036	0,042
-723,094	-26,781	-0,069	0,030
-722,079	-14,181	-0,016	-0,008
-721,064	800,000	-0,021	0,055
-720,050	-72,357	-0,028	-0,008
-719,035	-62,477	0,079	0,024
-718,021	295,421	-0,068	0,092
-717,006	19,769	-0,086	0,051
-715,991	-6,429	-0,105	0,053
-714,977	223,844	-0,039	0,046
-713,962	800,000	-0,016	-0,034
-712,948	-200,000	0,012	0,120
-711,933	-19,339	-0,104	0,047
-710,918	-200,000	0,008	0,029
-709,904	593,521	-0,024	0,044
-708,889	344,295	0,038	-0,055
-707,875	-76,543	-0,083	-0,021
-706,860	-33,419	0,093	-0,038
-705,845	221,951	0,089	0,106
-704,831	393,021	0,044	-0,068
-703,816	340,758	0,049	0,071
-702,802	600,559	-0,108	-0,197
-701,787	-200,000	0,007	0,045
-700,772	-200,000	0,012	0,047
-699,758	800,000	-0,040	-0,097
-698,743	800,000	0,022	0,058
-697,729	-200,000	-0,012	-0,063
-696,714	-200,000	0,027	0,122
-695,699	69,752	-0,080	-0,061
-694,685	-200,000	0,002	-0,141
-693,670	-71,722	-0,166	-0,045
-692,656	-200,000	0,001	0,108
-691,641	-46,790	0,051	0,018
-690,627	-200,000	0,017	0,087
-689,612	800,000	-0,038	0,116
-688,597	80,616	0,015	-0,012
-687,583	-9,238	-0,033	-0,016
-686,568	5,895	-0,095	0,052
-685,554	-47,779	-0,092	0,033
-684,539	-51,033	0,154	0,053
-683,524	411,399	-0,073	0,114
-682,510	-156,287	0,101	-0,005
-681,495	-52,565	-0,105	-0,036
-680,481	-200,000	0,008	-0,085
-679,466	-200,000	0,001	0,096
-678,451	-75,773	0,057	0,015
-677,437	335,652	0,042	0,059
-676,422	662,498	0,006	-0,011
-675,408	187,753	-0,069	-0,076
-674,393	-105,992	0,035	0,006
-673,378	44,813	-0,207	-0,140
-672,364	800,000	-0,041	0,085
-671,349	-112,371	-0,123	0,018
-670,335	100,439	0,109	-0,093
-669,320	800,000	-0,031	-0,080
-668,305	-158,189	0,119	0,005
-667,291	-62,394	-0,009	0,003
-666,276	-200,000	0,009	-0,100
-665,262	159,539	-0,112	-0,114
-664,247	357,879	-0,030	0,044
-663,232	665,052	-0,042	0,080
-662,218	159,575	0,102	0,105
-661,203	40,110	0,118	-0,078
-660,189	-2,264	0,044	-0,023
-659,174	-77,840	-0,123	-0,031
-658,159	188,178	-0,020	-0,022
-657,145	219,616	-0,056	0,066
-656,130	800,000	0,015	-0,035
-655,116	181,861	-0,054	-0,059
-654,101	-183,698	0,083	0,001
-653,086	-19,994	-0,034	0,015
-652,072	27,340	0,047	0,029
-651,057	800,000	-0,024	-0,067
-650,043	-78,130	-0,112	0,028
-649,028	-200,000	0,000	0,016
-648,014	800,000	0,054	0,142
-646,999	-200,000	0,003	0,031
-645,984	-200,000	-0,007	-0,029
-644,970	13,872	0,039	-0,022
-643,955	178,045	-0,033	-0,036
-642,941	163,102	-0,088	-0,091
-641,926	-200,000	0,001	-0,077
-640,911	417,690	0,078	-0,123
-639,897	-31,853	0,066	0,027
-638,882	204,756	-0,022	0,025
-637,868	-200,000	0,033	-0,235
-636,853	-200,000	0,014	-0,252
-635,838	579,743	0,038	-0,068
-634,824	66,308	-0,052	-0,039
-633,809	142,985	-0,041	0,040
-632,795	-200,000	-0,008	-0,086
-631,780	-4,567	0,040	0,020
-630,765	-69,039	-0,074	0,021
-629,751	800,000	-0,049	-0,105
-628,736	106,512	-0,119	-0,104
-627,722	142,302	-0,083	-0,081
-626,707	-56,439	0,062	-0,020
-625,692	-200,000	-0,010	0,094
-624,678	-88,828	0,127	-0,027
-623,663	-200,000	-0,000	-0,170
-622,649	-134,827	0,029	-0,003
-621,634	-200,000	-0,001	-0,072
-620,619	17,571	-0,107	0,062
-619,605	-200,000	-0,011	-0,041
-618,590	129,907	-0,045	-0,042
-617,576	-200,000	-0,082	0,274
-616,561	185,417	0,012	-0,013
-615,546	-107,275	-0,150	-0,024
-614,532	-101,633	-0,130	-0,023
-613,517	-97,940	-0,066	-0,012
-612,503	114,766	0,071	0,064
-611,488	-19,559	0,073	-0,033
-610,474	-120,393	0,095	0,012
-609,459	-200,000	-0,012	-0,051
-608,444	-50,040	0,046	0,016
-607,430	60,022	-0,062	0,045
-606,415	-36,633	0,023	0,009
-605,401	-200,000	-0,003	-0,041
-604,386	-200,000	0,015	0,074
-603,371	-27,097	0,091	0,039
-602,357	-28,938	-0,078	-0,033
-601,342	800,000	-0,041	-0,128
-600,328	65,947	-0,010	-0,008
-599,313	306,072	0,073	-0,099
-598,298	504,789	0,062	0,106
-597,284	-62,074	0,093	0,028
-596,269	129,778	0,037	-0,034
-595,255	-128,175	-0,065	0,007
-594,240	451,361	0,040	0,066
-593,225	800,000	0,045	-0,112
-592,211	-189,231	0,099	0,001
-591,196	-200,000	0,012	0,060
-590,182	57,415	-0,058	0,042
-589,167	262,344	0,034	-0,044
-588,152	800,000	-0,019	0,042
-587,138	-200,000	-0,019	0,130
-586,123	800,000	0,043	-0,102
-585,109	602,604	-0,064	-0,118
-584,094	-200,000	-0,017	-0,058
-583,079	-134,638	-0,098	-0,009
-582,065	62,385	-0,102	0,075
-581,050	259,006	0,155	0,197
-580,036	104,310	-0,059	0,051
-579,021	752,781	0,002	0,005
-578,006	-112,620	-0,057	-0,008
-576,992	168,007	0,059	0,061
-575,977	800,000	0,004	0,009
-574,963	489,347	0,039	0,066
-573,948	-46,750	0,120	-0,043
-572,934	-89,343	0,041	-0,009
-571,919	217,606	0,041	-0,048
-570,904	-121,846	-0,082	-0,010
-569,890	19,357	-0,029	-0,017
-568,875	40,434	0,142	-0,094
-567,861	180,166	0,096	0,103
-566,846	251,381	-0,020	0,025
-565,831	-200,000	0,010	-0,099
-564,817	-70,578	-0,087	-0,024
-563,802	-5,680	0,061	0,030
-562,788	-174,938	-0,061	0,001
-561,773	-63,088	0,137	0,041
-560,758	616,913	-0,047	0,086
-559,744	204,567	-0,073	0,084
-558,729	314,994	-0,023	-0,032
-557,715	523,919	0,069	0,119
-556,700	1,395	-0,090	-0,047
-555,685	700,082	0,021	-0,040
-554,671	21,417	-0,185	0,110
-553,656	800,000	0,043	-0,131
-552,642	-43,974	0,146	0,053
-551,627	262,404	-0,046	-0,059
-550,612	-60,442	-0,054	-0,017
-549,598	-200,000	0,019	-0,130
-548,583	-200,000	0,002	-0,021
-547,569	-80,154	-0,069	-0,017
-546,554	-200,000	-0,002	-0,026
-545,539	194,499	0,108	0,120
-544,525	800,000	-0,024	0,063
-543,510	-5,950	0,075	-0,038
-542,496	-200,000	-0,003	-0,025
-541,481	709,020	-0,038	-0,073
-540,466	402,224	-0,062	-0,096
-539,452	-35,191	-0,028	0,011
-538,437	-114,753	0,076	0,011
-537,423	751,724	0,048	0,095
-536,408	800,000	0,126	0,268
-535,393	-0,173	-0,055	-0,028
-534,379	-40,990	-0,082	-0,031
-533,364	800,000	-0,065	0,163
-532,350	-81,634	0,125	-0,030
-531,335	-97,557	0,098	-0,018
-530,321	-5,724	-0,099	0,049
-529,306	238,595	-0,053	0,064
-528,291	39,168	0,061	0,040
-527,277	-200,000	-0,014	-0,046
-526,262	249,879	0,078	-0,097
-525,248	250,531	0,038	0,047
-524,233	158,043	0,050	0,051
-523,218	-200,000	0,016	-0,080
-522,204	379,493	-0,073	-0,110
-521,189	158,280	0,058	-0,059
-520,175	-200,000	0,000	-0,070
-519,160	800,000	0,009	0,024
-518,145	37,881	-0,051	0,033
-517,131	31,440	0,054	-0,034
-516,116	537,930	-0,049	0,086
-515,102	-200,000	0,046	0,151
-514,087	-200,000	0,038	0,269
-513,072	-90,753	-0,139	0,029
-512,058	-84,390	-0,080	0,018
-511,043	376,065	-0,028	0,042
-510,029	770,195	0,035	0,070
-509,014	-7,502	0,116	-0,057
-507,999	-139,804	-0,044	0,003
-506,985	40,188	-0,103	-0,068
-505,970	-171,376	-0,152	-0,004
-504,956	-146,879	-0,102	0,006
-503,941	123,388	0,095	-0,087
-502,926	51,909	0,081	0,056
-501,912	83,594	0,135	0,107
-500,897	-95,426	0,057	-0,011
-499,883	-65,132	-0,189	0,055
-498,868	362,528	0,076	-0,111
-497,853	-101,042	-0,090	0,016
-496,839	3,517	-0,028	0,015
-495,824	-127,521	0,149	0,016
-494,810	136,122	-0,094	0,090
-493,795	-200,000	-0,064	0,000
-492,781	800,000	-0,046	-0,109
-491,766	-139,272	-0,111	0,009
-490,751	-106,958	0,064	0,010
-489,737	41,941	-0,040	0,026
-488,722	800,000	-0,076	0,176
-487,708	-118,435	0,161	-0,021
-486,693	117,904	-0,038	-0,034
-485,678	-200,000	0,003	-0,043
-484,664	95,644	-0,029	-0,024
-483,649	187,899	0,038	-0,041
-482,635	49,512	0,088	-0,060
-481,620	243,695	0,122	-0,150
-480,605	-43,407	0,084	-0,031
-479,591	15,633	-0,175	-0,100
-478,576	106,604	-0,045	-0,039
-477,562	413,040	-0,027	0,042
-476,547	-153,119	-0,144	-0,007
-475,532	-166,616	-0,063	0,002
-474,518	5,122	-0,072	-0,039
-473,503	-65,325	0,078	0,023
-472,489	-138,737	0,077	0,006
-471,474	-200,000	-0,004	-0,042
-470,459	319,045	-0,019	0,026
-469,445	136,945	-0,018	0,017
-468,430	709,160	-0,013	0,025
-467,416	-169,168	-0,063	0,002
-466,401	-200,000	0,001	-0,078
-465,386	-31,061	-0,047	-0,019
-464,372	169,977	-0,032	0,034
-463,357	283,820	-0,045	-0,058
-462,343	-144,899	0,085	0,006
-461,328	68,895	-0,072	0,054
-460,313	55,590	0,092	-0,065
-459,299	97,527	0,150	-0,125
-458,284	-11,695	0,025	-0,012
-457,270	-16,721	0,020	0,009
-456,255	800,000	-0,015	-0,047
-455,241	-98,976	-0,097	0,018
-454,226	6,050	-0,179	-0,097
-453,211	-18,099	0,018	0,008
-452,197	-200,000	0,000	-0,082
-451,182	-200,000	0,004	-0,039
-450,168	27,789	-0,016	-0,010
-449,153	-88,190	-0,138	-0,030
-448,138	9,039	-0,110	0,060
-447,124	800,000	-0,047	-0,112
-446,109	-67,011	-0,079	0,023
-445,095	-200,000	0,010	-0,167
-444,080	-67,327	0,119	0,034
-443,065	-200,000	0,001	0,182
-442,051	183,431	0,032	-0,034
-441,036	92,783	-0,077	-0,063
-440,022	-200,000	0,024	-0,163
-439,007	-200,000	-0,022	-0,109
-437,992	101,790	-0,159	0,135
-436,978	-25,169	0,080	-0,034
-435,963	-119,107	-0,107	0,013
-434,949	-164,666	0,199	0,006
-433,934	800,000	-0,026	0,058
-432,919	477,172	-0,093	-0,153
-431,905	-36,594	-0,160	0,062
-430,890	800,000	-0,030	0,084
-429,876	-116,384	0,121	0,016
-428,861	409,799	-0,052	0,080
-427,846	775,531	-0,044	-0,088
-426,832	-200,000	-0,016	-0,058
-425,817	86,074	-0,136	0,109
-424,803	-200,000	-0,003	-0,044
-423,788	482,262	0,040	-0,066
-422,773	-48,334	0,188	-0,066
-421,759	-200,000	-0,009	0,076
-420,744	133,607	0,090	0,085
-419,730	-200,000	-0,015	0,077
-418,715	-124,485	0,086	-0,010
-417,701	-66,784	0,127	0,036
-416,686	-200,000	0,029	0,103
-415,671	-69,101	-0,115	0,032
-414,657	-77,049	0,076	0,019
-413,642	467,391	-0,025	0,041
-412,628	-200,000	-0,001	0,083
-411,613	-149,298	-0,068	0,004
-410,598	-76,748	0,142	0,036
-409,584	45,196	-0,126	0,085
-408,569	-200,000	-0,010	0,042
-407,555	227,570	-0,072	0,086
-406,540	162,150	-0,075	0,076
-405,525	146,099	0,070	-0,068
-404,511	-200,000	-0,017	-0,157
-403,496	32,384	0,091	-0,057
-402,482	800,000	0,046	0,121
-401,467	295,720	-0,056	0,075
-400,452	-200,000	0,004	-0,040
-399,438	278,353	0,064	-0,083
-398,423	-200,000	0,000	0,096
-397,409	277,352	0,056	-0,073
-396,394	-96,283	-0,027	0,005
-395,379	-82,879	0,078	-0,018
-394,365	54,796	0,094	0,066
-393,350	65,893	0,103	0,076
-392,336	-31,772	-0,090	-0,036
-391,321	800,000	-0,010	-0,026
-390,306	-12,995	0,146	-0,069
-389,292	293,742	-0,100	-0,134
-388,277	-164,100	-0,064	-0,002
-387,263	438,990	0,066	0,105
-386,248	464,051	0,011	-0,019
-385,233	-156,910	-0,041	0,002
-384,219	159,479	0,067	-0,068
-383,204	1,964	-0,120	-0,063
-382,190	-28,271	0,166	-0,069
-381,175	-200,000	-0,015	-0,163
-380,160	800,000	-0,014	-0,037
-379,146	214,232	-0,084	-0,097
-378,131	549,042	-0,055	0,097
-377,117	-200,000	-0,035	-0,119
-376,102	22,256	-0,035	-0,020
-375,088	94,221	0,047	-0,039
-374,073	141,270	-0,044	-0,043
-373,058	-114,839	-0,153	-0,021
-372,044	-55,621	-0,130	0,042
-371,029	89,659	0,114	0,092
-370,015	441,365	-0,034	0,054
-369,000	-200,000	-0,017	0,094
-367,985	800,000	-0,061	-0,147
-366,971	-200,000	-0,010	0,050
-365,956	398,887	0,051	-0,078
-364,942	-33,806	0,103	-0,041
-363,927	-126,231	0,042	-0,004
-362,912	-49,460	-0,136	0,047
-361,898	-98,130	-0,122	0,023
-360,883	169,949	-0,111	-0,115
-359,869	-200,000	0,044	-0,253
-358,854	205,590	0,111	0,126
-357,839	800,000	0,028	0,064
-356,825	-200,000	0,038	0,142
-355,810	222,561	-0,039	0,046
-354,796	675,294	-0,074	-0,141
-353,781	34,520	-0,065	0,041
-352,766	-143,165	-0,090	-0,006
-351,752	274,053	0,061	0,079
-350,737	-120,779	0,083	-0,010
-349,723	168,040	-0,086	0,089
-348,708	-200,000	0,017	0,104
-347,693	-121,145	-0,111	0,013
-346,679	58,329	0,041	0,029
-345,664	-200,000	-0,029	-0,093
-344,650	768,587	-0,068	0,135
-343,635	22,602	0,019	-0,011
-342,620	493,688	0,033	0,054
-341,606	453,392	-0,087	-0,140
-340,591	800,000	0,033	0,070
-339,577	-80,229	0,174	0,042
-338,562	405,961	0,036	0,055
-337,548	75,967	0,114	0,087
-336,533	-14,498	0,060	-0,028
-335,518	-14,940	-0,046	0,022
-334,504	-18,943	0,095	0,043
-333,489	224,658	0,033	-0,039
-332,475	77,513	-0,064	0,049
-331,460	-200,000	0,022	0,093
-330,445	-10,426	0,031	0,015
-329,431	5,615	0,151	-0,081
-328,416	-158,886	0,034	0,001
-327,402	-200,000	-0,028	0,108
-326,387	289,244	-0,086	-0,113
-325,372	349,189	-0,060	0,087
-324,358	183,518	-0,077	-0,083
-323,343	-51,698	-0,013	0,004
-322,329	424,971	0,090	0,140
-321,314	800,000	0,049	0,111
-320,299	204,325	0,009	0,010
-319,285	34,843	-0,140	0,088
-318,270	-200,000	-0,012	0,098
-317,256	244,161	-0,091	-0,111
-316,241	-120,293	0,150	-0,018
-315,226	113,934	0,087	0,077
-314,212	504,823	0,069	0,116
-313,197	331,164	0,034	0,048
-312,183	125,999	0,082	0,075
-311,168	179,350	-0,058	0,061
-310,153	-62,326	0,074	0,022
-309,139	72,440	-0,032	-0,024
-308,124	-57,064	0,065	-0,021
-307,110	-163,944	0,050	0,002
-306,095	-163,781	0,051	0,002
-305,080	800,000	0,044	-0,108
-304,066	-200,000	-0,011	-0,042
-303,051	345,608	-0,045	-0,065
-302,037	-200,000	0,015	-0,101
-301,022	800,000	-0,025	0,078
-300,008	-162,248	0,133	0,005
-298,993	-200,000	-0,002	0,194
-297,978	800,000	0,054	0,131
-296,964	-114,963	0,076	0,010
-295,949	-200,000	-0,005	-0,025
-294,935	109,653	-0,030	0,026
-293,920	-200,000	0,045	-0,177
-292,905	70,293	-0,069	0,051
-291,891	96,664	0,100	0,083
-290,876	800,000	0,019	0,058
-289,862	800,000	-0,058	0,124
-288,847	-200,000	-0,016	0,055
-287,832	-8,187	0,007	-0,003
-286,818	628,754	0,022	0,040
-285,803	-26,387	0,071	0,030
-284,789	619,856	0,045	0,083
-283,774	-149,279	-0,073	-0,004
-282,759	247,941	-0,045	-0,055
-281,745	222,657	-0,035	0,041
-280,730	257,062	0,096	-0,119
-279,716	-1,822	-0,076	-0,038
-278,701	-200,000	-0,015	-0,112
-277,686	640,771	0,031	0,058
-276,672	-200,000	-0,003	0,153
-275,657	-102,602	-0,076	-0,013
-274,643	48,147	0,047	-0,032
-273,628	204,928	0,105	-0,118
-272,613	-200,000	-0,018	-0,062
-271,599	800,000	-0,026	0,068
-270,584	800,000	0,009	0,025
-269,570	109,707	-0,094	0,081
-268,555	800,000	-0,017	-0,045
-267,540	94,253	-0,184	-0,151
-266,526	-200,000	-0,008	-0,045
-265,511	-103,830	-0,106	-0,018
-264,497	-49,265	-0,016	-0,006
-263,482	-18,919	0,207	0,093
-262,467	800,000	0,044	0,100
-261,453	232,653	-0,031	0,036
-260,438	-88,692	0,041	-0,009
-259,424	-69,045	-0,065	0,018
-258,409	-58,919	-0,173	-0,054
-257,395	-200,000	-0,006	-0,023
-256,380	94,462	0,101	0,083
-255,365	-200,000	-0,012	0,154
-254,351	44,078	0,108	-0,071
-253,336	22,466	-0,064	-0,038
-252,322	-60,942	0,109	-0,033
-251,307	361,966	0,103	0,150
-250,292	-200,000	-0,006	0,050
-249,278	-200,000	-0,007	-0,038
-248,263	-200,000	-0,003	0,094
-247,249	-63,747	0,088	0,026
-246,234	89,177	0,114	0,092
-245,219	108,953	-0,076	-0,066
-244,205	-200,000	-0,009	-0,121
-243,190	685,286	-0,050	-0,095
-242,176	41,446	0,112	0,073
-241,161	800,000	-0,045	0,091
-240,146	-103,904	0,181	-0,030
-239,132	-200,000	0,014	0,049
-238,117	-75,009	0,037	-0,010
-237,103	35,305	0,097	0,061
-236,088	-200,000	-0,005	-0,056
-235,073	5,235	0,065	-0,034
-234,059	266,363	-0,069	0,088
-233,044	134,985	0,076	-0,072
-232,030	202,989	-0,077	-0,086
-231,015	207,092	-0,046	-0,052
-230,000	800,000	0,014	0,038
-228,986	259,271	-0,080	-0,100
-227,971	-138,346	0,205	0,016
-226,957	774,144	0,019	-0,038
-225,942	800,000	-0,057	0,123
-224,927	-200,000	-0,008	0,081
-223,913	800,000	-0,046	-0,101
-222,898	-64,187	0,104	0,030
-221,884	443,639	-0,059	-0,094
-220,869	-200,000	-0,014	0,104
-219,855	-131,445	-0,059	-0,006
-218,840	-24,678	-0,053	0,023
-217,825	45,308	-0,121	0,081
-216,811	-200,000	0,002	-0,080
-215,796	-200,000	0,010	0,071
-214,782	217,511	0,045	0,052
-213,767	571,420	0,044	0,078
-212,752	-200,000	0,003	-0,109
-211,738	57,480	0,066	-0,046
-210,723	-1,772	0,049	0,025
-209,709	721,417	0,060	-0,116
-208,694	302,363	-0,060	0,080
-207,679	-200,000	-0,005	-0,092
-206,665	185,772	-0,069	0,074
-205,650	311,543	0,034	-0,046
-204,636	800,000	-0,023	-0,062
-203,621	596,317	0,051	0,091
-202,606	-79,434	-0,125	0,030
-201,592	-200,000	-0,019	-0,060
-200,577	222,693	0,050	-0,058
-199,563	62,470	0,031	0,022
-198,548	367,027	0,073	-0,107
-197,533	-72,477	0,160	0,042
-196,519	630,407	0,020	-0,036
-195,504	-28,074	0,016	-0,007
-194,490	44,785	-0,153	-0,102
-193,475	-160,622	-0,030	-0,001
-192,460	-200,000	-0,035	0,143
-191,446	-200,000	-0,004	-0,088
-190,431	-200,000	-0,040	-0,153
-189,417	252,698	0,083	0,102
-188,402	-200,000	0,029	0,136
-187,387	56,048	-0,096	-0,067
-186,373	-200,000	0,012	-0,101
-185,358	-200,000	0,043	-0,171
-184,344	-200,000	0,036	0,205
-183,329	-200,000	-0,013	0,199
-182,315	800,000	-0,036	-0,112
-181,300	-40,557	0,183	-0,068
-180,285	-200,000	0,017	-0,161
-179,271	-27,526	-0,180	-0,075
-178,256	413,766	-0,039	-0,060
-177,242	-200,000	0,010	-0,067
-176,227	365,826	0,108	-0,157
-175,212	-136,025	-0,064	0,005
-174,198	2,428	-0,138	-0,072
-173,183	-170,165	-0,157	0,004
-172,169	142,905	-0,071	0,068
-171,154	-200,000	0,006	0,078
-170,139	-175,351	0,127	0,002
-169,125	-76,706	0,098	0,025
-168,110	-28,239	-0,068	-0,028
-167,096	30,030	-0,106	0,065
-166,081	-117,148	0,065	-0,008
-165,066	111,640	-0,097	-0,085
-164,052	68,059	0,122	0,090
-163,037	30,603	-0,151	0,093
-162,023	-200,000	0,003	0,065
-161,008	143,563	0,088	-0,084
-159,993	800,000	0,018	0,050
-158,979	-73,716	-0,107	-0,028
-157,964	286,207	0,023	0,030
-156,950	-200,000	-0,031	0,140
-155,935	700,613	0,042	-0,079
-154,920	41,913	-0,077	-0,050
-153,906	-119,726	-0,041	-0,005
-152,891	415,649	0,039	-0,060
-151,877	-200,000	0,004	-0,124
-150,862	-200,000	0,004	-0,066
-149,847	451,269	-0,071	0,113
-148,833	800,000	-0,053	0,124
-147,818	-141,149	0,079	-0,006
-146,804	-4,428	0,124	-0,062
-145,789	48,081	0,079	0,053
-144,775	368,479	-0,107	-0,157
-143,760	275,837	-0,140	-0,179
-142,745	-200,000	-0,004	-0,174
-141,731	-30,948	-0,082	0,033
-140,716	154,135	-0,045	0,044
-139,702	438,858	0,027	-0,042
-138,687	800,000	0,068	0,169
-137,672	400,760	0,060	0,090
-136,658	224,331	-0,105	0,122
-135,643	-200,000	-0,012	0,116
-134,629	-200,000	0,043	-0,206
-133,614	-200,000	-0,025	0,136
-132,599	724,480	-0,011	-0,022
-131,585	-200,000	-0,009	0,079
-130,570	53,143	0,005	-0,004
-129,556	35,355	0,007	0,005
-128,541	-69,019	-0,160	-0,044
-127,526	130,679	0,097	-0,090
-126,512	-200,000	-0,014	-0,095
-125,497	-200,000	0,026	0,099
-124,483	-85,011	0,085	-0,019
-123,468	212,337	0,014	-0,016
-122,453	800,000	-0,012	-0,033
-121,439	40,025	-0,026	-0,017
-120,424	322,129	0,101	-0,138
-119,410	-200,000	-0,005	-0,038
-118,395	-200,000	-0,002	-0,073
-117,380	326,768	0,114	0,158
-116,366	800,000	-0,044	0,104
-115,351	-200,000	-0,020	0,121
-114,337	-3,966	-0,057	-0,028
-113,322	-200,000	0,006	0,020
-112,307	-144,389	0,039	-0,003
-111,293	800,000	-0,052	0,119
-110,278	-31,838	0,125	-0,050
-109,264	-200,000	-0,029	-0,145
-108,249	139,483	-0,013	-0,013
-107,234	-11,239	0,058	-0,027
-106,220	-43,764	0,106	0,038
-105,205	-62,089	0,093	0,028
-104,191	671,901	0,079	-0,147
-103,176	478,878	0,011	0,018
-102,162	-200,000	-0,022	-0,108
-101,147	800,000	0,050	-0,103
-100,132	-200,000	-0,063	-0,201
-99,118	-200,000	0,010	-0,061
-98,103	-69,097	-0,067	0,018
-97,089	-115,404	-0,034	0,005
-96,074	579,324	0,067	-0,118
-95,059	-23,958	0,113	0,048
-94,045	-200,000	0,001	-0,045
-93,030	800,000	-0,032	0,087
-92,016	743,944	-0,036	0,069
-91,001	645,935	-0,060	-0,111
-89,986	-31,951	0,164	0,066
-88,972	172,096	0,091	-0,095
-87,957	272,987	0,071	-0,091
-86,943	135,700	0,077	0,072
-85,928	727,606	-0,021	0,040
-84,913	207,551	-0,056	0,063
-83,899	-200,000	0,012	-0,089
-82,884	-119,095	0,153	-0,019
-81,870	800,000	-0,079	-0,180
-80,855	-60,966	-0,139	0,042
-79,840	281,000	-0,077	0,099
-78,826	-200,000	0,015	0,096
-77,811	-46,791	-0,141	-0,049
-76,797	-47,308	-0,085	-0,030
-75,782	-28,560	0,123	-0,051
-74,767	-98,884	0,134	0,024
-73,753	353,203	-0,060	-0,085
-72,738	800,000	-0,027	-0,070
-71,724	800,000	-0,052	-0,111
-70,709	-200,000	-0,012	-0,065
-69,694	800,000	0,019	0,044
-68,680	-200,000	0,011	-0,038
-67,665	-102,954	-0,251	-0,042
-66,651	176,711	0,118	0,123
-65,636	-87,939	-0,178	0,038
-64,622	-200,000	-0,001	0,063
-63,607	800,000	0,043	0,131
-62,592	800,000	0,015	-0,048
-61,578	58,109	-0,067	0,047
-60,563	145,327	0,128	0,123
-59,549	-200,000	-0,037	0,161
-58,534	12,441	-2,143	-1,183
-57,519	-200,000	-0,108	-0,803
-56,505	-200,000	-1,339	-4,928
-55,490	120,668	0,730	0,651
-54,476	800,000	5,342	11,946
-53,461	-200,000	17,807	290,153
-52,446	800,000	726,866	2229,208
-51,432	536,070	1639,691	2803,504
-50,417	109,477	1629,256	1400,295
-49,403	73,134	1283,310	961,788
-48,388	31,480	1026,168	631,457
-47,373	19,882	988,212	569,888
-46,359	18,271	976,185	557,653
-45,344	15,542	972,464	546,585
-44,330	15,715	970,915	546,256
-43,315	15,279	969,008	543,741
-42,300	15,176	968,127	542,890
-41,286	15,234	967,081	542,470
-40,271	15,217	965,968	541,767
-39,257	15,236	964,979	541,252
-38,242	15,192	964,347	540,734
-37,227	15,205	963,534	540,298
-36,213	15,216	962,711	539,853
-35,198	15,235	961,701	539,325
-34,184	15,232	961,022	538,915
-33,169	15,194	959,991	538,193
-32,154	15,259	959,013	537,831
-31,140	15,216	958,207	537,220
-30,125	15,242	957,584	536,932
-29,111	15,228	956,553	536,289
-28,096	15,216	956,126	535,989
-27,082	15,220	955,513	535,636
-26,067	15,226	954,625	535,137
-25,052	15,237	953,819	534,700
-24,038	15,186	953,187	534,159
-23,023	15,160	952,502	533,671
-22,009	15,271	951,750	533,585
-20,994	15,215	951,354	533,162
-19,979	15,215	950,733	532,794
-18,965	15,218	950,003	532,372
-17,950	15,224	949,329	531,995
-16,936	15,177	948,816	531,533
-15,921	15,213	948,071	531,212
-14,906	15,167	947,280	530,599
-13,892	15,136	946,763	530,190
-12,877	15,114	946,038	529,694
-11,863	15,082	945,367	529,196
-10,848	15,088	944,999	528,988
-9,833	15,304	944,287	529,254
-8,819	15,167	943,883	528,572
-7,804	15,080	943,293	527,945
-6,790	15,094	942,823	527,704
-5,775	15,163	942,154	527,527
-4,760	15,149	941,330	527,002
-3,746	15,091	940,950	526,585
-2,731	14,987	940,189	525,807
-1,717	14,952	939,383	525,227
-0,702	14,932	938,838	524,837
0,313	14,826	938,025	524,842
1,327	18,198	936,061	534,307
2,342	27,329	789,838	474,896
3,356	23,799	444,906	262,248
4,371	-5,691	295,743	144,819
5,386	-9,513	277,390	132,193
6,400	-10,942	271,734	128,157
7,415	-11,131	269,344	126,844
8,429	-11,170	267,888	126,111
9,444	-11,169	267,198	125,776
10,459	-11,068	266,399	125,481
11,473	-11,225	265,790	125,040
12,488	-11,244	265,249	124,757
13,502	-11,310	264,788	124,469
14,517	-11,305	264,343	124,254
15,531	-11,263	263,924	124,084
16,546	-10,989	263,492	124,116
17,561	-11,178	263,157	123,777
18,575	-11,088	262,954	123,752
19,590	-11,298	262,516	123,346
20,604	-11,241	262,370	123,318
21,619	-11,219	261,983	123,145
22,634	-11,199	261,483	122,916
23,648	-11,331	261,400	122,749
24,663	-11,081	260,984	122,765
25,677	-11,406	260,876	122,413
26,692	-11,241	260,570	122,406
27,707	-11,272	260,198	122,192
28,721	-11,396	259,954	121,958
29,736	-11,424	259,712	121,808
30,750	-11,246	259,409	121,812
31,765	-11,378	259,083	121,532
32,780	-11,484	258,945	121,363
33,794	-11,367	258,711	121,346
34,809	-11,386	258,483	121,211
35,823	-11,399	258,279	121,093
36,838	-11,488	257,944	120,847
37,853	-11,346	257,725	120,859
38,867	-11,415	257,509	120,685
39,882	-11,454	257,363	120,572
40,896	-11,389	257,131	120,510
41,911	-11,468	256,901	120,322
42,926	-11,388	256,520	120,203
43,940	-11,558	256,452	120,012
44,955	-11,600	256,220	119,855
45,969	-11,374	255,842	119,865
46,984	-11,776	255,588	119,385
47,999	-12,107	255,320	118,961
49,013	-11,972	255,116	118,972
50,028	-12,295	254,907	118,584
51,042	-12,308	254,623	118,430
52,057	-12,361	254,464	118,299
53,071	-12,311	254,157	118,189
54,086	-12,032	253,886	118,294
55,101	-11,938	253,869	118,357
56,115	-11,761	253,683	118,413
57,130	-11,223	253,538	118,800
58,144	-11,227	253,422	118,731
59,159	-11,099	253,263	118,757
60,174	-11,111	253,002	118,614
61,188	-11,321	252,824	118,339
62,203	-11,177	252,599	118,347
63,217	-11,289	252,337	118,117
64,232	-11,429	252,250	117,946
65,247	-11,197	251,994	118,015
66,261	-11,332	251,868	117,829
67,276	-11,675	251,502	117,353
68,290	-11,666	251,177	117,199
69,305	-11,913	251,022	116,905
70,320	-11,861	250,781	116,827
71,334	-11,535	250,547	116,986
72,349	-11,170	250,501	117,265
73,363	-11,209	250,408	117,178
74,378	-11,105	250,159	117,140
75,393	-11,282	249,947	116,879
76,407	-11,441	249,781	116,656
77,422	-11,206	249,464	116,697
78,436	-11,124	249,193	116,630
79,451	-11,330	249,080	116,391
80,466	-11,467	248,823	116,145
81,480	-11,467	248,530	115,998
82,495	-11,540	248,398	115,865
83,509	-11,474	248,191	115,813
84,524	-11,567	247,823	115,553
85,539	-11,949	247,694	115,160
86,553	-11,899	247,707	115,198
87,568	-11,700	247,448	115,235
88,582	-11,611	247,301	115,231
89,597	-11,860	247,149	114,941
90,611	-11,450	246,880	115,150
91,626	-11,467	246,758	115,069
92,641	-11,546	246,600	114,918
93,655	-11,583	246,296	114,735
94,670	-11,192	246,008	114,918
95,684	-11,502	245,856	114,577
96,699	-11,318	245,706	114,651
97,714	-11,438	245,506	114,447
98,728	-11,698	245,367	114,156
99,743	-11,850	245,222	113,951
100,757	-11,828	244,707	113,720
101,772	-11,702	244,734	113,827
102,787	-11,629	244,528	113,782
103,801	-11,710	244,436	113,661
104,816	-11,521	244,328	113,758
105,830	-11,332	244,098	113,798
106,845	-11,178	243,802	113,777
107,860	-11,444	243,758	113,526
108,874	-11,563	243,497	113,296
109,889	-11,555	243,235	113,171
110,903	-11,562	243,085	113,085
111,918	-11,435	242,805	113,049
112,933	-11,423	242,719	113,009
113,947	-11,361	242,479	112,938
114,962	-11,304	242,325	112,903
115,976	-11,093	242,066	112,946
116,991	-11,400	242,108	112,704
118,006	-11,374	241,905	112,620
119,020	-11,412	241,939	112,595
120,035	-11,357	241,745	112,539
121,049	-11,188	241,351	112,484
122,064	-11,124	241,121	112,419
123,079	-11,324	241,048	112,212
124,093	-11,571	240,815	111,892
125,108	-11,743	240,506	111,598
126,122	-11,907	240,337	111,376
127,137	-11,864	240,066	111,275
128,151	-11,936	240,026	111,189
129,166	-11,640	239,859	111,342
130,181	-11,900	239,718	111,055
131,195	-11,843	239,438	110,962
132,210	-11,784	239,348	110,958
133,224	-11,443	239,200	111,156
134,239	-11,397	239,039	111,108
135,254	-11,491	238,885	110,950
136,268	-11,619	238,548	110,681
137,283	-11,829	238,311	110,392
138,297	-11,963	238,091	110,172
139,312	-11,832	237,929	110,193
140,327	-11,674	237,938	110,314
141,341	-10,997	237,893	110,829
142,356	-11,104	237,808	110,693
143,370	-11,124	237,561	110,552
144,385	-11,040	237,429	110,548
145,400	-11,044	237,350	110,498
146,414	-11,114	237,174	110,350
147,429	-11,038	236,839	110,246
148,443	-11,076	236,710	110,145
149,458	-10,968	236,422	110,088
150,473	-11,148	236,408	109,928
151,487	-11,209	236,102	109,727
152,502	-11,072	236,010	109,783
153,516	-11,011	235,883	109,763
154,531	-11,027	235,600	109,609
155,546	-11,258	235,602	109,416
156,560	-11,322	235,424	109,273
157,575	-11,239	235,093	109,176
158,589	-11,228	234,826	109,050
159,604	-11,018	234,735	109,165
160,619	-10,985	234,637	109,136
161,633	-10,990	234,485	109,052
162,648	-10,786	234,397	109,163
163,662	-11,151	234,218	108,781
164,677	-11,382	234,134	108,549
165,692	-11,022	233,916	108,723
166,706	-11,120	233,849	108,605
167,721	-10,926	233,606	108,635
168,735	-10,796	233,508	108,682
169,750	-10,931	233,312	108,475
170,764	-10,964	233,117	108,348
171,779	-10,821	232,843	108,324
172,794	-11,056	232,845	108,131
173,808	-10,993	232,520	108,020
174,823	-11,794	232,386	107,320
175,837	-11,941	232,233	107,124
176,852	-11,453	232,069	107,421
177,867	-11,273	232,060	107,549
178,881	-11,188	231,838	107,502
179,896	-10,844	231,780	107,735
180,910	-10,986	231,474	107,472
181,925	-11,013	231,296	107,359
182,940	-11,207	231,254	107,178
183,954	-10,998	231,005	107,216
184,969	-11,023	230,995	107,183
185,983	-11,017	230,851	107,110
186,998	-10,699	230,731	107,293
188,013	-10,831	230,424	107,038
189,027	-11,085	230,341	106,793
190,042	-10,805	230,128	106,902
191,056	-10,887	230,018	106,777
192,071	-10,993	229,768	106,570
193,086	-10,981	229,741	106,557
194,100	-10,750	229,361	106,550
195,115	-11,290	229,109	106,007
196,129	-11,565	229,223	105,838
197,144	-5,794	231,121	111,192
198,159	0,282	232,838	116,752
199,173	2,850	233,441	119,049
200,188	3,243	233,273	119,259
201,202	3,246	233,270	119,250
202,217	3,478	233,163	119,365
203,232	3,584	233,080	119,395
204,246	4,047	232,920	119,662
205,261	3,944	232,782	119,500
206,275	3,942	232,789	119,491
207,290	4,103	232,519	119,467
208,304	4,159	232,295	119,385
209,319	4,122	232,129	119,260
210,334	3,805	231,991	118,933
211,348	3,549	231,785	118,619
212,363	3,361	231,439	118,286
213,377	3,067	231,369	118,013
214,392	3,070	231,162	117,899
215,407	3,247	231,128	118,008
216,421	3,413	230,815	117,966
217,436	3,230	230,674	117,742
218,450	3,056	230,482	117,500
219,465	2,959	230,419	117,382
220,480	3,094	230,323	117,427
221,494	2,836	230,046	117,077
222,509	3,062	229,975	117,204
223,523	3,384	229,775	117,339
224,538	3,320	229,486	117,131
225,553	3,205	229,515	117,048
226,567	3,311	229,468	117,094
227,582	3,561	229,337	117,208
228,596	3,567	229,374	117,221
229,611	3,295	228,988	116,806
230,626	2,975	228,654	116,381
231,640	3,143	228,723	116,534
232,655	3,501	228,640	116,754
233,669	3,855	228,533	116,958
234,684	3,592	228,489	116,726
235,699	3,503	228,224	116,512
236,713	3,300	228,049	116,258
237,728	3,150	227,851	116,033
238,742	2,961	227,529	115,716
239,757	2,977	227,588	115,747
240,772	3,061	227,286	115,647
241,786	3,035	227,104	115,524
242,801	3,295	227,167	115,743
243,815	3,730	226,949	115,950
244,830	3,549	226,825	115,739
245,844	3,335	226,601	115,454
246,859	3,086	226,411	115,159
247,874	3,424	226,302	115,348
248,888	3,357	226,176	115,223
249,903	3,417	225,970	115,153
250,917	3,223	225,829	114,925
251,932	3,403	225,575	114,920
252,947	2,971	225,554	114,576
253,961	3,090	225,345	114,548
254,976	3,034	225,259	114,452
255,990	3,410	225,107	114,646
257,005	3,292	225,108	114,548
258,020	3,432	224,877	114,525
259,034	3,457	224,801	114,495
260,049	3,504	224,537	114,385
261,063	3,256	224,555	114,199
262,078	3,569	224,492	114,391
263,093	3,565	224,225	114,241
264,107	3,511	224,042	114,098
265,122	3,639	223,968	114,145
266,136	3,385	223,819	113,870
267,151	3,485	223,689	113,868
268,166	3,221	223,299	113,464
269,180	3,066	223,171	113,274
270,195	3,225	223,032	113,311
271,209	3,036	223,048	113,169
272,224	3,390	222,847	113,318
273,239	3,314	222,660	113,157
274,253	3,190	222,581	113,015
275,268	3,046	222,351	112,782
276,282	2,833	222,093	112,484
277,297	2,861	221,965	112,430
278,312	3,092	221,953	112,584
279,326	3,254	221,843	112,637
280,341	3,131	221,726	112,477
281,355	3,340	221,448	112,480
282,370	3,260	221,422	112,398
283,384	2,718	221,270	111,913
284,399	2,944	220,961	111,913
285,414	3,167	220,925	112,048
286,428	3,260	220,815	112,049
287,443	3,277	220,686	111,986
288,457	3,366	220,713	112,056
289,472	3,147	220,268	111,660
290,487	2,675	220,057	111,199
291,501	2,661	219,934	111,116
292,516	3,069	219,827	111,350
293,530	3,034	219,775	111,288
294,545	3,054	219,571	111,189
295,560	3,258	219,505	111,295
296,574	3,009	219,546	111,124
297,589	3,090	219,224	111,010
298,603	3,478	219,113	111,226
299,618	3,372	219,025	111,094
300,633	3,269	219,026	111,010
301,647	3,529	218,829	111,088
302,662	3,491	218,688	110,979
303,676	3,245	218,631	110,762
304,691	3,016	218,417	110,479
305,706	3,416	218,216	110,656
306,720	3,483	218,023	110,597
307,735	3,051	217,816	110,170
308,749	2,778	217,830	109,971
309,764	3,369	217,719	110,331
310,779	3,503	217,543	110,328
311,793	3,317	217,359	110,091
312,808	3,262	217,189	109,955
313,822	3,290	217,138	109,940
314,837	3,088	216,902	109,666
315,852	3,135	216,673	109,575
316,866	3,288	216,570	109,622
317,881	3,154	216,636	109,550
318,895	3,223	216,462	109,501
319,910	3,138	216,127	109,261
320,925	2,971	215,949	109,042
321,939	2,877	215,694	108,837
322,954	3,155	215,676	109,016
323,968	3,405	215,805	109,250
324,983	3,082	215,693	108,953
325,997	3,338	215,389	108,972
327,012	3,077	215,254	108,708
328,027	3,206	215,211	108,769
329,041	3,876	215,115	109,186
330,056	3,784	215,031	109,070
331,070	3,051	214,722	108,383
332,085	2,914	214,498	108,163
333,100	3,129	214,484	108,299
334,114	3,380	214,385	108,416
335,129	3,127	214,256	108,163
336,143	3,131	213,974	108,013
337,158	3,274	213,798	108,016
338,173	3,105	213,935	107,956
339,187	3,077	213,590	107,753
340,202	2,945	213,436	107,572
341,216	2,942	213,284	107,484
342,231	3,078	213,070	107,462
343,246	3,073	213,060	107,445
344,260	3,166	212,898	107,418
345,275	3,154	212,835	107,368
346,289	3,396	212,774	107,498
347,304	3,287	212,648	107,348
348,319	3,174	212,393	107,131
349,333	3,261	212,203	107,086
350,348	3,355	212,264	107,173
351,362	3,354	212,185	107,123
352,377	3,328	211,956	106,979
353,392	3,175	211,772	106,771
354,406	3,208	211,649	106,722
355,421	195,880	1340,421	1419,366
356,435	156,487	1477,930	1419,342
