DTS Sentinel unit serial number:	SN410029Multiplexer serial number:	ORYXHardware model number:	OX2-SRSoftware version number:	ORYX F/W v4,00 Oryx Data Collector v3.7.2.0data status	okinstallation	B6 Nyhavnadifferential loss correction	single-endedforward channel	channel 2reverse channel	N/Adate	2023/12/10time	21:50:08forward acquisition time	300,00reverse acquisition time	0,00gamma	499,1914k internal	0,3123k external	0,3123temperature offset calibration	1,0000default loss term (dB/km)	0,3820temperature slope calibration	1,0000multiplexer offset coefficient	1,0000multiplexer slope coefficient	1,0000fibre end	0,00T internal ref (°C)	22,31T ext. ref 1 (°C)	6,08T ext. ref 2 (°C)	6,08length (m)	temperature (°C)	Stokes	anti-Stokes-744,400	-88,198	0,143	-0,032
-743,385	160,182	-0,161	0,168
-742,371	-111,245	0,076	0,011
-741,356	146,561	-0,171	0,171
-740,342	-200,000	-0,019	0,065
-739,327	-3,910	-0,255	0,132
-738,312	-200,000	0,010	-0,101
-737,298	-32,521	-0,212	0,087
-736,283	48,438	-0,124	0,086
-735,269	-117,709	-0,301	0,040
-734,254	-15,899	0,086	0,041
-733,239	-133,500	-0,462	-0,043
-732,225	653,467	0,077	0,147
-731,210	-80,577	0,143	0,035
-730,196	-83,840	-0,120	0,028
-729,181	-200,000	0,000	0,001
-728,167	-134,618	-0,120	0,011
-727,152	11,748	-0,058	-0,033
-726,137	16,869	-0,132	-0,078
-725,123	108,507	-0,065	-0,057
-724,108	-81,369	-0,098	0,024
-723,094	246,435	-0,104	-0,131
-722,079	-8,082	-0,094	0,047
-721,064	79,327	0,023	0,019
-720,050	270,120	0,031	-0,041
-719,035	-200,000	-0,041	0,160
-718,021	-200,000	0,006	0,032
-717,006	-98,681	-0,178	0,034
-715,991	-200,000	0,001	-0,125
-714,977	184,774	0,048	-0,053
-713,962	15,709	0,058	-0,034
-712,948	500,167	-0,054	0,093
-711,933	430,031	0,034	-0,055
-710,918	98,886	-0,101	0,086
-709,904	606,104	-0,088	0,164
-708,889	800,000	0,022	-0,047
-707,875	-22,965	-0,081	-0,036
-706,860	33,414	0,063	-0,040
-705,845	-15,760	0,058	-0,027
-704,831	231,017	-0,033	0,041
-703,816	-200,000	0,001	-0,017
-702,802	439,573	-0,051	-0,083
-701,787	-3,951	-0,040	-0,021
-700,772	-21,473	-0,029	-0,013
-699,758	800,000	-0,029	0,094
-698,743	-200,000	0,029	0,235
-697,729	691,595	-0,036	0,070
-696,714	-200,000	0,010	-0,080
-695,699	586,075	0,048	0,088
-694,685	-183,274	-0,071	-0,001
-693,670	39,430	0,014	-0,009
-692,656	505,864	-0,065	-0,112
-691,641	-55,321	0,044	-0,014
-690,627	-12,103	0,088	0,043
-689,612	760,612	0,033	0,067
-688,597	113,525	-0,119	0,108
-687,583	54,984	-0,206	0,147
-686,568	-62,471	-0,135	0,041
-685,554	171,871	0,117	-0,126
-684,539	19,467	-0,042	-0,025
-683,524	141,755	0,055	-0,055
-682,510	246,556	-0,071	0,089
-681,495	-200,000	-0,013	0,059
-680,481	-200,000	-0,005	0,024
-679,466	-200,000	-0,017	-0,090
-678,451	-200,000	-0,014	-0,105
-677,437	-200,000	-0,008	0,128
-676,422	-88,132	-0,067	0,015
-675,408	800,000	0,029	-0,076
-674,393	-200,000	-0,041	-0,176
-673,378	-92,210	-0,163	-0,034
-672,364	630,353	-0,042	-0,079
-671,349	-200,000	-0,017	-0,141
-670,335	-87,415	0,138	-0,031
-669,320	-116,960	0,076	0,010
-668,305	-41,796	0,136	-0,052
-667,291	-64,990	0,016	0,005
-666,276	-68,125	0,100	0,029
-665,262	-200,000	-0,016	-0,165
-664,247	154,779	-0,008	-0,009
-663,232	-24,947	-0,066	0,029
-662,218	-200,000	0,013	-0,093
-661,203	-88,674	-0,097	0,021
-660,189	49,717	-0,078	-0,054
-659,174	800,000	0,015	0,037
-658,159	-19,403	-0,070	0,032
-657,145	-200,000	0,013	-0,061
-656,130	-200,000	-0,007	0,155
-655,116	148,331	-0,088	-0,089
-654,101	18,927	-0,087	-0,052
-653,086	-200,000	-0,003	0,165
-652,072	-200,000	-0,013	-0,121
-651,057	543,682	-0,039	-0,070
-650,043	-51,754	0,042	0,015
-649,028	-174,902	-0,027	0,001
-648,014	-148,791	0,174	-0,010
-646,999	-124,710	0,037	-0,004
-645,984	800,000	-0,063	0,147
-644,970	-103,160	0,084	-0,015
-643,955	-200,000	0,028	0,152
-642,941	113,157	-0,060	-0,054
-641,926	-91,256	0,011	-0,002
-640,911	-200,000	0,012	-0,134
-639,897	-92,028	0,057	0,012
-638,882	558,629	-0,043	-0,077
-637,868	800,000	-0,032	0,082
-636,853	702,074	-0,031	-0,060
-635,838	159,361	0,093	-0,097
-634,824	-200,000	0,003	-0,070
-633,809	-200,000	0,043	0,239
-632,795	309,996	-0,053	0,074
-631,780	-200,000	0,002	0,045
-630,765	-4,881	-0,065	-0,033
-629,751	528,103	0,072	-0,126
-628,736	-200,000	0,012	-0,045
-627,722	65,993	0,172	-0,130
-626,707	800,000	-0,012	-0,037
-625,692	150,544	0,066	0,067
-624,678	-159,335	-0,114	0,005
-623,663	-80,915	-0,106	-0,026
-622,649	622,232	0,032	-0,061
-621,634	13,523	0,061	-0,035
-620,619	800,000	-0,031	0,100
-619,605	18,910	-0,058	-0,034
-618,590	-200,000	-0,006	0,026
-617,576	126,583	-0,062	0,059
-616,561	-200,000	-0,007	-0,064
-615,546	27,348	-0,032	-0,020
-614,532	-200,000	-0,023	-0,201
-613,517	152,844	-0,119	0,121
-612,503	262,407	-0,006	0,008
-611,488	50,198	0,190	-0,133
-610,474	800,000	-0,054	0,111
-609,459	3,937	0,035	-0,019
-608,444	81,190	-0,090	-0,072
-607,430	-157,696	-0,063	-0,003
-606,415	-180,147	-0,135	0,002
-605,401	-200,000	-0,002	-0,016
-604,386	800,000	-0,024	-0,051
-603,371	800,000	-0,009	-0,028
-602,357	219,298	0,118	0,140
-601,342	-105,601	-0,108	0,018
-600,328	-200,000	-0,022	-0,143
-599,313	-200,000	0,005	-0,053
-598,298	-114,635	0,242	-0,034
-597,284	179,896	0,062	0,068
-596,269	62,434	-0,041	0,031
-595,255	-200,000	0,004	0,058
-594,240	-48,890	-0,015	0,005
-593,225	-200,000	0,007	0,091
-592,211	138,466	-0,073	-0,071
-591,196	800,000	-0,020	0,053
-590,182	59,374	-0,024	-0,017
-589,167	559,162	0,011	0,020
-588,152	800,000	-0,035	-0,081
-587,138	5,093	0,101	0,055
-586,123	-200,000	0,008	-0,144
-585,109	74,848	-0,048	0,038
-584,094	800,000	0,042	-0,127
-583,079	-200,000	-0,000	0,098
-582,065	-183,835	0,028	0,000
-581,050	800,000	0,032	-0,068
-580,036	-88,456	0,037	-0,008
-579,021	-200,000	0,012	-0,112
-578,006	101,412	-0,027	0,023
-576,992	800,000	-0,026	-0,074
-575,977	-200,000	0,010	-0,103
-574,963	800,000	0,019	0,040
-573,948	123,518	0,078	-0,072
-572,934	-200,000	0,002	0,014
-571,919	-143,859	-0,132	0,009
-570,904	86,921	-0,117	-0,095
-569,890	137,188	-0,058	0,056
-568,875	-200,000	0,036	0,125
-567,861	800,000	0,083	0,183
-566,846	-131,211	-0,111	0,011
-565,831	-200,000	0,004	0,076
-564,817	-70,925	0,089	-0,025
-563,802	-200,000	-0,011	-0,036
-562,788	97,923	-0,035	-0,030
-561,773	254,967	-0,062	-0,078
-560,758	371,773	-0,052	-0,079
-559,744	69,868	-0,087	-0,067
-558,729	-200,000	0,020	-0,110
-557,715	51,357	0,102	-0,072
-556,700	116,219	0,042	0,039
-555,685	657,563	0,063	-0,121
-554,671	-49,682	0,077	-0,027
-553,656	-8,627	0,072	0,036
-552,642	-116,935	0,030	0,004
-551,627	146,622	0,058	0,058
-550,612	-200,000	0,009	0,091
-549,598	-200,000	0,059	0,196
-548,583	-200,000	-0,001	0,021
-547,569	-76,009	0,049	-0,013
-546,554	-200,000	-0,002	-0,129
-545,539	800,000	-0,038	-0,099
-544,525	-22,119	0,095	-0,042
-543,510	-137,649	0,055	-0,005
-542,496	220,063	-0,038	-0,045
-541,481	144,175	-0,086	-0,085
-540,466	-200,000	-0,004	-0,019
-539,452	67,377	0,137	0,103
-538,437	160,810	0,046	0,047
-537,423	-137,654	0,090	0,007
-536,408	621,378	-0,062	0,116
-535,393	763,134	-0,045	-0,090
-534,379	-200,000	-0,032	-0,114
-533,364	800,000	-0,006	0,016
-532,350	-154,319	0,124	-0,006
-531,335	800,000	-0,006	0,013
-530,321	50,332	-0,030	-0,021
-529,306	113,014	-0,020	-0,018
-528,291	-165,090	0,066	0,002
-527,277	800,000	0,062	-0,177
-526,262	800,000	0,023	-0,053
-525,248	-67,311	0,098	0,028
-524,233	31,043	0,048	0,030
-523,218	357,242	-0,036	0,053
-522,204	-53,398	-0,094	-0,032
-521,189	-200,000	-0,008	0,047
-520,175	-200,000	-0,028	-0,139
-519,160	-89,726	-0,095	-0,020
-518,145	112,268	0,111	-0,100
-517,131	-200,000	0,008	0,157
-516,116	477,554	0,081	0,136
-515,102	38,037	0,152	-0,100
-514,087	-200,000	-0,029	-0,119
-513,072	167,404	-0,113	-0,119
-512,058	289,897	-0,045	-0,061
-511,043	-81,589	0,025	-0,006
-510,029	-29,377	0,067	0,028
-509,014	-18,649	0,060	0,027
-507,999	-91,855	0,147	0,031
-506,985	228,565	0,022	-0,027
-505,970	586,116	-0,037	-0,067
-504,956	-135,593	0,090	-0,008
-503,941	172,751	0,066	0,070
-502,926	201,900	0,130	0,148
-501,912	800,000	0,068	0,153
-500,897	738,253	0,033	0,065
-499,883	-22,909	0,048	0,021
-498,868	339,204	-0,043	-0,062
-497,853	183,936	-0,132	0,145
-496,839	-200,000	-0,009	0,066
-495,824	-95,752	-0,080	-0,016
-494,810	187,343	-0,056	0,062
-493,795	-49,769	0,090	-0,031
-492,781	-99,966	-0,067	0,012
-491,766	59,954	-0,029	-0,021
-490,751	-136,734	0,063	-0,005
-489,737	44,321	-0,092	-0,062
-488,722	48,635	0,013	0,009
-487,708	-200,000	0,024	0,101
-486,693	135,301	-0,134	0,129
-485,678	302,761	0,013	-0,017
-484,664	581,762	0,035	-0,064
-483,649	-200,000	0,004	-0,154
-482,635	-34,249	-0,047	0,019
-481,620	26,708	-0,070	-0,043
-480,605	-69,550	0,082	0,023
-479,591	51,384	0,069	0,048
-478,576	20,586	0,077	0,046
-477,562	-29,367	-0,031	0,013
-476,547	176,325	-0,102	-0,110
-475,532	56,701	-0,095	-0,068
-474,518	-72,953	0,069	0,018
-473,503	-124,882	0,032	0,004
-472,489	-200,000	-0,015	-0,069
-471,474	-200,000	0,024	-0,129
-470,459	-200,000	0,006	0,105
-469,445	-200,000	0,042	0,000
-468,430	800,000	0,048	0,115
-467,416	10,195	-0,038	0,021
-466,401	29,129	0,046	0,029
-465,386	149,057	-0,115	0,115
-464,372	800,000	0,013	-0,033
-463,357	-200,000	0,002	-0,039
-462,343	-200,000	-0,022	-0,084
-461,328	296,437	-0,031	-0,042
-460,313	-44,179	-0,032	0,012
-459,299	14,515	0,030	0,017
-458,284	-94,280	-0,109	0,022
-457,270	800,000	0,022	0,062
-456,255	-30,378	-0,124	-0,052
-455,241	-107,423	0,078	0,012
-454,226	2,415	-0,066	-0,035
-453,211	800,000	-0,033	-0,070
-452,197	60,622	0,053	-0,039
-451,182	-67,577	-0,139	-0,040
-450,168	120,054	0,083	0,076
-449,153	-200,000	-0,016	0,121
-448,138	501,687	0,040	0,068
-447,124	-137,755	-0,103	0,008
-446,109	-109,534	0,099	0,015
-445,095	-64,049	0,105	0,031
-444,080	-116,490	0,024	-0,003
-443,065	537,279	-0,054	0,095
-442,051	116,677	0,124	-0,112
-441,036	-122,118	-0,085	-0,010
-440,022	-136,792	-0,151	0,013
-439,007	-140,975	-0,156	-0,012
-437,992	800,000	0,042	0,093
-436,978	-200,000	-0,011	0,041
-435,963	475,402	0,057	0,096
-434,949	800,000	0,030	0,064
-433,934	-200,000	-0,103	0,000
-432,919	135,014	0,052	0,050
-431,905	-15,227	-0,023	-0,011
-430,890	-104,780	0,151	0,025
-429,876	-200,000	-0,033	0,141
-428,861	-200,000	0,013	0,193
-427,846	-132,217	0,078	0,007
-426,832	-200,000	0,016	-0,066
-425,817	120,679	-0,094	-0,086
-424,803	241,827	-0,097	0,119
-423,788	-132,126	-0,012	-0,001
-422,773	170,480	0,093	0,098
-421,759	-107,161	-0,122	0,020
-420,744	-54,418	-0,127	0,042
-419,730	-83,374	0,105	-0,025
-418,715	-200,000	-0,033	-0,136
-417,701	-200,000	-0,039	-0,204
-416,686	800,000	0,028	-0,071
-415,671	92,091	0,096	0,080
-414,657	800,000	-0,036	-0,111
-413,642	91,963	-0,063	0,052
-412,628	-118,970	-0,092	-0,012
-411,613	184,325	-0,065	0,071
-410,598	174,312	0,108	-0,115
-409,584	103,109	-0,092	-0,079
-408,569	129,927	0,066	0,062
-407,555	12,388	0,018	0,010
-406,540	-200,000	-0,042	0,201
-405,525	46,022	0,072	0,049
-404,511	377,541	0,044	-0,066
-403,496	7,479	-0,076	-0,041
-402,482	800,000	0,013	-0,027
-401,467	-200,000	0,011	0,103
-400,452	477,425	-0,051	0,085
-399,438	230,155	-0,010	0,012
-398,423	87,702	-0,106	0,086
-397,409	359,326	0,065	-0,096
-396,394	-120,278	-0,036	-0,004
-395,379	170,346	0,135	0,143
-394,365	800,000	-0,074	0,219
-393,350	-200,000	-0,004	0,100
-392,336	-30,452	-0,154	-0,064
-391,321	-200,000	-0,001	0,084
-390,306	188,577	-0,049	0,054
-389,292	-200,000	-0,012	-0,213
-388,277	133,564	-0,038	-0,036
-387,263	-200,000	0,002	0,135
-386,248	98,400	0,103	0,088
-385,233	-61,719	0,076	-0,023
-384,219	-108,537	0,078	-0,012
-383,204	-9,774	-0,111	-0,054
-382,190	-35,491	-0,043	-0,017
-381,175	-86,464	-0,092	0,021
-380,160	-8,041	0,160	-0,079
-379,146	-200,000	0,003	0,047
-378,131	-142,133	-0,026	-0,002
-377,117	800,000	-0,029	0,078
-376,102	-200,000	-0,003	-0,052
-375,088	800,000	-0,042	-0,098
-374,073	800,000	0,025	0,067
-373,058	-2,228	0,187	0,096
-372,044	-81,541	0,042	-0,010
-371,029	129,182	0,115	0,108
-370,015	-200,000	0,003	-0,027
-369,000	240,305	0,042	-0,051
-367,985	800,000	-0,039	-0,092
-366,971	-62,635	0,075	0,023
-365,956	-200,000	-0,008	0,047
-364,942	-121,197	0,086	0,010
-363,927	800,000	-0,041	0,089
-362,912	-106,570	0,073	0,012
-361,898	22,028	-0,043	0,026
-360,883	-84,040	-0,156	0,036
-359,869	-20,096	-0,224	-0,101
-358,854	-60,894	0,068	-0,021
-357,839	5,819	0,144	-0,078
-356,825	-169,092	-0,040	-0,001
-355,810	348,121	0,056	-0,082
-354,796	40,667	-0,127	-0,084
-353,781	800,000	0,031	0,092
-352,766	-53,522	-0,096	-0,032
-351,752	-200,000	0,001	0,093
-350,737	-46,383	-0,122	-0,044
-349,723	-87,418	0,088	-0,019
-348,708	159,149	-0,075	-0,077
-347,693	-104,276	-0,085	0,014
-346,679	-200,000	0,005	0,050
-345,664	798,226	-0,046	0,094
-344,650	20,178	-0,092	-0,054
-343,635	800,000	0,053	-0,147
-342,620	-200,000	-0,007	0,049
-341,606	-148,578	0,238	0,014
-340,591	134,800	-0,042	-0,040
-339,577	92,065	-0,130	-0,108
-338,562	324,538	0,040	-0,056
-337,548	58,119	0,097	0,070
-336,533	137,645	0,102	0,098
-335,518	-99,784	0,097	0,018
-334,504	800,000	0,010	-0,021
-333,489	-121,749	-0,132	-0,016
-332,475	483,792	-0,055	0,092
-331,460	65,124	0,044	0,033
-330,445	800,000	-0,023	0,067
-329,431	-99,441	-0,059	0,011
-328,416	800,000	-0,034	0,105
-327,402	-200,000	0,010	0,063
-326,387	287,600	-0,097	0,129
-325,372	92,021	-0,061	0,051
-324,358	-200,000	-0,032	-0,216
-323,343	800,000	0,036	0,076
-322,329	-200,000	-0,002	-0,123
-321,314	-90,160	0,185	-0,039
-320,299	-76,736	-0,086	0,022
-319,285	800,000	-0,028	0,058
-318,270	-200,000	0,036	-0,143
-317,256	800,000	-0,107	-0,247
-316,241	281,838	-0,029	0,038
-315,226	113,459	0,027	-0,024
-314,212	-200,000	0,007	-0,098
-313,197	-200,000	0,008	0,030
-312,183	-5,203	-0,064	-0,032
-311,168	800,000	0,071	0,157
-310,153	76,040	-0,025	-0,019
-309,139	800,000	0,079	-0,207
-308,124	232,232	0,049	0,059
-307,110	-47,379	0,103	0,036
-306,095	-200,000	0,009	-0,093
-305,080	6,251	0,123	0,067
-304,066	-48,161	0,125	-0,044
-303,051	109,929	0,026	0,023
-302,037	353,384	0,059	0,087
-301,022	-200,000	-0,007	0,065
-300,008	389,132	0,010	0,015
-298,993	-143,688	0,078	-0,005
-297,978	83,534	-0,105	-0,084
-296,964	239,069	-0,091	-0,112
-295,949	800,000	-0,033	0,090
-294,935	208,577	0,029	0,033
-293,920	-27,757	0,113	-0,048
-292,905	179,521	-0,098	-0,105
-291,891	255,976	0,080	0,101
-290,876	108,089	0,046	-0,040
-289,862	-153,794	-0,099	0,005
-288,847	760,439	-0,019	-0,038
-287,832	651,173	-0,058	0,108
-286,818	-180,634	0,042	0,001
-285,803	690,359	0,049	0,095
-284,789	-6,760	0,016	0,008
-283,774	-89,531	-0,088	0,019
-282,759	412,220	0,058	0,091
-281,745	-164,852	-0,108	0,003
-280,730	650,254	-0,044	0,082
-279,716	364,919	-0,029	0,042
-278,701	352,351	-0,065	-0,095
-277,686	-200,000	0,148	-0,000
-276,672	178,084	-0,127	0,135
-275,657	682,480	0,061	0,117
-274,643	432,484	-0,031	-0,050
-273,628	-200,000	0,015	0,095
-272,613	131,378	-0,101	-0,095
-271,599	800,000	-0,018	0,043
-270,584	-200,000	0,000	0,045
-269,570	-74,530	0,080	0,021
-268,555	-65,197	-0,122	0,036
-267,540	428,736	-0,048	0,076
-266,526	765,919	0,005	0,011
-265,511	-200,000	-0,001	0,049
-264,497	-7,425	-0,143	-0,071
-263,482	-200,000	0,022	0,096
-262,467	472,064	0,040	0,065
-261,453	623,445	-0,069	0,127
-260,438	-53,288	-0,052	0,017
-259,424	-200,000	0,000	-0,167
-258,409	269,149	0,051	-0,065
-257,395	193,201	0,066	0,073
-256,380	83,987	-0,055	-0,044
-255,365	-200,000	0,010	0,112
-254,351	-200,000	-0,016	0,123
-253,336	60,198	-0,029	0,021
-252,322	-200,000	-0,035	-0,137
-251,307	-200,000	-0,013	0,047
-250,292	-124,995	0,089	-0,010
-249,278	800,000	0,037	0,091
-248,263	-81,039	0,079	0,019
-247,249	312,955	0,035	-0,049
-246,234	142,605	-0,123	-0,119
-245,219	188,517	-0,108	-0,118
-244,205	-148,079	-0,160	-0,010
-243,190	-200,000	-0,033	-0,111
-242,176	-200,000	-0,018	-0,096
-241,161	601,686	0,061	-0,111
-240,146	-200,000	-0,007	-0,036
-239,132	227,684	-0,013	-0,016
-238,117	88,619	-0,044	-0,036
-237,103	-200,000	-0,045	-0,204
-236,088	-85,595	0,109	-0,025
-235,073	19,430	-0,048	-0,028
-234,059	88,417	-0,076	-0,061
-233,044	110,076	0,094	0,082
-232,030	-0,584	-0,066	0,034
-231,015	-97,493	-0,102	-0,019
-230,000	-156,670	0,067	0,003
-228,986	-64,509	-0,088	0,026
-227,971	-200,000	0,004	0,040
-226,957	82,841	0,074	-0,059
-225,942	396,990	-0,049	0,075
-224,927	-103,337	0,064	0,011
-223,913	-4,215	-0,055	-0,028
-222,898	-200,000	0,014	-0,177
-221,884	376,136	0,025	-0,038
-220,869	-156,458	-0,091	-0,004
-219,855	800,000	0,050	-0,110
-218,840	-200,000	-0,042	0,185
-217,825	-66,634	-0,104	0,030
-216,811	-200,000	0,003	-0,047
-215,796	-83,647	-0,074	-0,017
-214,782	-200,000	-0,027	-0,162
-213,767	-138,092	0,095	-0,008
-212,752	-100,146	0,015	-0,003
-211,738	-200,000	-0,012	-0,071
-210,723	261,173	0,053	0,067
-209,709	-200,000	0,036	0,117
-208,694	169,579	0,022	-0,023
-207,679	-87,304	-0,075	-0,016
-206,665	-104,892	-0,112	-0,019
-205,650	186,330	-0,042	0,046
-204,636	12,525	0,086	-0,048
-203,621	-150,688	-0,015	-0,001
-202,606	-16,119	0,070	-0,032
-201,592	622,694	0,045	-0,083
-200,577	-94,163	-0,175	0,035
-199,563	35,557	-0,079	-0,050
-198,548	-75,634	0,032	0,008
-197,533	800,000	-0,031	0,098
-196,519	-130,280	0,195	0,019
-195,504	-200,000	0,044	-0,153
-194,490	388,658	0,076	-0,116
-193,475	-29,013	0,021	-0,009
-192,460	-200,000	-0,007	0,053
-191,446	-106,408	-0,090	-0,015
-190,431	170,561	0,102	0,107
-189,417	701,762	0,053	0,102
-188,402	-108,512	-0,098	-0,015
-187,387	116,324	-0,090	0,080
-186,373	-165,899	0,017	-0,001
-185,358	-200,000	0,036	-0,131
-184,344	800,000	-0,020	0,063
-183,329	43,281	0,117	0,078
-182,315	182,820	-0,120	0,129
-181,300	-200,000	-0,005	0,028
-180,285	351,235	-0,164	-0,237
-179,271	503,406	-0,053	-0,090
-178,256	-108,059	0,059	-0,009
-177,242	621,839	0,037	-0,069
-176,227	-145,641	-0,034	0,002
-175,212	-102,419	0,040	-0,007
-174,198	592,257	-0,059	0,108
-173,183	-67,982	0,054	0,015
-172,169	-200,000	-0,024	0,119
-171,154	83,630	-0,118	-0,094
-170,139	-89,698	0,185	0,039
-169,125	525,129	0,073	0,127
-168,110	-131,542	-0,040	0,004
-167,096	345,752	-0,053	-0,076
-166,081	27,878	0,168	0,103
-165,066	-200,000	-0,019	-0,138
-164,052	613,178	0,034	-0,062
-163,037	49,249	0,187	0,128
-162,023	195,848	0,017	-0,018
-161,008	117,186	0,055	-0,049
-159,993	-37,467	0,068	0,026
-158,979	46,027	-0,058	0,039
-157,964	-200,000	-0,006	-0,129
-156,950	485,169	-0,038	0,063
-155,935	800,000	-0,048	0,114
-154,920	286,416	-0,035	0,046
-153,906	149,844	0,072	0,071
-152,891	402,353	0,068	-0,105
-151,877	-63,474	0,141	0,042
-150,862	131,018	0,032	-0,030
-149,847	62,456	-0,177	-0,129
-148,833	246,146	0,024	-0,030
-147,818	54,834	-0,124	0,087
-146,804	478,523	-0,010	0,017
-145,789	143,163	0,022	-0,021
-144,775	176,011	0,064	0,067
-143,760	187,250	-0,099	-0,108
-142,745	800,000	-0,028	-0,074
-141,731	-59,449	-0,080	0,025
-140,716	-12,909	0,060	0,028
-139,702	-200,000	-0,002	0,138
-138,687	110,528	0,063	0,055
-137,672	-104,642	0,106	-0,018
-136,658	-200,000	-0,005	0,024
-135,643	117,784	0,011	0,010
-134,629	439,057	-0,017	-0,027
-133,614	335,643	-0,028	0,039
-132,599	17,061	0,104	0,060
-131,585	-200,000	0,006	0,085
-130,570	-200,000	0,010	0,079
-129,556	241,094	-0,048	-0,059
-128,541	-200,000	0,001	-0,030
-127,526	65,181	-0,026	-0,019
-126,512	196,428	0,113	0,126
-125,497	-200,000	0,000	0,036
-124,483	250,924	0,057	0,070
-123,468	499,355	-0,031	0,053
-122,453	-21,190	-0,085	-0,038
-121,439	-43,935	-0,101	0,037
-120,424	-8,987	-0,057	0,028
-119,410	306,139	-0,062	0,084
-118,395	356,973	-0,047	-0,068
-117,380	158,065	0,071	0,072
-116,366	-200,000	0,032	-0,176
-115,351	468,950	0,011	0,019
-114,337	66,951	-0,096	-0,071
-113,322	-200,000	-0,019	0,063
-112,307	800,000	0,011	0,031
-111,293	200,129	0,100	0,111
-110,278	128,030	0,109	0,101
-109,264	-40,880	-0,101	-0,038
-108,249	60,826	-0,095	-0,068
-107,234	448,015	0,022	-0,035
-106,220	260,135	0,026	-0,033
-105,205	-200,000	-0,024	0,115
-104,191	-200,000	-0,023	-0,075
-103,176	800,000	0,039	0,087
-102,162	67,437	-0,084	0,062
-101,147	-71,003	-0,102	0,028
-100,132	-200,000	0,021	0,088
-99,118	27,612	0,116	0,071
-98,103	-186,666	-0,126	0,001
-97,089	20,468	0,069	-0,040
-96,074	800,000	-0,042	0,110
-95,059	148,391	0,065	0,064
-94,045	-15,245	0,134	-0,062
-93,030	319,307	-0,027	-0,037
-92,016	710,078	-0,020	-0,039
-91,001	-200,000	0,011	0,106
-89,986	40,906	0,139	-0,091
-88,972	-200,000	0,030	0,125
-87,957	70,711	0,054	0,040
-86,943	-187,963	-0,069	-0,001
-85,928	311,567	-0,065	-0,088
-84,913	-106,203	-0,047	0,008
-83,899	-27,682	-0,044	-0,019
-82,884	-78,214	0,077	0,019
-81,870	68,134	0,082	-0,061
-80,855	-170,662	-0,074	-0,002
-79,840	-68,845	0,057	-0,016
-78,826	737,561	0,081	-0,159
-77,811	537,450	-0,050	-0,087
-76,797	232,510	0,069	0,083
-75,782	163,460	0,070	0,071
-74,767	-34,654	-0,024	0,010
-73,753	98,685	0,052	0,044
-72,738	800,000	-0,014	-0,034
-71,724	-82,389	-0,104	0,024
-70,709	-16,674	-0,086	-0,039
-69,694	477,783	0,051	-0,083
-68,680	800,000	-0,055	-0,119
-67,665	193,930	-0,040	0,044
-66,651	380,355	-0,085	0,127
-65,636	-44,472	-0,147	-0,053
-64,622	800,000	-0,005	0,014
-63,607	-200,000	0,008	-0,063
-62,592	119,215	0,108	-0,097
-61,578	-32,761	0,068	0,027
-60,563	-169,152	0,102	-0,003
-59,549	-7,236	-0,108	0,053
-58,534	-109,350	-1,383	-0,210
-57,519	538,706	-0,838	-1,451
-56,505	-200,000	-0,947	-4,382
-55,490	29,338	0,528	-0,325
-54,476	800,000	4,988	11,866
-53,461	-200,000	13,509	253,235
-52,446	-200,000	689,762	2257,243
-51,432	590,344	1622,264	2915,304
-50,417	119,103	1634,849	1466,886
-49,403	73,114	1288,921	976,613
-48,388	37,977	1024,303	659,473
-47,373	24,261	981,813	587,011
-46,359	23,522	971,473	578,382
-45,344	22,506	967,266	572,534
-44,330	22,518	965,647	571,594
-43,315	22,354	964,399	570,296
-42,300	22,333	963,247	569,524
-41,286	22,349	962,331	569,013
-40,271	22,277	961,364	568,184
-39,257	22,330	960,407	567,768
-38,242	22,373	959,347	567,259
-37,227	22,333	958,449	566,574
-36,213	22,269	957,769	565,942
-35,198	22,276	956,961	565,465
-34,184	22,335	956,206	565,188
-33,169	22,223	955,428	564,344
-32,154	22,379	954,509	564,284
-31,140	22,369	953,550	563,661
-30,125	22,370	952,783	563,188
-29,111	22,421	951,736	562,711
-28,096	22,364	951,241	562,213
-27,082	22,330	950,496	561,642
-26,067	22,346	949,801	561,258
-25,052	22,326	949,063	560,738
-24,038	22,377	948,453	560,516
-23,023	22,319	947,897	559,982
-22,009	22,432	947,113	559,858
-20,994	22,376	946,648	559,381
-19,979	22,383	945,833	558,901
-18,965	22,386	945,278	558,558
-17,950	22,420	944,623	558,258
-16,936	22,391	944,012	557,783
-15,921	22,236	943,433	556,924
-14,906	22,189	942,701	556,322
-13,892	22,232	942,009	556,025
-12,877	22,237	941,320	555,616
-11,863	22,210	940,639	555,105
-10,848	22,193	940,148	554,739
-9,833	22,334	939,773	554,943
-8,819	22,298	939,143	554,434
-7,804	22,253	938,413	553,839
-6,790	22,226	937,690	553,304
-5,775	22,241	937,193	553,038
-4,760	22,273	936,509	552,714
-3,746	22,173	936,073	552,118
-2,731	22,123	935,361	551,519
-1,717	22,092	934,692	551,003
-0,702	22,027	933,978	550,355
0,313	21,867	933,421	550,353
1,327	25,026	931,404	559,048
2,342	34,731	796,175	503,733
3,356	32,814	451,715	282,883
4,371	1,818	294,155	153,251
5,386	-2,584	275,067	139,123
6,400	-4,165	269,148	134,650
7,415	-4,625	266,656	132,968
8,429	-4,460	265,546	132,553
9,444	-4,482	264,709	132,104
10,459	-4,496	264,031	131,740
11,473	-4,589	263,430	131,345
12,488	-4,620	262,887	131,034
13,502	-4,726	262,233	130,601
14,517	-4,961	262,027	130,274
15,531	-4,646	261,519	130,294
16,546	-4,434	261,102	130,265
17,561	-4,771	260,959	129,879
18,575	-4,508	260,538	129,894
19,590	-4,614	260,189	129,614
20,604	-4,418	259,907	129,637
21,619	-4,706	259,598	129,214
22,634	-4,854	259,306	128,925
23,648	-4,672	258,796	128,822
24,663	-4,719	258,717	128,729
25,677	-4,668	258,371	128,591
26,692	-4,730	258,236	128,457
27,707	-4,577	257,854	128,391
28,721	-4,757	257,688	128,138
29,736	-4,692	257,240	127,961
30,750	-4,962	257,209	127,695
31,765	-4,585	256,920	127,874
32,780	-4,692	256,676	127,646
33,794	-4,827	256,486	127,421
34,809	-4,842	256,161	127,235
35,823	-4,806	256,004	127,178
36,838	-4,760	255,621	127,016
37,853	-4,822	255,480	126,881
38,867	-4,766	255,355	126,857
39,882	-4,743	255,058	126,718
40,896	-4,745	254,758	126,556
41,911	-5,000	254,585	126,235
42,926	-4,938	254,247	126,111
43,940	-4,812	254,011	126,092
44,955	-4,899	253,955	125,977
45,969	-4,952	253,607	125,747
46,984	-5,284	253,433	125,360
47,999	-5,414	253,100	125,071
49,013	-5,613	252,772	124,725
50,028	-5,531	252,552	124,677
51,042	-5,650	252,346	124,461
52,057	-5,596	252,084	124,366
53,071	-5,776	252,064	124,190
54,086	-5,405	251,748	124,344
55,101	-5,451	251,713	124,276
56,115	-5,346	251,660	124,329
57,130	-4,714	251,408	124,740
58,144	-4,411	251,262	124,918
59,159	-4,542	251,159	124,743
60,174	-4,661	250,939	124,520
61,188	-4,545	250,604	124,442
62,203	-4,610	250,456	124,302
63,217	-4,723	250,379	124,155
64,232	-4,617	250,000	124,048
65,247	-4,402	249,850	124,146
66,261	-4,617	249,507	123,780
67,276	-4,864	249,301	123,456
68,290	-5,065	249,027	123,137
69,305	-5,204	248,888	122,939
70,320	-5,175	248,838	122,927
71,334	-4,861	248,628	123,082
72,349	-4,422	248,297	123,280
73,363	-4,521	248,266	123,169
74,378	-4,628	248,007	122,940
75,393	-4,765	247,801	122,710
76,407	-4,775	247,577	122,579
77,422	-4,720	247,475	122,565
78,436	-4,839	247,275	122,354
79,451	-4,413	246,862	122,499
80,466	-4,764	246,677	122,099
81,480	-4,836	246,499	121,939
82,495	-4,953	246,322	121,742
83,509	-4,941	246,235	121,699
84,524	-5,129	245,950	121,388
85,539	-5,094	245,602	121,235
86,553	-5,212	245,557	121,103
87,568	-5,122	245,408	121,095
88,582	-5,030	245,215	121,066
89,597	-4,896	245,014	121,068
90,611	-4,897	244,823	120,962
91,626	-4,805	244,802	121,019
92,641	-4,706	244,507	120,945
93,655	-4,804	244,312	120,755
94,670	-4,976	244,093	120,493
95,684	-4,834	243,900	120,505
96,699	-4,967	243,864	120,365
97,714	-4,917	243,491	120,213
98,728	-5,045	243,240	119,970
99,743	-5,103	243,194	119,889
100,757	-5,247	243,010	119,668
101,772	-5,079	242,788	119,688
102,787	-5,018	242,644	119,656
103,801	-4,930	242,419	119,608
104,816	-4,865	242,343	119,614
105,830	-4,769	242,164	119,595
106,845	-4,713	242,062	119,580
107,860	-4,649	241,923	119,553
108,874	-4,830	241,708	119,286
109,889	-4,970	241,435	119,026
110,903	-4,840	241,081	118,948
111,918	-5,033	241,054	118,765
112,933	-4,972	241,033	118,795
113,947	-4,637	240,671	118,881
114,962	-4,687	240,543	118,766
115,976	-4,921	240,407	118,495
116,991	-4,539	240,084	118,640
118,006	-4,926	239,978	118,259
119,020	-4,791	239,962	118,352
120,035	-4,582	239,707	118,386
121,049	-4,670	239,644	118,273
122,064	-4,660	239,416	118,158
123,079	-4,855	239,244	117,903
124,093	-4,838	239,018	117,795
125,108	-5,040	238,738	117,482
126,122	-5,272	238,520	117,175
127,137	-5,163	238,276	117,134
128,151	-5,301	238,202	116,974
129,166	-4,884	238,018	117,212
130,181	-4,999	237,933	117,066
131,195	-4,986	237,600	116,902
132,210	-4,970	237,552	116,881
133,224	-5,015	237,532	116,825
134,239	-4,908	237,292	116,784
135,254	-4,813	236,997	116,704
136,268	-5,077	236,896	116,431
137,283	-5,133	236,439	116,151
138,297	-5,118	236,371	116,119
139,312	-5,428	236,309	115,828
140,327	-4,752	236,172	116,296
141,341	-4,516	236,153	116,466
142,356	-4,351	235,892	116,459
143,370	-4,239	235,736	116,462
144,385	-4,431	235,722	116,290
145,400	-4,460	235,548	116,171
146,414	-4,443	235,332	116,067
147,429	-4,449	235,231	116,003
148,443	-4,306	234,916	115,952
149,458	-4,337	234,792	115,855
150,473	-4,505	234,567	115,599
151,487	-4,710	234,614	115,449
152,502	-4,599	234,307	115,376
153,516	-4,332	234,134	115,494
154,531	-4,206	233,988	115,511
155,546	-4,406	233,789	115,244
156,560	-4,550	233,482	114,968
157,575	-4,677	233,428	114,830
158,589	-4,528	233,248	114,849
159,604	-4,519	233,189	114,817
160,619	-4,390	232,992	114,812
161,633	-4,200	232,744	114,831
162,648	-4,398	232,681	114,632
163,662	-4,452	232,428	114,455
164,677	-4,581	232,426	114,341
165,692	-4,544	232,236	114,267
166,706	-4,292	232,087	114,383
167,721	-4,220	231,863	114,318
168,735	-4,239	231,871	114,298
169,750	-4,365	231,798	114,152
170,764	-4,398	231,433	113,936
171,779	-4,286	231,313	113,955
172,794	-4,184	231,226	113,982
173,808	-4,219	230,871	113,770
174,823	-4,886	230,659	113,131
175,837	-5,145	230,535	112,858
176,852	-4,766	230,470	113,113
177,867	-4,454	230,400	113,313
178,881	-4,442	230,335	113,280
179,896	-4,508	230,063	113,085
180,910	-4,320	229,933	113,157
181,925	-4,554	229,735	112,867
182,940	-4,306	229,533	112,951
183,954	-4,253	229,468	112,951
184,969	-4,364	229,346	112,794
185,983	-4,174	229,190	112,856
186,998	-4,239	229,029	112,715
188,013	-4,023	228,780	112,751
189,027	-4,083	228,745	112,677
190,042	-4,097	228,685	112,626
191,056	-4,263	228,491	112,391
192,071	-4,220	228,281	112,312
193,086	-4,262	228,119	112,190
194,100	-4,177	227,964	112,169
195,115	-4,573	227,602	111,675
196,129	-5,289	227,411	111,018
197,144	-1,743	228,368	114,223
198,159	2,378	229,510	117,986
199,173	4,270	229,985	119,689
200,188	4,367	229,814	119,665
201,202	4,491	229,735	119,709
202,217	4,407	229,718	119,624
203,232	4,816	229,551	119,844
204,246	4,861	229,530	119,856
205,261	4,970	229,096	119,704
206,275	4,935	229,177	119,708
207,290	5,261	229,110	119,914
208,304	5,082	228,798	119,602
209,319	5,044	228,703	119,512
210,334	4,834	228,464	119,215
211,348	4,868	228,169	119,077
212,363	4,457	227,911	118,616
213,377	4,196	227,587	118,237
214,392	4,070	227,582	118,127
215,407	4,099	227,549	118,121
216,421	4,331	227,482	118,254
217,436	4,383	227,098	118,083
218,450	3,874	226,850	117,555
219,465	3,977	226,890	117,644
220,480	3,793	226,840	117,467
221,494	3,965	226,588	117,457
222,509	4,095	226,486	117,493
223,523	4,191	226,324	117,472
224,538	3,949	226,269	117,248
225,553	4,046	226,060	117,204
226,567	4,182	225,906	117,217
227,582	4,280	225,792	117,222
228,596	4,521	225,756	117,375
229,611	4,152	225,562	116,984
230,626	4,056	225,132	116,678
231,640	3,968	225,096	116,582
232,655	4,304	224,958	116,755
233,669	4,746	224,981	117,090
234,684	4,888	224,880	117,136
235,699	4,629	224,667	116,818
236,713	4,177	224,482	116,370
237,728	4,073	224,369	116,223
238,742	4,169	224,072	116,131
239,757	4,157	223,815	115,978
240,772	3,954	223,929	115,874
241,786	4,121	223,632	115,835
242,801	4,419	223,541	116,002
243,815	4,441	223,613	116,046
244,830	4,631	223,390	116,062
245,844	4,239	223,184	115,651
246,859	4,333	222,972	115,601
247,874	4,405	222,832	115,573
248,888	4,404	222,769	115,528
249,903	4,082	222,753	115,269
250,917	4,080	222,430	115,090
251,932	4,173	222,207	115,033
252,947	3,975	222,048	114,793
253,961	4,010	221,911	114,739
254,976	4,107	221,816	114,751
255,990	4,339	221,668	114,837
257,005	4,363	221,594	114,806
258,020	4,397	221,524	114,785
259,034	4,695	221,368	114,916
260,049	4,363	221,207	114,575
261,063	4,502	221,059	114,592
262,078	4,711	220,983	114,697
263,093	4,661	220,781	114,545
264,107	4,591	220,534	114,355
265,122	4,468	220,485	114,228
266,136	4,761	220,319	114,348
267,151	4,631	220,162	114,161
268,166	4,350	220,003	113,861
269,180	3,994	219,751	113,458
270,195	4,031	219,662	113,429
271,209	4,159	219,629	113,496
272,224	4,063	219,527	113,363
273,239	4,528	219,241	113,547
274,253	4,059	219,044	113,090
275,268	4,064	218,868	112,993
276,282	3,893	218,691	112,766
277,297	3,881	218,606	112,703
278,312	4,011	218,443	112,704
279,326	3,946	218,518	112,685
280,341	4,200	218,288	112,742
281,355	4,042	218,194	112,569
282,370	4,132	217,969	112,508
283,384	4,042	217,719	112,303
284,399	3,843	217,671	112,123
285,414	4,047	217,389	112,116
286,428	3,944	217,422	112,048
287,443	4,296	217,274	112,219
288,457	4,376	217,237	112,248
289,472	4,061	217,113	111,945
290,487	3,702	216,706	111,464
291,501	3,597	216,733	111,392
292,516	3,634	216,672	111,377
293,530	3,918	216,385	111,425
294,545	3,681	216,331	111,217
295,560	3,863	216,207	111,275
296,574	3,988	216,090	111,294
297,589	3,800	215,960	111,082
298,603	4,095	215,901	111,255
299,618	4,252	215,658	111,233
300,633	4,289	215,430	111,132
301,647	4,427	215,433	111,223
302,662	4,423	215,450	111,219
303,676	4,605	215,008	111,112
304,691	4,364	214,964	110,906
305,706	4,473	214,936	110,960
306,720	4,461	214,756	110,848
307,735	4,228	214,519	110,549
308,749	3,988	214,383	110,298
309,764	4,487	214,237	110,570
310,779	4,483	214,275	110,576
311,793	4,473	214,005	110,420
312,808	4,481	213,850	110,336
313,822	4,329	213,552	110,064
314,837	4,221	213,504	109,952
315,852	4,108	213,269	109,741
316,866	4,234	213,291	109,833
317,881	4,437	213,216	109,929
318,895	4,409	213,092	109,835
319,910	4,304	212,916	109,660
320,925	3,866	212,547	109,148
321,939	3,548	212,594	108,938
322,954	3,902	212,362	109,060
323,968	4,078	212,360	109,174
324,983	4,277	212,359	109,305
325,997	4,319	212,213	109,250
327,012	4,310	211,884	109,064
328,027	4,225	211,884	108,994
329,041	4,540	211,879	109,205
330,056	4,723	211,677	109,220
331,070	4,224	211,395	108,713
332,085	3,861	211,154	108,324
333,100	4,194	210,960	108,449
334,114	4,167	210,974	108,427
335,129	3,874	210,866	108,156
336,143	3,957	210,635	108,086
337,158	3,869	210,532	107,962
338,173	4,200	210,487	108,161
339,187	3,751	210,288	107,735
340,202	3,632	210,007	107,498
341,216	3,801	209,907	107,555
342,231	3,972	209,870	107,647
343,246	4,050	209,604	107,555
344,260	3,780	209,698	107,405
345,275	4,115	209,551	107,554
346,289	4,349	209,448	107,655
347,304	4,242	209,397	107,545
348,319	4,252	209,084	107,381
349,333	4,059	208,882	107,134
350,348	4,094	208,877	107,146
351,362	4,372	208,824	107,302
352,377	4,205	208,601	107,062
353,392	4,298	208,352	106,989
354,406	4,235	208,350	106,935
355,421	194,327	1345,954	1435,925
356,435	155,063	1484,655	1436,035
