DTS Sentinel unit serial number:	SN410029Multiplexer serial number:	ORYXHardware model number:	OX2-SRSoftware version number:	ORYX F/W v4,00 Oryx Data Collector v3.7.2.0data status	okinstallation	B6 Nyhavnadifferential loss correction	single-endedforward channel	channel 2reverse channel	N/Adate	2023/12/09time	22:40:08forward acquisition time	300,00reverse acquisition time	0,00gamma	499,1914k internal	0,3127k external	0,3127temperature offset calibration	1,0000default loss term (dB/km)	0,3820temperature slope calibration	1,0000multiplexer offset coefficient	1,0000multiplexer slope coefficient	1,0000fibre end	0,00T internal ref (°C)	21,69T ext. ref 1 (°C)	5,42T ext. ref 2 (°C)	5,39length (m)	temperature (°C)	Stokes	anti-Stokes-744,400	-200,000	0,039	-0,145
-743,385	-69,803	-0,224	0,063
-742,371	-30,277	0,096	0,040
-741,356	88,497	-0,210	0,173
-740,342	800,000	0,009	-0,028
-739,327	-171,247	-0,198	0,005
-738,312	488,510	0,023	-0,039
-737,298	-89,533	-0,219	-0,047
-736,283	664,494	-0,031	-0,060
-735,269	112,942	-0,219	0,198
-734,254	800,000	0,005	-0,012
-733,239	-155,084	-0,401	0,019
-732,225	349,494	0,053	-0,079
-731,210	239,753	0,059	0,074
-730,196	-98,291	-0,036	-0,007
-729,181	61,039	-0,097	-0,072
-728,167	-101,921	-0,116	-0,021
-727,152	-200,000	0,008	0,120
-726,137	75,110	-0,107	-0,084
-725,123	-200,000	-0,019	0,081
-724,108	800,000	-0,066	-0,151
-723,094	194,942	-0,121	-0,137
-722,079	-18,505	-0,092	-0,043
-721,064	800,000	-0,007	0,016
-720,050	-7,386	0,016	-0,008
-719,035	-107,287	-0,063	0,010
-718,021	284,851	-0,026	0,036
-717,006	-27,349	-0,098	0,042
-715,991	242,674	-0,108	-0,135
-714,977	75,858	-0,077	0,060
-713,962	70,996	0,059	0,046
-712,948	554,345	0,009	-0,016
-711,933	800,000	-0,011	0,027
-710,918	-68,710	-0,139	0,040
-709,904	185,560	-0,113	-0,124
-708,889	800,000	-0,030	0,094
-707,875	-200,000	0,006	-0,041
-706,860	-200,000	-0,013	-0,127
-705,845	-31,479	0,055	0,023
-704,831	297,428	-0,043	-0,059
-703,816	-200,000	-0,010	0,151
-702,802	194,924	0,076	-0,085
-701,787	800,000	0,008	-0,023
-700,772	199,877	-0,031	-0,036
-699,758	-128,407	-0,212	0,022
-698,743	-68,460	0,214	-0,061
-697,729	68,593	0,095	-0,072
-696,714	-128,341	0,090	-0,009
-695,699	-200,000	0,017	-0,144
-694,685	14,090	-0,188	-0,109
-693,670	149,880	-0,083	-0,084
-692,656	116,938	-0,102	-0,093
-691,641	-127,040	0,131	0,014
-690,627	-200,000	-0,015	0,126
-689,612	-155,039	0,023	0,001
-688,597	-200,000	-0,002	0,095
-687,583	71,443	-0,036	-0,028
-686,568	-200,000	0,025	-0,093
-685,554	-200,000	-0,018	-0,108
-684,539	774,385	-0,020	-0,041
-683,524	101,494	0,041	0,036
-682,510	100,688	-0,020	-0,017
-681,495	277,512	0,035	0,047
-680,481	-200,000	-0,007	-0,102
-679,466	800,000	-0,033	-0,089
-678,451	75,909	-0,037	0,029
-677,437	-200,000	0,011	0,089
-676,422	95,440	0,123	0,104
-675,408	-63,442	-0,045	0,014
-674,393	800,000	0,033	-0,075
-673,378	-111,567	-0,099	0,015
-672,364	-200,000	-0,005	-0,112
-671,349	-200,000	-0,020	-0,071
-670,335	-58,298	-0,103	0,033
-669,320	88,722	0,091	-0,075
-668,305	111,647	-0,064	0,057
-667,291	155,569	0,042	-0,043
-666,276	-67,828	-0,073	0,021
-665,262	800,000	-0,027	-0,055
-664,247	-200,000	-0,001	-0,100
-663,232	-200,000	0,016	0,054
-662,218	-29,255	0,026	-0,011
-661,203	-24,528	-0,130	-0,057
-660,189	556,987	0,014	-0,024
-659,174	-200,000	-0,009	0,075
-658,159	333,805	0,023	-0,033
-657,145	26,484	-0,065	-0,040
-656,130	181,582	0,055	0,060
-655,116	139,162	-0,035	-0,034
-654,101	41,725	-0,074	0,050
-653,086	-200,000	-0,014	-0,050
-652,072	-200,000	0,015	-0,097
-651,057	800,000	0,030	-0,081
-650,043	313,107	-0,140	-0,196
-649,028	-200,000	0,017	0,085
-648,014	-79,843	0,112	0,028
-646,999	-116,764	0,094	-0,013
-645,984	192,693	0,038	0,042
-644,970	419,652	-0,094	-0,150
-643,955	-200,000	0,004	0,036
-642,941	80,380	-0,035	0,028
-641,926	-179,011	-0,094	-0,002
-640,911	-141,738	0,099	0,007
-639,897	-200,000	-0,017	0,064
-638,882	-200,000	0,024	0,183
-637,868	800,000	0,026	-0,066
-636,853	240,259	-0,176	-0,218
-635,838	94,724	0,034	-0,029
-634,824	800,000	0,034	-0,078
-633,809	-14,524	0,032	0,015
-632,795	800,000	-0,012	-0,025
-631,780	-123,177	0,049	0,006
-630,765	221,395	-0,051	-0,061
-629,751	116,520	-0,073	-0,066
-628,736	800,000	0,004	0,012
-627,722	-200,000	0,009	0,051
-626,707	-12,482	-0,061	-0,029
-625,692	537,928	-0,043	0,075
-624,678	800,000	0,058	0,140
-623,663	129,123	-0,086	0,081
-622,649	81,531	-0,164	-0,131
-621,634	800,000	-0,071	-0,155
-620,619	-113,727	-0,091	-0,013
-619,605	800,000	-0,026	-0,062
-618,590	51,467	0,064	0,045
-617,576	37,400	0,033	-0,022
-616,561	-17,603	0,099	-0,046
-615,546	107,731	-0,066	0,058
-614,532	-200,000	0,004	0,045
-613,517	800,000	-0,009	-0,027
-612,503	-200,000	0,009	-0,108
-611,488	-80,729	-0,110	0,027
-610,474	-200,000	0,001	-0,016
-609,459	86,453	0,028	0,023
-608,444	532,715	-0,067	-0,117
-607,430	309,590	-0,063	-0,087
-606,415	151,001	-0,045	-0,045
-605,401	60,048	0,121	-0,088
-604,386	-200,000	0,006	-0,022
-603,371	-157,849	-0,085	0,004
-602,357	74,239	-0,100	-0,077
-601,342	-200,000	0,015	0,050
-600,328	-154,237	-0,037	-0,002
-599,313	114,707	0,027	-0,024
-598,298	-37,961	0,054	0,021
-597,284	27,547	0,088	0,055
-596,269	251,818	0,023	-0,030
-595,255	800,000	-0,049	0,107
-594,240	58,077	-0,045	0,033
-593,225	-25,939	0,037	0,016
-592,211	318,821	-0,023	-0,032
-591,196	65,918	0,067	0,050
-590,182	197,702	0,074	0,084
-589,167	52,431	-0,035	0,024
-588,152	480,570	-0,065	-0,110
-587,138	800,000	0,043	0,137
-586,123	-200,000	-0,124	0,000
-585,109	189,987	-0,078	-0,086
-584,094	-61,995	-0,181	0,056
-583,079	9,632	0,148	0,083
-582,065	-20,417	-0,059	-0,027
-581,050	-56,166	-0,109	-0,036
-580,036	578,652	-0,030	0,054
-579,021	191,059	0,101	-0,112
-578,006	-200,000	0,003	0,116
-576,992	-113,294	0,088	0,013
-575,977	-200,000	0,001	0,058
-574,963	-200,000	0,000	-0,044
-573,948	-103,907	0,106	0,018
-572,934	800,000	0,057	0,178
-571,919	-85,660	-0,153	-0,035
-570,904	251,885	-0,040	-0,050
-569,890	48,505	-0,097	0,067
-568,875	-200,000	-0,002	0,034
-567,861	-129,510	-0,111	-0,011
-566,846	-200,000	-0,033	0,146
-565,831	324,167	0,041	-0,058
-564,817	38,727	-0,053	0,035
-563,802	366,043	-0,095	-0,142
-562,788	-75,859	-0,095	-0,025
-561,773	55,858	0,079	-0,056
-560,758	-74,176	0,073	-0,019
-559,744	-148,335	0,057	-0,003
-558,729	-93,391	0,097	0,020
-557,715	177,018	0,107	0,115
-556,700	-200,000	0,004	-0,138
-555,685	620,452	-0,050	0,094
-554,671	165,471	0,049	-0,051
-553,656	161,173	0,041	-0,043
-552,642	767,110	-0,059	0,119
-551,627	-83,561	-0,085	0,020
-550,612	265,076	0,040	-0,052
-549,598	-121,277	0,073	-0,009
-548,583	122,562	0,056	0,052
-547,569	29,767	0,037	0,023
-546,554	-22,482	-0,043	0,019
-545,539	281,569	-0,022	0,029
-544,525	-106,695	0,098	0,016
-543,510	21,925	-0,080	-0,048
-542,496	-200,000	-0,017	-0,069
-541,481	-74,524	0,070	0,019
-540,466	-107,165	0,028	-0,004
-539,452	-113,723	0,069	0,010
-538,437	79,565	0,041	0,033
-537,423	500,644	0,040	0,068
-536,408	20,386	-0,065	-0,039
-535,393	273,898	0,064	-0,084
-534,379	345,189	-0,084	0,123
-533,364	-200,000	0,000	-0,062
-532,350	365,344	-0,064	-0,095
-531,335	-159,240	0,174	-0,007
-530,321	85,168	-0,102	0,082
-529,306	435,360	0,074	0,120
-528,291	-3,834	-0,119	-0,061
-527,277	-200,000	-0,008	-0,103
-526,262	-200,000	0,005	-0,141
-525,248	800,000	0,033	0,077
-524,233	-101,835	0,153	-0,027
-523,218	800,000	0,043	-0,112
-522,204	-200,000	0,012	-0,083
-521,189	312,975	-0,054	-0,075
-520,175	153,790	-0,084	-0,085
-519,160	708,301	0,012	-0,024
-518,145	98,056	0,030	0,025
-517,131	-42,554	-0,067	0,025
-516,116	405,446	0,074	0,116
-515,102	354,180	0,055	0,081
-514,087	71,598	0,040	-0,031
-513,072	800,000	-0,022	0,047
-512,058	142,464	-0,079	-0,077
-511,043	143,617	0,059	-0,058
-510,029	363,994	0,034	0,050
-509,014	106,340	0,057	0,050
-507,999	581,408	0,096	0,174
-506,985	-110,935	-0,077	-0,012
-505,970	209,226	-0,022	-0,025
-504,956	-200,000	-0,001	-0,047
-503,941	17,640	0,093	0,054
-502,926	383,439	0,038	0,057
-501,912	522,671	-0,032	0,056
-500,897	800,000	-0,055	-0,113
-499,883	-143,485	-0,092	-0,006
-498,868	800,000	0,051	-0,133
-497,853	163,154	-0,079	0,082
-496,839	800,000	0,047	-0,130
-495,824	413,141	0,062	0,098
-494,810	133,086	0,046	-0,044
-493,795	-139,347	0,123	-0,010
-492,781	46,889	-0,111	-0,076
-491,766	-66,823	-0,129	-0,037
-490,751	-200,000	0,003	-0,061
-489,737	800,000	-0,039	-0,091
-488,722	-28,243	-0,273	-0,116
-487,708	-200,000	-0,004	0,169
-486,693	-5,023	0,076	0,038
-485,678	-143,711	-0,060	-0,004
-484,664	-153,506	-0,134	0,007
-483,649	-200,000	0,027	-0,114
-482,635	-117,643	-0,110	0,015
-481,620	800,000	0,033	0,093
-480,605	-200,000	-0,007	0,102
-479,591	-101,366	-0,114	-0,020
-478,576	63,375	0,051	-0,038
-477,562	-12,164	-0,116	0,056
-476,547	184,843	0,041	0,045
-475,532	-137,664	-0,063	0,005
-474,518	-49,957	-0,101	0,035
-473,503	29,821	0,095	-0,060
-472,489	-134,421	-0,112	-0,010
-471,474	-59,410	-0,101	-0,032
-470,459	54,394	-0,086	0,061
-469,445	125,444	-0,074	-0,069
-468,430	253,970	-0,083	-0,105
-467,416	-200,000	-0,025	0,091
-466,401	-200,000	-0,011	-0,126
-465,386	-200,000	0,010	-0,104
-464,372	800,000	-0,061	0,130
-463,357	56,350	-0,127	0,091
-462,343	-200,000	-0,015	-0,066
-461,328	-200,000	0,006	-0,102
-460,313	-200,000	0,036	0,128
-459,299	-200,000	0,003	0,046
-458,284	800,000	-0,013	0,036
-457,270	192,868	-0,046	-0,051
-456,255	410,250	-0,057	-0,089
-455,241	541,572	-0,028	0,050
-454,226	800,000	0,016	0,046
-453,211	375,587	-0,017	0,025
-452,197	-118,894	0,036	0,005
-451,182	-200,000	-0,004	-0,079
-450,168	375,350	0,040	0,060
-449,153	-91,537	-0,065	-0,014
-448,138	-146,551	-0,090	0,006
-447,124	800,000	-0,054	-0,128
-446,109	-83,785	0,021	0,005
-445,095	-200,000	0,025	-0,173
-444,080	358,684	-0,034	-0,049
-443,065	-50,495	-0,063	-0,022
-442,051	-200,000	0,017	-0,167
-441,036	12,250	-0,057	0,032
-440,022	-104,368	-0,086	0,015
-439,007	-18,653	0,072	0,033
-437,992	23,963	0,178	0,108
-436,978	-43,693	-0,035	0,013
-435,963	-76,493	-0,124	-0,032
-434,949	-144,204	-0,210	0,014
-433,934	171,353	-0,057	0,061
-432,919	52,070	-0,095	-0,066
-431,905	-200,000	-0,037	-0,129
-430,890	465,823	0,068	-0,112
-429,876	-200,000	-0,006	-0,071
-428,861	800,000	0,041	-0,121
-427,846	157,361	-0,066	-0,067
-426,832	78,053	0,134	-0,105
-425,817	-65,257	-0,063	-0,019
-424,803	264,462	-0,081	0,103
-423,788	-69,263	0,217	0,061
-422,773	15,628	0,140	0,080
-421,759	138,823	0,084	-0,081
-420,744	588,239	-0,067	0,123
-419,730	249,480	0,044	0,055
-418,715	-200,000	-0,005	-0,056
-417,701	-200,000	0,018	-0,089
-416,686	287,026	0,128	-0,170
-415,671	150,352	-0,073	0,073
-414,657	401,679	0,075	0,116
-413,642	800,000	0,067	0,161
-412,628	102,364	0,052	0,044
-411,613	255,975	-0,069	-0,087
-410,598	-200,000	0,027	0,090
-409,584	244,068	0,059	-0,073
-408,569	597,635	-0,057	0,104
-407,555	518,537	0,026	-0,045
-406,540	800,000	0,009	-0,025
-405,525	-87,832	-0,124	-0,027
-404,511	429,309	-0,046	0,073
-403,496	420,609	-0,033	0,052
-402,482	-200,000	-0,016	-0,119
-401,467	49,534	-0,162	0,112
-400,452	-200,000	0,002	0,070
-399,438	106,724	0,038	-0,033
-398,423	800,000	-0,041	0,118
-397,409	680,744	-0,038	0,072
-396,394	-200,000	0,008	-0,161
-395,379	59,714	-0,054	-0,039
-394,365	-200,000	-0,016	0,094
-393,350	-200,000	0,008	0,144
-392,336	-5,486	0,046	-0,023
-391,321	249,704	-0,102	-0,127
-390,306	800,000	0,033	-0,073
-389,292	-48,122	0,097	0,034
-388,277	-200,000	0,011	-0,067
-387,263	-16,647	0,067	0,031
-386,248	-200,000	-0,006	-0,171
-385,233	800,000	0,021	-0,058
-384,219	528,646	0,058	-0,101
-383,204	219,670	-0,090	-0,106
-382,190	79,312	-0,045	0,035
-381,175	-200,000	-0,016	-0,074
-380,160	169,538	-0,049	-0,052
-379,146	800,000	0,022	0,066
-378,131	-200,000	0,010	-0,077
-377,117	800,000	0,065	0,161
-376,102	-58,906	-0,110	-0,035
-375,088	357,745	-0,112	-0,165
-374,073	-28,971	0,080	0,034
-373,058	577,407	-0,035	0,063
-372,044	164,966	0,043	-0,045
-371,029	-149,232	-0,049	0,003
-370,015	-112,842	-0,065	-0,009
-369,000	-36,345	-0,083	0,033
-367,985	-200,000	0,009	-0,106
-366,971	419,041	0,041	-0,064
-365,956	-200,000	0,008	0,042
-364,942	287,291	0,074	0,098
-363,927	-200,000	-0,030	0,140
-362,912	-104,388	0,156	-0,026
-361,898	800,000	0,011	0,028
-360,883	113,354	-0,017	-0,016
-359,869	800,000	0,059	0,155
-358,854	137,147	0,059	0,057
-357,839	-186,929	-0,064	0,001
-356,825	52,951	0,029	-0,020
-355,810	-200,000	-0,001	-0,052
-354,796	-200,000	-0,023	0,081
-353,781	-30,024	-0,152	-0,063
-352,766	800,000	-0,021	0,054
-351,752	214,810	-0,015	0,018
-350,737	-200,000	-0,004	-0,057
-349,723	224,528	0,016	-0,019
-348,708	-49,462	0,087	-0,030
-347,693	-200,000	-0,007	-0,041
-346,679	-28,764	0,044	0,019
-345,664	-200,000	0,005	-0,041
-344,650	142,515	0,043	0,041
-343,635	766,650	0,062	-0,123
-342,620	60,637	0,109	-0,079
-341,606	135,531	0,095	0,091
-340,591	121,202	0,107	0,097
-339,577	-200,000	-0,024	0,234
-338,562	3,238	-0,096	0,051
-337,548	800,000	0,049	-0,136
-336,533	172,000	0,087	0,092
-335,518	514,475	0,036	0,061
-334,504	171,230	-0,029	0,031
-333,489	38,235	0,035	-0,023
-332,475	-200,000	0,008	-0,043
-331,460	-200,000	0,002	-0,080
-330,445	-131,347	0,062	-0,006
-329,431	104,577	0,036	-0,031
-328,416	34,875	-0,061	0,039
-327,402	332,846	0,067	0,095
-326,387	800,000	-0,084	0,194
-325,372	-143,032	0,088	-0,006
-324,358	659,683	-0,021	0,039
-323,343	-108,530	0,161	0,025
-322,329	124,541	0,127	-0,117
-321,314	-42,043	0,167	-0,062
-320,299	-58,761	0,104	0,033
-319,285	54,831	-0,040	-0,028
-318,270	-19,469	0,101	-0,046
-317,256	216,823	-0,115	-0,135
-316,241	-124,669	-0,076	0,008
-315,226	88,916	0,050	-0,041
-314,212	800,000	-0,016	0,039
-313,197	-200,000	-0,002	0,039
-312,183	385,269	0,107	0,163
-311,168	88,503	-0,175	0,142
-310,153	142,766	-0,057	0,055
-309,139	560,109	0,038	-0,068
-308,124	24,620	0,054	-0,032
-307,110	-200,000	0,027	0,092
-306,095	68,402	0,103	0,077
-305,080	-98,542	0,141	0,026
-304,066	-11,510	-0,092	-0,044
-303,051	-93,072	0,099	-0,020
-302,037	211,164	-0,038	-0,044
-301,022	-200,000	0,002	0,027
-300,008	201,979	0,053	0,060
-298,993	800,000	0,030	0,077
-297,978	46,551	-0,013	-0,009
-296,964	343,446	0,061	0,088
-295,949	-79,661	-0,139	0,034
-294,935	58,904	0,102	0,073
-293,920	-5,432	-0,042	0,021
-292,905	39,752	0,129	-0,085
-291,891	-200,000	0,021	0,198
-290,876	-12,118	0,047	-0,023
-289,862	611,673	-0,028	-0,051
-288,847	-73,435	0,144	0,038
-287,832	-39,864	0,094	-0,036
-286,818	-200,000	0,002	0,029
-285,803	800,000	0,035	0,107
-284,789	91,944	-0,036	0,029
-283,774	41,991	0,187	0,124
-282,759	366,427	0,056	0,083
-281,745	800,000	-0,037	0,086
-280,730	-70,730	0,150	-0,041
-279,716	101,575	-0,020	-0,017
-278,701	-200,000	-0,009	0,075
-277,686	615,253	0,110	0,202
-276,672	277,848	-0,031	0,041
-275,657	-200,000	-0,013	0,050
-274,643	383,015	-0,081	-0,122
-273,628	-85,986	0,051	-0,012
-272,613	-14,206	0,056	0,026
-271,599	35,907	0,092	-0,059
-270,584	441,707	0,034	0,054
-269,570	263,836	-0,012	0,016
-268,555	-200,000	0,077	0,000
-267,540	-26,189	-0,147	0,063
-266,526	-200,000	0,011	-0,067
-265,511	328,958	0,080	0,112
-264,497	198,954	0,050	0,056
-263,482	-115,391	0,115	0,016
-262,467	-53,507	-0,042	0,014
-261,453	361,406	-0,093	0,136
-260,438	-200,000	0,007	0,206
-259,424	87,371	0,071	-0,057
-258,409	800,000	-0,011	-0,027
-257,395	-151,293	-0,033	0,002
-256,380	91,663	0,145	0,119
-255,365	-192,883	-0,027	-0,000
-254,351	-64,193	0,154	0,046
-253,336	-200,000	-0,045	-0,189
-252,322	641,469	-0,052	-0,097
-251,307	-200,000	0,014	-0,123
-250,292	-51,509	-0,055	-0,019
-249,278	647,095	0,020	-0,037
-248,263	-112,740	0,133	-0,019
-247,249	248,314	-0,079	-0,097
-246,234	-86,145	-0,143	-0,032
-245,219	267,736	-0,025	0,032
-244,205	41,674	-0,112	-0,074
-243,190	28,223	-0,068	-0,042
-242,176	-183,015	0,067	0,001
-241,161	255,860	0,089	0,112
-240,146	25,375	-0,037	0,022
-239,132	-200,000	0,026	0,103
-238,117	-200,000	-0,019	-0,070
-237,103	146,649	-0,051	-0,050
-236,088	800,000	-0,012	-0,026
-235,073	-14,368	0,069	0,033
-234,059	-200,000	-0,005	0,139
-233,044	122,480	0,055	0,050
-232,030	158,664	-0,063	0,063
-231,015	-139,176	0,099	0,008
-230,000	-200,000	-0,038	-0,219
-228,986	-65,944	0,155	0,045
-227,971	800,000	-0,040	-0,086
-226,957	591,068	-0,063	0,114
-225,942	-200,000	-0,019	0,097
-224,927	573,511	0,016	-0,028
-223,913	59,759	-0,092	-0,066
-222,898	64,009	0,035	0,026
-221,884	-161,809	-0,063	-0,002
-220,869	211,601	-0,054	-0,062
-219,855	169,634	0,091	0,095
-218,840	-200,000	-0,007	0,032
-217,825	47,101	0,101	-0,069
-216,811	455,533	-0,130	-0,211
-215,796	-200,000	-0,027	0,131
-214,782	-112,630	0,039	0,006
-213,767	3,048	-0,066	-0,035
-212,752	585,857	0,062	-0,112
-211,738	-144,747	0,031	-0,002
-210,723	-106,700	0,066	-0,011
-209,709	48,031	-0,071	0,048
-208,694	203,192	0,109	0,123
-207,679	286,022	-0,029	0,038
-206,665	328,990	0,032	-0,045
-205,650	-80,595	-0,054	0,013
-204,636	-50,373	0,129	0,044
-203,621	-200,000	-0,028	0,103
-202,606	-159,613	-0,059	-0,002
-201,592	1,651	-0,131	-0,069
-200,577	-200,000	-0,015	-0,234
-199,563	510,975	0,077	0,130
-198,548	-200,000	0,001	0,118
-197,533	-69,133	-0,095	-0,027
-196,519	-5,067	-0,055	-0,027
-195,504	800,000	-0,026	-0,056
-194,490	68,462	-0,091	0,068
-193,475	800,000	-0,016	0,034
-192,460	-200,000	-0,011	-0,079
-191,446	-200,000	-0,013	0,064
-190,431	159,202	-0,047	0,047
-189,417	104,992	0,123	-0,106
-188,402	-22,397	-0,031	0,014
-187,387	-200,000	0,004	0,024
-186,373	800,000	0,009	0,018
-185,358	-200,000	-0,004	-0,054
-184,344	486,981	0,050	-0,084
-183,329	-120,051	-0,024	0,003
-182,315	49,167	-0,043	-0,030
-181,300	-1,909	-0,062	0,032
-180,285	348,034	0,048	-0,069
-179,271	-200,000	-0,010	-0,106
-178,256	199,200	-0,013	-0,015
-177,242	800,000	-0,012	0,034
-176,227	-64,121	0,111	-0,033
-175,212	-36,957	0,020	0,008
-174,198	-112,286	-0,081	-0,012
-173,183	800,000	-0,029	-0,073
-172,169	-200,000	-0,022	0,153
-171,154	-169,307	-0,091	-0,002
-170,139	-200,000	0,015	0,059
-169,125	739,662	0,011	-0,021
-168,110	113,650	0,114	-0,101
-167,096	-200,000	-0,009	-0,076
-166,081	7,037	-0,055	-0,030
-165,066	-200,000	0,010	-0,048
-164,052	-58,778	0,042	0,013
-163,037	-3,098	-0,095	-0,048
-162,023	-50,909	0,158	-0,054
-161,008	343,714	0,064	-0,092
-159,993	-61,242	0,107	0,033
-158,979	-200,000	-0,008	-0,170
-157,964	133,832	0,017	-0,016
-156,950	-200,000	0,057	0,205
-155,935	-15,001	-0,049	-0,023
-154,920	800,000	-0,029	-0,064
-153,906	-57,779	-0,039	0,012
-152,891	-36,207	-0,081	0,032
-151,877	800,000	0,019	-0,050
-150,862	-29,045	-0,069	-0,029
-149,847	-200,000	0,005	-0,109
-148,833	120,588	-0,093	-0,084
-147,818	286,023	-0,054	0,072
-146,804	-144,411	-0,040	0,003
-145,789	-200,000	0,007	0,156
-144,775	-200,000	-0,006	0,033
-143,760	-200,000	-0,017	0,083
-142,745	543,038	-0,009	-0,016
-141,731	119,895	0,019	0,017
-140,716	800,000	0,058	0,133
-139,702	-200,000	-0,010	0,073
-138,687	-57,041	-0,010	0,003
-137,672	-84,786	-0,042	-0,009
-136,658	162,202	-0,061	0,062
-135,643	-33,037	-0,062	0,025
-134,629	-108,731	0,113	0,017
-133,614	272,105	0,072	-0,092
-132,599	243,908	-0,067	0,082
-131,585	-108,572	-0,160	0,025
-130,570	-200,000	-0,026	0,084
-129,556	-173,204	-0,147	-0,003
-128,541	499,881	0,033	-0,056
-127,526	800,000	0,005	0,010
-126,512	-65,047	0,057	0,017
-125,497	105,897	-0,038	0,032
-124,483	800,000	0,020	0,049
-123,468	-7,087	0,044	0,021
-122,453	432,816	-0,056	-0,088
-121,439	-95,883	0,045	0,009
-120,424	202,633	0,030	-0,033
-119,410	233,851	-0,044	-0,053
-118,395	-126,027	-0,055	-0,006
-117,380	-92,407	0,075	0,015
-116,366	-200,000	-0,006	-0,047
-115,351	-69,632	-0,075	0,021
-114,337	-134,268	-0,113	-0,010
-113,322	-105,409	-0,091	-0,015
-112,307	-200,000	-0,005	-0,035
-111,293	491,311	-0,005	0,009
-110,278	67,569	0,079	-0,059
-109,264	-62,425	0,027	-0,008
-108,249	-19,243	-0,103	-0,046
-107,234	-92,265	-0,235	-0,048
-106,220	489,218	0,066	0,110
-105,205	-164,941	-0,124	-0,004
-104,191	789,492	0,035	-0,070
-103,176	32,733	-0,016	0,010
-102,162	122,076	0,065	0,059
-101,147	-101,162	-0,095	0,017
-100,132	-200,000	-0,002	-0,018
-99,118	371,683	0,040	0,059
-98,103	-200,000	-0,005	-0,097
-97,089	-23,070	-0,005	-0,002
-96,074	201,469	0,017	0,019
-95,059	428,013	-0,018	-0,028
-94,045	-200,000	-0,004	-0,069
-93,030	91,896	-0,007	-0,006
-92,016	-184,774	-0,126	-0,001
-91,001	800,000	0,041	0,127
-89,986	519,563	0,065	-0,112
-88,972	-200,000	-0,008	-0,063
-87,957	-127,956	-0,084	0,009
-86,943	-66,022	-0,090	0,026
-85,928	-200,000	0,022	-0,135
-84,913	800,000	0,037	-0,089
-83,899	79,521	0,092	0,072
-82,884	108,729	0,062	0,054
-81,870	33,620	0,074	0,046
-80,855	-200,000	-0,017	-0,076
-79,840	-35,503	0,073	-0,029
-78,826	434,770	-0,021	0,033
-77,811	16,436	-0,083	-0,047
-76,797	26,774	0,086	-0,052
-75,782	191,571	0,060	0,066
-74,767	800,000	0,039	0,084
-73,753	-200,000	0,011	-0,050
-72,738	145,565	-0,038	-0,037
-71,724	154,327	-0,150	-0,150
-70,709	-200,000	-0,011	-0,090
-69,694	162,325	-0,071	-0,072
-68,680	-83,646	-0,140	0,032
-67,665	12,204	0,037	-0,021
-66,651	-161,441	-0,107	0,004
-65,636	-64,275	-0,149	-0,044
-64,622	73,537	0,071	0,054
-63,607	-106,813	-0,079	0,013
-62,592	270,096	0,040	-0,051
-61,578	91,454	0,059	-0,048
-60,563	31,579	-0,113	0,070
-59,549	263,538	-0,024	0,030
-58,534	-144,868	-1,473	-0,096
-57,519	630,588	-0,837	-1,542
-56,505	-200,000	-0,965	-4,478
-55,490	-83,053	0,607	-0,140
-54,476	800,000	4,871	11,723
-53,461	-200,000	14,249	254,310
-52,446	-200,000	696,095	2234,624
-51,432	568,332	1625,121	2873,088
-50,417	116,948	1631,947	1452,244
-49,403	72,828	1285,415	971,606
-48,388	37,414	1022,759	655,766
-47,373	23,700	981,237	584,094
-46,359	22,942	970,628	575,273
-45,344	21,913	966,356	569,363
-44,330	21,829	964,865	568,187
-43,315	21,730	963,476	567,022
-42,300	21,702	962,651	566,423
-41,286	21,725	961,502	565,800
-40,271	21,714	960,502	565,153
-39,257	21,670	959,486	564,391
-38,242	21,714	958,675	564,035
-37,227	21,698	957,617	563,337
-36,213	21,626	957,053	562,751
-35,198	21,661	955,988	562,215
-34,184	21,775	955,189	562,091
-33,169	21,722	954,381	561,423
-32,154	21,755	953,413	560,938
-31,140	21,713	952,646	560,327
-30,125	21,712	951,882	559,854
-29,111	21,763	951,171	559,576
-28,096	21,728	950,541	559,073
-27,082	21,712	949,804	558,565
-26,067	21,786	948,754	558,161
-25,052	21,715	948,120	557,541
-24,038	21,681	947,823	557,233
-23,023	21,722	946,930	556,817
-22,009	21,775	946,254	556,567
-20,994	21,765	945,620	556,139
-19,979	21,752	944,997	555,711
-18,965	21,718	944,515	555,296
-17,950	21,724	943,783	554,863
-16,936	21,654	943,104	554,221
-15,921	21,644	942,413	553,761
-14,906	21,636	941,501	553,176
-13,892	21,563	941,001	552,630
-12,877	21,657	940,354	552,524
-11,863	21,571	939,669	551,829
-10,848	21,692	939,099	551,856
-9,833	21,702	938,908	551,751
-8,819	21,723	938,055	551,295
-7,804	21,610	937,547	550,619
-6,790	21,604	936,906	550,199
-5,775	21,585	936,451	549,850
-4,760	21,653	935,704	549,606
-3,746	21,603	935,276	549,176
-2,731	21,439	934,448	548,149
-1,717	21,414	933,831	547,687
-0,702	21,392	933,137	547,190
0,313	21,225	932,446	547,086
1,327	24,195	930,350	555,130
2,342	33,367	793,543	497,847
3,356	30,830	450,654	278,886
4,371	0,802	294,448	152,188
5,386	-3,608	275,667	138,284
6,400	-4,913	269,975	134,201
7,415	-5,103	267,669	132,868
8,429	-4,961	266,457	132,385
9,444	-4,995	265,615	131,924
10,459	-4,976	265,062	131,655
11,473	-5,024	264,448	131,295
12,488	-5,100	263,833	130,908
13,502	-5,180	263,373	130,596
14,517	-5,044	262,974	130,510
15,531	-4,973	262,463	130,309
16,546	-5,115	262,191	130,034
17,561	-5,133	261,809	129,816
18,575	-4,986	261,502	129,785
19,590	-5,222	261,175	129,399
20,604	-5,067	260,915	129,398
21,619	-5,174	260,671	129,169
22,634	-5,056	260,105	128,983
23,648	-5,058	259,723	128,780
24,663	-5,055	259,563	128,692
25,677	-5,287	259,434	128,409
26,692	-5,302	259,313	128,324
27,707	-5,151	258,832	128,210
28,721	-5,176	258,516	128,019
29,736	-5,205	258,287	127,868
30,750	-5,195	258,093	127,771
31,765	-5,048	257,740	127,714
32,780	-5,183	257,701	127,564
33,794	-5,346	257,572	127,345
34,809	-5,017	257,016	127,349
35,823	-5,090	256,961	127,246
36,838	-5,264	256,618	126,911
37,853	-5,194	256,398	126,853
38,867	-5,041	256,073	126,815
39,882	-5,247	256,011	126,592
40,896	-5,292	255,870	126,471
41,911	-5,278	255,689	126,383
42,926	-5,297	255,214	126,121
43,940	-5,221	255,121	126,130
44,955	-5,248	254,851	125,961
45,969	-5,433	254,655	125,692
46,984	-5,437	254,397	125,550
47,999	-5,730	254,137	125,153
49,013	-5,741	253,929	125,031
50,028	-5,858	253,562	124,737
51,042	-6,173	253,477	124,409
52,057	-5,890	253,201	124,509
53,071	-5,893	253,018	124,406
54,086	-5,795	252,900	124,422
55,101	-5,629	252,676	124,445
56,115	-5,690	252,651	124,368
57,130	-5,225	252,462	124,667
58,144	-4,960	252,228	124,770
59,159	-4,921	251,941	124,651
60,174	-4,986	251,835	124,530
61,188	-4,877	251,547	124,471
62,203	-4,925	251,240	124,267
63,217	-5,072	251,121	124,070
64,232	-5,146	250,907	123,890
65,247	-5,045	250,651	123,839
66,261	-5,202	250,559	123,648
67,276	-5,281	250,193	123,388
68,290	-5,443	249,941	123,114
69,305	-5,363	249,792	123,099
70,320	-5,495	249,636	122,897
71,334	-5,326	249,414	122,921
72,349	-5,076	249,343	123,090
73,363	-5,021	249,162	123,036
74,378	-5,110	248,895	122,817
75,393	-5,285	248,750	122,585
76,407	-5,002	248,591	122,738
77,422	-5,025	248,260	122,544
78,436	-5,075	247,987	122,356
79,451	-5,091	247,934	122,305
80,466	-5,301	247,872	122,085
81,480	-5,409	247,434	121,766
82,495	-5,322	247,119	121,674
83,509	-5,436	247,152	121,584
84,524	-5,364	246,955	121,537
85,539	-5,515	246,654	121,250
86,553	-5,560	246,493	121,122
87,568	-5,504	246,183	121,006
88,582	-5,365	246,145	121,094
89,597	-5,317	245,990	121,048
90,611	-5,117	245,704	121,064
91,626	-5,319	245,731	120,897
92,641	-5,181	245,566	120,920
93,655	-5,486	245,465	120,604
94,670	-5,269	245,096	120,594
95,684	-5,327	244,915	120,445
96,699	-5,283	244,711	120,372
97,714	-5,420	244,522	120,153
98,728	-5,347	244,181	120,036
99,743	-5,485	244,060	119,850
100,757	-5,472	243,851	119,747
101,772	-5,549	243,703	119,600
102,787	-5,396	243,515	119,625
103,801	-5,408	243,361	119,528
104,816	-5,303	243,284	119,568
105,830	-5,254	243,107	119,510
106,845	-5,078	242,845	119,516
107,860	-5,159	242,642	119,339
108,874	-5,376	242,499	119,078
109,889	-5,368	242,250	118,952
110,903	-5,198	242,047	118,982
111,918	-5,211	241,749	118,814
112,933	-5,223	241,663	118,752
113,947	-5,091	241,604	118,821
114,962	-5,229	241,471	118,631
115,976	-5,098	241,055	118,524
116,991	-5,282	241,147	118,408
118,006	-5,248	240,840	118,274
119,020	-5,113	240,724	118,318
120,035	-5,099	240,639	118,277
121,049	-4,921	240,456	118,322
122,064	-5,092	240,355	118,122
123,079	-5,320	240,089	117,794
124,093	-5,302	239,897	117,704
125,108	-5,402	239,600	117,466
126,122	-5,607	239,448	117,213
127,137	-5,758	239,405	117,058
128,151	-5,383	239,133	117,221
129,166	-5,400	238,994	117,129
130,181	-5,417	238,724	116,972
131,195	-5,668	238,623	116,708
132,210	-5,385	238,438	116,837
133,224	-5,287	238,377	116,876
134,239	-5,167	238,132	116,843
135,254	-5,272	237,991	116,678
136,268	-5,430	237,890	116,490
137,283	-5,553	237,657	116,266
138,297	-5,634	237,357	116,043
139,312	-5,531	237,110	115,995
140,327	-5,260	237,016	116,158
141,341	-4,989	236,967	116,342
142,356	-5,001	236,797	116,239
143,370	-5,061	236,767	116,165
144,385	-4,930	236,445	116,103
145,400	-4,798	236,337	116,146
146,414	-4,759	236,215	116,107
147,429	-5,007	235,990	115,786
148,443	-4,900	235,839	115,787
149,458	-4,934	235,627	115,646
150,473	-4,900	235,474	115,589
151,487	-5,132	235,292	115,302
152,502	-4,982	235,193	115,364
153,516	-4,866	234,939	115,322
154,531	-4,925	234,791	115,192
155,546	-5,165	234,602	114,897
156,560	-4,942	234,510	115,020
157,575	-4,889	234,200	114,900
158,589	-4,961	234,094	114,780
159,604	-4,990	233,984	114,692
160,619	-4,930	233,793	114,637
161,633	-4,827	233,789	114,706
162,648	-4,773	233,515	114,605
163,662	-4,873	233,380	114,449
164,677	-5,235	233,257	114,091
165,692	-5,079	233,185	114,170
166,706	-4,898	232,938	114,181
167,721	-4,633	232,733	114,281
168,735	-5,023	232,737	113,964
169,750	-4,884	232,480	113,937
170,764	-4,960	232,437	113,847
171,779	-4,948	232,186	113,723
172,794	-4,969	232,098	113,653
173,808	-5,085	231,872	113,441
174,823	-5,360	231,648	113,105
175,837	-5,523	231,445	112,868
176,852	-4,944	231,295	113,239
177,867	-4,604	231,189	113,444
178,881	-4,820	231,195	113,267
179,896	-4,941	230,958	113,046
180,910	-4,887	230,799	113,000
181,925	-4,618	230,566	113,087
182,940	-4,855	230,464	112,841
183,954	-4,685	230,267	112,868
184,969	-4,736	230,224	112,797
185,983	-4,653	230,056	112,769
186,998	-4,828	229,953	112,572
188,013	-4,708	229,537	112,452
189,027	-4,861	229,567	112,337
190,042	-4,943	229,445	112,204
191,056	-4,861	229,332	112,202
192,071	-4,587	228,921	112,204
193,086	-4,816	229,018	112,064
194,100	-4,709	228,805	112,033
195,115	-5,163	228,484	111,513
196,129	-5,381	228,235	111,213
197,144	-2,907	229,084	113,538
198,159	1,485	230,262	117,533
199,173	3,648	230,833	119,499
200,188	4,031	230,743	119,740
201,202	4,090	230,633	119,718
202,217	4,035	230,557	119,626
203,232	4,438	230,409	119,850
204,246	4,485	230,352	119,847
205,261	4,711	230,152	119,908
206,275	4,778	230,100	119,921
207,290	4,595	229,898	119,664
208,304	4,703	229,695	119,631
209,319	4,587	229,510	119,434
210,334	4,644	229,352	119,386
211,348	4,362	229,083	119,017
212,363	4,057	228,879	118,666
213,377	3,713	228,679	118,287
214,392	3,805	228,552	118,282
215,407	3,992	228,310	118,289
216,421	3,939	228,327	118,247
217,436	3,991	228,048	118,132
218,450	3,462	227,897	117,637
219,465	3,528	227,671	117,561
220,480	3,438	227,517	117,401
221,494	3,543	227,534	117,480
222,509	3,975	227,354	117,707
223,523	3,461	227,213	117,231
224,538	3,797	226,993	117,364
225,553	3,967	226,833	117,400
226,567	4,003	226,684	117,340
227,582	4,298	226,655	117,539
228,596	4,215	226,668	117,472
229,611	3,998	226,213	117,061
230,626	3,434	226,122	116,574
231,640	3,842	225,923	116,772
232,655	3,925	225,837	116,780
233,669	4,207	225,920	117,026
234,684	4,378	225,691	117,028
235,699	4,218	225,480	116,786
236,713	3,917	225,363	116,487
237,728	3,649	225,188	116,183
238,742	3,692	224,956	116,086
239,757	3,943	224,762	116,164
240,772	3,909	224,653	116,073
241,786	3,758	224,451	115,843
242,801	4,032	224,417	116,023
243,815	4,165	224,403	116,105
244,830	4,182	224,166	115,985
245,844	3,776	224,028	115,598
246,859	3,738	223,811	115,447
247,874	4,010	223,824	115,647
248,888	3,892	223,629	115,448
249,903	3,973	223,356	115,358
250,917	3,976	223,146	115,241
251,932	3,583	223,035	114,879
252,947	3,674	222,914	114,875
253,961	3,844	222,724	114,893
254,976	3,765	222,649	114,786
255,990	4,040	222,591	114,951
257,005	3,878	222,565	114,807
258,020	4,032	222,287	114,768
259,034	4,337	222,134	114,906
260,049	3,965	222,052	114,576
261,063	3,912	221,870	114,432
262,078	3,936	221,660	114,331
263,093	4,277	221,483	114,483
264,107	4,117	221,400	114,312
265,122	4,310	221,275	114,381
266,136	4,061	221,208	114,151
267,151	4,238	221,136	114,234
268,166	3,899	220,789	113,794
269,180	3,482	220,608	113,382
270,195	3,694	220,380	113,412
271,209	3,949	220,202	113,498
272,224	3,841	220,255	113,435
273,239	3,865	220,050	113,337
274,253	3,756	219,885	113,162
275,268	3,553	219,662	112,888
276,282	3,640	219,475	112,846
277,297	3,472	219,422	112,685
278,312	3,544	219,363	112,697
279,326	3,722	219,326	112,799
280,341	3,922	219,193	112,867
281,355	3,863	219,017	112,723
282,370	3,736	218,807	112,512
283,384	3,558	218,546	112,238
284,399	3,512	218,407	112,123
285,414	3,547	218,331	112,099
286,428	3,873	218,251	112,287
287,443	3,984	218,092	112,276
288,457	3,866	218,001	112,133
289,472	3,885	217,920	112,095
290,487	3,271	217,520	111,432
291,501	3,277	217,487	111,410
292,516	3,295	217,233	111,283
293,530	3,653	217,088	111,459
294,545	3,350	217,024	111,196
295,560	3,445	216,979	111,232
296,574	3,708	216,828	111,335
297,589	3,767	216,667	111,285
298,603	3,956	216,720	111,440
299,618	4,014	216,486	111,351
300,633	3,838	216,415	111,178
301,647	4,035	216,317	111,260
302,662	4,241	216,083	111,278
303,676	3,986	216,025	111,054
304,691	4,083	215,957	111,079
305,706	4,164	215,782	111,038
306,720	4,047	215,555	110,826
307,735	3,895	215,326	110,590
308,749	3,461	215,174	110,190
309,764	3,669	215,019	110,250
310,779	4,077	214,962	110,504
311,793	3,892	214,846	110,302
312,808	3,972	214,608	110,227
313,822	3,802	214,530	110,056
314,837	3,806	214,357	109,960
315,852	3,614	214,211	109,738
316,866	3,830	213,979	109,764
317,881	3,823	214,084	109,803
318,895	4,192	213,724	109,871
319,910	3,884	213,708	109,633
320,925	3,550	213,384	109,220
321,939	3,064	213,265	108,803
322,954	3,138	213,345	108,887
323,968	3,969	213,179	109,384
324,983	3,931	212,985	109,248
325,997	4,102	213,002	109,367
327,012	3,848	212,788	109,068
328,027	3,837	212,633	108,971
329,041	4,241	212,592	109,227
330,056	4,466	212,577	109,368
331,070	3,733	212,219	108,656
332,085	3,729	211,975	108,519
333,100	3,805	211,859	108,503
334,114	3,887	211,738	108,490
335,129	3,842	211,539	108,346
336,143	3,560	211,519	108,128
337,158	3,798	211,331	108,189
338,173	3,850	211,200	108,150
339,187	3,376	211,067	107,739
340,202	3,461	210,957	107,732
341,216	3,429	210,776	107,608
342,231	3,617	210,565	107,622
343,246	3,579	210,451	107,527
344,260	3,653	210,372	107,530
345,275	3,622	210,398	107,512
346,289	3,995	210,268	107,697
347,304	4,033	210,061	107,608
348,319	4,067	209,991	107,586
349,333	3,763	209,716	107,223
350,348	3,887	209,564	107,222
351,362	3,823	209,619	107,197
352,377	3,921	209,355	107,120
353,392	3,813	209,282	106,998
354,406	4,114	209,094	107,102
355,421	193,868	1346,208	1432,935
356,435	154,697	1484,846	1433,035
