DTS Sentinel unit serial number:	SN410029Multiplexer serial number:	ORYXHardware model number:	OX2-SRSoftware version number:	ORYX F/W v4,00 Oryx Data Collector v3.7.2.0data status	okinstallation	B6 Nyhavnadifferential loss correction	single-endedforward channel	channel 2reverse channel	N/Adate	2023/12/09time	23:25:08forward acquisition time	300,00reverse acquisition time	0,00gamma	499,1914k internal	0,3126k external	0,3126temperature offset calibration	1,0000default loss term (dB/km)	0,3820temperature slope calibration	1,0000multiplexer offset coefficient	1,0000multiplexer slope coefficient	1,0000fibre end	0,00T internal ref (°C)	21,71T ext. ref 1 (°C)	5,54T ext. ref 2 (°C)	5,52length (m)	temperature (°C)	Stokes	anti-Stokes-744,400	556,797	0,045	-0,082
-743,385	-82,569	-0,196	0,047
-742,371	-200,000	0,036	-0,157
-741,356	-58,584	-0,183	0,059
-740,342	-200,000	0,000	0,011
-739,327	-7,456	-0,257	0,129
-738,312	526,523	-0,037	0,066
-737,298	-45,012	-0,277	0,102
-736,283	788,244	0,050	-0,102
-735,269	-98,487	-0,232	0,044
-734,254	-51,735	0,238	0,082
-733,239	-119,442	-0,505	-0,064
-732,225	800,000	-0,022	-0,069
-731,210	-200,000	-0,022	0,114
-730,196	800,000	-0,009	-0,028
-729,181	-128,877	-0,077	0,008
-728,167	-200,000	0,021	-0,080
-727,152	-18,022	-0,069	0,032
-726,137	800,000	-0,038	-0,091
-725,123	-127,448	-0,113	-0,012
-724,108	231,871	-0,111	0,136
-723,094	-200,000	0,014	-0,147
-722,079	-150,145	-0,219	-0,012
-721,064	134,559	-0,123	0,119
-720,050	50,034	-0,083	0,058
-719,035	-200,000	0,001	0,040
-718,021	-200,000	0,026	0,095
-717,006	-200,000	-0,037	-0,155
-715,991	-88,749	-0,153	-0,033
-714,977	66,020	0,108	0,081
-713,962	38,944	-0,061	-0,041
-712,948	-159,587	0,041	-0,002
-711,933	17,287	-0,055	-0,033
-710,918	147,583	0,076	0,076
-709,904	-62,232	-0,057	0,018
-708,889	204,705	0,042	0,048
-707,875	-200,000	-0,003	-0,196
-706,860	210,724	-0,071	-0,083
-705,845	12,925	0,032	0,018
-704,831	46,793	0,049	0,034
-703,816	-65,784	-0,100	-0,030
-702,802	-113,254	-0,078	0,011
-701,787	136,109	-0,014	0,014
-700,772	-44,556	0,129	0,048
-699,758	57,888	-0,024	-0,018
-698,743	800,000	0,032	-0,078
-697,729	-200,000	0,006	-0,033
-696,714	-135,105	0,015	-0,001
-695,699	35,927	0,061	-0,040
-694,685	-200,000	0,024	0,085
-693,670	125,521	-0,016	-0,015
-692,656	-200,000	-0,015	-0,120
-691,641	103,938	-0,058	-0,051
-690,627	563,407	-0,021	-0,038
-689,612	-23,646	0,136	0,060
-688,597	800,000	0,049	0,113
-687,583	-200,000	-0,002	0,125
-686,568	-117,891	0,044	0,006
-685,554	444,731	-0,070	0,114
-684,539	-200,000	-0,047	0,166
-683,524	-146,812	-0,035	0,002
-682,510	-33,949	0,080	0,032
-681,495	76,759	-0,114	-0,089
-680,481	349,285	-0,034	-0,050
-679,466	800,000	0,038	0,116
-678,451	-31,827	0,087	-0,036
-677,437	190,420	0,025	0,028
-676,422	64,105	0,082	0,061
-675,408	-43,625	0,116	0,043
-674,393	164,191	0,020	0,021
-673,378	-96,501	-0,066	-0,013
-672,364	176,194	-0,053	-0,058
-671,349	-46,143	0,094	0,034
-670,335	-200,000	-0,016	0,072
-669,320	209,158	0,012	-0,014
-668,305	37,158	0,115	0,076
-667,291	343,286	-0,075	-0,109
-666,276	327,153	-0,083	-0,119
-665,262	26,441	-0,039	-0,024
-664,247	-106,234	-0,151	-0,025
-663,232	339,729	0,015	-0,022
-662,218	18,388	0,075	-0,044
-661,203	800,000	-0,035	-0,076
-660,189	-105,114	0,143	-0,024
-659,174	105,195	-0,043	0,037
-658,159	309,757	-0,071	-0,099
-657,145	-200,000	0,018	-0,141
-656,130	-200,000	-0,012	0,046
-655,116	800,000	0,012	-0,034
-654,101	416,384	0,036	0,058
-653,086	110,110	-0,027	0,024
-652,072	800,000	-0,027	-0,064
-651,057	343,022	-0,086	-0,126
-650,043	62,352	0,013	-0,010
-649,028	155,667	0,043	-0,044
-648,014	800,000	-0,048	-0,122
-646,999	-200,000	-0,049	-0,175
-645,984	800,000	0,028	0,061
-644,970	-200,000	0,035	-0,131
-643,955	-39,994	-0,171	-0,066
-642,941	-46,910	0,048	0,017
-641,926	-25,678	-0,072	-0,031
-640,911	-117,931	-0,111	0,015
-639,897	72,836	0,022	0,017
-638,882	207,755	-0,047	-0,055
-637,868	34,477	-0,108	-0,070
-636,853	74,991	-0,042	-0,032
-635,838	-112,246	-0,087	0,013
-634,824	73,501	0,093	-0,072
-633,809	312,273	-0,025	0,035
-632,795	-200,000	-0,003	0,036
-631,780	20,386	-0,106	-0,064
-630,765	40,701	0,017	-0,011
-629,751	98,288	-0,093	0,080
-628,736	232,021	-0,077	-0,094
-627,722	31,943	0,115	0,073
-626,707	-66,306	0,016	0,005
-625,692	797,054	-0,020	0,041
-624,678	761,388	-0,045	0,091
-623,663	-22,213	0,062	0,028
-622,649	-51,499	-0,113	-0,039
-621,634	-200,000	0,005	-0,148
-620,619	58,380	-0,049	-0,036
-619,605	-200,000	0,019	0,100
-618,590	-22,704	0,099	-0,044
-617,576	155,248	-0,073	0,075
-616,561	28,524	-0,065	-0,041
-615,546	-200,000	-0,008	0,039
-614,532	530,715	-0,071	-0,125
-613,517	-200,000	-0,001	-0,030
-612,503	-111,206	-0,105	-0,016
-611,488	-89,646	-0,134	0,029
-610,474	-200,000	0,026	0,089
-609,459	-200,000	0,028	-0,154
-608,444	429,066	0,073	-0,118
-607,430	559,128	0,044	-0,078
-606,415	800,000	0,012	-0,027
-605,401	800,000	0,015	0,033
-604,386	14,157	0,090	0,052
-603,371	48,381	-0,064	-0,045
-602,357	-70,389	-0,066	-0,018
-601,342	-45,879	0,015	-0,006
-600,328	-200,000	0,006	0,072
-599,313	-200,000	-0,024	-0,090
-598,298	800,000	-0,022	-0,062
-597,284	-139,753	-0,198	-0,015
-596,269	-200,000	-0,003	0,026
-595,255	427,598	0,088	-0,140
-594,240	-145,783	-0,198	-0,013
-593,225	151,810	0,030	0,031
-592,211	-123,858	0,026	-0,003
-591,196	-200,000	0,018	-0,126
-590,182	-200,000	0,007	-0,041
-589,167	800,000	0,041	0,108
-588,152	104,790	-0,043	-0,038
-587,138	26,755	0,085	-0,053
-586,123	33,416	-0,121	-0,078
-585,109	800,000	0,029	-0,081
-584,094	219,111	-0,081	0,096
-583,079	-200,000	-0,004	0,074
-582,065	122,384	0,058	0,054
-581,050	122,638	0,053	0,049
-580,036	76,797	-0,112	-0,088
-579,021	-20,652	0,023	-0,011
-578,006	444,314	0,017	0,028
-576,992	800,000	0,028	0,082
-575,977	-111,333	0,127	-0,019
-574,963	-161,861	-0,068	-0,003
-573,948	194,844	-0,074	-0,083
-572,934	349,153	0,043	-0,063
-571,919	157,827	-0,110	0,113
-570,904	337,226	0,049	0,071
-569,890	193,163	0,034	0,038
-568,875	120,483	-0,022	0,020
-567,861	-124,494	-0,036	-0,004
-566,846	574,580	0,064	0,116
-565,831	49,230	0,075	-0,052
-564,817	-98,191	-0,047	-0,009
-563,802	-100,629	-0,112	-0,020
-562,788	50,215	-0,117	0,081
-561,773	6,608	-0,018	0,010
-560,758	800,000	0,061	0,154
-559,744	-70,316	-0,031	-0,009
-558,729	800,000	-0,077	0,158
-557,715	-77,646	-0,042	0,011
-556,700	460,614	0,056	-0,092
-555,685	130,950	-0,075	-0,071
-554,671	-24,670	0,079	0,035
-553,656	122,147	0,072	-0,066
-552,642	161,236	-0,110	0,114
-551,627	140,711	0,019	-0,018
-550,612	20,014	0,064	0,038
-549,598	134,560	-0,104	-0,100
-548,583	800,000	0,036	0,105
-547,569	-118,821	-0,187	0,024
-546,554	-56,828	0,108	-0,035
-545,539	240,357	-0,077	0,096
-544,525	-32,238	-0,127	0,052
-543,510	633,318	0,007	-0,012
-542,496	-82,020	-0,097	0,023
-541,481	-98,804	0,050	-0,009
-540,466	54,122	-0,030	-0,021
-539,452	-159,872	0,246	0,010
-538,437	371,148	-0,047	-0,071
-537,423	-200,000	-0,005	-0,092
-536,408	-200,000	-0,008	-0,090
-535,393	-152,511	0,069	-0,004
-534,379	800,000	0,014	-0,031
-533,364	-200,000	0,016	-0,092
-532,350	31,192	-0,029	0,018
-531,335	-200,000	0,020	-0,122
-530,321	138,402	-0,055	-0,054
-529,306	-62,058	-0,065	-0,020
-528,291	89,490	0,111	-0,091
-527,277	-148,174	-0,025	0,001
-526,262	31,715	-0,071	-0,045
-525,248	-200,000	-0,022	0,085
-524,233	-83,159	-0,110	-0,026
-523,218	84,849	0,052	-0,042
-522,204	-70,809	-0,062	-0,017
-521,189	91,245	0,074	-0,061
-520,175	267,196	-0,034	-0,044
-519,160	15,753	-0,117	0,068
-518,145	-176,087	0,061	0,001
-517,131	-200,000	-0,027	0,097
-516,116	-13,390	-0,076	-0,036
-515,102	800,000	-0,020	-0,050
-514,087	-46,999	-0,045	0,016
-513,072	800,000	-0,010	0,025
-512,058	764,969	-0,017	-0,035
-511,043	8,742	-0,154	0,086
-510,029	-4,290	0,107	-0,054
-509,014	185,959	-0,088	-0,097
-507,999	107,075	-0,039	-0,034
-506,985	560,344	0,034	-0,061
-505,970	-170,529	0,068	0,002
-504,956	-200,000	-0,011	-0,059
-503,941	-200,000	0,012	-0,118
-502,926	-200,000	-0,006	-0,052
-501,912	109,828	0,062	0,055
-500,897	10,267	0,033	-0,018
-499,883	-200,000	0,022	-0,077
-498,868	-81,889	-0,063	0,015
-497,853	-79,508	0,059	-0,014
-496,839	-79,905	-0,125	0,031
-495,824	-200,000	-0,008	0,066
-494,810	-200,000	0,018	0,192
-493,795	-43,004	0,055	-0,021
-492,781	-200,000	-0,016	-0,130
-491,766	800,000	-0,048	0,152
-490,751	-55,980	-0,105	-0,034
-489,737	-200,000	0,012	0,082
-488,722	-19,364	-0,092	-0,042
-487,708	-107,079	0,138	0,022
-486,693	-200,000	-0,005	0,028
-485,678	482,848	-0,027	0,045
-484,664	538,474	0,037	0,065
-483,649	196,068	-0,052	0,059
-482,635	-185,106	0,084	0,001
-481,620	800,000	0,034	0,078
-480,605	-200,000	0,009	0,120
-479,591	45,893	-0,088	0,060
-478,576	-15,258	0,032	-0,015
-477,562	-200,000	-0,008	-0,110
-476,547	-126,543	0,046	0,005
-475,532	-200,000	0,027	-0,133
-474,518	800,000	0,004	0,010
-473,503	35,407	0,043	0,028
-472,489	35,400	0,116	0,075
-471,474	77,154	0,041	0,032
-470,459	-139,442	-0,143	-0,011
-469,445	187,948	0,072	-0,080
-468,430	-40,108	0,067	-0,026
-467,416	-116,554	0,107	0,014
-466,401	50,103	0,093	-0,064
-465,386	800,000	0,035	0,100
-464,372	776,131	-0,046	-0,092
-463,357	69,711	-0,163	-0,124
-462,343	354,569	-0,042	-0,061
-461,328	800,000	0,027	-0,067
-460,313	164,417	0,081	0,085
-459,299	51,404	0,105	0,073
-458,284	-200,000	0,014	0,082
-457,270	800,000	0,056	0,153
-456,255	102,774	-0,078	-0,067
-455,241	81,827	0,089	-0,071
-454,226	-49,983	-0,203	-0,071
-453,211	-200,000	-0,006	-0,064
-452,197	391,846	-0,077	0,119
-451,182	25,253	0,108	0,066
-450,168	292,741	0,062	-0,084
-449,153	275,460	-0,046	0,060
-448,138	-61,345	-0,149	-0,046
-447,124	157,640	-0,045	-0,045
-446,109	-200,000	-0,018	-0,084
-445,095	-41,875	0,081	-0,030
-444,080	-49,870	0,120	0,042
-443,065	800,000	0,018	-0,045
-442,051	-18,913	0,093	0,043
-441,036	62,088	-0,035	0,026
-440,022	-17,433	-0,116	-0,053
-439,007	-200,000	-0,006	-0,058
-437,992	92,636	0,068	0,057
-436,978	800,000	-0,047	-0,145
-435,963	-97,949	0,061	0,011
-434,949	-200,000	0,021	0,096
-433,934	-66,580	0,055	0,016
-432,919	405,669	-0,105	-0,163
-431,905	19,401	-0,114	-0,067
-430,890	-7,247	-0,096	0,048
-429,876	-143,416	0,185	0,013
-428,861	-14,446	0,067	-0,032
-427,846	155,453	0,106	-0,107
-426,832	-129,308	-0,036	0,004
-425,817	-111,960	-0,113	0,017
-424,803	-200,000	0,014	-0,076
-423,788	800,000	0,031	0,072
-422,773	89,600	0,087	0,071
-421,759	-26,521	-0,030	-0,013
-420,744	254,570	0,055	0,070
-419,730	-13,422	-0,028	-0,014
-418,715	123,707	0,047	-0,044
-417,701	-200,000	0,008	-0,069
-416,686	37,435	0,058	0,038
-415,671	173,889	0,123	0,131
-414,657	-200,000	-0,043	-0,144
-413,642	-20,640	-0,127	0,057
-412,628	-116,364	-0,143	-0,019
-411,613	-154,319	0,012	-0,001
-410,598	-137,405	0,086	0,007
-409,584	-200,000	-0,021	0,074
-408,569	116,442	-0,046	0,042
-407,555	-12,834	0,044	0,021
-406,540	64,384	0,115	0,085
-405,525	14,570	0,050	0,029
-404,511	-200,000	-0,013	-0,077
-403,496	-74,771	-0,129	-0,034
-402,482	-200,000	-0,017	-0,058
-401,467	95,179	0,034	-0,029
-400,452	-123,460	0,077	0,009
-399,438	250,088	0,123	0,154
-398,423	-35,614	-0,144	-0,057
-397,409	52,415	-0,139	0,097
-396,394	-157,861	0,079	-0,003
-395,379	-200,000	-0,037	0,147
-394,365	-2,523	0,155	0,079
-393,350	-200,000	0,018	0,096
-392,336	-200,000	-0,002	0,110
-391,321	-200,000	-0,011	-0,114
-390,306	132,460	0,095	-0,090
-389,292	-200,000	-0,025	-0,091
-388,277	-63,040	0,070	-0,021
-387,263	25,813	0,039	0,024
-386,248	-109,364	0,143	0,022
-385,233	-180,713	0,076	-0,001
-384,219	-200,000	-0,016	-0,061
-383,204	161,927	-0,039	-0,040
-382,190	-200,000	0,006	0,107
-381,175	43,767	0,087	-0,058
-380,160	-96,369	0,097	-0,019
-379,146	155,463	0,080	0,081
-378,131	-200,000	0,006	-0,066
-377,117	96,386	0,036	-0,030
-376,102	-200,000	-0,040	-0,150
-375,088	-200,000	-0,026	-0,139
-374,073	-200,000	-0,004	-0,044
-373,058	207,508	0,073	-0,083
-372,044	154,542	-0,009	0,009
-371,029	202,374	0,119	0,135
-370,015	159,377	0,011	-0,011
-369,000	284,321	0,046	0,061
-367,985	275,206	-0,081	0,106
-366,971	-31,335	-0,103	0,043
-365,956	-200,000	0,004	0,133
-364,942	-153,491	0,097	0,005
-363,927	800,000	-0,025	0,073
-362,912	51,263	-0,081	-0,056
-361,898	800,000	0,009	0,028
-360,883	195,331	-0,041	0,046
-359,869	-200,000	0,009	-0,088
-358,854	109,032	0,068	-0,059
-357,839	-200,000	0,001	-0,118
-356,825	22,197	-0,105	0,063
-355,810	-75,854	0,113	-0,029
-354,796	800,000	-0,069	-0,165
-353,781	-200,000	-0,013	-0,128
-352,766	800,000	-0,043	-0,117
-351,752	-41,752	0,044	-0,016
-350,737	-91,841	0,084	0,017
-349,723	40,883	0,042	-0,028
-348,708	223,434	0,099	0,117
-347,693	721,930	0,036	0,071
-346,679	-138,039	0,122	-0,010
-345,664	333,514	-0,082	0,116
-344,650	-23,969	0,111	-0,049
-343,635	48,831	0,047	0,032
-342,620	42,758	-0,065	0,043
-341,606	469,298	-0,017	0,028
-340,591	800,000	0,082	0,229
-339,577	351,379	-0,034	-0,050
-338,562	-94,853	-0,105	-0,021
-337,548	800,000	0,006	-0,014
-336,533	457,383	0,072	0,117
-335,518	800,000	0,040	0,114
-334,504	-109,860	0,123	0,019
-333,489	-25,894	0,044	0,019
-332,475	-104,289	-0,130	0,022
-331,460	800,000	-0,064	0,131
-330,445	-160,732	-0,073	0,003
-329,431	-151,145	-0,051	0,003
-328,416	-200,000	-0,042	0,168
-327,402	800,000	-0,019	-0,040
-326,387	-101,102	0,008	0,001
-325,372	55,751	-0,126	-0,089
-324,358	-42,982	0,043	0,016
-323,343	152,002	-0,074	0,073
-322,329	-50,207	-0,030	0,010
-321,314	-66,929	0,113	0,032
-320,299	-119,636	0,128	0,016
-319,285	800,000	-0,041	0,090
-318,270	54,858	-0,070	0,050
-317,256	-200,000	0,004	0,031
-316,241	-33,297	0,061	-0,025
-315,226	-162,711	-0,064	0,002
-314,212	47,278	0,083	0,057
-313,197	4,291	-0,005	0,003
-312,183	800,000	-0,043	0,105
-311,168	-86,727	-0,056	0,012
-310,153	800,000	0,030	-0,078
-309,139	-200,000	-0,029	-0,116
-308,124	-131,014	-0,034	0,003
-307,110	128,038	0,040	0,037
-306,095	290,653	0,120	0,160
-305,080	116,213	-0,021	-0,018
-304,066	-200,000	0,000	0,006
-303,051	-177,373	0,057	-0,001
-302,037	800,000	0,064	-0,144
-301,022	-200,000	-0,006	0,096
-300,008	-200,000	-0,029	0,096
-298,993	-5,260	0,062	0,031
-297,978	-88,016	0,068	-0,015
-296,964	-200,000	0,003	-0,022
-295,949	15,102	-0,051	-0,029
-294,935	97,117	0,030	0,025
-293,920	-147,211	-0,032	-0,002
-292,905	-78,092	-0,018	0,005
-291,891	-32,534	0,102	0,042
-290,876	800,000	-0,033	-0,076
-289,862	245,774	-0,078	-0,096
-288,847	-200,000	0,002	-0,202
-287,832	23,812	0,094	0,057
-286,818	-65,953	0,064	-0,018
-285,803	-36,544	-0,041	-0,016
-284,789	90,472	0,119	0,097
-283,774	102,100	-0,042	0,036
-282,759	24,205	-0,071	-0,043
-281,745	90,167	0,036	0,029
-280,730	-147,148	-0,021	0,001
-279,716	-169,172	-0,040	0,001
-278,701	-120,878	0,032	-0,004
-277,686	-69,026	-0,124	0,035
-276,672	800,000	0,020	0,053
-275,657	184,218	0,101	0,110
-274,643	-16,615	0,162	-0,075
-273,628	-200,000	-0,008	-0,064
-272,613	118,098	-0,023	0,021
-271,599	263,640	0,063	0,080
-270,584	423,410	0,015	-0,024
-269,570	-7,622	-0,030	0,015
-268,555	800,000	-0,012	0,029
-267,540	-200,000	-0,003	-0,032
-266,526	-29,407	-0,046	0,019
-265,511	598,739	0,030	-0,054
-264,497	-105,948	0,135	0,022
-263,482	-99,717	0,140	0,025
-262,467	366,369	0,024	0,035
-261,453	-166,083	-0,070	0,002
-260,438	-25,164	-0,140	-0,060
-259,424	-200,000	0,007	-0,190
-258,409	-90,831	0,016	-0,003
-257,395	-135,641	0,064	0,005
-256,380	-11,601	0,051	0,024
-255,365	684,138	0,014	0,026
-254,351	-69,778	-0,052	-0,014
-253,336	-200,000	0,017	-0,085
-252,322	146,278	-0,055	-0,054
-251,307	800,000	0,025	-0,064
-250,292	42,699	0,095	-0,063
-249,278	-185,878	0,079	0,001
-248,263	800,000	0,070	0,168
-247,249	101,121	0,085	0,072
-246,234	-104,038	-0,135	0,023
-245,219	601,110	0,038	-0,069
-244,205	-161,900	-0,086	0,003
-243,190	-84,864	0,052	-0,012
-242,176	54,591	0,072	0,050
-241,161	495,823	0,033	-0,056
-240,146	-81,410	0,085	0,020
-239,132	-39,478	-0,097	0,037
-238,117	-123,876	-0,089	0,010
-237,103	-84,985	-0,040	-0,009
-236,088	-200,000	0,028	0,154
-235,073	800,000	0,017	-0,036
-234,059	-200,000	0,031	-0,126
-233,044	-73,008	0,063	0,017
-232,030	800,000	-0,033	-0,071
-231,015	-200,000	-0,020	0,084
-230,000	316,106	0,007	-0,009
-228,986	-200,000	0,007	-0,049
-227,971	-200,000	-0,023	0,171
-226,957	800,000	0,024	0,053
-225,942	-174,438	-0,114	0,002
-224,927	-200,000	-0,007	-0,096
-223,913	-200,000	-0,011	-0,101
-222,898	121,159	-0,091	0,082
-221,884	-83,653	0,187	0,043
-220,869	-100,736	0,022	0,004
-219,855	-66,497	0,126	0,036
-218,840	202,004	0,030	0,034
-217,825	547,363	0,046	0,081
-216,811	800,000	0,051	0,113
-215,796	-200,000	-0,008	0,078
-214,782	148,694	0,036	0,035
-213,767	-200,000	0,017	0,116
-212,752	-200,000	-0,012	0,076
-211,738	-115,368	-0,021	-0,003
-210,723	228,090	0,017	-0,020
-209,709	800,000	-0,034	-0,076
-208,694	-200,000	-0,009	-0,119
-207,679	167,813	-0,058	-0,060
-206,665	7,054	-0,036	0,019
-205,650	-131,018	0,124	0,012
-204,636	542,015	-0,038	0,066
-203,621	-15,506	-0,002	0,001
-202,606	-19,051	-0,024	-0,011
-201,592	-70,420	-0,073	0,020
-200,577	800,000	-0,018	0,037
-199,563	-200,000	0,000	-0,043
-198,548	211,490	-0,074	-0,085
-197,533	177,974	0,036	0,039
-196,519	-36,703	-0,039	0,015
-195,504	78,972	0,023	0,018
-194,490	-200,000	0,006	0,081
-193,475	399,958	-0,022	0,034
-192,460	-200,000	0,002	0,046
-191,446	-200,000	0,024	-0,106
-190,431	64,804	0,096	-0,070
-189,417	-200,000	-0,016	-0,094
-188,402	-26,432	-0,048	0,020
-187,387	346,448	-0,021	-0,030
-186,373	800,000	-0,040	-0,098
-185,358	-71,159	0,038	0,010
-184,344	324,313	0,073	0,102
-183,329	161,802	-0,035	0,036
-182,315	-8,979	0,042	0,020
-181,300	40,845	-0,058	-0,038
-180,285	-130,174	0,074	0,007
-179,271	-86,064	-0,114	-0,026
-178,256	-76,259	0,088	0,022
-177,242	800,000	-0,047	0,146
-176,227	-3,742	-0,062	0,031
-175,212	800,000	-0,026	0,079
-174,198	-200,000	0,023	0,164
-173,183	292,266	-0,093	-0,124
-172,169	800,000	0,041	-0,091
-171,154	-200,000	0,018	-0,159
-170,139	-36,229	0,082	-0,032
-169,125	59,537	0,093	0,067
-168,110	-148,684	0,053	0,003
-167,096	297,129	-0,106	0,142
-166,081	-48,233	-0,125	0,044
-165,066	-54,700	-0,110	-0,036
-164,052	130,936	0,079	-0,074
-163,037	706,818	0,036	0,070
-162,023	-200,000	-0,008	0,189
-161,008	20,151	-0,114	0,067
-159,993	132,817	0,091	-0,086
-158,979	-200,000	0,008	-0,092
-157,964	-108,999	-0,055	-0,008
-156,950	104,300	-0,097	-0,083
-155,935	325,461	-0,052	-0,073
-154,920	800,000	-0,036	0,112
-153,906	504,277	0,040	0,068
-152,891	-200,000	0,011	-0,151
-151,877	-200,000	-0,007	-0,161
-150,862	153,112	-0,072	-0,072
-149,847	34,790	0,037	-0,024
-148,833	-155,556	0,051	0,002
-147,818	-200,000	0,038	-0,127
-146,804	129,648	-0,087	0,081
-145,789	716,804	0,062	0,121
-144,775	-51,601	-0,121	-0,041
-143,760	-200,000	0,003	-0,125
-142,745	800,000	0,026	0,084
-141,731	41,922	0,026	-0,017
-140,716	181,651	0,045	0,048
-139,702	-200,000	-0,003	0,108
-138,687	576,974	0,045	0,080
-137,672	-15,465	0,078	-0,036
-136,658	-62,280	-0,054	-0,016
-135,643	-200,000	-0,020	-0,084
-134,629	-200,000	-0,021	-0,072
-133,614	-200,000	0,085	0,000
-132,599	-200,000	-0,004	-0,075
-131,585	-69,555	0,121	0,033
-130,570	33,208	-0,222	-0,140
-129,556	-200,000	0,008	0,130
-128,541	800,000	0,111	-0,254
-127,526	498,901	-0,072	-0,121
-126,512	-89,150	0,024	-0,005
-125,497	-10,673	0,054	0,026
-124,483	88,972	0,118	0,095
-123,468	-47,266	-0,218	0,077
-122,453	85,400	0,031	-0,025
-121,439	800,000	-0,036	-0,076
-120,424	-141,731	-0,139	0,010
-119,410	429,824	-0,048	-0,075
-118,395	689,639	-0,025	-0,048
-117,380	728,178	-0,065	0,126
-116,366	264,269	0,053	0,067
-115,351	65,291	-0,014	-0,010
-114,337	-48,535	-0,065	-0,023
-113,322	149,387	-0,133	-0,131
-112,307	97,307	0,036	-0,030
-111,293	800,000	-0,015	-0,036
-110,278	-29,760	0,084	-0,034
-109,264	119,426	-0,103	0,092
-108,249	-200,000	0,011	-0,089
-107,234	-45,925	-0,042	-0,015
-106,220	309,061	0,045	-0,061
-105,205	-69,813	0,099	0,027
-104,191	-200,000	0,044	-0,146
-103,176	160,315	0,032	-0,032
-102,162	-139,041	0,034	-0,003
-101,147	-78,195	0,040	0,010
-100,132	800,000	0,026	0,074
-99,118	87,342	-0,028	-0,022
-98,103	-200,000	-0,021	0,102
-97,089	-79,126	0,057	0,014
-96,074	354,463	0,035	0,051
-95,059	-80,291	-0,156	0,038
-94,045	143,411	0,076	0,074
-93,030	33,092	-0,079	0,050
-92,016	27,422	0,066	-0,040
-91,001	-200,000	-0,012	-0,096
-89,986	-104,438	0,151	-0,025
-88,972	430,648	0,046	-0,073
-87,957	-28,603	0,107	0,044
-86,943	35,868	-0,126	-0,080
-85,928	267,169	-0,068	-0,086
-84,913	-200,000	-0,029	-0,168
-83,899	-200,000	0,006	0,022
-82,884	234,566	0,093	0,111
-81,870	-82,988	0,074	-0,017
-80,855	498,766	0,012	0,020
-79,840	64,996	0,027	-0,020
-78,826	342,352	0,062	-0,088
-77,811	-135,820	-0,161	-0,014
-76,797	48,946	0,038	-0,026
-75,782	-200,000	0,003	0,019
-74,767	176,961	-0,062	-0,066
-73,753	351,406	-0,059	0,085
-72,738	-200,000	0,019	0,080
-71,724	-200,000	0,004	-0,016
-70,709	-104,057	-0,089	-0,015
-69,694	685,868	-0,042	-0,080
-68,680	568,300	-0,088	0,156
-67,665	227,535	0,135	0,160
-66,651	-200,000	0,003	0,077
-65,636	43,379	0,097	-0,064
-64,622	800,000	-0,048	-0,119
-63,607	-200,000	0,012	-0,073
-62,592	-200,000	0,017	-0,061
-61,578	-182,382	0,064	0,001
-60,563	249,883	0,047	0,058
-59,549	800,000	0,056	0,128
-58,534	-81,002	-1,454	-0,346
-57,519	800,000	-0,714	-1,499
-56,505	-200,000	-0,896	-4,535
-55,490	-35,202	0,787	-0,309
-54,476	800,000	5,002	11,737
-53,461	-200,000	14,097	252,963
-52,446	-200,000	694,920	2234,073
-51,432	570,079	1624,441	2875,686
-50,417	117,105	1632,190	1453,346
-49,403	72,854	1285,791	972,085
-48,388	37,503	1022,863	656,195
-47,373	23,750	981,281	584,339
-46,359	22,986	970,700	575,514
-45,344	21,928	966,531	569,568
-44,330	21,913	965,039	568,616
-43,315	21,824	963,327	567,296
-42,300	21,742	962,686	566,628
-41,286	21,748	961,488	565,921
-40,271	21,661	960,487	565,027
-39,257	21,732	959,555	564,687
-38,242	21,744	958,638	564,163
-37,227	21,691	957,795	563,473
-36,213	21,706	956,697	562,851
-35,198	21,705	955,866	562,339
-34,184	21,762	955,457	562,260
-33,169	21,700	954,522	561,487
-32,154	21,796	953,593	561,226
-31,140	21,744	952,833	560,591
-30,125	21,750	952,050	560,127
-29,111	21,696	951,286	559,482
-28,096	21,726	950,513	559,101
-27,082	21,806	949,545	558,766
-26,067	21,770	948,943	558,273
-25,052	21,783	948,290	557,911
-24,038	21,767	947,615	557,441
-23,023	21,788	946,774	556,990
-22,009	21,815	946,356	556,806
-20,994	21,817	945,518	556,298
-19,979	21,752	945,153	555,855
-18,965	21,727	944,552	555,399
-17,950	21,775	943,857	555,120
-16,936	21,710	943,190	554,499
-15,921	21,656	942,520	553,912
-14,906	21,636	941,685	553,335
-13,892	21,598	941,290	552,961
-12,877	21,637	940,455	552,572
-11,863	21,658	939,668	552,156
-10,848	21,608	939,426	551,832
-9,833	21,707	938,967	551,855
-8,819	21,687	938,241	551,344
-7,804	21,641	937,648	550,826
-6,790	21,636	937,036	550,428
-5,775	21,657	936,336	550,064
-4,760	21,617	935,716	549,549
-3,746	21,586	935,253	549,159
-2,731	21,491	934,450	548,366
-1,717	21,437	933,816	547,801
-0,702	21,456	933,075	547,405
0,313	21,247	932,447	547,207
1,327	24,274	930,321	555,411
2,342	33,464	793,964	498,416
3,356	31,119	450,654	279,349
4,371	0,799	294,084	152,012
5,386	-3,635	275,258	138,066
6,400	-4,748	269,778	134,269
7,415	-5,157	267,400	132,697
8,429	-4,899	265,847	132,152
9,444	-5,163	265,293	131,622
10,459	-4,775	264,460	131,552
11,473	-5,036	263,859	131,003
12,488	-5,190	263,444	130,646
13,502	-5,187	262,828	130,331
14,517	-4,943	262,396	130,326
15,531	-5,202	262,039	129,903
16,546	-4,857	261,601	129,986
17,561	-5,133	261,424	129,637
18,575	-4,926	261,073	129,639
19,590	-5,045	260,636	129,302
20,604	-4,952	260,442	129,278
21,619	-5,096	260,117	128,976
22,634	-5,061	259,802	128,840
23,648	-5,208	259,467	128,531
24,663	-5,064	258,982	128,408
25,677	-5,077	258,929	128,358
26,692	-4,978	258,645	128,295
27,707	-5,091	258,368	128,045
28,721	-5,205	258,202	127,850
29,736	-5,005	257,808	127,821
30,750	-5,038	257,519	127,637
31,765	-5,134	257,397	127,480
32,780	-5,326	257,204	127,203
33,794	-5,202	256,984	127,193
34,809	-5,365	256,802	126,947
35,823	-5,050	256,413	127,022
36,838	-5,129	256,273	126,871
37,853	-5,242	255,974	126,613
38,867	-5,328	255,681	126,381
39,882	-5,352	255,540	126,279
40,896	-5,324	255,330	126,189
41,911	-5,099	255,016	126,219
42,926	-5,205	254,771	125,994
43,940	-5,273	254,624	125,850
44,955	-5,411	254,435	125,625
45,969	-5,462	254,168	125,438
46,984	-5,462	254,118	125,402
47,999	-5,620	253,660	125,027
49,013	-5,693	253,428	124,837
50,028	-5,886	253,193	124,542
51,042	-5,943	252,920	124,348
52,057	-5,913	252,746	124,277
53,071	-5,881	252,573	124,208
54,086	-5,821	252,461	124,195
55,101	-5,573	252,227	124,283
56,115	-5,559	252,047	124,196
57,130	-5,217	252,025	124,470
58,144	-4,994	251,751	124,516
59,159	-4,974	251,598	124,446
60,174	-5,018	251,320	124,260
61,188	-5,026	251,005	124,086
62,203	-5,080	250,999	124,026
63,217	-5,203	250,671	123,747
64,232	-5,076	250,570	123,796
65,247	-5,012	250,262	123,687
66,261	-5,164	250,137	123,483
67,276	-5,087	249,663	123,304
68,290	-5,304	249,452	123,004
69,305	-5,472	249,267	122,758
70,320	-5,321	249,173	122,830
71,334	-5,115	249,054	122,936
72,349	-4,954	248,787	122,931
73,363	-5,278	248,733	122,617
74,378	-5,183	248,619	122,631
75,393	-4,912	248,247	122,667
76,407	-5,147	248,096	122,381
77,422	-5,293	247,846	122,123
78,436	-5,185	247,836	122,199
79,451	-4,684	247,320	122,358
80,466	-5,252	247,178	121,796
81,480	-5,022	246,976	121,880
82,495	-5,231	246,694	121,554
83,509	-5,475	246,659	121,320
84,524	-5,275	246,297	121,299
85,539	-5,402	246,075	121,072
86,553	-5,453	246,076	121,019
87,568	-5,406	245,911	120,966
88,582	-5,255	245,621	120,940
89,597	-5,433	245,538	120,738
90,611	-5,256	245,504	120,860
91,626	-4,959	245,282	120,989
92,641	-5,143	245,004	120,687
93,655	-5,390	244,903	120,419
94,670	-5,329	244,637	120,329
95,684	-5,262	244,529	120,321
96,699	-5,229	244,290	120,220
97,714	-5,397	244,049	119,951
98,728	-5,478	243,858	119,779
99,743	-5,467	243,571	119,637
100,757	-5,446	243,433	119,575
101,772	-5,311	243,163	119,544
102,787	-5,338	243,019	119,440
103,801	-5,462	243,029	119,331
104,816	-5,187	242,671	119,373
105,830	-4,873	242,514	119,546
106,845	-5,045	242,610	119,440
107,860	-5,071	242,228	119,219
108,874	-5,116	241,973	119,046
109,889	-5,283	241,905	118,863
110,903	-5,353	241,567	118,630
111,918	-5,391	241,466	118,538
112,933	-5,213	241,429	118,656
113,947	-5,019	241,111	118,649
114,962	-4,957	241,028	118,649
115,976	-5,274	240,757	118,244
116,991	-5,230	240,694	118,239
118,006	-5,214	240,502	118,147
119,020	-5,313	240,450	118,029
120,035	-5,122	240,278	118,092
121,049	-5,057	240,085	118,040
122,064	-4,748	239,692	118,088
123,079	-5,122	239,659	117,756
124,093	-5,213	239,399	117,543
125,108	-5,324	239,248	117,367
126,122	-5,523	239,104	117,124
127,137	-5,631	238,926	116,939
128,151	-5,674	238,783	116,823
129,166	-5,506	238,577	116,848
130,181	-5,292	238,258	116,856
131,195	-5,379	238,046	116,671
132,210	-5,369	237,944	116,619
133,224	-5,197	237,896	116,724
134,239	-5,122	237,810	116,732
135,254	-5,134	237,637	116,627
136,268	-5,170	237,362	116,453
137,283	-5,589	237,194	116,021
138,297	-5,404	236,854	115,993
139,312	-5,631	236,881	115,813
140,327	-5,386	236,604	115,865
141,341	-5,033	236,677	116,175
142,356	-4,824	236,409	116,202
143,370	-4,885	236,351	116,114
144,385	-4,924	236,088	115,944
145,400	-4,899	236,056	115,937
146,414	-4,888	235,720	115,770
147,429	-4,971	235,604	115,636
148,443	-4,981	235,493	115,564
149,458	-4,921	235,312	115,513
150,473	-4,982	235,225	115,411
151,487	-5,012	234,940	115,237
152,502	-4,926	234,931	115,291
153,516	-4,957	234,717	115,150
154,531	-5,002	234,539	115,018
155,546	-4,984	234,182	114,846
156,560	-5,161	234,183	114,695
157,575	-4,940	233,824	114,685
158,589	-5,029	233,640	114,514
159,604	-4,915	233,482	114,517
160,619	-4,812	233,433	114,565
161,633	-4,693	233,327	114,597
162,648	-4,783	233,059	114,383
163,662	-4,824	232,913	114,269
164,677	-4,977	232,815	114,090
165,692	-4,741	232,719	114,219
166,706	-4,766	232,529	114,096
167,721	-4,730	232,366	114,035
168,735	-4,604	232,163	114,024
169,750	-4,813	232,132	113,834
170,764	-4,960	231,906	113,597
171,779	-4,870	231,798	113,605
172,794	-4,806	231,650	113,572
173,808	-5,046	231,465	113,283
174,823	-5,414	231,158	112,833
175,837	-5,432	230,964	112,715
176,852	-5,151	230,971	112,928
177,867	-4,949	230,927	113,056
178,881	-4,889	230,773	113,017
179,896	-4,675	230,475	113,029
180,910	-4,711	230,493	112,999
181,925	-4,872	230,237	112,737
182,940	-4,883	230,056	112,630
183,954	-4,679	229,868	112,687
184,969	-4,846	229,879	112,552
185,983	-4,760	229,574	112,460
186,998	-4,637	229,462	112,492
188,013	-4,539	229,302	112,479
189,027	-4,711	229,134	112,252
190,042	-4,570	228,967	112,271
191,056	-4,735	228,941	112,119
192,071	-4,894	228,731	111,883
193,086	-4,678	228,620	111,986
194,100	-4,726	228,376	111,820
195,115	-4,716	227,990	111,628
196,129	-5,252	227,897	111,158
197,144	-2,844	228,748	113,432
198,159	1,445	229,849	117,302
199,173	3,642	230,454	119,309
200,188	3,818	230,262	119,336
201,202	3,930	230,233	119,398
202,217	4,158	230,197	119,545
203,232	4,307	230,000	119,548
204,246	4,451	229,894	119,594
205,261	4,414	229,650	119,428
206,275	4,828	229,569	119,695
207,290	4,633	229,541	119,518
208,304	4,701	229,398	119,486
209,319	4,511	229,248	119,251
210,334	4,458	228,997	119,068
211,348	4,132	228,798	118,703
212,363	4,116	228,291	118,417
213,377	3,790	228,331	118,177
214,392	3,725	228,092	117,993
215,407	3,834	227,883	117,957
216,421	3,840	227,876	117,949
217,436	3,940	227,615	117,880
218,450	3,452	227,526	117,449
219,465	3,569	227,262	117,392
220,480	3,581	227,263	117,391
221,494	3,649	227,018	117,306
222,509	3,756	226,997	117,366
223,523	3,727	226,788	117,225
224,538	3,538	226,627	116,988
225,553	3,792	226,428	117,068
226,567	3,836	226,428	117,091
227,582	3,939	226,338	117,112
228,596	4,104	226,272	117,194
229,611	3,887	225,961	116,857
230,626	3,717	225,620	116,541
231,640	3,788	225,610	116,580
232,655	3,914	225,420	116,566
233,669	4,409	225,454	116,949
234,684	4,421	225,392	116,916
235,699	4,172	225,182	116,608
236,713	3,944	224,845	116,251
237,728	3,833	224,675	116,068
238,742	3,635	224,577	115,858
239,757	3,916	224,352	115,944
240,772	3,435	224,417	115,604
241,786	3,814	224,004	115,666
242,801	4,003	224,051	115,822
243,815	4,316	223,945	115,993
244,830	4,223	223,799	115,837
245,844	4,010	223,524	115,524
246,859	3,959	223,520	115,473
247,874	4,025	223,253	115,375
248,888	3,978	223,193	115,298
249,903	3,976	222,977	115,175
250,917	3,945	222,652	114,974
251,932	3,917	222,653	114,943
252,947	3,665	222,509	114,670
253,961	3,670	222,371	114,592
254,976	3,845	222,200	114,625
255,990	4,106	222,061	114,737
257,005	4,021	222,002	114,633
258,020	3,968	222,024	114,595
259,034	4,419	221,714	114,760
260,049	4,099	221,590	114,448
261,063	3,842	221,565	114,234
262,078	4,200	221,272	114,338
263,093	4,348	221,237	114,419
264,107	4,127	221,159	114,205
265,122	4,054	220,858	113,985
266,136	4,315	220,786	114,132
267,151	4,459	220,582	114,122
268,166	3,823	220,395	113,546
269,180	3,669	220,139	113,290
270,195	3,718	220,003	113,246
271,209	3,552	220,014	113,119
272,224	3,813	219,819	113,201
273,239	4,190	219,695	113,404
274,253	3,856	219,467	113,031
275,268	3,649	219,359	112,813
276,282	3,654	219,210	112,731
277,297	3,520	219,008	112,518
278,312	3,660	218,965	112,589
279,326	3,761	218,809	112,572
280,341	3,730	218,676	112,472
281,355	3,760	218,660	112,475
282,370	4,012	218,284	112,455
283,384	3,519	218,201	112,043
284,399	3,307	218,114	111,833
285,414	3,481	217,993	111,888
286,428	3,333	217,985	111,766
287,443	3,971	217,682	112,066
288,457	3,930	217,624	111,996
289,472	3,890	217,365	111,823
290,487	3,410	217,195	111,377
291,501	3,201	216,992	111,111
292,516	3,307	216,930	111,147
293,530	3,384	216,873	111,163
294,545	3,125	216,777	110,917
295,560	3,427	216,493	110,980
296,574	3,677	216,364	111,085
297,589	3,965	216,270	111,235
298,603	4,043	216,221	111,257
299,618	4,045	216,057	111,163
300,633	3,733	215,906	110,851
301,647	4,111	215,807	111,062
302,662	4,070	215,821	111,030
303,676	3,903	215,595	110,784
304,691	3,857	215,431	110,657
305,706	4,095	215,294	110,747
306,720	4,067	215,160	110,649
307,735	3,841	215,013	110,400
308,749	3,454	214,652	109,928
309,764	3,863	214,622	110,196
310,779	4,103	214,586	110,340
311,793	4,042	214,489	110,236
312,808	4,037	214,357	110,155
313,822	3,970	214,087	109,959
314,837	3,757	214,029	109,767
315,852	3,784	213,698	109,606
316,866	3,807	213,723	109,626
317,881	3,893	213,666	109,648
318,895	4,065	213,390	109,620
319,910	3,994	213,231	109,478
320,925	3,594	213,005	109,067
321,939	3,522	212,889	108,947
322,954	3,452	212,699	108,791
323,968	3,732	212,876	109,070
324,983	3,861	212,632	109,027
325,997	3,955	212,605	109,070
327,012	3,861	212,437	108,907
328,027	4,020	212,129	108,852
329,041	4,211	212,257	109,043
330,056	4,239	212,083	108,964
331,070	3,977	211,727	108,587
332,085	3,567	211,615	108,230
333,100	3,743	211,354	108,211
334,114	3,722	211,414	108,218
335,129	3,621	211,155	108,004
336,143	3,627	210,996	107,917
337,158	3,707	210,994	107,962
338,173	3,775	210,874	107,940
339,187	3,525	210,651	107,640
340,202	3,470	210,488	107,509
341,216	3,375	210,329	107,351
342,231	3,585	210,188	107,417
343,246	3,577	210,083	107,348
344,260	3,524	210,018	107,268
345,275	3,610	209,967	107,293
346,289	3,726	209,762	107,260
347,304	3,671	209,793	107,227
348,319	4,053	209,453	107,311
349,333	3,583	209,470	106,982
350,348	3,768	209,392	107,062
351,362	3,919	209,119	107,018
352,377	3,962	209,116	107,036
353,392	3,957	208,763	106,843
354,406	3,979	208,667	106,799
355,421	193,463	1345,330	1430,806
356,435	154,351	1483,913	1430,914
