DTS Sentinel unit serial number:	SN410029Multiplexer serial number:	ORYXHardware model number:	OX2-SRSoftware version number:	ORYX F/W v4,00 Oryx Data Collector v3.7.2.0data status	okinstallation	B6 Nyhavnadifferential loss correction	single-endedforward channel	channel 2reverse channel	N/Adate	2023/12/10time	06:40:08forward acquisition time	300,00reverse acquisition time	0,00gamma	499,1914k internal	0,3124k external	0,3124temperature offset calibration	1,0000default loss term (dB/km)	0,3820temperature slope calibration	1,0000multiplexer offset coefficient	1,0000multiplexer slope coefficient	1,0000fibre end	0,00T internal ref (°C)	22,62T ext. ref 1 (°C)	6,44T ext. ref 2 (°C)	6,42length (m)	temperature (°C)	Stokes	anti-Stokes-744,400	151,642	-0,063	-0,064
-743,385	72,488	-0,225	0,175
-742,371	391,855	0,098	-0,152
-741,356	244,268	-0,170	0,213
-740,342	800,000	-0,016	0,041
-739,327	23,840	-0,198	0,121
-738,312	-200,000	-0,001	-0,077
-737,298	-145,581	-0,136	0,009
-736,283	800,000	0,040	-0,096
-735,269	62,706	-0,228	0,169
-734,254	-37,524	0,071	-0,028
-733,239	-39,061	-0,359	-0,140
-732,225	-149,159	0,200	0,012
-731,210	-92,788	0,116	0,024
-730,196	800,000	-0,056	-0,115
-729,181	-200,000	-0,015	-0,124
-728,167	57,749	0,140	-0,102
-727,152	251,462	0,034	-0,043
-726,137	270,746	-0,107	-0,140
-725,123	-80,706	0,150	-0,037
-724,108	-200,000	0,001	-0,043
-723,094	323,568	-0,067	-0,096
-722,079	-26,027	-0,152	-0,066
-721,064	176,336	-0,123	-0,134
-720,050	800,000	0,052	-0,158
-719,035	36,827	-0,045	-0,030
-718,021	51,456	-0,044	0,031
-717,006	38,078	-0,075	0,049
-715,991	273,912	0,009	0,011
-714,977	118,789	-0,143	-0,132
-713,962	-200,000	-0,029	-0,176
-712,948	-200,000	-0,017	0,105
-711,933	63,937	-0,103	-0,077
-710,918	45,456	0,092	-0,063
-709,904	2,896	0,125	-0,067
-708,889	104,111	-0,076	-0,067
-707,875	-57,562	-0,245	-0,080
-706,860	-200,000	-0,006	-0,138
-705,845	558,878	0,031	-0,056
-704,831	-75,688	0,119	-0,031
-703,816	82,677	-0,082	0,066
-702,802	-200,000	0,014	0,082
-701,787	800,000	-0,036	-0,103
-700,772	19,252	0,124	-0,074
-699,758	-85,627	0,219	-0,050
-698,743	800,000	-0,014	0,029
-697,729	25,934	-0,102	-0,063
-696,714	583,253	-0,062	0,115
-695,699	561,619	-0,068	-0,123
-694,685	-21,443	-0,086	-0,039
-693,670	83,114	-0,053	0,043
-692,656	64,261	-0,044	0,033
-691,641	614,855	-0,054	0,102
-690,627	-200,000	-0,066	0,223
-689,612	200,200	0,017	0,019
-688,597	-34,835	-0,061	0,025
-687,583	-1,855	-0,063	0,033
-686,568	102,626	-0,086	-0,075
-685,554	149,961	0,043	0,043
-684,539	-200,000	0,017	-0,117
-683,524	-165,301	0,066	0,002
-682,510	-65,397	-0,164	0,049
-681,495	97,099	-0,108	-0,092
-680,481	10,444	0,070	0,040
-679,466	109,393	-0,021	0,019
-678,451	341,752	-0,043	-0,063
-677,437	-200,000	-0,038	-0,177
-676,422	278,169	-0,020	0,026
-675,408	286,094	-0,060	-0,080
-674,393	44,778	0,062	-0,042
-673,378	5,405	-0,206	-0,113
-672,364	-200,000	0,016	-0,075
-671,349	109,457	-0,070	0,062
-670,335	91,288	-0,013	0,011
-669,320	-75,186	0,075	-0,020
-668,305	-49,479	0,127	0,045
-667,291	-129,255	0,094	0,010
-666,276	581,448	-0,062	-0,114
-665,262	99,033	0,015	-0,013
-664,247	-83,780	-0,151	-0,035
-663,232	85,252	0,048	-0,039
-662,218	-200,000	-0,015	0,052
-661,203	-66,338	-0,105	0,031
-660,189	-16,726	-0,115	0,054
-659,174	-200,000	0,034	-0,174
-658,159	800,000	-0,043	-0,132
-657,145	98,631	0,028	-0,024
-656,130	-109,314	0,075	-0,012
-655,116	172,632	0,074	-0,080
-654,101	-56,106	0,087	-0,029
-653,086	70,465	-0,091	0,069
-652,072	655,416	-0,036	0,069
-651,057	78,643	-0,036	-0,028
-650,043	-156,268	0,150	0,007
-649,028	661,908	-0,077	-0,149
-648,014	-131,073	0,174	-0,017
-646,999	-33,617	0,141	-0,058
-645,984	542,553	-0,024	-0,043
-644,970	-200,000	-0,007	-0,147
-643,955	-37,033	-0,035	-0,014
-642,941	146,676	-0,095	-0,095
-641,926	800,000	-0,023	-0,071
-640,911	-1,718	0,206	0,107
-639,897	-200,000	0,008	-0,037
-638,882	123,150	0,041	-0,038
-637,868	-200,000	-0,006	-0,060
-636,853	-104,205	-0,083	0,014
-635,838	800,000	-0,002	-0,005
-634,824	34,226	-0,142	-0,091
-633,809	-1,749	-0,055	-0,028
-632,795	-81,040	-0,093	0,023
-631,780	85,562	0,045	0,036
-630,765	-83,101	-0,061	-0,014
-629,751	-200,000	-0,008	-0,094
-628,736	190,830	-0,105	-0,117
-627,722	-93,836	-0,101	0,020
-626,707	800,000	0,018	-0,060
-625,692	479,206	0,058	-0,097
-624,678	-14,403	-0,020	0,009
-623,663	637,057	-0,076	-0,144
-622,649	-181,288	-0,041	-0,001
-621,634	711,839	-0,039	-0,076
-620,619	-200,000	-0,010	-0,275
-619,605	-29,005	-0,045	0,019
-618,590	48,924	-0,015	-0,011
-617,576	-34,186	0,150	0,061
-616,561	-18,891	-0,054	-0,025
-615,546	-119,439	-0,121	-0,015
-614,532	-57,963	-0,154	0,050
-613,517	319,112	-0,055	-0,077
-612,503	800,000	0,033	0,099
-611,488	800,000	0,013	-0,029
-610,474	189,679	0,067	-0,075
-609,459	267,829	0,050	-0,065
-608,444	-200,000	0,018	0,089
-607,430	582,380	-0,042	0,076
-606,415	-200,000	-0,032	-0,228
-605,401	635,302	0,030	-0,057
-604,386	92,629	0,089	0,074
-603,371	58,136	-0,084	0,061
-602,357	-200,000	0,007	0,107
-601,342	-87,852	-0,173	0,038
-600,328	64,536	-0,055	0,041
-599,313	153,534	0,063	0,064
-598,298	157,894	0,079	-0,082
-597,284	-200,000	0,042	-0,147
-596,269	800,000	0,024	-0,066
-595,255	-200,000	-0,018	0,259
-594,240	-149,180	-0,131	0,008
-593,225	-58,555	0,028	-0,009
-592,211	-200,000	-0,044	-0,165
-591,196	-200,000	0,006	0,045
-590,182	-200,000	0,039	-0,214
-589,167	108,257	0,068	0,060
-588,152	-200,000	-0,010	0,088
-587,138	-43,723	-0,111	-0,041
-586,123	75,138	-0,175	-0,137
-585,109	356,704	-0,105	-0,156
-584,094	-200,000	0,020	0,102
-583,079	-43,768	0,060	0,022
-582,065	-200,000	-0,008	-0,080
-581,050	800,000	-0,001	0,002
-580,036	-120,922	-0,132	0,016
-579,021	-200,000	-0,013	-0,047
-578,006	-200,000	-0,009	-0,053
-576,992	324,843	-0,017	-0,024
-575,977	424,194	0,032	-0,052
-574,963	233,343	0,100	0,122
-573,948	800,000	-0,062	0,151
-572,934	-113,440	-0,092	-0,013
-571,919	800,000	0,020	0,060
-570,904	55,997	-0,052	0,037
-569,890	-193,262	-0,075	-0,000
-568,875	-133,741	-0,014	0,001
-567,861	-36,808	0,136	0,054
-566,846	-38,600	-0,217	-0,084
-565,831	120,385	-0,133	0,122
-564,817	-26,097	0,095	0,041
-563,802	108,798	0,175	-0,155
-562,788	279,087	-0,079	-0,105
-561,773	31,883	-0,079	0,050
-560,758	-69,910	0,069	0,019
-559,744	-32,583	0,044	0,018
-558,729	122,555	0,037	-0,034
-557,715	-12,499	-0,194	-0,093
-556,700	-92,174	0,065	-0,014
-555,685	-200,000	0,012	-0,120
-554,671	-168,500	-0,124	0,003
-553,656	305,108	0,052	0,072
-552,642	47,604	0,062	-0,043
-551,627	-11,327	0,095	0,046
-550,612	-166,160	0,064	-0,002
-549,598	-146,120	-0,179	-0,011
-548,583	54,512	-0,066	-0,047
-547,569	-183,591	0,099	-0,001
-546,554	77,105	0,053	0,042
-545,539	-200,000	-0,005	0,059
-544,525	-15,605	0,135	0,064
-543,510	800,000	0,010	-0,030
-542,496	39,730	0,071	0,047
-541,481	793,296	0,032	-0,066
-540,466	168,414	-0,047	-0,050
-539,452	800,000	-0,043	-0,092
-538,437	61,782	0,137	-0,101
-537,423	3,151	-0,108	-0,058
-536,408	-200,000	-0,009	0,184
-535,393	536,994	-0,016	-0,029
-534,379	271,958	-0,019	0,025
-533,364	-200,000	-0,011	0,075
-532,350	90,144	0,086	0,071
-531,335	-142,622	0,160	0,011
-530,321	-87,183	-0,022	-0,005
-529,306	-61,366	-0,184	0,057
-528,291	800,000	0,019	-0,048
-527,277	-200,000	-0,021	0,073
-526,262	-60,465	-0,061	0,019
-525,248	140,414	0,096	0,093
-524,233	-154,724	0,062	0,003
-523,218	800,000	0,021	-0,059
-522,204	-108,668	-0,155	0,024
-521,189	-56,810	-0,078	-0,025
-520,175	-200,000	-0,031	-0,177
-519,160	-200,000	0,037	-0,158
-518,145	174,472	0,119	0,127
-517,131	120,445	-0,056	-0,051
-516,116	-55,891	0,103	-0,034
-515,102	800,000	-0,056	0,120
-514,087	85,457	0,030	0,024
-513,072	-171,838	-0,102	-0,002
-512,058	-36,453	0,104	0,041
-511,043	-111,556	-0,032	-0,005
-510,029	800,000	0,068	-0,171
-509,014	-123,256	0,098	0,011
-507,999	41,193	0,041	-0,027
-506,985	-123,372	-0,145	-0,017
-505,970	800,000	0,017	0,049
-504,956	800,000	0,006	-0,015
-503,941	800,000	0,031	-0,078
-502,926	185,848	0,148	0,163
-501,912	-200,000	-0,022	0,116
-500,897	121,354	0,073	-0,068
-499,883	-200,000	0,001	0,015
-498,868	44,670	-0,128	-0,087
-497,853	-2,866	-0,050	-0,026
-496,839	-200,000	0,004	-0,025
-495,824	-53,968	0,172	-0,057
-494,810	25,304	-0,062	-0,038
-493,795	-200,000	-0,011	0,144
-492,781	-200,000	0,007	-0,081
-491,766	578,789	-0,062	-0,112
-490,751	-200,000	0,022	-0,093
-489,737	-200,000	0,058	-0,195
-488,722	38,062	0,070	0,046
-487,708	632,990	-0,056	0,105
-486,693	21,268	-0,050	-0,030
-485,678	-200,000	0,009	0,107
-484,664	108,980	-0,107	-0,094
-483,649	-19,238	-0,076	-0,035
-482,635	-5,505	-0,050	0,025
-481,620	188,056	0,063	-0,070
-480,605	181,960	0,052	0,057
-479,591	15,781	0,091	-0,053
-478,576	137,339	-0,032	0,031
-477,562	-192,501	0,061	0,000
-476,547	147,097	-0,039	-0,039
-475,532	-45,514	-0,055	-0,020
-474,518	-200,000	0,008	0,049
-473,503	-200,000	0,006	-0,054
-472,489	151,232	-0,015	0,015
-471,474	800,000	0,050	0,132
-470,459	-47,864	-0,071	0,025
-469,445	-200,000	0,018	0,118
-468,430	-200,000	0,000	0,026
-467,416	-178,480	-0,034	-0,001
-466,401	-200,000	-0,012	0,167
-465,386	115,888	-0,016	-0,014
-464,372	-180,903	0,079	0,001
-463,357	-200,000	0,018	0,062
-462,343	-200,000	-0,015	-0,097
-461,328	-98,688	-0,044	-0,008
-460,313	-200,000	-0,024	0,102
-459,299	-200,000	0,008	0,092
-458,284	-156,037	-0,152	0,007
-457,270	-184,215	-0,111	-0,001
-456,255	-101,015	0,094	0,017
-455,241	2,677	-0,038	0,020
-454,226	-200,000	-0,003	0,114
-453,211	130,598	0,072	0,068
-452,197	145,663	0,057	0,057
-451,182	4,721	0,029	0,015
-450,168	320,453	0,089	0,124
-449,153	378,617	-0,092	0,139
-448,138	9,356	-0,037	-0,020
-447,124	15,277	-0,082	-0,047
-446,109	401,096	0,031	0,048
-445,095	132,222	0,113	0,107
-444,080	800,000	-0,079	0,183
-443,065	33,270	-0,058	0,037
-442,051	-200,000	-0,001	0,008
-441,036	320,034	-0,048	-0,067
-440,022	-200,000	-0,006	-0,083
-439,007	-200,000	0,011	-0,120
-437,992	189,414	0,027	-0,030
-436,978	374,957	0,039	-0,058
-435,963	-19,719	0,095	0,043
-434,949	83,053	-0,045	-0,036
-433,934	124,741	-0,042	-0,039
-432,919	-73,610	-0,085	0,023
-431,905	-200,000	0,019	-0,215
-430,890	-200,000	-0,009	0,077
-429,876	-2,571	0,122	0,063
-428,861	-78,995	0,044	0,011
-427,846	101,821	-0,002	0,002
-426,832	-46,012	0,073	-0,026
-425,817	253,988	0,047	-0,059
-424,803	2,538	-0,033	-0,017
-423,788	-142,472	0,172	0,012
-422,773	611,743	-0,011	-0,021
-421,759	171,363	0,060	0,063
-420,744	-200,000	-0,002	0,112
-419,730	5,369	-0,032	0,017
-418,715	800,000	0,045	-0,134
-417,701	145,982	0,109	-0,107
-416,686	457,087	-0,059	-0,097
-415,671	264,719	0,088	0,112
-414,657	-200,000	0,005	-0,032
-413,642	24,163	-0,096	-0,058
-412,628	103,522	0,026	-0,022
-411,613	122,764	0,127	0,117
-410,598	238,772	-0,051	-0,063
-409,584	-200,000	0,010	-0,097
-408,569	152,450	0,097	-0,098
-407,555	53,744	-0,034	0,024
-406,540	64,529	-0,061	0,045
-405,525	800,000	-0,025	0,081
-404,511	-70,735	-0,130	-0,036
-403,496	-44,955	0,049	-0,018
-402,482	-56,834	-0,049	0,016
-401,467	113,131	0,084	0,075
-400,452	-200,000	-0,022	0,130
-399,438	213,373	-0,089	0,104
-398,423	800,000	0,016	0,037
-397,409	-200,000	0,007	-0,056
-396,394	-200,000	0,011	-0,138
-395,379	149,337	0,065	0,065
-394,365	-91,474	-0,150	-0,031
-393,350	206,354	0,032	-0,037
-392,336	-200,000	-0,037	-0,180
-391,321	800,000	0,012	-0,037
-390,306	-200,000	0,001	-0,031
-389,292	800,000	-0,012	-0,025
-388,277	96,209	0,073	-0,061
-387,263	98,035	0,122	0,103
-386,248	51,570	0,084	-0,059
-385,233	-200,000	-0,017	0,062
-384,219	-123,026	0,046	0,005
-383,204	-50,481	0,038	-0,013
-382,190	685,968	-0,030	0,058
-381,175	34,832	0,020	-0,013
-380,160	-173,927	-0,118	-0,003
-379,146	-0,628	0,128	0,066
-378,131	-145,904	0,202	0,013
-377,117	0,213	-0,053	0,028
-376,102	-65,655	-0,085	-0,025
-375,088	93,434	0,021	-0,017
-374,073	-89,935	0,076	-0,016
-373,058	-200,000	-0,017	-0,062
-372,044	66,595	0,114	-0,085
-371,029	-200,000	-0,031	0,118
-370,015	95,891	0,054	-0,045
-369,000	-200,000	0,015	-0,072
-367,985	-161,966	-0,128	-0,005
-366,971	642,651	-0,037	-0,070
-365,956	66,558	-0,016	-0,012
-364,942	-200,000	0,015	0,055
-363,927	-112,309	-0,058	-0,008
-362,912	86,565	-0,057	0,046
-361,898	-8,922	0,072	-0,035
-360,883	238,437	-0,092	-0,112
-359,869	-5,169	-0,085	0,043
-358,854	2,323	-0,058	-0,031
-357,839	-200,000	0,013	0,117
-356,825	45,400	-0,086	-0,058
-355,810	15,229	0,078	-0,045
-354,796	237,803	0,123	-0,150
-353,781	-200,000	0,008	-0,049
-352,766	-108,409	0,033	0,005
-351,752	51,017	0,063	0,044
-350,737	800,000	0,015	-0,033
-349,723	-93,857	-0,054	0,011
-348,708	504,486	-0,050	-0,086
-347,693	800,000	-0,008	-0,019
-346,679	42,607	0,071	-0,047
-345,664	-34,150	-0,138	-0,055
-344,650	-45,812	0,061	-0,022
-343,635	-200,000	-0,013	0,096
-342,620	-83,838	0,122	0,028
-341,606	79,220	0,037	0,029
-340,591	-200,000	-0,006	-0,026
-339,577	59,074	-0,054	-0,039
-338,562	210,172	-0,038	0,044
-337,548	313,187	0,059	0,082
-336,533	-200,000	0,012	-0,040
-335,518	-23,685	0,028	-0,012
-334,504	572,834	0,085	0,152
-333,489	-200,000	0,002	0,090
-332,475	-200,000	0,012	-0,071
-331,460	183,018	-0,024	-0,026
-330,445	253,740	-0,031	0,039
-329,431	800,000	0,034	0,082
-328,416	37,346	0,082	0,054
-327,402	-21,126	0,115	0,052
-326,387	452,000	0,064	-0,105
-325,372	478,496	-0,070	-0,117
-324,358	685,352	0,039	-0,075
-323,343	82,791	-0,163	-0,130
-322,329	-130,610	0,093	0,009
-321,314	800,000	-0,041	-0,093
-320,299	615,679	-0,042	0,078
-319,285	-200,000	0,020	-0,064
-318,270	800,000	-0,020	-0,051
-317,256	-200,000	0,015	-0,080
-316,241	231,572	-0,076	-0,091
-315,226	69,823	0,088	-0,066
-314,212	234,569	0,061	0,074
-313,197	-189,561	0,081	-0,001
-312,183	-200,000	-0,010	0,035
-311,168	-119,098	-0,088	0,011
-310,153	800,000	0,010	-0,022
-309,139	-200,000	0,010	-0,159
-308,124	-200,000	0,003	-0,041
-307,110	-181,379	0,075	0,001
-306,095	-69,229	-0,111	-0,031
-305,080	42,255	0,130	0,087
-304,066	174,795	0,057	-0,061
-303,051	800,000	-0,055	0,122
-302,037	530,200	-0,020	-0,035
-301,022	-106,846	0,040	-0,007
-300,008	187,415	-0,039	0,042
-298,993	204,048	0,081	0,092
-297,978	-69,746	-0,033	0,009
-296,964	-132,550	-0,147	0,014
-295,949	362,134	-0,062	-0,092
-294,935	800,000	0,008	0,015
-293,920	28,745	0,140	0,087
-292,905	-200,000	-0,036	-0,174
-291,891	-200,000	0,006	0,177
-290,876	26,838	-0,074	-0,045
-289,862	-200,000	-0,006	-0,048
-288,847	698,552	-0,063	-0,122
-287,832	211,981	-0,007	-0,008
-286,818	35,181	-0,114	-0,073
-285,803	746,647	0,072	0,142
-284,789	42,810	-0,152	0,101
-283,774	89,305	0,118	0,096
-282,759	800,000	-0,050	-0,154
-281,745	-124,456	0,011	0,001
-280,730	180,689	0,032	-0,035
-279,716	-200,000	-0,025	0,081
-278,701	-200,000	-0,006	0,078
-277,686	27,652	0,176	0,108
-276,672	485,800	-0,031	0,052
-275,657	-64,708	-0,109	-0,032
-274,643	-200,000	0,008	0,035
-273,628	458,767	-0,040	-0,065
-272,613	-200,000	0,007	0,110
-271,599	-200,000	0,011	0,047
-270,584	-122,469	-0,058	-0,007
-269,570	301,800	-0,072	0,097
-268,555	-28,132	-0,043	-0,018
-267,540	86,095	-0,044	-0,035
-266,526	-200,000	0,006	-0,042
-265,511	207,786	0,054	-0,061
-264,497	-61,907	-0,056	-0,017
-263,482	-200,000	0,004	0,096
-262,467	-4,549	0,169	0,085
-261,453	292,929	-0,027	0,036
-260,438	-9,724	0,044	0,022
-259,424	163,207	0,073	-0,075
-258,409	2,183	-0,052	-0,028
-257,395	43,313	0,059	-0,040
-256,380	-200,000	0,002	0,063
-255,365	118,250	0,113	0,102
-254,351	58,575	0,104	0,075
-253,336	800,000	-0,038	-0,081
-252,322	800,000	0,054	0,111
-251,307	-115,585	-0,058	-0,008
-250,292	-142,208	0,124	0,009
-249,278	2,121	0,066	0,035
-248,263	-200,000	0,000	0,019
-247,249	-200,000	-0,029	0,114
-246,234	-158,893	0,089	0,004
-245,219	260,093	-0,032	-0,041
-244,205	460,688	-0,057	-0,093
-243,190	-113,330	0,051	0,007
-242,176	149,612	0,063	-0,062
-241,161	800,000	0,064	0,140
-240,146	-200,000	0,004	-0,049
-239,132	-200,000	0,046	0,183
-238,117	-80,434	0,039	-0,010
-237,103	2,378	0,133	-0,070
-236,088	-152,864	-0,088	-0,004
-235,073	102,368	-0,073	0,062
-234,059	800,000	-0,018	0,047
-233,044	800,000	0,031	0,079
-232,030	247,582	-0,097	-0,119
-231,015	-29,014	-0,139	-0,058
-230,000	156,532	0,019	-0,019
-228,986	217,365	0,046	0,054
-227,971	76,330	0,046	-0,035
-226,957	-2,835	-0,085	-0,043
-225,942	-200,000	0,008	0,093
-224,927	93,289	0,037	0,030
-223,913	713,810	0,050	-0,098
-222,898	73,986	-0,088	-0,068
-221,884	82,526	-0,112	-0,089
-220,869	140,034	0,101	0,097
-219,855	-200,000	-0,030	0,160
-218,840	-40,066	-0,058	0,022
-217,825	394,796	-0,043	0,065
-216,811	-52,491	-0,106	0,036
-215,796	23,232	0,095	0,057
-214,782	-5,232	-0,053	0,026
-213,767	2,550	0,099	0,052
-212,752	104,131	0,151	-0,129
-211,738	-104,438	0,024	-0,004
-210,723	-108,773	-0,085	-0,013
-209,709	-84,029	-0,051	0,012
-208,694	-5,896	-0,044	0,022
-207,679	800,000	-0,010	0,031
-206,665	-14,375	0,124	-0,058
-205,650	-200,000	-0,017	0,173
-204,636	-23,806	0,142	0,062
-203,621	-200,000	0,005	0,080
-202,606	-28,224	-0,152	-0,064
-201,592	800,000	0,009	-0,029
-200,577	-39,867	0,060	-0,023
-199,563	-93,128	0,009	-0,002
-198,548	308,248	0,044	0,060
-197,533	581,696	-0,043	0,077
-196,519	371,087	-0,034	0,050
-195,504	280,955	-0,055	0,073
-194,490	-70,592	-0,075	-0,021
-193,475	591,522	0,034	-0,062
-192,460	160,855	-0,140	-0,143
-191,446	-76,234	0,106	0,027
-190,431	-62,862	0,097	-0,029
-189,417	176,400	0,073	0,078
-188,402	751,851	-0,037	0,074
-187,387	440,020	-0,037	0,059
-186,373	-200,000	0,007	0,145
-185,358	-31,901	0,162	0,066
-184,344	137,597	-0,021	-0,020
-183,329	234,961	0,031	-0,037
-182,315	-65,375	0,055	-0,016
-181,300	-200,000	-0,003	-0,046
-180,285	-15,229	-0,199	-0,093
-179,271	-3,295	0,103	-0,052
-178,256	-71,078	-0,043	0,012
-177,242	-200,000	0,004	0,190
-176,227	-1,795	0,120	0,061
-175,212	61,842	0,053	0,038
-174,198	593,288	-0,022	0,039
-173,183	31,631	-0,091	0,057
-172,169	-200,000	-0,002	0,044
-171,154	-200,000	-0,003	-0,026
-170,139	-1,730	-0,039	0,020
-169,125	328,679	0,056	0,078
-168,110	-200,000	0,010	0,060
-167,096	1,684	0,042	-0,022
-166,081	457,064	-0,084	-0,137
-165,066	165,767	-0,052	0,054
-164,052	-47,465	0,084	-0,030
-163,037	-200,000	0,003	-0,045
-162,023	-200,000	-0,006	0,032
-161,008	545,844	-0,058	0,101
-159,993	-200,000	-0,015	0,064
-158,979	409,617	-0,132	0,205
-157,964	800,000	0,012	-0,031
-156,950	-200,000	0,002	-0,034
-155,935	-73,997	0,072	-0,019
-154,920	342,894	-0,049	-0,071
-153,906	-200,000	-0,039	0,151
-152,891	800,000	-0,087	0,186
-151,877	800,000	-0,048	0,103
-150,862	-39,727	-0,086	-0,032
-149,847	-138,941	0,122	-0,010
-148,833	721,448	-0,024	0,047
-147,818	800,000	-0,022	-0,062
-146,804	543,241	0,067	-0,116
-145,789	-106,220	-0,109	-0,018
-144,775	-200,000	0,028	0,139
-143,760	329,318	0,099	-0,139
-142,745	800,000	0,022	-0,062
-141,731	-200,000	0,014	0,049
-140,716	-200,000	-0,002	-0,091
-139,702	27,933	0,154	0,094
-138,687	800,000	0,026	0,063
-137,672	-150,011	-0,117	-0,007
-136,658	-93,991	0,030	0,006
-135,643	99,765	-0,131	-0,110
-134,629	162,966	-0,032	-0,033
-133,614	-200,000	-0,020	0,115
-132,599	-200,000	-0,001	0,066
-131,585	-116,795	0,123	-0,016
-130,570	-150,563	-0,084	0,005
-129,556	189,598	-0,075	-0,082
-128,541	800,000	-0,033	-0,084
-127,526	-200,000	-0,014	0,142
-126,512	42,840	0,102	0,068
-125,497	-187,666	-0,109	-0,001
-124,483	746,174	-0,011	0,021
-123,468	119,724	0,051	0,046
-122,453	192,686	-0,101	-0,111
-121,439	-41,981	-0,082	-0,030
-120,424	-200,000	-0,032	0,137
-119,410	269,532	0,022	-0,028
-118,395	249,272	0,092	0,114
-117,380	-113,809	0,037	0,005
-116,366	-96,068	-0,155	-0,030
-115,351	122,183	-0,045	0,041
-114,337	-113,137	0,076	-0,011
-113,322	348,013	-0,052	-0,075
-112,307	186,498	0,022	0,024
-111,293	800,000	0,015	0,038
-110,278	-17,931	-0,030	0,014
-109,264	129,571	0,114	0,106
-108,249	-28,229	0,117	0,049
-107,234	58,099	0,057	-0,040
-106,220	-63,228	-0,150	0,045
-105,205	-10,848	0,063	-0,030
-104,191	138,488	-0,048	-0,046
-103,176	-62,738	0,015	-0,004
-102,162	15,041	0,070	-0,040
-101,147	156,070	0,057	0,058
-100,132	-43,277	-0,048	-0,018
-99,118	-200,000	0,004	-0,014
-98,103	491,483	-0,060	0,100
-97,089	-18,145	-0,083	0,037
-96,074	101,098	0,051	0,043
-95,059	136,629	0,117	0,111
-94,045	129,942	0,027	-0,025
-93,030	59,633	-0,042	0,030
-92,016	-200,000	-0,011	0,055
-91,001	-56,661	-0,069	0,022
-89,986	357,103	-0,078	0,113
-88,972	-200,000	-0,000	0,043
-87,957	-17,965	-0,134	-0,061
-86,943	383,300	-0,016	-0,023
-85,928	43,900	-0,063	-0,042
-84,913	800,000	-0,010	0,024
-83,899	-149,100	0,132	-0,008
-82,884	-146,475	0,095	0,006
-81,870	-24,829	0,138	-0,059
-80,855	-93,938	-0,070	-0,014
-79,840	800,000	-0,035	0,090
-78,826	-61,505	-0,065	0,020
-77,811	65,000	-0,075	-0,055
-76,797	-26,750	-0,081	-0,034
-75,782	399,092	-0,059	-0,090
-74,767	-9,793	0,067	0,032
-73,753	-200,000	0,008	0,057
-72,738	-200,000	0,021	-0,080
-71,724	800,000	-0,036	-0,087
-70,709	-200,000	-0,012	0,063
-69,694	-200,000	-0,007	0,101
-68,680	524,658	0,031	0,053
-67,665	5,682	0,144	0,077
-66,651	138,331	0,063	0,060
-65,636	46,771	-0,076	-0,051
-64,622	288,700	0,110	-0,145
-63,607	-200,000	0,021	-0,074
-62,592	81,780	-0,181	-0,142
-61,578	-112,886	0,026	0,004
-60,563	94,151	0,077	0,063
-59,549	-200,000	-0,009	0,164
-58,534	-123,962	-1,413	-0,159
-57,519	361,096	-0,921	-1,343
-56,505	-200,000	-0,898	-4,375
-55,490	-27,538	0,684	-0,287
-54,476	800,000	4,951	11,845
-53,461	-200,000	13,428	252,377
-52,446	-200,000	688,952	2268,414
-51,432	596,109	1623,120	2927,513
-50,417	120,912	1636,244	1476,469
-49,403	73,567	1290,281	979,308
-48,388	38,378	1025,097	661,229
-47,373	24,565	982,553	588,354
-46,359	23,740	972,386	579,537
-45,344	22,848	967,982	573,972
-44,330	22,780	966,544	572,875
-43,315	22,720	965,034	571,763
-42,300	22,602	964,241	570,886
-41,286	22,684	963,144	570,478
-40,271	22,655	962,182	569,791
-39,257	22,631	961,374	569,215
-38,242	22,641	960,264	568,565
-37,227	22,606	959,658	568,071
-36,213	22,582	958,606	567,347
-35,198	22,546	957,963	566,829
-34,184	22,642	957,213	566,674
-33,169	22,526	956,531	565,873
-32,154	22,686	955,282	565,627
-31,140	22,671	954,448	565,063
-30,125	22,674	953,776	564,651
-29,111	22,685	952,697	564,027
-28,096	22,650	952,357	563,689
-27,082	22,655	951,612	563,244
-26,067	22,697	950,683	562,805
-25,052	22,673	950,205	562,422
-24,038	22,600	949,594	561,806
-23,023	22,661	948,733	561,467
-22,009	22,698	948,197	561,247
-20,994	22,693	947,490	560,789
-19,979	22,664	946,899	560,324
-18,965	22,665	946,359	559,987
-17,950	22,679	945,647	559,590
-16,936	22,617	944,933	558,945
-15,921	22,616	944,224	558,500
-14,906	22,578	943,511	557,936
-13,892	22,563	942,932	557,523
-12,877	22,513	942,386	557,021
-11,863	22,499	941,674	556,534
-10,848	22,582	941,135	556,454
-9,833	22,620	940,784	556,347
-8,819	22,572	940,142	555,793
-7,804	22,566	939,329	555,272
-6,790	22,520	938,840	554,815
-5,775	22,629	938,133	554,718
-4,760	22,564	937,573	554,160
-3,746	22,543	936,990	553,728
-2,731	22,374	936,385	552,814
-1,717	22,361	935,457	552,202
-0,702	22,343	934,949	551,823
0,313	22,111	934,381	551,590
1,327	25,151	932,310	559,882
2,342	34,767	796,570	503,986
3,356	32,569	452,056	282,675
4,371	1,716	293,770	152,920
5,386	-2,561	274,259	138,711
6,400	-4,058	268,712	134,506
7,415	-4,451	266,433	132,991
8,429	-4,161	265,172	132,616
9,444	-4,185	264,245	132,119
10,459	-4,176	263,633	131,809
11,473	-4,283	263,144	131,455
12,488	-4,259	262,472	131,130
13,502	-4,360	262,070	130,826
14,517	-4,273	261,513	130,615
15,531	-4,333	261,209	130,398
16,546	-4,261	260,786	130,239
17,561	-4,344	260,560	130,041
18,575	-4,237	260,218	129,955
19,590	-4,355	259,833	129,645
20,604	-4,316	259,559	129,531
21,619	-4,356	259,321	129,365
22,634	-4,228	258,920	129,269
23,648	-4,188	258,682	129,173
24,663	-4,276	258,358	128,922
25,677	-4,322	258,110	128,745
26,692	-4,281	257,827	128,630
27,707	-4,328	257,700	128,513
28,721	-4,361	257,371	128,308
29,736	-4,577	257,216	128,028
30,750	-4,209	256,770	128,120
31,765	-4,152	256,472	128,011
32,780	-4,428	256,360	127,699
33,794	-4,486	256,233	127,573
34,809	-4,427	255,907	127,452
35,823	-4,360	255,599	127,345
36,838	-4,439	255,377	127,154
37,853	-4,347	255,109	127,090
38,867	-4,452	254,960	126,912
39,882	-4,496	254,768	126,767
40,896	-4,474	254,409	126,596
41,911	-4,368	254,326	126,636
42,926	-4,309	253,983	126,506
43,940	-4,605	253,920	126,205
44,955	-4,646	253,531	125,965
45,969	-4,584	253,286	125,885
46,984	-4,665	253,098	125,711
47,999	-4,946	252,985	125,399
49,013	-4,872	252,614	125,268
50,028	-5,248	252,489	124,868
51,042	-5,114	252,017	124,740
52,057	-5,246	251,831	124,522
53,071	-5,114	251,616	124,519
54,086	-5,310	251,540	124,301
55,101	-5,040	251,535	124,521
56,115	-4,633	251,143	124,667
57,130	-4,251	251,170	124,999
58,144	-4,019	250,916	125,061
59,159	-4,100	250,712	124,878
60,174	-4,252	250,628	124,695
61,188	-4,187	250,304	124,578
62,203	-4,235	250,089	124,419
63,217	-4,290	249,879	124,256
64,232	-4,323	249,696	124,126
65,247	-4,229	249,535	124,116
66,261	-4,227	249,235	123,957
67,276	-4,548	248,951	123,531
68,290	-4,718	248,758	123,279
69,305	-4,780	248,529	123,101
70,320	-4,721	248,292	123,022
71,334	-4,420	248,114	123,180
72,349	-4,108	248,051	123,404
73,363	-4,251	247,955	123,223
74,378	-4,255	247,734	123,098
75,393	-4,180	247,486	123,028
76,407	-4,296	247,310	122,832
77,422	-4,336	247,131	122,697
78,436	-4,246	246,944	122,670
79,451	-4,397	246,793	122,456
80,466	-4,365	246,542	122,348
81,480	-4,559	246,193	122,000
82,495	-4,600	246,045	121,881
83,509	-4,479	245,838	121,870
84,524	-4,650	245,654	121,623
85,539	-4,606	245,276	121,463
86,553	-4,658	245,308	121,424
87,568	-4,721	245,006	121,211
88,582	-4,741	244,821	121,092
89,597	-4,687	244,672	121,052
90,611	-4,360	244,583	121,271
91,626	-4,283	244,448	121,258
92,641	-4,367	244,217	121,063
93,655	-4,298	243,882	120,943
94,670	-4,640	243,981	120,696
95,684	-4,577	243,662	120,580
96,699	-4,449	243,464	120,578
97,714	-4,821	243,329	120,190
98,728	-4,565	243,002	120,231
99,743	-4,839	242,841	119,913
100,757	-4,746	242,578	119,850
101,772	-4,730	242,449	119,788
102,787	-4,780	242,371	119,698
103,801	-4,572	242,161	119,755
104,816	-4,455	241,965	119,745
105,830	-4,377	241,911	119,772
106,845	-4,420	241,782	119,662
107,860	-4,403	241,628	119,590
108,874	-4,420	241,319	119,411
109,889	-4,396	240,930	119,228
110,903	-4,679	240,898	118,969
111,918	-4,524	240,667	118,971
112,933	-4,480	240,624	118,975
113,947	-4,506	240,287	118,777
114,962	-4,391	240,227	118,832
115,976	-4,559	240,068	118,604
116,991	-4,430	239,905	118,619
118,006	-4,467	239,784	118,518
119,020	-4,643	239,753	118,348
120,035	-4,474	239,540	118,371
121,049	-4,378	239,397	118,368
122,064	-4,453	239,208	118,202
123,079	-4,435	238,896	118,053
124,093	-4,318	238,693	118,037
125,108	-4,544	238,418	117,707
126,122	-4,786	238,207	117,395
127,137	-4,966	238,233	117,251
128,151	-4,518	237,868	117,425
129,166	-4,582	237,756	117,307
130,181	-4,505	237,537	117,251
131,195	-4,639	237,369	117,049
132,210	-4,437	237,120	117,080
133,224	-4,612	237,124	116,929
134,239	-4,504	237,118	117,003
135,254	-4,488	236,999	116,947
136,268	-4,464	236,575	116,746
137,283	-4,838	236,322	116,310
138,297	-5,008	236,129	116,068
139,312	-5,111	235,964	115,894
140,327	-4,489	235,860	116,333
141,341	-4,240	235,921	116,552
142,356	-4,183	235,721	116,489
143,370	-4,148	235,622	116,458
144,385	-3,937	235,412	116,513
145,400	-4,015	235,290	116,380
146,414	-4,093	235,019	116,173
147,429	-4,082	234,844	116,084
148,443	-4,176	234,653	115,904
149,458	-3,972	234,515	115,989
150,473	-4,032	234,374	115,862
151,487	-4,371	234,196	115,492
152,502	-4,093	234,018	115,617
153,516	-4,213	233,992	115,497
154,531	-4,117	233,654	115,397
155,546	-4,319	233,549	115,174
156,560	-4,387	233,419	115,045
157,575	-4,373	233,318	114,996
158,589	-4,360	233,076	114,877
159,604	-4,023	232,948	115,071
160,619	-4,134	232,718	114,859
161,633	-3,933	232,624	114,962
162,648	-4,112	232,519	114,758
163,662	-3,945	232,211	114,728
164,677	-4,142	232,079	114,497
165,692	-4,221	231,930	114,350
166,706	-4,095	231,795	114,373
167,721	-3,774	231,678	114,558
168,735	-3,914	231,436	114,318
169,750	-4,220	231,436	114,067
170,764	-4,122	231,264	114,049
171,779	-4,186	231,225	113,969
172,794	-3,898	230,848	114,000
173,808	-4,053	230,570	113,731
174,823	-4,500	230,357	113,265
175,837	-4,541	230,180	113,136
176,852	-4,371	230,303	113,319
177,867	-4,206	230,074	113,326
178,881	-3,935	229,872	113,428
179,896	-4,235	229,927	113,211
180,910	-4,078	229,537	113,131
181,925	-3,932	229,390	113,162
182,940	-3,983	229,307	113,072
183,954	-3,845	229,223	113,127
184,969	-4,133	229,255	112,909
185,983	-3,870	228,914	112,936
186,998	-3,836	228,851	112,921
188,013	-3,835	228,518	112,747
189,027	-3,880	228,525	112,705
190,042	-3,778	228,204	112,616
191,056	-3,967	228,200	112,458
192,071	-4,051	228,084	112,325
193,086	-3,902	227,902	112,341
194,100	-4,003	227,791	112,198
195,115	-4,033	227,265	111,906
196,129	-4,604	227,193	111,420
197,144	-2,212	227,922	113,617
198,159	1,413	228,813	116,860
199,173	4,011	229,483	119,205
200,188	4,360	229,416	119,431
201,202	4,357	229,284	119,349
202,217	4,486	229,294	119,443
203,232	4,478	229,084	119,317
204,246	4,789	228,838	119,418
205,261	4,856	228,809	119,444
206,275	4,818	228,727	119,361
207,290	4,933	228,609	119,377
208,304	4,727	228,495	119,148
209,319	4,739	228,226	119,007
210,334	4,645	228,081	118,848
211,348	4,277	227,883	118,452
212,363	4,047	227,543	118,088
213,377	3,831	227,331	117,802
214,392	4,058	227,092	117,842
215,407	4,078	226,952	117,774
216,421	3,843	227,085	117,652
217,436	3,941	226,672	117,503
218,450	3,735	226,480	117,235
219,465	3,731	226,330	117,144
220,480	3,855	226,313	117,220
221,494	3,696	226,166	117,012
222,509	3,994	225,884	117,082
223,523	3,852	225,851	116,947
224,538	3,890	225,556	116,812
225,553	3,980	225,445	116,813
226,567	4,167	225,437	116,941
227,582	4,170	225,347	116,885
228,596	4,091	225,179	116,728
229,611	4,130	225,029	116,670
230,626	3,752	224,754	116,231
231,640	3,996	224,705	116,380
232,655	4,090	224,642	116,408
233,669	4,348	224,568	116,553
234,684	4,692	224,314	116,671
235,699	4,518	224,043	116,388
236,713	4,027	223,997	115,984
237,728	3,989	223,739	115,812
238,742	3,748	223,660	115,579
239,757	3,838	223,494	115,550
240,772	3,908	223,291	115,488
241,786	3,902	223,073	115,361
242,801	4,069	223,151	115,516
243,815	4,401	222,949	115,650
244,830	4,165	222,857	115,415
245,844	4,171	222,628	115,291
246,859	4,165	222,281	115,096
247,874	4,187	222,467	115,198
248,888	4,094	222,195	114,978
249,903	4,012	222,133	114,875
250,917	3,934	221,995	114,734
251,932	3,821	221,823	114,551
252,947	3,962	221,477	114,468
253,961	3,753	221,432	114,278
254,976	3,862	221,301	114,282
255,990	4,020	221,187	114,330
257,005	3,943	221,165	114,251
258,020	3,998	221,036	114,216
259,034	4,135	220,984	114,280
260,049	4,398	220,619	114,276
261,063	4,140	220,570	114,049
262,078	4,360	220,341	114,083
263,093	4,609	220,207	114,188
264,107	4,488	220,046	114,005
265,122	4,091	220,092	113,726
266,136	4,595	219,825	113,949
267,151	4,500	219,814	113,863
268,166	4,184	219,415	113,414
269,180	3,928	219,239	113,124
270,195	3,802	219,116	112,958
271,209	3,756	219,010	112,859
272,224	3,998	218,910	112,975
273,239	4,202	218,755	113,035
274,253	3,926	218,667	112,777
275,268	3,851	218,328	112,538
276,282	3,907	218,223	112,514
277,297	3,705	218,113	112,300
278,312	3,594	218,027	112,164
279,326	3,902	217,960	112,345
280,341	3,877	217,812	112,240
281,355	4,076	217,613	112,273
282,370	3,908	217,568	112,117
283,384	3,814	217,144	111,820
284,399	3,541	216,987	111,531
285,414	3,687	216,963	111,615
286,428	3,944	217,000	111,811
287,443	4,179	216,787	111,861
288,457	4,307	216,772	111,937
289,472	3,801	216,572	111,457
290,487	3,568	216,308	111,142
291,501	3,468	216,075	110,940
292,516	3,647	215,967	111,004
293,530	3,823	215,772	111,021
294,545	3,943	215,703	111,063
295,560	3,943	215,602	111,000
296,574	4,123	215,360	110,996
297,589	4,037	215,385	110,937
298,603	3,933	215,410	110,864
299,618	3,811	215,193	110,655
300,633	3,934	214,896	110,581
301,647	4,286	214,927	110,841
302,662	4,296	214,896	110,822
303,676	4,070	214,751	110,575
304,691	4,108	214,485	110,455
305,706	4,308	214,319	110,503
306,720	4,435	214,246	110,546
307,735	4,056	214,157	110,219
308,749	3,880	213,878	109,940
309,764	3,936	213,852	109,957
310,779	4,220	213,724	110,084
311,793	4,103	213,659	109,957
312,808	3,983	213,436	109,747
313,822	4,193	213,229	109,780
314,837	4,051	213,083	109,595
315,852	3,581	212,973	109,194
316,866	3,799	212,862	109,283
317,881	4,018	212,778	109,385
318,895	4,104	212,636	109,363
319,910	4,040	212,442	109,208
320,925	3,745	212,201	108,866
321,939	3,771	212,065	108,805
322,954	3,600	211,899	108,589
323,968	4,092	211,996	108,977
324,983	4,068	211,871	108,886
325,997	4,224	211,752	108,926
327,012	3,983	211,630	108,683
328,027	3,914	211,508	108,562
329,041	4,224	211,327	108,678
330,056	4,384	211,275	108,754
331,070	3,995	211,001	108,330
332,085	3,412	210,757	107,785
333,100	3,955	210,592	108,072
334,114	3,941	210,614	108,064
335,129	3,798	210,451	107,870
336,143	3,674	210,260	107,676
337,158	3,757	210,116	107,651
338,173	3,869	210,009	107,665
339,187	3,828	209,678	107,456
340,202	3,622	209,647	107,287
341,216	3,419	209,501	107,061
342,231	3,578	209,421	107,122
343,246	3,731	209,157	107,084
344,260	3,683	209,251	107,089
345,275	3,803	209,027	107,049
346,289	4,050	209,030	107,212
347,304	3,826	208,896	106,978
348,319	4,071	208,711	107,045
349,333	3,933	208,511	106,836
350,348	4,031	208,449	106,863
351,362	4,266	208,262	106,921
352,377	4,134	208,155	106,765
353,392	3,950	208,046	106,572
354,406	4,038	207,983	106,591
355,421	194,138	1345,940	1435,027
356,435	154,893	1484,697	1435,149
