DTS Sentinel unit serial number:	SN410029Multiplexer serial number:	ORYXHardware model number:	OX2-SRSoftware version number:	ORYX F/W v4,00 Oryx Data Collector v3.7.2.0data status	okinstallation	B6 Nyhavnadifferential loss correction	single-endedforward channel	channel 2reverse channel	N/Adate	2023/12/08time	13:05:08forward acquisition time	300,00reverse acquisition time	0,00gamma	499,1914k internal	0,3159k external	0,3159temperature offset calibration	1,0000default loss term (dB/km)	0,3820temperature slope calibration	1,0000multiplexer offset coefficient	1,0000multiplexer slope coefficient	1,0000fibre end	0,00T internal ref (°C)	15,06T ext. ref 1 (°C)	-1,50T ext. ref 2 (°C)	-1,51length (m)	temperature (°C)	Stokes	anti-Stokes-744,400	255,864	0,058	0,073
-743,385	-18,426	-0,305	-0,140
-742,371	293,430	0,134	0,180
-741,356	-142,362	-0,257	0,018
-740,342	-35,226	0,258	0,103
-739,327	-180,535	-0,359	0,005
-738,312	-147,905	0,130	0,008
-737,298	-163,276	-0,394	0,014
-736,283	34,876	0,092	0,059
-735,269	-108,346	-0,354	0,056
-734,254	-200,000	0,018	0,112
-733,239	-24,570	-0,451	-0,197
-732,225	-8,560	0,222	-0,109
-731,210	-117,169	-0,133	0,018
-730,196	-200,000	0,004	-0,066
-729,181	-17,165	-0,078	-0,036
-728,167	-200,000	0,014	-0,052
-727,152	58,011	-0,079	0,057
-726,137	-200,000	-0,001	-0,044
-725,123	-200,000	0,014	-0,121
-724,108	8,726	-0,067	-0,037
-723,094	800,000	-0,033	-0,087
-722,079	252,641	-0,053	-0,067
-721,064	86,200	0,087	-0,071
-720,050	102,381	0,063	0,055
-719,035	-200,000	-0,016	-0,128
-718,021	297,557	-0,054	0,073
-717,006	-73,329	0,103	0,028
-715,991	116,344	-0,069	-0,062
-714,977	-187,592	-0,144	-0,001
-713,962	-68,849	0,039	-0,011
-712,948	-14,255	0,022	0,011
-711,933	-200,000	-0,002	0,062
-710,918	-200,000	0,005	0,019
-709,904	34,950	-0,088	-0,056
-708,889	92,994	-0,195	-0,162
-707,875	-200,000	-0,015	-0,096
-706,860	-130,411	-0,149	-0,015
-705,845	129,096	0,068	-0,064
-704,831	345,882	-0,098	0,142
-703,816	-85,357	0,069	0,016
-702,802	-92,920	-0,192	-0,039
-701,787	-200,000	-0,012	0,068
-700,772	202,832	-0,055	0,062
-699,758	207,709	-0,041	-0,047
-698,743	800,000	-0,050	0,116
-697,729	42,106	-0,113	0,076
-696,714	-200,000	0,011	0,071
-695,699	-11,676	0,030	-0,015
-694,685	-200,000	-0,026	-0,207
-693,670	800,000	-0,027	0,069
-692,656	-200,000	0,002	0,074
-691,641	175,169	0,070	0,074
-690,627	153,446	-0,073	0,074
-689,612	-78,750	0,190	-0,047
-688,597	-3,602	-0,110	0,056
-687,583	800,000	-0,040	0,099
-686,568	-57,129	-0,064	0,021
-685,554	260,765	0,025	-0,032
-684,539	-200,000	-0,000	0,005
-683,524	693,087	0,079	-0,153
-682,510	-200,000	0,002	-0,070
-681,495	28,795	-0,022	-0,014
-680,481	-144,580	-0,126	0,008
-679,466	589,223	-0,059	-0,107
-678,451	348,988	-0,033	0,048
-677,437	-9,814	0,076	-0,037
-676,422	800,000	0,048	0,104
-675,408	-200,000	0,010	0,066
-674,393	-90,965	0,031	0,006
-673,378	553,634	0,042	-0,074
-672,364	-156,487	-0,106	0,005
-671,349	-200,000	-0,007	-0,091
-670,335	-36,131	-0,126	-0,050
-669,320	-157,719	0,107	0,005
-668,305	361,942	-0,042	-0,062
-667,291	-200,000	0,046	-0,184
-666,276	105,779	-0,081	0,070
-665,262	-36,610	-0,084	0,033
-664,247	-91,439	-0,077	0,016
-663,232	-139,734	0,086	0,007
-662,218	-24,047	0,096	0,042
-661,203	190,411	0,051	0,057
-660,189	-157,209	-0,147	-0,006
-659,174	362,889	-0,092	0,136
-658,159	178,119	-0,051	-0,055
-657,145	-53,437	-0,099	-0,033
-656,130	-200,000	0,009	0,118
-655,116	-170,796	0,155	-0,004
-654,101	-200,000	-0,013	-0,089
-653,086	617,082	-0,027	-0,049
-652,072	-200,000	0,003	-0,094
-651,057	99,424	-0,193	-0,164
-650,043	-200,000	-0,019	-0,139
-649,028	-200,000	0,004	0,020
-648,014	-200,000	0,029	-0,100
-646,999	-200,000	0,005	0,058
-645,984	34,611	-0,031	-0,020
-644,970	-200,000	-0,017	-0,139
-643,955	-18,062	0,039	-0,018
-642,941	-47,179	-0,086	0,031
-641,926	-95,068	0,034	0,007
-640,911	-50,061	-0,011	0,004
-639,897	-82,553	-0,043	0,010
-638,882	-138,023	0,093	0,008
-637,868	-8,541	-0,096	0,047
-636,853	4,186	0,048	-0,026
-635,838	-200,000	-0,005	-0,097
-634,824	154,053	0,016	0,016
-633,809	-54,787	0,121	0,040
-632,795	-102,312	-0,078	-0,014
-631,780	800,000	-0,056	0,121
-630,765	800,000	-0,057	0,146
-629,751	-10,630	-0,069	-0,033
-628,736	800,000	0,015	0,031
-627,722	-101,388	0,067	-0,012
-626,707	-200,000	-0,006	0,157
-625,692	800,000	0,024	0,067
-624,678	-200,000	-0,013	-0,057
-623,663	-200,000	-0,036	0,122
-622,649	221,228	0,019	-0,022
-621,634	-89,007	-0,149	-0,032
-620,619	-22,123	0,111	0,049
-619,605	109,943	-0,014	0,012
-618,590	184,026	-0,073	-0,080
-617,576	-12,863	0,061	-0,029
-616,561	-200,000	0,005	-0,041
-615,546	97,534	-0,085	-0,072
-614,532	103,897	-0,060	-0,052
-613,517	36,267	-0,070	0,045
-612,503	800,000	0,049	-0,156
-611,488	-45,544	0,092	-0,033
-610,474	15,919	0,092	0,053
-609,459	117,331	-0,090	-0,081
-608,444	-87,075	0,073	0,016
-607,430	107,367	-0,071	0,061
-606,415	59,723	-0,060	-0,043
-605,401	154,965	-0,096	-0,097
-604,386	256,781	0,043	0,054
-603,371	362,900	0,031	-0,046
-602,357	800,000	0,033	-0,082
-601,342	-200,000	-0,006	-0,121
-600,328	-7,891	0,140	-0,069
-599,313	-72,504	-0,209	-0,056
-598,298	-200,000	0,017	-0,096
-597,284	-135,551	-0,029	-0,002
-596,269	-200,000	0,016	0,109
-595,255	366,767	0,096	0,143
-594,240	36,169	-0,118	-0,076
-593,225	42,319	-0,022	0,015
-592,211	-200,000	-0,008	-0,102
-591,196	-148,808	0,073	-0,004
-590,182	-27,158	-0,054	0,023
-589,167	-15,451	0,094	-0,044
-588,152	86,300	-0,118	-0,095
-587,138	376,981	-0,084	-0,126
-586,123	800,000	0,020	0,050
-585,109	800,000	0,025	-0,057
-584,094	58,909	0,088	-0,063
-583,079	674,119	-0,033	0,063
-582,065	-200,000	-0,014	0,100
-581,050	-64,525	0,048	0,014
-580,036	31,949	0,153	0,096
-579,021	-118,133	-0,151	-0,020
-578,006	-38,709	-0,103	-0,039
-576,992	800,000	0,030	-0,072
-575,977	-39,248	0,069	0,026
-574,963	253,918	0,103	-0,129
-573,948	-115,472	0,066	0,009
-572,934	59,750	-0,094	0,068
-571,919	-200,000	-0,003	-0,073
-570,904	774,848	-0,024	-0,047
-569,890	176,442	0,080	-0,085
-568,875	94,519	0,025	-0,021
-567,861	-20,151	0,024	0,011
-566,846	-104,852	-0,105	0,017
-565,831	-137,023	-0,088	0,007
-564,817	-200,000	0,009	-0,098
-563,802	-54,758	0,076	0,025
-562,788	349,105	-0,113	0,164
-561,773	-200,000	0,012	-0,056
-560,758	510,229	-0,017	-0,029
-559,744	-200,000	0,016	0,072
-558,729	-200,000	0,012	0,049
-557,715	29,275	0,039	0,024
-556,700	800,000	-0,038	0,117
-555,685	485,600	0,007	-0,011
-554,671	518,079	0,055	0,095
-553,656	-200,000	-0,003	0,057
-552,642	-200,000	0,034	0,239
-551,627	-31,187	-0,057	0,023
-550,612	145,356	0,017	-0,017
-549,598	800,000	0,019	-0,048
-548,583	-120,792	-0,025	0,003
-547,569	-200,000	-0,009	-0,030
-546,554	-200,000	-0,012	-0,077
-545,539	-3,886	-0,126	-0,064
-544,525	128,322	-0,045	0,042
-543,510	-198,870	-0,069	0,000
-542,496	207,093	-0,113	-0,129
-541,481	362,796	-0,047	-0,069
-540,466	-76,885	-0,063	-0,016
-539,452	800,000	-0,036	-0,080
-538,437	55,548	0,095	0,067
-537,423	-63,593	-0,160	0,048
-536,408	125,518	-0,125	-0,115
-535,393	-55,068	-0,130	-0,042
-534,379	-68,162	-0,071	0,020
-533,364	9,352	-0,145	-0,080
-532,350	-200,000	-0,025	0,117
-531,335	800,000	0,023	-0,049
-530,321	338,896	-0,056	-0,081
-529,306	237,505	0,035	0,042
-528,291	-53,591	0,090	-0,030
-527,277	66,593	0,015	0,012
-526,262	-12,334	-0,021	0,010
-525,248	-200,000	-0,003	-0,021
-524,233	51,295	0,079	-0,055
-523,218	-200,000	0,000	0,059
-522,204	-47,185	-0,048	-0,017
-521,189	-200,000	-0,006	-0,057
-520,175	19,844	-0,127	0,074
-519,160	-51,695	-0,013	-0,004
-518,145	-95,967	0,052	0,010
-517,131	130,197	0,044	-0,041
-516,116	494,317	0,068	0,114
-515,102	800,000	-0,058	-0,156
-514,087	800,000	0,061	-0,134
-513,072	70,286	-0,059	0,044
-512,058	49,889	-0,027	-0,019
-511,043	-105,983	-0,053	0,009
-510,029	-167,059	0,212	0,006
-509,014	37,092	-0,137	-0,088
-507,999	-4,572	0,152	-0,077
-506,985	-200,000	-0,019	0,062
-505,970	25,880	0,102	0,062
-504,956	800,000	0,026	-0,072
-503,941	543,055	0,099	-0,174
-502,926	281,589	0,081	0,106
-501,912	472,175	-0,022	0,037
-500,897	-74,372	0,078	-0,020
-499,883	82,809	-0,113	-0,089
-498,868	-86,806	0,091	0,020
-497,853	800,000	-0,035	-0,091
-496,839	-200,000	-0,016	-0,065
-495,824	-117,234	0,021	-0,003
-494,810	-83,416	0,052	-0,012
-493,795	53,386	0,106	0,074
-492,781	0,026	0,105	0,054
-491,766	74,969	0,055	-0,042
-490,751	196,566	0,044	0,049
-489,737	550,048	0,069	-0,121
-488,722	453,835	-0,046	0,075
-487,708	382,594	0,052	0,078
-486,693	-200,000	-0,016	0,062
-485,678	62,561	0,074	0,054
-484,664	800,000	0,038	0,106
-483,649	-200,000	-0,007	-0,094
-482,635	453,510	0,027	0,044
-481,620	560,607	-0,065	-0,116
-480,605	-200,000	0,010	0,087
-479,591	295,892	-0,061	0,082
-478,576	213,159	-0,094	-0,108
-477,562	-11,328	-0,061	0,029
-476,547	389,606	0,028	-0,043
-475,532	52,261	-0,130	0,091
-474,518	595,645	0,045	0,081
-473,503	-166,014	0,070	-0,002
-472,489	-12,044	0,080	0,038
-471,474	192,044	-0,049	-0,054
-470,459	547,303	-0,002	0,004
-469,445	113,853	-0,085	-0,075
-468,430	146,612	-0,022	-0,022
-467,416	62,598	0,091	0,066
-466,401	113,939	-0,034	0,030
-465,386	48,473	0,031	-0,021
-464,372	-200,000	0,016	0,072
-463,357	-67,255	0,057	0,016
-462,343	360,404	-0,055	-0,080
-461,328	60,863	0,010	0,007
-460,313	305,740	-0,022	-0,029
-459,299	159,163	0,028	-0,029
-458,284	-42,191	0,081	0,030
-457,270	-200,000	-0,010	0,044
-456,255	-12,047	-0,090	0,043
-455,241	-200,000	-0,016	0,055
-454,226	-200,000	-0,019	0,085
-453,211	-200,000	-0,048	-0,186
-452,197	-200,000	0,003	-0,133
-451,182	-28,626	0,135	0,056
-450,168	224,312	0,022	-0,026
-449,153	800,000	-0,080	0,213
-448,138	-200,000	-0,029	0,095
-447,124	-200,000	0,010	0,107
-446,109	46,335	0,126	0,085
-445,095	446,194	-0,038	-0,061
-444,080	135,942	-0,060	0,057
-443,065	-106,867	-0,141	-0,023
-442,051	251,011	-0,076	-0,095
-441,036	800,000	0,036	-0,102
-440,022	800,000	-0,091	-0,202
-439,007	65,219	-0,101	-0,074
-437,992	-200,000	0,003	-0,018
-436,978	800,000	-0,024	0,074
-435,963	800,000	0,041	-0,113
-434,949	-20,956	-0,117	0,052
-433,934	-0,397	-0,046	-0,024
-432,919	-11,561	0,097	-0,046
-431,905	800,000	-0,030	-0,068
-430,890	19,421	0,110	-0,064
-429,876	104,325	0,065	0,056
-428,861	-200,000	-0,032	0,127
-427,846	-47,582	-0,109	-0,038
-426,832	-200,000	0,021	0,093
-425,817	-200,000	0,012	-0,092
-424,803	-200,000	0,000	-0,169
-423,788	-200,000	-0,034	0,118
-422,773	246,153	0,033	-0,041
-421,759	226,218	0,033	0,038
-420,744	217,281	-0,086	-0,100
-419,730	526,732	-0,081	-0,139
-418,715	-200,000	-0,000	-0,140
-417,701	800,000	0,034	-0,081
-416,686	-200,000	0,016	0,104
-415,671	631,142	-0,016	-0,030
-414,657	-170,577	0,029	-0,001
-413,642	800,000	0,045	-0,136
-412,628	267,641	0,008	0,010
-411,613	800,000	0,032	-0,090
-410,598	800,000	0,012	0,032
-409,584	-200,000	0,016	0,152
-408,569	-114,176	0,196	0,027
-407,555	-200,000	-0,005	0,043
-406,540	660,902	0,060	-0,112
-405,525	-11,279	-0,147	0,070
-404,511	42,268	0,103	-0,068
-403,496	-90,343	0,070	0,015
-402,482	-200,000	0,015	0,059
-401,467	-200,000	-0,032	0,118
-400,452	-62,903	0,066	0,020
-399,438	78,585	-0,058	0,045
-398,423	-54,117	-0,024	0,008
-397,409	800,000	-0,017	0,038
-396,394	192,219	-0,045	0,050
-395,379	-157,191	0,029	0,001
-394,365	-91,223	0,202	0,042
-393,350	5,444	0,056	-0,030
-392,336	800,000	0,076	0,165
-391,321	593,902	-0,052	-0,093
-390,306	64,232	-0,140	0,102
-389,292	-200,000	-0,021	0,073
-388,277	-200,000	0,007	-0,119
-387,263	-14,132	-0,112	0,053
-386,248	311,390	-0,081	0,111
-385,233	144,402	0,026	0,025
-384,219	76,234	-0,070	-0,054
-383,204	441,464	-0,090	-0,144
-382,190	118,670	-0,048	-0,043
-381,175	-200,000	-0,002	0,127
-380,160	351,139	-0,041	0,059
-379,146	-144,200	-0,036	-0,002
-378,131	-200,000	-0,007	0,027
-377,117	-34,421	-0,010	-0,004
-376,102	-97,764	0,090	-0,017
-375,088	-200,000	0,001	0,090
-374,073	29,443	0,083	0,051
-373,058	518,203	0,033	-0,057
-372,044	-97,507	0,009	-0,002
-371,029	63,647	0,071	-0,052
-370,015	-107,925	0,098	0,015
-369,000	215,399	0,079	0,091
-367,985	368,994	0,046	0,068
-366,971	260,762	-0,049	0,062
-365,956	276,962	0,092	0,118
-364,942	522,290	0,038	-0,066
-363,927	800,000	0,045	-0,117
-362,912	-200,000	0,025	-0,124
-361,898	61,300	-0,161	-0,116
-360,883	87,336	-0,106	-0,085
-359,869	800,000	0,024	-0,077
-358,854	261,432	0,021	-0,026
-357,839	682,064	-0,071	0,134
-356,825	188,618	0,073	-0,079
-355,810	599,476	-0,054	0,097
-354,796	-200,000	0,035	0,184
-353,781	-200,000	0,002	-0,076
-352,766	117,625	-0,016	-0,015
-351,752	-200,000	-0,029	0,100
-350,737	-48,192	0,017	0,006
-349,723	-200,000	0,008	0,037
-348,708	-2,281	0,106	-0,054
-347,693	-119,064	0,087	0,011
-346,679	461,406	-0,014	0,022
-345,664	691,967	0,070	-0,134
-344,650	-143,794	-0,129	0,009
-343,635	2,880	0,091	-0,048
-342,620	261,724	-0,047	0,060
-341,606	88,868	0,078	0,063
-340,591	-83,068	-0,039	-0,009
-339,577	422,345	0,035	-0,055
-338,562	40,282	0,034	0,022
-337,548	32,984	-0,046	-0,029
-336,533	165,915	-0,094	-0,097
-335,518	292,081	0,055	-0,072
-334,504	-200,000	-0,020	0,176
-333,489	292,430	-0,056	0,075
-332,475	-200,000	-0,001	-0,047
-331,460	-166,580	0,105	-0,003
-330,445	798,832	0,050	-0,100
-329,431	800,000	0,017	-0,036
-328,416	-200,000	-0,016	0,085
-327,402	2,201	-0,025	-0,013
-326,387	-41,781	-0,068	-0,025
-325,372	63,207	0,079	-0,058
-324,358	-4,536	-0,036	-0,018
-323,343	-200,000	0,020	-0,088
-322,329	800,000	-0,045	0,130
-321,314	-24,987	0,082	0,035
-320,299	-161,222	-0,139	0,005
-319,285	-158,417	0,124	0,005
-318,270	547,021	-0,034	-0,059
-317,256	270,609	0,049	-0,063
-316,241	463,420	0,024	-0,039
-315,226	800,000	0,036	-0,078
-314,212	-169,006	0,112	0,003
-313,197	761,803	0,038	0,075
-312,183	-3,508	0,034	0,017
-311,168	-59,062	-0,037	0,011
-310,153	-39,448	0,072	0,027
-309,139	-200,000	-0,001	0,036
-308,124	-46,993	-0,037	-0,013
-307,110	800,000	-0,019	0,053
-306,095	-200,000	0,009	0,082
-305,080	-200,000	-0,022	0,117
-304,066	25,053	0,080	-0,048
-303,051	94,917	0,054	0,045
-302,037	-55,215	0,109	-0,035
-301,022	370,971	-0,059	-0,086
-300,008	797,868	0,025	-0,051
-298,993	-95,930	-0,125	-0,024
-297,978	-200,000	-0,009	-0,067
-296,964	300,152	-0,059	-0,079
-295,949	800,000	-0,012	0,024
-294,935	-200,000	-0,029	-0,174
-293,920	238,518	-0,033	-0,040
-292,905	800,000	0,034	0,092
-291,891	-200,000	0,013	0,044
-290,876	800,000	-0,023	-0,072
-289,862	28,934	-0,116	0,071
-288,847	89,241	-0,077	0,062
-287,832	203,789	-0,088	0,099
-286,818	134,743	-0,083	0,078
-285,803	-132,117	0,084	0,008
-284,789	800,000	0,083	0,166
-283,774	-200,000	0,005	0,139
-282,759	-200,000	-0,008	0,065
-281,745	800,000	0,044	-0,088
-280,730	800,000	-0,022	-0,055
-279,716	76,158	0,062	-0,048
-278,701	543,621	0,032	0,055
-277,686	-128,807	0,083	0,008
-276,672	-200,000	0,034	-0,115
-275,657	294,637	0,012	0,016
-274,643	271,523	0,091	0,116
-273,628	800,000	-0,042	0,110
-272,613	9,640	-0,063	-0,034
-271,599	16,505	0,064	-0,036
-270,584	202,617	0,037	-0,041
-269,570	800,000	-0,044	0,108
-268,555	-200,000	-0,002	0,086
-267,540	-48,911	-0,088	0,030
-266,526	-200,000	0,052	0,168
-265,511	800,000	-0,057	-0,127
-264,497	-87,176	-0,112	-0,024
-263,482	-200,000	0,004	-0,025
-262,467	93,223	0,076	0,062
-261,453	0,035	0,042	0,021
-260,438	144,162	-0,132	-0,128
-259,424	-200,000	-0,002	0,047
-258,409	261,475	-0,014	-0,017
-257,395	800,000	0,027	-0,066
-256,380	-113,173	-0,081	-0,011
-255,365	44,268	0,055	-0,036
-254,351	800,000	0,074	-0,192
-253,336	35,831	-0,057	-0,036
-252,322	-121,201	-0,141	0,017
-251,307	-8,816	0,116	-0,056
-250,292	-5,171	0,053	0,026
-249,278	128,835	-0,049	-0,045
-248,263	471,305	-0,025	0,042
-247,249	-155,112	0,078	-0,004
-246,234	184,232	0,043	0,046
-245,219	800,000	0,031	0,087
-244,205	65,246	-0,036	0,026
-243,190	-200,000	-0,013	0,093
-242,176	-72,775	-0,070	-0,018
-241,161	-200,000	0,012	0,054
-240,146	-200,000	-0,014	0,047
-239,132	247,142	-0,035	-0,043
-238,117	-200,000	-0,015	-0,067
-237,103	800,000	-0,011	0,029
-236,088	-115,421	-0,087	-0,012
-235,073	284,744	0,080	0,104
-234,059	88,390	-0,026	0,021
-233,044	6,450	0,062	0,033
-232,030	41,338	-0,030	0,020
-231,015	-200,000	0,007	-0,069
-230,000	152,448	-0,064	0,064
-228,986	-50,246	-0,045	0,015
-227,971	-200,000	-0,005	0,123
-226,957	228,266	-0,037	-0,043
-225,942	194,372	-0,051	-0,056
-224,927	-200,000	-0,013	-0,062
-223,913	-200,000	-0,014	0,078
-222,898	-86,690	0,094	-0,021
-221,884	39,133	-0,041	0,027
-220,869	-200,000	0,016	0,079
-219,855	273,430	-0,057	-0,073
-218,840	-86,529	0,069	-0,015
-217,825	-57,978	0,070	-0,022
-216,811	-200,000	0,013	-0,092
-215,796	37,233	-0,100	-0,064
-214,782	499,444	0,058	0,097
-213,767	58,731	0,082	-0,058
-212,752	-200,000	0,018	0,067
-211,738	-200,000	-0,008	0,106
-210,723	-31,529	-0,025	-0,010
-209,709	24,082	0,051	0,030
-208,694	-82,307	-0,041	0,009
-207,679	-135,824	-0,029	-0,002
-206,665	22,149	0,127	-0,074
-205,650	178,764	0,117	0,123
-204,636	110,202	0,065	-0,057
-203,621	-15,899	0,019	-0,008
-202,606	-6,422	-0,170	-0,083
-201,592	-200,000	0,004	-0,240
-200,577	-200,000	-0,008	-0,117
-199,563	-132,555	0,139	-0,013
-198,548	-39,464	0,116	0,044
-197,533	63,054	0,101	0,073
-196,519	-200,000	-0,002	0,091
-195,504	184,848	-0,076	0,082
-194,490	58,743	0,092	-0,065
-193,475	138,448	-0,025	-0,024
-192,460	-200,000	-0,005	0,107
-191,446	-200,000	-0,050	-0,162
-190,431	98,754	0,165	0,137
-189,417	800,000	-0,043	0,115
-188,402	27,405	0,022	-0,014
-187,387	-26,395	-0,154	-0,065
-186,373	-181,883	0,044	0,001
-185,358	220,289	-0,014	-0,016
-184,344	273,985	0,029	0,037
-183,329	175,093	0,125	0,130
-182,315	222,002	-0,075	0,087
-181,300	61,025	-0,099	0,071
-180,285	-200,000	-0,001	0,006
-179,271	149,357	-0,006	-0,006
-178,256	-71,172	0,045	-0,012
-177,242	-200,000	0,012	-0,119
-176,227	800,000	-0,017	-0,044
-175,212	185,062	0,056	0,059
-174,198	304,168	-0,143	-0,191
-173,183	206,476	-0,100	-0,112
-172,169	-50,614	-0,090	0,031
-171,154	-200,000	0,007	0,104
-170,139	800,000	0,086	0,221
-169,125	379,667	0,032	0,048
-168,110	245,203	-0,091	0,110
-167,096	-77,141	0,076	-0,019
-166,081	-119,844	-0,065	0,008
-165,066	309,934	0,032	-0,043
-164,052	179,497	0,046	-0,049
-163,037	-93,341	0,153	0,030
-162,023	66,441	-0,081	0,059
-161,008	143,565	-0,044	-0,042
-159,993	363,467	-0,037	0,053
-158,979	-25,778	-0,067	0,028
-157,964	-200,000	-0,012	0,069
-156,950	437,083	0,074	0,117
-155,935	467,441	0,029	-0,047
-154,920	40,039	0,045	0,029
-153,906	22,117	0,125	-0,073
-152,891	-8,517	-0,075	-0,036
-151,877	-200,000	0,014	0,059
-150,862	-51,981	-0,060	-0,020
-149,847	168,542	-0,028	0,029
-148,833	6,190	0,018	0,009
-147,818	-34,042	0,097	0,038
-146,804	201,632	0,071	0,079
-145,789	-200,000	0,026	0,110
-144,775	-200,000	0,000	-0,075
-143,760	800,000	0,023	-0,065
-142,745	127,016	-0,103	-0,094
-141,731	32,224	-0,065	-0,040
-140,716	-200,000	-0,024	-0,148
-139,702	157,647	-0,046	0,046
-138,687	287,054	0,051	-0,066
-137,672	-63,285	-0,118	-0,035
-136,658	-105,472	0,093	-0,015
-135,643	497,682	-0,099	-0,164
-134,629	89,523	-0,069	0,056
-133,614	448,610	-0,032	-0,050
-132,599	130,238	-0,105	-0,097
-131,585	27,327	0,066	0,040
-130,570	32,304	-0,089	0,055
-129,556	133,430	-0,058	-0,054
-128,541	-17,704	-0,090	0,041
-127,526	184,873	0,038	-0,041
-126,512	-106,574	-0,041	0,007
-125,497	800,000	-0,010	-0,021
-124,483	754,682	-0,085	0,165
-123,468	268,399	0,051	-0,065
-122,453	-89,928	-0,095	0,020
-121,439	800,000	-0,028	-0,060
-120,424	173,816	-0,081	-0,084
-119,410	-200,000	0,062	0,284
-118,395	-28,219	0,059	-0,024
-117,380	22,001	0,135	-0,079
-116,366	248,861	-0,007	-0,008
-115,351	-200,000	0,006	-0,077
-114,337	76,373	-0,093	-0,071
-113,322	452,459	-0,035	-0,056
-112,307	478,429	0,042	-0,068
-111,293	-200,000	0,050	0,185
-110,278	-200,000	-0,003	0,113
-109,264	14,950	-0,237	-0,133
-108,249	2,138	-0,141	-0,073
-107,234	-31,618	-0,063	-0,025
-106,220	202,659	0,041	0,045
-105,205	-118,585	-0,147	0,018
-104,191	-200,000	0,014	0,091
-103,176	800,000	0,048	-0,114
-102,162	-193,057	-0,057	0,000
-101,147	-200,000	-0,005	-0,168
-100,132	-200,000	0,005	-0,033
-99,118	509,384	-0,085	-0,143
-98,103	520,159	-0,061	0,103
-97,089	108,898	0,071	-0,061
-96,074	-200,000	0,017	0,097
-95,059	10,387	0,090	-0,049
-94,045	9,609	-0,165	-0,090
-93,030	800,000	0,028	-0,076
-92,016	800,000	0,032	0,067
-91,001	-200,000	0,029	0,165
-89,986	447,225	0,081	0,129
-88,972	800,000	-0,017	-0,051
-87,957	-200,000	-0,009	0,107
-86,943	800,000	-0,053	0,159
-85,928	155,606	-0,101	-0,100
-84,913	-200,000	0,023	-0,075
-83,899	-85,106	-0,124	-0,028
-82,884	337,451	0,053	0,074
-81,870	-80,929	-0,112	-0,027
-80,855	-68,699	-0,097	-0,027
-79,840	241,532	-0,064	0,077
-78,826	83,432	0,104	-0,082
-77,811	632,631	0,031	-0,056
-76,797	-200,000	0,006	-0,055
-75,782	213,920	-0,060	-0,068
-74,767	-29,658	0,095	0,039
-73,753	-117,999	-0,045	-0,006
-72,738	-200,000	-0,001	0,028
-71,724	7,100	0,061	-0,033
-70,709	800,000	0,033	-0,096
-69,694	52,286	-0,089	0,061
-68,680	326,356	0,116	-0,161
-67,665	-200,000	0,001	0,164
-66,651	-121,645	-0,060	0,007
-65,636	53,378	-0,078	-0,053
-64,622	800,000	-0,010	-0,026
-63,607	800,000	-0,047	-0,141
-62,592	800,000	0,037	-0,117
-61,578	-200,000	0,027	-0,116
-60,563	38,624	0,095	0,061
-59,549	800,000	-0,044	0,111
-58,534	12,858	-2,140	-1,183
-57,519	-200,000	-0,196	-0,702
-56,505	-200,000	-1,309	-4,976
-55,490	142,676	0,939	0,895
-54,476	800,000	5,045	11,534
-53,461	-200,000	17,963	290,311
-52,446	800,000	727,684	2224,723
-51,432	532,853	1640,305	2796,666
-50,417	108,726	1629,829	1396,706
-49,403	72,566	1282,892	958,859
-48,388	31,264	1025,405	630,029
-47,373	19,789	988,086	569,308
-46,359	18,179	975,888	556,985
-45,344	15,406	971,782	545,562
-44,330	15,618	970,406	545,462
-43,315	15,065	968,765	542,715
-42,300	15,014	967,642	541,896
-41,286	15,052	966,568	541,398
-40,271	15,045	965,570	540,794
-39,257	15,118	964,631	540,485
-38,242	15,088	963,853	539,930
-37,227	15,108	963,130	539,566
-36,213	15,116	961,990	538,935
-35,198	15,047	961,471	538,397
-34,184	15,104	960,617	538,084
-33,169	15,037	959,687	537,325
-32,154	15,058	958,706	536,823
-31,140	15,145	957,728	536,534
-30,125	15,119	956,942	535,989
-29,111	15,104	956,227	535,517
-28,096	15,142	955,561	535,246
-27,082	15,085	955,089	534,778
-26,067	15,094	954,034	534,194
-25,052	15,031	953,312	533,567
-24,038	15,072	952,713	533,340
-23,023	15,084	951,932	532,921
-22,009	15,072	951,442	532,587
-20,994	15,126	950,769	532,363
-19,979	15,126	950,052	531,940
-18,965	15,126	949,460	531,586
-17,950	15,104	948,909	531,187
-16,936	15,028	948,212	530,534
-15,921	15,018	947,752	530,222
-14,906	15,032	946,887	529,764
-13,892	15,001	946,221	529,270
-12,877	14,938	945,689	528,752
-11,863	15,007	944,893	528,504
-10,848	14,979	944,493	528,171
-9,833	15,106	943,973	528,261
-8,819	15,021	943,365	527,633
-7,804	14,997	942,810	527,225
-6,790	14,996	942,140	526,824
-5,775	15,036	941,663	526,665
-4,760	14,973	940,955	526,047
-3,746	15,020	940,154	525,727
-2,731	14,881	939,563	524,939
-1,717	14,801	939,053	524,378
-0,702	14,877	938,390	524,228
0,313	14,656	937,714	523,944
1,327	18,164	935,566	533,729
2,342	27,448	789,090	474,590
3,356	24,202	443,948	262,188
4,371	-5,716	295,075	144,414
5,386	-9,721	276,832	131,683
6,400	-11,020	271,172	127,775
7,415	-11,081	268,809	126,593
8,429	-11,237	267,392	125,772
9,444	-11,204	266,536	125,389
10,459	-11,178	265,951	125,126
11,473	-11,170	265,269	124,801
12,488	-11,281	264,833	124,484
13,502	-11,594	264,330	123,953
14,517	-11,321	263,773	123,928
15,531	-11,310	263,436	123,769
16,546	-11,258	263,156	123,672
17,561	-11,256	262,658	123,428
18,575	-11,241	262,480	123,348
19,590	-11,229	262,018	123,130
20,604	-11,340	261,979	123,002
21,619	-11,153	261,343	122,859
22,634	-11,406	261,096	122,506
23,648	-11,394	260,747	122,342
24,663	-11,380	260,654	122,301
25,677	-11,282	260,381	122,249
26,692	-11,217	259,918	122,078
27,707	-11,213	259,737	121,985
28,721	-11,234	259,431	121,812
29,736	-11,416	259,106	121,488
30,750	-11,492	258,977	121,349
31,765	-11,372	258,620	121,278
32,780	-11,231	258,433	121,303
33,794	-11,367	258,174	121,051
34,809	-11,355	257,950	120,946
35,823	-11,506	257,700	120,685
36,838	-11,339	257,411	120,685
37,853	-11,477	257,094	120,405
38,867	-11,455	256,993	120,366
39,882	-11,381	256,644	120,257
40,896	-11,448	256,528	120,133
41,911	-11,271	256,226	120,136
42,926	-11,445	256,083	119,906
43,940	-11,377	255,691	119,771
44,955	-11,514	255,659	119,626
45,969	-11,658	255,259	119,303
46,984	-11,738	255,029	119,115
47,999	-11,991	254,836	118,794
49,013	-12,136	254,527	118,514
50,028	-12,419	254,338	118,169
51,042	-12,196	253,989	118,190
52,057	-12,335	253,786	117,965
53,071	-12,304	253,778	117,977
54,086	-12,182	253,395	117,894
55,101	-12,052	253,195	117,903
56,115	-11,704	253,173	118,183
57,130	-11,385	253,152	118,437
58,144	-11,358	252,928	118,346
59,159	-11,122	252,721	118,442
60,174	-11,242	252,485	118,217
61,188	-11,308	252,239	118,034
62,203	-11,289	251,978	117,918
63,217	-11,438	251,943	117,763
64,232	-11,228	251,697	117,818
65,247	-11,280	251,373	117,611
66,261	-11,203	251,188	117,579
67,276	-11,521	250,970	117,196
68,290	-11,730	250,664	116,864
69,305	-11,764	250,275	116,643
70,320	-11,781	250,317	116,638
71,334	-11,520	250,147	116,771
72,349	-11,216	249,857	116,883
73,363	-11,114	249,756	116,912
74,378	-11,153	249,582	116,787
75,393	-11,357	249,219	116,434
76,407	-11,335	249,157	116,414
77,422	-11,122	248,818	116,425
78,436	-11,226	248,720	116,280
79,451	-11,338	248,545	116,094
80,466	-11,424	248,107	115,806
81,480	-11,451	247,984	115,716
82,495	-11,617	247,804	115,481
83,509	-11,508	247,591	115,464
84,524	-11,614	247,479	115,312
85,539	-11,691	247,097	115,059
86,553	-11,959	247,110	114,830
87,568	-11,567	246,819	115,013
88,582	-11,663	246,768	114,899
89,597	-11,714	246,427	114,686
90,611	-11,705	246,288	114,620
91,626	-11,433	246,175	114,784
92,641	-11,444	245,984	114,676
93,655	-11,518	245,746	114,493
94,670	-11,534	245,634	114,417
95,684	-11,647	245,334	114,173
96,699	-11,673	245,187	114,072
97,714	-11,842	244,939	113,807
98,728	-11,832	244,765	113,724
99,743	-11,742	244,396	113,617
100,757	-11,798	244,235	113,486
101,772	-11,944	244,171	113,324
102,787	-11,699	243,993	113,435
103,801	-11,492	243,869	113,538
104,816	-11,599	243,687	113,355
105,830	-11,444	243,543	113,406
106,845	-11,347	243,282	113,354
107,860	-11,344	243,170	113,295
108,874	-11,360	242,887	113,139
109,889	-11,747	242,679	112,714
110,903	-11,556	242,494	112,775
111,918	-11,587	242,198	112,602
112,933	-11,625	242,182	112,553
113,947	-11,413	241,939	112,605
114,962	-11,641	241,794	112,340
115,976	-11,445	241,651	112,424
116,991	-11,621	241,626	112,258
118,006	-11,639	241,378	112,118
119,020	-11,382	241,218	112,243
120,035	-11,279	241,064	112,246
121,049	-11,387	240,878	112,062
122,064	-11,332	240,666	111,998
123,079	-11,440	240,495	111,820
124,093	-11,474	240,308	111,696
125,108	-11,625	240,058	111,447
126,122	-12,050	239,828	110,984
127,137	-11,702	239,611	111,157
128,151	-11,764	239,345	110,973
129,166	-11,758	239,286	110,940
130,181	-11,749	239,099	110,851
131,195	-11,783	238,805	110,678
132,210	-11,749	238,758	110,673
133,224	-11,393	238,554	110,857
134,239	-11,362	238,483	110,839
135,254	-11,539	238,243	110,575
136,268	-11,521	238,036	110,483
137,283	-11,842	237,717	110,067
138,297	-11,901	237,505	109,912
139,312	-11,882	237,445	109,889
140,327	-11,630	237,334	110,031
141,341	-11,045	237,267	110,459
142,356	-11,253	237,192	110,248
143,370	-10,998	236,901	110,307
144,385	-11,084	236,875	110,216
145,400	-10,977	236,629	110,177
146,414	-11,388	236,496	109,777
147,429	-11,208	236,196	109,772
148,443	-11,362	236,131	109,609
149,458	-11,300	235,986	109,582
150,473	-11,205	235,814	109,567
151,487	-11,324	235,520	109,326
152,502	-11,188	235,473	109,402
153,516	-11,092	235,282	109,381
154,531	-11,250	235,178	109,197
155,546	-11,401	234,977	108,974
156,560	-11,250	234,645	108,930
157,575	-11,368	234,387	108,707
158,589	-11,572	234,410	108,547
159,604	-10,986	234,177	108,892
160,619	-11,032	234,192	108,853
161,633	-10,974	234,066	108,831
162,648	-11,123	233,740	108,552
163,662	-11,294	233,633	108,358
164,677	-11,348	233,400	108,197
165,692	-11,327	233,312	108,163
166,706	-11,072	233,185	108,295
167,721	-11,134	233,157	108,225
168,735	-11,014	233,080	108,274
169,750	-10,900	232,767	108,208
170,764	-11,195	232,687	107,929
171,779	-11,016	232,333	107,896
172,794	-10,828	232,363	108,048
173,808	-11,340	231,991	107,464
174,823	-11,707	231,746	107,055
175,837	-11,650	231,445	106,950
176,852	-11,185	231,456	107,309
177,867	-11,347	231,392	107,143
178,881	-11,061	231,301	107,314
179,896	-11,027	231,054	107,217
180,910	-11,091	230,988	107,127
181,925	-11,160	230,855	107,001
182,940	-10,994	230,613	107,009
183,954	-11,077	230,632	106,943
184,969	-11,004	230,424	106,895
185,983	-10,790	230,229	106,961
186,998	-10,833	230,101	106,858
188,013	-10,911	229,942	106,714
189,027	-10,887	229,889	106,699
190,042	-11,029	229,705	106,494
191,056	-10,834	229,516	106,548
192,071	-10,651	229,207	106,536
193,086	-10,926	229,167	106,296
194,100	-10,958	228,865	106,122
195,115	-11,406	228,605	105,647
196,129	-11,751	228,513	105,329
197,144	-6,281	230,230	110,347
198,159	-0,545	231,846	115,572
199,173	2,477	232,916	118,450
200,188	2,770	232,983	118,701
201,202	3,173	232,642	118,830
202,217	3,206	232,558	118,802
203,232	3,281	232,502	118,821
204,246	3,411	232,393	118,855
205,261	3,828	232,104	119,020
206,275	3,691	232,069	118,886
207,290	3,805	231,862	118,857
208,304	3,779	231,737	118,762
209,319	3,583	231,666	118,564
210,334	3,547	231,342	118,360
211,348	3,468	231,116	118,172
212,363	3,258	230,939	117,909
213,377	3,055	230,693	117,617
214,392	3,057	230,348	117,433
215,407	2,982	230,368	117,375
216,421	2,979	230,320	117,338
217,436	2,934	230,086	117,173
218,450	2,866	229,838	116,985
219,465	2,722	229,807	116,848
220,480	2,984	229,518	116,891
221,494	2,831	229,360	116,683
222,509	2,882	229,372	116,718
223,523	2,909	229,229	116,655
224,538	2,921	229,053	116,564
225,553	2,781	228,922	116,380
226,567	3,293	228,670	116,632
227,582	3,411	228,681	116,717
228,596	3,539	228,634	116,780
229,611	3,113	228,400	116,326
230,626	2,807	228,065	115,913
231,640	2,997	227,934	115,980
232,655	3,100	227,938	116,050
233,669	3,497	227,801	116,271
234,684	3,423	227,721	116,164
235,699	3,410	227,537	116,050
236,713	3,066	227,379	115,698
237,728	3,028	226,967	115,450
238,742	2,822	226,814	115,206
239,757	2,944	226,843	115,303
240,772	2,819	226,608	115,078
241,786	2,904	226,443	115,049
242,801	3,097	226,552	115,239
243,815	3,452	226,366	115,402
244,830	3,565	226,058	115,319
245,844	3,068	225,911	114,861
246,859	2,684	225,989	114,602
247,874	3,284	225,641	114,865
248,888	3,229	225,550	114,767
249,903	3,187	225,382	114,641
250,917	3,077	225,346	114,529
251,932	3,214	224,960	114,425
252,947	2,888	224,897	114,139
253,961	2,726	224,805	113,961
254,976	3,077	224,536	114,076
255,990	3,111	224,572	114,110
257,005	3,364	224,372	114,187
258,020	3,382	224,184	114,094
259,034	3,166	224,156	113,909
260,049	3,234	223,908	113,823
261,063	3,215	223,792	113,740
262,078	3,406	223,741	113,846
263,093	3,494	223,639	113,849
264,107	3,399	223,405	113,649
265,122	3,411	223,378	113,635
266,136	3,501	223,274	113,638
267,151	3,392	223,039	113,428
268,166	3,140	222,816	113,118
269,180	3,011	222,465	112,834
270,195	3,003	222,396	112,784
271,209	2,754	222,386	112,585
272,224	3,060	222,178	112,695
273,239	2,945	222,150	112,586
274,253	3,024	221,901	112,508
275,268	2,650	221,786	112,164
276,282	2,864	221,546	112,190
277,297	2,915	221,411	112,150
278,312	2,853	221,231	112,003
279,326	3,054	221,099	112,073
280,341	3,142	221,067	112,112
281,355	2,811	221,028	111,839
282,370	2,932	220,799	111,802
283,384	2,966	220,607	111,720
284,399	2,838	220,436	111,530
285,414	2,822	220,185	111,381
286,428	2,925	220,185	111,446
287,443	3,089	220,170	111,549
288,457	3,195	220,033	111,547
289,472	3,004	219,728	111,242
290,487	2,536	219,464	110,758
291,501	2,387	219,324	110,570
292,516	2,587	219,369	110,728
293,530	2,625	219,278	110,699
294,545	2,642	218,927	110,525
295,560	2,773	218,878	110,585
296,574	3,108	218,797	110,777
297,589	2,821	218,643	110,482
298,603	3,276	218,445	110,701
299,618	2,934	218,460	110,451
300,633	3,067	218,337	110,475
301,647	3,121	218,282	110,477
302,662	3,320	218,085	110,511
303,676	3,114	218,036	110,328
304,691	3,174	217,850	110,267
305,706	3,347	217,677	110,294
306,720	3,327	217,466	110,163
307,735	2,986	217,230	109,788
308,749	2,852	217,239	109,687
309,764	3,125	216,951	109,728
310,779	3,312	216,898	109,825
311,793	3,128	216,757	109,613
312,808	3,355	216,669	109,721
313,822	3,356	216,443	109,597
314,837	3,096	216,404	109,381
315,852	2,777	216,129	109,005
316,866	3,195	216,082	109,270
317,881	3,286	215,849	109,207
318,895	3,302	215,780	109,174
319,910	2,985	215,667	108,881
320,925	2,935	215,260	108,630
321,939	2,449	215,273	108,282
322,954	2,631	215,179	108,354
323,968	3,113	215,001	108,598
324,983	3,241	214,952	108,653
325,997	3,304	214,844	108,634
327,012	3,073	214,654	108,365
328,027	3,156	214,475	108,323
329,041	3,569	214,495	108,616
330,056	3,656	214,330	108,584
331,070	3,034	214,059	107,998
332,085	2,599	213,897	107,599
333,100	2,711	213,750	107,595
334,114	2,949	213,621	107,688
335,129	3,429	213,449	107,930
336,143	3,084	213,339	107,622
337,158	3,226	213,300	107,693
338,173	3,102	213,207	107,549
339,187	2,962	212,939	107,305
340,202	2,768	212,885	107,133
341,216	2,657	212,737	106,971
342,231	2,704	212,673	106,962
343,246	2,846	212,487	106,958
344,260	2,982	212,293	106,947
345,275	3,065	212,257	106,977
346,289	3,180	212,160	106,999
347,304	3,122	211,930	106,833
348,319	3,079	211,726	106,690
349,333	3,255	211,531	106,706
350,348	3,018	211,534	106,532
351,362	3,287	211,488	106,687
352,377	3,185	211,457	106,590
353,392	3,159	211,235	106,451
354,406	3,143	210,978	106,301
355,421	196,411	1341,221	1421,418
356,435	156,912	1478,890	1421,393
