DTS Sentinel unit serial number:	SN410029Multiplexer serial number:	ORYXHardware model number:	OX2-SRSoftware version number:	ORYX F/W v4,00 Oryx Data Collector v3.7.2.0data status	okinstallation	B6 Nyhavnadifferential loss correction	single-endedforward channel	channel 2reverse channel	N/Adate	2023/12/09time	17:20:08forward acquisition time	300,00reverse acquisition time	0,00gamma	499,1914k internal	0,3131k external	0,3131temperature offset calibration	1,0000default loss term (dB/km)	0,3820temperature slope calibration	1,0000multiplexer offset coefficient	1,0000multiplexer slope coefficient	1,0000fibre end	0,00T internal ref (°C)	20,99T ext. ref 1 (°C)	4,72T ext. ref 2 (°C)	4,71length (m)	temperature (°C)	Stokes	anti-Stokes-744,400	730,555	0,047	-0,094
-743,385	-106,337	-0,168	0,028
-742,371	296,355	0,065	-0,089
-741,356	39,879	-0,230	0,153
-740,342	800,000	-0,023	-0,054
-739,327	-153,095	-0,182	0,009
-738,312	19,775	0,029	0,017
-737,298	-119,117	-0,359	0,046
-736,283	800,000	0,023	-0,068
-735,269	9,172	-0,225	0,126
-734,254	105,061	-0,039	-0,034
-733,239	-119,949	-0,465	-0,059
-732,225	44,368	0,187	0,127
-731,210	185,496	0,045	-0,050
-730,196	-81,037	0,023	0,006
-729,181	8,541	0,080	0,044
-728,167	-169,703	0,110	-0,003
-727,152	800,000	-0,011	-0,028
-726,137	-200,000	-0,012	-0,161
-725,123	-200,000	-0,010	-0,081
-724,108	112,796	-0,102	-0,092
-723,094	800,000	-0,035	-0,081
-722,079	800,000	0,036	-0,097
-721,064	-200,000	0,014	0,089
-720,050	-200,000	-0,010	0,040
-719,035	800,000	-0,020	-0,044
-718,021	41,684	-0,023	-0,016
-717,006	800,000	-0,029	-0,086
-715,991	434,965	-0,074	-0,119
-714,977	196,804	-0,054	-0,061
-713,962	455,948	0,062	0,103
-712,948	-6,617	0,124	0,062
-711,933	73,636	-0,026	-0,020
-710,918	-200,000	-0,010	0,150
-709,904	-200,000	-0,041	0,187
-708,889	91,917	-0,151	-0,126
-707,875	311,013	-0,029	-0,041
-706,860	83,476	-0,067	-0,054
-705,845	-160,499	-0,087	0,003
-704,831	34,051	0,044	-0,028
-703,816	-23,233	0,077	-0,034
-702,802	168,547	-0,128	-0,136
-701,787	92,318	-0,076	-0,064
-700,772	800,000	-0,049	-0,125
-699,758	168,847	0,065	-0,069
-698,743	160,170	-0,046	0,047
-697,729	717,085	0,026	0,051
-696,714	-200,000	-0,001	-0,022
-695,699	162,407	-0,046	-0,048
-694,685	-200,000	0,025	-0,122
-693,670	-200,000	-0,025	0,104
-692,656	-54,934	0,120	-0,040
-691,641	-81,279	-0,065	-0,016
-690,627	-156,521	-0,125	-0,006
-689,612	-72,398	-0,039	0,011
-688,597	56,924	-0,082	-0,059
-687,583	-107,698	-0,121	-0,019
-686,568	800,000	-0,035	0,090
-685,554	129,414	0,010	0,009
-684,539	-76,185	0,077	-0,020
-683,524	-200,000	-0,027	0,104
-682,510	27,341	-0,093	-0,058
-681,495	75,632	-0,067	-0,052
-680,481	-173,978	-0,059	0,001
-679,466	-58,035	-0,150	-0,048
-678,451	486,811	-0,098	-0,166
-677,437	-200,000	-0,004	-0,090
-676,422	800,000	0,046	0,124
-675,408	230,679	0,025	0,030
-674,393	14,072	-0,043	0,024
-673,378	44,789	-0,063	-0,043
-672,364	-200,000	0,037	0,000
-671,349	-9,675	-0,073	0,036
-670,335	-200,000	0,006	-0,272
-669,320	-119,583	0,089	0,011
-668,305	-97,660	0,117	0,022
-667,291	-152,852	-0,148	-0,008
-666,276	-200,000	0,004	-0,060
-665,262	30,795	-0,045	-0,029
-664,247	423,230	-0,031	-0,050
-663,232	-129,491	-0,127	0,013
-662,218	800,000	-0,025	0,063
-661,203	676,751	0,068	0,131
-660,189	199,040	-0,064	0,073
-659,174	367,810	-0,078	-0,118
-658,159	-200,000	-0,055	-0,206
-657,145	800,000	-0,041	0,108
-656,130	-132,973	0,092	-0,009
-655,116	-179,488	-0,059	-0,001
-654,101	-69,618	0,089	0,025
-653,086	396,774	-0,024	0,038
-652,072	-200,000	-0,015	0,215
-651,057	-200,000	-0,004	0,101
-650,043	800,000	-0,039	-0,120
-649,028	-137,927	-0,134	0,011
-648,014	-16,874	0,098	0,046
-646,999	307,401	-0,047	0,065
-645,984	-164,950	-0,112	0,004
-644,970	-156,673	-0,057	-0,003
-643,955	530,475	-0,040	-0,070
-642,941	102,854	-0,114	-0,099
-641,926	372,735	-0,052	0,079
-640,911	287,800	-0,064	0,086
-639,897	-150,992	0,093	-0,005
-638,882	-26,403	-0,049	0,021
-637,868	-200,000	-0,009	-0,057
-636,853	-2,345	-0,180	-0,093
-635,838	110,418	-0,125	-0,111
-634,824	800,000	-0,028	-0,073
-633,809	367,246	0,054	0,081
-632,795	30,042	0,119	-0,075
-631,780	-60,706	0,087	0,027
-630,765	322,253	-0,069	0,098
-629,751	800,000	-0,026	-0,069
-628,736	-48,675	0,058	0,021
-627,722	-200,000	0,009	-0,108
-626,707	513,432	0,040	-0,069
-625,692	1,657	-0,064	-0,034
-624,678	-168,080	-0,104	0,003
-623,663	-22,707	-0,113	0,050
-622,649	441,977	0,059	-0,096
-621,634	800,000	-0,098	-0,224
-620,619	138,895	0,011	0,011
-619,605	47,739	-0,127	0,088
-618,590	38,465	0,009	-0,006
-617,576	-21,385	-0,099	0,045
-616,561	218,806	0,079	-0,094
-615,546	89,702	-0,116	-0,096
-614,532	-56,116	-0,081	0,026
-613,517	767,140	-0,022	0,044
-612,503	-200,000	-0,002	-0,025
-611,488	-160,636	0,082	-0,003
-610,474	-37,650	0,093	0,036
-609,459	116,967	0,031	-0,028
-608,444	-69,423	-0,143	0,040
-607,430	321,205	-0,011	0,015
-606,415	380,748	-0,107	-0,163
-605,401	-200,000	0,054	-0,191
-604,386	800,000	-0,046	-0,104
-603,371	-96,927	0,143	0,027
-602,357	-30,666	-0,179	0,075
-601,342	104,765	-0,023	0,020
-600,328	2,633	-0,124	0,066
-599,313	-74,193	-0,035	0,009
-598,298	-94,825	-0,085	-0,017
-597,284	-78,003	0,084	-0,021
-596,269	-53,285	0,074	0,025
-595,255	-116,046	0,143	0,019
-594,240	59,923	-0,093	-0,068
-593,225	800,000	0,039	-0,128
-592,211	11,759	-0,154	-0,087
-591,196	-37,925	0,100	-0,039
-590,182	286,977	0,059	0,079
-589,167	9,497	-0,043	0,024
-588,152	-31,130	0,068	-0,028
-587,138	20,684	-0,110	-0,066
-586,123	-200,000	0,026	-0,110
-585,109	-24,757	0,058	0,025
-584,094	-85,294	-0,135	-0,031
-583,079	-200,000	0,004	0,106
-582,065	19,761	0,056	0,033
-581,050	72,263	0,155	0,119
-580,036	24,019	-0,138	0,084
-579,021	68,386	0,092	0,070
-578,006	-200,000	0,014	-0,103
-576,992	-59,380	-0,075	0,024
-575,977	69,775	-0,071	0,054
-574,963	36,972	0,037	-0,024
-573,948	-95,678	0,019	0,004
-572,934	-12,444	0,072	-0,034
-571,919	-23,122	-0,040	-0,018
-570,904	-200,000	-0,006	0,053
-569,890	800,000	0,044	-0,134
-568,875	-21,367	0,106	-0,047
-567,861	-200,000	0,010	-0,053
-566,846	159,069	0,024	-0,024
-565,831	143,205	-0,027	-0,026
-564,817	-92,299	-0,112	0,023
-563,802	374,604	0,071	-0,107
-562,788	-137,189	-0,053	0,004
-561,773	-200,000	-0,013	0,066
-560,758	-119,071	0,182	0,023
-559,744	-200,000	0,006	0,033
-558,729	-200,000	-0,012	0,107
-557,715	800,000	-0,061	-0,137
-556,700	-46,402	-0,113	0,041
-555,685	506,184	-0,037	0,063
-554,671	9,484	0,065	-0,036
-553,656	800,000	-0,015	0,033
-552,642	-5,713	0,068	0,034
-551,627	168,926	0,007	-0,008
-550,612	154,879	0,035	-0,036
-549,598	296,218	-0,109	-0,148
-548,583	249,373	0,076	-0,096
-547,569	-200,000	0,025	-0,113
-546,554	301,950	0,103	0,142
-545,539	800,000	-0,017	0,045
-544,525	-200,000	0,025	-0,084
-543,510	-200,000	0,004	0,059
-542,496	484,025	0,016	-0,027
-541,481	-13,606	-0,046	-0,022
-540,466	156,848	0,050	0,051
-539,452	-200,000	-0,000	0,075
-538,437	-200,000	0,019	0,077
-537,423	-147,680	-0,028	-0,002
-536,408	358,133	-0,062	-0,091
-535,393	800,000	-0,047	-0,127
-534,379	-22,227	-0,083	0,037
-533,364	57,217	-0,076	0,055
-532,350	800,000	0,045	0,096
-531,335	-200,000	0,047	0,157
-530,321	-200,000	-0,029	0,148
-529,306	-200,000	0,010	0,114
-528,291	12,320	0,030	0,017
-527,277	-36,338	0,099	0,039
-526,262	359,773	0,066	-0,098
-525,248	-49,470	-0,027	0,009
-524,233	-200,000	0,001	-0,069
-523,218	-20,000	-0,043	0,019
-522,204	130,611	-0,089	0,084
-521,189	-134,054	0,100	0,009
-520,175	464,793	-0,097	-0,160
-519,160	65,859	-0,135	-0,100
-518,145	-134,859	0,151	-0,013
-517,131	483,325	-0,043	-0,073
-516,116	70,867	-0,150	-0,114
-515,102	800,000	-0,073	-0,167
-514,087	140,998	0,167	-0,163
-513,072	-200,000	-0,027	-0,113
-512,058	-73,482	-0,099	-0,026
-511,043	337,296	0,041	0,059
-510,029	251,585	0,087	0,109
-509,014	-58,303	-0,100	-0,032
-507,999	105,656	-0,116	-0,101
-506,985	-104,585	0,017	0,003
-505,970	-200,000	-0,010	0,121
-504,956	-54,646	0,099	-0,033
-503,941	-200,000	-0,002	-0,010
-502,926	-17,942	-0,104	0,048
-501,912	142,718	-0,021	0,020
-500,897	54,084	-0,026	-0,018
-499,883	297,436	-0,050	0,068
-498,868	-48,289	-0,044	-0,016
-497,853	-200,000	0,015	-0,174
-496,839	355,922	0,069	-0,102
-495,824	525,928	0,050	0,086
-494,810	800,000	0,037	0,098
-493,795	401,353	-0,046	-0,072
-492,781	9,456	0,004	-0,002
-491,766	800,000	-0,041	0,126
-490,751	98,543	0,088	-0,075
-489,737	-200,000	-0,004	-0,064
-488,722	419,298	-0,036	0,057
-487,708	143,006	0,025	0,024
-486,693	-0,741	-0,050	0,026
-485,678	800,000	0,011	-0,024
-484,664	-200,000	0,015	-0,086
-483,649	558,425	0,024	0,043
-482,635	800,000	0,068	0,143
-481,620	-71,649	0,031	-0,008
-480,605	-200,000	-0,011	0,097
-479,591	-200,000	-0,001	0,105
-478,576	800,000	0,057	0,122
-477,562	800,000	-0,021	-0,058
-476,547	11,040	-0,080	-0,045
-475,532	-8,305	-0,106	-0,052
-474,518	800,000	0,042	0,129
-473,503	55,558	0,082	0,058
-472,489	-97,884	0,066	0,012
-471,474	-69,789	-0,118	0,033
-470,459	200,443	0,030	0,034
-469,445	-200,000	0,000	0,039
-468,430	129,493	-0,027	-0,026
-467,416	-200,000	0,013	0,062
-466,401	20,244	-0,093	0,055
-465,386	-73,352	0,097	-0,026
-464,372	-200,000	-0,008	0,032
-463,357	-200,000	0,003	0,010
-462,343	661,033	0,048	0,091
-461,328	-200,000	-0,011	-0,080
-460,313	-142,494	-0,136	-0,010
-459,299	-154,647	0,078	0,004
-458,284	800,000	-0,009	0,021
-457,270	-90,358	-0,063	-0,013
-456,255	77,419	0,018	-0,014
-455,241	-47,980	-0,075	-0,026
-454,226	-200,000	0,035	-0,147
-453,211	-200,000	0,007	-0,091
-452,197	139,386	-0,053	0,051
-451,182	-200,000	0,001	0,063
-450,168	-23,287	0,070	0,031
-449,153	-200,000	-0,025	-0,104
-448,138	79,254	0,059	-0,046
-447,124	800,000	0,037	-0,116
-446,109	727,458	0,024	-0,046
-445,095	-200,000	0,038	0,150
-444,080	-200,000	-0,029	-0,141
-443,065	765,186	0,062	-0,124
-442,051	36,068	-0,050	0,032
-441,036	-200,000	-0,046	-0,150
-440,022	-200,000	-0,001	-0,018
-439,007	66,864	-0,022	0,017
-437,992	-119,095	0,186	-0,024
-436,978	-151,271	-0,085	0,005
-435,963	208,653	0,040	0,046
-434,949	800,000	0,013	0,026
-433,934	-200,000	-0,008	-0,084
-432,919	123,555	-0,069	-0,064
-431,905	-200,000	0,027	-0,160
-430,890	35,882	0,056	-0,036
-429,876	-200,000	0,003	-0,016
-428,861	158,376	0,022	-0,022
-427,846	157,222	0,124	0,126
-426,832	461,619	0,012	0,020
-425,817	37,191	-0,028	-0,018
-424,803	73,257	0,012	0,009
-423,788	-200,000	-0,020	0,098
-422,773	-200,000	0,008	0,118
-421,759	365,254	-0,017	0,025
-420,744	-200,000	0,004	-0,091
-419,730	-200,000	0,008	-0,081
-418,715	-200,000	0,009	-0,076
-417,701	-82,796	-0,055	0,013
-416,686	652,910	0,066	0,125
-415,671	800,000	0,056	0,118
-414,657	86,109	-0,140	0,113
-413,642	0,908	-0,065	-0,034
-412,628	-200,000	-0,027	-0,092
-411,613	60,006	-0,058	-0,042
-410,598	38,288	-0,089	-0,058
-409,584	214,821	0,108	0,126
-408,569	800,000	0,031	0,064
-407,555	227,113	0,080	0,096
-406,540	-200,000	-0,001	0,006
-405,525	88,373	-0,112	0,091
-404,511	456,794	0,102	-0,167
-403,496	-200,000	0,002	-0,137
-402,482	-27,290	-0,065	-0,028
-401,467	-8,907	0,093	0,045
-400,452	321,996	0,110	0,154
-399,438	-89,579	-0,098	-0,021
-398,423	800,000	0,015	-0,039
-397,409	800,000	0,051	-0,110
-396,394	-200,000	0,017	-0,190
-395,379	205,302	-0,106	-0,121
-394,365	-136,340	0,137	-0,012
-393,350	297,737	0,043	-0,058
-392,336	774,642	0,016	-0,032
-391,321	423,069	-0,042	0,066
-390,306	6,335	-0,008	0,005
-389,292	-143,563	0,023	-0,002
-388,277	-55,707	-0,008	-0,003
-387,263	800,000	-0,084	0,175
-386,248	-164,626	0,059	0,002
-385,233	562,190	-0,025	-0,044
-384,219	220,684	-0,021	-0,025
-383,204	351,002	0,057	0,083
-382,190	-4,631	-0,095	0,048
-381,175	-49,494	0,149	-0,052
-380,160	-84,525	-0,090	-0,021
-379,146	-122,581	0,068	-0,008
-378,131	447,994	-0,031	0,050
-377,117	114,088	-0,112	-0,100
-376,102	220,326	0,022	-0,026
-375,088	-102,302	-0,075	-0,013
-374,073	-59,320	0,140	-0,044
-373,058	64,968	-0,024	0,018
-372,044	-113,478	-0,155	0,022
-371,029	198,564	0,046	-0,052
-370,015	-200,000	-0,006	0,157
-369,000	203,490	-0,021	0,024
-367,985	615,001	0,024	0,043
-366,971	286,061	-0,090	0,119
-365,956	47,851	0,165	0,113
-364,942	-122,689	0,087	-0,010
-363,927	75,689	0,107	-0,083
-362,912	516,175	-0,047	0,080
-361,898	548,715	0,048	0,084
-360,883	59,156	0,026	-0,018
-359,869	-200,000	0,007	-0,093
-358,854	-123,914	0,055	0,006
-357,839	420,378	0,040	0,063
-356,825	-60,832	-0,106	-0,033
-355,810	800,000	0,026	0,075
-354,796	-200,000	-0,016	-0,138
-353,781	800,000	-0,072	-0,201
-352,766	-200,000	0,080	0,000
-351,752	-200,000	0,017	0,060
-350,737	-185,786	0,017	-0,000
-349,723	800,000	0,037	-0,080
-348,708	-28,639	0,096	-0,040
-347,693	-109,612	-0,047	0,007
-346,679	-200,000	-0,018	-0,127
-345,664	-200,000	-0,016	-0,100
-344,650	800,000	0,016	-0,044
-343,635	-89,707	0,079	-0,017
-342,620	-126,226	0,063	-0,007
-341,606	800,000	0,024	-0,068
-340,591	-117,347	-0,138	0,018
-339,577	79,834	0,057	0,045
-338,562	800,000	-0,047	-0,107
-337,548	-200,000	-0,008	-0,080
-336,533	-200,000	-0,008	0,110
-335,518	517,168	0,027	0,046
-334,504	-200,000	-0,018	0,129
-333,489	22,419	-0,077	-0,046
-332,475	102,745	-0,103	-0,088
-331,460	-14,190	-0,094	0,044
-330,445	591,330	0,048	0,087
-329,431	800,000	-0,015	-0,038
-328,416	9,143	-0,079	0,043
-327,402	800,000	-0,058	0,131
-326,387	553,518	0,076	0,134
-325,372	175,402	0,006	0,006
-324,358	-48,416	-0,114	0,040
-323,343	-77,295	-0,034	0,008
-322,329	70,313	0,074	-0,056
-321,314	-92,297	0,050	0,010
-320,299	251,793	0,085	0,106
-319,285	-200,000	-0,002	-0,111
-318,270	-61,728	-0,148	-0,045
-317,256	227,671	-0,061	-0,072
-316,241	107,692	-0,055	0,048
-315,226	-200,000	0,017	0,088
-314,212	800,000	0,021	0,059
-313,197	-177,794	0,046	-0,001
-312,183	-107,956	0,049	-0,008
-311,168	-200,000	-0,010	-0,097
-310,153	58,895	0,025	-0,018
-309,139	-21,285	-0,044	-0,020
-308,124	22,915	-0,107	0,064
-307,110	629,382	-0,025	-0,046
-306,095	219,475	0,092	0,108
-305,080	234,743	0,037	-0,045
-304,066	-50,211	-0,124	-0,043
-303,051	136,382	-0,059	-0,056
-302,037	-53,994	0,046	0,015
-301,022	106,065	-0,045	-0,039
-300,008	31,667	-0,046	-0,029
-298,993	10,732	0,069	0,039
-297,978	-200,000	0,008	-0,170
-296,964	-70,443	-0,115	0,032
-295,949	113,208	0,119	-0,105
-294,935	-194,803	-0,092	0,001
-293,920	57,488	-0,037	0,027
-292,905	696,628	0,068	-0,131
-291,891	-193,703	-0,077	0,000
-290,876	-200,000	-0,012	0,119
-289,862	-60,017	0,114	-0,035
-288,847	1,522	-0,054	0,028
-287,832	104,548	-0,065	-0,056
-286,818	390,552	0,111	-0,169
-285,803	-80,106	0,184	-0,045
-284,789	-200,000	0,052	0,190
-283,774	-117,640	0,073	-0,009
-282,759	-200,000	-0,020	0,069
-281,745	-200,000	0,020	0,108
-280,730	-44,929	-0,136	-0,049
-279,716	-200,000	0,000	-0,028
-278,701	800,000	0,033	0,071
-277,686	36,580	0,057	-0,037
-276,672	113,635	0,104	0,092
-275,657	596,109	0,079	-0,144
-274,643	-169,182	0,042	-0,001
-273,628	-200,000	0,020	-0,092
-272,613	-112,237	-0,100	0,015
-271,599	199,754	0,111	-0,124
-270,584	99,023	-0,068	-0,057
-269,570	-106,475	-0,039	-0,006
-268,555	-200,000	0,003	0,060
-267,540	72,916	-0,105	-0,080
-266,526	-200,000	0,003	-0,059
-265,511	-200,000	-0,029	0,159
-264,497	-200,000	-0,006	0,218
-263,482	104,527	0,071	-0,061
-262,467	114,614	0,045	0,040
-261,453	-200,000	0,011	0,066
-260,438	-56,137	-0,120	-0,039
-259,424	-200,000	-0,013	-0,054
-258,409	800,000	0,056	-0,166
-257,395	-171,895	0,117	0,003
-256,380	64,071	0,061	0,045
-255,365	296,157	0,050	0,066
-254,351	631,720	0,069	0,129
-253,336	-8,250	0,068	0,033
-252,322	134,903	0,034	0,033
-251,307	331,543	0,006	0,008
-250,292	168,538	-0,136	-0,142
-249,278	47,022	0,046	0,031
-248,263	2,326	-0,045	0,024
-247,249	379,792	0,047	-0,071
-246,234	609,015	-0,042	-0,076
-245,219	-74,322	-0,045	0,012
-244,205	49,753	-0,070	-0,048
-243,190	102,668	0,086	-0,073
-242,176	-45,236	-0,063	-0,023
-241,161	15,638	0,097	0,055
-240,146	361,175	-0,063	0,093
-239,132	-1,677	-0,035	0,018
-238,117	305,603	-0,093	0,126
-237,103	-200,000	0,001	-0,066
-236,088	-200,000	0,014	0,108
-235,073	532,517	0,016	0,027
-234,059	148,885	0,068	0,067
-233,044	-200,000	0,041	0,140
-232,030	-200,000	-0,035	0,146
-231,015	-162,501	0,051	-0,002
-230,000	-200,000	0,018	-0,070
-228,986	-200,000	0,031	-0,156
-227,971	-200,000	0,021	-0,146
-226,957	32,018	0,091	0,057
-225,942	212,410	-0,016	-0,018
-224,927	800,000	-0,032	0,071
-223,913	99,662	0,022	-0,019
-222,898	11,236	0,100	-0,055
-221,884	-200,000	-0,024	0,100
-220,869	544,728	-0,032	0,056
-219,855	-52,221	-0,120	-0,040
-218,840	-70,474	-0,009	-0,002
-217,825	800,000	-0,046	0,136
-216,811	-200,000	-0,008	0,090
-215,796	-47,605	0,097	-0,034
-214,782	800,000	0,053	-0,136
-213,767	-74,594	-0,119	0,031
-212,752	-84,072	0,087	-0,020
-211,738	281,585	0,083	-0,108
-210,723	-200,000	-0,005	0,119
-209,709	800,000	-0,023	0,068
-208,694	627,643	0,036	0,066
-207,679	-200,000	-0,005	0,030
-206,665	-142,889	0,061	0,004
-205,650	-200,000	-0,013	0,070
-204,636	59,548	-0,031	0,022
-203,621	-23,850	0,059	0,026
-202,606	-115,052	-0,098	-0,013
-201,592	112,729	-0,101	-0,089
-200,577	-200,000	0,011	0,048
-199,563	-175,911	0,078	0,001
-198,548	214,839	0,114	0,132
-197,533	800,000	0,046	0,109
-196,519	-194,962	0,094	-0,001
-195,504	-168,724	0,089	-0,002
-194,490	-200,000	0,003	0,024
-193,475	43,185	-0,104	0,069
-192,460	-200,000	0,012	0,198
-191,446	-200,000	0,002	0,038
-190,431	-200,000	-0,009	0,078
-189,417	421,135	-0,077	0,121
-188,402	-16,069	0,070	0,032
-187,387	732,545	-0,039	-0,076
-186,373	21,291	0,070	-0,041
-185,358	175,169	0,108	-0,114
-184,344	-132,149	-0,022	-0,002
-183,329	156,582	0,110	0,110
-182,315	-200,000	-0,009	-0,034
-181,300	-38,321	-0,045	-0,017
-180,285	-29,435	-0,068	-0,028
-179,271	-41,497	-0,066	-0,025
-178,256	-135,129	-0,191	-0,016
-177,242	-200,000	-0,028	0,117
-176,227	187,398	0,161	0,174
-175,212	-200,000	0,023	-0,090
-174,198	800,000	-0,038	-0,086
-173,183	-200,000	0,006	0,051
-172,169	-188,446	-0,058	-0,001
-171,154	132,262	0,044	0,041
-170,139	-71,125	0,057	-0,015
-169,125	362,652	0,091	0,133
-168,110	-200,000	-0,006	0,217
-167,096	-158,011	0,051	0,002
-166,081	800,000	0,049	-0,109
-165,066	261,442	-0,057	0,072
-164,052	-200,000	0,013	0,143
-163,037	-123,988	0,069	0,008
-162,023	-122,436	0,071	-0,008
-161,008	247,089	-0,066	0,081
-159,993	46,331	0,078	-0,053
-158,979	42,131	0,007	0,005
-157,964	-117,282	0,080	0,010
-156,950	-200,000	-0,004	0,022
-155,935	-73,563	0,143	0,037
-154,920	-72,304	-0,079	-0,021
-153,906	-200,000	0,006	0,166
-152,891	-200,000	-0,008	-0,095
-151,877	418,865	0,007	-0,012
-150,862	33,988	0,070	-0,044
-149,847	170,664	-0,045	0,047
-148,833	-200,000	0,001	-0,031
-147,818	28,804	-0,066	0,040
-146,804	-200,000	0,005	0,100
-145,789	-200,000	0,010	0,156
-144,775	269,110	-0,033	-0,042
-143,760	-200,000	-0,016	0,106
-142,745	376,936	-0,055	-0,082
-141,731	76,522	-0,072	-0,055
-140,716	36,282	-0,105	0,067
-139,702	115,644	0,083	0,073
-138,687	-200,000	0,023	0,073
-137,672	-73,290	0,018	0,005
-136,658	59,090	0,101	-0,072
-135,643	3,211	0,068	0,036
-134,629	669,982	-0,060	0,112
-133,614	-108,687	-0,067	0,010
-132,599	-71,168	-0,062	-0,017
-131,585	-105,001	0,084	0,014
-130,570	-116,621	-0,026	-0,003
-129,556	214,933	0,039	-0,045
-128,541	242,820	-0,142	-0,173
-127,526	800,000	-0,016	0,037
-126,512	-66,297	0,066	0,019
-125,497	-114,886	-0,043	0,006
-124,483	6,501	-0,114	0,061
-123,468	222,218	0,064	0,075
-122,453	205,741	0,062	0,070
-121,439	75,257	-0,107	-0,082
-120,424	29,572	-0,028	-0,017
-119,410	800,000	0,037	0,090
-118,395	38,595	0,118	-0,076
-117,380	-200,000	0,032	-0,109
-116,366	454,335	0,043	0,069
-115,351	800,000	-0,014	0,035
-114,337	-200,000	-0,020	-0,091
-113,322	-44,003	-0,045	0,016
-112,307	137,553	0,090	0,085
-111,293	600,564	-0,059	0,106
-110,278	62,913	0,084	-0,061
-109,264	800,000	0,045	-0,133
-108,249	613,472	-0,013	0,024
-107,234	-173,487	-0,006	0,000
-106,220	80,642	-0,108	0,085
-105,205	66,453	0,136	0,100
-104,191	-26,241	0,081	-0,034
-103,176	-88,669	0,066	-0,014
-102,162	51,931	-0,052	0,036
-101,147	800,000	-0,025	0,053
-100,132	800,000	-0,013	-0,028
-99,118	-200,000	-0,032	0,169
-98,103	286,040	0,044	0,058
-97,089	498,437	0,075	-0,125
-96,074	-200,000	0,026	-0,096
-95,059	261,549	-0,008	0,010
-94,045	15,120	0,008	0,005
-93,030	800,000	-0,039	0,096
-92,016	60,132	-0,240	-0,172
-91,001	97,635	0,051	0,042
-89,986	-154,428	-0,175	-0,008
-88,972	-200,000	0,028	0,093
-87,957	30,118	-0,005	-0,003
-86,943	-4,683	0,052	0,026
-85,928	800,000	0,064	-0,178
-84,913	76,793	0,060	0,046
-83,899	800,000	-0,063	0,135
-82,884	203,626	0,100	0,113
-81,870	800,000	-0,035	-0,111
-80,855	800,000	-0,012	0,027
-79,840	-60,695	-0,098	-0,030
-78,826	177,348	-0,057	-0,060
-77,811	574,628	-0,078	-0,138
-76,797	3,908	-0,096	0,051
-75,782	800,000	0,010	-0,031
-74,767	661,962	0,059	-0,111
-73,753	236,229	-0,036	0,043
-72,738	-136,566	0,084	0,007
-71,724	97,932	0,035	0,029
-70,709	-139,744	-0,055	0,004
-69,694	12,133	-0,031	-0,017
-68,680	-24,889	0,178	0,076
-67,665	800,000	-0,007	-0,016
-66,651	-44,924	-0,085	0,030
-65,636	115,186	-0,046	-0,041
-64,622	-82,553	0,119	0,028
-63,607	-200,000	0,049	0,190
-62,592	27,446	-0,113	-0,069
-61,578	-200,000	-0,009	-0,030
-60,563	-89,299	0,109	-0,023
-59,549	-166,156	-0,092	0,003
-58,534	-100,763	-1,431	-0,253
-57,519	800,000	-0,614	-1,383
-56,505	-200,000	-0,959	-4,582
-55,490	-63,949	0,594	-0,175
-54,476	800,000	5,049	11,791
-53,461	-200,000	14,639	260,050
-52,446	-200,000	696,776	2235,770
-51,432	564,879	1622,677	2858,001
-50,417	117,765	1630,101	1452,577
-49,403	74,804	1284,188	977,375
-48,388	37,400	1022,597	654,753
-47,373	23,251	981,856	582,210
-46,359	22,380	971,071	572,940
-45,344	21,227	967,042	566,777
-44,330	21,219	965,416	565,775
-43,315	21,071	963,864	564,361
-42,300	21,060	962,957	563,771
-41,286	21,025	961,879	563,004
-40,271	21,038	960,878	562,438
-39,257	21,060	960,122	562,046
-38,242	21,029	959,043	561,291
-37,227	21,018	958,140	560,706
-36,213	20,970	957,370	560,078
-35,198	20,983	956,406	559,534
-34,184	20,999	955,782	559,198
-33,169	21,006	954,715	558,573
-32,154	21,057	954,022	558,311
-31,140	21,049	953,055	557,695
-30,125	21,062	952,327	557,289
-29,111	21,079	951,562	556,875
-28,096	21,053	950,827	556,338
-27,082	21,013	950,170	555,805
-26,067	20,997	949,392	555,277
-25,052	21,036	948,666	554,954
-24,038	21,055	947,890	554,540
-23,023	21,057	947,248	554,149
-22,009	21,044	946,841	553,845
-20,994	21,034	946,152	553,388
-19,979	21,050	945,476	553,022
-18,965	21,058	944,914	552,697
-17,950	20,986	944,300	552,086
-16,936	20,961	943,641	551,600
-15,921	20,997	943,005	551,322
-14,906	20,884	942,315	550,537
-13,892	20,931	941,474	550,175
-12,877	20,898	941,007	549,775
-11,863	20,914	940,115	549,280
-10,848	20,898	939,780	549,012
-9,833	20,985	939,532	549,122
-8,819	20,997	938,677	548,639
-7,804	20,911	938,047	547,976
-6,790	20,900	937,622	547,673
-5,775	20,982	936,780	547,416
-4,760	20,910	936,208	546,834
-3,746	20,918	935,716	546,550
-2,731	20,767	934,945	545,601
-1,717	20,788	934,183	545,202
-0,702	20,684	933,597	544,511
0,313	20,558	932,967	544,568
1,327	23,567	931,081	552,867
2,342	32,723	794,040	495,803
3,356	30,277	450,325	277,485
4,371	0,149	294,009	151,102
5,386	-4,330	274,976	137,072
6,400	-5,565	269,505	133,186
7,415	-5,923	267,159	131,686
8,429	-5,715	265,959	131,274
9,444	-5,671	265,045	130,851
10,459	-5,693	264,473	130,536
11,473	-5,635	263,948	130,319
12,488	-5,689	263,356	129,966
13,502	-5,938	262,747	129,429
14,517	-5,925	262,432	129,273
15,531	-5,982	262,086	129,040
16,546	-5,738	261,677	129,047
17,561	-5,767	261,331	128,838
18,575	-5,850	260,968	128,574
19,590	-6,008	260,699	128,288
20,604	-5,796	260,434	128,336
21,619	-5,756	260,041	128,166
22,634	-5,906	259,600	127,804
23,648	-5,868	259,204	127,632
24,663	-5,909	259,105	127,535
25,677	-5,993	258,887	127,342
26,692	-5,850	258,564	127,299
27,707	-5,869	258,371	127,175
28,721	-5,961	257,927	126,864
29,736	-5,977	257,772	126,761
30,750	-6,097	257,609	126,564
31,765	-6,044	257,300	126,448
32,780	-5,943	257,151	126,452
33,794	-5,999	256,730	126,185
34,809	-6,006	256,614	126,110
35,823	-5,810	256,228	126,082
36,838	-6,135	256,059	125,701
37,853	-5,934	255,768	125,724
38,867	-6,056	255,743	125,594
39,882	-6,000	255,574	125,549
40,896	-5,966	255,107	125,338
41,911	-6,018	254,946	125,202
42,926	-6,185	254,828	124,987
43,940	-6,022	254,494	124,954
44,955	-6,041	254,273	124,818
45,969	-6,041	253,948	124,647
46,984	-6,368	253,942	124,349
47,999	-6,562	253,598	123,999
49,013	-6,519	253,221	123,842
50,028	-6,719	253,083	123,589
51,042	-6,847	252,764	123,311
52,057	-6,836	252,514	123,187
53,071	-6,766	252,400	123,182
54,086	-6,724	252,240	123,129
55,101	-6,358	251,911	123,275
56,115	-6,421	251,966	123,236
57,130	-5,958	251,795	123,541
58,144	-5,626	251,547	123,695
59,159	-5,854	251,470	123,449
60,174	-5,688	251,240	123,468
61,188	-5,847	250,978	123,192
62,203	-5,846	250,800	123,094
63,217	-5,783	250,489	122,985
64,232	-5,895	250,366	122,818
65,247	-5,915	250,083	122,650
66,261	-5,715	249,803	122,673
67,276	-6,026	249,630	122,311
68,290	-6,231	249,320	121,974
69,305	-6,336	249,204	121,816
70,320	-6,371	249,009	121,680
71,334	-6,035	248,901	121,902
72,349	-5,915	248,778	121,934
73,363	-5,728	248,516	121,954
74,378	-5,892	248,408	121,751
75,393	-5,836	247,965	121,570
76,407	-5,965	247,857	121,397
77,422	-5,837	247,548	121,343
78,436	-5,896	247,639	121,327
79,451	-5,775	247,357	121,281
80,466	-6,007	247,013	120,905
81,480	-6,192	246,837	120,652
82,495	-6,053	246,619	120,651
83,509	-5,944	246,395	120,623
84,524	-6,051	246,223	120,438
85,539	-6,166	245,887	120,166
86,553	-6,247	245,849	120,069
87,568	-6,055	245,716	120,155
88,582	-5,981	245,304	120,005
89,597	-6,139	245,259	119,839
90,611	-6,188	245,187	119,752
91,626	-5,940	245,122	119,918
92,641	-5,899	244,827	119,797
93,655	-5,806	244,566	119,736
94,670	-6,032	244,395	119,454
95,684	-6,039	244,099	119,292
96,699	-6,209	244,116	119,148
97,714	-6,219	243,897	119,022
98,728	-6,377	243,684	118,775
99,743	-6,274	243,465	118,744
100,757	-6,284	243,293	118,642
101,772	-6,245	243,136	118,587
102,787	-6,346	243,038	118,444
103,801	-6,053	242,697	118,511
104,816	-5,956	242,630	118,548
105,830	-5,795	242,429	118,572
106,845	-5,885	242,264	118,407
107,860	-5,892	242,050	118,285
108,874	-5,917	241,812	118,138
109,889	-5,965	241,654	118,011
110,903	-6,079	241,458	117,811
111,918	-6,100	241,290	117,701
112,933	-6,062	241,124	117,640
113,947	-5,993	241,116	117,683
114,962	-5,928	240,878	117,610
115,976	-5,815	240,607	117,560
116,991	-5,963	240,370	117,312
118,006	-5,966	240,297	117,263
119,020	-6,014	240,164	117,149
120,035	-5,836	240,126	117,266
121,049	-5,848	239,815	117,093
122,064	-5,950	239,718	116,952
123,079	-5,974	239,455	116,794
124,093	-6,107	239,376	116,636
125,108	-6,185	238,964	116,362
126,122	-6,423	238,794	116,075
127,137	-6,637	238,725	115,857
128,151	-6,467	238,405	115,829
129,166	-6,220	238,438	116,036
130,181	-6,070	237,972	115,920
131,195	-6,231	237,921	115,755
132,210	-6,186	237,722	115,684
133,224	-6,251	237,859	115,687
134,239	-5,946	237,413	115,707
135,254	-6,066	237,263	115,527
136,268	-6,184	237,186	115,383
137,283	-6,286	236,848	115,126
138,297	-6,239	236,495	114,983
139,312	-6,462	236,388	114,741
140,327	-6,220	236,359	114,911
141,341	-5,516	236,220	115,400
142,356	-5,757	236,115	115,144
143,370	-5,531	236,024	115,271
144,385	-5,678	235,994	115,128
145,400	-5,653	235,735	115,012
146,414	-5,602	235,486	114,921
147,429	-5,735	235,394	114,759
148,443	-5,724	235,155	114,641
149,458	-5,427	234,821	114,705
150,473	-5,693	234,928	114,534
151,487	-5,943	234,706	114,217
152,502	-5,647	234,475	114,330
153,516	-5,738	234,376	114,199
154,531	-5,817	234,209	114,045
155,546	-5,923	233,948	113,823
156,560	-5,878	233,741	113,748
157,575	-6,043	233,746	113,609
158,589	-6,002	233,537	113,530
159,604	-5,608	233,347	113,740
160,619	-5,597	233,267	113,700
161,633	-5,483	233,065	113,681
162,648	-5,469	232,836	113,571
163,662	-5,794	232,809	113,290
164,677	-6,075	232,595	112,954
165,692	-5,641	232,348	113,166
166,706	-5,847	232,413	113,025
167,721	-5,562	232,081	113,078
168,735	-5,547	231,961	113,022
169,750	-5,440	231,738	112,987
170,764	-5,496	231,563	112,848
171,779	-5,617	231,544	112,733
172,794	-5,504	231,417	112,750
173,808	-5,711	231,090	112,419
174,823	-6,217	230,873	111,906
175,837	-6,198	230,646	111,801
176,852	-5,929	230,635	111,996
177,867	-5,767	230,515	112,055
178,881	-5,775	230,437	112,001
179,896	-5,718	230,429	112,031
180,910	-5,364	229,999	112,088
181,925	-5,565	229,938	111,893
182,940	-5,601	229,709	111,743
183,954	-5,263	229,560	111,924
184,969	-5,325	229,378	111,776
185,983	-5,542	229,387	111,602
186,998	-5,330	229,222	111,676
188,013	-5,445	228,938	111,439
189,027	-5,381	228,778	111,401
190,042	-5,544	228,676	111,214
191,056	-5,421	228,517	111,222
192,071	-5,427	228,382	111,143
193,086	-5,508	228,318	111,039
194,100	-5,470	228,051	110,929
195,115	-5,806	227,973	110,621
196,129	-6,287	227,426	109,975
197,144	-3,400	228,414	112,676
198,159	0,890	229,663	116,612
199,173	3,489	230,318	118,952
200,188	3,849	230,284	119,204
201,202	3,993	230,098	119,208
202,217	4,033	230,179	119,271
203,232	4,060	230,004	119,191
204,246	4,281	229,812	119,251
205,261	4,311	229,649	119,179
206,275	4,260	229,827	119,221
207,290	4,369	229,586	119,170
208,304	4,348	229,219	118,953
209,319	4,568	229,057	119,027
210,334	4,429	228,892	118,824
211,348	4,103	228,678	118,452
212,363	4,100	228,346	118,267
213,377	3,675	228,265	117,888
214,392	3,607	227,966	117,671
215,407	3,901	227,935	117,870
216,421	3,697	227,802	117,634
217,436	3,676	227,619	117,513
218,450	3,747	227,214	117,348
219,465	3,479	227,174	117,112
220,480	3,538	226,994	117,053
221,494	3,282	227,078	116,891
222,509	3,674	226,802	117,037
223,523	3,665	226,630	116,932
224,538	3,389	226,537	116,663
225,553	3,676	226,406	116,803
226,567	3,700	226,308	116,761
227,582	3,966	226,283	116,940
228,596	3,940	226,104	116,817
229,611	3,760	225,819	116,523
230,626	3,504	225,594	116,202
231,640	3,575	225,469	116,181
232,655	3,881	225,370	116,351
233,669	4,159	225,457	116,596
234,684	4,173	225,308	116,520
235,699	4,153	224,914	116,291
236,713	3,716	224,844	115,914
237,728	3,723	224,607	115,787
238,742	3,474	224,550	115,559
239,757	3,465	224,314	115,421
240,772	3,733	224,102	115,503
241,786	3,401	224,044	115,213
242,801	3,849	223,844	115,437
243,815	3,923	224,004	115,565
244,830	3,868	223,777	115,396
245,844	3,644	223,434	115,040
246,859	3,626	223,495	115,049
247,874	3,863	223,209	115,068
248,888	3,992	223,048	115,071
249,903	3,673	222,966	114,780
250,917	3,777	222,866	114,796
251,932	3,690	222,527	114,547
252,947	3,283	222,541	114,240
253,961	3,651	222,205	114,332
254,976	3,532	222,128	114,193
255,990	4,088	222,075	114,569
257,005	3,984	221,865	114,373
258,020	3,791	221,894	114,234
259,034	3,833	221,812	114,213
260,049	3,695	221,583	113,983
261,063	3,830	221,451	114,005
262,078	3,679	221,387	113,850
263,093	3,896	221,121	113,864
264,107	3,830	221,024	113,755
265,122	3,963	220,822	113,739
266,136	3,922	220,795	113,685
267,151	4,197	220,460	113,705
268,166	3,839	220,285	113,341
269,180	3,626	220,109	113,083
270,195	3,461	219,992	112,892
271,209	3,354	219,769	112,688
272,224	3,732	219,737	112,939
273,239	3,955	219,483	112,963
274,253	3,538	219,401	112,605
275,268	3,389	219,232	112,399
276,282	3,388	219,134	112,337
277,297	3,335	218,858	112,147
278,312	3,454	218,846	112,218
279,326	3,607	218,769	112,280
280,341	3,527	218,556	112,102
281,355	3,860	218,411	112,261
282,370	3,820	218,278	112,154
283,384	3,581	218,084	111,870
284,399	3,378	217,851	111,593
285,414	3,498	217,740	111,613
286,428	3,687	217,814	111,779
287,443	3,857	217,699	111,834
288,457	3,873	217,577	111,773
289,472	3,913	217,209	111,603
290,487	3,091	217,031	110,905
291,501	3,271	216,964	110,991
292,516	3,341	216,902	111,000
293,530	3,490	216,764	111,028
294,545	3,425	216,455	110,813
295,560	3,491	216,465	110,855
296,574	3,574	216,353	110,849
297,589	3,733	216,190	110,870
298,603	3,693	216,139	110,805
299,618	3,542	216,014	110,622
300,633	3,556	215,978	110,603
301,647	3,755	215,779	110,635
302,662	4,009	215,545	110,688
303,676	3,868	215,301	110,451
304,691	3,866	215,251	110,415
305,706	4,069	215,318	110,586
306,720	4,122	215,167	110,536
307,735	3,792	214,885	110,145
308,749	3,683	214,702	109,963
309,764	3,995	214,746	110,199
310,779	3,871	214,526	109,987
311,793	3,658	214,313	109,716
312,808	3,752	214,133	109,682
313,822	3,921	214,054	109,752
314,837	3,654	213,840	109,442
315,852	3,472	213,689	109,226
316,866	3,679	213,683	109,360
317,881	3,788	213,560	109,365
318,895	4,030	213,296	109,392
319,910	3,825	213,149	109,161
320,925	3,496	213,066	108,875
321,939	3,102	212,873	108,487
322,954	3,324	212,641	108,517
323,968	3,797	212,669	108,857
324,983	3,989	212,564	108,929
325,997	3,784	212,534	108,759
327,012	3,793	212,290	108,631
328,027	3,801	212,112	108,536
329,041	4,188	212,046	108,765
330,056	4,196	212,001	108,738
331,070	3,632	211,805	108,230
332,085	3,399	211,533	107,918
333,100	3,474	211,426	107,906
334,114	3,704	211,238	107,963
335,129	3,605	211,218	107,873
336,143	3,571	211,154	107,806
337,158	3,518	210,970	107,666
338,173	3,612	210,721	107,595
339,187	3,495	210,553	107,418
340,202	3,351	210,408	107,233
341,216	3,618	210,191	107,300
342,231	3,504	210,163	107,196
343,246	3,113	210,049	106,855
344,260	3,463	209,777	106,952
345,275	3,551	209,865	107,048
346,289	3,717	209,760	107,101
347,304	3,573	209,749	106,986
348,319	3,773	209,453	106,965
349,333	3,582	209,322	106,755
350,348	3,805	209,166	106,821
351,362	3,772	209,142	106,776
352,377	3,908	208,822	106,698
353,392	3,580	208,864	106,482
354,406	3,593	208,708	106,402
355,421	194,374	1344,311	1430,688
356,435	155,120	1482,736	1430,764
