DTS Sentinel unit serial number:	SN410029Multiplexer serial number:	ORYXHardware model number:	OX2-SRSoftware version number:	ORYX F/W v4,00 Oryx Data Collector v3.7.2.0data status	okinstallation	B6 Nyhavnadifferential loss correction	single-endedforward channel	channel 2reverse channel	N/Adate	2023/12/10time	02:05:08forward acquisition time	300,00reverse acquisition time	0,00gamma	499,1914k internal	0,3125k external	0,3125temperature offset calibration	1,0000default loss term (dB/km)	0,3820temperature slope calibration	1,0000multiplexer offset coefficient	1,0000multiplexer slope coefficient	1,0000fibre end	0,00T internal ref (°C)	21,94T ext. ref 1 (°C)	5,70T ext. ref 2 (°C)	5,67length (m)	temperature (°C)	Stokes	anti-Stokes-744,400	-200,000	-0,015	-0,153
-743,385	-49,950	-0,309	0,109
-742,371	-200,000	0,007	0,059
-741,356	-5,142	-0,311	0,159
-740,342	257,708	0,061	0,078
-739,327	-104,144	-0,249	-0,043
-738,312	385,313	-0,008	-0,012
-737,298	-10,869	-0,220	0,108
-736,283	-41,526	-0,081	0,031
-735,269	-31,602	-0,186	0,077
-734,254	-87,349	0,079	0,018
-733,239	-114,049	-0,432	-0,062
-732,225	-52,871	0,120	-0,041
-731,210	308,828	0,052	0,072
-730,196	-200,000	-0,008	-0,039
-729,181	-117,439	0,046	0,006
-728,167	-200,000	-0,008	-0,084
-727,152	-7,462	-0,073	-0,037
-726,137	-107,980	-0,096	-0,015
-725,123	446,848	-0,060	-0,098
-724,108	44,872	-0,092	-0,063
-723,094	800,000	0,055	-0,114
-722,079	0,879	-0,087	-0,046
-721,064	81,496	0,125	-0,101
-720,050	26,648	-0,005	-0,003
-719,035	8,847	-0,105	-0,059
-718,021	343,277	-0,109	-0,160
-717,006	62,333	-0,027	-0,020
-715,991	-200,000	0,001	-0,048
-714,977	160,929	-0,025	0,026
-713,962	60,098	-0,047	0,034
-712,948	-200,000	0,060	0,214
-711,933	494,295	-0,042	-0,072
-710,918	135,779	-0,125	0,121
-709,904	-66,680	-0,014	0,004
-708,889	-12,897	0,076	0,037
-707,875	584,240	-0,046	-0,085
-706,860	404,502	0,057	-0,090
-705,845	-200,000	-0,018	0,108
-704,831	-164,441	-0,095	-0,003
-703,816	572,195	-0,053	-0,097
-702,802	-141,296	-0,127	0,009
-701,787	-82,354	-0,117	-0,028
-700,772	477,235	-0,026	0,044
-699,758	-133,678	-0,030	0,003
-698,743	-200,000	-0,022	0,153
-697,729	-200,000	0,006	-0,025
-696,714	800,000	-0,030	0,063
-695,699	373,369	-0,038	-0,058
-694,685	-35,776	-0,080	-0,032
-693,670	81,157	-0,142	0,114
-692,656	19,563	-0,016	0,010
-691,641	-137,638	-0,030	-0,002
-690,627	-80,563	0,080	-0,020
-689,612	-77,733	-0,126	0,032
-688,597	-200,000	-0,013	-0,050
-687,583	455,927	-0,032	0,054
-686,568	-137,135	0,069	-0,006
-685,554	-90,798	-0,126	-0,027
-684,539	337,513	-0,054	0,078
-683,524	622,908	-0,105	-0,197
-682,510	-134,675	0,175	-0,016
-681,495	171,288	-0,136	-0,145
-680,481	30,369	-0,046	-0,029
-679,466	66,048	-0,176	-0,132
-678,451	117,596	-0,092	-0,085
-677,437	3,911	0,135	-0,073
-676,422	350,260	-0,020	-0,030
-675,408	1,672	0,083	-0,044
-674,393	800,000	-0,013	0,041
-673,378	-178,951	0,020	-0,000
-672,364	-200,000	0,004	-0,091
-671,349	431,972	0,037	0,060
-670,335	273,887	0,057	-0,074
-669,320	-200,000	0,018	0,100
-668,305	37,143	0,080	-0,053
-667,291	380,691	-0,046	0,070
-666,276	-95,488	-0,132	-0,026
-665,262	61,405	0,010	0,007
-664,247	-200,000	-0,004	0,056
-663,232	293,164	0,049	0,067
-662,218	-200,000	0,027	0,181
-661,203	23,883	-0,053	0,032
-660,189	-61,335	0,046	0,014
-659,174	561,813	0,019	0,035
-658,159	-200,000	-0,012	-0,148
-657,145	74,556	-0,072	-0,056
-656,130	112,882	0,178	-0,160
-655,116	-22,987	-0,126	0,056
-654,101	-170,073	-0,037	0,001
-653,086	21,131	-0,064	-0,038
-652,072	800,000	-0,013	-0,043
-651,057	-16,300	-0,111	0,052
-650,043	285,146	-0,017	0,022
-649,028	166,327	-0,084	-0,088
-648,014	-158,269	-0,020	0,001
-646,999	125,616	0,102	0,096
-645,984	-200,000	0,014	0,071
-644,970	-61,692	-0,076	0,024
-643,955	763,619	-0,039	0,078
-642,941	-17,539	-0,066	0,031
-641,926	-200,000	-0,002	0,033
-640,911	231,235	0,088	0,107
-639,897	-200,000	0,022	-0,080
-638,882	-200,000	0,014	0,096
-637,868	623,917	0,045	-0,084
-636,853	-200,000	-0,011	-0,098
-635,838	800,000	-0,040	-0,089
-634,824	-55,361	-0,113	-0,037
-633,809	206,208	-0,061	-0,071
-632,795	-166,009	-0,115	-0,004
-631,780	173,374	-0,071	-0,076
-630,765	94,244	-0,081	0,068
-629,751	-4,406	-0,059	0,030
-628,736	13,207	-0,014	-0,008
-627,722	514,980	-0,036	-0,062
-626,707	575,668	-0,033	-0,059
-625,692	-57,629	0,024	0,008
-624,678	800,000	0,029	-0,088
-623,663	200,033	-0,057	-0,065
-622,649	-200,000	-0,006	-0,063
-621,634	-200,000	0,006	-0,123
-620,619	-200,000	0,013	-0,095
-619,605	-200,000	-0,005	0,039
-618,590	81,421	-0,021	0,017
-617,576	800,000	0,045	-0,103
-616,561	800,000	-0,014	-0,033
-615,546	384,219	-0,087	-0,134
-614,532	800,000	-0,035	-0,102
-613,517	163,795	-0,050	0,052
-612,503	80,775	-0,075	0,060
-611,488	-52,524	-0,054	0,018
-610,474	-200,000	0,001	0,014
-609,459	241,381	0,070	0,087
-608,444	524,627	0,037	0,064
-607,430	800,000	0,019	-0,054
-606,415	-200,000	0,020	-0,073
-605,401	48,615	0,056	-0,039
-604,386	136,461	-0,070	0,067
-603,371	-32,749	-0,062	-0,025
-602,357	86,910	-0,062	-0,051
-601,342	-200,000	-0,000	-0,104
-600,328	-200,000	-0,012	-0,105
-599,313	-200,000	0,037	-0,191
-598,298	39,378	0,071	0,047
-597,284	287,695	-0,032	-0,043
-596,269	368,535	-0,078	0,117
-595,255	-29,471	0,078	0,033
-594,240	800,000	-0,033	0,086
-593,225	169,066	0,063	0,066
-592,211	800,000	0,004	0,009
-591,196	-50,822	0,078	0,027
-590,182	-112,559	-0,050	-0,007
-589,167	462,136	-0,072	0,120
-588,152	531,640	-0,076	0,134
-587,138	64,602	0,034	-0,025
-586,123	-36,061	-0,095	0,038
-585,109	148,254	0,095	-0,095
-584,094	-23,968	-0,040	-0,017
-583,079	-101,869	0,034	-0,006
-582,065	800,000	-0,012	-0,030
-581,050	238,140	0,060	-0,074
-580,036	-200,000	-0,006	0,038
-579,021	-200,000	-0,006	-0,041
-578,006	-200,000	-0,000	0,004
-576,992	-50,842	0,072	-0,025
-575,977	-73,881	0,125	-0,033
-574,963	-200,000	0,015	0,128
-573,948	375,404	0,046	0,070
-572,934	-103,778	0,059	-0,010
-571,919	444,194	-0,054	-0,089
-570,904	-178,520	-0,053	-0,001
-569,890	693,900	-0,059	-0,116
-568,875	570,779	-0,016	0,029
-567,861	51,413	-0,040	-0,028
-566,846	-200,000	-0,000	0,008
-565,831	155,813	0,072	0,074
-564,817	293,315	-0,072	-0,098
-563,802	-132,295	-0,142	0,013
-562,788	-96,256	0,088	0,017
-561,773	-69,428	0,150	0,042
-560,758	-58,754	0,172	0,055
-559,744	-120,952	-0,070	0,009
-558,729	-185,406	-0,100	-0,001
-557,715	-164,438	-0,075	0,002
-556,700	15,657	-0,120	0,070
-555,685	-24,182	-0,101	-0,045
-554,671	-200,000	0,024	0,094
-553,656	-79,741	0,101	-0,025
-552,642	-61,471	-0,094	0,029
-551,627	-26,184	0,061	0,026
-550,612	-65,148	0,068	0,020
-549,598	485,312	0,009	-0,015
-548,583	-200,000	-0,014	-0,113
-547,569	800,000	-0,049	-0,133
-546,554	-25,062	0,103	-0,045
-545,539	-116,899	0,119	0,016
-544,525	-200,000	-0,002	-0,036
-543,510	442,502	-0,053	-0,086
-542,496	30,254	-0,042	0,027
-541,481	321,653	-0,077	0,109
-540,466	338,922	-0,065	-0,094
-539,452	211,643	-0,063	0,074
-538,437	308,348	0,054	0,074
-537,423	-106,663	-0,107	-0,017
-536,408	-116,243	0,119	0,016
-535,393	-95,132	0,021	0,004
-534,379	34,843	0,051	0,033
-533,364	84,881	0,066	0,054
-532,350	-116,468	-0,033	-0,004
-531,335	-48,666	0,027	0,009
-530,321	-37,725	-0,080	-0,031
-529,306	196,399	0,029	-0,033
-528,291	-107,135	-0,092	0,015
-527,277	800,000	0,040	-0,096
-526,262	575,593	-0,021	0,039
-525,248	-135,039	0,010	-0,001
-524,233	-200,000	0,031	-0,140
-523,218	626,439	-0,049	-0,091
-522,204	-40,086	0,036	-0,014
-521,189	-19,298	-0,026	-0,012
-520,175	245,262	-0,066	-0,082
-519,160	394,367	0,019	-0,029
-518,145	692,096	0,090	0,175
-517,131	-200,000	-0,022	0,128
-516,116	66,682	0,049	-0,037
-515,102	11,349	-0,026	-0,015
-514,087	-31,429	-0,094	0,039
-513,072	800,000	-0,023	-0,054
-512,058	183,657	-0,029	-0,031
-511,043	-35,485	0,041	0,017
-510,029	-200,000	0,031	0,127
-509,014	496,821	0,021	-0,036
-507,999	40,056	-0,097	-0,064
-506,985	34,152	0,092	-0,059
-505,970	86,829	-0,107	-0,087
-504,956	537,392	0,131	-0,230
-503,941	-200,000	-0,008	0,039
-502,926	-78,455	0,069	-0,017
-501,912	148,415	0,057	0,057
-500,897	299,875	0,052	0,071
-499,883	800,000	-0,029	0,095
-498,868	-200,000	-0,009	-0,040
-497,853	800,000	-0,033	-0,086
-496,839	-55,588	-0,105	-0,035
-495,824	92,387	-0,070	0,058
-494,810	-48,517	0,184	0,065
-493,795	632,117	0,050	0,093
-492,781	-200,000	0,015	-0,103
-491,766	59,823	-0,081	-0,059
-490,751	-8,834	-0,047	-0,023
-489,737	11,290	0,104	-0,058
-488,722	-56,773	-0,037	-0,012
-487,708	-142,314	0,098	0,007
-486,693	196,233	-0,069	-0,078
-485,678	800,000	0,018	0,053
-484,664	-200,000	0,015	0,058
-483,649	284,690	0,038	-0,051
-482,635	-200,000	-0,015	0,105
-481,620	-200,000	0,029	0,119
-480,605	-200,000	-0,017	0,122
-479,591	-59,505	0,189	0,059
-478,576	40,067	-0,139	-0,092
-477,562	800,000	-0,034	-0,102
-476,547	243,328	-0,093	-0,115
-475,532	-200,000	0,001	-0,024
-474,518	-56,441	-0,090	-0,029
-473,503	-10,620	0,107	0,052
-472,489	190,857	0,076	0,085
-471,474	-62,904	-0,027	0,008
-470,459	130,477	-0,079	-0,075
-469,445	-144,083	-0,092	-0,006
-468,430	-200,000	-0,004	-0,044
-467,416	800,000	0,027	0,074
-466,401	2,414	-0,056	0,030
-465,386	800,000	-0,029	0,068
-464,372	-76,385	0,160	0,041
-463,357	794,570	-0,019	0,038
-462,343	153,439	-0,077	0,078
-461,328	125,674	0,027	-0,025
-460,313	13,064	0,081	0,046
-459,299	-16,550	0,032	0,015
-458,284	-116,337	0,074	-0,010
-457,270	-24,699	-0,117	0,051
-456,255	715,264	-0,054	0,106
-455,241	273,972	-0,086	-0,112
-454,226	-200,000	0,004	-0,065
-453,211	56,888	-0,054	0,038
-452,197	-200,000	0,013	0,079
-451,182	86,556	0,051	-0,041
-450,168	800,000	0,024	0,071
-449,153	-85,134	-0,061	0,014
-448,138	16,433	0,008	-0,004
-447,124	-200,000	0,000	0,087
-446,109	-128,754	0,118	-0,012
-445,095	800,000	0,024	0,062
-444,080	-34,801	-0,078	-0,031
-443,065	-200,000	-0,022	0,175
-442,051	-200,000	0,007	0,100
-441,036	133,405	0,077	-0,073
-440,022	800,000	0,045	-0,125
-439,007	800,000	-0,012	-0,035
-437,992	-200,000	-0,004	-0,078
-436,978	76,682	-0,041	-0,032
-435,963	-200,000	0,009	-0,072
-434,949	-13,654	0,079	-0,037
-433,934	-117,501	-0,123	-0,016
-432,919	-126,464	0,070	-0,008
-431,905	-129,101	-0,119	-0,012
-430,890	80,575	-0,051	-0,040
-429,876	-200,000	-0,016	0,103
-428,861	-200,000	-0,014	-0,105
-427,846	-109,237	0,062	-0,010
-426,832	110,727	0,032	-0,028
-425,817	-72,137	0,050	-0,014
-424,803	-8,692	-0,046	0,023
-423,788	351,907	0,025	-0,037
-422,773	511,403	0,038	0,065
-421,759	68,946	0,158	0,120
-420,744	-52,499	0,121	0,041
-419,730	57,893	0,036	-0,026
-418,715	-200,000	-0,028	-0,113
-417,701	23,794	-0,008	-0,005
-416,686	-155,341	-0,172	0,008
-415,671	-118,248	0,138	-0,018
-414,657	231,385	0,050	0,060
-413,642	177,447	-0,037	0,040
-412,628	-167,947	0,129	0,004
-411,613	-46,235	-0,073	-0,026
-410,598	20,475	-0,067	0,040
-409,584	800,000	0,041	0,109
-408,569	-200,000	0,011	0,066
-407,555	675,591	-0,022	-0,042
-406,540	-200,000	0,017	0,079
-405,525	-200,000	-0,038	-0,151
-404,511	800,000	0,035	-0,083
-403,496	-200,000	-0,007	-0,032
-402,482	800,000	-0,012	-0,037
-401,467	32,724	-0,032	-0,021
-400,452	-143,491	-0,092	0,006
-399,438	250,696	-0,051	0,063
-398,423	-76,501	0,046	0,012
-397,409	-200,000	-0,021	0,110
-396,394	15,571	-0,117	-0,068
-395,379	160,522	0,072	0,074
-394,365	-76,132	-0,037	-0,010
-393,350	456,422	-0,086	0,140
-392,336	-200,000	0,000	-0,002
-391,321	-200,000	0,007	-0,132
-390,306	-200,000	0,020	-0,227
-389,292	337,550	-0,021	-0,030
-388,277	357,152	-0,046	-0,068
-387,263	-56,612	0,083	-0,027
-386,248	494,440	-0,043	-0,072
-385,233	220,889	0,022	-0,026
-384,219	779,953	0,048	-0,097
-383,204	800,000	-0,030	-0,096
-382,190	114,832	-0,143	-0,128
-381,175	-181,269	-0,099	0,001
-380,160	-191,177	0,032	-0,000
-379,146	109,498	0,051	-0,045
-378,131	-200,000	-0,006	0,057
-377,117	44,545	0,065	-0,044
-376,102	-200,000	0,004	0,114
-375,088	564,455	-0,018	0,031
-374,073	346,825	0,069	-0,100
-373,058	268,486	0,105	-0,136
-372,044	-60,506	0,022	0,007
-371,029	-87,724	0,071	0,016
-370,015	210,728	0,074	0,085
-369,000	-200,000	-0,028	0,125
-367,985	-42,743	0,065	-0,024
-366,971	-49,747	-0,092	0,032
-365,956	800,000	-0,030	0,077
-364,942	351,576	0,087	0,127
-363,927	283,914	0,088	0,116
-362,912	-200,000	-0,009	-0,125
-361,898	254,354	-0,103	0,130
-360,883	137,507	-0,086	-0,083
-359,869	-200,000	0,024	-0,167
-358,854	5,183	0,048	0,026
-357,839	235,382	-0,063	0,077
-356,825	6,831	0,030	0,016
-355,810	-121,039	-0,045	-0,005
-354,796	800,000	-0,014	-0,029
-353,781	-139,177	0,054	-0,004
-352,766	-79,499	0,083	0,021
-351,752	-177,853	0,124	0,002
-350,737	800,000	0,045	0,135
-349,723	800,000	0,005	0,013
-348,708	557,978	0,115	-0,204
-347,693	-1,608	-0,031	-0,016
-346,679	-200,000	-0,016	0,083
-345,664	480,444	0,066	0,110
-344,650	171,507	0,075	-0,079
-343,635	-200,000	0,029	0,223
-342,620	131,649	0,064	0,060
-341,606	800,000	0,033	0,079
-340,591	-200,000	-0,023	0,078
-339,577	-173,734	-0,090	0,002
-338,562	684,519	-0,084	-0,162
-337,548	-1,009	0,044	-0,023
-336,533	43,682	0,082	0,055
-335,518	-38,296	0,101	0,039
-334,504	9,916	0,116	-0,065
-333,489	136,966	-0,071	-0,068
-332,475	689,623	0,031	-0,061
-331,460	-103,741	-0,201	-0,034
-330,445	566,364	0,065	0,116
-329,431	-200,000	-0,012	0,042
-328,416	373,289	0,136	0,203
-327,402	198,587	0,016	-0,018
-326,387	800,000	0,054	-0,133
-325,372	275,416	-0,062	-0,081
-324,358	-112,982	-0,093	0,013
-323,343	25,129	0,037	0,022
-322,329	-200,000	-0,004	-0,018
-321,314	1,566	0,095	0,050
-320,299	-200,000	0,001	-0,017
-319,285	-113,965	-0,108	0,015
-318,270	-19,369	0,045	0,020
-317,256	235,242	-0,077	-0,094
-316,241	33,592	-0,039	-0,025
-315,226	-78,279	0,110	-0,028
-314,212	-57,818	0,037	0,012
-313,197	56,133	-0,020	-0,014
-312,183	-38,381	0,154	0,060
-311,168	147,561	0,019	-0,018
-310,153	-200,000	0,002	-0,034
-309,139	800,000	-0,022	0,061
-308,124	-200,000	-0,020	0,181
-307,110	26,142	0,145	0,089
-306,095	-140,050	0,073	0,006
-305,080	8,266	-0,120	-0,066
-304,066	-128,184	0,065	0,007
-303,051	-15,723	-0,025	-0,012
-302,037	315,876	-0,049	-0,068
-301,022	-200,000	-0,033	0,148
-300,008	217,143	-0,047	0,055
-298,993	-128,682	-0,055	0,006
-297,978	-200,000	0,003	0,034
-296,964	358,112	-0,017	0,026
-295,949	-88,568	-0,145	0,031
-294,935	-200,000	0,012	-0,093
-293,920	800,000	0,023	-0,056
-292,905	-22,569	-0,049	0,022
-291,891	434,419	-0,031	-0,050
-290,876	275,770	0,035	0,046
-289,862	-200,000	-0,001	0,038
-288,847	-130,847	-0,106	-0,010
-287,832	172,994	0,118	-0,124
-286,818	90,926	0,116	-0,095
-285,803	312,343	-0,077	0,106
-284,789	-20,914	-0,033	-0,015
-283,774	476,327	-0,019	0,031
-282,759	-3,300	-0,048	0,024
-281,745	131,418	-0,039	-0,036
-280,730	-11,202	0,101	0,049
-279,716	102,543	-0,139	0,119
-278,701	488,094	0,072	0,121
-277,686	-200,000	0,003	0,041
-276,672	636,448	-0,066	0,123
-275,657	29,515	-0,084	0,052
-274,643	800,000	0,064	-0,148
-273,628	-67,666	-0,115	0,033
-272,613	459,728	0,039	0,064
-271,599	800,000	0,061	0,136
-270,584	-36,793	0,126	-0,049
-269,570	-147,448	0,071	-0,004
-268,555	800,000	0,025	-0,055
-267,540	40,707	-0,052	0,034
-266,526	42,507	0,085	0,056
-265,511	34,952	-0,051	-0,033
-264,497	156,093	-0,032	-0,032
-263,482	-6,783	0,103	-0,051
-262,467	173,124	0,017	0,017
-261,453	-90,606	0,049	0,010
-260,438	127,941	-0,107	0,100
-259,424	-131,831	-0,126	0,012
-258,409	-200,000	0,003	-0,088
-257,395	258,930	-0,047	0,060
-256,380	-76,226	0,006	-0,002
-255,365	10,781	-0,010	0,006
-254,351	124,605	0,034	-0,031
-253,336	28,180	-0,030	-0,019
-252,322	-46,223	-0,018	-0,006
-251,307	-200,000	-0,006	-0,090
-250,292	-200,000	0,076	-0,000
-249,278	620,329	-0,039	0,072
-248,263	64,024	-0,122	0,089
-247,249	-200,000	0,024	0,136
-246,234	-15,007	0,027	0,013
-245,219	581,085	-0,069	-0,125
-244,205	-137,507	0,198	-0,016
-243,190	-147,578	0,152	0,009
-242,176	239,455	0,089	0,108
-241,161	800,000	0,025	0,075
-240,146	-23,143	0,178	-0,078
-239,132	-139,657	0,034	-0,003
-238,117	-47,965	0,086	0,030
-237,103	-75,637	0,065	-0,017
-236,088	178,941	-0,117	-0,125
-235,073	-94,372	-0,130	-0,026
-234,059	800,000	-0,052	0,119
-233,044	125,559	0,070	-0,064
-232,030	-113,759	-0,107	-0,015
-231,015	-200,000	0,013	-0,122
-230,000	783,806	-0,018	0,036
-228,986	282,992	0,049	-0,064
-227,971	-200,000	-0,032	-0,158
-226,957	-72,290	0,114	-0,031
-225,942	111,842	0,035	0,031
-224,927	-12,536	-0,033	0,015
-223,913	562,492	-0,075	-0,133
-222,898	-58,828	-0,004	0,001
-221,884	26,658	0,029	-0,017
-220,869	12,267	-0,067	0,037
-219,855	-200,000	-0,006	0,126
-218,840	-200,000	-0,006	0,107
-217,825	-108,123	0,180	-0,028
-216,811	-124,977	0,074	0,008
-215,796	3,930	-0,054	-0,029
-214,782	-43,511	0,148	-0,054
-213,767	-200,000	0,013	-0,071
-212,752	-46,201	-0,031	0,011
-211,738	-35,000	0,133	-0,053
-210,723	-200,000	0,009	0,068
-209,709	-200,000	-0,033	-0,111
-208,694	154,658	-0,145	0,145
-207,679	-92,952	0,056	0,011
-206,665	93,524	-0,097	0,080
-205,650	-200,000	0,013	0,059
-204,636	7,280	0,081	-0,044
-203,621	-167,303	-0,143	-0,004
-202,606	-200,000	-0,028	-0,098
-201,592	-200,000	-0,072	0,000
-200,577	800,000	-0,032	0,071
-199,563	-200,000	0,010	0,118
-198,548	800,000	-0,026	0,082
-197,533	-200,000	-0,006	-0,080
-196,519	-97,655	-0,090	0,017
-195,504	-83,634	-0,101	-0,023
-194,490	43,362	0,109	-0,073
-193,475	800,000	-0,038	0,116
-192,460	581,702	-0,028	-0,051
-191,446	154,477	-0,153	0,154
-190,431	-124,093	-0,194	0,022
-189,417	-97,742	0,095	-0,018
-188,402	-200,000	-0,014	-0,095
-187,387	-2,321	-0,033	-0,017
-186,373	-9,579	-0,022	-0,011
-185,358	-159,128	-0,106	0,004
-184,344	172,047	0,088	0,092
-183,329	-94,139	-0,037	-0,007
-182,315	584,678	-0,152	-0,274
-181,300	24,464	-0,111	0,067
-180,285	800,000	-0,031	-0,097
-179,271	-119,250	0,105	-0,013
-178,256	48,411	-0,082	-0,056
-177,242	65,937	0,145	-0,107
-176,227	144,469	0,067	0,065
-175,212	-3,355	0,117	0,059
-174,198	800,000	-0,031	0,068
-173,183	-76,034	-0,088	-0,023
-172,169	-200,000	0,016	-0,105
-171,154	-97,412	-0,081	-0,015
-170,139	-130,265	0,124	-0,012
-169,125	51,680	0,077	0,053
-168,110	-47,879	0,036	0,013
-167,096	800,000	0,017	-0,046
-166,081	37,809	-0,065	-0,042
-165,066	-200,000	0,020	0,117
-164,052	31,755	0,039	0,025
-163,037	-38,827	-0,118	0,045
-162,023	-94,290	0,146	0,029
-161,008	-200,000	-0,023	0,075
-159,993	401,354	-0,061	0,094
-158,979	422,939	0,069	-0,108
-157,964	-25,915	0,062	-0,026
-156,950	52,164	-0,048	0,034
-155,935	-62,646	0,199	0,060
-154,920	-80,381	-0,091	-0,022
-153,906	163,214	0,056	0,058
-152,891	11,178	-0,073	0,041
-151,877	800,000	-0,021	-0,051
-150,862	-200,000	-0,002	-0,044
-149,847	-200,000	-0,006	-0,146
-148,833	-101,780	0,028	0,005
-147,818	-200,000	0,011	-0,083
-146,804	800,000	-0,004	0,011
-145,789	386,734	0,064	0,096
-144,775	800,000	0,026	0,068
-143,760	-95,489	0,018	0,003
-142,745	22,547	0,057	-0,034
-141,731	136,631	-0,055	0,052
-140,716	201,138	0,116	-0,130
-139,702	800,000	0,006	-0,013
-138,687	-12,890	-0,100	0,047
-137,672	45,599	0,086	0,058
-136,658	-200,000	-0,013	-0,145
-135,643	355,997	0,085	0,124
-134,629	-200,000	-0,018	-0,139
-133,614	739,019	-0,024	-0,048
-132,599	-200,000	-0,017	-0,064
-131,585	-81,967	0,146	0,034
-130,570	280,834	-0,066	0,086
-129,556	800,000	-0,027	-0,062
-128,541	-200,000	0,003	-0,012
-127,526	228,863	0,042	-0,050
-126,512	613,369	-0,018	-0,032
-125,497	-77,306	0,132	0,033
-124,483	-116,656	-0,214	-0,028
-123,468	448,782	-0,032	0,051
-122,453	216,652	-0,029	0,033
-121,439	337,071	0,043	-0,060
-120,424	317,805	0,056	-0,077
-119,410	118,960	-0,022	0,019
-118,395	800,000	-0,069	0,154
-117,380	-200,000	-0,012	-0,044
-116,366	-200,000	0,013	-0,160
-115,351	-4,221	-0,064	0,032
-114,337	703,121	-0,048	-0,093
-113,322	-200,000	0,003	-0,088
-112,307	205,260	0,049	-0,055
-111,293	-150,393	0,098	-0,005
-110,278	-113,553	0,142	-0,020
-109,264	-101,201	0,142	0,025
-108,249	-123,164	-0,157	-0,018
-107,234	441,414	0,042	-0,067
-106,220	428,382	-0,063	-0,100
-105,205	-90,444	0,098	0,020
-104,191	-91,296	-0,069	0,014
-103,176	-88,098	0,054	-0,012
-102,162	21,097	-0,104	-0,061
-101,147	92,950	0,047	0,038
-100,132	99,714	-0,063	0,053
-99,118	87,104	-0,042	-0,033
-98,103	274,547	-0,069	0,089
-97,089	662,300	0,054	-0,101
-96,074	143,407	0,019	0,018
-95,059	-153,116	-0,142	-0,007
-94,045	687,209	-0,046	-0,088
-93,030	-74,810	-0,021	0,005
-92,016	-200,000	-0,004	0,037
-91,001	800,000	0,074	-0,153
-89,986	164,445	0,107	0,110
-88,972	241,026	-0,117	-0,142
-87,957	17,822	0,087	-0,050
-86,943	-35,171	-0,097	0,038
-85,928	145,369	0,057	0,056
-84,913	162,324	-0,079	-0,080
-83,899	-200,000	-0,021	0,165
-82,884	800,000	0,044	0,129
-81,870	20,490	-0,066	0,039
-80,855	473,606	0,056	0,092
-79,840	-49,135	0,098	0,034
-78,826	779,234	0,060	-0,119
-77,811	800,000	0,006	0,018
-76,797	702,284	0,032	0,061
-75,782	-151,770	0,132	-0,007
-74,767	-37,742	0,116	0,045
-73,753	-143,183	0,178	-0,012
-72,738	137,447	-0,035	0,033
-71,724	800,000	-0,023	-0,055
-70,709	-160,010	-0,133	-0,005
-69,694	467,476	-0,032	0,052
-68,680	-200,000	0,033	0,155
-67,665	202,206	0,038	-0,043
-66,651	-40,247	0,105	0,040
-65,636	-200,000	-0,013	0,090
-64,622	-22,660	0,056	-0,024
-63,607	800,000	-0,079	-0,165
-62,592	-10,997	0,173	-0,082
-61,578	-94,891	0,074	-0,014
-60,563	-124,922	0,194	-0,021
-59,549	259,369	-0,103	0,130
-58,534	-95,307	-1,456	-0,282
-57,519	735,025	-0,759	-1,482
-56,505	-200,000	-0,940	-4,494
-55,490	11,956	0,606	-0,337
-54,476	800,000	4,919	11,669
-53,461	-200,000	13,948	252,695
-52,446	-200,000	692,774	2239,170
-51,432	575,426	1623,626	2885,890
-50,417	117,665	1632,908	1457,110
-49,403	72,336	1286,964	971,176
-48,388	37,471	1023,253	656,543
-47,373	23,979	981,226	585,249
-46,359	23,248	970,812	576,620
-45,344	22,194	966,552	570,626
-44,330	22,128	965,073	569,515
-43,315	22,060	963,421	568,297
-42,300	21,986	962,625	567,564
-41,286	21,967	961,797	566,992
-40,271	21,913	960,685	566,137
-39,257	21,949	959,792	565,706
-38,242	21,941	958,784	565,063
-37,227	21,950	957,940	564,572
-36,213	21,936	957,092	564,005
-35,198	21,877	956,381	563,373
-34,184	21,956	955,668	563,186
-33,169	21,923	954,773	562,531
-32,154	22,008	953,778	562,196
-31,140	22,082	952,750	561,804
-30,125	22,019	952,143	561,223
-29,111	22,033	951,183	560,680
-28,096	22,004	950,616	560,228
-27,082	21,948	949,837	559,568
-26,067	21,945	949,246	559,188
-25,052	21,986	948,424	558,814
-24,038	21,961	947,897	558,400
-23,023	21,968	947,254	558,021
-22,009	22,029	946,489	557,744
-20,994	21,976	945,918	557,216
-19,979	21,984	945,264	556,836
-18,965	22,012	944,552	556,482
-17,950	22,034	943,994	556,200
-16,936	21,922	943,432	555,490
-15,921	21,897	942,747	554,987
-14,906	21,879	941,823	554,364
-13,892	21,876	941,389	554,077
-12,877	21,883	940,607	553,617
-11,863	21,856	940,079	553,199
-10,848	21,843	939,471	552,778
-9,833	21,887	939,145	552,703
-8,819	21,920	938,436	552,367
-7,804	21,885	937,826	551,877
-6,790	21,821	937,211	551,290
-5,775	21,836	936,525	550,912
-4,760	21,887	935,819	550,634
-3,746	21,866	935,237	550,204
-2,731	21,713	934,727	549,400
-1,717	21,675	933,900	548,773
-0,702	21,707	933,247	548,470
0,313	21,510	932,546	548,265
1,327	24,611	930,580	556,798
2,342	34,122	794,745	500,804
3,356	31,948	450,792	280,771
4,371	1,115	293,672	152,166
5,386	-3,493	274,798	138,012
6,400	-4,745	269,240	134,047
7,415	-4,997	266,743	132,560
8,429	-4,907	265,651	132,088
9,444	-4,901	264,657	131,587
10,459	-4,623	263,907	131,456
11,473	-5,086	263,631	130,886
12,488	-5,135	262,992	130,512
13,502	-5,257	262,524	130,158
14,517	-4,993	262,105	130,177
15,531	-4,905	261,697	130,042
16,546	-4,786	261,232	129,907
17,561	-4,988	261,081	129,638
18,575	-4,775	260,674	129,616
19,590	-4,909	260,387	129,342
20,604	-5,010	259,982	129,038
21,619	-5,170	259,782	128,785
22,634	-5,014	259,271	128,659
23,648	-5,083	259,085	128,494
24,663	-4,948	258,800	128,462
25,677	-5,005	258,500	128,250
26,692	-5,014	258,276	128,119
27,707	-4,976	258,042	128,026
28,721	-4,946	257,699	127,871
29,736	-4,947	257,392	127,707
30,750	-5,113	257,205	127,455
31,765	-5,014	256,988	127,424
32,780	-5,094	256,783	127,240
33,794	-5,134	256,535	127,070
34,809	-5,117	256,341	126,978
35,823	-5,134	256,119	126,841
36,838	-5,100	255,912	126,758
37,853	-5,067	255,546	126,595
38,867	-5,021	255,387	126,545
39,882	-5,232	255,235	126,273
40,896	-5,103	254,980	126,249
41,911	-5,078	254,651	126,097
42,926	-5,200	254,529	125,917
43,940	-5,216	254,308	125,783
44,955	-5,176	253,987	125,648
45,969	-5,107	253,822	125,616
46,984	-5,360	253,615	125,282
47,999	-5,427	253,332	125,072
49,013	-5,558	253,057	124,811
50,028	-5,736	252,833	124,535
51,042	-5,687	252,529	124,417
52,057	-5,854	252,366	124,180
53,071	-5,694	252,193	124,223
54,086	-5,595	251,972	124,189
55,101	-5,531	251,833	124,165
56,115	-5,281	251,728	124,318
57,130	-5,037	251,589	124,449
58,144	-4,815	251,454	124,563
59,159	-4,736	251,291	124,539
60,174	-4,895	251,008	124,251
61,188	-4,750	251,007	124,364
62,203	-4,939	250,572	123,975
63,217	-4,792	250,459	124,034
64,232	-4,947	250,221	123,772
65,247	-5,033	249,993	123,575
66,261	-4,953	249,870	123,571
67,276	-5,036	249,282	123,198
68,290	-5,245	249,113	122,925
69,305	-5,414	249,067	122,747
70,320	-5,669	248,891	122,432
71,334	-5,284	248,748	122,679
72,349	-4,899	248,476	122,863
73,363	-4,869	248,329	122,804
74,378	-4,858	247,994	122,637
75,393	-5,149	248,031	122,397
76,407	-4,994	247,724	122,366
77,422	-4,955	247,421	122,239
78,436	-4,934	247,450	122,260
79,451	-4,971	247,097	122,044
80,466	-5,110	246,929	121,832
81,480	-5,098	246,695	121,715
82,495	-5,069	246,510	121,638
83,509	-5,170	246,301	121,439
84,524	-5,433	246,165	121,139
85,539	-5,121	245,759	121,191
86,553	-5,312	245,888	121,083
87,568	-5,217	245,482	120,953
88,582	-5,274	245,356	120,831
89,597	-5,326	245,214	120,707
90,611	-5,102	245,134	120,845
91,626	-4,962	244,859	120,816
92,641	-4,806	244,700	120,858
93,655	-5,087	244,550	120,537
94,670	-5,121	244,272	120,361
95,684	-5,247	244,039	120,130
96,699	-4,990	244,013	120,321
97,714	-4,981	243,702	120,165
98,728	-5,537	243,645	119,662
99,743	-5,304	243,338	119,695
100,757	-5,238	243,058	119,601
101,772	-5,305	242,865	119,440
102,787	-5,223	242,898	119,514
103,801	-5,145	242,592	119,417
104,816	-5,102	242,449	119,372
105,830	-5,238	242,361	119,205
106,845	-5,086	242,208	119,245
107,860	-5,089	241,955	119,107
108,874	-5,109	241,781	118,995
109,889	-5,043	241,520	118,911
110,903	-5,334	241,426	118,613
111,918	-4,993	241,129	118,737
112,933	-5,119	241,075	118,596
113,947	-5,108	240,911	118,514
114,962	-5,211	240,653	118,292
115,976	-5,005	240,482	118,367
116,991	-4,895	240,367	118,390
118,006	-4,957	240,090	118,192
119,020	-5,043	240,156	118,144
120,035	-4,866	239,936	118,170
121,049	-5,035	239,921	118,014
122,064	-4,843	239,498	117,952
123,079	-5,145	239,395	117,644
124,093	-5,032	239,093	117,578
125,108	-5,334	238,947	117,248
126,122	-5,435	238,714	117,041
127,137	-5,475	238,472	116,880
128,151	-5,262	238,307	116,962
129,166	-5,256	238,256	116,931
130,181	-5,263	237,943	116,762
131,195	-5,360	237,705	116,555
132,210	-5,153	237,703	116,712
133,224	-5,026	237,526	116,717
134,239	-5,006	237,410	116,666
135,254	-4,914	237,220	116,637
136,268	-5,254	237,118	116,302
137,283	-5,302	236,712	116,053
138,297	-5,503	236,566	115,809
139,312	-5,288	236,384	115,883
140,327	-5,028	236,231	116,008
141,341	-4,786	236,322	116,237
142,356	-4,778	236,167	116,156
143,370	-4,728	235,971	116,090
144,385	-4,592	235,741	116,076
145,400	-4,847	235,537	115,761
146,414	-4,518	235,364	115,928
147,429	-4,796	235,339	115,683
148,443	-5,006	235,253	115,462
149,458	-4,904	234,945	115,382
150,473	-4,840	234,821	115,363
151,487	-5,001	234,663	115,146
152,502	-4,633	234,462	115,330
153,516	-4,494	234,280	115,342
154,531	-4,873	234,064	114,923
155,546	-4,945	234,016	114,832
156,560	-4,944	233,744	114,689
157,575	-4,792	233,440	114,650
158,589	-5,010	233,483	114,488
159,604	-4,738	233,148	114,529
160,619	-4,604	233,014	114,560
161,633	-4,793	233,050	114,417
162,648	-4,643	232,880	114,443
163,662	-4,623	232,656	114,338
164,677	-4,843	232,515	114,084
165,692	-4,646	232,288	114,119
166,706	-4,663	232,253	114,078
167,721	-4,681	232,074	113,965
168,735	-4,676	231,850	113,849
169,750	-4,470	231,717	113,936
170,764	-4,791	231,741	113,685
171,779	-4,675	231,475	113,635
172,794	-4,640	231,391	113,612
173,808	-4,786	231,179	113,383
174,823	-5,241	230,812	112,836
175,837	-5,476	230,590	112,533
176,852	-5,153	230,635	112,798
177,867	-4,682	230,484	113,083
178,881	-4,518	230,261	113,091
179,896	-4,672	230,284	112,972
180,910	-4,653	230,189	112,931
181,925	-4,608	229,981	112,854
182,940	-4,768	229,746	112,604
183,954	-4,561	229,560	112,664
184,969	-4,613	229,470	112,569
185,983	-4,665	229,307	112,439
186,998	-4,682	229,256	112,390
188,013	-4,479	229,024	112,424
189,027	-4,531	228,866	112,296
190,042	-4,429	228,646	112,257
191,056	-4,664	228,554	112,020
192,071	-4,555	228,334	111,986
193,086	-4,518	228,228	111,953
194,100	-4,712	228,110	111,735
195,115	-4,959	227,753	111,360
196,129	-5,647	227,413	110,652
197,144	-3,141	228,402	113,065
198,159	1,234	229,428	116,961
199,173	3,639	230,006	119,113
200,188	4,035	229,959	119,385
201,202	3,749	229,934	119,140
202,217	4,151	229,772	119,357
203,232	4,349	229,593	119,406
204,246	4,315	229,457	119,298
205,261	4,420	229,462	119,372
206,275	4,643	229,195	119,395
207,290	4,825	229,128	119,490
208,304	4,794	229,003	119,390
209,319	4,642	228,818	119,165
210,334	4,653	228,569	119,033
211,348	4,477	228,357	118,778
212,363	4,103	228,060	118,325
213,377	3,954	227,890	118,112
214,392	4,032	227,744	118,085
215,407	3,745	227,665	117,814
216,421	4,095	227,409	117,939
217,436	3,816	227,214	117,613
218,450	3,679	227,028	117,402
219,465	3,426	226,990	117,178
220,480	3,537	226,866	117,189
221,494	3,606	226,659	117,124
222,509	3,760	226,485	117,141
223,523	3,924	226,316	117,168
224,538	3,605	226,281	116,897
225,553	3,905	226,091	117,017
226,567	3,892	225,967	116,932
227,582	4,299	225,964	117,229
228,596	4,004	225,904	116,964
229,611	3,564	225,716	116,521
230,626	3,524	225,309	116,271
231,640	3,737	225,248	116,390
232,655	3,949	225,197	116,514
233,669	4,144	225,154	116,630
234,684	4,395	224,978	116,718
235,699	4,130	224,857	116,443
236,713	3,922	224,646	116,167
237,728	3,893	224,490	116,055
238,742	3,653	224,340	115,785
239,757	3,882	223,963	115,753
240,772	3,933	223,983	115,792
241,786	3,794	223,759	115,560
242,801	4,058	223,589	115,661
243,815	4,208	223,665	115,802
244,830	4,320	223,595	115,840
245,844	3,892	223,311	115,361
246,859	4,031	222,917	115,253
247,874	4,224	222,818	115,335
248,888	4,115	222,853	115,261
249,903	3,853	222,662	114,957
250,917	4,067	222,529	115,037
251,932	3,610	222,387	114,612
252,947	3,685	222,176	114,549
253,961	3,875	221,932	114,555
254,976	3,622	221,918	114,349
255,990	3,980	221,818	114,554
257,005	4,050	221,660	114,514
258,020	3,869	221,760	114,421
259,034	4,150	221,621	114,548
260,049	4,087	221,299	114,324
261,063	3,992	221,265	114,226
262,078	3,984	221,107	114,128
263,093	3,967	220,972	114,036
264,107	4,250	220,697	114,094
265,122	4,267	220,648	114,070
266,136	4,205	220,515	113,945
267,151	4,279	220,522	113,994
268,166	3,928	220,030	113,470
269,180	3,765	219,815	113,229
270,195	3,689	219,738	113,124
271,209	3,879	219,595	113,180
272,224	3,705	219,535	113,011
273,239	3,706	219,351	112,907
274,253	3,852	219,139	112,894
275,268	3,731	218,971	112,709
276,282	3,636	218,862	112,573
277,297	3,450	218,740	112,364
278,312	3,573	218,767	112,458
279,326	3,545	218,600	112,341
280,341	3,781	218,419	112,411
281,355	3,920	218,224	112,403
282,370	3,745	218,148	112,225
283,384	3,655	217,969	112,058
284,399	3,632	217,672	111,878
285,414	3,497	217,659	111,764
286,428	3,665	217,583	111,836
287,443	3,805	217,512	111,893
288,457	3,911	217,365	111,883
289,472	3,756	217,208	111,681
290,487	3,406	216,727	111,169
291,501	3,462	216,620	111,145
292,516	3,426	216,568	111,082
293,530	3,274	216,407	110,880
294,545	3,253	216,231	110,764
295,560	3,711	216,377	111,161
296,574	3,858	216,173	111,153
297,589	3,864	215,969	111,042
298,603	3,845	215,905	110,985
299,618	3,778	215,796	110,871
300,633	3,875	215,628	110,845
301,647	4,122	215,568	110,982
302,662	4,315	215,376	111,013
303,676	4,046	215,286	110,762
304,691	4,087	215,147	110,711
305,706	4,047	215,036	110,615
306,720	3,981	214,833	110,453
307,735	3,924	214,678	110,323
308,749	3,715	214,526	110,085
309,764	3,764	214,467	110,080
310,779	4,131	214,250	110,222
311,793	3,799	214,201	109,949
312,808	3,937	214,004	109,936
313,822	3,904	213,801	109,799
314,837	3,917	213,600	109,695
315,852	3,876	213,474	109,591
316,866	3,794	213,471	109,522
317,881	3,980	213,399	109,608
318,895	3,906	213,132	109,408
319,910	3,960	213,000	109,369
320,925	3,717	212,723	109,045
321,939	3,443	212,578	108,766
322,954	3,499	212,561	108,787
323,968	3,464	212,502	108,722
324,983	3,919	212,435	109,001
325,997	3,994	212,357	109,004
327,012	3,858	212,196	108,816
328,027	3,935	211,955	108,737
329,041	4,267	211,955	108,962
330,056	4,329	211,806	108,919
331,070	3,960	211,570	108,528
332,085	3,735	211,325	108,234
333,100	3,615	211,282	108,118
334,114	3,990	211,019	108,237
335,129	3,963	210,978	108,188
336,143	3,699	210,813	107,908
337,158	3,601	210,778	107,811
338,173	3,828	210,647	107,895
339,187	3,559	210,387	107,563
340,202	3,619	210,156	107,477
341,216	3,230	210,220	107,228
342,231	3,503	209,859	107,225
343,246	3,569	209,875	107,270
344,260	3,746	209,690	107,289
345,275	3,535	209,756	107,166
346,289	3,807	209,629	107,282
347,304	3,814	209,496	107,209
348,319	4,025	209,344	107,269
349,333	3,966	209,237	107,163
350,348	3,914	209,004	106,998
351,362	4,222	208,930	107,164
352,377	4,122	208,739	106,988
353,392	3,738	208,618	106,650
354,406	4,042	208,498	106,790
355,421	194,034	1345,942	1433,778
356,435	154,822	1484,621	1433,886
