DTS Sentinel unit serial number:	SN410029Multiplexer serial number:	ORYXHardware model number:	OX2-SRSoftware version number:	ORYX F/W v4,00 Oryx Data Collector v3.7.2.0data status	okinstallation	B6 Nyhavnadifferential loss correction	single-endedforward channel	channel 2reverse channel	N/Adate	2023/12/07time	23:05:08forward acquisition time	300,00reverse acquisition time	0,00gamma	499,1914k internal	0,3165k external	0,3165temperature offset calibration	1,0000default loss term (dB/km)	0,3820temperature slope calibration	1,0000multiplexer offset coefficient	1,0000multiplexer slope coefficient	1,0000fibre end	0,00T internal ref (°C)	13,50T ext. ref 1 (°C)	-3,43T ext. ref 2 (°C)	-3,41length (m)	temperature (°C)	Stokes	anti-Stokes-744,400	6,132	0,132	0,072
-743,385	-133,701	-0,312	0,028
-742,371	163,456	0,063	-0,066
-741,356	-59,006	-0,283	0,089
-740,342	335,685	-0,014	-0,020
-739,327	-64,715	-0,395	-0,117
-738,312	-200,000	0,010	-0,046
-737,298	12,487	-0,265	-0,150
-736,283	154,623	0,091	0,092
-735,269	-10,323	-0,228	-0,111
-734,254	800,000	-0,018	0,045
-733,239	-50,146	-0,514	-0,178
-732,225	-118,411	0,244	0,032
-731,210	175,697	0,026	0,028
-730,196	-74,466	0,034	0,009
-729,181	160,615	-0,091	0,093
-728,167	147,108	0,077	-0,076
-727,152	-200,000	-0,023	-0,107
-726,137	-200,000	0,005	-0,127
-725,123	-68,729	-0,107	0,030
-724,108	348,791	0,060	-0,087
-723,094	800,000	-0,016	-0,045
-722,079	94,062	-0,097	-0,081
-721,064	-149,895	0,108	-0,006
-720,050	-200,000	-0,003	-0,047
-719,035	-80,910	0,052	-0,012
-718,021	-105,795	-0,099	-0,016
-717,006	66,774	-0,020	-0,015
-715,991	93,342	-0,044	0,036
-714,977	-110,175	-0,139	0,021
-713,962	-200,000	0,022	0,082
-712,948	-200,000	0,001	0,050
-711,933	47,247	0,045	-0,031
-710,918	344,055	-0,080	0,115
-709,904	193,696	-0,043	-0,048
-708,889	64,172	-0,115	0,085
-707,875	73,163	-0,101	-0,077
-706,860	225,748	0,100	-0,119
-705,845	65,727	-0,067	0,050
-704,831	575,386	0,053	0,096
-703,816	-54,279	-0,031	-0,010
-702,802	-200,000	-0,042	-0,192
-701,787	-200,000	-0,034	-0,129
-700,772	144,493	0,020	0,020
-699,758	41,724	-0,070	0,047
-698,743	24,277	-0,038	-0,023
-697,729	-200,000	-0,021	0,090
-696,714	5,530	-0,039	0,021
-695,699	421,477	0,045	-0,071
-694,685	-42,714	-0,060	0,022
-693,670	63,786	0,018	0,013
-692,656	68,307	-0,058	-0,044
-691,641	331,040	0,057	-0,080
-690,627	77,046	-0,098	0,076
-689,612	72,858	0,067	0,051
-688,597	83,642	0,131	0,105
-687,583	48,390	-0,054	0,037
-686,568	601,312	-0,053	-0,096
-685,554	695,538	-0,068	-0,132
-684,539	-7,159	-0,071	-0,035
-683,524	-68,149	0,043	-0,012
-682,510	13,679	-0,059	0,033
-681,495	-107,364	-0,085	-0,014
-680,481	800,000	-0,014	0,030
-679,466	800,000	-0,026	0,053
-678,451	697,140	0,045	0,088
-677,437	514,700	0,019	0,033
-676,422	-200,000	-0,031	-0,105
-675,408	-136,974	0,054	0,005
-674,393	-45,857	-0,121	-0,043
-673,378	-64,901	-0,179	-0,053
-672,364	33,511	-0,105	-0,067
-671,349	-200,000	-0,003	-0,116
-670,335	-200,000	0,014	-0,065
-669,320	-200,000	-0,017	-0,115
-668,305	800,000	-0,021	0,049
-667,291	-81,765	0,042	0,010
-666,276	-166,474	0,066	-0,002
-665,262	-200,000	0,001	-0,005
-664,247	800,000	0,008	-0,024
-663,232	-59,600	-0,079	0,025
-662,218	404,575	0,040	-0,062
-661,203	12,871	0,064	-0,036
-660,189	-200,000	-0,015	-0,085
-659,174	-119,490	-0,087	0,011
-658,159	123,421	-0,073	-0,067
-657,145	800,000	-0,024	-0,055
-656,130	-149,175	0,067	0,004
-655,116	-102,758	0,107	-0,018
-654,101	-104,103	0,094	0,016
-653,086	800,000	-0,055	-0,135
-652,072	-96,930	0,106	0,020
-651,057	-200,000	0,001	-0,016
-650,043	-93,113	-0,048	-0,010
-649,028	-131,765	-0,091	0,009
-648,014	-188,732	0,131	0,001
-646,999	180,302	0,050	0,054
-645,984	52,368	0,083	-0,058
-644,970	342,421	0,039	-0,057
-643,955	-200,000	-0,042	0,000
-642,941	800,000	0,014	-0,040
-641,926	800,000	0,036	-0,113
-640,911	394,183	-0,086	-0,131
-639,897	-15,132	-0,038	-0,018
-638,882	230,681	0,090	0,108
-637,868	32,311	-0,097	0,061
-636,853	-74,688	-0,091	-0,024
-635,838	800,000	0,053	-0,128
-634,824	72,463	-0,079	0,060
-633,809	-39,536	-0,113	-0,043
-632,795	318,148	0,074	0,103
-631,780	-120,381	0,151	-0,019
-630,765	59,948	0,053	0,038
-629,751	-110,216	-0,067	0,010
-628,736	490,896	0,103	-0,173
-627,722	-55,629	-0,072	0,023
-626,707	800,000	-0,039	0,114
-625,692	-200,000	-0,003	-0,043
-624,678	-200,000	-0,010	-0,045
-623,663	113,884	-0,057	0,051
-622,649	-166,835	0,010	0,000
-621,634	-200,000	0,018	0,070
-620,619	691,419	0,041	-0,079
-619,605	41,556	-0,085	0,056
-618,590	-83,328	-0,034	-0,008
-617,576	-200,000	0,010	0,106
-616,561	52,879	0,142	0,100
-615,546	-176,231	-0,142	0,003
-614,532	800,000	0,059	-0,171
-613,517	100,017	0,070	-0,060
-612,503	307,033	0,040	-0,055
-611,488	29,958	0,047	-0,029
-610,474	-9,912	0,065	0,032
-609,459	-139,717	0,041	-0,003
-608,444	8,505	-0,122	0,067
-607,430	-128,090	0,111	-0,011
-606,415	619,959	-0,103	-0,190
-605,401	216,967	0,070	0,081
-604,386	-36,690	-0,091	0,036
-603,371	339,475	-0,049	0,070
-602,357	-72,568	-0,050	-0,013
-601,342	-69,248	0,116	-0,032
-600,328	236,372	-0,061	0,074
-599,313	533,523	-0,071	-0,123
-598,298	-124,880	0,078	0,009
-597,284	-16,065	0,092	0,043
-596,269	800,000	0,026	0,068
-595,255	184,174	0,062	0,068
-594,240	-200,000	-0,011	-0,036
-593,225	-58,449	-0,093	-0,030
-592,211	-75,709	0,143	-0,037
-591,196	776,593	0,022	0,044
-590,182	-200,000	0,016	-0,180
-589,167	-200,000	0,031	0,179
-588,152	-200,000	0,011	0,166
-587,138	-200,000	0,029	-0,152
-586,123	205,915	-0,050	-0,057
-585,109	98,500	-0,055	-0,046
-584,094	-32,416	-0,080	-0,032
-583,079	-119,151	0,054	0,007
-582,065	-200,000	0,007	0,092
-581,050	27,750	0,091	-0,056
-580,036	104,253	-0,097	0,083
-579,021	800,000	0,084	-0,240
-578,006	232,876	-0,126	0,151
-576,992	-88,656	-0,090	-0,019
-575,977	610,820	0,031	0,057
-574,963	-161,001	0,139	-0,005
-573,948	-25,550	-0,092	-0,040
-572,934	6,521	0,065	0,035
-571,919	-27,853	-0,219	0,092
-570,904	31,883	0,015	0,010
-569,890	-200,000	-0,021	-0,106
-568,875	73,397	0,033	0,025
-567,861	-200,000	-0,005	0,024
-566,846	800,000	0,064	-0,156
-565,831	152,172	-0,048	-0,048
-564,817	-200,000	-0,087	0,000
-563,802	-200,000	-0,014	-0,203
-562,788	-161,856	0,236	-0,009
-561,773	-3,472	-0,116	0,059
-560,758	800,000	-0,048	0,103
-559,744	-84,839	0,196	0,045
-558,729	-122,061	-0,194	0,023
-557,715	12,998	-0,157	0,088
-556,700	212,483	-0,055	-0,063
-555,685	-99,046	0,045	0,008
-554,671	339,090	0,092	-0,131
-553,656	260,287	-0,068	0,086
-552,642	-103,524	0,105	-0,018
-551,627	164,391	0,085	-0,088
-550,612	79,175	0,135	-0,105
-549,598	-15,405	-0,115	-0,053
-548,583	-79,967	0,175	0,043
-547,569	-200,000	0,004	-0,062
-546,554	-200,000	0,020	-0,101
-545,539	-32,789	-0,131	0,053
-544,525	-31,836	0,118	-0,048
-543,510	800,000	-0,008	-0,026
-542,496	-148,660	-0,036	0,002
-541,481	-33,214	-0,132	-0,053
-540,466	161,029	0,080	-0,082
-539,452	109,470	-0,072	0,063
-538,437	-127,725	-0,013	-0,001
-537,423	126,257	0,076	0,070
-536,408	-200,000	-0,005	-0,081
-535,393	259,115	0,048	0,061
-534,379	8,376	0,072	-0,039
-533,364	-33,177	0,047	-0,019
-532,350	3,653	-0,061	0,032
-531,335	-132,737	0,123	-0,011
-530,321	43,526	-0,039	0,026
-529,306	61,246	-0,093	-0,067
-528,291	-200,000	0,012	-0,071
-527,277	800,000	-0,076	-0,231
-526,262	-135,931	0,138	-0,012
-525,248	-200,000	-0,030	0,137
-524,233	406,308	0,049	0,076
-523,218	178,027	0,041	-0,044
-522,204	92,886	0,131	0,108
-521,189	-44,989	-0,089	-0,032
-520,175	800,000	-0,023	0,062
-519,160	-111,689	0,094	0,014
-518,145	800,000	-0,030	0,092
-517,131	224,659	0,096	0,113
-516,116	256,805	-0,070	0,088
-515,102	468,287	0,044	-0,072
-514,087	800,000	-0,022	-0,052
-513,072	-1,384	-0,017	-0,009
-512,058	14,415	-0,173	-0,098
-511,043	-200,000	0,014	0,145
-510,029	800,000	0,053	0,141
-509,014	-78,863	-0,073	0,018
-507,999	177,915	-0,027	0,028
-506,985	-200,000	-0,009	0,059
-505,970	-2,020	-0,033	0,017
-504,956	800,000	-0,036	-0,106
-503,941	-200,000	0,006	0,038
-502,926	78,303	-0,091	-0,071
-501,912	-129,503	-0,059	-0,006
-500,897	256,592	-0,112	-0,141
-499,883	278,518	-0,072	0,094
-498,868	470,748	-0,015	-0,025
-497,853	-102,683	0,050	-0,009
-496,839	-200,000	-0,001	0,040
-495,824	516,379	0,031	-0,053
-494,810	-15,774	0,019	0,009
-493,795	-29,998	-0,028	0,011
-492,781	489,933	-0,034	0,057
-491,766	-112,564	-0,030	0,004
-490,751	800,000	0,023	0,064
-489,737	-200,000	-0,042	0,156
-488,722	-80,761	0,106	0,025
-487,708	37,193	0,116	-0,075
-486,693	-200,000	0,020	-0,155
-485,678	-143,367	-0,070	0,005
-484,664	162,623	-0,076	-0,077
-483,649	128,382	0,064	-0,059
-482,635	104,987	0,052	-0,045
-481,620	292,872	-0,005	-0,007
-480,605	12,805	0,063	0,035
-479,591	-200,000	-0,011	0,198
-478,576	-148,425	0,080	-0,005
-477,562	800,000	0,046	-0,136
-476,547	123,241	0,067	-0,061
-475,532	-200,000	-0,005	-0,023
-474,518	-200,000	-0,009	0,073
-473,503	-84,956	0,059	-0,013
-472,489	-186,389	0,135	0,001
-471,474	72,850	0,079	0,060
-470,459	72,813	0,116	0,088
-469,445	-200,000	0,010	-0,055
-468,430	-200,000	0,006	-0,074
-467,416	568,834	0,030	0,053
-466,401	-68,607	-0,141	-0,039
-465,386	-190,896	0,093	-0,001
-464,372	-24,738	-0,056	-0,024
-463,357	-27,633	0,083	0,035
-462,343	225,956	-0,065	-0,076
-461,328	-85,677	0,104	-0,023
-460,313	-62,295	-0,011	0,003
-459,299	-200,000	-0,002	0,125
-458,284	-200,000	0,008	0,070
-457,270	-200,000	-0,037	0,186
-456,255	138,922	-0,117	-0,112
-455,241	202,493	-0,064	-0,072
-454,226	13,009	-0,035	0,020
-453,211	287,330	0,043	-0,057
-452,197	103,282	0,107	-0,091
-451,182	-200,000	0,031	-0,164
-450,168	-119,750	0,086	-0,011
-449,153	-200,000	0,013	-0,051
-448,138	92,753	0,074	-0,060
-447,124	-200,000	-0,002	-0,090
-446,109	-200,000	0,006	-0,021
-445,095	70,615	0,115	0,087
-444,080	-200,000	-0,016	-0,055
-443,065	-93,260	-0,146	-0,029
-442,051	-26,521	0,040	0,017
-441,036	-92,685	-0,113	-0,023
-440,022	12,681	-0,035	-0,020
-439,007	-200,000	0,112	-0,000
-437,992	-64,659	0,085	0,025
-436,978	-20,760	-0,126	-0,056
-435,963	-200,000	-0,016	0,120
-434,949	107,608	-0,066	-0,057
-433,934	800,000	-0,011	-0,035
-432,919	10,005	-0,065	0,036
-431,905	653,087	-0,038	-0,072
-430,890	-200,000	-0,007	0,083
-429,876	14,427	-0,118	0,067
-428,861	101,467	0,057	-0,049
-427,846	77,956	0,066	0,051
-426,832	144,332	-0,104	-0,101
-425,817	800,000	-0,021	-0,047
-424,803	-200,000	0,012	0,097
-423,788	-115,133	0,050	0,007
-422,773	-84,727	0,086	0,019
-421,759	47,951	0,155	0,105
-420,744	-85,583	0,069	0,016
-419,730	-39,449	0,032	0,012
-418,715	155,516	-0,102	0,102
-417,701	-166,193	0,076	-0,002
-416,686	-177,813	0,112	0,002
-415,671	200,891	0,039	0,044
-414,657	98,174	-0,030	0,025
-413,642	168,739	-0,128	-0,133
-412,628	104,662	0,099	-0,085
-411,613	33,334	0,099	0,062
-410,598	-200,000	0,026	0,096
-409,584	-173,755	0,121	0,003
-408,569	-66,685	-0,069	-0,020
-407,555	800,000	0,057	0,178
-406,540	67,504	-0,141	0,104
-405,525	351,280	0,015	-0,021
-404,511	-79,216	-0,125	0,031
-403,496	-109,961	-0,088	-0,013
-402,482	-37,782	0,087	-0,034
-401,467	220,517	0,056	-0,065
-400,452	-200,000	0,023	0,095
-399,438	237,063	-0,046	-0,055
-398,423	100,167	-0,066	-0,056
-397,409	3,994	-0,054	-0,029
-396,394	85,559	-0,069	0,055
-395,379	-200,000	0,007	0,114
-394,365	782,196	-0,003	0,007
-393,350	-112,378	-0,070	-0,010
-392,336	-68,160	-0,166	-0,046
-391,321	-125,234	-0,039	0,004
-390,306	-200,000	-0,007	-0,078
-389,292	-200,000	0,009	-0,108
-388,277	592,731	0,023	-0,042
-387,263	674,883	0,043	-0,081
-386,248	366,948	0,134	0,196
-385,233	-49,685	0,073	0,025
-384,219	429,283	-0,043	0,068
-383,204	76,852	-0,064	-0,049
-382,190	-152,332	0,090	0,005
-381,175	13,466	-0,042	-0,023
-380,160	800,000	0,030	0,077
-379,146	800,000	-0,025	0,070
-378,131	224,192	0,099	0,116
-377,117	337,912	-0,120	-0,169
-376,102	206,626	-0,084	-0,095
-375,088	-200,000	-0,002	-0,049
-374,073	800,000	-0,030	-0,084
-373,058	196,932	-0,028	0,031
-372,044	22,155	0,088	0,052
-371,029	-89,747	0,035	-0,007
-370,015	213,623	-0,042	-0,048
-369,000	118,015	-0,041	0,037
-367,985	8,080	0,149	0,081
-366,971	-42,285	-0,069	0,025
-365,956	-200,000	-0,010	-0,041
-364,942	-107,693	0,049	0,008
-363,927	-200,000	-0,039	0,134
-362,912	462,069	0,053	-0,085
-361,898	-85,933	-0,109	-0,024
-360,883	35,938	-0,133	-0,085
-359,869	-79,140	-0,159	-0,039
-358,854	-66,803	0,194	-0,055
-357,839	800,000	0,023	0,048
-356,825	612,935	-0,066	0,120
-355,810	-125,781	0,142	0,015
-354,796	-76,904	0,027	0,007
-353,781	340,777	-0,064	-0,090
-352,766	-200,000	-0,017	-0,069
-351,752	565,544	0,042	-0,074
-350,737	-73,014	0,089	0,024
-349,723	-200,000	-0,013	0,077
-348,708	-25,117	-0,081	0,035
-347,693	134,851	-0,132	-0,125
-346,679	-200,000	0,008	0,047
-345,664	-200,000	-0,012	-0,072
-344,650	-200,000	-0,049	0,165
-343,635	-93,454	0,088	0,017
-342,620	-168,903	-0,080	0,002
-341,606	-62,211	0,103	-0,031
-340,591	-165,912	-0,081	0,002
-339,577	82,457	0,042	0,033
-338,562	202,004	0,098	-0,109
-337,548	800,000	0,050	0,105
-336,533	800,000	-0,026	0,055
-335,518	-118,246	-0,040	-0,005
-334,504	90,234	-0,075	0,061
-333,489	800,000	-0,032	0,099
-332,475	-200,000	-0,025	0,095
-331,460	800,000	0,012	-0,025
-330,445	-21,396	0,121	0,053
-329,431	-13,491	0,068	0,032
-328,416	-200,000	-0,001	0,170
-327,402	800,000	-0,025	0,066
-326,387	-161,591	-0,033	-0,001
-325,372	-11,266	0,043	0,020
-324,358	14,585	0,069	-0,039
-323,343	594,337	-0,036	-0,065
-322,329	214,880	0,079	-0,091
-321,314	94,045	0,092	0,075
-320,299	-200,000	0,016	0,176
-319,285	263,950	0,012	0,015
-318,270	125,292	0,046	0,042
-317,256	-37,080	-0,052	-0,020
-316,241	3,760	0,126	-0,066
-315,226	415,506	-0,042	0,065
-314,212	-98,727	0,173	0,032
-313,197	339,694	-0,047	0,066
-312,183	689,963	-0,025	0,048
-311,168	377,810	-0,027	0,040
-310,153	-31,004	-0,128	0,052
-309,139	-200,000	-0,008	-0,073
-308,124	127,453	-0,099	0,091
-307,110	-130,972	0,039	0,004
-306,095	648,943	0,053	-0,099
-305,080	30,144	0,086	0,053
-304,066	4,922	0,068	-0,036
-303,051	-200,000	-0,017	-0,064
-302,037	-132,417	-0,070	-0,006
-301,022	-136,365	-0,237	-0,020
-300,008	437,405	0,058	0,092
-298,993	55,988	0,056	0,039
-297,978	166,624	0,005	0,005
-296,964	-200,000	0,014	0,099
-295,949	781,829	-0,015	-0,029
-294,935	109,901	-0,071	-0,062
-293,920	-90,216	0,038	-0,008
-292,905	60,403	-0,079	0,057
-291,891	-132,137	0,038	0,004
-290,876	-200,000	0,007	-0,050
-289,862	800,000	-0,024	0,064
-288,847	800,000	-0,041	-0,106
-287,832	-200,000	-0,006	-0,060
-286,818	-200,000	-0,009	-0,035
-285,803	391,058	-0,038	-0,057
-284,789	46,006	0,098	0,065
-283,774	149,293	0,024	0,024
-282,759	-128,889	-0,040	-0,004
-281,745	324,076	0,032	0,044
-280,730	81,549	-0,081	-0,063
-279,716	473,376	-0,025	0,042
-278,701	-145,171	0,100	0,006
-277,686	55,682	0,046	0,032
-276,672	451,226	-0,025	0,041
-275,657	-11,025	0,155	-0,074
-274,643	800,000	0,036	-0,078
-273,628	127,819	0,080	-0,073
-272,613	-64,309	-0,106	0,031
-271,599	-200,000	0,002	0,034
-270,584	-52,781	-0,076	0,025
-269,570	800,000	0,025	0,070
-268,555	-161,193	0,221	0,008
-267,540	-60,668	-0,126	-0,038
-266,526	-112,075	-0,079	0,011
-265,511	142,376	0,069	-0,066
-264,497	800,000	-0,060	-0,177
-263,482	75,003	-0,062	0,047
-262,467	800,000	0,004	-0,010
-261,453	148,753	-0,037	-0,036
-260,438	143,728	0,039	0,037
-259,424	-200,000	-0,003	-0,068
-258,409	800,000	0,010	0,024
-257,395	-200,000	-0,000	-0,069
-256,380	190,704	-0,082	0,089
-255,365	-58,479	0,172	0,054
-254,351	-131,802	-0,107	-0,010
-253,336	6,957	0,089	-0,048
-252,322	800,000	-0,014	-0,041
-251,307	-10,680	-0,088	0,042
-250,292	-7,785	0,073	-0,035
-249,278	198,790	-0,073	-0,081
-248,263	-200,000	-0,016	-0,060
-247,249	-1,643	-0,025	0,013
-246,234	-200,000	-0,004	0,137
-245,219	-118,772	-0,091	-0,011
-244,205	790,616	-0,015	0,031
-243,190	-87,519	-0,061	-0,013
-242,176	-200,000	0,001	0,141
-241,161	-200,000	0,016	0,054
-240,146	800,000	-0,041	0,099
-239,132	-61,826	-0,061	0,018
-238,117	-102,280	-0,180	-0,031
-237,103	-168,944	-0,013	-0,000
-236,088	-2,782	0,133	0,067
-235,073	-103,322	0,111	0,019
-234,059	16,163	-0,063	-0,036
-233,044	-79,459	0,202	-0,049
-232,030	-92,609	-0,142	0,028
-231,015	57,113	0,032	-0,022
-230,000	-36,560	-0,064	-0,025
-228,986	800,000	-0,028	0,063
-227,971	-200,000	-0,000	0,048
-226,957	-16,899	0,083	0,038
-225,942	-74,962	-0,104	-0,027
-224,927	-139,486	0,037	0,003
-223,913	46,431	-0,112	-0,075
-222,898	56,095	0,082	0,057
-221,884	67,577	-0,138	-0,102
-220,869	402,060	0,036	-0,054
-219,855	800,000	0,066	-0,184
-218,840	5,963	-0,047	-0,025
-217,825	800,000	0,090	-0,216
-216,811	800,000	-0,049	-0,107
-215,796	-200,000	-0,013	-0,077
-214,782	281,564	-0,046	0,059
-213,767	800,000	0,080	0,169
-212,752	-101,426	0,025	0,004
-211,738	8,712	-0,106	0,058
-210,723	90,101	-0,075	0,060
-209,709	-154,473	-0,086	0,004
-208,694	451,170	-0,043	0,069
-207,679	-116,191	-0,092	0,012
-206,665	86,752	0,047	-0,038
-205,650	-26,649	-0,056	0,024
-204,636	-200,000	0,045	0,270
-203,621	137,127	-0,056	0,053
-202,606	-200,000	0,014	-0,043
-201,592	-200,000	0,026	-0,107
-200,577	532,660	-0,054	-0,092
-199,563	-200,000	0,008	-0,124
-198,548	24,330	0,053	-0,031
-197,533	-165,455	0,138	-0,004
-196,519	132,305	-0,068	-0,063
-195,504	-200,000	-0,024	0,000
-194,490	-152,059	0,090	0,005
-193,475	-83,420	-0,050	0,012
-192,460	158,583	-0,156	0,156
-191,446	758,023	0,008	-0,015
-190,431	-84,968	0,183	0,041
-189,417	80,671	0,064	0,050
-188,402	-200,000	-0,003	0,026
-187,387	-97,315	0,072	-0,013
-186,373	-105,511	-0,055	0,009
-185,358	441,055	0,045	0,070
-184,344	-71,525	0,035	0,009
-183,329	-144,184	0,092	-0,006
-182,315	108,306	0,004	-0,003
-181,300	-200,000	0,003	-0,048
-180,285	800,000	0,053	-0,147
-179,271	0,012	-0,216	-0,111
-178,256	-200,000	0,003	-0,050
-177,242	-22,827	0,088	0,038
-176,227	329,888	-0,062	-0,086
-175,212	-200,000	0,009	0,031
-174,198	89,441	0,091	0,073
-173,183	46,131	-0,067	0,044
-172,169	250,533	-0,110	-0,134
-171,154	800,000	0,077	0,244
-170,139	-62,617	-0,081	0,024
-169,125	-96,793	-0,088	0,016
-168,110	-41,622	0,077	0,028
-167,096	196,666	-0,033	-0,036
-166,081	16,410	-0,118	-0,067
-165,066	-177,629	-0,112	0,002
-164,052	37,655	0,036	-0,023
-163,037	-200,000	0,003	-0,054
-162,023	-200,000	0,002	0,127
-161,008	800,000	0,026	0,066
-159,993	-18,370	0,075	-0,034
-158,979	800,000	-0,022	-0,065
-157,964	-114,152	-0,103	0,014
-156,950	423,044	-0,094	-0,145
-155,935	31,229	-0,084	0,052
-154,920	136,968	0,055	-0,052
-153,906	800,000	0,038	0,105
-152,891	749,373	0,001	0,003
-151,877	-200,000	-0,007	-0,096
-150,862	115,933	-0,037	0,033
-149,847	-200,000	-0,006	0,124
-148,833	-200,000	0,003	-0,111
-147,818	-8,418	0,085	-0,041
-146,804	-200,000	0,057	0,182
-145,789	137,919	0,031	0,030
-144,775	-200,000	-0,023	0,113
-143,760	-79,647	-0,029	-0,007
-142,745	-74,908	-0,059	-0,015
-141,731	-60,171	-0,013	-0,004
-140,716	112,813	-0,104	-0,090
-139,702	800,000	0,007	-0,022
-138,687	-200,000	0,032	0,151
-137,672	-200,000	0,012	-0,124
-136,658	-200,000	-0,029	-0,132
-135,643	-200,000	-0,003	0,015
-134,629	800,000	-0,026	-0,074
-133,614	-91,328	0,113	0,023
-132,599	800,000	0,005	0,010
-131,585	763,832	-0,007	-0,013
-130,570	-40,781	-0,118	-0,044
-129,556	800,000	-0,020	-0,049
-128,541	-102,537	-0,040	-0,007
-127,526	-2,917	0,030	-0,015
-126,512	-200,000	0,021	-0,074
-125,497	-121,973	0,118	-0,014
-124,483	-162,493	-0,123	0,004
-123,468	-24,604	0,145	0,062
-122,453	56,312	0,085	-0,059
-121,439	-200,000	0,012	-0,045
-120,424	128,465	-0,103	-0,094
-119,410	-200,000	0,006	0,106
-118,395	-200,000	-0,013	-0,070
-117,380	-200,000	0,025	-0,118
-116,366	-128,823	0,074	0,007
-115,351	40,575	-0,090	-0,058
-114,337	-105,848	-0,107	-0,017
-113,322	533,933	0,065	0,111
-112,307	-200,000	-0,030	-0,134
-111,293	12,498	-0,032	-0,018
-110,278	605,731	0,053	0,094
-109,264	-44,581	-0,119	-0,042
-108,249	112,653	-0,060	-0,053
-107,234	800,000	0,027	-0,079
-106,220	-155,051	-0,101	-0,005
-105,205	10,649	-0,046	0,025
-104,191	81,770	-0,082	0,063
-103,176	104,067	0,085	0,072
-102,162	800,000	0,025	0,062
-101,147	47,367	-0,082	0,055
-100,132	358,776	-0,079	-0,114
-99,118	584,712	0,026	-0,046
-98,103	-200,000	0,003	-0,091
-97,089	-25,319	0,229	-0,097
-96,074	-200,000	0,004	0,086
-95,059	-200,000	-0,009	0,092
-94,045	-76,044	-0,096	-0,024
-93,030	-200,000	-0,011	-0,095
-92,016	-200,000	-0,007	-0,153
-91,001	212,993	0,091	-0,103
-89,986	15,348	-0,110	-0,062
-88,972	-95,621	-0,201	0,038
-87,957	613,542	-0,075	-0,135
-86,943	-44,517	0,110	-0,039
-85,928	118,998	-0,106	-0,094
-84,913	442,588	-0,088	-0,138
-83,899	-106,898	0,169	0,027
-82,884	34,035	-0,054	0,034
-81,870	111,665	0,072	0,063
-80,855	-168,308	-0,051	0,001
-79,840	-200,000	0,012	-0,078
-78,826	-102,298	0,112	-0,019
-77,811	-200,000	0,028	-0,111
-76,797	-198,343	-0,074	0,000
-75,782	800,000	0,021	0,048
-74,767	-200,000	0,019	0,116
-73,753	40,538	-0,042	0,027
-72,738	-83,445	-0,160	-0,037
-71,724	800,000	-0,013	-0,026
-70,709	-9,399	0,030	-0,014
-69,694	571,541	0,023	-0,040
-68,680	-129,646	-0,041	0,004
-67,665	377,618	-0,056	0,082
-66,651	-200,000	0,008	-0,050
-65,636	55,929	0,042	0,029
-64,622	-200,000	-0,002	-0,123
-63,607	577,354	-0,030	-0,052
-62,592	800,000	0,009	-0,026
-61,578	-23,169	-0,079	0,034
-60,563	-200,000	0,011	-0,085
-59,549	357,882	0,055	0,079
-58,534	46,563	-2,161	-1,434
-57,519	-200,000	-0,042	-0,717
-56,505	-200,000	-1,429	-5,183
-55,490	87,486	0,923	0,731
-54,476	800,000	5,318	12,125
-53,461	-200,000	18,813	312,198
-52,446	800,000	740,602	2302,405
-51,432	544,854	1653,694	2839,719
-50,417	109,258	1636,734	1402,452
-49,403	72,790	1287,174	961,095
-48,388	29,783	1028,702	625,795
-47,373	19,642	991,607	569,740
-46,359	17,233	979,175	554,674
-45,344	13,939	975,156	541,588
-44,330	14,232	973,738	541,737
-43,315	13,596	971,779	538,548
-42,300	13,555	970,730	537,811
-41,286	13,554	969,831	537,288
-40,271	13,531	968,963	536,711
-39,257	13,514	968,198	536,210
-38,242	13,546	967,381	535,840
-37,227	13,552	966,375	535,281
-36,213	13,446	965,573	534,473
-35,198	13,467	964,702	534,036
-34,184	13,563	963,994	533,935
-33,169	13,406	963,011	532,862
-32,154	13,581	961,891	532,786
-31,140	13,520	961,184	532,178
-30,125	13,592	960,344	531,921
-29,111	13,560	959,582	531,375
-28,096	13,533	958,903	530,892
-27,082	13,543	958,213	530,521
-26,067	13,532	957,465	530,051
-25,052	13,500	956,833	529,575
-24,038	13,551	956,137	529,334
-23,023	13,494	955,659	528,867
-22,009	13,544	954,875	528,572
-20,994	13,564	954,157	528,217
-19,979	13,537	953,604	527,804
-18,965	13,532	953,003	527,434
-17,950	13,547	952,400	527,127
-16,936	13,503	951,724	526,590
-15,921	13,480	951,255	526,236
-14,906	13,496	950,299	525,740
-13,892	13,430	949,617	525,129
-12,877	13,416	948,947	524,695
-11,863	13,436	948,190	524,319
-10,848	13,459	947,865	524,192
-9,833	13,513	947,269	524,012
-8,819	13,520	946,684	523,691
-7,804	13,451	946,026	523,087
-6,790	13,473	945,505	522,846
-5,775	13,467	944,984	522,520
-4,760	13,458	944,323	522,105
-3,746	13,456	943,681	521,723
-2,731	13,286	943,094	520,840
-1,717	13,223	942,380	520,223
-0,702	13,253	941,695	519,920
0,313	13,048	941,012	519,680
1,327	16,664	938,896	529,873
2,342	26,061	790,062	470,620
3,356	22,196	444,985	259,319
4,371	-7,485	297,656	143,599
5,386	-11,455	279,556	131,066
6,400	-12,926	273,958	127,052
7,415	-12,851	271,485	125,964
8,429	-12,899	270,149	125,288
9,444	-13,065	269,159	124,666
10,459	-13,031	268,582	124,418
11,473	-13,098	267,862	124,013
12,488	-13,117	267,396	123,769
13,502	-13,007	266,801	123,582
14,517	-13,231	266,380	123,172
15,531	-13,064	265,932	123,106
16,546	-13,154	265,616	122,867
17,561	-12,854	265,058	122,869
18,575	-12,884	264,909	122,762
19,590	-13,151	264,512	122,326
20,604	-13,137	264,227	122,196
21,619	-12,964	263,701	122,098
22,634	-12,986	263,382	121,919
23,648	-13,067	263,138	121,723
24,663	-13,158	262,923	121,530
25,677	-13,277	262,724	121,321
26,692	-13,223	262,379	121,199
27,707	-13,107	262,145	121,184
28,721	-13,155	261,843	120,991
29,736	-12,993	261,527	120,979
30,750	-13,180	261,298	120,695
31,765	-13,105	260,924	120,578
32,780	-13,228	260,795	120,399
33,794	-13,204	260,497	120,272
34,809	-12,919	260,221	120,387
35,823	-13,099	260,073	120,148
36,838	-13,171	259,660	119,883
37,853	-13,278	259,396	119,655
38,867	-13,207	259,320	119,672
39,882	-13,133	259,054	119,604
40,896	-13,250	258,887	119,413
41,911	-13,402	258,623	119,146
42,926	-13,465	258,350	118,955
43,940	-13,314	258,094	118,959
44,955	-13,479	257,891	118,710
45,969	-13,181	257,547	118,802
46,984	-13,601	257,336	118,326
47,999	-13,688	256,972	118,073
49,013	-13,622	256,830	118,055
50,028	-13,873	256,468	117,658
51,042	-13,923	256,217	117,489
52,057	-14,106	256,089	117,260
53,071	-13,978	255,753	117,207
54,086	-13,845	255,672	117,276
55,101	-13,885	255,665	117,227
56,115	-13,460	255,384	117,457
57,130	-13,011	255,348	117,821
58,144	-12,847	255,184	117,877
59,159	-12,869	255,043	117,781
60,174	-13,105	254,758	117,435
61,188	-13,078	254,462	117,311
62,203	-13,059	254,261	117,225
63,217	-12,974	254,012	117,174
64,232	-13,165	253,889	116,941
65,247	-12,990	253,556	116,928
66,261	-12,923	253,355	116,883
67,276	-13,263	253,102	116,463
68,290	-13,527	252,821	116,096
69,305	-13,465	252,505	115,995
70,320	-13,638	252,426	115,799
71,334	-13,274	252,145	115,972
72,349	-13,147	252,040	116,022
73,363	-13,094	252,012	116,044
74,378	-13,085	251,652	115,876
75,393	-13,237	251,581	115,702
76,407	-13,042	251,275	115,718
77,422	-13,077	251,006	115,555
78,436	-12,934	250,935	115,633
79,451	-12,981	250,463	115,365
80,466	-13,176	250,320	115,123
81,480	-13,381	250,176	114,873
82,495	-13,317	249,882	114,782
83,509	-13,069	249,629	114,866
84,524	-13,396	249,479	114,509
85,539	-13,620	249,342	114,246
86,553	-13,340	249,114	114,369
87,568	-13,248	248,996	114,382
88,582	-13,422	248,828	114,148
89,597	-13,393	248,564	114,041
90,611	-13,173	248,328	114,107
91,626	-13,274	248,233	113,969
92,641	-13,045	247,994	114,042
93,655	-13,134	247,894	113,911
94,670	-13,074	247,615	113,823
95,684	-13,186	247,357	113,600
96,699	-13,117	247,097	113,529
97,714	-13,347	247,171	113,359
98,728	-13,535	246,748	112,998
99,743	-13,653	246,659	112,849
100,757	-13,627	246,489	112,782
101,772	-13,345	246,242	112,895
102,787	-13,456	246,020	112,690
103,801	-13,348	245,810	112,674
104,816	-13,135	245,659	112,772
105,830	-13,155	245,595	112,716
106,845	-12,978	245,405	112,766
107,860	-13,105	245,192	112,553
108,874	-13,363	244,959	112,221
109,889	-13,357	244,743	112,118
110,903	-13,287	244,584	112,093
111,918	-13,229	244,337	112,018
112,933	-13,309	244,204	111,880
113,947	-13,130	244,085	111,963
114,962	-13,257	243,950	111,787
115,976	-13,197	243,589	111,661
116,991	-13,240	243,551	111,598
118,006	-13,244	243,426	111,527
119,020	-13,094	243,188	111,532
120,035	-13,077	243,094	111,494
121,049	-13,201	242,962	111,320
122,064	-13,185	242,684	111,197
123,079	-13,085	242,490	111,180
124,093	-13,412	242,418	110,868
125,108	-13,352	241,968	110,702
126,122	-13,521	241,791	110,473
127,137	-13,614	241,532	110,268
128,151	-13,351	241,424	110,425
129,166	-13,388	241,265	110,312
130,181	-13,341	241,123	110,275
131,195	-13,413	240,962	110,133
132,210	-13,413	240,788	110,044
133,224	-13,143	240,661	110,195
134,239	-13,228	240,513	110,048
135,254	-13,159	240,289	109,993
136,268	-13,138	240,086	109,907
137,283	-13,502	239,754	109,450
138,297	-13,598	239,499	109,246
139,312	-13,338	239,279	109,347
140,327	-13,224	239,342	109,458
141,341	-13,148	239,245	109,465
142,356	-12,806	239,139	109,683
143,370	-12,926	238,868	109,452
144,385	-12,731	238,842	109,588
145,400	-12,741	238,604	109,461
146,414	-12,838	238,274	109,222
147,429	-12,906	238,119	109,086
148,443	-13,007	238,012	108,946
149,458	-13,076	237,936	108,846
150,473	-12,910	237,768	108,892
151,487	-13,240	237,449	108,473
152,502	-13,013	237,289	108,572
153,516	-12,874	237,210	108,637
154,531	-13,059	237,019	108,392
155,546	-13,196	236,865	108,202
156,560	-13,171	236,767	108,168
157,575	-13,404	236,475	107,839
158,589	-12,980	236,129	108,009
159,604	-12,845	236,018	108,056
160,619	-12,720	235,935	108,108
161,633	-12,950	235,930	107,914
162,648	-12,867	235,932	107,970
163,662	-13,187	235,548	107,531
164,677	-13,042	235,455	107,594
165,692	-12,755	235,146	107,671
166,706	-12,624	234,938	107,670
167,721	-12,696	234,933	107,601
168,735	-12,856	234,841	107,422
169,750	-12,838	234,663	107,346
170,764	-12,773	234,349	107,244
171,779	-12,732	234,344	107,264
172,794	-12,789	234,007	107,056
173,808	-12,929	233,855	106,866
174,823	-13,433	233,618	106,351
175,837	-13,394	233,430	106,287
176,852	-13,166	233,371	106,430
177,867	-12,846	233,243	106,614
178,881	-12,957	233,247	106,519
179,896	-12,840	232,969	106,474
180,910	-12,833	232,829	106,406
181,925	-12,787	232,677	106,364
182,940	-12,803	232,596	106,304
183,954	-12,578	232,423	106,392
184,969	-12,843	232,265	106,103
185,983	-12,716	232,083	106,109
186,998	-12,625	232,026	106,145
188,013	-12,646	231,774	106,004
189,027	-12,622	231,547	105,909
190,042	-12,624	231,362	105,813
191,056	-12,742	231,184	105,631
192,071	-12,532	230,908	105,658
193,086	-12,729	230,945	105,514
194,100	-12,599	230,770	105,525
195,115	-13,171	230,342	104,877
196,129	-13,338	230,414	104,770
197,144	-7,499	232,301	110,175
198,159	-1,868	233,959	115,365
199,173	1,707	235,107	118,728
200,188	2,633	235,105	119,443
201,202	2,694	234,852	119,351
202,217	2,480	234,741	119,117
203,232	2,821	234,593	119,298
204,246	2,833	234,519	119,259
205,261	2,966	234,359	119,271
206,275	3,060	234,317	119,312
207,290	3,192	234,195	119,342
208,304	3,030	233,785	118,996
209,319	2,989	233,674	118,897
210,334	2,939	233,555	118,788
211,348	2,712	233,411	118,527
212,363	2,405	233,084	118,112
213,377	1,984	232,987	117,726
214,392	2,043	232,853	117,693
215,407	2,282	232,709	117,795
216,421	2,369	232,508	117,750
217,436	2,214	232,219	117,473
218,450	2,191	231,973	117,321
219,465	1,959	232,000	117,145
220,480	2,130	231,749	117,140
221,494	2,010	231,792	117,059
222,509	2,276	231,605	117,159
223,523	2,479	231,438	117,220
224,538	2,247	231,278	116,950
225,553	2,336	231,048	116,892
226,567	2,464	230,954	116,932
227,582	2,418	230,977	116,898
228,596	3,123	230,731	117,304
229,611	2,509	230,508	116,710
230,626	2,119	230,240	116,265
231,640	2,183	230,118	116,242
232,655	2,473	230,038	116,413
233,669	2,748	230,064	116,625
234,684	2,728	229,898	116,516
235,699	2,650	229,805	116,399
236,713	2,400	229,441	116,013
237,728	2,419	229,344	115,969
238,742	2,067	229,064	115,549
239,757	2,196	229,066	115,637
240,772	2,302	228,756	115,552
241,786	2,170	228,631	115,378
242,801	2,516	228,576	115,602
243,815	2,707	228,644	115,772
244,830	2,524	228,421	115,509
245,844	2,463	228,024	115,253
246,859	2,471	227,798	115,133
247,874	2,468	227,830	115,138
248,888	2,456	227,758	115,082
249,903	2,437	227,599	114,977
250,917	2,301	227,335	114,730
251,932	2,196	227,129	114,537
252,947	2,076	226,991	114,367
253,961	1,923	226,734	114,112
254,976	2,274	226,709	114,353
255,990	2,391	226,711	114,433
257,005	2,481	226,625	114,446
258,020	2,443	226,504	114,347
259,034	2,342	226,300	114,157
260,049	2,363	226,047	114,036
261,063	2,397	225,940	113,997
262,078	2,506	225,909	114,052
263,093	2,584	225,839	114,066
264,107	2,754	225,634	114,079
265,122	2,724	225,378	113,917
266,136	2,806	225,371	113,965
267,151	2,872	225,164	113,899
268,166	2,440	224,902	113,434
269,180	2,168	224,599	113,069
270,195	2,402	224,473	113,170
271,209	2,210	224,393	112,976
272,224	2,314	224,246	112,969
273,239	2,385	224,172	112,975
274,253	2,100	223,954	112,643
275,268	2,104	223,830	112,573
276,282	1,996	223,588	112,362
277,297	2,081	223,463	112,353
278,312	2,198	223,423	112,409
279,326	2,480	223,228	112,509
280,341	2,320	223,296	112,415
281,355	2,527	223,067	112,442
282,370	2,199	223,066	112,190
283,384	2,349	222,694	112,103
284,399	2,144	222,573	111,881
285,414	2,237	222,304	111,804
286,428	2,315	222,283	111,842
287,443	2,640	222,151	112,004
288,457	2,628	222,170	111,995
289,472	2,622	221,760	111,773
290,487	1,987	221,652	111,243
291,501	2,145	221,355	111,200
292,516	1,849	221,331	110,961
293,530	1,991	221,222	111,001
294,545	2,104	221,092	111,009
295,560	2,269	221,035	111,090
296,574	2,439	220,883	111,129
297,589	2,304	220,653	110,904
298,603	2,481	220,611	111,003
299,618	2,650	220,348	110,983
300,633	2,326	220,326	110,726
301,647	2,657	220,312	110,951
302,662	2,768	220,100	110,914
303,676	2,577	220,000	110,715
304,691	2,655	219,842	110,683
305,706	2,720	219,667	110,632
306,720	2,570	219,538	110,448
307,735	2,450	219,249	110,206
308,749	2,379	219,232	110,136
309,764	2,425	219,023	110,055
310,779	2,548	218,927	110,085
311,793	2,671	218,777	110,089
312,808	2,370	218,642	109,795
313,822	2,607	218,464	109,866
314,837	2,427	218,243	109,615
315,852	2,159	218,231	109,407
316,866	2,303	218,012	109,390
317,881	2,436	218,053	109,497
318,895	2,571	217,791	109,453
319,910	2,029	217,630	108,973
320,925	1,908	217,569	108,845
321,939	1,773	217,299	108,604
322,954	1,817	217,058	108,505
323,968	2,386	217,056	108,903
324,983	2,478	217,111	108,986
325,997	2,775	216,988	109,127
327,012	2,705	216,834	108,990
328,027	2,638	216,607	108,818
329,041	2,850	216,539	108,926
330,056	2,662	216,524	108,774
331,070	2,386	216,098	108,354
332,085	2,132	215,886	108,057
333,100	2,505	215,795	108,267
334,114	2,525	215,722	108,235
335,129	2,417	215,619	108,097
336,143	2,278	215,349	107,854
337,158	2,255	215,306	107,806
338,173	2,250	215,054	107,667
339,187	1,913	215,001	107,392
340,202	1,914	214,813	107,289
341,216	2,281	214,868	107,567
342,231	2,825	214,679	107,847
343,246	2,349	214,529	107,426
344,260	2,362	214,543	107,433
345,275	2,879	214,327	107,679
346,289	2,527	214,210	107,363
347,304	2,489	214,132	107,287
348,319	2,641	213,762	107,200
349,333	2,287	213,772	106,946
350,348	2,734	213,569	107,149
351,362	2,618	213,590	107,068
352,377	2,837	213,212	107,023
353,392	2,359	213,263	106,704
354,406	2,568	213,091	106,754
355,421	196,008	1316,074	1390,796
356,435	156,762	1450,394	1390,741
