DTS Sentinel unit serial number:	SN410029Multiplexer serial number:	ORYXHardware model number:	OX2-SRSoftware version number:	ORYX F/W v4,00 Oryx Data Collector v3.7.2.0data status	okinstallation	B6 Nyhavnadifferential loss correction	single-endedforward channel	channel 2reverse channel	N/Adate	2023/12/08time	06:40:08forward acquisition time	300,00reverse acquisition time	0,00gamma	499,1914k internal	0,3165k external	0,3165temperature offset calibration	1,0000default loss term (dB/km)	0,3820temperature slope calibration	1,0000multiplexer offset coefficient	1,0000multiplexer slope coefficient	1,0000fibre end	0,00T internal ref (°C)	13,02T ext. ref 1 (°C)	-3,64T ext. ref 2 (°C)	-3,64length (m)	temperature (°C)	Stokes	anti-Stokes-744,400	30,616	0,102	-0,064
-743,385	-106,567	-0,134	0,022
-742,371	551,117	0,073	0,129
-741,356	-45,377	-0,313	-0,114
-740,342	90,465	0,107	0,088
-739,327	-117,907	-0,495	-0,064
-738,312	288,393	0,095	-0,127
-737,298	-49,491	-0,383	-0,133
-736,283	162,102	0,120	-0,124
-735,269	-117,625	-0,367	-0,048
-734,254	-127,455	0,167	0,018
-733,239	-4,253	-0,398	-0,202
-732,225	-134,620	0,202	0,018
-731,210	176,468	0,130	0,139
-730,196	-102,111	0,114	-0,020
-729,181	800,000	0,024	0,060
-728,167	-200,000	0,008	0,113
-727,152	269,527	-0,060	0,077
-726,137	-200,000	-0,014	-0,165
-725,123	29,134	-0,108	-0,067
-724,108	-164,082	-0,073	0,002
-723,094	800,000	-0,023	-0,067
-722,079	99,423	0,045	-0,038
-721,064	-153,138	-0,145	-0,007
-720,050	150,771	0,049	0,049
-719,035	-200,000	0,005	0,034
-718,021	403,951	-0,057	0,088
-717,006	-200,000	-0,008	-0,067
-715,991	800,000	-0,066	-0,195
-714,977	-200,000	-0,008	0,058
-713,962	-154,139	-0,101	-0,005
-712,948	148,427	0,045	-0,045
-711,933	-179,328	-0,051	-0,001
-710,918	-200,000	0,009	0,050
-709,904	321,711	-0,030	0,042
-708,889	185,526	-0,013	0,014
-707,875	48,640	0,116	0,080
-706,860	554,406	0,036	0,065
-705,845	379,843	-0,087	0,131
-704,831	-200,000	0,037	-0,153
-703,816	246,195	-0,028	-0,035
-702,802	129,358	0,082	0,077
-701,787	-79,926	-0,100	-0,024
-700,772	509,564	0,054	-0,092
-699,758	-129,221	0,100	0,010
-698,743	123,783	0,077	0,071
-697,729	456,681	0,023	-0,038
-696,714	24,894	-0,054	-0,033
-695,699	124,476	-0,100	0,093
-694,685	-13,407	0,150	0,071
-693,670	-177,849	0,059	0,001
-692,656	223,081	-0,067	0,079
-691,641	264,419	0,075	0,096
-690,627	663,733	-0,062	0,117
-689,612	-69,855	-0,091	0,025
-688,597	-200,000	0,004	-0,046
-687,583	144,443	-0,026	-0,026
-686,568	-200,000	-0,002	-0,117
-685,554	800,000	0,001	0,003
-684,539	183,909	0,066	0,071
-683,524	-200,000	-0,012	-0,056
-682,510	414,863	0,069	0,108
-681,495	-16,645	0,053	0,025
-680,481	-83,507	-0,038	-0,009
-679,466	361,035	0,080	-0,118
-678,451	29,543	-0,079	-0,049
-677,437	-157,520	0,136	-0,006
-676,422	5,501	0,082	0,044
-675,408	573,084	-0,056	-0,101
-674,393	121,495	0,081	0,074
-673,378	-37,772	-0,086	-0,033
-672,364	800,000	-0,071	-0,146
-671,349	16,345	-0,125	-0,072
-670,335	532,085	0,016	-0,027
-669,320	-131,907	-0,090	-0,008
-668,305	-200,000	0,023	0,191
-667,291	277,368	0,099	0,129
-666,276	15,564	-0,050	0,029
-665,262	-52,060	-0,180	-0,061
-664,247	-164,823	0,130	-0,004
-663,232	49,357	-0,080	0,055
-662,218	293,566	0,119	0,160
-661,203	-200,000	-0,038	0,180
-660,189	-200,000	-0,023	0,102
-659,174	-200,000	0,009	0,035
-658,159	-200,000	-0,021	-0,090
-657,145	-56,175	-0,134	-0,043
-656,130	214,687	-0,025	-0,029
-655,116	-200,000	0,017	-0,058
-654,101	410,453	0,045	0,071
-653,086	63,941	-0,080	0,059
-652,072	-200,000	0,009	-0,134
-651,057	-6,228	-0,009	-0,004
-650,043	159,017	-0,050	-0,051
-649,028	-200,000	0,008	0,034
-648,014	-200,000	-0,029	0,100
-646,999	800,000	-0,005	0,011
-645,984	120,240	-0,036	0,032
-644,970	-200,000	0,029	0,117
-643,955	-5,790	-0,061	-0,030
-642,941	-18,801	-0,116	0,053
-641,926	-200,000	0,007	-0,028
-640,911	-65,759	0,102	0,030
-639,897	-61,436	-0,050	-0,015
-638,882	800,000	0,018	-0,048
-637,868	-116,198	-0,093	0,013
-636,853	436,041	0,026	0,042
-635,838	-200,000	0,015	-0,097
-634,824	800,000	0,041	0,102
-633,809	-200,000	0,010	-0,144
-632,795	782,312	-0,020	0,040
-631,780	25,594	-0,099	0,060
-630,765	-58,551	0,119	-0,038
-629,751	426,906	-0,026	-0,042
-628,736	-121,857	-0,095	-0,011
-627,722	409,902	-0,039	0,061
-626,707	800,000	0,061	-0,175
-625,692	657,483	-0,040	0,076
-624,678	-65,392	-0,031	0,009
-623,663	-41,018	0,017	-0,007
-622,649	21,035	-0,146	0,087
-621,634	-200,000	-0,014	-0,049
-620,619	-200,000	0,005	-0,066
-619,605	56,059	0,136	-0,097
-618,590	-82,739	0,167	-0,039
-617,576	-200,000	0,024	0,126
-616,561	-200,000	0,013	0,067
-615,546	-144,765	0,075	0,005
-614,532	-200,000	0,012	-0,088
-613,517	546,822	-0,032	-0,057
-612,503	-79,552	0,033	0,008
-611,488	-163,630	-0,073	-0,002
-610,474	800,000	-0,014	0,036
-609,459	800,000	0,019	0,054
-608,444	100,792	-0,040	-0,034
-607,430	-64,211	-0,129	0,038
-606,415	267,283	-0,055	-0,071
-605,401	-200,000	-0,025	0,099
-604,386	43,117	0,138	0,092
-603,371	-27,719	-0,204	0,086
-602,357	-43,777	0,130	-0,048
-601,342	9,318	-0,088	0,048
-600,328	385,517	-0,099	0,150
-599,313	220,571	-0,070	0,083
-598,298	800,000	-0,030	-0,068
-597,284	-200,000	-0,040	0,162
-596,269	-129,436	-0,095	0,010
-595,255	800,000	-0,059	-0,122
-594,240	67,760	0,151	-0,113
-593,225	-144,497	0,050	0,003
-592,211	-3,730	-0,181	-0,091
-591,196	-153,200	-0,159	-0,008
-590,182	-200,000	-0,027	-0,102
-589,167	-86,880	0,084	0,019
-588,152	8,626	0,061	0,033
-587,138	-64,178	-0,111	-0,033
-586,123	-82,497	-0,146	-0,034
-585,109	144,048	0,102	-0,099
-584,094	123,845	0,143	-0,132
-583,079	-48,256	-0,164	0,058
-582,065	800,000	0,030	0,062
-581,050	615,914	-0,046	0,085
-580,036	184,789	0,095	0,103
-579,021	684,104	0,065	-0,125
-578,006	38,162	0,092	-0,060
-576,992	-150,718	-0,112	-0,006
-575,977	487,964	0,042	-0,071
-574,963	-200,000	0,011	-0,072
-573,948	206,687	0,076	0,087
-572,934	665,046	0,035	-0,067
-571,919	-6,168	-0,049	0,024
-570,904	-104,478	-0,096	-0,016
-569,890	297,798	-0,045	-0,061
-568,875	-49,986	0,132	-0,046
-567,861	-200,000	-0,002	-0,086
-566,846	32,103	0,153	0,096
-565,831	228,354	-0,032	0,038
-564,817	800,000	-0,010	-0,029
-563,802	-71,598	-0,027	-0,007
-562,788	-200,000	0,022	-0,142
-561,773	-200,000	0,013	-0,072
-560,758	-200,000	-0,016	-0,074
-559,744	-144,011	-0,108	0,007
-558,729	83,055	-0,060	-0,048
-557,715	-200,000	-0,004	-0,038
-556,700	60,726	-0,122	-0,088
-555,685	224,018	-0,083	-0,098
-554,671	-200,000	0,004	0,110
-553,656	800,000	0,043	0,116
-552,642	-200,000	0,002	0,039
-551,627	-39,840	-0,060	-0,023
-550,612	-12,498	-0,090	-0,043
-549,598	427,503	-0,096	-0,152
-548,583	141,399	0,062	-0,060
-547,569	156,353	-0,043	-0,044
-546,554	-123,720	0,063	0,007
-545,539	-200,000	0,018	0,093
-544,525	-200,000	0,002	0,070
-543,510	800,000	-0,063	-0,159
-542,496	288,462	0,056	-0,074
-541,481	266,963	-0,037	-0,048
-540,466	43,627	0,021	-0,014
-539,452	-200,000	-0,003	-0,014
-538,437	539,157	0,016	-0,029
-537,423	-13,606	0,129	0,061
-536,408	-200,000	-0,003	0,063
-535,393	-29,489	0,064	0,026
-534,379	-200,000	-0,014	-0,062
-533,364	-12,278	-0,150	0,071
-532,350	56,060	0,039	0,028
-531,335	150,440	-0,034	-0,034
-530,321	800,000	-0,026	-0,080
-529,306	-164,974	0,083	-0,003
-528,291	60,970	-0,079	-0,057
-527,277	33,838	0,151	0,095
-526,262	-200,000	0,007	0,037
-525,248	319,184	-0,031	-0,043
-524,233	-166,642	0,058	-0,002
-523,218	-200,000	0,007	0,103
-522,204	-200,000	0,020	0,218
-521,189	-200,000	0,019	0,128
-520,175	481,842	0,057	-0,095
-519,160	122,487	0,060	-0,055
-518,145	78,104	0,118	0,092
-517,131	-200,000	-0,001	0,057
-516,116	283,061	-0,052	0,068
-515,102	800,000	0,022	0,048
-514,087	-109,726	0,056	0,008
-513,072	-200,000	-0,016	-0,072
-512,058	81,682	-0,042	0,033
-511,043	90,651	0,010	0,008
-510,029	311,958	0,048	0,066
-509,014	273,929	-0,012	-0,015
-507,999	296,203	-0,008	0,011
-506,985	46,418	-0,096	0,065
-505,970	-5,562	-0,086	-0,043
-504,956	160,872	0,057	-0,058
-503,941	91,673	-0,045	-0,037
-502,926	65,855	0,093	-0,069
-501,912	-200,000	-0,000	-0,076
-500,897	116,743	-0,040	-0,035
-499,883	800,000	0,051	-0,124
-498,868	89,716	-0,090	-0,073
-497,853	800,000	0,029	-0,075
-496,839	-81,511	0,075	0,018
-495,824	-200,000	-0,012	0,087
-494,810	-134,676	0,056	0,005
-493,795	467,095	-0,010	0,016
-492,781	-200,000	-0,017	0,089
-491,766	-45,892	-0,101	0,036
-490,751	-84,927	0,143	-0,032
-489,737	0,550	0,099	0,052
-488,722	-31,662	-0,069	-0,028
-487,708	-56,835	0,110	-0,035
-486,693	143,167	-0,077	0,075
-485,678	31,553	-0,090	-0,056
-484,664	-73,654	-0,145	0,038
-483,649	-200,000	-0,012	0,043
-482,635	-140,894	0,168	-0,012
-481,620	278,966	0,076	-0,099
-480,605	-14,207	0,091	0,043
-479,591	-105,767	0,124	0,020
-478,576	800,000	0,018	-0,053
-477,562	-200,000	-0,004	-0,074
-476,547	-200,000	-0,014	-0,124
-475,532	35,542	-0,121	-0,077
-474,518	722,430	0,094	-0,184
-473,503	-69,422	-0,029	0,008
-472,489	-20,185	-0,064	-0,029
-471,474	-200,000	0,021	-0,106
-470,459	-200,000	-0,019	0,071
-469,445	-147,348	-0,043	-0,003
-468,430	-134,019	-0,097	-0,009
-467,416	542,605	0,030	-0,052
-466,401	-15,074	-0,023	0,011
-465,386	636,501	0,055	0,102
-464,372	-190,043	-0,074	0,001
-463,357	87,808	0,018	0,014
-462,343	-137,015	-0,022	0,002
-461,328	52,999	-0,081	0,056
-460,313	777,986	-0,004	-0,008
-459,299	-73,191	0,067	-0,018
-458,284	29,467	0,066	0,041
-457,270	153,716	0,084	-0,084
-456,255	-74,693	0,088	0,023
-455,241	89,683	-0,062	0,050
-454,226	47,389	-0,079	0,053
-453,211	133,002	0,080	0,075
-452,197	-134,801	0,068	0,006
-451,182	-111,890	0,051	0,007
-450,168	-78,819	-0,045	0,011
-449,153	800,000	-0,057	0,138
-448,138	-66,954	-0,167	0,048
-447,124	51,988	0,055	-0,038
-446,109	170,953	-0,081	-0,084
-445,095	442,293	0,033	0,052
-444,080	-172,368	0,083	0,002
-443,065	641,832	0,079	-0,147
-442,051	13,967	-0,121	0,068
-441,036	126,480	-0,068	-0,062
-440,022	-121,319	0,047	0,006
-439,007	-54,992	0,042	-0,014
-437,992	124,801	-0,106	-0,097
-436,978	-111,888	0,124	0,018
-435,963	800,000	0,059	0,172
-434,949	91,340	0,055	-0,044
-433,934	605,817	0,023	0,041
-432,919	107,299	-0,154	-0,133
-431,905	-150,814	0,021	-0,001
-430,890	-200,000	-0,032	0,164
-429,876	-200,000	0,016	0,173
-428,861	355,739	0,072	0,105
-427,846	-102,226	0,042	-0,007
-426,832	-200,000	0,006	0,064
-425,817	178,299	-0,049	-0,053
-424,803	-200,000	-0,022	-0,113
-423,788	-200,000	-0,022	-0,095
-422,773	-10,022	-0,128	0,062
-421,759	125,683	-0,023	0,021
-420,744	155,092	0,022	-0,022
-419,730	129,155	-0,066	-0,062
-418,715	316,825	-0,053	-0,074
-417,701	349,539	0,083	-0,120
-416,686	-200,000	0,015	0,069
-415,671	324,058	-0,022	-0,031
-414,657	-200,000	-0,010	0,050
-413,642	-59,609	0,085	0,026
-412,628	139,394	-0,152	0,145
-411,613	-200,000	0,019	-0,239
-410,598	-111,725	-0,105	-0,015
-409,584	-82,098	0,059	-0,014
-408,569	23,134	0,206	-0,123
-407,555	-200,000	0,015	0,173
-406,540	-200,000	-0,006	0,058
-405,525	-200,000	-0,001	0,186
-404,511	-87,301	-0,132	-0,029
-403,496	-200,000	-0,025	-0,106
-402,482	159,770	-0,038	-0,038
-401,467	246,370	0,079	0,097
-400,452	-200,000	0,022	0,101
-399,438	-200,000	-0,018	0,216
-398,423	-200,000	0,007	-0,043
-397,409	326,200	0,081	-0,113
-396,394	114,983	-0,124	-0,110
-395,379	-182,938	0,081	-0,001
-394,365	484,924	-0,063	0,105
-393,350	131,070	0,045	0,042
-392,336	115,381	0,055	0,049
-391,321	0,998	0,053	0,027
-390,306	54,848	-0,118	-0,083
-389,292	334,139	-0,046	0,065
-388,277	191,008	0,082	0,089
-387,263	240,330	0,064	0,078
-386,248	-200,000	-0,004	0,017
-385,233	136,514	-0,048	-0,046
-384,219	-117,208	-0,090	-0,012
-383,204	75,421	-0,120	-0,092
-382,190	30,863	-0,124	-0,077
-381,175	280,247	-0,074	-0,097
-380,160	800,000	0,020	0,055
-379,146	-200,000	-0,004	-0,154
-378,131	-200,000	0,003	-0,085
-377,117	17,606	0,078	0,045
-376,102	68,906	-0,102	-0,076
-375,088	46,727	-0,102	-0,069
-374,073	-200,000	-0,003	-0,037
-373,058	166,843	-0,019	-0,020
-372,044	56,740	0,084	0,059
-371,029	800,000	-0,049	0,124
-370,015	-162,662	-0,102	-0,004
-369,000	2,970	-0,158	-0,083
-367,985	-200,000	-0,039	-0,174
-366,971	173,880	-0,123	-0,129
-365,956	627,258	0,053	-0,097
-364,942	517,828	0,041	-0,069
-363,927	4,445	0,036	0,019
-362,912	23,731	-0,123	0,073
-361,898	-200,000	-0,003	-0,024
-360,883	-50,312	0,053	0,018
-359,869	-200,000	-0,010	0,152
-358,854	-200,000	0,009	-0,091
-357,839	-54,717	0,147	-0,048
-356,825	-200,000	0,022	0,083
-355,810	75,190	0,045	0,034
-354,796	-65,177	-0,128	0,037
-353,781	430,947	-0,015	0,024
-352,766	-200,000	0,012	-0,135
-351,752	-200,000	0,000	-0,134
-350,737	800,000	0,035	-0,079
-349,723	96,794	-0,099	0,082
-348,708	387,564	-0,027	-0,041
-347,693	-200,000	0,007	-0,088
-346,679	520,415	-0,021	-0,036
-345,664	298,658	0,043	-0,058
-344,650	-37,937	0,113	-0,043
-343,635	-2,184	-0,074	0,037
-342,620	800,000	-0,022	0,058
-341,606	-200,000	-0,004	0,053
-340,591	7,710	-0,006	0,003
-339,577	800,000	-0,011	-0,032
-338,562	107,333	-0,081	0,069
-337,548	-200,000	-0,008	0,144
-336,533	-22,881	-0,051	-0,022
-335,518	-173,981	-0,026	-0,001
-334,504	-200,000	0,013	0,043
-333,489	122,115	0,032	0,029
-332,475	-200,000	-0,012	0,089
-331,460	196,989	0,036	0,040
-330,445	208,947	-0,075	-0,085
-329,431	-190,100	0,193	0,002
-328,416	1,040	0,075	0,039
-327,402	176,383	0,150	0,158
-326,387	-76,100	-0,073	-0,018
-325,372	-200,000	-0,034	-0,127
-324,358	-150,259	0,050	-0,003
-323,343	-200,000	0,006	-0,132
-322,329	514,590	-0,051	0,087
-321,314	-26,028	0,116	-0,049
-320,299	88,935	0,121	0,098
-319,285	499,238	-0,073	-0,122
-318,270	800,000	-0,042	-0,092
-317,256	77,070	0,074	-0,056
-316,241	-200,000	-0,018	-0,088
-315,226	-200,000	-0,014	-0,052
-314,212	-200,000	-0,018	-0,111
-313,197	-200,000	0,030	-0,193
-312,183	-181,160	0,042	0,001
-311,168	-42,546	0,023	-0,008
-310,153	-47,827	-0,094	-0,033
-309,139	108,169	0,053	-0,045
-308,124	127,290	-0,134	-0,123
-307,110	800,000	0,053	0,113
-306,095	60,604	-0,073	0,052
-305,080	402,003	-0,018	0,028
-304,066	-200,000	-0,006	0,031
-303,051	699,395	0,035	-0,067
-302,037	372,318	-0,072	0,106
-301,022	800,000	0,027	0,078
-300,008	-200,000	-0,004	0,029
-298,993	168,166	-0,116	0,119
-297,978	-152,849	0,067	0,003
-296,964	-106,580	0,052	-0,008
-295,949	-99,180	0,145	-0,026
-294,935	-200,000	0,003	-0,104
-293,920	-17,452	-0,130	0,059
-292,905	-200,000	-0,013	0,102
-291,891	800,000	0,067	0,139
-290,876	-200,000	0,048	0,205
-289,862	800,000	0,029	0,083
-288,847	-54,446	0,115	0,038
-287,832	300,980	-0,076	-0,102
-286,818	-67,898	0,170	0,048
-285,803	0,913	-0,073	-0,038
-284,789	364,006	-0,048	0,070
-283,774	-82,289	0,149	-0,035
-282,759	32,558	0,060	0,038
-281,745	800,000	-0,026	-0,060
-280,730	222,590	-0,031	-0,037
-279,716	-200,000	0,043	0,152
-278,701	75,667	-0,068	0,052
-277,686	-85,832	0,064	0,014
-276,672	342,329	-0,042	0,060
-275,657	472,907	-0,033	-0,054
-274,643	41,664	-0,037	0,024
-273,628	-200,000	-0,013	-0,057
-272,613	577,629	0,055	-0,098
-271,599	380,132	0,046	-0,069
-270,584	-21,993	0,026	0,011
-269,570	411,479	0,093	0,143
-268,555	111,620	0,029	-0,026
-267,540	-18,368	0,077	0,034
-266,526	-157,064	-0,117	0,005
-265,511	-15,625	0,131	0,060
-264,497	-40,446	-0,048	-0,018
-263,482	800,000	-0,017	-0,046
-262,467	-19,317	0,006	0,003
-261,453	-97,582	-0,131	-0,024
-260,438	800,000	0,056	-0,130
-259,424	-81,791	-0,106	0,025
-258,409	72,380	-0,041	0,031
-257,395	-66,698	0,047	-0,013
-256,380	-200,000	-0,025	0,109
-255,365	800,000	-0,022	-0,058
-254,351	6,171	0,027	0,015
-253,336	800,000	-0,032	-0,069
-252,322	-200,000	0,007	-0,075
-251,307	80,254	0,091	0,070
-250,292	800,000	-0,016	0,033
-249,278	146,958	-0,007	0,007
-248,263	146,539	0,096	-0,093
-247,249	-200,000	0,018	0,249
-246,234	83,274	-0,002	0,002
-245,219	2,802	0,083	-0,043
-244,205	-200,000	0,022	-0,080
-243,190	-116,524	0,078	-0,010
-242,176	345,776	-0,098	0,140
-241,161	-46,507	-0,016	-0,006
-240,146	163,571	-0,015	0,015
-239,132	19,607	-0,027	-0,015
-238,117	-105,822	-0,141	-0,023
-237,103	1,797	0,063	0,033
-236,088	731,465	0,017	0,034
-235,073	63,881	0,086	-0,062
-234,059	246,450	0,060	0,074
-233,044	1,324	-0,077	0,040
-232,030	800,000	0,014	-0,041
-231,015	-2,071	0,104	0,052
-230,000	800,000	0,027	0,065
-228,986	-200,000	-0,006	0,108
-227,971	-115,953	-0,090	0,012
-226,957	-177,724	0,054	-0,001
-225,942	800,000	-0,009	0,023
-224,927	526,753	-0,077	-0,131
-223,913	314,222	-0,039	0,053
-222,898	-91,437	-0,169	-0,035
-221,884	310,027	-0,068	0,092
-220,869	-42,711	0,087	0,032
-219,855	161,266	-0,078	0,079
-218,840	800,000	0,055	0,132
-217,825	100,751	0,087	-0,073
-216,811	-58,209	-0,094	0,029
-215,796	210,055	0,034	0,039
-214,782	178,257	-0,050	-0,052
-213,767	-165,293	0,122	0,004
-212,752	33,813	0,068	-0,043
-211,738	265,602	0,092	-0,115
-210,723	-200,000	-0,008	-0,075
-209,709	-200,000	0,006	0,048
-208,694	-200,000	-0,018	0,090
-207,679	800,000	-0,070	-0,193
-206,665	-200,000	0,002	-0,059
-205,650	-200,000	0,039	0,141
-204,636	-29,404	0,139	-0,057
-203,621	-70,125	-0,119	0,032
-202,606	205,482	0,045	-0,050
-201,592	130,273	0,165	-0,152
-200,577	-112,363	-0,116	0,017
-199,563	-200,000	0,030	0,202
-198,548	44,574	0,156	0,103
-197,533	-200,000	-0,009	0,098
-196,519	174,831	0,057	0,059
-195,504	50,873	0,137	0,093
-194,490	-200,000	-0,018	-0,067
-193,475	-1,798	-0,022	-0,011
-192,460	135,938	0,135	-0,126
-191,446	-32,452	0,047	0,019
-190,431	800,000	0,029	0,069
-189,417	-53,249	-0,042	0,014
-188,402	-200,000	0,003	0,127
-187,387	56,369	0,109	0,076
-186,373	-58,448	0,160	0,050
-185,358	200,302	0,017	-0,019
-184,344	72,722	-0,061	0,046
-183,329	-29,056	0,094	-0,038
-182,315	29,480	0,061	-0,037
-181,300	113,931	0,048	0,042
-180,285	336,925	-0,071	-0,099
-179,271	-200,000	-0,014	0,096
-178,256	-31,375	-0,069	0,028
-177,242	-200,000	-0,017	-0,061
-176,227	800,000	-0,055	0,136
-175,212	174,428	0,047	0,049
-174,198	-67,589	-0,061	0,017
-173,183	-96,633	-0,092	-0,017
-172,169	57,433	0,039	0,027
-171,154	348,070	-0,012	0,017
-170,139	-3,028	0,035	0,018
-169,125	-60,150	0,166	0,051
-168,110	-200,000	0,012	0,185
-167,096	70,531	-0,038	-0,028
-166,081	264,936	-0,077	0,097
-165,066	-200,000	-0,041	-0,188
-164,052	-200,000	-0,004	-0,091
-163,037	800,000	-0,067	-0,144
-162,023	-17,435	-0,114	0,052
-161,008	-109,959	0,078	-0,012
-159,993	443,217	0,102	-0,161
-158,979	-200,000	0,006	-0,025
-157,964	6,524	-0,143	-0,076
-156,950	-27,877	-0,071	0,029
-155,935	-133,068	0,067	-0,006
-154,920	-173,536	0,214	-0,005
-153,906	7,712	-0,088	0,047
-152,891	-114,243	-0,057	0,008
-151,877	-200,000	-0,027	-0,148
-150,862	-154,867	-0,093	0,004
-149,847	800,000	-0,007	0,016
-148,833	800,000	-0,022	-0,063
-147,818	800,000	-0,026	0,073
-146,804	547,602	-0,031	-0,054
-145,789	800,000	0,008	-0,023
-144,775	313,049	-0,079	-0,107
-143,760	122,104	0,099	0,089
-142,745	-59,578	-0,100	0,031
-141,731	-200,000	0,043	0,175
-140,716	-59,575	0,128	-0,039
-139,702	-200,000	-0,006	0,042
-138,687	-18,144	-0,117	0,052
-137,672	-2,593	-0,082	-0,041
-136,658	49,044	0,124	-0,084
-135,643	303,176	-0,031	-0,041
-134,629	800,000	0,021	0,053
-133,614	-64,041	0,032	0,009
-132,599	-200,000	-0,022	0,118
-131,585	-200,000	-0,024	0,128
-130,570	800,000	0,024	0,072
-129,556	31,319	-0,048	-0,029
-128,541	-200,000	-0,016	0,078
-127,526	89,383	0,039	-0,031
-126,512	-165,958	0,194	0,006
-125,497	-61,122	0,111	0,033
-124,483	180,612	0,053	0,056
-123,468	800,000	0,043	0,094
-122,453	-82,113	0,066	-0,015
-121,439	336,358	-0,062	-0,087
-120,424	22,529	-0,091	-0,053
-119,410	-62,445	-0,076	-0,023
-118,395	8,407	0,157	0,084
-117,380	800,000	0,004	-0,011
-116,366	800,000	-0,007	0,019
-115,351	646,423	-0,046	-0,085
-114,337	-56,453	0,064	-0,020
-113,322	6,316	-0,120	-0,064
-112,307	275,993	0,066	-0,084
-111,293	800,000	0,023	-0,048
-110,278	800,000	-0,020	0,055
-109,264	-67,642	-0,049	-0,014
-108,249	-200,000	0,016	0,068
-107,234	-71,243	-0,167	-0,045
-106,220	195,043	-0,098	0,107
-105,205	-200,000	-0,082	0,000
-104,191	148,312	0,028	0,027
-103,176	121,291	0,049	0,044
-102,162	-200,000	0,006	0,072
-101,147	-100,587	-0,137	0,024
-100,132	9,989	-0,055	-0,030
-99,118	670,974	0,061	0,113
-98,103	-200,000	0,034	0,135
-97,089	-97,086	-0,116	0,022
-96,074	-151,308	0,051	0,003
-95,059	164,669	0,024	0,024
-94,045	800,000	-0,019	0,044
-93,030	65,572	-0,071	0,052
-92,016	355,674	-0,037	-0,053
-91,001	206,590	0,014	-0,015
-89,986	736,403	-0,059	0,114
-88,972	49,778	0,046	-0,031
-87,957	-200,000	0,005	0,085
-86,943	707,029	0,054	-0,102
-85,928	147,949	-0,010	-0,009
-84,913	163,290	-0,053	0,053
-83,899	498,808	-0,031	-0,052
-82,884	800,000	0,037	0,098
-81,870	-200,000	-0,016	0,071
-80,855	-200,000	0,025	0,164
-79,840	82,879	-0,083	-0,065
-78,826	54,114	-0,057	0,040
-77,811	-126,142	-0,152	0,016
-76,797	144,076	-0,049	-0,047
-75,782	60,049	0,056	-0,039
-74,767	290,653	-0,040	0,052
-73,753	-100,812	0,195	-0,034
-72,738	248,009	-0,092	0,112
-71,724	62,025	-0,119	0,085
-70,709	67,581	0,017	0,013
-69,694	-200,000	0,023	-0,115
-68,680	-200,000	0,013	0,151
-67,665	135,595	0,010	-0,009
-66,651	800,000	0,069	0,175
-65,636	-57,492	0,057	-0,018
-64,622	-200,000	-0,004	0,019
-63,607	564,557	0,050	-0,087
-62,592	-20,173	-0,067	-0,030
-61,578	-200,000	0,010	0,053
-60,563	-200,000	0,011	0,105
-59,549	-200,000	-0,001	0,048
-58,534	50,366	-2,184	-1,476
-57,519	-200,000	0,027	-0,618
-56,505	-200,000	-1,439	-5,172
-55,490	92,832	0,902	0,729
-54,476	800,000	5,442	12,139
-53,461	-200,000	18,964	321,318
-52,446	800,000	742,152	2325,038
-51,432	547,880	1654,897	2847,976
-50,417	109,492	1637,511	1404,137
-49,403	73,098	1287,899	962,801
-48,388	29,284	1029,498	624,534
-47,373	19,550	992,567	569,946
-46,359	16,804	980,301	553,862
-45,344	13,417	976,420	540,536
-44,330	13,731	974,835	540,668
-43,315	13,103	972,948	537,542
-42,300	13,085	971,873	536,867
-41,286	13,030	971,007	536,188
-40,271	13,054	969,899	535,633
-39,257	13,026	969,254	535,166
-38,242	12,997	968,209	534,472
-37,227	13,014	967,384	534,051
-36,213	13,007	966,472	533,503
-35,198	12,984	965,777	533,025
-34,184	13,074	964,813	532,763
-33,169	12,963	964,035	531,954
-32,154	13,051	963,117	531,708
-31,140	13,005	962,150	531,005
-30,125	13,107	961,336	530,865
-29,111	13,010	960,493	530,066
-28,096	13,056	959,777	529,797
-27,082	13,079	959,140	529,499
-26,067	13,071	958,455	529,073
-25,052	13,065	957,679	528,605
-24,038	13,027	957,211	528,205
-23,023	13,017	956,525	527,774
-22,009	13,000	955,817	527,305
-20,994	13,056	955,213	527,133
-19,979	13,077	954,640	526,862
-18,965	13,068	953,916	526,414
-17,950	13,107	953,381	526,220
-16,936	13,042	952,558	525,539
-15,921	13,093	951,931	525,334
-14,906	12,959	951,190	524,478
-13,892	13,021	950,635	524,347
-12,877	12,945	950,107	523,794
-11,863	12,916	949,420	523,301
-10,848	12,959	948,918	523,142
-9,833	13,022	948,443	523,058
-8,819	13,011	947,697	522,592
-7,804	12,986	946,995	522,103
-6,790	12,893	946,682	521,615
-5,775	12,980	945,811	521,390
-4,760	12,938	945,371	520,993
-3,746	12,909	944,700	520,512
-2,731	12,777	944,045	519,712
-1,717	12,765	943,262	519,220
-0,702	12,814	942,581	518,980
0,313	12,592	942,092	518,793
1,327	16,105	939,826	528,594
2,342	25,428	790,171	468,987
3,356	21,518	445,140	258,383
4,371	-7,717	298,815	143,912
5,386	-11,452	280,521	131,511
6,400	-12,816	274,971	127,616
7,415	-12,871	272,426	126,373
8,429	-12,940	270,989	125,631
9,444	-13,002	270,088	125,145
10,459	-13,100	269,638	124,834
11,473	-13,287	268,932	124,325
12,488	-13,401	268,295	123,915
13,502	-13,504	267,912	123,632
14,517	-13,340	267,367	123,520
15,531	-13,310	266,750	123,251
16,546	-13,164	266,368	123,197
17,561	-13,262	266,115	122,979
18,575	-13,192	265,858	122,913
19,590	-13,531	265,476	122,418
20,604	-13,229	265,023	122,472
21,619	-13,384	264,778	122,208
22,634	-13,417	264,486	122,033
23,648	-13,278	263,989	121,917
24,663	-13,328	263,789	121,769
25,677	-13,345	263,684	121,694
26,692	-13,347	263,172	121,445
27,707	-13,504	263,018	121,223
28,721	-13,751	262,734	120,860
29,736	-13,358	262,314	121,007
30,750	-13,382	262,187	120,916
31,765	-13,406	261,935	120,768
32,780	-13,519	261,682	120,540
33,794	-13,480	261,508	120,484
34,809	-13,214	261,287	120,608
35,823	-13,538	260,918	120,139
36,838	-13,651	260,884	120,012
37,853	-13,692	260,526	119,800
38,867	-13,627	260,306	119,746
39,882	-13,636	259,978	119,576
40,896	-13,634	259,869	119,517
41,911	-13,567	259,525	119,408
42,926	-13,741	259,462	119,215
43,940	-13,524	258,940	119,155
44,955	-13,602	258,781	119,003
45,969	-13,492	258,507	118,964
46,984	-13,862	258,357	118,558
47,999	-14,227	257,868	118,002
49,013	-14,152	257,653	117,959
50,028	-14,328	257,461	117,707
51,042	-14,464	257,281	117,494
52,057	-14,507	257,050	117,340
53,071	-14,343	256,871	117,392
54,086	-14,046	256,563	117,500
55,101	-14,136	256,595	117,425
56,115	-14,103	256,514	117,407
57,130	-13,572	256,180	117,707
58,144	-13,330	256,241	117,935
59,159	-13,099	255,870	117,956
60,174	-13,220	255,593	117,712
61,188	-13,314	255,345	117,506
62,203	-13,380	255,319	117,426
63,217	-13,348	255,054	117,321
64,232	-13,277	254,746	117,230
65,247	-13,525	254,623	116,948
66,261	-13,417	254,336	116,900
67,276	-13,714	254,039	116,496
68,290	-13,710	253,615	116,295
69,305	-13,897	253,531	116,085
70,320	-14,035	253,400	115,896
71,334	-13,560	253,237	116,220
72,349	-13,273	253,006	116,350
73,363	-13,210	252,953	116,369
74,378	-13,202	252,682	116,242
75,393	-13,182	252,399	116,118
76,407	-13,324	252,260	115,922
77,422	-13,424	252,155	115,777
78,436	-13,245	251,725	115,723
79,451	-13,354	251,459	115,497
80,466	-13,486	251,291	115,297
81,480	-13,647	250,962	114,999
82,495	-13,850	250,895	114,784
83,509	-13,666	250,679	114,832
84,524	-13,694	250,444	114,690
85,539	-13,679	250,125	114,547
86,553	-13,806	249,833	114,296
87,568	-13,778	249,934	114,355
88,582	-13,735	249,545	114,203
89,597	-13,934	249,529	114,017
90,611	-13,493	249,341	114,295
91,626	-13,466	249,167	114,227
92,641	-13,538	248,949	114,057
93,655	-13,601	248,808	113,928
94,670	-13,618	248,601	113,809
95,684	-13,717	248,392	113,620
96,699	-13,741	248,246	113,523
97,714	-13,775	247,931	113,340
98,728	-13,878	247,617	113,100
99,743	-13,891	247,625	113,082
100,757	-13,906	247,345	112,932
101,772	-13,882	247,028	112,797
102,787	-13,845	246,964	112,788
103,801	-13,675	246,842	112,866
104,816	-13,658	246,670	112,791
105,830	-13,463	246,521	112,875
106,845	-13,464	246,372	112,797
107,860	-13,246	245,964	112,781
108,874	-13,571	245,891	112,467
109,889	-13,557	245,683	112,373
110,903	-13,673	245,552	112,207
111,918	-13,806	245,291	111,968
112,933	-13,588	245,137	112,068
113,947	-13,465	244,977	112,086
114,962	-13,390	244,647	111,988
115,976	-13,409	244,629	111,955
116,991	-13,601	244,500	111,726
118,006	-13,517	244,298	111,693
119,020	-13,419	244,174	111,708
120,035	-13,426	244,119	111,667
121,049	-13,440	244,014	111,598
122,064	-13,254	243,586	111,545
123,079	-13,569	243,527	111,248
124,093	-13,639	243,094	110,983
125,108	-13,845	242,949	110,738
126,122	-14,153	242,773	110,394
127,137	-14,085	242,460	110,298
128,151	-14,096	242,376	110,241
129,166	-13,951	242,378	110,351
130,181	-13,911	242,049	110,224
131,195	-13,857	241,713	110,106
132,210	-13,615	241,670	110,274
133,224	-13,456	241,547	110,338
134,239	-13,637	241,411	110,117
135,254	-13,470	241,190	110,144
136,268	-13,672	240,849	109,813
137,283	-13,729	240,488	109,593
138,297	-14,044	240,386	109,280
139,312	-14,083	240,234	109,170
140,327	-13,439	240,203	109,669
141,341	-13,337	240,327	109,798
142,356	-13,043	239,891	109,828
143,370	-13,222	239,921	109,686
144,385	-12,989	239,568	109,704
145,400	-12,946	239,494	109,696
146,414	-12,990	239,292	109,558
147,429	-13,170	239,060	109,296
148,443	-13,240	238,831	109,125
149,458	-13,364	238,711	108,961
150,473	-13,081	238,578	109,118
151,487	-13,256	238,366	108,870
152,502	-13,270	238,154	108,753
153,516	-13,105	237,926	108,771
154,531	-13,099	237,999	108,801
155,546	-13,081	237,666	108,653
156,560	-12,941	237,444	108,654
157,575	-13,337	237,223	108,226
158,589	-13,407	237,258	108,176
159,604	-13,229	237,093	108,234
160,619	-13,087	236,993	108,292
161,633	-13,032	236,896	108,281
162,648	-12,852	236,497	108,234
163,662	-13,171	236,568	108,002
164,677	-13,173	236,064	107,760
165,692	-13,230	236,131	107,736
166,706	-12,961	235,889	107,830
167,721	-13,297	235,877	107,548
168,735	-13,053	235,589	107,600
169,750	-13,172	235,398	107,409
170,764	-13,162	235,286	107,357
171,779	-13,108	235,249	107,373
172,794	-13,166	234,989	107,199
173,808	-13,255	234,770	107,019
174,823	-13,501	234,441	106,665
175,837	-13,763	234,222	106,349
176,852	-13,593	234,383	106,547
177,867	-13,218	234,209	106,754
178,881	-13,188	234,151	106,741
179,896	-13,020	233,860	106,732
180,910	-12,836	233,686	106,788
181,925	-12,934	233,524	106,627
182,940	-12,973	233,334	106,500
183,954	-13,021	233,323	106,448
184,969	-12,798	233,039	106,484
185,983	-12,867	232,985	106,396
186,998	-12,827	232,837	106,350
188,013	-12,876	232,600	106,194
189,027	-12,788	232,553	106,232
190,042	-12,904	232,397	106,060
191,056	-12,895	232,279	106,004
192,071	-13,016	232,086	105,812
193,086	-12,990	231,751	105,670
194,100	-12,984	231,724	105,653
195,115	-13,075	231,340	105,398
196,129	-12,528	231,721	105,988
197,144	-6,538	233,592	111,532
198,159	-0,926	235,444	116,830
199,173	2,754	236,162	120,077
200,188	2,999	236,243	120,301
201,202	2,872	236,051	120,092
202,217	3,114	235,950	120,220
203,232	3,249	235,853	120,266
204,246	3,446	235,644	120,303
205,261	3,195	235,636	120,092
206,275	3,746	235,460	120,424
207,290	3,760	235,238	120,310
208,304	3,548	235,099	120,062
209,319	3,637	234,791	119,964
210,334	3,306	234,746	119,671
211,348	3,093	234,660	119,451
212,363	2,933	234,216	119,089
213,377	2,600	234,067	118,744
214,392	2,714	233,979	118,777
215,407	2,729	233,920	118,748
216,421	2,832	233,621	118,665
217,436	2,672	233,490	118,464
218,450	2,650	233,232	118,306
219,465	2,602	232,984	118,132
220,480	2,524	233,063	118,101
221,494	2,574	232,781	117,986
222,509	2,802	232,783	118,154
223,523	3,106	232,595	118,283
224,538	2,791	232,375	117,917
225,553	2,829	232,298	117,897
226,567	2,797	232,233	117,829
227,582	2,959	232,125	117,888
228,596	3,128	231,891	117,889
229,611	3,016	231,729	117,710
230,626	2,559	231,415	117,188
231,640	2,653	231,311	117,198
232,655	2,939	231,137	117,319
233,669	3,333	231,179	117,632
234,684	3,469	231,055	117,664
235,699	3,269	230,924	117,433
236,713	2,999	230,609	117,055
237,728	2,816	230,410	116,804
238,742	2,421	230,207	116,388
239,757	2,805	230,169	116,652
240,772	2,728	229,983	116,489
241,786	2,510	229,881	116,260
242,801	2,869	229,788	116,477
243,815	3,339	229,714	116,787
244,830	2,997	229,569	116,442
245,844	2,824	229,267	116,147
246,859	2,842	229,220	116,126
247,874	2,938	229,188	116,173
248,888	3,124	228,874	116,145
249,903	2,977	228,689	115,928
250,917	2,995	228,368	115,769
251,932	2,682	228,371	115,523
252,947	2,718	228,118	115,413
253,961	2,644	227,954	115,263
254,976	2,807	227,842	115,320
255,990	2,997	227,892	115,478
257,005	3,096	227,572	115,380
258,020	2,914	227,687	115,291
259,034	3,074	227,350	115,231
260,049	2,856	227,229	114,995
261,063	2,925	227,089	114,966
262,078	3,129	227,060	115,094
263,093	3,276	226,860	115,093
264,107	3,291	226,703	115,014
265,122	3,235	226,415	114,816
266,136	3,293	226,492	114,889
267,151	3,144	226,279	114,659
268,166	2,908	226,019	114,340
269,180	2,616	225,792	113,996
270,195	2,432	225,772	113,839
271,209	2,623	225,543	113,856
272,224	2,730	225,500	113,904
273,239	2,909	225,213	113,882
274,253	2,907	225,116	113,822
275,268	2,617	224,833	113,452
276,282	2,495	224,654	113,261
277,297	2,596	224,570	113,283
278,312	2,898	224,463	113,444
279,326	2,758	224,451	113,324
280,341	2,913	224,334	113,370
281,355	2,944	224,199	113,315
282,370	2,948	223,959	113,186
283,384	2,647	223,790	112,868
284,399	2,542	223,508	112,637
285,414	2,714	223,383	112,691
286,428	2,729	223,514	112,759
287,443	3,053	223,299	112,879
288,457	2,720	223,174	112,561
289,472	2,748	222,920	112,443
290,487	2,353	222,744	112,053
291,501	2,440	222,568	112,018
292,516	2,335	222,476	111,886
293,530	2,508	222,421	111,974
294,545	2,443	222,198	111,805
295,560	2,445	222,119	111,756
296,574	2,750	222,053	111,938
297,589	2,825	221,882	111,896
298,603	2,915	221,731	111,876
299,618	2,810	221,568	111,707
300,633	2,913	221,601	111,789
301,647	2,781	221,412	111,587
302,662	2,883	221,412	111,652
303,676	2,939	221,157	111,554
304,691	3,108	220,861	111,518
305,706	3,169	220,823	111,533
306,720	3,141	220,628	111,404
307,735	2,544	220,465	110,878
308,749	2,775	220,208	110,906
309,764	2,991	220,182	111,041
310,779	3,221	220,008	111,109
311,793	2,979	219,887	110,863
312,808	2,971	219,749	110,778
313,822	2,956	219,582	110,673
314,837	2,756	219,497	110,476
315,852	2,603	219,347	110,279
316,866	2,830	219,279	110,399
317,881	3,153	219,081	110,524
318,895	2,945	218,905	110,275
319,910	2,594	218,700	109,908
320,925	2,480	218,490	109,711
321,939	2,372	218,361	109,558
322,954	2,339	218,441	109,565
323,968	2,840	218,221	109,806
324,983	3,189	218,074	109,973
325,997	3,220	217,982	109,939
327,012	2,915	217,851	109,644
328,027	3,008	217,616	109,582
329,041	3,168	217,635	109,698
330,056	3,110	217,487	109,571
331,070	2,900	217,257	109,295
332,085	2,798	216,828	108,997
333,100	2,889	216,856	109,066
334,114	2,642	216,713	108,808
335,129	2,879	216,526	108,873
336,143	2,842	216,653	108,901
337,158	2,882	216,478	108,832
338,173	2,831	216,307	108,700
339,187	2,748	216,037	108,495
340,202	2,624	215,887	108,322
341,216	2,523	215,846	108,221
342,231	2,467	215,869	108,182
343,246	2,657	215,624	108,185
344,260	2,701	215,385	108,087
345,275	3,291	215,317	108,461
346,289	3,113	215,203	108,268
347,304	3,080	214,991	108,128
348,319	2,683	214,973	107,829
349,333	2,848	214,776	107,837
350,348	2,853	214,610	107,747
351,362	3,039	214,539	107,833
352,377	3,136	214,398	107,821
353,392	2,957	214,240	107,606
354,406	2,678	214,245	107,403
355,421	197,176	1314,541	1392,752
356,435	157,784	1448,535	1392,688
