DTS Sentinel unit serial number:	SN410029Multiplexer serial number:	ORYXHardware model number:	OX2-SRSoftware version number:	ORYX F/W v4,00 Oryx Data Collector v3.7.2.0data status	okinstallation	B6 Nyhavnadifferential loss correction	single-endedforward channel	channel 2reverse channel	N/Adate	2023/12/08time	06:50:08forward acquisition time	300,00reverse acquisition time	0,00gamma	499,1914k internal	0,3165k external	0,3165temperature offset calibration	1,0000default loss term (dB/km)	0,3820temperature slope calibration	1,0000multiplexer offset coefficient	1,0000multiplexer slope coefficient	1,0000fibre end	0,00T internal ref (°C)	13,03T ext. ref 1 (°C)	-3,56T ext. ref 2 (°C)	-3,55length (m)	temperature (°C)	Stokes	anti-Stokes-744,400	-53,042	0,050	0,017
-743,385	-35,419	-0,293	0,117
-742,371	-97,968	0,175	0,033
-741,356	-117,311	-0,343	-0,045
-740,342	-113,593	0,228	0,032
-739,327	-143,658	-0,401	0,028
-738,312	161,012	0,100	-0,103
-737,298	-74,163	-0,407	-0,108
-736,283	-164,666	0,192	-0,006
-735,269	-178,358	-0,410	-0,007
-734,254	-200,000	-0,048	0,250
-733,239	-89,356	-0,447	-0,096
-732,225	-138,989	0,283	-0,022
-731,210	46,831	-0,105	0,072
-730,196	131,277	0,066	-0,062
-729,181	-44,631	-0,159	0,058
-728,167	-63,367	-0,092	0,028
-727,152	-93,670	-0,123	-0,025
-726,137	-200,000	-0,013	-0,120
-725,123	37,418	-0,022	0,015
-724,108	-80,994	-0,044	0,011
-723,094	-200,000	-0,030	-0,157
-722,079	-16,624	-0,065	0,030
-721,064	800,000	0,028	-0,079
-720,050	800,000	-0,035	-0,077
-719,035	-86,355	-0,060	-0,013
-718,021	-11,904	-0,032	-0,015
-717,006	541,154	-0,028	0,049
-715,991	162,823	-0,055	-0,056
-714,977	-50,123	0,086	-0,030
-713,962	-162,837	-0,117	0,004
-712,948	-11,038	0,112	0,054
-711,933	40,872	0,033	0,022
-710,918	136,255	0,003	-0,003
-709,904	800,000	-0,040	-0,118
-708,889	-41,558	-0,085	0,032
-707,875	725,742	-0,087	-0,171
-706,860	116,746	-0,060	0,054
-705,845	706,586	-0,045	0,088
-704,831	372,154	0,046	-0,069
-703,816	-200,000	-0,003	-0,061
-702,802	-200,000	0,007	0,024
-701,787	173,468	0,047	-0,050
-700,772	267,963	0,062	0,080
-699,758	48,031	-0,102	-0,070
-698,743	-149,258	0,076	-0,004
-697,729	-200,000	0,006	-0,097
-696,714	17,526	-0,031	0,018
-695,699	-200,000	-0,007	-0,086
-694,685	-97,625	-0,024	-0,005
-693,670	-132,077	0,031	0,003
-692,656	800,000	0,018	-0,057
-691,641	-200,000	0,000	-0,030
-690,627	75,318	-0,103	-0,080
-689,612	-4,731	0,153	-0,077
-688,597	488,187	-0,083	0,139
-687,583	162,301	0,092	-0,094
-686,568	-200,000	0,007	-0,142
-685,554	28,844	0,113	0,070
-684,539	670,541	-0,037	-0,072
-683,524	-200,000	-0,003	0,119
-682,510	-200,000	-0,018	0,119
-681,495	-11,630	-0,087	-0,042
-680,481	800,000	-0,041	-0,125
-679,466	173,453	-0,097	-0,103
-678,451	193,457	-0,071	0,079
-677,437	-200,000	0,014	0,077
-676,422	-51,827	-0,051	-0,017
-675,408	57,019	-0,047	-0,033
-674,393	-97,762	-0,113	0,021
-673,378	-24,862	-0,033	0,014
-672,364	-200,000	-0,001	-0,027
-671,349	-43,174	0,198	0,073
-670,335	318,698	-0,059	-0,082
-669,320	-71,920	0,110	-0,030
-668,305	800,000	-0,034	-0,096
-667,291	-140,523	-0,046	0,003
-666,276	-114,246	-0,177	-0,025
-665,262	85,715	-0,067	-0,054
-664,247	800,000	0,047	0,096
-663,232	7,984	-0,076	0,042
-662,218	440,088	-0,029	-0,047
-661,203	285,570	-0,064	0,085
-660,189	28,396	-0,136	0,084
-659,174	-87,921	-0,151	0,033
-658,159	-200,000	-0,020	-0,122
-657,145	-135,127	-0,049	0,004
-656,130	-200,000	0,008	-0,054
-655,116	190,016	0,023	-0,025
-654,101	-62,936	0,047	0,014
-653,086	220,937	0,028	-0,033
-652,072	-73,557	-0,154	0,041
-651,057	-134,403	-0,237	0,021
-650,043	800,000	-0,027	-0,061
-649,028	-200,000	0,003	-0,010
-648,014	-56,925	0,067	0,022
-646,999	-200,000	0,006	0,077
-645,984	-91,231	-0,018	0,004
-644,970	-21,264	0,121	-0,054
-643,955	-200,000	0,000	0,091
-642,941	-2,841	0,067	0,034
-641,926	220,575	0,031	0,037
-640,911	-8,873	-0,040	0,020
-639,897	-61,614	-0,040	0,012
-638,882	-137,241	-0,058	-0,005
-637,868	-40,411	-0,035	0,013
-636,853	15,757	0,081	-0,047
-635,838	21,567	-0,115	0,069
-634,824	308,428	0,058	-0,080
-633,809	140,399	0,048	0,046
-632,795	-57,863	0,024	0,008
-631,780	-70,422	0,042	0,011
-630,765	109,999	0,031	0,028
-629,751	-70,848	-0,054	-0,015
-628,736	31,477	0,022	-0,014
-627,722	185,273	0,088	0,095
-626,707	-152,892	0,112	-0,006
-625,692	-26,660	0,048	-0,021
-624,678	112,753	-0,080	0,071
-623,663	-11,529	0,047	-0,022
-622,649	-200,000	0,030	0,118
-621,634	-0,209	-0,118	0,061
-620,619	262,048	-0,031	-0,040
-619,605	-200,000	0,003	0,012
-618,590	-41,666	0,086	0,032
-617,576	-88,586	-0,101	0,022
-616,561	-89,072	0,042	0,009
-615,546	97,337	-0,072	-0,061
-614,532	-58,994	-0,071	0,022
-613,517	800,000	-0,045	-0,120
-612,503	-58,587	0,066	0,021
-611,488	415,027	-0,016	0,026
-610,474	311,534	-0,077	-0,106
-609,459	-132,926	-0,071	-0,007
-608,444	800,000	0,064	-0,153
-607,430	337,982	-0,041	-0,058
-606,415	-31,008	-0,073	-0,030
-605,401	109,330	0,130	0,114
-604,386	438,558	0,047	-0,075
-603,371	35,558	0,070	0,045
-602,357	800,000	0,033	-0,080
-601,342	80,122	0,065	0,051
-600,328	602,828	-0,032	-0,058
-599,313	-62,987	-0,007	-0,002
-598,298	183,366	0,046	0,049
-597,284	167,740	0,105	0,109
-596,269	-182,646	-0,015	-0,000
-595,255	233,164	-0,059	-0,071
-594,240	-29,606	-0,063	-0,026
-593,225	-13,573	0,099	-0,047
-592,211	800,000	0,027	-0,081
-591,196	30,409	0,023	0,014
-590,182	800,000	-0,035	-0,097
-589,167	-200,000	0,003	-0,024
-588,152	514,065	-0,064	0,109
-587,138	88,766	0,109	-0,089
-586,123	-39,866	-0,203	-0,077
-585,109	-200,000	0,001	-0,027
-584,094	800,000	0,034	-0,087
-583,079	-37,751	0,132	-0,051
-582,065	-137,132	-0,037	-0,003
-581,050	-97,705	0,102	-0,019
-580,036	-125,949	0,155	0,017
-579,021	167,344	-0,078	0,081
-578,006	209,084	-0,129	-0,148
-576,992	-200,000	0,006	-0,039
-575,977	183,838	0,177	0,191
-574,963	296,583	-0,027	-0,037
-573,948	-120,220	-0,065	0,008
-572,934	800,000	-0,035	-0,079
-571,919	-65,954	0,068	-0,020
-570,904	494,816	0,087	0,146
-569,890	-105,424	0,045	0,007
-568,875	461,374	-0,035	0,058
-567,861	800,000	-0,027	0,078
-566,846	-200,000	0,028	-0,133
-565,831	-103,693	-0,149	-0,025
-564,817	-200,000	-0,012	-0,058
-563,802	800,000	-0,026	0,066
-562,788	-200,000	-0,035	-0,149
-561,773	-200,000	-0,010	0,051
-560,758	-86,595	-0,057	0,013
-559,744	64,123	0,044	0,032
-558,729	325,261	-0,052	0,072
-557,715	34,850	-0,031	0,020
-556,700	-200,000	-0,023	-0,092
-555,685	-200,000	0,046	-0,196
-554,671	800,000	0,035	0,072
-553,656	415,708	0,056	0,087
-552,642	168,844	0,081	0,084
-551,627	-200,000	-0,034	0,133
-550,612	-16,691	0,079	0,036
-549,598	377,557	-0,078	0,117
-548,583	-200,000	0,039	-0,129
-547,569	-200,000	0,036	-0,172
-546,554	-50,672	0,065	0,022
-545,539	800,000	0,049	-0,114
-544,525	115,219	-0,033	0,030
-543,510	-200,000	0,038	0,125
-542,496	505,955	0,033	-0,056
-541,481	800,000	-0,103	-0,278
-540,466	-200,000	0,007	-0,075
-539,452	-88,520	0,075	0,016
-538,437	-139,023	0,177	-0,014
-537,423	800,000	-0,030	-0,065
-536,408	99,500	-0,060	-0,051
-535,393	-200,000	-0,023	-0,123
-534,379	-78,003	-0,135	-0,034
-533,364	-49,334	-0,098	0,034
-532,350	-104,941	0,100	0,017
-531,335	359,951	0,030	0,045
-530,321	257,150	-0,051	-0,064
-529,306	1,497	-0,094	-0,049
-528,291	-131,045	0,017	0,002
-527,277	-70,988	-0,018	-0,005
-526,262	368,118	-0,048	-0,070
-525,248	-200,000	-0,062	0,311
-524,233	800,000	-0,018	-0,053
-523,218	-0,883	-0,096	-0,050
-522,204	-200,000	0,036	0,169
-521,189	239,071	0,078	0,094
-520,175	2,201	-0,093	0,049
-519,160	579,418	-0,075	0,135
-518,145	61,932	0,106	0,077
-517,131	-200,000	0,010	0,124
-516,116	-92,099	-0,104	0,021
-515,102	-12,803	0,203	0,096
-514,087	107,993	-0,037	-0,032
-513,072	-200,000	0,028	0,093
-512,058	293,636	0,029	0,039
-511,043	685,515	0,067	0,129
-510,029	-173,650	-0,135	-0,003
-509,014	-200,000	0,003	0,116
-507,999	-200,000	0,011	0,131
-506,985	325,852	-0,091	-0,127
-505,970	-32,480	-0,098	0,040
-504,956	-31,033	-0,100	-0,041
-503,941	-58,267	-0,048	0,015
-502,926	-131,393	0,083	0,008
-501,912	172,191	-0,054	0,056
-500,897	800,000	0,042	0,105
-499,883	-200,000	-0,018	0,087
-498,868	118,971	0,126	0,114
-497,853	-71,170	-0,096	0,026
-496,839	-74,334	0,041	0,011
-495,824	-200,000	-0,042	0,146
-494,810	552,937	0,088	-0,154
-493,795	152,994	0,041	-0,041
-492,781	-200,000	-0,120	0,000
-491,766	-200,000	0,002	-0,128
-490,751	24,837	0,054	-0,032
-489,737	-120,593	0,040	0,005
-488,722	-200,000	-0,003	-0,045
-487,708	108,631	0,047	0,041
-486,693	130,570	-0,070	0,066
-485,678	-120,352	-0,134	0,016
-484,664	800,000	0,033	0,085
-483,649	186,541	-0,084	0,091
-482,635	-200,000	-0,004	-0,077
-481,620	-29,661	0,079	-0,033
-480,605	225,059	-0,088	0,104
-479,591	320,127	-0,054	0,075
-478,576	-179,276	0,070	0,001
-477,562	800,000	0,009	-0,024
-476,547	555,254	-0,128	0,225
-475,532	32,230	0,052	-0,033
-474,518	107,777	0,065	-0,057
-473,503	116,271	0,094	-0,084
-472,489	-149,835	0,029	0,002
-471,474	-200,000	0,004	0,093
-470,459	800,000	-0,028	-0,073
-469,445	4,170	0,046	-0,024
-468,430	-98,736	-0,143	0,026
-467,416	-200,000	0,043	0,176
-466,401	-46,937	0,087	0,031
-465,386	-55,566	-0,054	0,017
-464,372	-200,000	-0,031	0,140
-463,357	800,000	0,025	-0,055
-462,343	27,733	0,035	0,021
-461,328	268,980	-0,109	0,139
-460,313	-100,794	0,044	-0,008
-459,299	402,481	0,082	0,126
-458,284	39,898	-0,028	0,018
-457,270	-35,925	-0,018	-0,007
-456,255	-30,321	-0,141	-0,058
-455,241	-104,782	0,100	-0,017
-454,226	800,000	-0,048	-0,098
-453,211	-200,000	-0,001	-0,040
-452,197	800,000	-0,033	0,068
-451,182	119,373	-0,089	0,080
-450,168	558,671	0,064	0,113
-449,153	-31,838	-0,017	0,007
-448,138	-200,000	0,008	0,028
-447,124	-150,589	-0,179	0,010
-446,109	210,840	0,074	-0,085
-445,095	-50,336	0,149	0,051
-444,080	460,019	0,082	0,133
-443,065	-200,000	-0,009	0,092
-442,051	800,000	0,007	0,021
-441,036	262,011	-0,038	0,048
-440,022	148,937	0,042	0,041
-439,007	91,891	0,075	0,062
-437,992	-200,000	0,009	-0,124
-436,978	346,994	-0,024	-0,034
-435,963	-110,601	-0,040	-0,006
-434,949	372,282	-0,067	-0,099
-433,934	-200,000	-0,028	-0,106
-432,919	281,335	0,079	-0,104
-431,905	128,949	0,008	-0,008
-430,890	13,237	0,081	-0,046
-429,876	-200,000	-0,042	0,158
-428,861	-190,009	0,128	0,001
-427,846	15,828	-0,072	-0,041
-426,832	-105,685	0,097	-0,016
-425,817	567,878	-0,053	-0,093
-424,803	-117,233	-0,041	0,005
-423,788	-200,000	-0,016	-0,068
-422,773	-121,152	0,104	0,012
-421,759	-42,621	-0,122	-0,045
-420,744	-200,000	0,012	0,061
-419,730	-59,639	-0,183	-0,057
-418,715	420,288	-0,014	-0,022
-417,701	166,846	-0,023	0,024
-416,686	-200,000	0,024	0,101
-415,671	-51,329	0,186	0,063
-414,657	255,344	0,082	0,102
-413,642	800,000	-0,013	0,039
-412,628	-123,683	0,011	0,001
-411,613	73,701	-0,083	-0,063
-410,598	-46,975	0,151	0,053
-409,584	350,386	0,050	-0,072
-408,569	132,829	-0,025	0,024
-407,555	689,678	-0,022	0,042
-406,540	-200,000	-0,009	-0,072
-405,525	75,874	0,033	-0,025
-404,511	44,398	-0,033	0,022
-403,496	19,135	-0,173	0,100
-402,482	-38,196	0,095	-0,036
-401,467	-200,000	0,003	-0,036
-400,452	489,344	-0,052	0,086
-399,438	-200,000	-0,008	-0,116
-398,423	-147,515	-0,171	0,010
-397,409	-166,663	0,018	-0,001
-396,394	18,744	0,035	-0,020
-395,379	-107,613	0,068	0,011
-394,365	-200,000	-0,012	0,048
-393,350	-200,000	-0,031	0,186
-392,336	54,443	0,113	0,079
-391,321	-70,996	0,059	0,016
-390,306	-200,000	-0,041	-0,203
-389,292	-200,000	0,026	-0,155
-388,277	373,656	0,094	-0,139
-387,263	10,542	0,069	0,038
-386,248	138,519	0,019	0,019
-385,233	-200,000	-0,011	-0,176
-384,219	-166,492	-0,129	0,004
-383,204	736,960	0,077	-0,151
-382,190	-200,000	-0,029	-0,096
-381,175	171,245	0,066	-0,069
-380,160	-200,000	-0,016	-0,070
-379,146	-41,783	0,166	-0,062
-378,131	800,000	-0,008	0,023
-377,117	-18,915	-0,063	0,028
-376,102	-86,316	0,063	-0,014
-375,088	599,142	-0,056	-0,102
-374,073	10,452	0,045	-0,025
-373,058	102,545	-0,055	-0,047
-372,044	-200,000	-0,002	0,012
-371,029	458,014	0,071	-0,114
-370,015	-112,228	-0,142	-0,020
-369,000	800,000	0,021	0,068
-367,985	-3,381	-0,167	-0,084
-366,971	-200,000	0,004	-0,057
-365,956	289,594	0,055	-0,073
-364,942	800,000	0,030	-0,084
-363,927	40,962	-0,048	0,031
-362,912	800,000	0,017	0,039
-361,898	-200,000	0,009	-0,065
-360,883	800,000	-0,070	-0,191
-359,869	-200,000	-0,007	-0,049
-358,854	-27,430	0,080	-0,033
-357,839	74,546	-0,049	-0,037
-356,825	18,693	-0,064	0,037
-355,810	-200,000	-0,029	-0,122
-354,796	800,000	-0,062	-0,181
-353,781	91,907	-0,087	-0,071
-352,766	498,199	0,050	-0,083
-351,752	-200,000	-0,012	0,062
-350,737	211,270	0,061	-0,069
-349,723	-89,620	-0,114	-0,024
-348,708	103,707	0,089	-0,076
-347,693	323,432	-0,039	-0,055
-346,679	-79,459	-0,106	0,026
-345,664	137,312	-0,114	-0,108
-344,650	-200,000	-0,012	0,049
-343,635	20,108	-0,056	0,033
-342,620	800,000	0,059	0,139
-341,606	800,000	-0,003	0,007
-340,591	-63,099	-0,132	-0,039
-339,577	343,597	0,110	-0,157
-338,562	-200,000	-0,065	-0,232
-337,548	-13,038	0,098	0,046
-336,533	-200,000	0,055	0,194
-335,518	-147,279	0,212	-0,013
-334,504	-48,271	-0,120	0,042
-333,489	47,457	-0,092	-0,062
-332,475	-104,037	0,153	0,026
-331,460	800,000	-0,038	-0,110
-330,445	-85,736	-0,017	0,004
-329,431	-104,203	-0,085	0,014
-328,416	-87,823	0,062	0,013
-327,402	-100,039	0,098	0,017
-326,387	-200,000	-0,004	-0,034
-325,372	457,609	-0,044	-0,071
-324,358	-200,000	-0,027	-0,122
-323,343	-120,632	0,164	0,020
-322,329	699,946	0,004	0,007
-321,314	-52,262	0,073	-0,024
-320,299	56,524	0,132	0,093
-319,285	226,914	-0,061	-0,071
-318,270	-200,000	-0,009	-0,043
-317,256	-71,133	0,036	-0,010
-316,241	117,374	-0,038	0,034
-315,226	13,761	-0,048	-0,027
-314,212	177,420	0,074	0,078
-313,197	213,888	0,059	0,067
-312,183	-200,000	-0,038	0,196
-311,168	748,193	-0,064	-0,125
-310,153	-174,037	-0,119	-0,002
-309,139	-15,493	-0,055	-0,025
-308,124	200,514	-0,068	0,075
-307,110	20,114	0,066	0,038
-306,095	697,849	0,023	0,043
-305,080	-35,189	-0,068	-0,027
-304,066	-120,159	-0,139	-0,017
-303,051	-200,000	-0,018	-0,157
-302,037	-92,587	0,031	-0,006
-301,022	-200,000	0,004	0,096
-300,008	235,164	0,035	0,042
-298,993	303,743	0,066	-0,088
-297,978	-200,000	-0,009	0,115
-296,964	-200,000	0,003	-0,021
-295,949	119,819	-0,038	0,034
-294,935	416,541	-0,058	-0,090
-293,920	-9,699	-0,118	0,056
-292,905	-86,195	0,194	0,043
-291,891	-200,000	0,008	-0,112
-290,876	-30,100	-0,065	0,027
-289,862	800,000	0,054	-0,119
-288,847	-200,000	0,014	-0,052
-287,832	771,293	-0,020	-0,040
-286,818	-200,000	0,010	0,043
-285,803	205,420	-0,060	-0,068
-284,789	-191,313	0,202	0,001
-283,774	-48,247	0,024	-0,008
-282,759	359,900	0,063	0,092
-281,745	71,495	0,055	-0,041
-280,730	613,469	-0,086	-0,155
-279,716	702,768	-0,030	0,058
-278,701	104,679	0,029	0,025
-277,686	-92,216	-0,103	-0,021
-276,672	-200,000	-0,001	0,067
-275,657	-200,000	0,026	0,164
-274,643	44,087	0,082	-0,054
-273,628	-200,000	-0,014	-0,075
-272,613	-128,344	0,041	0,004
-271,599	800,000	0,019	0,051
-270,584	-43,748	0,143	0,052
-269,570	-200,000	-0,006	-0,028
-268,555	30,930	-0,075	-0,046
-267,540	361,397	-0,046	0,066
-266,526	321,176	-0,012	-0,017
-265,511	-78,310	-0,073	-0,018
-264,497	-200,000	-0,010	-0,186
-263,482	70,261	0,087	-0,065
-262,467	-8,116	-0,096	0,047
-261,453	49,928	0,095	0,064
-260,438	800,000	0,022	-0,067
-259,424	242,965	0,026	-0,032
-258,409	800,000	0,030	-0,066
-257,395	800,000	-0,042	0,105
-256,380	469,166	0,059	0,097
-255,365	354,666	-0,052	0,075
-254,351	-200,000	0,037	-0,150
-253,336	-15,410	-0,119	0,055
-252,322	118,549	-0,099	-0,088
-251,307	800,000	-0,039	-0,089
-250,292	800,000	-0,072	0,149
-249,278	-77,264	0,149	0,037
-248,263	-200,000	-0,026	0,108
-247,249	103,311	-0,013	0,011
-246,234	-141,475	0,054	-0,004
-245,219	77,111	-0,052	0,040
-244,205	395,825	0,059	0,089
-243,190	86,336	0,088	0,070
-242,176	24,081	-0,065	0,038
-241,161	800,000	-0,038	0,118
-240,146	304,219	0,066	0,088
-239,132	800,000	0,059	0,181
-238,117	-39,184	-0,086	-0,033
-237,103	76,159	0,013	0,010
-236,088	-200,000	0,000	0,104
-235,073	-200,000	-0,029	0,136
-234,059	262,343	-0,032	0,040
-233,044	-87,090	0,109	-0,024
-232,030	7,102	0,021	0,011
-231,015	-200,000	-0,001	-0,132
-230,000	85,679	-0,055	0,043
-228,986	92,020	-0,076	-0,062
-227,971	-32,319	-0,045	-0,018
-226,957	-89,137	0,134	0,028
-225,942	-200,000	0,001	0,019
-224,927	-80,464	-0,033	-0,008
-223,913	312,418	-0,016	-0,022
-222,898	-200,000	-0,038	-0,137
-221,884	800,000	0,020	-0,053
-220,869	-91,216	0,034	0,007
-219,855	247,927	0,068	0,083
-218,840	-166,723	-0,056	0,002
-217,825	800,000	-0,027	0,066
-216,811	54,155	-0,114	-0,079
-215,796	153,314	-0,080	0,079
-214,782	-200,000	0,032	-0,115
-213,767	800,000	-0,047	0,140
-212,752	-25,333	0,034	0,015
-211,738	-200,000	0,002	0,049
-210,723	0,294	0,126	-0,065
-209,709	30,353	-0,111	-0,068
-208,694	800,000	-0,026	-0,074
-207,679	-130,557	-0,044	0,004
-206,665	41,530	-0,085	-0,055
-205,650	-117,144	0,099	0,013
-204,636	116,570	-0,082	0,072
-203,621	-24,093	-0,123	0,053
-202,606	191,549	0,069	-0,075
-201,592	291,251	-0,059	0,077
-200,577	-44,090	0,092	0,033
-199,563	800,000	-0,040	-0,087
-198,548	-101,688	0,151	0,026
-197,533	800,000	0,029	-0,076
-196,519	-200,000	0,002	0,058
-195,504	334,924	-0,154	-0,215
-194,490	800,000	0,044	-0,110
-193,475	-5,185	0,059	0,029
-192,460	-105,270	0,028	-0,005
-191,446	-200,000	0,021	-0,096
-190,431	-200,000	0,002	0,049
-189,417	-200,000	0,013	0,043
-188,402	117,370	0,053	0,047
-187,387	-3,878	-0,067	-0,033
-186,373	113,652	-0,109	-0,095
-185,358	-200,000	0,003	-0,076
-184,344	-139,329	-0,048	0,004
-183,329	66,080	0,036	0,026
-182,315	800,000	-0,063	0,128
-181,300	800,000	-0,069	0,172
-180,285	-200,000	-0,022	0,086
-179,271	143,234	-0,065	-0,062
-178,256	-200,000	0,023	0,093
-177,242	35,861	0,059	0,037
-176,227	-200,000	-0,006	0,045
-175,212	-200,000	0,032	-0,104
-174,198	800,000	-0,063	-0,135
-173,183	71,738	-0,183	0,136
-172,169	163,917	-0,038	0,038
-171,154	525,493	-0,009	-0,016
-170,139	-160,496	-0,031	-0,001
-169,125	-163,027	0,071	0,002
-168,110	-67,103	0,097	0,027
-167,096	50,776	0,055	0,037
-166,081	-71,350	0,003	0,001
-165,066	-98,653	0,049	-0,009
-164,052	800,000	0,023	-0,069
-163,037	-200,000	0,009	-0,042
-162,023	-19,063	0,044	0,020
-161,008	61,965	0,032	0,023
-159,993	149,895	-0,047	-0,045
-158,979	14,390	-0,020	-0,011
-157,964	-200,000	-0,019	-0,135
-156,950	-200,000	-0,034	0,125
-155,935	37,895	0,070	-0,045
-154,920	800,000	0,010	0,022
-153,906	800,000	0,071	0,196
-152,891	-172,755	0,031	0,001
-151,877	-200,000	0,007	-0,067
-150,862	64,978	-0,081	0,059
-149,847	288,064	-0,031	-0,040
-148,833	116,947	0,081	-0,072
-147,818	346,865	-0,040	-0,057
-146,804	-200,000	-0,007	0,065
-145,789	800,000	-0,007	-0,017
-144,775	-200,000	-0,037	-0,164
-143,760	-87,286	0,122	-0,026
-142,745	561,947	0,019	-0,033
-141,731	-88,127	-0,156	0,033
-140,716	-200,000	-0,003	0,133
-139,702	-200,000	0,005	0,097
-138,687	152,202	-0,111	0,109
-137,672	800,000	0,041	0,093
-136,658	-200,000	0,023	-0,213
-135,643	211,984	-0,058	-0,066
-134,629	159,991	-0,085	0,085
-133,614	-94,320	0,030	0,006
-132,599	36,094	-0,063	-0,040
-131,585	-96,090	0,101	0,019
-130,570	-200,000	-0,002	-0,049
-129,556	32,067	-0,126	-0,078
-128,541	-200,000	0,004	-0,059
-127,526	-101,958	-0,142	-0,024
-126,512	148,411	0,096	0,093
-125,497	-200,000	0,020	0,069
-124,483	20,406	0,079	0,046
-123,468	313,811	0,085	0,115
-122,453	-13,065	-0,043	-0,020
-121,439	171,133	-0,055	-0,056
-120,424	83,581	-0,041	0,032
-119,410	160,054	0,058	0,058
-118,395	222,671	-0,010	-0,012
-117,380	800,000	-0,051	0,143
-116,366	-47,508	0,118	-0,041
-115,351	-46,913	-0,058	-0,020
-114,337	299,029	0,038	-0,051
-113,322	-200,000	-0,014	-0,062
-112,307	650,159	0,032	0,060
-111,293	-169,180	0,115	-0,003
-110,278	168,482	-0,007	-0,007
-109,264	-200,000	0,009	0,045
-108,249	202,758	-0,095	0,105
-107,234	-135,955	-0,093	-0,008
-106,220	-174,660	0,105	0,002
-105,205	124,353	-0,028	0,025
-104,191	-37,486	0,042	0,016
-103,176	800,000	0,057	-0,127
-102,162	-9,127	-0,129	0,062
-101,147	-14,785	0,062	0,028
-100,132	-200,000	0,018	0,242
-99,118	21,870	-0,042	0,024
-98,103	-200,000	0,021	-0,083
-97,089	100,551	0,020	-0,017
-96,074	-197,415	0,208	0,001
-95,059	-200,000	0,016	-0,089
-94,045	292,135	-0,065	-0,085
-93,030	-126,215	-0,139	0,015
-92,016	-121,524	0,058	-0,007
-91,001	-200,000	0,005	0,027
-89,986	230,765	0,046	-0,054
-88,972	797,655	-0,075	0,149
-87,957	-35,065	0,023	0,009
-86,943	38,030	0,114	0,072
-85,928	-39,883	-0,011	-0,004
-84,913	-200,000	-0,023	-0,177
-83,899	-24,684	-0,051	-0,022
-82,884	394,471	0,074	0,111
-81,870	-154,697	0,132	0,006
-80,855	-200,000	-0,017	0,058
-79,840	800,000	-0,048	-0,118
-78,826	-143,588	-0,045	-0,003
-77,811	137,021	-0,101	0,094
-76,797	732,303	-0,051	-0,098
-75,782	-56,667	-0,196	0,062
-74,767	158,236	0,015	-0,014
-73,753	-196,065	-0,103	-0,001
-72,738	320,100	-0,059	-0,080
-71,724	800,000	0,052	-0,161
-70,709	800,000	0,032	-0,064
-69,694	228,908	-0,061	-0,071
-68,680	-200,000	-0,003	-0,067
-67,665	-200,000	-0,009	0,128
-66,651	-200,000	-0,003	0,134
-65,636	200,076	-0,036	-0,039
-64,622	13,262	-0,176	-0,097
-63,607	-99,277	-0,038	0,007
-62,592	746,030	0,054	-0,105
-61,578	800,000	-0,045	-0,142
-60,563	-49,009	0,037	-0,013
-59,549	-45,318	-0,086	0,030
-58,534	49,124	-2,142	-1,439
-57,519	-200,000	0,041	-0,503
-56,505	-200,000	-1,569	-5,053
-55,490	102,978	1,012	0,849
-54,476	800,000	5,371	12,198
-53,461	-200,000	18,888	320,764
-52,446	800,000	742,083	2324,373
-51,432	548,376	1654,763	2848,635
-50,417	109,586	1637,482	1404,483
-49,403	73,106	1287,898	962,780
-48,388	29,370	1029,632	624,872
-47,373	19,557	992,595	569,954
-46,359	16,836	980,060	553,799
-45,344	13,421	976,434	540,528
-44,330	13,706	974,840	540,556
-43,315	13,091	972,928	537,462
-42,300	13,013	971,963	536,652
-41,286	13,016	970,969	536,093
-40,271	13,027	970,116	535,637
-39,257	13,095	969,129	535,292
-38,242	13,051	968,355	534,699
-37,227	13,035	967,478	534,143
-36,213	13,015	966,602	533,571
-35,198	13,026	965,797	533,142
-34,184	13,151	964,720	532,932
-33,169	13,019	964,130	532,157
-32,154	13,066	963,048	531,691
-31,140	12,993	962,258	530,999
-30,125	13,066	961,511	530,800
-29,111	13,115	960,454	530,353
-28,096	13,139	959,690	529,988
-27,082	13,033	959,234	529,374
-26,067	13,063	958,438	529,011
-25,052	13,045	957,746	528,551
-24,038	13,059	957,134	528,235
-23,023	13,087	956,349	527,872
-22,009	13,105	955,778	527,592
-20,994	13,038	955,295	527,092
-19,979	13,089	954,495	526,791
-18,965	13,068	953,929	526,393
-17,950	13,060	953,438	526,075
-16,936	13,036	952,779	525,613
-15,921	13,074	952,008	525,289
-14,906	12,963	951,357	524,554
-13,892	13,002	950,565	524,220
-12,877	12,971	949,938	523,754
-11,863	12,912	949,500	523,303
-10,848	12,968	948,838	523,098
-9,833	13,076	948,343	523,148
-8,819	13,025	947,700	522,609
-7,804	12,934	946,980	521,900
-6,790	12,940	946,445	521,607
-5,775	13,000	945,762	521,400
-4,760	12,996	945,435	521,187
-3,746	12,988	944,606	520,683
-2,731	12,844	943,945	519,842
-1,717	12,753	943,441	519,254
-0,702	12,756	942,681	518,824
0,313	12,615	942,011	518,794
1,327	16,113	939,906	528,637
2,342	25,324	790,322	468,778
3,356	21,409	445,252	258,272
4,371	-7,593	298,807	144,026
5,386	-11,364	280,739	131,691
6,400	-12,576	275,044	127,869
7,415	-12,794	272,767	126,596
8,429	-12,898	271,150	125,737
9,444	-13,008	270,195	125,182
10,459	-13,008	269,692	124,937
11,473	-13,296	269,018	124,350
12,488	-13,189	268,508	124,201
13,502	-13,439	267,882	123,672
14,517	-13,337	267,391	123,527
15,531	-13,377	266,997	123,298
16,546	-13,176	266,624	123,298
17,561	-13,291	266,251	123,009
18,575	-13,154	265,773	122,902
19,590	-13,242	265,466	122,670
20,604	-13,182	265,211	122,595
21,619	-13,369	264,904	122,273
22,634	-13,279	264,348	122,086
23,648	-13,277	264,287	122,049
24,663	-13,392	263,957	121,783
25,677	-13,377	263,775	121,700
26,692	-13,432	263,510	121,518
27,707	-13,273	263,125	121,473
28,721	-13,453	262,971	121,230
29,736	-13,426	262,504	121,027
30,750	-13,508	262,393	120,892
31,765	-13,510	262,087	120,739
32,780	-13,418	261,920	120,733
33,794	-13,387	261,682	120,640
34,809	-13,589	261,371	120,306
35,823	-13,654	261,193	120,155
36,838	-13,391	260,852	120,222
37,853	-13,619	260,664	119,922
38,867	-13,482	260,444	119,931
39,882	-13,523	260,140	119,744
40,896	-13,628	259,999	119,576
41,911	-13,457	259,583	119,525
42,926	-13,588	259,410	119,319
43,940	-13,626	259,215	119,185
44,955	-13,683	258,871	118,966
45,969	-13,688	258,742	118,892
46,984	-14,001	258,474	118,483
47,999	-13,904	258,032	118,355
49,013	-14,282	257,829	117,918
50,028	-14,533	257,725	117,640
51,042	-14,446	257,425	117,569
52,057	-14,347	257,018	117,460
53,071	-14,573	256,974	117,231
54,086	-14,230	256,735	117,411
55,101	-14,065	256,619	117,492
56,115	-13,844	256,409	117,579
57,130	-13,459	256,251	117,831
58,144	-13,439	256,358	117,888
59,159	-13,339	255,938	117,771
60,174	-13,106	255,798	117,899
61,188	-13,210	255,483	117,653
62,203	-13,354	255,328	117,446
63,217	-13,394	255,055	117,275
64,232	-13,279	254,825	117,258
65,247	-13,377	254,715	117,113
66,261	-13,393	254,497	116,988
67,276	-13,568	254,223	116,700
68,290	-13,665	253,912	116,463
69,305	-13,761	253,726	116,285
70,320	-13,924	253,488	116,025
71,334	-13,494	253,207	116,257
72,349	-13,424	253,300	116,349
73,363	-13,297	253,118	116,364
74,378	-13,324	252,715	116,145
75,393	-13,316	252,557	116,069
76,407	-13,355	252,375	115,941
77,422	-13,542	252,175	115,679
78,436	-13,277	251,895	115,767
79,451	-13,256	251,617	115,647
80,466	-13,580	251,556	115,332
81,480	-13,610	251,195	115,130
82,495	-13,635	250,892	114,960
83,509	-13,561	250,791	114,967
84,524	-13,647	250,502	114,751
85,539	-13,801	250,380	114,554
86,553	-13,797	250,010	114,378
87,568	-13,722	249,888	114,375
88,582	-13,617	249,752	114,392
89,597	-13,703	249,511	114,199
90,611	-13,592	249,560	114,304
91,626	-13,392	249,269	114,330
92,641	-13,645	249,137	114,046
93,655	-13,564	248,871	113,982
94,670	-13,672	248,623	113,767
95,684	-13,685	248,442	113,663
96,699	-13,589	248,300	113,669
97,714	-13,706	248,088	113,463
98,728	-13,945	247,901	113,167
99,743	-13,882	247,506	113,029
100,757	-13,542	247,253	113,188
101,772	-13,894	247,371	112,937
102,787	-13,881	247,034	112,784
103,801	-13,731	246,848	112,815
104,816	-13,538	246,717	112,906
105,830	-13,317	246,619	113,036
106,845	-13,484	246,518	112,841
107,860	-13,456	246,260	112,736
108,874	-13,493	246,070	112,608
109,889	-13,524	245,811	112,454
110,903	-13,661	245,662	112,261
111,918	-13,710	245,335	112,061
112,933	-13,543	245,231	112,142
113,947	-13,596	245,153	112,053
114,962	-13,559	244,959	111,985
115,976	-13,633	244,811	111,846
116,991	-13,519	244,468	111,773
118,006	-13,486	244,274	111,702
119,020	-13,439	244,149	111,673
120,035	-13,150	244,106	111,883
121,049	-13,393	243,965	111,607
122,064	-13,383	243,609	111,443
123,079	-13,515	243,520	111,283
124,093	-13,568	243,155	111,063
125,108	-13,824	243,003	110,773
126,122	-14,001	242,985	110,610
127,137	-13,969	242,633	110,466
128,151	-13,722	242,312	110,513
129,166	-13,650	242,231	110,524
130,181	-13,875	242,090	110,266
131,195	-13,828	241,965	110,237
132,210	-13,840	241,900	110,189
133,224	-13,528	241,597	110,296
134,239	-13,523	241,413	110,206
135,254	-13,505	241,320	110,168
136,268	-13,539	240,937	109,956
137,283	-14,046	240,851	109,495
138,297	-14,038	240,599	109,376
139,312	-14,086	240,333	109,206
140,327	-13,493	240,238	109,635
141,341	-13,130	240,294	109,946
142,356	-13,295	240,158	109,739
143,370	-12,898	240,061	110,008
144,385	-12,927	239,838	109,872
145,400	-12,985	239,622	109,717
146,414	-13,085	239,434	109,540
147,429	-13,002	239,205	109,492
148,443	-13,099	239,038	109,328
149,458	-13,022	238,675	109,214
150,473	-13,003	238,564	109,169
151,487	-13,154	238,379	108,953
152,502	-13,227	238,389	108,889
153,516	-13,259	238,158	108,748
154,531	-13,269	238,005	108,660
155,546	-13,262	237,802	108,563
156,560	-13,209	237,611	108,509
157,575	-13,456	237,461	108,233
158,589	-13,255	237,081	108,211
159,604	-13,004	237,078	108,401
160,619	-12,960	237,029	108,404
161,633	-13,111	236,819	108,177
162,648	-13,176	236,768	108,093
163,662	-13,173	236,482	107,955
164,677	-13,285	236,242	107,747
165,692	-13,111	236,137	107,828
166,706	-13,028	236,171	107,900
167,721	-13,057	235,942	107,762
168,735	-13,053	235,887	107,731
169,750	-13,137	235,654	107,548
170,764	-13,014	235,422	107,530
171,779	-13,127	235,311	107,381
172,794	-12,846	235,129	107,511
173,808	-13,021	234,934	107,273
174,823	-13,650	234,509	106,572
175,837	-13,765	234,300	106,377
176,852	-13,437	234,492	106,714
177,867	-12,915	234,194	106,980
178,881	-12,992	234,170	106,899
179,896	-13,021	234,076	106,824
180,910	-12,901	233,813	106,788
181,925	-13,018	233,754	106,660
182,940	-12,902	233,520	106,635
183,954	-12,894	233,301	106,532
184,969	-12,886	233,258	106,509
185,983	-12,749	233,065	106,519
186,998	-12,820	233,077	106,459
188,013	-12,896	232,871	106,296
189,027	-12,882	232,673	106,207
190,042	-12,716	232,318	106,165
191,056	-12,777	232,309	106,104
192,071	-12,821	232,160	105,992
193,086	-12,657	231,803	105,948
194,100	-12,548	231,775	106,010
195,115	-12,780	231,448	105,671
196,129	-12,091	231,739	106,331
197,144	-6,363	233,742	111,735
198,159	-0,830	235,502	116,928
199,173	2,717	236,275	120,099
200,188	2,821	236,322	120,194
201,202	2,990	236,220	120,264
202,217	3,207	236,027	120,326
203,232	3,269	236,030	120,366
204,246	3,258	235,802	120,230
205,261	3,505	235,614	120,318
206,275	3,804	235,516	120,491
207,290	3,303	235,505	120,082
208,304	3,571	235,125	120,087
209,319	3,571	235,021	120,023
210,334	3,214	234,895	119,669
211,348	3,244	234,629	119,547
212,363	2,945	234,397	119,184
213,377	2,683	234,151	118,844
214,392	2,762	233,896	118,765
215,407	2,896	233,942	118,882
216,421	2,829	233,732	118,713
217,436	2,914	233,490	118,646
218,450	2,501	233,475	118,307
219,465	2,480	233,246	118,164
220,480	2,528	233,062	118,097
221,494	2,563	232,854	118,009
222,509	2,947	232,875	118,306
223,523	3,219	232,640	118,387
224,538	2,842	232,524	118,026
225,553	2,774	232,274	117,835
226,567	3,001	232,154	117,939
227,582	3,056	232,132	117,960
228,596	3,271	232,041	118,069
229,611	3,024	231,714	117,702
230,626	2,469	231,560	117,186
231,640	2,620	231,414	117,218
232,655	2,997	231,453	117,517
233,669	3,249	231,286	117,616
234,684	3,428	231,093	117,644
235,699	3,210	231,024	117,432
236,713	2,773	230,815	116,980
237,728	2,599	230,648	116,751
238,742	2,504	230,276	116,480
239,757	2,799	230,279	116,697
240,772	2,626	230,073	116,450
241,786	2,702	229,969	116,445
242,801	2,934	229,876	116,564
243,815	3,247	229,792	116,750
244,830	3,166	229,657	116,610
245,844	2,755	229,274	116,092
246,859	2,811	229,305	116,139
247,874	3,106	229,082	116,240
248,888	3,094	228,972	116,166
249,903	2,869	228,743	115,868
250,917	2,785	228,576	115,709
251,932	2,921	228,480	115,753
252,947	2,741	228,259	115,495
253,961	2,715	228,166	115,418
254,976	2,758	228,006	115,359
255,990	3,022	227,839	115,464
257,005	2,996	227,759	115,393
258,020	2,924	227,649	115,273
259,034	2,910	227,545	115,199
260,049	3,016	227,316	115,154
261,063	2,828	227,225	114,955
262,078	3,035	227,159	115,067
263,093	3,135	226,944	115,024
264,107	3,028	226,907	114,914
265,122	3,269	226,570	114,914
266,136	3,025	226,751	114,812
267,151	3,177	226,426	114,752
268,166	2,828	226,139	114,335
269,180	2,641	225,914	114,070
270,195	2,587	225,810	113,967
271,209	2,635	225,662	113,918
272,224	2,864	225,482	113,989
273,239	2,743	225,452	113,873
274,253	2,740	225,170	113,718
275,268	2,594	225,118	113,573
276,282	2,430	224,962	113,361
277,297	2,611	224,755	113,382
278,312	2,697	224,624	113,370
279,326	2,697	224,577	113,336
280,341	2,878	224,456	113,399
281,355	2,911	224,234	113,302
282,370	2,966	223,998	113,213
283,384	2,418	223,846	112,720
284,399	2,441	223,736	112,672
285,414	2,563	223,576	112,672
286,428	2,739	223,580	112,793
287,443	2,928	223,396	112,830
288,457	3,161	223,169	112,877
289,472	2,740	222,995	112,469
290,487	2,523	222,812	112,206
291,501	2,253	222,476	111,829
292,516	2,143	222,620	111,810
293,530	2,477	222,341	111,905
294,545	2,549	222,266	111,911
295,560	2,505	222,273	111,872
296,574	2,796	222,145	112,011
297,589	2,693	221,842	111,773
298,603	2,952	221,672	111,867
299,618	2,839	221,579	111,728
300,633	3,066	221,448	111,817
301,647	3,223	221,507	111,952
302,662	3,083	221,303	111,736
303,676	3,207	221,215	111,773
304,691	3,256	220,941	111,660
305,706	3,202	220,842	111,561
306,720	3,222	220,823	111,556
307,735	2,807	220,421	111,041
308,749	2,617	220,466	110,915
309,764	2,878	220,277	111,001
310,779	2,956	220,102	110,959
311,793	2,971	220,066	110,941
312,808	3,002	219,830	110,835
313,822	2,756	219,726	110,594
314,837	2,801	219,513	110,510
315,852	2,690	219,373	110,349
316,866	2,926	219,280	110,464
317,881	3,121	219,107	110,508
318,895	3,108	218,931	110,400
319,910	2,804	218,752	110,080
320,925	2,547	218,609	109,813
321,939	2,323	218,515	109,595
322,954	2,494	218,375	109,638
323,968	2,692	218,334	109,750
324,983	2,932	218,115	109,802
325,997	2,981	218,035	109,788
327,012	2,698	217,988	109,551
328,027	2,825	217,825	109,551
329,041	3,472	217,709	109,947
330,056	3,147	217,668	109,683
331,070	2,885	217,340	109,320
332,085	2,704	217,258	109,139
333,100	2,717	216,894	108,957
334,114	2,477	216,896	108,776
335,129	2,910	216,748	109,001
336,143	2,902	216,633	108,928
337,158	3,053	216,540	108,979
338,173	3,025	216,324	108,841
339,187	2,765	216,303	108,635
340,202	2,746	215,979	108,449
341,216	2,504	215,939	108,248
342,231	2,714	215,765	108,300
343,246	2,591	215,757	108,199
344,260	2,771	215,569	108,223
345,275	2,886	215,505	108,262
346,289	3,063	215,189	108,220
347,304	2,971	215,218	108,160
348,319	2,767	215,072	107,932
349,333	2,828	214,875	107,867
350,348	2,766	214,711	107,731
351,362	3,197	214,722	108,031
352,377	3,049	214,583	107,847
353,392	2,854	214,285	107,551
354,406	2,776	214,306	107,496
355,421	197,962	1313,486	1394,022
356,435	158,449	1447,343	1393,951
