DTS Sentinel unit serial number:	SN410029Multiplexer serial number:	ORYXHardware model number:	OX2-SRSoftware version number:	ORYX F/W v4,00 Oryx Data Collector v3.7.2.0data status	okinstallation	B6 Nyhavnadifferential loss correction	single-endedforward channel	channel 2reverse channel	N/Adate	2023/12/08time	22:05:08forward acquisition time	300,00reverse acquisition time	0,00gamma	499,1914k internal	0,3158k external	0,3158temperature offset calibration	1,0000default loss term (dB/km)	0,3820temperature slope calibration	1,0000multiplexer offset coefficient	1,0000multiplexer slope coefficient	1,0000fibre end	0,00T internal ref (°C)	15,27T ext. ref 1 (°C)	-1,19T ext. ref 2 (°C)	-1,20length (m)	temperature (°C)	Stokes	anti-Stokes-744,400	325,108	0,117	0,166
-743,385	-85,757	-0,305	0,069
-742,371	82,934	0,190	0,152
-741,356	-80,524	-0,307	0,075
-740,342	121,729	0,118	-0,108
-739,327	-156,074	-0,392	-0,018
-738,312	260,849	0,142	0,182
-737,298	-70,105	-0,257	-0,072
-736,283	800,000	-0,028	0,072
-735,269	99,817	-0,169	0,144
-734,254	35,654	0,064	-0,041
-733,239	-18,530	-0,469	-0,215
-732,225	275,238	0,180	0,236
-731,210	254,404	0,075	0,094
-730,196	-200,000	0,002	-0,081
-729,181	800,000	0,016	-0,042
-728,167	274,056	0,043	0,057
-727,152	597,846	-0,057	0,105
-726,137	-123,656	-0,054	0,006
-725,123	800,000	-0,111	-0,229
-724,108	800,000	-0,063	-0,159
-723,094	683,597	0,038	-0,074
-722,079	-200,000	-0,017	-0,058
-721,064	97,008	0,113	-0,095
-720,050	66,940	-0,072	0,054
-719,035	-105,386	-0,038	-0,006
-718,021	-200,000	0,011	0,146
-717,006	800,000	-0,032	0,075
-715,991	45,073	-0,147	-0,100
-714,977	43,430	-0,058	-0,039
-713,962	626,587	-0,053	-0,099
-712,948	89,951	-0,034	0,028
-711,933	268,679	-0,052	0,068
-710,918	800,000	0,013	0,030
-709,904	45,661	-0,129	-0,088
-708,889	-200,000	-0,006	0,106
-707,875	-86,567	-0,067	-0,015
-706,860	-22,304	0,162	0,072
-705,845	-200,000	-0,001	0,079
-704,831	285,925	0,037	0,050
-703,816	134,910	0,092	-0,088
-702,802	-9,744	-0,211	-0,103
-701,787	-200,000	0,013	-0,189
-700,772	342,099	-0,079	-0,115
-699,758	20,662	-0,022	-0,013
-698,743	-200,000	-0,008	-0,033
-697,729	6,975	0,035	0,019
-696,714	-56,545	0,183	0,059
-695,699	-51,991	-0,119	-0,040
-694,685	-200,000	0,003	-0,156
-693,670	107,864	-0,137	-0,120
-692,656	-87,456	0,052	0,011
-691,641	800,000	-0,053	0,146
-690,627	595,778	0,035	-0,064
-689,612	-88,488	-0,086	0,019
-688,597	-200,000	-0,009	0,088
-687,583	435,233	-0,016	-0,026
-686,568	-53,172	0,074	-0,025
-685,554	-200,000	0,012	-0,076
-684,539	78,577	-0,133	-0,104
-683,524	18,663	0,018	0,011
-682,510	107,819	-0,069	0,060
-681,495	800,000	0,009	0,024
-680,481	-178,528	0,095	0,002
-679,466	-200,000	0,012	-0,064
-678,451	800,000	0,071	0,181
-677,437	800,000	0,057	-0,141
-676,422	-130,719	0,099	-0,010
-675,408	-200,000	0,015	-0,052
-674,393	-143,488	-0,104	-0,007
-673,378	-125,479	-0,046	-0,005
-672,364	279,407	-0,124	-0,163
-671,349	56,239	-0,090	-0,064
-670,335	-200,000	-0,007	0,117
-669,320	-200,000	-0,016	0,082
-668,305	-54,170	-0,138	-0,046
-667,291	-65,089	-0,087	0,026
-666,276	336,356	0,047	-0,068
-665,262	53,927	-0,069	-0,048
-664,247	-129,248	0,107	-0,011
-663,232	-200,000	-0,026	0,134
-662,218	-140,995	-0,124	-0,009
-661,203	82,563	0,041	0,033
-660,189	223,404	-0,060	0,071
-659,174	363,084	-0,022	0,033
-658,159	-200,000	-0,028	0,144
-657,145	267,593	-0,088	-0,113
-656,130	-200,000	-0,040	-0,162
-655,116	-200,000	0,011	0,087
-654,101	-200,000	-0,010	0,100
-653,086	-20,087	-0,152	0,069
-652,072	-93,138	-0,017	-0,003
-651,057	7,985	-0,087	0,048
-650,043	-23,709	-0,030	-0,013
-649,028	-104,965	-0,160	0,027
-648,014	-200,000	0,006	-0,128
-646,999	800,000	0,033	-0,093
-645,984	149,689	-0,059	0,059
-644,970	117,820	-0,133	-0,120
-643,955	-200,000	0,032	-0,107
-642,941	304,811	-0,116	-0,159
-641,926	-7,631	-0,068	0,034
-640,911	-0,314	0,130	-0,068
-639,897	314,969	0,056	0,077
-638,882	-172,058	0,050	-0,001
-637,868	-9,988	-0,074	0,036
-636,853	159,122	-0,038	-0,039
-635,838	-200,000	-0,011	-0,131
-634,824	41,793	-0,048	-0,032
-633,809	31,171	0,041	-0,026
-632,795	-200,000	-0,034	-0,109
-631,780	-72,440	-0,080	-0,022
-630,765	-37,975	0,053	0,020
-629,751	-104,775	-0,109	0,018
-628,736	47,369	0,033	-0,023
-627,722	-200,000	-0,020	-0,148
-626,707	224,064	-0,065	-0,078
-625,692	-105,525	0,131	-0,022
-624,678	800,000	-0,027	0,076
-623,663	-4,318	-0,131	0,066
-622,649	-14,190	0,183	-0,086
-621,634	-89,695	-0,154	0,033
-620,619	90,454	0,024	-0,019
-619,605	-200,000	0,044	0,164
-618,590	-141,891	-0,078	0,006
-617,576	6,676	0,056	0,031
-616,561	-200,000	0,003	0,037
-615,546	-119,105	-0,222	-0,028
-614,532	108,826	-0,029	0,025
-613,517	-56,901	-0,149	0,048
-612,503	-19,960	-0,037	-0,017
-611,488	373,449	0,120	0,179
-610,474	279,503	-0,013	-0,017
-609,459	150,988	-0,028	-0,028
-608,444	36,966	-0,096	-0,062
-607,430	481,762	0,035	-0,059
-606,415	16,215	-0,060	0,035
-605,401	111,003	0,164	0,145
-604,386	-135,541	0,150	0,013
-603,371	-200,000	-0,012	0,076
-602,357	-200,000	-0,024	0,082
-601,342	-128,029	-0,076	-0,008
-600,328	-100,632	-0,085	-0,015
-599,313	-200,000	-0,007	-0,043
-598,298	800,000	-0,021	0,051
-597,284	148,333	-0,072	-0,071
-596,269	-200,000	0,022	0,118
-595,255	-107,525	0,034	-0,005
-594,240	-151,457	-0,129	-0,007
-593,225	641,768	0,029	-0,055
-592,211	-111,821	-0,055	0,008
-591,196	-40,959	0,068	-0,026
-590,182	344,644	0,033	0,047
-589,167	800,000	-0,036	-0,097
-588,152	-118,016	-0,059	0,008
-587,138	43,032	-0,097	-0,065
-586,123	-200,000	-0,003	-0,021
-585,109	-200,000	0,009	-0,082
-584,094	625,868	0,064	0,119
-583,079	25,602	-0,019	0,012
-582,065	-200,000	0,007	0,045
-581,050	-102,087	0,085	-0,015
-580,036	254,687	0,066	-0,083
-579,021	72,388	-0,063	-0,048
-578,006	48,520	-0,144	-0,099
-576,992	182,196	-0,136	-0,147
-575,977	12,878	-0,041	0,023
-574,963	-200,000	0,004	-0,059
-573,948	-200,000	0,029	-0,189
-572,934	-27,337	0,148	-0,063
-571,919	246,506	-0,053	-0,066
-570,904	122,436	-0,146	-0,134
-569,890	129,368	-0,059	-0,055
-568,875	222,793	0,099	0,117
-567,861	800,000	0,015	0,041
-566,846	-152,268	0,132	0,007
-565,831	323,913	0,028	-0,039
-564,817	-112,800	0,100	-0,014
-563,802	800,000	-0,017	-0,037
-562,788	-102,763	0,074	0,013
-561,773	770,320	-0,028	0,056
-560,758	-94,116	-0,056	-0,011
-559,744	800,000	-0,014	-0,035
-558,729	-200,000	-0,012	0,067
-557,715	296,710	-0,042	-0,056
-556,700	-103,436	-0,077	0,013
-555,685	-200,000	-0,009	0,166
-554,671	-141,235	0,179	0,013
-553,656	-200,000	0,008	0,051
-552,642	-56,691	-0,117	0,038
-551,627	547,998	0,025	0,044
-550,612	493,909	0,076	0,129
-549,598	99,571	-0,091	-0,077
-548,583	526,821	0,034	-0,059
-547,569	451,442	0,054	-0,087
-546,554	-43,233	0,113	0,042
-545,539	800,000	0,023	0,052
-544,525	-49,685	-0,086	-0,030
-543,510	-30,570	0,069	-0,029
-542,496	198,315	0,026	0,029
-541,481	800,000	-0,006	-0,013
-540,466	-57,047	-0,050	-0,016
-539,452	-142,959	0,082	0,006
-538,437	-200,000	-0,008	0,027
-537,423	800,000	0,041	-0,115
-536,408	-200,000	0,001	-0,158
-535,393	800,000	-0,015	-0,048
-534,379	-17,444	-0,040	0,018
-533,364	281,612	-0,078	-0,103
-532,350	-105,903	0,066	-0,011
-531,335	119,226	0,143	0,129
-530,321	-173,200	0,057	0,001
-529,306	6,302	-0,058	-0,032
-528,291	800,000	0,044	0,096
-527,277	-200,000	-0,025	0,137
-526,262	43,204	-0,045	-0,030
-525,248	250,251	0,079	0,098
-524,233	326,018	0,047	-0,066
-523,218	800,000	0,029	0,078
-522,204	107,808	0,043	-0,038
-521,189	-69,618	-0,075	0,021
-520,175	-76,827	0,038	0,010
-519,160	325,044	-0,041	-0,058
-518,145	-120,241	0,087	-0,011
-517,131	94,076	0,055	0,046
-516,116	800,000	0,018	-0,043
-515,102	-25,480	0,052	0,022
-514,087	50,759	0,038	0,026
-513,072	-109,518	-0,110	-0,017
-512,058	800,000	-0,047	-0,107
-511,043	1,367	0,082	-0,043
-510,029	-174,088	-0,024	0,000
-509,014	196,803	0,014	0,015
-507,999	23,127	-0,090	0,054
-506,985	66,273	0,115	-0,085
-505,970	-85,514	-0,069	-0,015
-504,956	-200,000	-0,004	0,022
-503,941	-0,303	0,155	0,080
-502,926	36,313	0,043	0,028
-501,912	0,624	0,157	0,082
-500,897	-200,000	-0,005	0,025
-499,883	800,000	-0,046	0,112
-498,868	800,000	0,025	-0,058
-497,853	18,319	0,082	0,048
-496,839	-89,428	-0,173	0,037
-495,824	-57,864	0,047	-0,015
-494,810	-200,000	-0,024	-0,115
-493,795	-24,871	-0,194	0,084
-492,781	-36,357	0,073	-0,029
-491,766	800,000	-0,028	-0,059
-490,751	-65,550	-0,056	0,016
-489,737	116,503	0,152	-0,136
-488,722	92,840	-0,070	0,058
-487,708	6,240	0,087	0,047
-486,693	39,004	0,078	0,051
-485,678	-3,813	-0,020	-0,010
-484,664	207,445	0,029	0,033
-483,649	-178,191	-0,088	0,001
-482,635	73,444	-0,066	-0,051
-481,620	-90,329	-0,158	0,033
-480,605	-200,000	-0,006	-0,050
-479,591	91,644	0,150	0,123
-478,576	-19,330	0,066	-0,030
-477,562	80,937	-0,046	-0,036
-476,547	-52,724	0,072	-0,024
-475,532	-200,000	0,016	-0,171
-474,518	128,810	0,049	0,045
-473,503	87,899	0,057	0,046
-472,489	294,794	0,078	0,104
-471,474	594,424	0,030	0,055
-470,459	19,437	0,100	-0,058
-469,445	-83,714	-0,122	0,028
-468,430	800,000	-0,020	0,043
-467,416	-58,992	-0,059	0,018
-466,401	-26,804	0,034	-0,014
-465,386	302,818	0,041	-0,055
-464,372	-124,128	-0,132	-0,015
-463,357	-200,000	-0,012	-0,071
-462,343	82,892	0,046	-0,036
-461,328	-71,579	-0,132	-0,036
-460,313	76,218	0,057	-0,044
-459,299	-200,000	0,012	-0,047
-458,284	45,159	0,139	0,093
-457,270	89,517	-0,009	0,008
-456,255	-58,819	0,063	0,020
-455,241	6,988	-0,142	-0,077
-454,226	-16,120	-0,033	0,015
-453,211	800,000	0,009	-0,028
-452,197	-154,729	0,139	0,007
-451,182	621,734	0,072	0,133
-450,168	-152,955	-0,046	-0,002
-449,153	-85,080	0,180	-0,041
-448,138	-91,593	-0,086	0,018
-447,124	-115,156	0,099	-0,014
-446,109	-7,354	0,055	0,027
-445,095	363,593	0,079	-0,116
-444,080	-93,715	0,133	-0,026
-443,065	800,000	0,012	0,037
-442,051	-70,902	-0,138	0,038
-441,036	398,365	-0,008	0,013
-440,022	-200,000	-0,017	0,056
-439,007	322,787	0,029	-0,040
-437,992	206,684	0,088	0,100
-436,978	82,427	0,097	-0,076
-435,963	-111,802	-0,066	0,010
-434,949	34,313	0,058	0,037
-433,934	-6,335	-0,019	-0,009
-432,919	800,000	0,021	-0,043
-431,905	-127,401	-0,086	-0,009
-430,890	-27,458	-0,073	0,031
-429,876	-200,000	-0,012	-0,163
-428,861	-200,000	0,014	0,152
-427,846	-200,000	-0,008	0,026
-426,832	205,187	0,102	-0,116
-425,817	135,747	0,130	-0,123
-424,803	-200,000	-0,009	-0,143
-423,788	-44,957	-0,089	0,032
-422,773	336,951	-0,041	-0,058
-421,759	800,000	-0,034	0,090
-420,744	-200,000	-0,009	0,030
-419,730	-200,000	0,009	-0,145
-418,715	324,211	0,043	-0,060
-417,701	-105,736	0,079	-0,013
-416,686	-200,000	0,009	0,050
-415,671	39,894	-0,014	0,009
-414,657	-103,338	-0,085	-0,014
-413,642	300,032	-0,098	0,132
-412,628	318,608	0,052	0,072
-411,613	-76,194	-0,083	0,021
-410,598	800,000	0,021	-0,063
-409,584	84,503	0,071	-0,057
-408,569	800,000	0,010	0,028
-407,555	-23,248	0,042	-0,018
-406,540	-200,000	0,003	-0,039
-405,525	-126,111	-0,137	-0,015
-404,511	71,124	0,086	0,065
-403,496	179,092	0,112	0,119
-402,482	800,000	-0,048	-0,104
-401,467	-200,000	-0,023	0,177
-400,452	100,763	-0,122	-0,103
-399,438	-48,354	0,119	-0,042
-398,423	108,491	0,043	-0,038
-397,409	223,477	-0,081	0,096
-396,394	234,325	-0,020	0,024
-395,379	-200,000	0,007	0,035
-394,365	-117,342	-0,040	0,005
-393,350	-28,818	0,095	-0,039
-392,336	-200,000	-0,006	0,074
-391,321	-110,918	-0,141	-0,021
-390,306	287,119	0,047	-0,062
-389,292	-200,000	0,007	-0,084
-388,277	288,030	-0,054	0,071
-387,263	89,433	-0,119	0,097
-386,248	464,654	0,085	0,139
-385,233	562,257	-0,050	-0,089
-384,219	800,000	0,045	-0,106
-383,204	113,207	-0,098	-0,086
-382,190	434,432	-0,025	-0,039
-381,175	-200,000	-0,006	-0,020
-380,160	150,412	0,075	-0,075
-379,146	57,285	0,040	0,028
-378,131	384,819	0,019	0,028
-377,117	800,000	-0,010	0,023
-376,102	90,725	0,054	0,044
-375,088	-65,390	-0,108	-0,031
-374,073	800,000	0,049	-0,108
-373,058	265,275	0,028	0,035
-372,044	800,000	0,081	0,184
-371,029	467,721	0,023	0,038
-370,015	102,221	-0,113	0,096
-369,000	187,578	0,024	-0,026
-367,985	183,647	0,030	-0,033
-366,971	8,336	0,134	-0,073
-365,956	161,553	0,033	-0,034
-364,942	383,500	0,114	0,172
-363,927	157,905	-0,007	-0,007
-362,912	142,152	0,083	0,080
-361,898	-66,555	-0,088	-0,025
-360,883	-200,000	-0,001	-0,116
-359,869	-190,738	0,196	0,001
-358,854	789,047	-0,021	0,043
-357,839	-200,000	0,013	0,126
-356,825	443,917	0,019	-0,030
-355,810	222,709	-0,024	0,028
-354,796	267,368	-0,033	-0,042
-353,781	45,815	-0,140	0,094
-352,766	558,609	0,028	0,050
-351,752	595,257	-0,095	0,172
-350,737	127,890	0,168	0,155
-349,723	-200,000	-0,020	0,073
-348,708	127,672	0,077	0,071
-347,693	-22,451	-0,044	0,019
-346,679	-99,285	-0,067	-0,012
-345,664	-200,000	0,107	-0,000
-344,650	549,333	-0,044	-0,076
-343,635	-200,000	0,011	0,077
-342,620	162,483	0,074	-0,076
-341,606	800,000	-0,032	0,069
-340,591	-200,000	0,012	0,081
-339,577	-200,000	-0,035	-0,120
-338,562	631,945	-0,034	0,062
-337,548	83,919	-0,130	-0,103
-336,533	76,423	-0,091	-0,070
-335,518	-11,910	-0,044	-0,021
-334,504	132,954	0,010	-0,010
-333,489	-200,000	-0,011	0,163
-332,475	-14,647	-0,091	-0,042
-331,460	418,586	-0,050	-0,077
-330,445	-14,953	0,025	0,012
-329,431	800,000	-0,046	-0,107
-328,416	195,832	-0,058	0,064
-327,402	335,785	-0,065	-0,092
-326,387	-80,392	-0,054	0,013
-325,372	-9,757	0,063	0,030
-324,358	-98,549	-0,095	-0,017
-323,343	-71,749	-0,119	0,032
-322,329	-65,788	-0,060	0,017
-321,314	-200,000	0,004	-0,031
-320,299	-95,242	0,102	0,020
-319,285	544,373	0,050	0,087
-318,270	-80,082	-0,136	0,033
-317,256	188,446	0,085	0,092
-316,241	-46,197	-0,039	0,014
-315,226	-77,448	-0,045	0,011
-314,212	170,920	0,092	-0,095
-313,197	800,000	0,010	0,032
-312,183	-164,234	-0,108	-0,004
-311,168	61,237	0,077	0,055
-310,153	61,504	-0,121	-0,087
-309,139	-200,000	-0,022	0,073
-308,124	-200,000	-0,035	0,129
-307,110	-200,000	-0,019	0,124
-306,095	-200,000	-0,000	-0,019
-305,080	-89,061	0,031	-0,007
-304,066	-200,000	-0,018	0,070
-303,051	-67,740	-0,148	0,042
-302,037	-100,074	0,077	-0,014
-301,022	800,000	-0,031	0,063
-300,008	800,000	0,035	-0,085
-298,993	268,081	-0,101	0,129
-297,978	-122,023	0,138	-0,016
-296,964	-28,643	0,071	0,029
-295,949	800,000	-0,024	-0,054
-294,935	800,000	-0,030	-0,066
-293,920	126,865	0,036	0,033
-292,905	-200,000	-0,007	0,150
-291,891	120,521	0,139	0,125
-290,876	-131,520	-0,054	-0,005
-289,862	-200,000	0,007	0,099
-288,847	-200,000	0,000	0,092
-287,832	-96,698	-0,060	0,011
-286,818	407,818	-0,068	0,104
-285,803	-1,704	0,109	-0,055
-284,789	11,805	0,085	0,047
-283,774	-86,274	-0,018	-0,004
-282,759	-29,612	0,076	0,031
-281,745	-200,000	-0,012	0,043
-280,730	-7,674	-0,118	-0,058
-279,716	-137,584	-0,063	-0,005
-278,701	124,949	0,088	0,080
-277,686	219,143	0,005	0,006
-276,672	64,776	0,063	0,046
-275,657	121,048	0,057	0,052
-274,643	17,255	0,020	0,012
-273,628	-200,000	-0,008	-0,039
-272,613	800,000	-0,016	-0,047
-271,599	-200,000	-0,007	0,055
-270,584	-200,000	0,012	0,048
-269,570	-41,008	-0,067	0,025
-268,555	-200,000	0,009	-0,131
-267,540	503,129	0,040	-0,067
-266,526	91,465	-0,044	-0,035
-265,511	-200,000	-0,008	-0,129
-264,497	-35,150	0,020	-0,008
-263,482	365,759	0,057	0,084
-262,467	800,000	0,054	0,121
-261,453	447,457	0,044	-0,070
-260,438	226,786	-0,146	-0,171
-259,424	-128,673	-0,091	-0,009
-258,409	428,528	0,090	0,141
-257,395	-200,000	0,017	0,074
-256,380	-181,304	-0,098	0,001
-255,365	800,000	0,008	-0,022
-254,351	15,242	-0,019	0,011
-253,336	-162,329	0,112	-0,004
-252,322	-200,000	-0,028	-0,117
-251,307	-200,000	0,030	-0,129
-250,292	423,798	-0,032	-0,051
-249,278	270,078	-0,036	0,046
-248,263	-2,603	-0,047	-0,024
-247,249	-50,822	0,133	-0,045
-246,234	-200,000	-0,020	-0,153
-245,219	69,903	-0,164	-0,122
-244,205	-153,393	0,095	-0,005
-243,190	-200,000	-0,008	0,114
-242,176	800,000	0,033	0,099
-241,161	-112,501	-0,116	-0,016
-240,146	-200,000	0,022	0,105
-239,132	10,430	-0,114	-0,063
-238,117	-121,064	0,089	0,011
-237,103	111,360	-0,091	0,080
-236,088	-194,098	0,049	0,000
-235,073	-200,000	0,018	0,065
-234,059	-134,160	0,126	0,011
-233,044	-139,328	0,063	-0,005
-232,030	2,919	-0,120	0,063
-231,015	84,920	0,096	-0,076
-230,000	649,101	-0,040	-0,075
-228,986	-200,000	0,006	-0,127
-227,971	77,756	0,003	0,002
-226,957	-38,658	0,157	-0,060
-225,942	125,578	0,146	0,133
-224,927	-20,306	-0,032	-0,014
-223,913	50,613	0,041	-0,028
-222,898	299,417	-0,075	0,100
-221,884	-54,615	-0,020	-0,007
-220,869	678,862	0,028	-0,052
-219,855	-127,782	-0,102	0,011
-218,840	105,362	0,069	0,059
-217,825	566,606	0,044	-0,077
-216,811	303,884	-0,053	-0,071
-215,796	12,008	-0,127	0,070
-214,782	-200,000	0,014	0,053
-213,767	-36,249	0,089	0,035
-212,752	-50,669	0,022	0,007
-211,738	-114,396	0,049	-0,007
-210,723	-107,679	0,072	-0,011
-209,709	420,589	0,045	-0,070
-208,694	158,772	0,030	-0,030
-207,679	800,000	0,042	-0,115
-206,665	173,190	-0,048	-0,050
-205,650	800,000	0,025	-0,080
-204,636	236,538	-0,077	0,092
-203,621	3,432	-0,128	0,067
-202,606	1,544	-0,013	0,007
-201,592	800,000	-0,042	-0,085
-200,577	-200,000	-0,011	-0,040
-199,563	-200,000	0,029	0,176
-198,548	-200,000	0,004	-0,118
-197,533	800,000	0,030	-0,062
-196,519	-24,994	0,116	0,049
-195,504	472,266	0,046	-0,074
-194,490	800,000	-0,047	0,100
-193,475	-200,000	-0,001	0,033
-192,460	486,017	0,020	0,034
-191,446	-79,765	0,135	-0,032
-190,431	21,685	-0,157	0,092
-189,417	-10,734	0,030	0,014
-188,402	-200,000	-0,002	-0,024
-187,387	-70,248	-0,035	-0,010
-186,373	-144,491	-0,064	-0,004
-185,358	580,219	-0,086	-0,152
-184,344	156,687	0,055	0,055
-183,329	-158,679	-0,036	0,001
-182,315	-69,135	-0,067	0,018
-181,300	-200,000	0,004	-0,203
-180,285	-92,637	-0,049	0,010
-179,271	-145,445	0,132	-0,008
-178,256	-142,481	0,016	0,001
-177,242	121,263	0,042	0,038
-176,227	-200,000	-0,006	0,063
-175,212	-108,956	-0,170	0,026
-174,198	219,071	0,090	0,104
-173,183	776,157	-0,037	-0,072
-172,169	800,000	0,061	-0,125
-171,154	793,299	-0,050	0,100
-170,139	-148,479	0,124	-0,007
-169,125	291,743	0,048	-0,064
-168,110	-200,000	0,002	0,036
-167,096	800,000	0,047	-0,100
-166,081	-51,545	0,058	0,019
-165,066	-34,058	-0,124	-0,049
-164,052	-200,000	0,009	0,036
-163,037	800,000	-0,032	-0,070
-162,023	-200,000	0,009	0,049
-161,008	-200,000	0,008	0,159
-159,993	800,000	-0,021	0,054
-158,979	134,690	-0,016	0,015
-157,964	800,000	0,041	-0,099
-156,950	-148,330	-0,041	-0,002
-155,935	207,576	-0,035	0,040
-154,920	440,603	-0,038	0,060
-153,906	-200,000	0,018	-0,078
-152,891	317,847	-0,072	-0,098
-151,877	156,946	0,046	0,046
-150,862	-52,104	-0,151	-0,050
-149,847	219,677	0,092	0,107
-148,833	201,854	0,089	0,099
-147,818	461,821	0,037	0,059
-146,804	800,000	-0,022	-0,053
-145,789	102,690	-0,013	-0,011
-144,775	-183,972	0,031	-0,000
-143,760	413,242	-0,093	-0,143
-142,745	-15,554	-0,193	0,088
-141,731	-123,691	0,116	-0,013
-140,716	76,165	-0,044	-0,034
-139,702	-113,101	-0,059	-0,008
-138,687	-15,573	-0,064	-0,029
-137,672	800,000	0,033	0,072
-136,658	771,438	-0,020	-0,040
-135,643	345,459	-0,023	0,033
-134,629	212,530	-0,124	-0,141
-133,614	-200,000	-0,021	0,126
-132,599	175,947	0,107	0,112
-131,585	-155,295	0,125	0,006
-130,570	-139,747	0,048	-0,004
-129,556	-56,598	-0,156	-0,049
-128,541	380,642	0,095	-0,140
-127,526	-14,193	0,106	0,049
-126,512	-200,000	0,041	0,143
-125,497	153,987	0,022	0,022
-124,483	296,852	0,024	0,032
-123,468	800,000	0,057	0,130
-122,453	-200,000	-0,008	0,153
-121,439	-27,048	-0,051	-0,021
-120,424	-12,662	-0,105	0,049
-119,410	22,974	0,053	0,031
-118,395	198,169	-0,055	0,061
-117,380	-37,691	-0,103	0,039
-116,366	-57,196	0,140	0,044
-115,351	2,250	-0,227	-0,117
-114,337	30,405	-0,069	-0,042
-113,322	-128,636	-0,121	-0,012
-112,307	-37,698	0,032	0,012
-111,293	800,000	-0,074	0,216
-110,278	-200,000	-0,005	0,021
-109,264	628,987	0,053	-0,097
-108,249	-200,000	0,029	0,095
-107,234	554,839	-0,042	0,073
-106,220	127,253	-0,147	0,134
-105,205	-200,000	-0,023	-0,156
-104,191	-200,000	-0,011	0,151
-103,176	-200,000	-0,003	0,062
-102,162	213,984	-0,080	0,092
-101,147	-61,881	-0,116	0,035
-100,132	66,916	0,066	-0,048
-99,118	42,725	0,041	0,027
-98,103	-200,000	-0,042	0,166
-97,089	497,372	-0,094	0,156
-96,074	450,267	0,052	0,082
-95,059	-200,000	-0,029	0,100
-94,045	-20,877	0,075	0,033
-93,030	61,514	-0,156	-0,112
-92,016	14,158	-0,082	0,046
-91,001	77,129	0,034	0,026
-89,986	800,000	-0,068	0,142
-88,972	800,000	0,046	-0,145
-87,957	10,949	0,043	-0,023
-86,943	800,000	-0,050	-0,107
-85,928	-200,000	0,006	0,053
-84,913	-200,000	-0,004	0,066
-83,899	36,899	0,038	0,024
-82,884	800,000	0,037	0,118
-81,870	423,497	0,070	0,109
-80,855	-65,012	0,081	0,023
-79,840	104,570	-0,028	-0,024
-78,826	5,111	-0,099	-0,052
-77,811	-87,359	-0,083	0,018
-76,797	639,523	-0,011	-0,020
-75,782	175,236	0,082	0,085
-74,767	-200,000	0,002	-0,082
-73,753	-104,469	0,091	0,015
-72,738	-115,535	-0,039	0,005
-71,724	800,000	0,074	-0,193
-70,709	183,291	-0,105	-0,112
-69,694	103,996	0,124	-0,105
-68,680	516,372	-0,133	-0,224
-67,665	-200,000	0,022	-0,079
-66,651	-161,533	-0,060	0,002
-65,636	-200,000	0,025	-0,084
-64,622	-129,625	0,036	-0,004
-63,607	-11,024	-0,092	0,043
-62,592	255,091	-0,054	-0,066
-61,578	26,726	-0,071	0,043
-60,563	149,700	0,120	0,116
-59,549	-184,117	0,098	0,001
-58,534	-4,371	-2,107	-1,042
-57,519	-200,000	-0,260	-0,824
-56,505	-200,000	-1,322	-5,024
-55,490	40,347	0,897	0,578
-54,476	800,000	5,250	11,865
-53,461	-200,000	17,815	290,355
-52,446	800,000	726,239	2231,920
-51,432	537,367	1639,256	2805,217
-50,417	109,848	1629,273	1401,925
-49,403	73,494	1283,398	963,190
-48,388	31,629	1026,254	631,946
-47,373	19,936	988,354	570,086
-46,359	18,282	976,320	557,706
-45,344	15,596	972,484	546,712
-44,330	15,762	971,032	546,417
-43,315	15,335	969,190	543,967
-42,300	15,293	968,178	543,239
-41,286	15,277	967,137	542,579
-40,271	15,209	966,184	541,805
-39,257	15,309	965,237	541,574
-38,242	15,357	964,321	541,196
-37,227	15,260	963,517	540,409
-36,213	15,304	962,673	540,058
-35,198	15,275	961,747	539,423
-34,184	15,259	961,329	539,114
-33,169	15,300	960,030	538,496
-32,154	15,297	959,275	538,044
-31,140	15,326	958,237	537,531
-30,125	15,329	957,581	537,153
-29,111	15,339	956,783	536,717
-28,096	15,354	956,115	536,368
-27,082	15,289	955,652	535,879
-26,067	15,272	954,850	535,353
-25,052	15,295	953,965	534,909
-24,038	15,287	953,342	534,513
-23,023	15,220	952,772	533,957
-22,009	15,304	951,943	533,739
-20,994	15,313	951,343	533,410
-19,979	15,342	950,670	533,106
-18,965	15,342	950,020	532,720
-17,950	15,282	949,503	532,219
-16,936	15,299	948,759	531,834
-15,921	15,274	948,281	531,465
-14,906	15,169	947,592	530,724
-13,892	15,185	946,804	530,310
-12,877	15,184	946,187	529,942
-11,863	15,214	945,505	529,635
-10,848	15,121	945,308	529,207
-9,833	15,319	944,659	529,452
-8,819	15,282	943,956	528,920
-7,804	15,241	943,287	528,393
-6,790	15,148	942,858	527,836
-5,775	15,200	942,358	527,701
-4,760	15,244	941,537	527,359
-3,746	15,184	940,884	526,783
-2,731	15,033	940,496	526,067
-1,717	15,042	939,671	525,613
-0,702	15,055	938,830	525,162
0,313	14,857	938,274	525,019
1,327	18,279	936,084	534,517
2,342	27,460	789,829	475,184
3,356	24,066	444,297	262,257
4,371	-5,392	294,697	144,591
5,386	-9,404	276,366	131,794
6,400	-10,630	270,679	127,935
7,415	-10,794	268,418	126,704
8,429	-10,712	266,744	125,977
9,444	-10,976	266,132	125,436
10,459	-10,767	265,538	125,335
11,473	-11,083	264,896	124,734
12,488	-11,046	264,382	124,515
13,502	-11,183	263,862	124,135
14,517	-11,195	263,353	123,874
15,531	-11,053	262,901	123,777
16,546	-11,128	262,556	123,537
17,561	-10,987	262,144	123,459
18,575	-10,942	261,923	123,384
19,590	-10,934	261,500	123,181
20,604	-11,151	261,222	122,846
21,619	-11,236	260,982	122,645
22,634	-11,050	260,388	122,521
23,648	-11,434	260,239	122,098
24,663	-11,344	260,025	122,067
25,677	-11,127	259,809	122,148
26,692	-11,226	259,492	121,900
27,707	-11,271	259,225	121,724
28,721	-11,453	259,067	121,478
29,736	-11,267	258,702	121,460
30,750	-11,139	258,266	121,357
31,765	-11,398	258,303	121,135
32,780	-11,268	257,896	121,048
33,794	-11,227	257,835	121,045
34,809	-11,397	257,459	120,708
35,823	-11,346	257,230	120,634
36,838	-11,261	256,853	120,521
37,853	-11,337	256,741	120,392
38,867	-11,369	256,654	120,312
39,882	-11,350	256,384	120,191
40,896	-11,146	255,936	120,149
41,911	-11,300	255,796	119,938
42,926	-11,211	255,553	119,891
43,940	-11,260	255,418	119,774
44,955	-11,375	255,216	119,569
45,969	-11,479	254,886	119,313
46,984	-11,763	254,676	118,958
47,999	-12,006	254,332	118,575
49,013	-12,033	254,054	118,412
50,028	-12,097	253,858	118,255
51,042	-12,261	253,552	117,959
52,057	-12,365	253,521	117,844
53,071	-12,277	253,196	117,759
54,086	-11,907	252,943	117,950
55,101	-12,059	252,870	117,774
56,115	-11,716	252,771	118,013
57,130	-11,279	252,673	118,334
58,144	-11,065	252,436	118,395
59,159	-11,025	252,199	118,309
60,174	-11,025	251,962	118,186
61,188	-11,016	251,799	118,107
62,203	-11,169	251,694	117,917
63,217	-11,210	251,424	117,745
64,232	-11,078	251,129	117,709
65,247	-11,245	251,034	117,511
66,261	-11,261	250,647	117,306
67,276	-11,369	250,254	117,020
68,290	-11,542	250,085	116,783
69,305	-11,867	249,920	116,419
70,320	-11,643	249,743	116,515
71,334	-11,501	249,711	116,611
72,349	-11,324	249,574	116,687
73,363	-11,134	249,242	116,683
74,378	-11,018	248,906	116,613
75,393	-11,106	248,845	116,500
76,407	-11,115	248,622	116,377
77,422	-11,238	248,387	116,154
78,436	-11,196	248,349	116,161
79,451	-11,203	248,064	116,011
80,466	-11,274	247,536	115,694
81,480	-11,202	247,471	115,714
82,495	-11,463	247,323	115,415
83,509	-11,437	247,280	115,406
84,524	-11,626	247,037	115,124
85,539	-11,650	246,740	114,955
86,553	-11,590	246,500	114,883
87,568	-11,562	246,335	114,820
88,582	-11,423	246,134	114,832
89,597	-11,563	245,887	114,590
90,611	-11,443	245,910	114,690
91,626	-11,411	245,884	114,694
92,641	-11,310	245,553	114,614
93,655	-11,195	245,433	114,644
94,670	-11,528	245,082	114,192
95,684	-11,637	244,914	114,013
96,699	-11,474	244,782	114,078
97,714	-11,613	244,605	113,869
98,728	-11,611	244,318	113,727
99,743	-11,653	243,997	113,533
100,757	-11,792	243,808	113,320
101,772	-11,672	243,642	113,332
102,787	-11,734	243,686	113,291
103,801	-11,486	243,355	113,332
104,816	-11,417	243,244	113,327
105,830	-11,245	243,128	113,405
106,845	-11,170	242,952	113,374
107,860	-11,340	242,803	113,154
108,874	-11,502	242,497	112,868
109,889	-11,420	242,352	112,858
110,903	-11,392	242,000	112,707
111,918	-11,586	241,929	112,505
112,933	-11,624	241,858	112,431
113,947	-11,353	241,530	112,490
114,962	-11,413	241,515	112,424
115,976	-11,393	241,427	112,389
116,991	-11,522	241,087	112,116
118,006	-11,701	241,025	111,930
119,020	-11,366	240,874	112,124
120,035	-11,166	240,672	112,183
121,049	-11,163	240,604	112,143
122,064	-11,248	240,375	111,958
123,079	-11,417	240,163	111,712
124,093	-11,315	239,747	111,591
125,108	-11,648	239,586	111,236
126,122	-11,781	239,567	111,109
127,137	-11,837	239,265	110,913
128,151	-11,556	238,923	110,973
129,166	-11,636	238,865	110,871
130,181	-11,545	238,743	110,878
131,195	-11,752	238,440	110,561
132,210	-11,434	238,372	110,776
133,224	-11,357	238,342	110,814
134,239	-11,465	238,000	110,558
135,254	-11,303	237,915	110,640
136,268	-11,466	237,731	110,413
137,283	-11,589	237,357	110,130
138,297	-11,795	237,178	109,872
139,312	-11,812	237,084	109,805
140,327	-11,453	236,947	110,020
141,341	-10,943	236,943	110,418
142,356	-10,818	236,760	110,422
143,370	-10,779	236,559	110,350
144,385	-11,015	236,514	110,130
145,400	-10,947	236,250	110,052
146,414	-10,722	236,036	110,122
147,429	-10,974	236,020	109,904
148,443	-11,213	235,632	109,522
149,458	-11,124	235,528	109,535
150,473	-11,094	235,407	109,493
151,487	-11,128	235,187	109,354
152,502	-11,196	235,129	109,263
153,516	-10,928	234,956	109,386
154,531	-11,012	234,800	109,236
155,546	-11,018	234,593	109,126
156,560	-11,293	234,506	108,858
157,575	-11,375	234,080	108,586
158,589	-11,309	234,072	108,624
159,604	-10,975	233,916	108,807
160,619	-10,992	233,663	108,665
161,633	-10,881	233,576	108,702
162,648	-10,810	233,483	108,706
163,662	-10,895	233,235	108,513
164,677	-11,262	233,125	108,164
165,692	-11,078	232,992	108,237
166,706	-10,809	232,820	108,359
167,721	-10,903	232,763	108,249
168,735	-10,584	232,488	108,361
169,750	-10,960	232,484	108,056
170,764	-11,141	232,252	107,796
171,779	-10,970	232,085	107,843
172,794	-10,894	232,002	107,854
173,808	-11,036	231,794	107,637
174,823	-11,673	231,456	106,973
175,837	-11,610	231,279	106,931
176,852	-11,058	231,155	107,294
177,867	-11,150	231,105	107,189
178,881	-10,814	230,890	107,342
179,896	-10,936	230,798	107,195
180,910	-10,938	230,556	107,071
181,925	-10,958	230,517	107,028
182,940	-10,758	230,389	107,114
183,954	-10,850	230,274	106,980
184,969	-10,670	230,092	107,026
185,983	-10,633	229,859	106,936
186,998	-10,686	229,625	106,777
188,013	-10,710	229,582	106,729
189,027	-10,737	229,387	106,608
190,042	-10,702	229,200	106,538
191,056	-10,671	229,090	106,502
192,071	-11,085	229,000	106,131
193,086	-10,764	228,911	106,328
194,100	-10,591	228,679	106,344
195,115	-10,916	228,327	105,921
196,129	-11,362	228,381	105,593
197,144	-5,546	230,184	110,920
198,159	0,762	231,891	116,638
199,173	2,981	232,477	118,647
200,188	3,415	232,534	119,002
201,202	3,330	232,420	118,868
202,217	3,525	232,356	118,976
203,232	3,902	232,094	119,123
204,246	3,958	231,926	119,069
205,261	3,988	231,938	119,088
206,275	3,911	231,883	118,989
207,290	3,961	231,721	118,934
208,304	3,996	231,577	118,877
209,319	4,229	231,388	118,949
210,334	3,985	231,145	118,625
211,348	3,685	230,880	118,248
212,363	3,351	230,697	117,887
213,377	3,176	230,486	117,634
214,392	3,128	230,265	117,473
215,407	3,342	230,185	117,586
216,421	3,387	229,916	117,474
217,436	3,202	229,801	117,262
218,450	3,016	229,667	117,041
219,465	3,095	229,390	116,950
220,480	2,914	229,354	116,782
221,494	3,280	229,178	116,962
222,509	3,622	229,114	117,180
223,523	3,080	228,994	116,695
224,538	3,064	228,830	116,588
225,553	3,254	228,700	116,657
226,567	3,208	228,703	116,613
227,582	3,691	228,398	116,815
228,596	3,766	228,425	116,875
229,611	3,164	228,216	116,300
230,626	3,077	227,855	116,039
231,640	3,192	227,638	116,006
232,655	3,529	227,771	116,319
233,669	3,971	227,614	116,564
234,684	3,802	227,554	116,394
235,699	3,661	227,295	116,145
236,713	3,556	227,056	115,933
237,728	3,312	226,834	115,624
238,742	3,226	226,811	115,538
239,757	3,045	226,552	115,259
240,772	3,374	226,444	115,441
241,786	3,066	226,275	115,114
242,801	3,184	226,163	115,135
243,815	3,548	226,232	115,434
244,830	3,825	225,942	115,483
245,844	3,573	225,563	115,091
246,859	3,414	225,581	114,970
247,874	3,491	225,510	114,981
248,888	3,495	225,346	114,890
249,903	3,355	225,210	114,707
250,917	3,265	224,931	114,487
251,932	3,440	224,836	114,559
252,947	3,224	224,571	114,253
253,961	2,900	224,525	113,977
254,976	3,197	224,335	114,092
255,990	3,569	224,294	114,338
257,005	3,408	224,200	114,160
258,020	3,335	224,172	114,081
259,034	3,574	224,001	114,162
260,049	3,786	223,628	114,119
261,063	3,523	223,607	113,903
262,078	3,477	223,509	113,809
263,093	3,655	223,339	113,844
264,107	3,593	223,147	113,690
265,122	3,470	223,121	113,575
266,136	3,742	222,995	113,703
267,151	3,631	222,829	113,525
268,166	3,381	222,469	113,148
269,180	3,089	222,277	112,824
270,195	3,207	222,182	112,853
271,209	3,262	222,141	112,863
272,224	3,200	222,085	112,778
273,239	3,664	221,776	112,953
274,253	3,198	221,692	112,557
275,268	3,023	221,509	112,326
276,282	3,013	221,249	112,177
277,297	2,833	221,205	112,012
278,312	3,136	221,145	112,194
279,326	3,494	220,788	112,265
280,341	3,184	220,885	112,077
281,355	3,032	220,749	111,887
282,370	3,378	220,486	111,997
283,384	3,026	220,236	111,603
284,399	2,895	220,270	111,515
285,414	3,036	220,024	111,483
286,428	3,115	219,991	111,514
287,443	3,651	219,890	111,843
288,457	3,404	219,757	111,586
289,472	3,198	219,542	111,317
290,487	2,769	219,263	110,853
291,501	2,669	219,121	110,699
292,516	3,095	218,995	110,935
293,530	2,960	218,956	110,807
294,545	2,995	218,797	110,742
295,560	3,320	218,616	110,876
296,574	3,109	218,591	110,701
297,589	3,276	218,443	110,737
298,603	3,290	218,273	110,651
299,618	3,415	218,156	110,672
300,633	3,367	218,068	110,583
301,647	3,604	217,949	110,683
302,662	3,323	217,938	110,465
303,676	3,299	217,715	110,326
304,691	3,726	217,657	110,594
305,706	3,650	217,332	110,364
306,720	3,293	217,511	110,188
307,735	3,205	217,079	109,896
308,749	3,082	216,876	109,695
309,764	3,372	216,743	109,826
310,779	3,575	216,689	109,935
311,793	3,508	216,634	109,849
312,808	3,323	216,431	109,604
313,822	3,534	216,172	109,614
314,837	3,277	216,123	109,395
315,852	2,915	215,995	109,062
316,866	3,251	215,861	109,225
317,881	3,329	215,817	109,248
318,895	3,536	215,500	109,226
319,910	3,151	215,401	108,892
320,925	2,933	215,167	108,609
321,939	2,625	215,135	108,364
322,954	2,770	214,884	108,331
323,968	3,096	214,730	108,475
324,983	3,187	214,602	108,464
325,997	3,334	214,642	108,579
327,012	3,549	214,609	108,706
328,027	3,503	214,422	108,569
329,041	3,798	214,335	108,723
330,056	3,862	214,203	108,692
331,070	3,344	213,771	108,098
332,085	3,256	213,570	107,924
333,100	3,195	213,570	107,872
334,114	3,417	213,552	108,009
335,129	3,406	213,311	107,870
336,143	3,221	213,135	107,642
337,158	3,336	213,004	107,646
338,173	3,363	212,927	107,617
339,187	3,122	212,793	107,371
340,202	2,956	212,565	107,129
341,216	2,799	212,491	106,973
342,231	3,259	212,307	107,193
343,246	3,124	212,192	107,031
344,260	3,043	212,030	106,882
345,275	3,264	212,019	107,022
346,289	3,112	211,941	106,867
347,304	3,296	211,761	106,895
348,319	3,207	211,543	106,714
349,333	3,129	211,559	106,657
350,348	3,379	211,271	106,677
351,362	3,436	211,175	106,659
352,377	3,585	211,155	106,743
353,392	3,341	210,835	106,402
354,406	3,337	210,788	106,366
355,421	195,817	1339,056	1417,561
356,435	156,417	1476,492	1417,536
