DTS Sentinel unit serial number:	SN410029Multiplexer serial number:	ORYXHardware model number:	OX2-SRSoftware version number:	ORYX F/W v4,00 Oryx Data Collector v3.7.2.0data status	okinstallation	B6 Nyhavnadifferential loss correction	single-endedforward channel	channel 2reverse channel	N/Adate	2023/12/09time	12:25:08forward acquisition time	300,00reverse acquisition time	0,00gamma	499,1914k internal	0,3138k external	0,3138temperature offset calibration	1,0000default loss term (dB/km)	0,3820temperature slope calibration	1,0000multiplexer offset coefficient	1,0000multiplexer slope coefficient	1,0000fibre end	0,00T internal ref (°C)	19,28T ext. ref 1 (°C)	3,89T ext. ref 2 (°C)	3,87length (m)	temperature (°C)	Stokes	anti-Stokes-744,400	800,000	0,026	0,083
-743,385	-113,709	-0,261	0,037
-742,371	-49,470	0,189	0,066
-741,356	91,608	-0,201	0,167
-740,342	-200,000	0,002	0,095
-739,327	-28,615	-0,328	0,140
-738,312	-200,000	-0,031	-0,115
-737,298	-151,033	-0,330	-0,018
-736,283	-82,735	0,153	0,037
-735,269	89,352	-0,247	0,204
-734,254	16,088	0,089	0,052
-733,239	-149,500	-0,497	-0,029
-732,225	49,931	0,138	-0,096
-731,210	276,671	-0,059	-0,079
-730,196	7,939	0,081	-0,045
-729,181	653,620	-0,060	0,115
-728,167	407,725	-0,046	-0,072
-727,152	-97,325	0,055	0,011
-726,137	-162,463	0,072	-0,003
-725,123	98,021	-0,095	-0,081
-724,108	46,436	-0,130	-0,089
-723,094	-85,722	-0,115	-0,026
-722,079	-146,162	-0,109	-0,007
-721,064	183,977	0,076	0,084
-720,050	158,212	0,041	-0,042
-719,035	800,000	-0,057	-0,153
-718,021	103,560	-0,114	0,100
-717,006	191,364	-0,084	-0,094
-715,991	-200,000	0,025	-0,174
-714,977	-52,071	-0,088	-0,030
-713,962	-46,206	-0,094	-0,034
-712,948	-200,000	0,004	0,053
-711,933	31,324	-0,064	0,040
-710,918	-200,000	0,010	-0,045
-709,904	-105,522	-0,091	0,015
-708,889	-200,000	-0,033	-0,137
-707,875	-200,000	0,022	-0,106
-706,860	-68,298	-0,033	0,009
-705,845	-200,000	0,013	0,048
-704,831	800,000	0,028	-0,082
-703,816	45,688	-0,083	-0,057
-702,802	-8,297	-0,154	-0,077
-701,787	42,185	0,030	0,020
-700,772	800,000	0,060	-0,167
-699,758	159,687	0,175	0,180
-698,743	210,418	-0,038	-0,044
-697,729	-134,648	0,012	0,001
-696,714	-110,721	0,126	-0,019
-695,699	800,000	-0,076	0,194
-694,685	214,593	-0,070	0,082
-693,670	537,036	0,051	-0,090
-692,656	274,852	0,059	0,078
-691,641	800,000	0,083	0,172
-690,627	-200,000	-0,009	0,092
-689,612	-7,979	-0,048	-0,024
-688,597	-200,000	0,019	0,000
-687,583	-37,051	-0,230	-0,091
-686,568	136,992	-0,045	-0,044
-685,554	-200,000	-0,011	0,120
-684,539	223,024	0,072	-0,086
-683,524	-5,418	-0,090	-0,046
-682,510	-200,000	-0,042	-0,230
-681,495	43,619	-0,035	0,024
-680,481	87,684	-0,061	0,050
-679,466	800,000	-0,057	-0,149
-678,451	333,777	0,082	0,118
-677,437	-26,667	0,097	-0,042
-676,422	101,958	-0,070	0,060
-675,408	-99,108	-0,063	-0,012
-674,393	341,684	-0,047	-0,069
-673,378	142,365	-0,057	-0,056
-672,364	111,960	0,062	0,055
-671,349	587,365	0,033	-0,061
-670,335	-200,000	0,016	0,067
-669,320	276,052	-0,058	-0,076
-668,305	53,359	0,066	0,047
-667,291	273,635	-0,085	0,112
-666,276	281,596	-0,074	-0,098
-665,262	800,000	-0,011	-0,026
-664,247	41,265	-0,116	0,078
-663,232	-51,848	-0,065	0,022
-662,218	252,615	0,087	0,109
-661,203	4,982	0,047	-0,025
-660,189	-73,674	0,059	0,016
-659,174	-15,078	-0,127	-0,060
-658,159	211,816	-0,046	0,054
-657,145	97,660	0,060	-0,051
-656,130	-200,000	-0,028	-0,100
-655,116	-15,936	0,028	-0,013
-654,101	-50,579	-0,153	0,053
-653,086	-200,000	-0,025	0,106
-652,072	-128,975	-0,088	-0,009
-651,057	-96,717	-0,211	0,041
-650,043	-79,713	0,099	-0,025
-649,028	115,663	-0,065	0,059
-648,014	-98,091	0,055	-0,010
-646,999	255,189	-0,110	-0,140
-645,984	302,939	0,031	0,043
-644,970	75,798	0,046	-0,036
-643,955	-200,000	-0,002	-0,148
-642,941	-54,071	-0,071	-0,024
-641,926	37,435	-0,133	-0,087
-640,911	-52,301	-0,057	0,019
-639,897	167,615	0,005	-0,006
-638,882	392,229	0,035	0,053
-637,868	-200,000	-0,014	0,055
-636,853	9,139	-0,015	0,009
-635,838	-200,000	0,008	0,055
-634,824	-135,507	-0,063	-0,006
-633,809	267,747	0,078	0,101
-632,795	-116,777	0,194	0,026
-631,780	181,766	0,055	0,060
-630,765	276,651	-0,020	0,027
-629,751	800,000	0,023	-0,064
-628,736	-200,000	0,011	-0,143
-627,722	-63,174	-0,054	-0,016
-626,707	524,766	-0,022	-0,038
-625,692	-44,590	0,146	-0,054
-624,678	800,000	0,025	0,063
-623,663	4,129	0,124	-0,067
-622,649	57,320	0,094	0,068
-621,634	-56,564	-0,057	0,018
-620,619	180,960	0,076	-0,083
-619,605	241,222	-0,097	0,119
-618,590	116,858	0,024	-0,022
-617,576	-6,410	-0,045	0,023
-616,561	800,000	-0,053	-0,128
-615,546	800,000	-0,060	-0,133
-614,532	-200,000	-0,035	-0,125
-613,517	-82,473	-0,049	-0,012
-612,503	390,888	-0,045	-0,069
-611,488	-200,000	0,001	0,004
-610,474	800,000	0,050	-0,136
-609,459	-138,910	-0,078	-0,006
-608,444	465,013	-0,026	0,044
-607,430	-85,683	-0,153	-0,035
-606,415	-48,241	-0,116	-0,041
-605,401	223,762	-0,030	-0,036
-604,386	201,776	-0,055	0,063
-603,371	122,660	-0,076	-0,071
-602,357	645,395	-0,019	-0,036
-601,342	-127,550	-0,042	0,004
-600,328	33,534	-0,115	-0,074
-599,313	171,701	-0,035	-0,037
-598,298	369,059	-0,024	-0,036
-597,284	-48,750	0,104	-0,037
-596,269	-147,023	-0,047	-0,003
-595,255	0,964	-0,031	-0,016
-594,240	-133,299	-0,111	0,010
-593,225	250,575	0,045	-0,056
-592,211	97,936	0,137	-0,117
-591,196	113,943	0,074	-0,066
-590,182	17,970	0,120	-0,070
-589,167	800,000	0,030	0,064
-588,152	-200,000	0,001	-0,036
-587,138	-85,243	-0,187	0,043
-586,123	564,433	-0,037	0,066
-585,109	-103,425	0,116	-0,020
-584,094	-200,000	0,020	0,139
-583,079	-8,539	0,165	0,082
-582,065	-200,000	-0,010	0,067
-581,050	-74,651	0,090	0,024
-580,036	-103,387	-0,070	-0,012
-579,021	133,387	0,052	-0,050
-578,006	115,577	-0,037	0,033
-576,992	-200,000	-0,026	-0,127
-575,977	-35,858	-0,069	-0,028
-574,963	108,441	0,018	-0,016
-573,948	-191,916	0,077	-0,001
-572,934	-95,397	-0,018	-0,004
-571,919	-27,737	-0,020	0,008
-570,904	-65,144	0,080	-0,024
-569,890	-72,618	0,066	-0,018
-568,875	16,757	0,054	0,031
-567,861	40,401	0,121	-0,080
-566,846	-200,000	-0,002	-0,136
-565,831	353,202	0,069	-0,101
-564,817	-158,572	-0,132	0,006
-563,802	-100,666	-0,170	0,031
-562,788	-103,823	-0,128	-0,022
-561,773	-200,000	-0,021	0,092
-560,758	-53,691	0,070	0,023
-559,744	-200,000	-0,032	0,106
-558,729	-200,000	-0,003	0,082
-557,715	-200,000	-0,016	-0,056
-556,700	76,549	-0,094	-0,073
-555,685	25,917	-0,062	-0,038
-554,671	-200,000	0,013	-0,076
-553,656	-148,266	0,099	-0,006
-552,642	14,292	0,116	0,067
-551,627	800,000	0,052	0,113
-550,612	-200,000	-0,005	0,016
-549,598	172,283	-0,122	0,129
-548,583	133,006	-0,109	-0,104
-547,569	-200,000	-0,012	-0,114
-546,554	53,466	0,056	-0,040
-545,539	103,377	-0,055	0,047
-544,525	800,000	0,034	0,089
-543,510	-2,103	-0,078	0,040
-542,496	184,429	-0,087	-0,094
-541,481	30,682	-0,020	0,012
-540,466	157,086	0,067	-0,068
-539,452	800,000	-0,027	-0,060
-538,437	153,266	0,059	0,059
-537,423	-26,224	0,056	-0,024
-536,408	446,269	-0,084	0,136
-535,393	648,294	-0,025	0,047
-534,379	546,568	0,066	-0,116
-533,364	319,811	0,048	0,067
-532,350	-179,609	-0,138	0,002
-531,335	-19,109	0,041	-0,019
-530,321	182,201	0,074	0,080
-529,306	-93,640	0,098	0,020
-528,291	544,308	0,065	0,115
-527,277	217,634	-0,025	0,029
-526,262	177,794	-0,073	-0,078
-525,248	-52,620	0,124	0,042
-524,233	-200,000	0,023	0,099
-523,218	-200,000	-0,002	0,084
-522,204	-70,051	-0,096	-0,027
-521,189	43,337	0,080	0,054
-520,175	120,609	0,069	-0,063
-519,160	24,950	-0,036	0,022
-518,145	-200,000	-0,026	0,104
-517,131	-200,000	-0,010	0,037
-516,116	429,310	0,046	0,074
-515,102	-200,000	0,010	-0,075
-514,087	163,907	-0,088	0,091
-513,072	110,729	-0,117	-0,103
-512,058	-200,000	-0,009	-0,112
-511,043	3,268	-0,151	-0,081
-510,029	78,758	0,053	0,041
-509,014	-200,000	0,000	0,017
-507,999	-117,409	0,063	0,008
-506,985	-39,768	0,152	0,058
-505,970	-23,144	-0,082	0,036
-504,956	-78,298	-0,047	-0,012
-503,941	-200,000	-0,003	0,034
-502,926	-21,214	0,010	0,005
-501,912	-25,320	-0,102	0,044
-500,897	10,193	-0,090	0,050
-499,883	-16,181	0,084	-0,039
-498,868	38,974	-0,108	-0,071
-497,853	-175,306	-0,087	0,002
-496,839	168,665	0,040	-0,042
-495,824	99,368	0,140	0,119
-494,810	189,472	-0,039	0,043
-493,795	-56,679	-0,085	0,027
-492,781	11,856	-0,115	-0,065
-491,766	772,436	0,016	0,031
-490,751	-115,541	-0,125	-0,017
-489,737	28,570	-0,041	0,025
-488,722	-54,833	0,069	-0,023
-487,708	316,707	0,007	-0,009
-486,693	-70,895	0,076	-0,021
-485,678	12,205	0,051	0,029
-484,664	28,668	-0,063	-0,039
-483,649	148,210	0,046	-0,046
-482,635	-0,021	0,111	0,058
-481,620	800,000	-0,044	0,138
-480,605	173,664	0,055	-0,058
-479,591	800,000	-0,029	0,074
-478,576	-45,571	-0,051	0,018
-477,562	-95,361	0,066	-0,013
-476,547	-106,570	-0,070	-0,011
-475,532	20,045	0,100	0,059
-474,518	-200,000	0,010	0,113
-473,503	-153,309	0,060	-0,003
-472,489	-200,000	0,033	0,124
-471,474	124,771	0,054	0,050
-470,459	800,000	-0,025	0,064
-469,445	800,000	0,047	-0,106
-468,430	43,365	0,049	-0,033
-467,416	800,000	-0,028	0,081
-466,401	10,789	0,076	-0,043
-465,386	800,000	-0,018	-0,051
-464,372	127,172	0,064	-0,060
-463,357	-200,000	-0,023	-0,139
-462,343	-200,000	-0,003	-0,071
-461,328	-200,000	0,026	-0,204
-460,313	265,423	-0,072	-0,093
-459,299	-200,000	0,010	0,052
-458,284	-67,315	0,064	-0,018
-457,270	422,390	-0,052	0,082
-456,255	-200,000	-0,041	-0,144
-455,241	-106,569	-0,089	-0,014
-454,226	-152,041	-0,109	-0,006
-453,211	800,000	-0,034	-0,105
-452,197	176,050	-0,044	0,047
-451,182	-93,061	0,090	-0,018
-450,168	214,267	0,026	-0,030
-449,153	-200,000	0,006	-0,066
-448,138	-169,614	-0,124	0,003
-447,124	103,012	-0,049	0,042
-446,109	800,000	-0,042	0,116
-445,095	347,075	0,086	0,124
-444,080	705,734	0,060	0,117
-443,065	-200,000	-0,036	0,139
-442,051	189,448	-0,027	0,030
-441,036	257,352	-0,028	-0,036
-440,022	-9,846	0,054	0,026
-439,007	-200,000	0,006	0,068
-437,992	-70,593	0,032	-0,009
-436,978	-16,481	0,113	0,052
-435,963	23,690	-0,044	-0,027
-434,949	-200,000	-0,025	-0,155
-433,934	-35,460	-0,054	-0,021
-432,919	38,361	-0,012	0,008
-431,905	-93,738	-0,119	-0,024
-430,890	-99,295	0,140	-0,026
-429,876	-200,000	-0,003	0,025
-428,861	-165,016	0,132	-0,004
-427,846	132,595	-0,052	0,049
-426,832	672,777	-0,047	-0,090
-425,817	800,000	-0,073	0,158
-424,803	-200,000	-0,007	0,043
-423,788	-200,000	-0,004	0,105
-422,773	-2,173	0,121	-0,062
-421,759	298,595	0,038	-0,052
-420,744	32,573	0,051	-0,032
-419,730	13,283	-0,040	-0,023
-418,715	224,725	-0,048	-0,057
-417,701	-200,000	0,064	-0,244
-416,686	-33,956	-0,107	-0,043
-415,671	-200,000	0,040	0,167
-414,657	-21,676	-0,110	0,049
-413,642	112,122	0,142	-0,126
-412,628	-80,447	-0,098	-0,024
-411,613	-62,321	-0,081	-0,025
-410,598	-138,944	0,150	0,012
-409,584	-200,000	0,001	0,054
-408,569	800,000	-0,060	0,130
-407,555	266,776	-0,066	0,085
-406,540	-99,855	-0,121	-0,022
-405,525	-28,092	-0,131	0,055
-404,511	-200,000	0,002	0,015
-403,496	-35,209	-0,133	-0,053
-402,482	87,416	-0,061	-0,050
-401,467	-144,934	0,070	-0,005
-400,452	40,530	0,074	0,049
-399,438	183,559	0,032	-0,035
-398,423	295,846	-0,051	-0,068
-397,409	422,958	-0,028	-0,044
-396,394	216,919	0,110	-0,128
-395,379	-109,457	-0,078	-0,012
-394,365	166,753	0,026	0,027
-393,350	-200,000	-0,003	0,174
-392,336	-200,000	-0,011	-0,098
-391,321	156,701	0,046	-0,047
-390,306	80,692	0,101	-0,080
-389,292	-137,119	0,051	-0,004
-388,277	-110,121	-0,102	0,015
-387,263	-144,665	0,078	0,005
-386,248	33,170	-0,051	-0,033
-385,233	-103,926	0,057	-0,010
-384,219	-6,336	-0,070	-0,035
-383,204	75,335	-0,084	0,065
-382,190	-200,000	0,006	0,139
-381,175	-200,000	0,016	0,109
-380,160	313,174	-0,033	0,045
-379,146	58,484	0,085	0,061
-378,131	-62,535	0,004	0,001
-377,117	-32,801	-0,118	-0,048
-376,102	190,986	0,095	0,105
-375,088	15,548	0,046	-0,026
-374,073	36,577	-0,200	0,129
-373,058	-135,467	0,131	0,011
-372,044	-200,000	0,027	0,101
-371,029	-85,858	0,062	-0,014
-370,015	-200,000	0,007	0,123
-369,000	-187,804	0,069	-0,001
-367,985	-22,900	-0,078	-0,034
-366,971	245,771	0,071	-0,088
-365,956	741,539	-0,066	0,129
-364,942	19,391	-0,026	0,015
-363,927	-200,000	-0,026	0,198
-362,912	265,216	-0,046	0,059
-361,898	-200,000	0,011	-0,186
-360,883	23,034	-0,098	0,059
-359,869	697,949	0,019	0,036
-358,854	-200,000	0,058	-0,000
-357,839	-200,000	0,016	0,053
-356,825	-200,000	0,005	0,050
-355,810	75,718	0,082	0,063
-354,796	719,434	0,011	0,021
-353,781	-95,428	0,079	-0,015
-352,766	55,007	0,078	0,055
-351,752	-200,000	0,014	-0,048
-350,737	90,961	-0,051	-0,042
-349,723	800,000	0,031	0,096
-348,708	-200,000	0,013	0,093
-347,693	-200,000	0,013	0,062
-346,679	126,894	0,061	0,057
-345,664	-200,000	-0,015	-0,104
-344,650	-7,912	0,073	0,036
-343,635	-46,358	0,098	-0,035
-342,620	-200,000	-0,046	-0,201
-341,606	93,758	-0,065	-0,054
-340,591	-176,871	0,048	-0,001
-339,577	-111,696	0,042	-0,006
-338,562	800,000	-0,030	-0,077
-337,548	-53,016	-0,108	-0,036
-336,533	336,867	0,044	0,063
-335,518	17,175	-0,059	0,034
-334,504	-102,958	-0,088	0,015
-333,489	-66,749	-0,039	-0,011
-332,475	-200,000	0,009	-0,050
-331,460	-200,000	0,002	-0,038
-330,445	-26,376	0,138	-0,059
-329,431	98,683	0,072	-0,061
-328,416	800,000	0,049	0,140
-327,402	800,000	-0,022	0,062
-326,387	800,000	0,030	0,066
-325,372	121,864	-0,053	-0,048
-324,358	-200,000	0,011	-0,038
-323,343	2,190	0,093	0,049
-322,329	-41,065	-0,099	0,037
-321,314	-112,006	0,176	0,026
-320,299	150,008	-0,034	0,033
-319,285	159,534	-0,082	0,083
-318,270	800,000	0,063	-0,169
-317,256	-200,000	-0,019	-0,137
-316,241	66,686	-0,052	-0,039
-315,226	-200,000	-0,003	0,130
-314,212	-200,000	0,045	0,151
-313,197	-200,000	0,000	-0,014
-312,183	-128,503	0,093	0,010
-311,168	216,639	-0,038	-0,044
-310,153	800,000	-0,066	-0,150
-309,139	-126,689	-0,090	-0,010
-308,124	800,000	0,029	0,079
-307,110	37,524	-0,036	-0,023
-306,095	-200,000	-0,005	0,089
-305,080	-200,000	0,023	0,111
-304,066	-200,000	0,001	0,075
-303,051	-200,000	0,045	-0,173
-302,037	-32,750	0,005	-0,002
-301,022	-46,992	-0,058	0,020
-300,008	39,123	0,120	-0,078
-298,993	-200,000	-0,006	-0,057
-297,978	67,822	0,026	-0,020
-296,964	-200,000	0,007	-0,059
-295,949	-200,000	0,007	0,071
-294,935	800,000	-0,016	-0,050
-293,920	294,884	0,092	-0,123
-292,905	-11,640	0,011	0,005
-291,891	232,616	0,036	0,043
-290,876	-52,946	0,045	0,015
-289,862	-200,000	-0,013	-0,104
-288,847	-67,066	-0,113	0,032
-287,832	194,896	-0,045	0,050
-286,818	250,313	-0,092	-0,115
-285,803	377,239	0,017	-0,026
-284,789	0,522	-0,092	-0,048
-283,774	-162,825	-0,071	-0,002
-282,759	-29,305	-0,089	-0,037
-281,745	240,878	0,044	0,054
-280,730	-3,297	0,041	-0,021
-279,716	800,000	-0,065	-0,134
-278,701	800,000	0,018	0,050
-277,686	79,452	-0,043	-0,034
-276,672	-200,000	0,011	-0,044
-275,657	428,313	0,059	-0,094
-274,643	-122,573	-0,199	0,023
-273,628	168,813	0,008	-0,008
-272,613	-200,000	0,010	-0,115
-271,599	7,198	0,140	-0,076
-270,584	800,000	0,025	-0,051
-269,570	-200,000	-0,019	-0,126
-268,555	-178,728	-0,027	-0,000
-267,540	-200,000	-0,013	0,152
-266,526	28,785	-0,136	-0,084
-265,511	659,348	0,019	-0,036
-264,497	800,000	-0,040	-0,088
-263,482	-200,000	0,041	0,146
-262,467	152,460	0,078	0,078
-261,453	-200,000	0,010	0,041
-260,438	0,525	-0,108	-0,056
-259,424	-81,988	-0,130	-0,031
-258,409	532,433	-0,096	-0,167
-257,395	800,000	0,045	-0,098
-256,380	-107,374	0,117	0,019
-255,365	-64,023	-0,065	-0,019
-254,351	-200,000	0,017	-0,064
-253,336	-200,000	-0,070	-0,235
-252,322	-33,508	-0,190	-0,076
-251,307	-99,464	0,071	-0,013
-250,292	358,838	0,056	0,082
-249,278	800,000	0,035	0,084
-248,263	321,362	-0,050	0,069
-247,249	-87,034	0,143	0,031
-246,234	-80,259	-0,053	0,013
-245,219	-74,467	-0,044	0,012
-244,205	-11,770	-0,074	-0,035
-243,190	689,611	0,064	-0,123
-242,176	51,837	0,056	0,039
-241,161	-35,002	0,158	-0,062
-240,146	154,706	0,158	0,158
-239,132	556,458	-0,074	0,131
-238,117	-118,007	-0,023	0,003
-237,103	185,109	-0,103	-0,111
-236,088	-160,923	-0,118	0,004
-235,073	-200,000	0,034	0,177
-234,059	460,241	0,032	0,052
-233,044	-200,000	0,003	-0,063
-232,030	-174,363	0,115	0,002
-231,015	-200,000	-0,033	-0,120
-230,000	-80,678	0,027	0,006
-228,986	224,611	0,072	-0,085
-227,971	33,351	0,068	0,043
-226,957	-25,844	-0,041	-0,018
-225,942	800,000	0,056	0,119
-224,927	-166,291	-0,130	0,004
-223,913	-200,000	0,015	-0,067
-222,898	800,000	0,048	-0,111
-221,884	-20,086	0,031	-0,014
-220,869	-102,402	-0,220	0,038
-219,855	373,873	0,106	-0,157
-218,840	232,148	0,040	-0,048
-217,825	-46,173	-0,081	-0,029
-216,811	-200,000	-0,018	0,102
-215,796	-6,874	-0,030	-0,015
-214,782	-200,000	-0,003	-0,146
-213,767	-183,030	0,059	0,001
-212,752	-200,000	-0,003	0,053
-211,738	84,513	-0,134	0,106
-210,723	-167,584	0,026	-0,001
-209,709	9,503	0,056	-0,031
-208,694	-107,592	-0,090	0,014
-207,679	-9,740	0,123	0,059
-206,665	-114,650	-0,045	-0,006
-205,650	129,031	0,082	-0,076
-204,636	-184,624	0,170	-0,002
-203,621	-200,000	-0,003	-0,103
-202,606	-85,871	-0,229	0,051
-201,592	167,127	0,052	-0,054
-200,577	174,706	-0,072	-0,076
-199,563	-200,000	0,009	0,130
-198,548	-130,537	-0,137	0,013
-197,533	275,015	0,073	0,095
-196,519	157,320	0,038	-0,038
-195,504	-20,413	-0,046	-0,021
-194,490	-200,000	-0,013	-0,091
-193,475	-12,058	-0,032	-0,015
-192,460	-125,939	0,086	0,009
-191,446	-5,154	-0,062	0,031
-190,431	229,656	-0,097	0,115
-189,417	-69,359	0,029	-0,008
-188,402	-200,000	0,003	-0,023
-187,387	-52,244	0,074	-0,025
-186,373	-200,000	0,012	-0,075
-185,358	-152,789	0,062	-0,003
-184,344	290,626	-0,026	0,034
-183,329	-34,649	0,111	0,044
-182,315	-111,046	-0,066	0,010
-181,300	-200,000	0,016	-0,128
-180,285	107,396	0,037	0,032
-179,271	-122,826	-0,013	0,002
-178,256	-61,503	0,096	0,029
-177,242	545,497	0,042	0,073
-176,227	357,886	0,128	0,185
-175,212	-54,019	0,085	0,028
-174,198	50,030	0,180	0,123
-173,183	122,282	-0,095	0,086
-172,169	627,162	-0,058	0,107
-171,154	-79,391	0,103	-0,025
-170,139	274,696	0,107	0,138
-169,125	-200,000	-0,026	0,104
-168,110	800,000	0,039	0,096
-167,096	284,148	-0,041	0,053
-166,081	-67,777	0,073	0,021
-165,066	-56,292	-0,043	-0,014
-164,052	344,995	-0,039	0,056
-163,037	30,129	-0,092	0,057
-162,023	-200,000	-0,013	-0,128
-161,008	106,798	-0,030	0,026
-159,993	-168,189	0,137	-0,004
-158,979	-200,000	-0,001	-0,060
-157,964	61,678	-0,099	0,072
-156,950	106,823	0,166	0,143
-155,935	387,100	-0,051	0,076
-154,920	-200,000	0,017	0,057
-153,906	-78,523	0,289	0,071
-152,891	15,458	0,054	-0,031
-151,877	277,425	0,028	-0,036
-150,862	800,000	-0,026	0,063
-149,847	-200,000	-0,004	-0,115
-148,833	-103,222	-0,050	0,009
-147,818	12,612	0,053	0,030
-146,804	800,000	0,046	0,106
-145,789	11,949	0,095	-0,053
-144,775	-200,000	0,019	0,075
-143,760	-200,000	-0,009	0,135
-142,745	-200,000	-0,015	-0,071
-141,731	800,000	0,025	-0,058
-140,716	-88,136	0,153	-0,033
-139,702	250,962	-0,099	0,122
-138,687	-14,073	-0,179	-0,084
-137,672	4,257	0,089	0,047
-136,658	-200,000	-0,004	-0,069
-135,643	242,668	-0,097	-0,118
-134,629	460,403	-0,058	-0,095
-133,614	527,110	-0,033	0,056
-132,599	-200,000	-0,004	0,090
-131,585	126,497	0,038	-0,035
-130,570	-200,000	-0,022	0,102
-129,556	-154,173	-0,038	0,002
-128,541	-4,689	-0,046	0,023
-127,526	-200,000	0,025	0,088
-126,512	800,000	0,054	0,154
-125,497	-5,888	0,215	-0,106
-124,483	576,679	-0,055	0,098
-123,468	-68,693	0,169	-0,047
-122,453	800,000	-0,042	-0,126
-121,439	-163,482	0,125	0,004
-120,424	-155,870	-0,217	-0,010
-119,410	-200,000	-0,010	0,051
-118,395	514,927	0,024	-0,041
-117,380	379,772	0,033	-0,048
-116,366	-200,000	0,003	-0,041
-115,351	-200,000	-0,028	-0,100
-114,337	-200,000	-0,016	-0,085
-113,322	-106,841	-0,046	0,007
-112,307	61,927	-0,030	-0,022
-111,293	137,014	0,078	0,074
-110,278	14,190	0,119	-0,067
-109,264	0,521	-0,066	0,034
-108,249	199,451	-0,062	-0,069
-107,234	-121,979	0,010	0,001
-106,220	-200,000	-0,026	-0,092
-105,205	-200,000	0,001	0,020
-104,191	-20,838	0,031	-0,014
-103,176	-87,891	0,054	-0,012
-102,162	-200,000	-0,006	0,051
-101,147	-96,666	-0,009	0,002
-100,132	800,000	-0,052	-0,108
-99,118	-200,000	-0,004	-0,112
-98,103	66,183	-0,061	-0,045
-97,089	-200,000	0,027	-0,094
-96,074	-78,829	0,179	0,044
-95,059	6,317	-0,073	-0,039
-94,045	-200,000	-0,006	-0,119
-93,030	-200,000	0,038	0,164
-92,016	-21,705	-0,102	0,045
-91,001	800,000	0,022	0,054
-89,986	-200,000	0,057	0,207
-88,972	800,000	0,005	-0,016
-87,957	-200,000	-0,019	0,079
-86,943	648,171	-0,070	0,131
-85,928	-81,441	-0,110	-0,026
-84,913	-200,000	0,004	0,055
-83,899	-200,000	0,017	-0,056
-82,884	150,601	-0,019	0,018
-81,870	-172,199	-0,057	0,001
-80,855	-200,000	0,007	0,042
-79,840	-200,000	-0,013	-0,083
-78,826	177,157	-0,161	-0,170
-77,811	644,151	-0,023	-0,043
-76,797	54,057	0,110	0,076
-75,782	-136,895	-0,138	0,011
-74,767	284,275	0,066	0,086
-73,753	800,000	-0,035	-0,072
-72,738	120,360	0,027	0,025
-71,724	-19,518	-0,032	-0,014
-70,709	28,661	-0,163	-0,100
-69,694	3,720	-0,110	-0,058
-68,680	388,247	0,105	0,157
-67,665	312,765	0,072	0,098
-66,651	-17,928	0,013	-0,006
-65,636	53,897	-0,077	-0,054
-64,622	-200,000	-0,036	-0,153
-63,607	137,998	-0,097	0,092
-62,592	-56,871	0,074	-0,024
-61,578	800,000	-0,100	0,208
-60,563	-200,000	-0,016	0,140
-59,549	174,144	-0,045	0,047
-58,534	-46,070	-1,559	-0,552
-57,519	800,000	-0,583	-1,288
-56,505	-200,000	-1,087	-4,741
-55,490	-92,656	0,639	-0,128
-54,476	800,000	5,319	12,021
-53,461	-200,000	15,104	264,591
-52,446	800,000	697,808	2197,285
-51,432	546,979	1618,044	2807,081
-50,417	118,910	1626,815	1451,989
-49,403	78,986	1284,574	992,367
-48,388	36,857	1025,917	653,646
-47,373	22,013	986,907	579,855
-46,359	21,044	975,742	570,087
-45,344	19,519	971,636	562,668
-44,330	19,633	970,170	562,173
-43,315	19,319	968,695	560,268
-42,300	19,335	967,484	559,595
-41,286	19,305	966,639	558,990
-40,271	19,339	965,600	558,477
-39,257	19,351	964,877	558,076
-38,242	19,287	964,017	557,347
-37,227	19,283	963,277	556,885
-36,213	19,312	962,272	556,377
-35,198	19,312	961,472	555,891
-34,184	19,342	960,615	555,471
-33,169	19,196	959,776	554,491
-32,154	19,333	958,771	554,330
-31,140	19,347	957,957	553,885
-30,125	19,300	957,227	553,289
-29,111	19,360	956,299	552,923
-28,096	19,319	955,679	552,410
-27,082	19,337	954,923	552,009
-26,067	19,364	954,243	551,682
-25,052	19,334	953,375	551,061
-24,038	19,357	952,813	550,787
-23,023	19,295	952,253	550,243
-22,009	19,339	951,485	549,920
-20,994	19,360	950,885	549,617
-19,979	19,374	950,074	549,171
-18,965	19,296	949,793	548,739
-17,950	19,331	948,962	548,350
-16,936	19,221	948,501	547,707
-15,921	19,203	947,875	547,266
-14,906	19,207	947,024	546,766
-13,892	19,162	946,557	546,333
-12,877	19,153	945,854	545,878
-11,863	19,198	945,114	545,572
-10,848	19,201	944,672	545,302
-9,833	19,316	944,060	545,294
-8,819	19,288	943,436	544,822
-7,804	19,250	942,864	544,351
-6,790	19,165	942,376	543,778
-5,775	19,225	941,645	543,524
-4,760	19,222	941,131	543,196
-3,746	19,195	940,462	542,705
-2,731	19,034	939,665	541,711
-1,717	19,064	938,978	541,391
-0,702	19,032	938,406	540,936
0,313	18,842	937,853	540,834
1,327	22,000	935,964	549,661
2,342	31,195	795,215	491,442
3,356	28,444	450,618	274,321
4,371	-0,750	295,913	150,848
5,386	-4,797	277,080	137,384
6,400	-6,066	271,644	133,491
7,415	-6,488	269,481	132,026
8,429	-6,449	268,158	131,402
9,444	-6,564	267,260	130,844
10,459	-6,521	266,524	130,512
11,473	-6,740	266,090	130,087
12,488	-6,896	265,407	129,600
13,502	-7,225	264,789	128,987
14,517	-7,134	264,456	128,896
15,531	-7,161	263,918	128,597
16,546	-7,284	263,558	128,299
17,561	-7,220	263,188	128,165
18,575	-7,146	262,850	128,056
19,590	-7,342	262,448	127,672
20,604	-7,026	262,111	127,781
21,619	-7,212	261,851	127,476
22,634	-7,308	261,567	127,240
23,648	-7,363	261,220	127,011
24,663	-7,513	261,040	126,778
25,677	-7,239	260,643	126,818
26,692	-7,344	260,432	126,611
27,707	-7,311	260,145	126,489
28,721	-7,307	259,873	126,350
29,736	-7,591	259,797	126,048
30,750	-7,537	259,515	125,948
31,765	-7,474	259,081	125,782
32,780	-7,540	258,784	125,568
33,794	-7,238	258,596	125,733
34,809	-7,432	258,463	125,486
35,823	-7,410	258,227	125,379
36,838	-7,321	257,781	125,230
37,853	-7,490	257,699	125,030
38,867	-7,476	257,400	124,887
39,882	-7,479	257,226	124,788
40,896	-7,497	257,048	124,675
41,911	-7,714	256,826	124,364
42,926	-7,555	256,519	124,345
43,940	-7,761	256,448	124,118
44,955	-7,571	256,011	124,062
45,969	-7,622	256,009	124,006
46,984	-7,994	255,701	123,519
47,999	-7,925	255,233	123,342
49,013	-8,164	255,038	123,028
50,028	-8,255	254,776	122,811
51,042	-8,316	254,576	122,651
52,057	-8,457	254,455	122,458
53,071	-8,459	254,147	122,297
54,086	-8,217	253,893	122,375
55,101	-8,114	253,841	122,429
56,115	-7,830	253,744	122,618
57,130	-7,436	253,764	122,959
58,144	-7,040	253,455	123,142
59,159	-6,985	253,296	123,101
60,174	-7,029	253,127	122,971
61,188	-7,086	252,764	122,734
62,203	-7,220	252,581	122,518
63,217	-7,347	252,410	122,315
64,232	-7,352	252,175	122,185
65,247	-7,140	252,053	122,298
66,261	-7,227	251,811	122,095
67,276	-7,598	251,538	121,633
68,290	-7,722	251,259	121,380
69,305	-7,859	251,056	121,154
70,320	-7,652	250,754	121,174
71,334	-7,628	250,755	121,185
72,349	-7,234	250,712	121,492
73,363	-7,075	250,344	121,439
74,378	-7,117	250,158	121,301
75,393	-7,374	249,923	120,957
76,407	-7,534	249,881	120,789
77,422	-7,208	249,569	120,906
78,436	-7,427	249,550	120,698
79,451	-7,314	249,138	120,585
80,466	-7,630	249,050	120,263
81,480	-7,561	248,566	120,077
82,495	-7,706	248,526	119,924
83,509	-7,649	248,406	119,903
84,524	-7,595	247,992	119,738
85,539	-7,878	247,692	119,344
86,553	-7,923	247,684	119,291
87,568	-7,805	247,422	119,254
88,582	-7,542	247,292	119,403
89,597	-7,644	247,028	119,179
90,611	-7,608	246,976	119,173
91,626	-7,647	246,953	119,119
92,641	-7,517	246,768	119,129
93,655	-7,349	246,335	119,050
94,670	-7,479	246,066	118,801
95,684	-7,674	246,249	118,714
96,699	-7,585	246,008	118,662
97,714	-7,477	245,597	118,544
98,728	-7,574	245,470	118,390
99,743	-7,879	245,348	118,066
100,757	-7,994	245,111	117,845
101,772	-7,780	244,867	117,896
102,787	-7,779	244,753	117,831
103,801	-7,525	244,613	117,965
104,816	-7,403	244,400	117,954
105,830	-7,334	244,255	117,931
106,845	-7,194	244,128	117,975
107,860	-7,327	244,000	117,792
108,874	-7,434	243,668	117,533
109,889	-7,712	243,559	117,238
110,903	-7,404	243,281	117,350
111,918	-7,475	243,164	117,225
112,933	-7,567	242,973	117,045
113,947	-7,553	242,793	116,960
114,962	-7,425	242,612	116,969
115,976	-7,335	242,363	116,912
116,991	-7,584	242,185	116,611
118,006	-7,309	242,058	116,766
119,020	-7,363	242,023	116,694
120,035	-7,321	241,789	116,605
121,049	-7,010	241,700	116,808
122,064	-7,219	241,383	116,472
123,079	-7,325	241,145	116,260
124,093	-7,478	241,021	116,064
125,108	-7,516	240,920	115,974
126,122	-7,777	240,450	115,524
127,137	-8,015	240,364	115,278
128,151	-7,895	240,292	115,331
129,166	-7,453	240,030	115,556
130,181	-7,732	239,828	115,221
131,195	-7,807	239,697	115,087
132,210	-7,602	239,622	115,207
133,224	-7,313	239,363	115,308
134,239	-7,518	239,283	115,092
135,254	-7,420	239,144	115,095
136,268	-7,642	238,831	114,754
137,283	-7,842	238,519	114,431
138,297	-8,101	238,365	114,137
139,312	-7,820	238,210	114,281
140,327	-7,388	238,005	114,522
141,341	-7,301	238,166	114,659
142,356	-6,988	238,041	114,842
143,370	-7,059	237,768	114,643
144,385	-7,155	237,609	114,479
145,400	-6,964	237,614	114,625
146,414	-7,031	237,394	114,455
147,429	-7,141	237,157	114,241
148,443	-7,120	236,877	114,113
149,458	-7,066	236,732	114,077
150,473	-6,999	236,626	114,070
151,487	-7,014	236,365	113,921
152,502	-6,922	236,205	113,908
153,516	-7,007	236,118	113,787
154,531	-7,086	235,996	113,655
155,546	-7,152	235,825	113,509
156,560	-6,994	235,559	113,498
157,575	-7,268	235,422	113,203
158,589	-7,246	235,223	113,115
159,604	-6,936	235,019	113,254
160,619	-7,045	234,979	113,137
161,633	-7,066	234,863	113,055
162,648	-7,150	234,697	112,897
163,662	-7,132	234,540	112,827
164,677	-7,008	234,252	112,776
165,692	-6,925	234,170	112,793
166,706	-6,920	234,061	112,734
167,721	-6,784	233,955	112,781
168,735	-6,868	233,624	112,545
169,750	-6,568	233,504	112,714
170,764	-6,817	233,437	112,475
171,779	-6,923	233,388	112,357
172,794	-6,708	233,070	112,365
173,808	-6,971	232,953	112,090
174,823	-7,540	232,472	111,401
175,837	-7,696	232,455	111,259
176,852	-7,155	232,373	111,637
177,867	-6,878	232,236	111,778
178,881	-6,801	232,092	111,760
179,896	-6,893	232,000	111,633
180,910	-7,032	232,002	111,515
181,925	-6,731	231,526	111,512
182,940	-6,800	231,657	111,512
183,954	-6,711	231,403	111,449
184,969	-6,857	231,297	111,274
185,983	-6,693	231,093	111,294
186,998	-6,743	231,024	111,212
188,013	-6,655	230,823	111,174
189,027	-6,974	230,708	110,860
190,042	-6,809	230,539	110,897
191,056	-6,594	230,274	110,927
192,071	-6,631	230,156	110,832
193,086	-6,849	230,054	110,602
194,100	-6,484	229,947	110,825
195,115	-6,203	229,777	110,952
196,129	-6,153	229,825	111,004
197,144	-2,430	231,032	114,484
198,159	1,629	232,071	118,163
199,173	3,385	232,512	119,750
200,188	3,472	232,433	119,767
201,202	3,379	232,380	119,656
202,217	3,685	232,298	119,843
203,232	4,121	232,174	120,108
204,246	4,124	231,951	119,984
205,261	4,323	231,789	120,044
206,275	4,265	231,753	119,970
207,290	4,391	231,596	119,977
208,304	4,480	231,339	119,901
209,319	4,219	231,232	119,632
210,334	4,218	231,048	119,526
211,348	3,979	230,825	119,215
212,363	3,600	230,572	118,780
213,377	3,498	230,292	118,546
214,392	3,479	230,110	118,427
215,407	3,577	230,086	118,480
216,421	3,504	230,061	118,400
217,436	3,469	229,846	118,252
218,450	3,289	229,448	117,898
219,465	3,219	229,376	117,797
220,480	3,258	229,309	117,782
221,494	3,313	229,195	117,756
222,509	3,364	229,036	117,702
223,523	3,399	228,873	117,635
224,538	3,207	228,620	117,347
225,553	3,368	228,575	117,437
226,567	3,711	228,380	117,589
227,582	3,837	228,423	117,697
228,596	3,974	228,189	117,671
229,611	3,555	228,080	117,283
230,626	3,388	227,832	117,019
231,640	3,111	227,585	116,670
232,655	3,754	227,390	117,050
233,669	3,998	227,520	117,292
234,684	4,209	227,536	117,450
235,699	3,973	227,135	117,053
236,713	3,437	226,949	116,540
237,728	3,428	226,774	116,432
238,742	3,367	226,568	116,270
239,757	3,421	226,442	116,236
240,772	3,497	226,290	116,206
241,786	3,590	225,963	116,097
242,801	3,463	226,104	116,063
243,815	3,551	226,027	116,080
244,830	4,063	225,790	116,335
245,844	3,809	225,559	116,014
246,859	3,602	225,550	115,842
247,874	3,817	225,261	115,846
248,888	3,879	225,294	115,899
249,903	3,570	225,236	115,626
250,917	3,515	224,921	115,413
251,932	3,526	224,738	115,316
252,947	3,433	224,487	115,108
253,961	3,071	224,441	114,802
254,976	3,359	224,347	114,960
255,990	3,434	224,337	115,001
257,005	3,788	224,188	115,180
258,020	3,819	223,898	115,044
259,034	4,002	223,724	115,081
260,049	3,726	223,584	114,792
261,063	3,537	223,533	114,615
262,078	3,958	223,350	114,825
263,093	3,945	223,264	114,761
264,107	3,819	223,130	114,587
265,122	3,826	222,901	114,465
266,136	3,901	222,776	114,447
267,151	3,841	222,765	114,386
268,166	3,588	222,375	113,988
269,180	3,353	222,141	113,683
270,195	3,366	222,077	113,649
271,209	3,325	221,954	113,546
272,224	3,439	221,849	113,568
273,239	3,410	221,872	113,547
274,253	3,326	221,503	113,286
275,268	3,267	221,291	113,124
276,282	3,094	221,213	112,946
277,297	3,205	221,026	112,923
278,312	3,268	220,893	112,891
279,326	3,324	220,958	112,956
280,341	3,449	220,711	112,911
281,355	3,622	220,492	112,917
282,370	3,498	220,358	112,747
283,384	3,277	220,011	112,397
284,399	3,128	220,078	112,311
285,414	3,219	219,833	112,243
286,428	3,450	219,825	112,399
287,443	3,526	219,717	112,389
288,457	3,436	219,612	112,259
289,472	3,462	219,293	112,105
290,487	2,984	219,117	111,656
291,501	3,134	218,929	111,659
292,516	3,139	218,868	111,622
293,530	3,221	218,741	111,607
294,545	3,035	218,732	111,457
295,560	3,401	218,600	111,647
296,574	3,599	218,410	111,684
297,589	3,333	218,317	111,433
298,603	3,538	218,238	111,531
299,618	3,448	218,038	111,354
300,633	3,729	217,803	111,428
301,647	3,745	217,812	111,434
302,662	3,817	217,683	111,410
303,676	3,707	217,664	111,311
304,691	3,522	217,465	111,066
305,706	3,680	217,228	111,049
306,720	3,630	217,093	110,934
307,735	3,553	216,853	110,746
308,749	3,140	216,695	110,357
309,764	3,736	216,668	110,763
310,779	3,941	216,580	110,856
311,793	3,769	216,386	110,624
312,808	3,668	216,320	110,507
313,822	3,767	216,129	110,471
314,837	3,606	215,995	110,276
315,852	3,328	215,842	109,989
316,866	3,399	215,712	109,964
317,881	3,534	215,673	110,031
318,895	3,804	215,378	110,064
319,910	3,697	215,226	109,900
320,925	3,090	215,111	109,397
321,939	3,108	214,795	109,240
322,954	3,212	214,717	109,265
323,968	3,432	214,865	109,487
324,983	3,707	214,750	109,615
325,997	3,835	214,573	109,607
327,012	3,803	214,298	109,433
328,027	3,513	214,211	109,173
329,041	3,684	214,314	109,337
330,056	3,859	214,098	109,342
331,070	3,705	213,693	109,016
332,085	3,462	213,571	108,771
333,100	3,325	213,544	108,651
334,114	3,425	213,402	108,640
335,129	3,690	213,149	108,689
336,143	3,469	213,026	108,460
337,158	3,488	212,919	108,409
338,173	3,361	212,850	108,274
339,187	3,358	212,622	108,147
340,202	3,143	212,416	107,882
341,216	3,166	212,312	107,835
342,231	3,263	212,291	107,883
343,246	3,467	212,054	107,897
344,260	3,277	212,100	107,777
345,275	3,311	211,905	107,692
346,289	3,523	211,756	107,755
347,304	3,399	211,595	107,576
348,319	3,295	211,459	107,425
349,333	3,498	211,391	107,523
350,348	3,401	211,219	107,359
351,362	3,748	211,230	107,597
352,377	3,566	211,042	107,365
353,392	3,415	210,914	107,184
354,406	3,623	210,793	107,258
355,421	195,538	1341,819	1428,799
356,435	156,171	1479,663	1428,851
