DTS Sentinel unit serial number:	SN410029Multiplexer serial number:	ORYXHardware model number:	OX2-SRSoftware version number:	ORYX F/W v4,00 Oryx Data Collector v3.7.2.0data status	okinstallation	B6 Nyhavnadifferential loss correction	single-endedforward channel	channel 2reverse channel	N/Adate	2023/12/10time	18:50:08forward acquisition time	300,00reverse acquisition time	0,00gamma	499,1914k internal	0,3123k external	0,3123temperature offset calibration	1,0000default loss term (dB/km)	0,3820temperature slope calibration	1,0000multiplexer offset coefficient	1,0000multiplexer slope coefficient	1,0000fibre end	0,00T internal ref (°C)	22,35T ext. ref 1 (°C)	6,02T ext. ref 2 (°C)	6,02length (m)	temperature (°C)	Stokes	anti-Stokes-744,400	123,124	0,028	-0,026
-743,385	-140,443	-0,139	-0,011
-742,371	-124,518	-0,114	-0,013
-741,356	130,812	-0,188	0,180
-740,342	-49,929	0,095	0,033
-739,327	-18,189	-0,220	0,102
-738,312	-200,000	0,058	-0,196
-737,298	-115,509	-0,426	-0,059
-736,283	628,903	-0,049	-0,092
-735,269	33,760	-0,269	0,174
-734,254	800,000	0,026	0,069
-733,239	-41,657	-0,381	-0,145
-732,225	-17,037	0,147	-0,069
-731,210	800,000	0,015	0,042
-730,196	576,691	-0,021	0,038
-729,181	760,228	-0,035	-0,070
-728,167	-19,158	-0,013	0,006
-727,152	-49,294	-0,113	-0,040
-726,137	-145,387	-0,043	0,003
-725,123	143,319	-0,039	-0,039
-724,108	-89,854	0,028	-0,006
-723,094	145,235	0,148	-0,148
-722,079	296,894	-0,003	-0,004
-721,064	-200,000	0,035	0,154
-720,050	186,316	0,022	-0,024
-719,035	-200,000	0,045	-0,149
-718,021	-17,638	0,007	0,003
-717,006	-92,685	-0,062	-0,013
-715,991	-37,669	-0,160	-0,063
-714,977	204,916	-0,052	-0,060
-713,962	35,050	-0,105	0,068
-712,948	-200,000	-0,003	0,018
-711,933	4,693	-0,129	-0,070
-710,918	285,043	0,080	-0,108
-709,904	-158,178	-0,150	0,006
-708,889	74,572	-0,141	-0,110
-707,875	468,953	-0,003	-0,004
-706,860	65,114	-0,081	-0,061
-705,845	-130,646	-0,128	0,013
-704,831	-200,000	-0,009	0,155
-703,816	-182,777	-0,201	-0,003
-702,802	205,162	-0,036	-0,042
-701,787	-51,294	-0,114	0,040
-700,772	800,000	0,009	-0,022
-699,758	188,745	-0,017	0,019
-698,743	800,000	0,012	-0,029
-697,729	800,000	-0,046	0,140
-696,714	76,630	-0,087	0,068
-695,699	420,874	-0,109	-0,175
-694,685	-200,000	-0,003	0,100
-693,670	-33,756	-0,078	-0,032
-692,656	800,000	0,024	0,074
-691,641	178,282	0,130	0,142
-690,627	-0,086	0,073	0,039
-689,612	442,321	-0,040	0,066
-688,597	-200,000	-0,022	0,107
-687,583	-40,272	-0,140	0,054
-686,568	-163,239	0,074	-0,003
-685,554	-200,000	-0,030	0,113
-684,539	96,250	-0,099	-0,084
-683,524	800,000	0,026	-0,077
-682,510	114,425	-0,079	-0,071
-681,495	-200,000	-0,010	0,074
-680,481	625,571	-0,049	-0,092
-679,466	-200,000	-0,010	-0,129
-678,451	9,559	-0,077	0,043
-677,437	119,661	-0,026	-0,024
-676,422	800,000	-0,031	0,093
-675,408	110,612	-0,091	0,081
-674,393	-63,252	0,113	-0,034
-673,378	-200,000	-0,007	-0,063
-672,364	75,371	-0,054	-0,042
-671,349	38,571	-0,212	-0,140
-670,335	-200,000	0,008	0,034
-669,320	21,983	0,092	-0,056
-668,305	341,201	-0,037	0,054
-667,291	-57,283	0,085	0,027
-666,276	-200,000	0,003	0,119
-665,262	-200,000	-0,003	-0,012
-664,247	288,856	-0,069	0,093
-663,232	-58,317	0,083	0,027
-662,218	-35,325	0,089	0,036
-661,203	51,105	-0,030	-0,021
-660,189	331,895	-0,037	-0,053
-659,174	800,000	0,011	0,036
-658,159	-200,000	0,010	-0,115
-657,145	-200,000	-0,000	-0,071
-656,130	-52,764	0,080	-0,027
-655,116	-200,000	0,001	0,020
-654,101	800,000	0,016	-0,041
-653,086	163,932	-0,120	-0,125
-652,072	-200,000	0,016	0,101
-651,057	-162,673	-0,114	0,004
-650,043	-111,636	-0,067	0,010
-649,028	-50,758	0,140	0,049
-648,014	48,064	0,011	-0,007
-646,999	79,571	-0,084	0,067
-645,984	-102,965	-0,065	-0,011
-644,970	-200,000	-0,011	0,079
-643,955	-200,000	0,005	-0,090
-642,941	582,699	-0,025	-0,046
-641,926	-64,885	0,102	-0,030
-640,911	-200,000	0,004	0,017
-639,897	290,816	-0,016	0,022
-638,882	-49,359	-0,041	-0,015
-637,868	-200,000	0,019	-0,110
-636,853	192,356	-0,083	-0,093
-635,838	-16,621	-0,171	0,080
-634,824	255,809	0,027	-0,035
-633,809	-200,000	0,014	-0,051
-632,795	-112,596	-0,113	-0,017
-631,780	-96,944	0,091	-0,017
-630,765	-118,152	-0,073	-0,010
-629,751	-200,000	-0,012	-0,069
-628,736	1,782	0,082	0,044
-627,722	105,093	-0,106	0,093
-626,707	-116,707	0,093	-0,013
-625,692	-52,623	0,089	-0,030
-624,678	800,000	0,028	-0,078
-623,663	-137,161	-0,186	-0,016
-622,649	216,391	0,039	-0,046
-621,634	800,000	-0,017	0,039
-620,619	-155,916	-0,176	-0,008
-619,605	92,927	0,035	-0,029
-618,590	-200,000	0,004	-0,053
-617,576	270,856	-0,034	-0,044
-616,561	182,209	-0,123	-0,135
-615,546	-35,126	-0,073	0,029
-614,532	-200,000	0,005	0,020
-613,517	-157,397	0,093	-0,004
-612,503	-3,065	-0,097	-0,050
-611,488	-46,775	0,089	-0,032
-610,474	249,894	-0,070	0,088
-609,459	-200,000	-0,034	0,240
-608,444	800,000	-0,039	-0,096
-607,430	800,000	0,051	-0,136
-606,415	131,991	0,046	-0,044
-605,401	196,407	-0,062	-0,070
-604,386	-53,089	-0,162	0,055
-603,371	-170,804	0,079	0,002
-602,357	-200,000	0,017	0,090
-601,342	788,873	-0,056	0,115
-600,328	447,404	-0,034	0,055
-599,313	31,302	-0,087	-0,055
-598,298	-200,000	-0,001	-0,034
-597,284	142,374	-0,011	0,010
-596,269	-200,000	0,006	0,129
-595,255	251,028	0,044	-0,056
-594,240	372,442	0,064	-0,096
-593,225	-30,120	-0,141	-0,059
-592,211	-66,252	-0,098	-0,029
-591,196	129,418	-0,089	0,084
-590,182	-73,052	0,105	-0,028
-589,167	248,062	-0,062	-0,078
-588,152	438,736	-0,050	0,081
-587,138	-200,000	-0,016	0,125
-586,123	86,439	-0,029	0,024
-585,109	69,813	-0,140	-0,107
-584,094	-200,000	-0,001	-0,005
-583,079	-166,797	0,050	-0,001
-582,065	-200,000	-0,008	0,114
-581,050	265,284	-0,021	0,028
-580,036	-200,000	0,018	-0,075
-579,021	-200,000	0,001	-0,014
-578,006	-96,851	-0,066	0,013
-576,992	102,697	-0,062	-0,054
-575,977	-200,000	0,025	0,133
-574,963	-55,625	-0,021	0,007
-573,948	-200,000	-0,029	-0,130
-572,934	800,000	-0,021	0,046
-571,919	302,841	0,059	-0,081
-570,904	105,775	-0,036	-0,032
-569,890	-200,000	-0,013	-0,236
-568,875	-48,492	0,083	-0,029
-567,861	136,147	0,076	-0,073
-566,846	800,000	0,015	0,036
-565,831	31,523	0,069	0,044
-564,817	498,005	-0,029	0,050
-563,802	87,527	0,032	-0,026
-562,788	-200,000	0,009	0,073
-561,773	-19,024	-0,105	-0,048
-560,758	800,000	-0,034	0,095
-559,744	97,261	0,047	-0,040
-558,729	-17,526	0,044	-0,020
-557,715	-146,387	-0,076	0,005
-556,700	419,784	0,041	-0,066
-555,685	73,600	-0,058	-0,045
-554,671	-32,415	0,073	-0,030
-553,656	200,948	0,086	0,099
-552,642	171,031	0,162	0,172
-551,627	110,653	-0,166	-0,147
-550,612	371,638	0,055	0,083
-549,598	361,266	0,050	-0,074
-548,583	800,000	-0,055	-0,132
-547,569	2,123	-0,037	-0,020
-546,554	277,655	0,073	0,097
-545,539	8,660	-0,020	0,011
-544,525	-87,917	0,030	-0,007
-543,510	56,435	0,056	-0,040
-542,496	-121,341	0,072	-0,009
-541,481	-117,340	-0,150	-0,020
-540,466	-144,544	-0,029	0,002
-539,452	297,098	0,068	0,093
-538,437	32,535	0,096	0,061
-537,423	36,096	0,048	0,031
-536,408	286,932	-0,110	0,147
-535,393	800,000	0,009	-0,027
-534,379	32,358	-0,105	-0,067
-533,364	-200,000	-0,002	-0,023
-532,350	800,000	-0,044	0,119
-531,335	724,976	0,034	0,068
-530,321	96,518	0,086	0,073
-529,306	420,486	-0,059	-0,093
-528,291	265,258	0,040	-0,052
-527,277	206,297	-0,028	-0,032
-526,262	-157,004	-0,078	0,003
-525,248	-123,987	0,082	0,009
-524,233	-35,585	0,020	0,008
-523,218	105,223	0,071	0,062
-522,204	-197,707	-0,046	-0,000
-521,189	-200,000	-0,012	-0,115
-520,175	-200,000	0,014	-0,071
-519,160	-7,508	-0,072	0,036
-518,145	355,597	-0,029	-0,043
-517,131	-23,378	-0,135	0,060
-516,116	111,643	0,036	0,032
-515,102	-200,000	0,023	-0,124
-514,087	800,000	-0,033	-0,095
-513,072	-200,000	0,015	-0,116
-512,058	-200,000	-0,000	-0,072
-511,043	-200,000	-0,034	-0,167
-510,029	-200,000	0,009	0,069
-509,014	-15,775	0,034	0,016
-507,999	-200,000	-0,003	0,076
-506,985	-200,000	0,005	0,031
-505,970	-200,000	-0,003	-0,128
-504,956	453,009	0,056	-0,091
-503,941	-35,108	0,138	0,055
-502,926	772,531	-0,049	-0,099
-501,912	1,431	0,078	-0,041
-500,897	-56,282	0,045	0,015
-499,883	-126,978	0,152	0,016
-498,868	-145,834	-0,126	-0,008
-497,853	163,270	-0,112	-0,116
-496,839	176,008	0,035	-0,038
-495,824	339,839	0,054	-0,078
-494,810	800,000	0,034	-0,107
-493,795	415,732	-0,002	-0,004
-492,781	-200,000	0,012	0,067
-491,766	-200,000	-0,035	-0,117
-490,751	-200,000	-0,001	-0,119
-489,737	-85,451	0,018	0,004
-488,722	-44,484	0,071	-0,026
-487,708	619,756	-0,078	0,146
-486,693	800,000	0,025	0,073
-485,678	124,695	-0,063	0,059
-484,664	-104,509	-0,181	-0,031
-483,649	-60,166	-0,114	0,036
-482,635	-45,470	-0,074	0,027
-481,620	162,755	-0,069	0,072
-480,605	-36,670	-0,056	0,022
-479,591	-63,615	-0,101	0,030
-478,576	9,440	0,073	0,041
-477,562	-200,000	-0,013	-0,074
-476,547	285,233	-0,041	0,055
-475,532	-0,793	-0,104	0,054
-474,518	-75,565	0,021	0,005
-473,503	-200,000	-0,008	0,155
-472,489	-200,000	0,005	0,105
-471,474	-99,017	-0,041	0,008
-470,459	-59,761	-0,125	0,039
-469,445	520,434	-0,053	-0,093
-468,430	-101,932	0,026	0,005
-467,416	-94,094	0,096	-0,019
-466,401	-104,626	0,167	-0,028
-465,386	120,573	0,013	0,012
-464,372	-107,284	-0,111	0,018
-463,357	800,000	-0,034	-0,096
-462,343	639,723	0,058	-0,110
-461,328	61,979	0,043	-0,032
-460,313	172,063	0,025	0,027
-459,299	51,154	0,085	-0,059
-458,284	200,004	0,171	0,194
-457,270	234,441	-0,023	0,028
-456,255	195,829	0,127	-0,142
-455,241	37,324	-0,100	0,065
-454,226	-200,000	-0,001	-0,069
-453,211	16,987	-0,049	-0,029
-452,197	499,213	0,044	0,075
-451,182	-142,311	0,085	0,006
-450,168	-79,914	-0,064	0,016
-449,153	800,000	0,010	-0,026
-448,138	800,000	-0,030	-0,066
-447,124	-200,000	0,005	0,044
-446,109	-41,914	0,092	-0,034
-445,095	-179,687	0,050	0,001
-444,080	-21,149	0,073	0,033
-443,065	279,919	0,035	0,046
-442,051	-200,000	0,014	0,060
-441,036	800,000	0,026	0,066
-440,022	-66,114	-0,116	-0,034
-439,007	-200,000	0,038	-0,155
-437,992	800,000	-0,019	-0,056
-436,978	-200,000	0,007	0,092
-435,963	452,844	-0,054	-0,088
-434,949	-200,000	-0,006	-0,142
-433,934	-200,000	0,104	0,000
-432,919	800,000	-0,023	0,048
-431,905	28,219	-0,136	-0,085
-430,890	441,510	0,092	-0,148
-429,876	-56,254	0,003	0,001
-428,861	85,929	0,131	0,106
-427,846	-22,414	0,047	0,021
-426,832	-174,152	0,015	-0,000
-425,817	293,304	-0,049	-0,066
-424,803	-111,507	0,008	0,001
-423,788	-46,297	0,043	-0,015
-422,773	-18,412	0,057	0,026
-421,759	249,503	-0,040	0,050
-420,744	-200,000	0,006	0,040
-419,730	461,296	0,010	-0,016
-418,715	-31,006	-0,072	0,030
-417,701	219,727	-0,068	-0,080
-416,686	800,000	-0,014	0,041
-415,671	129,379	-0,022	-0,021
-414,657	434,634	0,026	0,042
-413,642	-200,000	-0,008	0,061
-412,628	-40,533	0,021	-0,008
-411,613	-77,524	0,009	-0,002
-410,598	103,153	-0,138	0,119
-409,584	-75,593	0,137	0,036
-408,569	-53,726	0,126	-0,042
-407,555	-200,000	-0,016	0,063
-406,540	82,187	0,132	-0,105
-405,525	-82,211	0,091	0,022
-404,511	17,622	0,042	-0,024
-403,496	800,000	-0,039	-0,109
-402,482	505,651	-0,053	0,090
-401,467	14,831	0,145	-0,083
-400,452	-43,177	0,042	0,015
-399,438	-6,313	0,091	-0,045
-398,423	800,000	0,030	0,090
-397,409	-200,000	-0,009	0,140
-396,394	420,391	0,083	-0,132
-395,379	239,184	-0,075	0,092
-394,365	800,000	-0,006	0,013
-393,350	800,000	-0,027	0,057
-392,336	271,270	-0,034	-0,044
-391,321	176,185	-0,039	0,042
-390,306	-101,089	-0,048	0,009
-389,292	800,000	-0,046	-0,116
-388,277	-99,394	0,050	-0,009
-387,263	163,403	-0,057	0,059
-386,248	-200,000	0,023	0,119
-385,233	800,000	0,064	0,185
-384,219	-200,000	-0,043	0,140
-383,204	127,144	0,064	-0,060
-382,190	107,266	-0,023	-0,020
-381,175	-112,320	-0,123	-0,018
-380,160	173,744	0,036	0,039
-379,146	-200,000	-0,022	0,121
-378,131	162,853	0,041	-0,043
-377,117	-200,000	0,010	-0,039
-376,102	58,439	-0,119	0,086
-375,088	34,180	0,150	-0,096
-374,073	256,659	-0,078	-0,098
-373,058	171,294	0,031	0,033
-372,044	-114,540	0,104	-0,015
-371,029	20,072	-0,075	-0,044
-370,015	-200,000	-0,024	-0,137
-369,000	-200,000	0,001	-0,038
-367,985	-97,184	0,110	0,021
-366,971	800,000	0,024	-0,077
-365,956	38,984	0,080	0,052
-364,942	650,588	0,054	0,102
-363,927	-70,819	-0,059	-0,016
-362,912	-200,000	-0,001	0,059
-361,898	79,541	0,139	0,109
-360,883	-90,506	0,009	0,002
-359,869	-41,730	-0,168	-0,063
-358,854	800,000	0,025	0,060
-357,839	-160,401	0,028	0,001
-356,825	0,211	0,108	-0,056
-355,810	451,359	-0,016	0,026
-354,796	-200,000	-0,024	-0,140
-353,781	223,041	-0,058	-0,068
-352,766	-200,000	-0,007	-0,027
-351,752	-57,511	0,109	0,035
-350,737	-200,000	0,001	0,050
-349,723	-200,000	0,046	0,159
-348,708	177,247	-0,103	-0,111
-347,693	73,202	0,087	-0,067
-346,679	800,000	-0,014	-0,033
-345,664	402,041	-0,064	0,099
-344,650	-200,000	0,007	0,054
-343,635	-200,000	-0,011	-0,058
-342,620	213,074	0,046	-0,054
-341,606	800,000	0,045	0,103
-340,591	-200,000	0,024	0,101
-339,577	-200,000	-0,003	-0,070
-338,562	-200,000	-0,014	-0,063
-337,548	205,229	-0,041	-0,047
-336,533	-200,000	-0,000	-0,075
-335,518	-200,000	-0,003	-0,063
-334,504	525,887	0,045	0,079
-333,489	-132,506	0,026	-0,002
-332,475	-31,105	-0,066	0,027
-331,460	255,266	-0,112	-0,142
-330,445	66,552	0,093	-0,069
-329,431	-200,000	-0,034	0,284
-328,416	-200,000	-0,018	0,085
-327,402	103,120	-0,047	-0,040
-326,387	366,853	-0,037	-0,055
-325,372	97,150	-0,103	0,087
-324,358	-101,755	0,027	0,005
-323,343	5,526	0,033	-0,018
-322,329	82,224	-0,126	0,100
-321,314	800,000	-0,025	0,063
-320,299	31,840	-0,020	0,012
-319,285	279,401	0,026	0,034
-318,270	29,231	0,044	-0,027
-317,256	-200,000	0,014	-0,058
-316,241	165,136	0,035	-0,037
-315,226	132,920	0,113	-0,107
-314,212	-65,965	0,117	0,034
-313,197	140,120	0,093	0,090
-312,183	-69,079	0,135	0,038
-311,168	137,145	0,064	-0,061
-310,153	800,000	0,023	0,052
-309,139	616,156	0,067	-0,124
-308,124	400,998	-0,082	0,127
-307,110	355,361	0,070	0,102
-306,095	232,509	0,011	0,013
-305,080	-146,347	0,034	0,002
-304,066	230,274	-0,071	0,085
-303,051	-105,009	-0,100	0,017
-302,037	126,501	-0,067	0,062
-301,022	-187,962	0,103	-0,001
-300,008	800,000	0,035	-0,092
-298,993	-200,000	0,023	0,079
-297,978	-200,000	-0,015	-0,057
-296,964	-89,643	0,013	-0,003
-295,949	-200,000	0,003	0,030
-294,935	-200,000	0,002	-0,092
-293,920	-200,000	-0,017	-0,058
-292,905	-200,000	0,015	0,052
-291,891	-200,000	-0,019	-0,062
-290,876	800,000	0,025	0,064
-289,862	800,000	-0,006	-0,013
-288,847	-28,815	-0,181	-0,076
-287,832	-200,000	0,004	-0,029
-286,818	-170,434	-0,172	-0,004
-285,803	129,772	0,089	0,083
-284,789	443,351	-0,046	0,075
-283,774	800,000	0,065	0,199
-282,759	-200,000	-0,009	-0,059
-281,745	-173,807	0,083	-0,002
-280,730	-44,432	-0,086	-0,032
-279,716	-25,775	0,086	-0,037
-278,701	-102,420	0,053	-0,009
-277,686	800,000	-0,020	0,055
-276,672	-18,311	-0,065	0,030
-275,657	408,418	0,092	0,143
-274,643	85,500	-0,083	-0,067
-273,628	-90,064	0,072	-0,015
-272,613	800,000	-0,029	0,062
-271,599	-111,758	0,063	-0,009
-270,584	696,151	0,009	-0,017
-269,570	-38,053	0,130	0,050
-268,555	317,875	0,025	0,035
-267,540	-1,869	-0,076	-0,039
-266,526	54,470	0,063	-0,044
-265,511	304,359	-0,088	0,120
-264,497	179,470	0,132	-0,142
-263,482	-200,000	0,007	-0,098
-262,467	602,608	0,023	-0,042
-261,453	-35,826	-0,045	-0,018
-260,438	800,000	0,035	0,077
-259,424	-200,000	-0,012	0,062
-258,409	-0,232	0,073	0,038
-257,395	120,161	-0,086	0,078
-256,380	66,319	0,056	0,042
-255,365	-200,000	-0,021	0,093
-254,351	800,000	0,031	0,081
-253,336	-3,520	-0,102	-0,052
-252,322	-83,958	-0,014	0,003
-251,307	61,562	-0,109	-0,079
-250,292	-18,517	0,039	0,018
-249,278	800,000	0,046	0,096
-248,263	14,516	0,118	0,067
-247,249	192,580	0,068	0,075
-246,234	-200,000	-0,017	0,105
-245,219	-200,000	-0,003	0,086
-244,205	94,178	-0,066	0,054
-243,190	0,334	0,094	-0,049
-242,176	-200,000	0,042	-0,138
-241,161	800,000	-0,006	0,015
-240,146	571,581	-0,048	-0,086
-239,132	800,000	0,034	0,087
-238,117	54,800	-0,227	-0,160
-237,103	800,000	-0,026	-0,057
-236,088	-200,000	-0,002	-0,063
-235,073	-153,504	-0,036	-0,002
-234,059	800,000	0,040	-0,089
-233,044	0,243	-0,164	0,085
-232,030	165,927	0,020	-0,021
-231,015	385,989	0,102	-0,154
-230,000	96,372	0,115	-0,096
-228,986	57,089	-0,046	0,032
-227,971	99,327	0,084	-0,071
-226,957	-200,000	0,018	0,091
-225,942	66,553	-0,063	0,046
-224,927	291,948	0,051	-0,068
-223,913	-200,000	0,028	-0,104
-222,898	185,729	-0,086	-0,093
-221,884	-127,516	-0,094	-0,010
-220,869	-76,753	0,069	-0,018
-219,855	-200,000	-0,011	-0,079
-218,840	178,319	0,050	-0,053
-217,825	258,927	0,070	0,089
-216,811	-200,000	0,048	0,184
-215,796	-200,000	-0,058	0,186
-214,782	-18,371	0,137	0,062
-213,767	-200,000	-0,006	0,122
-212,752	739,690	-0,006	-0,011
-211,738	-101,329	0,067	0,012
-210,723	-200,000	0,045	0,156
-209,709	54,522	-0,077	0,054
-208,694	522,543	0,137	-0,235
-207,679	400,584	-0,033	-0,051
-206,665	24,797	-0,084	0,051
-205,650	-151,127	0,124	-0,007
-204,636	246,881	-0,092	-0,113
-203,621	492,260	-0,048	-0,080
-202,606	31,622	-0,060	0,038
-201,592	31,681	-0,052	-0,033
-200,577	-200,000	-0,007	-0,068
-199,563	-145,819	-0,071	-0,005
-198,548	-200,000	-0,011	0,174
-197,533	-163,218	0,119	-0,004
-196,519	704,542	0,046	0,089
-195,504	267,321	0,062	-0,080
-194,490	192,590	-0,136	-0,150
-193,475	-129,139	0,075	0,008
-192,460	-96,399	-0,134	0,026
-191,446	313,880	-0,006	0,009
-190,431	136,321	0,092	0,087
-189,417	74,407	0,075	-0,057
-188,402	-3,461	-0,157	-0,079
-187,387	39,080	-0,055	-0,036
-186,373	800,000	0,016	0,033
-185,358	800,000	-0,005	-0,009
-184,344	62,705	0,103	0,075
-183,329	622,454	0,037	0,068
-182,315	-70,399	0,049	0,014
-181,300	800,000	-0,070	-0,142
-180,285	15,995	0,066	0,038
-179,271	99,191	-0,068	-0,057
-178,256	-200,000	-0,017	0,077
-177,242	103,733	-0,064	0,055
-176,227	95,418	-0,036	0,030
-175,212	-10,646	0,081	0,039
-174,198	546,432	0,034	-0,060
-173,183	107,419	-0,096	-0,083
-172,169	-88,450	0,090	0,019
-171,154	-95,394	-0,042	-0,008
-170,139	86,107	0,176	0,141
-169,125	-77,735	-0,104	-0,026
-168,110	398,759	-0,062	0,095
-167,096	-182,680	-0,051	0,001
-166,081	-200,000	-0,049	0,199
-165,066	-200,000	-0,003	0,015
-164,052	-89,167	-0,123	0,026
-163,037	-65,299	0,096	0,028
-162,023	-200,000	-0,024	-0,081
-161,008	-200,000	0,004	0,034
-159,993	81,915	-0,013	-0,011
-158,979	-200,000	-0,002	-0,085
-157,964	800,000	0,065	-0,138
-156,950	800,000	-0,021	-0,060
-155,935	721,485	0,018	-0,035
-154,920	-200,000	-0,023	0,204
-153,906	-122,368	-0,031	-0,004
-152,891	24,157	-0,063	-0,038
-151,877	333,286	0,040	-0,056
-150,862	-117,589	-0,044	-0,006
-149,847	-200,000	-0,001	-0,133
-148,833	-81,731	0,099	0,023
-147,818	800,000	-0,008	0,022
-146,804	334,450	0,038	-0,054
-145,789	800,000	0,062	0,189
-144,775	-121,339	-0,151	-0,018
-143,760	372,570	0,059	0,088
-142,745	58,881	0,032	-0,023
-141,731	-39,611	0,088	-0,034
-140,716	240,483	-0,009	0,011
-139,702	17,205	0,058	-0,034
-138,687	-200,000	0,009	0,123
-137,672	497,041	0,079	0,134
-136,658	800,000	-0,070	-0,148
-135,643	13,650	-0,108	-0,061
-134,629	-121,773	0,106	-0,013
-133,614	40,447	0,058	-0,038
-132,599	800,000	-0,006	0,016
-131,585	4,895	0,115	0,061
-130,570	163,867	-0,077	-0,079
-129,556	124,851	-0,029	-0,026
-128,541	305,655	0,035	-0,047
-127,526	-190,445	-0,062	-0,000
-126,512	585,210	0,009	-0,016
-125,497	113,947	0,064	-0,057
-124,483	-151,609	-0,104	-0,005
-123,468	800,000	0,036	0,091
-122,453	800,000	-0,051	-0,133
-121,439	-100,946	-0,105	-0,019
-120,424	-20,920	0,088	0,039
-119,410	-200,000	0,001	-0,063
-118,395	83,176	-0,020	0,016
-117,380	-45,904	0,129	0,046
-116,366	210,313	0,076	-0,086
-115,351	72,929	-0,036	-0,027
-114,337	-200,000	0,012	-0,095
-113,322	42,752	-0,028	0,019
-112,307	129,098	0,135	-0,125
-111,293	263,191	0,049	-0,062
-110,278	-200,000	-0,021	0,093
-109,264	-43,505	0,034	0,012
-108,249	-200,000	-0,003	-0,033
-107,234	27,065	-0,112	0,068
-106,220	-200,000	-0,004	0,037
-105,205	800,000	-0,005	0,017
-104,191	-61,946	0,134	-0,041
-103,176	20,795	0,151	0,089
-102,162	-93,275	-0,104	-0,021
-101,147	800,000	-0,024	0,075
-100,132	-57,798	0,064	-0,020
-99,118	30,407	-0,062	0,038
-98,103	87,372	-0,070	0,056
-97,089	-200,000	-0,019	-0,096
-96,074	132,719	0,085	-0,079
-95,059	-200,000	0,012	0,138
-94,045	-4,347	-0,033	0,017
-93,030	-16,203	-0,083	-0,038
-92,016	594,795	0,010	-0,018
-91,001	800,000	0,037	0,076
-89,986	700,582	-0,093	0,178
-88,972	-200,000	0,031	0,134
-87,957	-152,614	0,117	0,006
-86,943	-88,626	-0,128	-0,027
-85,928	586,198	0,082	-0,147
-84,913	-33,191	0,034	0,014
-83,899	320,257	-0,047	0,066
-82,884	800,000	-0,037	0,106
-81,870	-200,000	0,051	0,185
-80,855	-200,000	-0,006	-0,182
-79,840	-12,854	-0,097	0,045
-78,826	-200,000	-0,006	-0,119
-77,811	-200,000	0,003	-0,061
-76,797	-5,813	-0,095	-0,047
-75,782	-41,301	0,172	-0,064
-74,767	-200,000	-0,015	0,068
-73,753	136,551	-0,098	-0,093
-72,738	800,000	-0,045	0,099
-71,724	-200,000	0,032	-0,159
-70,709	235,276	0,036	-0,044
-69,694	-49,909	-0,139	-0,048
-68,680	46,813	0,103	0,070
-67,665	467,147	0,030	-0,049
-66,651	-11,931	0,074	0,035
-65,636	324,852	-0,063	0,088
-64,622	278,557	-0,065	-0,084
-63,607	284,386	0,010	0,013
-62,592	-124,092	-0,083	-0,009
-61,578	-160,039	0,130	-0,005
-60,563	210,050	0,041	0,047
-59,549	282,098	-0,102	0,133
-58,534	-119,091	-1,334	-0,167
-57,519	563,527	-0,854	-1,507
-56,505	-200,000	-0,815	-4,535
-55,490	83,078	0,542	-0,427
-54,476	800,000	4,920	11,984
-53,461	-200,000	13,645	252,901
-52,446	-200,000	689,751	2258,015
-51,432	590,764	1622,354	2916,453
-50,417	119,251	1635,045	1467,855
-49,403	73,196	1289,028	977,084
-48,388	37,983	1024,349	659,565
-47,373	24,337	982,040	587,432
-46,359	23,559	971,670	578,654
-45,344	22,569	967,242	572,760
-44,330	22,488	965,916	571,687
-43,315	22,383	964,301	570,365
-42,300	22,315	963,398	569,588
-41,286	22,343	962,527	569,143
-40,271	22,371	961,395	568,542
-39,257	22,310	960,725	567,925
-38,242	22,333	959,649	567,339
-37,227	22,379	958,761	566,942
-36,213	22,377	957,721	566,296
-35,198	22,298	957,022	565,607
-34,184	22,347	956,365	565,354
-33,169	22,352	955,383	564,768
-32,154	22,348	954,689	564,322
-31,140	22,420	953,641	563,911
-30,125	22,354	953,118	563,369
-29,111	22,375	952,097	562,809
-28,096	22,343	951,539	562,354
-27,082	22,383	950,738	561,986
-26,067	22,415	949,834	561,533
-25,052	22,368	949,224	560,998
-24,038	22,401	948,556	560,688
-23,023	22,429	947,925	560,384
-22,009	22,431	947,378	560,042
-20,994	22,417	946,683	559,564
-19,979	22,453	945,975	559,241
-18,965	22,438	945,469	558,871
-17,950	22,388	944,850	558,322
-16,936	22,381	943,972	557,761
-15,921	22,378	943,535	557,469
-14,906	22,256	942,904	556,687
-13,892	22,341	941,924	556,356
-12,877	22,256	941,515	555,822
-11,863	22,284	940,827	555,482
-10,848	22,238	940,297	555,003
-9,833	22,347	939,881	555,079
-8,819	22,358	939,216	554,701
-7,804	22,272	938,673	554,086
-6,790	22,304	937,979	553,754
-5,775	22,290	937,348	553,316
-4,760	22,268	936,838	552,923
-3,746	22,283	936,104	552,515
-2,731	22,158	935,400	551,683
-1,717	22,087	934,800	551,084
-0,702	22,084	934,031	550,600
0,313	21,868	933,472	550,421
1,327	25,050	931,430	559,172
2,342	34,782	796,081	503,836
3,356	32,852	451,664	282,923
4,371	1,731	293,942	153,062
5,386	-2,876	274,887	138,764
6,400	-4,236	269,016	134,526
7,415	-4,809	266,593	132,774
8,429	-4,616	265,472	132,381
9,444	-4,664	264,478	131,830
10,459	-4,367	263,841	131,771
11,473	-4,486	263,259	131,360
12,488	-4,729	262,789	130,894
13,502	-4,746	262,172	130,560
14,517	-4,841	261,942	130,348
15,531	-4,631	261,482	130,297
16,546	-4,612	261,088	130,106
17,561	-4,524	260,681	129,970
18,575	-4,438	260,287	129,840
19,590	-4,739	260,125	129,477
20,604	-4,496	259,675	129,460
21,619	-4,613	259,348	129,180
22,634	-4,553	259,021	129,060
23,648	-4,589	258,738	128,875
24,663	-4,849	258,747	128,636
25,677	-4,707	258,299	128,528
26,692	-4,683	258,100	128,439
27,707	-4,589	257,664	128,294
28,721	-4,641	257,505	128,158
29,736	-4,693	257,254	127,974
30,750	-4,696	256,981	127,825
31,765	-4,844	256,745	127,565
32,780	-4,798	256,474	127,460
33,794	-4,742	256,299	127,410
34,809	-4,710	256,047	127,303
35,823	-4,617	255,764	127,232
36,838	-4,754	255,543	126,991
37,853	-4,931	255,454	126,780
38,867	-4,737	255,078	126,752
39,882	-4,921	255,047	126,564
40,896	-4,857	254,617	126,395
41,911	-4,783	254,354	126,318
42,926	-5,003	254,297	126,086
43,940	-4,934	254,161	126,067
44,955	-4,648	253,588	126,022
45,969	-5,042	253,532	125,639
46,984	-5,085	253,377	125,513
47,999	-5,152	252,780	125,148
49,013	-5,492	252,642	124,773
50,028	-5,767	252,498	124,452
51,042	-5,494	252,252	124,556
52,057	-5,627	251,974	124,293
53,071	-5,451	251,761	124,329
54,086	-5,498	251,814	124,303
55,101	-5,551	251,521	124,102
56,115	-5,059	251,396	124,454
57,130	-4,733	251,344	124,699
58,144	-4,540	251,168	124,767
59,159	-4,581	250,950	124,612
60,174	-4,650	250,791	124,463
61,188	-4,578	250,648	124,443
62,203	-4,725	250,415	124,190
63,217	-4,821	250,110	123,945
64,232	-4,825	249,980	123,866
65,247	-4,523	249,718	123,984
66,261	-4,519	249,504	123,871
67,276	-4,968	249,361	123,404
68,290	-5,274	249,076	122,990
69,305	-5,280	248,799	122,837
70,320	-5,309	248,576	122,691
71,334	-4,898	248,441	122,964
72,349	-4,633	248,345	123,132
73,363	-4,752	248,244	122,970
74,378	-4,546	248,022	123,024
75,393	-4,616	247,650	122,769
76,407	-4,580	247,358	122,643
77,422	-4,633	247,273	122,546
78,436	-4,609	247,050	122,445
79,451	-4,775	246,971	122,254
80,466	-4,703	246,626	122,133
81,480	-5,025	246,468	121,771
82,495	-5,057	246,235	121,618
83,509	-4,978	246,045	121,581
84,524	-4,840	245,925	121,627
85,539	-5,041	245,510	121,242
86,553	-5,161	245,380	121,066
87,568	-5,099	245,412	121,123
88,582	-4,962	245,124	121,085
89,597	-5,129	244,904	120,825
90,611	-4,981	244,906	120,940
91,626	-4,749	244,613	120,979
92,641	-4,829	244,454	120,822
93,655	-4,849	244,210	120,674
94,670	-4,849	243,923	120,521
95,684	-4,935	243,868	120,411
96,699	-4,790	243,783	120,480
97,714	-5,057	243,590	120,151
98,728	-4,936	243,306	120,101
99,743	-5,150	242,973	119,749
100,757	-5,150	242,924	119,713
101,772	-5,123	242,641	119,586
102,787	-5,059	242,552	119,584
103,801	-5,038	242,500	119,565
104,816	-4,934	242,291	119,538
105,830	-4,796	242,165	119,580
106,845	-4,925	242,036	119,399
107,860	-4,855	241,861	119,359
108,874	-4,870	241,461	119,139
109,889	-5,029	241,489	119,010
110,903	-4,926	241,186	118,936
111,918	-5,152	241,028	118,661
112,933	-4,816	240,732	118,781
113,947	-4,747	240,568	118,747
114,962	-4,658	240,557	118,804
115,976	-4,671	240,336	118,673
116,991	-4,852	240,054	118,375
118,006	-5,001	239,916	118,174
119,020	-4,731	239,878	118,366
120,035	-4,808	239,700	118,205
121,049	-4,730	239,592	118,205
122,064	-4,853	239,433	118,016
123,079	-4,753	239,166	117,955
124,093	-4,884	238,820	117,667
125,108	-5,153	238,780	117,417
126,122	-5,308	238,417	117,101
127,137	-5,202	238,350	117,145
128,151	-5,127	238,304	117,173
129,166	-5,194	238,099	117,007
130,181	-5,010	237,802	117,000
131,195	-5,183	237,624	116,762
132,210	-5,088	237,446	116,740
133,224	-4,829	237,321	116,879
134,239	-5,000	237,481	116,809
135,254	-4,790	237,023	116,743
136,268	-4,871	236,830	116,572
137,283	-5,153	236,456	116,150
138,297	-5,188	236,420	116,094
139,312	-5,224	236,117	115,905
140,327	-4,897	236,131	116,165
141,341	-4,423	236,017	116,481
142,356	-4,548	235,966	116,344
143,370	-4,538	235,919	116,319
144,385	-4,400	235,627	116,275
145,400	-4,228	235,444	116,313
146,414	-4,781	235,358	115,816
147,429	-4,479	235,077	115,910
148,443	-4,632	234,981	115,730
149,458	-4,552	234,699	115,644
150,473	-4,418	234,630	115,707
151,487	-4,623	234,438	115,439
152,502	-4,514	234,241	115,418
153,516	-4,466	234,089	115,371
154,531	-4,595	234,012	115,220
155,546	-4,680	233,786	115,030
156,560	-4,562	233,490	114,968
157,575	-4,711	233,244	114,719
158,589	-4,691	233,185	114,695
159,604	-4,524	233,114	114,783
160,619	-4,397	232,884	114,760
161,633	-4,359	232,847	114,762
162,648	-4,428	232,661	114,605
163,662	-4,726	232,522	114,290
164,677	-4,580	232,283	114,278
165,692	-4,529	232,303	114,318
166,706	-4,413	232,085	114,292
167,721	-4,364	231,947	114,254
168,735	-4,176	231,683	114,261
169,750	-4,384	231,625	114,059
170,764	-4,441	231,537	113,960
171,779	-4,506	231,312	113,788
172,794	-4,304	231,200	113,882
173,808	-4,626	231,044	113,541
174,823	-5,148	230,639	112,923
175,837	-5,245	230,471	112,755
176,852	-4,729	230,492	113,159
177,867	-4,722	230,428	113,123
178,881	-4,324	230,246	113,335
179,896	-4,318	229,992	113,205
180,910	-4,202	229,921	113,250
181,925	-4,469	229,738	112,942
182,940	-4,359	229,659	112,979
183,954	-4,361	229,564	112,920
184,969	-4,327	229,274	112,794
185,983	-4,402	229,291	112,734
186,998	-4,320	229,053	112,671
188,013	-4,035	228,905	112,810
189,027	-4,209	228,690	112,559
190,042	-4,334	228,500	112,357
191,056	-4,282	228,397	112,337
192,071	-4,177	228,169	112,297
193,086	-4,379	228,052	112,073
194,100	-4,278	227,916	112,074
195,115	-4,722	227,488	111,511
196,129	-5,373	227,253	110,883
197,144	-2,134	228,440	113,963
198,159	2,308	229,498	117,932
199,173	4,233	230,105	119,729
200,188	4,360	229,736	119,626
201,202	4,411	229,619	119,594
202,217	4,536	229,620	119,680
203,232	4,739	229,444	119,735
204,246	4,813	229,250	119,681
205,261	4,794	229,233	119,647
206,275	5,032	229,130	119,765
207,290	4,936	228,961	119,592
208,304	4,870	228,959	119,530
209,319	4,827	228,717	119,360
210,334	4,846	228,463	119,231
211,348	4,821	228,174	119,050
212,363	4,536	227,843	118,648
213,377	4,170	227,753	118,309
214,392	4,259	227,601	118,288
215,407	4,114	227,548	118,139
216,421	4,305	227,455	118,227
217,436	4,134	227,218	117,962
218,450	3,892	226,904	117,604
219,465	3,826	226,840	117,509
220,480	3,998	226,647	117,530
221,494	3,923	226,629	117,453
222,509	3,823	226,511	117,306
223,523	3,951	226,398	117,334
224,538	4,130	225,942	117,224
225,553	4,103	225,992	117,218
226,567	4,240	225,872	117,250
227,582	4,241	225,809	117,208
228,596	4,381	225,709	117,251
229,611	4,233	225,507	117,024
230,626	4,035	225,296	116,754
231,640	3,960	225,037	116,552
232,655	4,289	225,002	116,773
233,669	4,596	225,125	117,059
234,684	4,841	224,832	117,082
235,699	4,460	224,692	116,710
236,713	4,205	224,433	116,373
237,728	3,998	224,177	116,073
238,742	3,945	224,109	115,987
239,757	4,104	223,871	115,974
240,772	4,042	223,792	115,876
241,786	4,177	223,523	115,828
242,801	4,120	223,596	115,813
243,815	4,584	223,469	116,085
244,830	4,489	223,223	115,875
245,844	4,160	223,159	115,585
246,859	4,309	222,952	115,579
247,874	4,500	222,703	115,583
248,888	4,545	222,723	115,617
249,903	4,134	222,531	115,199
250,917	4,002	222,389	115,017
251,932	4,158	222,190	115,020
252,947	3,877	222,042	114,724
253,961	4,126	221,765	114,756
254,976	4,023	221,678	114,624
255,990	4,151	221,756	114,750
257,005	4,336	221,632	114,813
258,020	4,219	221,533	114,664
259,034	4,426	221,468	114,774
260,049	4,478	221,113	114,619
261,063	4,132	221,061	114,325
262,078	4,579	220,788	114,505
263,093	4,516	220,797	114,452
264,107	4,059	220,629	114,016
265,122	4,360	220,541	114,184
266,136	4,560	220,390	114,243
267,151	4,773	220,185	114,284
268,166	4,107	219,905	113,637
269,180	3,750	219,787	113,303
270,195	3,873	219,677	113,326
271,209	3,915	219,398	113,204
272,224	4,058	219,336	113,267
273,239	4,083	219,274	113,243
274,253	4,155	218,991	113,140
275,268	3,820	218,860	112,816
276,282	3,945	218,568	112,747
277,297	3,805	218,535	112,618
278,312	3,797	218,618	112,645
279,326	4,133	218,269	112,700
280,341	3,963	218,176	112,518
281,355	4,101	218,175	112,608
282,370	4,055	217,916	112,431
283,384	3,932	217,733	112,237
284,399	3,747	217,570	112,008
285,414	3,989	217,569	112,173
286,428	4,143	217,411	112,195
287,443	4,241	217,228	112,161
288,457	4,145	217,175	112,054
289,472	4,127	217,032	111,958
290,487	3,875	216,631	111,558
291,501	3,620	216,525	111,308
292,516	3,930	216,427	111,473
293,530	4,205	216,274	111,583
294,545	3,781	216,311	111,284
295,560	3,874	216,113	111,240
296,574	4,113	215,992	111,341
297,589	3,838	215,985	111,128
298,603	4,014	215,797	111,149
299,618	4,082	215,622	111,098
300,633	4,097	215,517	111,045
301,647	4,370	215,536	111,242
302,662	4,454	215,383	111,213
303,676	4,187	215,202	110,918
304,691	4,078	215,134	110,794
305,706	4,511	214,914	110,983
306,720	4,335	214,807	110,791
307,735	4,057	214,509	110,428
308,749	3,898	214,465	110,281
309,764	4,109	214,382	110,380
310,779	4,262	214,261	110,417
311,793	4,141	214,042	110,208
312,808	4,286	213,937	110,248
313,822	4,151	213,638	109,988
314,837	4,166	213,531	109,933
315,852	3,894	213,367	109,645
316,866	3,967	213,216	109,610
317,881	4,340	213,159	109,837
318,895	4,440	213,034	109,833
319,910	4,087	212,856	109,481
320,925	3,779	212,687	109,165
321,939	3,712	212,423	108,973
322,954	3,759	212,335	108,951
323,968	4,009	212,398	109,151
324,983	4,337	212,218	109,281
325,997	4,375	212,102	109,238
327,012	3,921	211,903	108,805
328,027	4,054	211,920	108,898
329,041	4,366	211,894	109,096
330,056	4,367	211,699	108,987
331,070	4,245	211,380	108,727
332,085	3,922	211,189	108,392
333,100	4,116	211,089	108,467
334,114	4,397	210,973	108,596
335,129	4,301	210,800	108,429
336,143	4,064	210,641	108,171
337,158	4,004	210,560	108,078
338,173	3,837	210,435	107,887
339,187	3,829	210,208	107,755
340,202	3,978	210,013	107,750
341,216	3,658	209,937	107,477
342,231	3,762	209,753	107,446
343,246	3,924	209,745	107,545
344,260	3,840	209,685	107,446
345,275	3,874	209,507	107,370
346,289	4,323	209,449	107,643
347,304	4,159	209,315	107,451
348,319	4,179	209,052	107,321
349,333	4,039	208,941	107,156
350,348	4,324	208,890	107,319
351,362	4,371	208,758	107,274
352,377	4,254	208,633	107,119
353,392	4,383	208,414	107,087
354,406	4,028	208,424	106,836
355,421	193,656	1344,154	1431,888
356,435	154,511	1482,624	1431,998
