DTS Sentinel unit serial number:	SN410029Multiplexer serial number:	ORYXHardware model number:	OX2-SRSoftware version number:	ORYX F/W v4,00 Oryx Data Collector v3.7.2.0data status	okinstallation	B6 Nyhavnadifferential loss correction	single-endedforward channel	channel 2reverse channel	N/Adate	2023/12/07time	17:30:08forward acquisition time	300,00reverse acquisition time	0,00gamma	499,1914k internal	0,3163k external	0,3163temperature offset calibration	1,0000default loss term (dB/km)	0,3820temperature slope calibration	1,0000multiplexer offset coefficient	1,0000multiplexer slope coefficient	1,0000fibre end	0,00T internal ref (°C)	14,44T ext. ref 1 (°C)	-2,46T ext. ref 2 (°C)	-2,47length (m)	temperature (°C)	Stokes	anti-Stokes-744,400	-14,174	0,093	0,044
-743,385	-119,497	-0,190	-0,024
-742,371	-106,292	0,226	-0,037
-741,356	196,207	-0,146	0,164
-740,342	800,000	0,050	0,149
-739,327	-116,817	-0,477	0,064
-738,312	325,275	0,163	0,230
-737,298	-68,881	-0,251	0,071
-736,283	323,229	0,057	-0,081
-735,269	-173,293	-0,262	0,006
-734,254	482,389	-0,023	0,038
-733,239	-47,269	-0,539	-0,192
-732,225	59,286	0,177	0,128
-731,210	-179,102	-0,072	-0,001
-730,196	-77,767	-0,135	-0,034
-729,181	-81,942	-0,049	0,012
-728,167	-200,000	0,039	0,185
-727,152	190,632	0,029	-0,032
-726,137	276,276	-0,061	-0,080
-725,123	-200,000	0,011	-0,055
-724,108	117,453	-0,061	-0,055
-723,094	277,963	-0,041	0,053
-722,079	24,105	-0,129	0,078
-721,064	-73,214	-0,070	-0,019
-720,050	800,000	0,036	-0,102
-719,035	252,115	-0,010	-0,013
-718,021	406,023	0,065	-0,102
-717,006	128,091	0,096	-0,090
-715,991	800,000	0,058	-0,167
-714,977	-200,000	-0,013	-0,124
-713,962	-91,380	-0,092	-0,019
-712,948	156,878	-0,051	-0,052
-711,933	-92,119	0,112	0,023
-710,918	-60,362	-0,196	-0,061
-709,904	-200,000	0,006	-0,051
-708,889	89,315	-0,067	0,055
-707,875	36,213	-0,109	-0,070
-706,860	-51,907	-0,057	-0,020
-705,845	-103,432	-0,075	0,013
-704,831	-36,992	0,213	0,083
-703,816	117,285	0,028	-0,025
-702,802	261,483	0,054	-0,069
-701,787	-106,585	0,106	-0,017
-700,772	-200,000	0,017	-0,106
-699,758	0,071	0,108	-0,056
-698,743	16,349	-0,096	-0,055
-697,729	4,057	-0,068	0,037
-696,714	800,000	-0,040	0,102
-695,699	-99,961	-0,148	0,027
-694,685	-140,933	-0,176	0,013
-693,670	121,473	-0,099	-0,091
-692,656	-136,285	0,174	0,015
-691,641	73,611	0,080	0,061
-690,627	800,000	0,008	0,020
-689,612	-142,884	-0,124	-0,009
-688,597	800,000	0,029	0,064
-687,583	66,073	0,050	-0,037
-686,568	800,000	-0,087	-0,196
-685,554	277,303	0,035	0,046
-684,539	268,900	0,038	-0,049
-683,524	-200,000	0,030	-0,166
-682,510	88,568	0,061	-0,050
-681,495	-200,000	-0,033	-0,111
-680,481	800,000	0,019	-0,057
-679,466	-93,293	0,033	-0,007
-678,451	235,665	0,071	-0,086
-677,437	457,075	-0,081	-0,132
-676,422	-200,000	-0,001	0,173
-675,408	2,650	-0,078	0,042
-674,393	143,861	0,131	-0,128
-673,378	-34,060	-0,068	-0,027
-672,364	35,381	-0,090	-0,058
-671,349	327,545	-0,019	0,027
-670,335	-18,502	0,039	0,018
-669,320	-200,000	-0,023	0,145
-668,305	1,492	-0,127	-0,067
-667,291	17,848	-0,080	0,047
-666,276	149,279	0,086	0,085
-665,262	-34,471	-0,059	-0,024
-664,247	-200,000	-0,012	-0,062
-663,232	-30,970	0,087	0,036
-662,218	99,769	0,097	-0,082
-661,203	472,449	0,059	0,097
-660,189	32,174	-0,106	0,067
-659,174	-27,753	0,093	-0,040
-658,159	761,403	-0,041	0,083
-657,145	295,455	-0,035	-0,048
-656,130	302,022	-0,094	0,128
-655,116	-31,101	-0,147	0,060
-654,101	538,817	-0,108	0,189
-653,086	-200,000	0,009	-0,106
-652,072	-40,497	0,072	-0,027
-651,057	-200,000	-0,011	-0,137
-650,043	25,408	0,105	-0,064
-649,028	-32,903	-0,106	-0,043
-648,014	237,758	0,003	0,003
-646,999	-137,159	-0,099	0,008
-645,984	287,344	0,075	0,100
-644,970	330,798	-0,000	0,001
-643,955	176,198	-0,047	-0,051
-642,941	-52,536	0,043	-0,015
-641,926	9,054	0,087	-0,048
-640,911	800,000	-0,058	-0,126
-639,897	323,889	0,028	-0,039
-638,882	85,632	-0,057	0,046
-637,868	53,247	-0,072	-0,050
-636,853	800,000	0,030	0,060
-635,838	202,235	-0,068	0,077
-634,824	-200,000	-0,014	-0,052
-633,809	777,059	-0,095	-0,190
-632,795	-200,000	0,032	0,109
-631,780	187,682	-0,023	0,025
-630,765	800,000	-0,014	0,031
-629,751	-158,150	-0,199	-0,008
-628,736	166,653	-0,102	-0,106
-627,722	-200,000	-0,047	-0,161
-626,707	55,353	-0,051	-0,036
-625,692	-200,000	0,026	-0,084
-624,678	-200,000	-0,008	0,056
-623,663	-200,000	0,017	0,096
-622,649	85,303	-0,146	-0,118
-621,634	484,132	0,048	-0,080
-620,619	-160,292	-0,085	0,003
-619,605	800,000	-0,023	0,061
-618,590	-200,000	0,000	-0,067
-617,576	130,990	0,157	0,148
-616,561	800,000	0,032	0,080
-615,546	-42,560	-0,050	-0,019
-614,532	-200,000	-0,005	0,042
-613,517	800,000	0,039	-0,086
-612,503	-200,000	0,010	0,078
-611,488	319,357	0,127	0,176
-610,474	-94,979	-0,050	-0,010
-609,459	81,010	-0,086	-0,068
-608,444	12,478	-0,047	-0,027
-607,430	96,023	0,004	0,003
-606,415	196,808	-0,007	-0,008
-605,401	-200,000	0,021	-0,082
-604,386	14,727	0,025	-0,014
-603,371	-200,000	-0,049	0,200
-602,357	-67,998	0,073	0,021
-601,342	11,252	0,054	-0,030
-600,328	-105,689	-0,123	-0,020
-599,313	-200,000	-0,009	0,033
-598,298	800,000	0,021	-0,047
-597,284	222,538	0,084	-0,099
-596,269	-200,000	0,075	0,245
-595,255	-63,554	-0,050	0,015
-594,240	56,967	0,024	-0,017
-593,225	-200,000	-0,003	-0,047
-592,211	39,546	-0,103	-0,067
-591,196	102,856	0,079	-0,067
-590,182	-36,378	0,046	0,018
-589,167	-95,139	0,115	-0,022
-588,152	83,762	-0,061	0,049
-587,138	800,000	-0,052	0,125
-586,123	800,000	0,050	0,131
-585,109	-77,283	0,094	-0,024
-584,094	650,566	-0,054	-0,102
-583,079	-125,105	0,039	0,004
-582,065	-200,000	-0,012	-0,108
-581,050	-200,000	-0,017	0,056
-580,036	390,155	-0,097	-0,147
-579,021	29,188	-0,135	-0,084
-578,006	31,584	0,149	-0,093
-576,992	-200,000	0,036	-0,117
-575,977	-62,383	0,160	0,048
-574,963	-59,496	-0,050	-0,016
-573,948	-200,000	-0,014	0,073
-572,934	122,783	0,076	0,070
-571,919	361,738	-0,069	-0,102
-570,904	573,444	-0,086	-0,154
-569,890	-200,000	-0,028	0,111
-568,875	13,852	0,113	-0,064
-567,861	328,290	0,010	0,014
-566,846	-170,988	0,063	0,002
-565,831	-91,742	0,046	0,010
-564,817	-154,958	0,156	0,007
-563,802	-200,000	-0,029	-0,119
-562,788	-200,000	-0,020	-0,138
-561,773	-91,463	0,060	0,012
-560,758	-200,000	0,022	0,075
-559,744	-56,220	-0,050	0,016
-558,729	770,523	0,041	0,082
-557,715	800,000	-0,024	-0,077
-556,700	232,203	0,093	-0,111
-555,685	35,416	-0,086	-0,055
-554,671	51,522	0,150	0,104
-553,656	496,816	-0,051	-0,087
-552,642	611,602	-0,077	-0,141
-551,627	-200,000	0,006	0,042
-550,612	-174,469	-0,093	-0,002
-549,598	800,000	0,013	0,037
-548,583	49,024	-0,102	-0,070
-547,569	33,028	0,093	0,059
-546,554	207,927	-0,048	-0,055
-545,539	87,970	-0,072	0,058
-544,525	677,423	0,029	-0,055
-543,510	800,000	-0,068	-0,144
-542,496	-90,204	0,021	0,004
-541,481	-200,000	0,017	0,074
-540,466	-169,213	0,162	-0,004
-539,452	-200,000	0,017	0,202
-538,437	-148,485	-0,036	-0,002
-537,423	-39,089	-0,074	0,028
-536,408	800,000	0,028	-0,088
-535,393	14,387	-0,056	-0,032
-534,379	19,595	0,063	0,037
-533,364	800,000	0,044	0,114
-532,350	-85,519	-0,062	-0,014
-531,335	-200,000	0,008	0,097
-530,321	-103,427	0,100	0,017
-529,306	-200,000	0,007	-0,030
-528,291	-200,000	-0,029	0,105
-527,277	115,705	0,044	-0,039
-526,262	-15,252	-0,146	-0,068
-525,248	96,493	-0,103	0,086
-524,233	-123,948	-0,077	0,009
-523,218	104,200	-0,037	0,032
-522,204	41,563	-0,024	0,016
-521,189	1,969	-0,171	-0,090
-520,175	24,688	-0,015	0,009
-519,160	-200,000	-0,010	-0,039
-518,145	8,559	-0,161	-0,088
-517,131	70,192	0,043	0,032
-516,116	-200,000	0,023	0,076
-515,102	-112,333	-0,114	-0,016
-514,087	118,527	-0,062	-0,056
-513,072	197,551	-0,097	-0,108
-512,058	126,274	-0,104	-0,096
-511,043	62,619	0,118	-0,086
-510,029	-129,753	0,031	0,003
-509,014	374,675	0,141	0,210
-507,999	677,665	0,039	-0,075
-506,985	-93,155	-0,079	0,016
-505,970	-140,262	-0,237	0,018
-504,956	-126,347	0,165	-0,018
-503,941	-44,989	0,082	-0,030
-502,926	479,967	-0,025	-0,042
-501,912	800,000	0,041	-0,115
-500,897	412,947	-0,063	-0,098
-499,883	447,546	0,045	-0,073
-498,868	-200,000	0,004	-0,078
-497,853	-125,327	0,035	-0,004
-496,839	360,004	0,014	-0,020
-495,824	496,639	0,039	-0,066
-494,810	595,743	0,027	-0,049
-493,795	36,477	0,044	0,028
-492,781	100,019	0,032	0,027
-491,766	-200,000	0,003	0,034
-490,751	-111,683	0,042	-0,006
-489,737	-19,687	0,075	-0,034
-488,722	-117,978	-0,074	0,010
-487,708	-200,000	0,037	0,182
-486,693	2,279	-0,039	0,020
-485,678	800,000	-0,020	0,046
-484,664	21,563	-0,042	0,025
-483,649	-200,000	0,015	-0,166
-482,635	-101,776	0,086	0,015
-481,620	63,114	0,057	0,041
-480,605	-200,000	-0,001	0,251
-479,591	-45,805	0,090	0,032
-478,576	-66,926	-0,031	-0,009
-477,562	48,243	-0,065	-0,044
-476,547	-200,000	0,005	-0,153
-475,532	-200,000	0,010	-0,143
-474,518	584,705	0,060	-0,108
-473,503	-30,776	-0,040	0,017
-472,489	81,239	-0,139	-0,109
-471,474	-121,164	0,086	0,010
-470,459	-195,296	0,152	-0,001
-469,445	-137,503	-0,139	0,011
-468,430	-200,000	-0,001	0,036
-467,416	-3,544	0,119	0,060
-466,401	800,000	0,014	0,038
-465,386	-25,870	0,017	0,007
-464,372	-200,000	0,018	0,090
-463,357	-27,748	-0,070	-0,029
-462,343	800,000	-0,027	0,076
-461,328	310,392	-0,054	-0,073
-460,313	800,000	0,014	-0,041
-459,299	-200,000	-0,009	-0,068
-458,284	535,079	-0,035	0,060
-457,270	534,936	-0,064	0,111
-456,255	-7,573	-0,080	-0,039
-455,241	94,477	-0,036	-0,029
-454,226	-170,692	-0,117	0,003
-453,211	230,644	0,041	0,049
-452,197	205,375	-0,028	0,031
-451,182	14,396	0,071	-0,040
-450,168	800,000	-0,026	0,058
-449,153	-200,000	-0,016	0,108
-448,138	-200,000	0,028	-0,256
-447,124	-149,994	-0,123	-0,007
-446,109	-200,000	0,004	0,059
-445,095	-50,121	0,069	0,024
-444,080	87,204	-0,099	0,079
-443,065	67,444	0,041	0,030
-442,051	-200,000	0,018	-0,133
-441,036	-200,000	-0,015	-0,118
-440,022	-123,407	-0,067	0,008
-439,007	800,000	0,027	0,086
-437,992	-49,190	-0,033	-0,011
-436,978	205,062	-0,061	0,069
-435,963	800,000	0,044	0,109
-434,949	-8,599	0,015	0,007
-433,934	343,389	-0,116	-0,165
-432,919	-25,431	0,057	-0,025
-431,905	800,000	-0,052	0,140
-430,890	800,000	-0,038	0,114
-429,876	132,100	-0,041	0,039
-428,861	23,704	-0,128	0,076
-427,846	-200,000	-0,003	-0,099
-426,832	-88,656	0,087	0,019
-425,817	-66,770	-0,170	-0,049
-424,803	521,715	0,038	-0,065
-423,788	334,207	0,049	0,069
-422,773	-200,000	0,031	0,122
-421,759	-74,056	0,127	0,033
-420,744	204,034	0,032	0,036
-419,730	-27,537	0,046	-0,019
-418,715	-59,987	-0,147	-0,045
-417,701	-100,540	-0,098	0,017
-416,686	-200,000	0,004	0,056
-415,671	37,167	0,070	-0,045
-414,657	-47,678	-0,056	0,020
-413,642	800,000	-0,017	0,055
-412,628	481,272	0,062	-0,102
-411,613	-80,697	0,193	-0,046
-410,598	800,000	0,018	-0,052
-409,584	-200,000	-0,023	0,104
-408,569	-200,000	-0,018	-0,132
-407,555	-114,552	-0,121	-0,017
-406,540	341,427	-0,007	0,010
-405,525	800,000	-0,019	-0,041
-404,511	-200,000	-0,048	-0,246
-403,496	21,970	0,066	-0,039
-402,482	260,188	-0,043	0,053
-401,467	67,013	-0,064	-0,048
-400,452	-200,000	0,006	-0,035
-399,438	26,221	-0,074	-0,045
-398,423	-200,000	0,006	0,097
-397,409	-74,669	-0,081	-0,021
-396,394	274,354	0,042	-0,054
-395,379	800,000	-0,050	-0,145
-394,365	-142,462	0,142	0,010
-393,350	800,000	0,041	0,096
-392,336	-200,000	0,012	0,098
-391,321	800,000	0,025	0,068
-390,306	-63,317	-0,112	0,033
-389,292	20,861	-0,070	0,041
-388,277	-134,078	-0,059	-0,005
-387,263	454,437	0,086	0,139
-386,248	-200,000	0,002	0,106
-385,233	-80,335	0,030	-0,007
-384,219	-200,000	0,010	0,053
-383,204	800,000	0,039	0,123
-382,190	95,436	-0,101	0,083
-381,175	185,375	0,042	0,045
-380,160	-200,000	0,013	0,055
-379,146	-200,000	0,009	0,051
-378,131	23,486	0,075	0,045
-377,117	-28,128	-0,076	0,032
-376,102	-200,000	0,012	0,129
-375,088	-200,000	0,026	-0,102
-374,073	-84,812	0,016	-0,004
-373,058	-187,026	0,105	-0,001
-372,044	668,489	0,041	0,078
-371,029	-200,000	0,014	0,126
-370,015	-200,000	-0,013	-0,050
-369,000	66,938	-0,083	-0,061
-367,985	-200,000	-0,001	0,075
-366,971	-189,442	-0,071	-0,001
-365,956	272,434	0,052	0,066
-364,942	-183,743	0,131	0,002
-363,927	153,262	-0,132	0,131
-362,912	-200,000	0,014	0,059
-361,898	-200,000	0,004	0,026
-360,883	-200,000	-0,012	-0,050
-359,869	-200,000	0,003	-0,033
-358,854	500,430	0,009	-0,015
-357,839	218,033	0,138	0,160
-356,825	-200,000	-0,028	0,132
-355,810	91,206	0,013	-0,011
-354,796	-200,000	0,015	0,061
-353,781	800,000	-0,006	-0,014
-352,766	178,122	0,100	-0,106
-351,752	181,596	-0,053	-0,056
-350,737	484,933	0,081	-0,134
-349,723	273,232	0,075	-0,097
-348,708	-121,927	-0,122	0,014
-347,693	-27,047	-0,053	-0,022
-346,679	170,743	0,117	0,122
-345,664	51,842	-0,079	0,054
-344,650	332,221	0,053	0,075
-343,635	800,000	-0,048	-0,101
-342,620	169,953	0,077	-0,080
-341,606	416,119	0,072	0,111
-340,591	645,335	0,042	-0,078
-339,577	-6,057	-0,044	-0,022
-338,562	-114,079	-0,063	-0,009
-337,548	595,224	-0,036	0,065
-336,533	-72,439	-0,071	-0,019
-335,518	-175,954	-0,042	0,001
-334,504	-146,997	0,056	-0,003
-333,489	-179,695	-0,072	0,001
-332,475	-200,000	0,007	-0,212
-331,460	800,000	0,007	0,022
-330,445	184,768	-0,071	-0,077
-329,431	99,424	0,025	0,021
-328,416	-30,366	0,085	0,035
-327,402	-200,000	0,012	-0,080
-326,387	151,206	0,111	0,110
-325,372	-98,294	-0,051	-0,009
-324,358	146,776	-0,014	0,013
-323,343	-85,594	0,015	-0,003
-322,329	496,221	0,030	0,051
-321,314	800,000	0,029	0,080
-320,299	-32,563	-0,069	-0,028
-319,285	-23,808	0,066	0,029
-318,270	204,250	-0,038	-0,043
-317,256	39,750	0,156	-0,101
-316,241	-119,088	-0,055	-0,007
-315,226	-40,272	0,059	-0,022
-314,212	-23,531	0,225	0,097
-313,197	-17,972	-0,118	0,053
-312,183	-200,000	-0,010	0,036
-311,168	-55,370	-0,078	-0,025
-310,153	292,453	0,058	0,077
-309,139	-200,000	0,007	0,161
-308,124	-125,818	0,171	0,018
-307,110	-35,570	0,055	-0,022
-306,095	57,132	-0,179	-0,126
-305,080	800,000	0,016	0,033
-304,066	295,388	0,010	0,013
-303,051	-73,588	-0,227	-0,059
-302,037	437,502	-0,059	-0,093
-301,022	-8,982	0,039	0,019
-300,008	276,014	0,075	0,097
-298,993	-200,000	-0,003	-0,034
-297,978	163,525	0,062	-0,063
-296,964	233,275	-0,037	-0,044
-295,949	-19,096	-0,089	0,040
-294,935	-200,000	0,002	-0,008
-293,920	-3,046	0,087	-0,044
-292,905	-117,013	-0,028	0,004
-291,891	-45,428	0,176	0,063
-290,876	405,797	-0,064	-0,098
-289,862	800,000	0,047	-0,104
-288,847	-200,000	-0,004	0,021
-287,832	43,781	0,082	0,054
-286,818	500,184	0,021	-0,036
-285,803	-26,059	0,109	0,046
-284,789	-76,944	-0,047	-0,012
-283,774	-126,180	0,106	-0,011
-282,759	-69,026	0,024	-0,007
-281,745	800,000	0,028	-0,088
-280,730	658,450	0,080	0,149
-279,716	-200,000	-0,012	-0,101
-278,701	408,375	-0,027	-0,042
-277,686	-13,572	0,117	0,055
-276,672	-48,602	0,033	-0,011
-275,657	-135,920	0,088	-0,007
-274,643	225,091	-0,044	-0,052
-273,628	-200,000	0,014	-0,100
-272,613	-123,072	-0,080	0,009
-271,599	52,610	-0,190	0,131
-270,584	800,000	0,038	-0,104
-269,570	342,365	0,064	0,091
-268,555	-200,000	0,018	-0,153
-267,540	-8,737	0,095	-0,046
-266,526	727,554	-0,055	0,107
-265,511	-135,276	-0,070	0,006
-264,497	800,000	0,011	0,034
-263,482	-0,512	0,078	0,040
-262,467	33,030	0,028	0,017
-261,453	53,813	0,076	-0,053
-260,438	-109,706	0,094	0,014
-259,424	-131,705	0,072	0,007
-258,409	8,676	-0,010	0,005
-257,395	310,831	0,020	0,027
-256,380	-200,000	0,008	0,088
-255,365	-200,000	-0,009	0,165
-254,351	113,948	-0,057	0,050
-253,336	84,312	-0,077	0,061
-252,322	-91,259	0,046	-0,009
-251,307	93,116	-0,017	0,014
-250,292	344,640	-0,055	-0,078
-249,278	-200,000	0,030	-0,122
-248,263	800,000	0,018	0,038
-247,249	-200,000	0,017	0,088
-246,234	-55,727	-0,127	0,041
-245,219	-61,531	-0,154	-0,046
-244,205	-77,164	0,070	0,017
-243,190	-4,264	0,096	0,048
-242,176	56,989	0,115	0,081
-241,161	800,000	0,054	0,128
-240,146	-200,000	-0,003	0,181
-239,132	800,000	-0,055	0,168
-238,117	69,281	-0,065	-0,048
-237,103	-23,578	-0,045	-0,019
-236,088	-75,533	0,135	0,034
-235,073	143,348	-0,034	0,033
-234,059	-200,000	-0,034	0,111
-233,044	146,833	0,049	0,048
-232,030	258,565	0,080	0,100
-231,015	-200,000	0,023	-0,117
-230,000	58,762	-0,067	0,048
-228,986	-200,000	0,022	-0,072
-227,971	-174,373	0,115	-0,002
-226,957	111,208	-0,067	-0,058
-225,942	32,839	0,041	-0,026
-224,927	-200,000	0,015	0,065
-223,913	343,075	-0,023	0,033
-222,898	-200,000	-0,011	-0,096
-221,884	34,953	0,131	0,083
-220,869	-77,389	-0,081	-0,020
-219,855	-139,418	0,087	0,007
-218,840	-200,000	-0,021	0,168
-217,825	388,999	-0,024	-0,036
-216,811	119,848	-0,033	-0,030
-215,796	45,964	0,034	0,022
-214,782	171,104	-0,076	-0,079
-213,767	-200,000	-0,003	-0,036
-212,752	617,506	-0,027	-0,050
-211,738	587,208	-0,046	-0,083
-210,723	-27,241	0,088	-0,037
-209,709	-164,341	-0,062	-0,002
-208,694	413,479	-0,026	-0,039
-207,679	605,965	-0,052	-0,094
-206,665	357,788	0,059	-0,086
-205,650	-122,766	-0,060	-0,007
-204,636	-28,346	0,236	-0,098
-203,621	152,938	-0,154	-0,152
-202,606	-39,283	-0,153	-0,058
-201,592	3,199	-0,114	-0,060
-200,577	44,130	-0,059	-0,039
-199,563	450,905	0,044	0,071
-198,548	57,673	0,132	0,093
-197,533	417,672	0,008	-0,013
-196,519	309,279	-0,079	-0,107
-195,504	-200,000	-0,001	0,150
-194,490	-200,000	0,024	-0,076
-193,475	-76,142	-0,047	-0,012
-192,460	-35,208	-0,103	-0,040
-191,446	-200,000	-0,012	-0,038
-190,431	-200,000	0,009	0,104
-189,417	171,549	-0,074	-0,077
-188,402	29,173	-0,098	0,060
-187,387	-191,390	-0,103	-0,001
-186,373	-91,175	0,008	0,002
-185,358	6,863	-0,113	0,060
-184,344	-171,633	0,068	0,002
-183,329	-85,846	-0,072	-0,016
-182,315	-200,000	0,036	0,135
-181,300	800,000	0,063	-0,147
-180,285	356,016	-0,075	-0,108
-179,271	268,056	-0,053	0,067
-178,256	766,997	0,025	-0,050
-177,242	-113,214	0,043	0,006
-176,227	165,309	0,074	-0,076
-175,212	121,524	0,129	0,116
-174,198	-200,000	0,049	0,264
-173,183	-200,000	-0,009	-0,043
-172,169	54,243	-0,108	-0,075
-171,154	-200,000	0,014	-0,125
-170,139	54,878	0,089	-0,062
-169,125	10,454	0,042	0,023
-168,110	106,555	0,045	-0,039
-167,096	800,000	0,003	0,009
-166,081	21,306	-0,069	0,040
-165,066	-72,962	-0,105	0,027
-164,052	-31,720	0,096	-0,039
-163,037	-104,255	0,237	0,039
-162,023	-2,490	0,096	0,048
-161,008	-70,725	-0,025	0,007
-159,993	-126,735	0,087	-0,009
-158,979	-132,591	0,086	0,008
-157,964	-136,269	-0,053	0,004
-156,950	24,163	-0,103	-0,061
-155,935	800,000	0,029	-0,067
-154,920	25,361	0,129	0,077
-153,906	-7,193	-0,103	0,050
-152,891	-36,179	0,058	-0,022
-151,877	256,890	-0,086	-0,106
-150,862	118,888	-0,180	-0,160
-149,847	186,386	0,046	-0,049
-148,833	98,160	0,106	-0,088
-147,818	800,000	0,052	-0,160
-146,804	800,000	0,058	0,140
-145,789	251,634	-0,038	-0,047
-144,775	-200,000	-0,007	0,074
-143,760	59,766	-0,138	-0,098
-142,745	45,682	-0,087	-0,058
-141,731	277,297	0,136	-0,175
-140,716	-165,958	-0,026	0,001
-139,702	-23,381	-0,032	-0,014
-138,687	-200,000	-0,023	0,207
-137,672	103,724	0,077	-0,065
-136,658	800,000	-0,028	0,070
-135,643	41,932	0,054	-0,035
-134,629	114,383	0,098	-0,086
-133,614	-114,595	0,130	-0,018
-132,599	-200,000	0,017	0,092
-131,585	800,000	0,059	0,136
-130,570	-162,824	-0,013	0,000
-129,556	-200,000	-0,007	-0,072
-128,541	-200,000	-0,007	0,093
-127,526	-106,419	0,078	0,012
-126,512	-40,634	0,048	-0,018
-125,497	187,275	0,081	0,087
-124,483	62,478	-0,064	-0,046
-123,468	-200,000	-0,000	-0,059
-122,453	-121,444	-0,086	-0,010
-121,439	800,000	0,039	-0,087
-120,424	-200,000	0,023	0,087
-119,410	-0,054	-0,073	0,037
-118,395	-3,321	-0,013	-0,006
-117,380	-36,702	0,038	0,015
-116,366	521,032	0,011	-0,018
-115,351	-83,251	0,136	0,031
-114,337	800,000	0,046	-0,111
-113,322	-20,624	-0,146	0,064
-112,307	-105,228	-0,050	-0,008
-111,293	-200,000	0,033	0,122
-110,278	-42,046	0,031	0,011
-109,264	-130,106	0,136	0,013
-108,249	800,000	-0,055	0,111
-107,234	-200,000	-0,036	0,141
-106,220	-200,000	0,006	0,021
-105,205	800,000	-0,020	0,041
-104,191	281,048	0,101	0,130
-103,176	-158,299	0,091	0,004
-102,162	241,878	0,093	-0,112
-101,147	-80,309	0,065	0,016
-100,132	-16,633	-0,068	0,031
-99,118	381,317	-0,007	-0,011
-98,103	800,000	-0,017	0,037
-97,089	427,323	0,013	-0,020
-96,074	800,000	-0,072	0,144
-95,059	37,396	0,144	-0,091
-94,045	201,359	-0,092	-0,102
-93,030	800,000	-0,043	-0,101
-92,016	-2,307	-0,094	-0,047
-91,001	152,817	0,021	-0,021
-89,986	-200,000	0,001	0,095
-88,972	242,650	-0,066	0,080
-87,957	281,409	0,061	0,079
-86,943	-35,207	-0,101	0,039
-85,928	-69,836	-0,071	-0,019
-84,913	-200,000	0,005	-0,181
-83,899	2,190	-0,170	0,088
-82,884	30,661	0,077	-0,047
-81,870	155,204	-0,013	0,013
-80,855	40,786	-0,110	0,071
-79,840	-119,877	0,045	0,005
-78,826	370,198	0,074	-0,107
-77,811	-140,234	-0,159	-0,012
-76,797	-21,880	0,063	-0,027
-75,782	-84,036	-0,080	-0,018
-74,767	-200,000	0,023	0,101
-73,753	-122,227	-0,050	-0,006
-72,738	265,530	0,035	0,044
-71,724	113,269	-0,030	-0,026
-70,709	-200,000	0,003	0,048
-69,694	240,506	0,022	-0,026
-68,680	54,986	0,109	0,075
-67,665	-89,930	0,055	0,011
-66,651	-200,000	-0,010	0,072
-65,636	-200,000	-0,021	-0,094
-64,622	-98,937	-0,116	0,021
-63,607	198,422	-0,028	-0,030
-62,592	800,000	0,033	0,069
-61,578	-34,925	0,024	0,009
-60,563	-200,000	-0,012	0,080
-59,549	-118,715	-0,170	-0,021
-58,534	25,803	-1,894	-1,128
-57,519	-200,000	-0,069	-0,696
-56,505	-200,000	-1,336	-5,074
-55,490	154,743	0,745	0,734
-54,476	800,000	5,330	12,046
-53,461	-200,000	17,992	291,157
-52,446	800,000	729,092	2220,526
-51,432	525,954	1642,536	2781,496
-50,417	107,733	1631,591	1391,438
-49,403	72,239	1283,822	956,856
-48,388	30,689	1024,784	626,787
-47,373	19,717	986,787	567,496
-46,359	17,836	974,299	554,151
-45,344	14,766	970,492	541,960
-44,330	15,016	968,954	541,894
-43,315	14,512	966,833	539,047
-42,300	14,483	965,852	538,384
-41,286	14,427	965,119	537,774
-40,271	14,390	963,958	536,986
-39,257	14,479	962,994	536,714
-38,242	14,451	962,398	536,270
-37,227	14,509	961,386	535,874
-36,213	14,452	960,470	535,157
-35,198	14,435	959,633	534,615
-34,184	14,453	959,124	534,369
-33,169	14,465	957,970	533,743
-32,154	14,453	957,029	533,158
-31,140	14,473	956,203	532,743
-30,125	14,538	955,237	532,390
-29,111	14,438	954,624	531,707
-28,096	14,468	953,869	531,363
-27,082	14,464	953,354	531,042
-26,067	14,476	952,532	530,602
-25,052	14,443	951,802	530,066
-24,038	14,520	951,108	529,906
-23,023	14,444	950,486	529,296
-22,009	14,461	949,980	529,046
-20,994	14,486	949,176	528,659
-19,979	14,467	948,591	528,250
-18,965	14,458	947,924	527,829
-17,950	14,510	947,184	527,561
-16,936	14,412	946,716	526,969
-15,921	14,427	945,966	526,578
-14,906	14,427	945,402	526,245
-13,892	14,383	944,713	525,699
-12,877	14,354	944,068	525,226
-11,863	14,392	943,413	524,962
-10,848	14,284	943,181	524,471
-9,833	14,518	942,384	524,749
-8,819	14,368	941,898	523,982
-7,804	14,343	941,166	523,475
-6,790	14,378	940,482	523,185
-5,775	14,390	940,056	522,962
-4,760	14,369	939,294	522,452
-3,746	14,357	938,674	522,050
-2,731	14,206	938,103	521,236
-1,717	14,178	937,552	520,821
-0,702	14,244	936,524	520,435
0,313	14,034	935,990	520,266
1,327	17,532	934,148	530,169
2,342	26,754	786,877	470,761
3,356	22,947	442,463	259,082
4,371	-6,621	294,439	142,986
5,386	-10,576	276,452	130,504
6,400	-12,056	270,736	126,425
7,415	-12,229	268,526	125,223
8,429	-12,136	267,064	124,615
9,444	-12,370	266,267	124,019
10,459	-12,237	265,575	123,806
11,473	-12,262	264,895	123,455
12,488	-12,466	264,451	123,054
13,502	-12,810	263,801	122,429
14,517	-12,387	263,361	122,595
15,531	-12,255	262,833	122,458
16,546	-12,246	262,518	122,307
17,561	-12,499	262,236	121,939
18,575	-12,169	261,701	121,974
19,590	-12,373	261,384	121,633
20,604	-12,526	261,230	121,414
21,619	-12,278	260,841	121,443
22,634	-12,497	260,520	121,088
23,648	-12,502	260,221	120,934
24,663	-12,535	260,025	120,803
25,677	-12,290	259,622	120,822
26,692	-12,411	259,437	120,618
27,707	-12,403	259,114	120,465
28,721	-12,448	258,829	120,281
29,736	-12,381	258,545	120,197
30,750	-12,487	258,347	120,001
31,765	-12,344	257,999	119,955
32,780	-12,576	257,916	119,702
33,794	-12,584	257,565	119,521
34,809	-12,315	257,163	119,560
35,823	-12,669	257,222	119,266
36,838	-12,588	256,912	119,183
37,853	-12,469	256,583	119,123
38,867	-12,691	256,392	118,830
39,882	-12,579	256,081	118,773
40,896	-12,411	255,901	118,826
41,911	-12,501	255,691	118,639
42,926	-12,417	255,300	118,520
43,940	-12,537	255,128	118,326
44,955	-12,654	255,104	118,202
45,969	-12,663	254,602	117,951
46,984	-12,711	254,563	117,881
47,999	-12,967	254,200	117,481
49,013	-13,055	254,047	117,323
50,028	-13,136	253,698	117,081
51,042	-13,405	253,632	116,808
52,057	-13,407	253,246	116,618
53,071	-13,208	253,020	116,676
54,086	-13,150	252,865	116,644
55,101	-13,020	252,892	116,757
56,115	-12,987	252,741	116,706
57,130	-12,495	252,618	117,062
58,144	-12,275	252,262	117,075
59,159	-12,398	252,082	116,876
60,174	-12,377	251,837	116,769
61,188	-12,461	251,614	116,584
62,203	-12,404	251,490	116,565
63,217	-12,419	251,208	116,411
64,232	-12,469	251,040	116,280
65,247	-12,518	250,754	116,095
66,261	-12,603	250,515	115,901
67,276	-12,589	250,313	115,810
68,290	-12,624	250,061	115,653
69,305	-12,861	249,814	115,327
70,320	-12,929	249,747	115,228
71,334	-12,649	249,543	115,362
72,349	-12,518	249,330	115,364
73,363	-12,298	249,125	115,446
74,378	-12,237	248,897	115,381
75,393	-12,456	248,651	115,072
76,407	-12,467	248,608	115,032
77,422	-12,324	248,136	114,924
78,436	-12,496	248,090	114,747
79,451	-12,804	247,978	114,426
80,466	-12,450	247,599	114,538
81,480	-12,414	247,420	114,475
82,495	-12,591	247,210	114,220
83,509	-12,403	247,004	114,272
84,524	-12,575	246,785	114,016
85,539	-12,553	246,490	113,888
86,553	-12,761	246,447	113,684
87,568	-12,624	246,169	113,660
88,582	-12,694	245,899	113,467
89,597	-12,791	245,806	113,333
90,611	-12,460	245,708	113,554
91,626	-12,530	245,528	113,403
92,641	-12,374	245,305	113,419
93,655	-12,520	245,221	113,248
94,670	-12,406	244,820	113,148
95,684	-12,568	244,759	112,975
96,699	-12,602	244,472	112,804
97,714	-12,666	244,475	112,742
98,728	-12,791	244,265	112,532
99,743	-12,841	244,165	112,434
100,757	-12,764	243,743	112,294
101,772	-12,789	243,638	112,215
102,787	-12,614	243,448	112,262
103,801	-12,660	243,325	112,158
104,816	-12,489	243,055	112,164
105,830	-12,667	242,990	111,977
106,845	-12,534	242,903	112,036
107,860	-12,471	242,430	111,860
108,874	-12,523	242,360	111,775
109,889	-12,395	242,000	111,704
110,903	-12,550	241,926	111,533
111,918	-12,615	241,758	111,393
112,933	-12,594	241,602	111,327
113,947	-12,469	241,333	111,296
114,962	-12,681	241,419	111,153
115,976	-12,340	240,976	111,217
116,991	-12,649	241,000	110,966
118,006	-12,286	240,645	111,088
119,020	-12,293	240,539	111,024
120,035	-12,388	240,478	110,908
121,049	-12,400	240,339	110,825
122,064	-12,488	240,246	110,700
123,079	-12,549	239,812	110,440
124,093	-12,769	239,824	110,258
125,108	-12,852	239,445	110,007
126,122	-12,744	239,165	109,956
127,137	-12,834	239,021	109,806
128,151	-12,789	238,873	109,766
129,166	-12,803	238,679	109,655
130,181	-12,558	238,448	109,737
131,195	-12,721	238,298	109,526
132,210	-12,765	238,254	109,461
133,224	-12,557	238,048	109,524
134,239	-12,580	237,849	109,404
135,254	-12,574	237,672	109,318
136,268	-12,646	237,463	109,154
137,283	-12,733	237,185	108,947
138,297	-12,755	236,951	108,812
139,312	-13,065	236,837	108,502
140,327	-12,624	236,690	108,778
141,341	-12,317	236,819	109,073
142,356	-12,263	236,429	108,927
143,370	-12,149	236,308	108,952
144,385	-12,209	236,102	108,800
145,400	-12,346	235,922	108,598
146,414	-12,132	235,789	108,698
147,429	-12,219	235,570	108,518
148,443	-12,426	235,489	108,306
149,458	-12,489	235,351	108,183
150,473	-12,451	235,090	108,084
151,487	-12,310	234,835	108,068
152,502	-12,304	234,820	108,057
153,516	-12,268	234,690	108,016
154,531	-12,404	234,531	107,825
155,546	-12,365	234,259	107,722
156,560	-12,546	234,091	107,492
157,575	-12,405	233,861	107,487
158,589	-12,212	233,509	107,468
159,604	-12,257	233,599	107,465
160,619	-12,129	233,505	107,512
161,633	-12,068	233,249	107,433
162,648	-12,172	233,129	107,287
163,662	-12,290	232,964	107,109
164,677	-12,347	232,884	107,018
165,692	-12,546	232,643	106,741
166,706	-12,113	232,595	107,048
167,721	-12,085	232,395	106,969
168,735	-11,858	232,155	107,027
169,750	-12,252	232,123	106,695
170,764	-12,195	231,733	106,550
171,779	-12,170	231,691	106,541
172,794	-12,218	231,554	106,431
173,808	-12,436	231,454	106,205
174,823	-12,707	231,058	105,803
175,837	-12,768	230,944	105,694
176,852	-12,430	230,948	105,949
177,867	-12,427	230,886	105,914
178,881	-12,405	230,510	105,749
179,896	-12,345	230,553	105,806
180,910	-12,330	230,396	105,736
181,925	-12,124	230,094	105,748
182,940	-12,171	230,044	105,679
183,954	-12,212	229,994	105,615
184,969	-12,246	229,810	105,494
185,983	-11,993	229,690	105,626
186,998	-11,911	229,413	105,552
188,013	-12,128	229,303	105,325
189,027	-11,962	229,145	105,370
190,042	-12,149	228,935	105,121
191,056	-12,245	228,855	105,000
192,071	-12,053	228,540	104,994
193,086	-12,094	228,359	104,870
194,100	-12,075	228,357	104,875
195,115	-12,347	227,964	104,476
196,129	-12,726	228,017	104,200
197,144	-7,628	229,560	108,828
198,159	-2,564	231,194	113,518
199,173	1,126	232,027	116,780
200,188	2,026	232,077	117,492
201,202	1,808	231,887	117,216
202,217	1,621	231,828	117,032
203,232	1,791	231,654	117,065
204,246	2,021	231,544	117,176
205,261	2,108	231,349	117,134
206,275	2,222	231,143	117,107
207,290	2,204	231,169	117,096
208,304	2,289	230,942	117,036
209,319	2,357	230,703	116,957
210,334	2,069	230,446	116,595
211,348	1,935	230,378	116,448
212,363	1,492	230,165	115,989
213,377	1,521	229,997	115,917
214,392	1,598	229,765	115,849
215,407	1,742	229,736	115,934
216,421	1,582	229,654	115,759
217,436	1,633	229,514	115,718
218,450	1,449	229,080	115,348
219,465	1,331	228,933	115,173
220,480	1,452	228,809	115,193
221,494	1,282	228,866	115,082
222,509	1,682	228,808	115,348
223,523	2,036	228,356	115,379
224,538	1,598	228,274	114,994
225,553	1,604	228,276	114,990
226,567	1,445	228,102	114,770
227,582	1,916	228,007	115,070
228,596	2,138	227,788	115,118
229,611	1,984	227,488	114,840
230,626	1,458	227,400	114,386
231,640	1,183	227,275	114,105
232,655	1,736	227,208	114,479
233,669	1,988	227,045	114,578
234,684	2,246	226,968	114,724
235,699	2,054	226,819	114,493
236,713	1,767	226,672	114,192
237,728	1,583	226,360	113,886
238,742	1,274	226,339	113,633
239,757	1,450	226,061	113,616
240,772	1,500	225,854	113,539
241,786	1,649	225,811	113,619
242,801	1,971	225,634	113,762
243,815	2,172	225,588	113,879
244,830	2,194	225,432	113,807
245,844	1,797	225,143	113,354
246,859	1,562	225,118	113,155
247,874	1,874	224,891	113,264
248,888	1,883	224,764	113,196
249,903	1,834	224,720	113,128
250,917	1,802	224,453	112,959
251,932	1,529	224,450	112,744
252,947	1,334	224,187	112,456
253,961	1,639	223,848	112,503
254,976	1,510	223,846	112,396
255,990	1,689	223,832	112,513
257,005	2,035	223,704	112,695
258,020	1,590	223,683	112,344
259,034	1,913	223,424	112,443
260,049	1,948	223,300	112,397
261,063	1,974	222,992	112,251
262,078	1,831	223,078	112,178
263,093	2,179	222,817	112,295
264,107	2,164	222,774	112,252
265,122	1,958	222,578	111,991
266,136	2,265	222,359	112,097
267,151	2,241	222,275	112,027
268,166	1,779	221,981	111,529
269,180	1,521	221,655	111,165
270,195	1,692	221,706	111,307
271,209	1,740	221,467	111,212
272,224	1,714	221,477	111,188
273,239	1,691	221,475	111,160
274,253	1,658	221,115	110,945
275,268	1,289	220,916	110,565
276,282	1,617	220,732	110,704
277,297	1,339	220,720	110,484
278,312	1,541	220,573	110,548
279,326	1,751	220,466	110,639
280,341	2,001	220,223	110,689
281,355	1,934	220,131	110,584
282,370	2,110	220,035	110,654
283,384	1,424	219,833	110,043
284,399	1,610	219,594	110,049
285,414	1,465	219,531	109,903
286,428	1,574	219,448	109,930
287,443	1,809	219,362	110,048
288,457	1,847	219,268	110,019
289,472	1,678	218,956	109,730
290,487	1,397	218,711	109,394
291,501	1,053	218,704	109,131
292,516	1,411	218,446	109,252
293,530	1,386	218,481	109,242
294,545	1,421	218,322	109,177
295,560	1,735	218,095	109,281
296,574	1,688	218,029	109,204
297,589	1,580	217,901	109,052
298,603	1,794	217,851	109,172
299,618	1,723	217,635	109,003
300,633	1,775	217,631	109,029
301,647	2,080	217,421	109,133
302,662	2,148	217,314	109,118
303,676	1,924	217,259	108,920
304,691	2,132	216,954	108,906
305,706	1,857	216,907	108,676
306,720	1,871	216,840	108,643
307,735	1,513	216,594	108,254
308,749	1,447	216,456	108,128
309,764	1,826	216,383	108,353
310,779	2,094	216,203	108,445
311,793	1,777	215,961	108,087
312,808	1,923	215,768	108,085
313,822	1,861	215,683	107,989
314,837	1,606	215,632	107,772
315,852	1,493	215,414	107,573
316,866	1,771	215,410	107,759
317,881	2,132	215,198	107,900
318,895	1,846	215,135	107,655
319,910	1,584	214,887	107,336
320,925	1,402	214,523	107,016
321,939	1,126	214,444	106,771
322,954	1,329	214,515	106,941
323,968	1,715	214,454	107,174
324,983	1,855	214,380	107,227
325,997	2,171	214,220	107,360
327,012	2,132	213,985	107,206
328,027	1,809	213,866	106,909
329,041	2,044	213,687	106,976
330,056	2,218	213,510	107,000
331,070	1,732	213,475	106,630
332,085	1,633	213,204	106,416
333,100	1,767	213,145	106,471
334,114	1,980	213,035	106,556
335,129	2,039	212,901	106,521
336,143	1,840	212,694	106,269
337,158	1,911	212,538	106,231
338,173	1,653	212,452	105,998
339,187	1,644	212,259	105,886
340,202	1,462	211,962	105,601
341,216	1,527	211,855	105,584
342,231	1,565	211,822	105,584
343,246	1,618	211,647	105,524
344,260	1,482	211,528	105,361
345,275	1,987	211,640	105,759
346,289	2,450	211,493	105,999
347,304	2,412	211,302	105,867
348,319	1,862	211,106	105,378
349,333	1,815	211,060	105,312
350,348	1,959	210,901	105,324
351,362	2,079	210,867	105,381
352,377	2,171	210,526	105,265
353,392	1,801	210,398	104,935
354,406	1,973	210,265	104,978
355,421	196,915	1314,034	1392,173
356,435	157,446	1448,474	1392,143
