DTS Sentinel unit serial number:	SN410029Multiplexer serial number:	ORYXHardware model number:	OX2-SRSoftware version number:	ORYX F/W v4,00 Oryx Data Collector v3.7.2.0data status	okinstallation	B6 Nyhavnadifferential loss correction	single-endedforward channel	channel 2reverse channel	N/Adate	2023/12/07time	22:20:08forward acquisition time	300,00reverse acquisition time	0,00gamma	499,1914k internal	0,3165k external	0,3165temperature offset calibration	1,0000default loss term (dB/km)	0,3820temperature slope calibration	1,0000multiplexer offset coefficient	1,0000multiplexer slope coefficient	1,0000fibre end	0,00T internal ref (°C)	13,59T ext. ref 1 (°C)	-3,33T ext. ref 2 (°C)	-3,32length (m)	temperature (°C)	Stokes	anti-Stokes-744,400	53,564	0,131	0,092
-743,385	-56,769	-0,229	0,074
-742,371	-200,000	0,049	0,173
-741,356	-99,218	-0,310	0,057
-740,342	17,426	0,088	0,052
-739,327	-186,052	-0,296	0,003
-738,312	7,701	0,088	0,048
-737,298	-132,502	-0,275	0,026
-736,283	-91,154	0,136	0,028
-735,269	-158,788	-0,324	0,013
-734,254	-200,000	-0,057	0,192
-733,239	-73,339	-0,470	-0,126
-732,225	10,572	0,197	0,110
-731,210	415,099	-0,054	-0,085
-730,196	-127,998	0,122	-0,013
-729,181	12,107	-0,155	0,087
-728,167	74,275	-0,055	-0,043
-727,152	189,972	0,039	-0,044
-726,137	-19,552	-0,226	-0,103
-725,123	-26,197	-0,055	-0,023
-724,108	59,107	-0,117	0,084
-723,094	77,031	-0,111	-0,087
-722,079	184,767	-0,114	-0,124
-721,064	14,774	-0,008	-0,004
-720,050	-200,000	0,066	0,000
-719,035	43,171	-0,174	-0,117
-718,021	294,018	0,022	-0,029
-717,006	415,945	-0,153	-0,241
-715,991	-200,000	0,044	-0,182
-714,977	249,402	-0,012	0,015
-713,962	-148,374	0,037	0,002
-712,948	278,665	-0,044	-0,057
-711,933	-200,000	-0,005	-0,089
-710,918	-2,450	0,073	0,038
-709,904	-200,000	0,027	-0,130
-708,889	800,000	-0,055	-0,145
-707,875	-200,000	0,009	-0,103
-706,860	800,000	0,039	-0,100
-705,845	-200,000	-0,023	-0,077
-704,831	-200,000	0,011	0,055
-703,816	-15,877	0,091	-0,042
-702,802	-41,180	-0,115	-0,043
-701,787	-200,000	0,025	-0,102
-700,772	-200,000	0,032	-0,121
-699,758	0,009	0,098	-0,051
-698,743	-200,000	-0,018	0,093
-697,729	-200,000	-0,034	0,110
-696,714	75,909	-0,102	-0,079
-695,699	-10,378	-0,110	-0,054
-694,685	-180,090	0,051	-0,001
-693,670	-78,511	-0,069	-0,017
-692,656	-200,000	0,006	-0,043
-691,641	-58,476	0,063	-0,020
-690,627	112,072	0,067	-0,059
-689,612	-138,094	-0,162	-0,013
-688,597	415,040	0,037	-0,058
-687,583	561,022	-0,055	-0,098
-686,568	284,862	0,031	-0,041
-685,554	123,469	-0,078	-0,071
-684,539	-3,723	0,098	0,050
-683,524	-62,196	-0,124	0,038
-682,510	-41,942	-0,126	-0,047
-681,495	2,302	-0,051	-0,027
-680,481	-200,000	-0,016	-0,055
-679,466	-200,000	-0,028	-0,163
-678,451	-64,157	0,021	-0,006
-677,437	-200,000	-0,006	0,046
-676,422	194,029	0,061	-0,068
-675,408	436,139	0,036	-0,058
-674,393	-200,000	0,008	-0,057
-673,378	149,105	-0,112	-0,111
-672,364	27,350	-0,108	-0,066
-671,349	129,436	-0,054	-0,050
-670,335	-133,127	-0,129	-0,012
-669,320	800,000	-0,019	0,053
-668,305	-17,418	0,057	-0,026
-667,291	-30,953	-0,130	0,053
-666,276	-64,331	0,083	0,024
-665,262	128,129	0,006	-0,006
-664,247	169,844	0,082	-0,086
-663,232	135,583	0,057	0,054
-662,218	-200,000	-0,044	0,160
-661,203	-200,000	-0,015	-0,064
-660,189	336,384	-0,056	-0,079
-659,174	-15,824	-0,074	-0,034
-658,159	-170,038	0,025	0,001
-657,145	-185,570	-0,024	0,000
-656,130	800,000	0,024	-0,060
-655,116	-148,677	0,036	-0,002
-654,101	127,715	-0,122	-0,113
-653,086	262,156	0,045	-0,057
-652,072	0,224	-0,147	0,076
-651,057	-200,000	-0,004	0,147
-650,043	-83,572	0,058	0,013
-649,028	-200,000	-0,014	-0,066
-648,014	-110,397	-0,075	0,011
-646,999	-200,000	-0,019	0,083
-645,984	-200,000	-0,031	0,129
-644,970	424,964	-0,054	0,086
-643,955	-200,000	0,012	0,108
-642,941	-200,000	-0,009	-0,104
-641,926	377,221	0,048	-0,073
-640,911	-56,577	0,114	-0,037
-639,897	69,178	0,068	0,051
-638,882	72,678	-0,043	-0,033
-637,868	-12,081	0,019	-0,009
-636,853	-200,000	-0,015	0,107
-635,838	59,144	-0,064	-0,046
-634,824	-13,129	-0,093	-0,044
-633,809	101,751	0,113	0,097
-632,795	166,445	-0,008	-0,008
-631,780	63,110	-0,051	0,038
-630,765	-49,797	0,084	-0,029
-629,751	-84,253	-0,119	0,027
-628,736	-81,519	-0,046	0,011
-627,722	7,985	-0,082	-0,045
-626,707	800,000	-0,053	-0,123
-625,692	-200,000	0,003	0,097
-624,678	625,179	0,013	-0,025
-623,663	-68,756	0,053	-0,015
-622,649	-57,251	0,054	-0,017
-621,634	-200,000	0,005	-0,109
-620,619	-94,956	0,061	-0,012
-619,605	-127,997	0,062	0,006
-618,590	-200,000	-0,014	0,105
-617,576	252,293	0,066	-0,082
-616,561	-109,740	-0,058	0,009
-615,546	800,000	-0,031	-0,089
-614,532	10,546	-0,083	0,046
-613,517	-200,000	0,040	-0,149
-612,503	171,463	0,028	0,029
-611,488	-51,603	-0,038	0,013
-610,474	20,234	0,046	0,027
-609,459	361,781	-0,034	-0,051
-608,444	800,000	-0,070	-0,151
-607,430	800,000	-0,037	-0,106
-606,415	-28,013	-0,082	0,034
-605,401	-200,000	-0,005	-0,028
-604,386	-73,564	0,160	-0,042
-603,371	188,262	-0,032	-0,035
-602,357	-200,000	-0,014	0,086
-601,342	325,459	0,030	-0,042
-600,328	-54,461	-0,041	0,013
-599,313	330,755	0,036	0,050
-598,298	-161,137	-0,030	-0,001
-597,284	365,379	-0,060	-0,089
-596,269	-72,221	0,067	-0,018
-595,255	22,824	-0,142	0,085
-594,240	83,780	-0,080	0,064
-593,225	800,000	0,041	-0,087
-592,211	-163,019	0,057	0,002
-591,196	-200,000	-0,013	0,065
-590,182	304,433	0,051	0,069
-589,167	23,328	0,144	0,086
-588,152	1,805	0,073	0,039
-587,138	-45,154	-0,103	-0,037
-586,123	-200,000	0,003	-0,018
-585,109	-36,661	-0,079	0,031
-584,094	-200,000	0,010	-0,039
-583,079	-47,010	-0,022	0,008
-582,065	89,443	-0,150	-0,123
-581,050	237,602	-0,048	-0,059
-580,036	800,000	0,040	-0,082
-579,021	-63,038	-0,088	0,026
-578,006	-41,698	-0,129	-0,048
-576,992	177,057	-0,078	0,083
-575,977	-200,000	0,013	-0,180
-574,963	266,784	0,051	0,065
-573,948	-180,893	0,093	0,001
-572,934	48,821	-0,023	-0,016
-571,919	461,669	-0,081	0,133
-570,904	222,631	0,047	-0,055
-569,890	-200,000	0,018	-0,193
-568,875	587,026	-0,063	-0,114
-567,861	800,000	-0,022	0,052
-566,846	-200,000	-0,031	0,118
-565,831	-83,969	-0,094	0,022
-564,817	65,392	0,072	0,053
-563,802	-158,054	-0,180	0,008
-562,788	800,000	0,027	0,078
-561,773	-26,934	-0,063	-0,027
-560,758	149,740	-0,025	0,025
-559,744	-200,000	-0,027	0,104
-558,729	78,523	0,064	0,050
-557,715	20,449	0,115	-0,068
-556,700	-44,832	0,083	0,030
-555,685	-108,669	0,058	0,009
-554,671	-34,702	0,030	0,012
-553,656	309,164	-0,077	0,106
-552,642	-2,854	0,167	-0,085
-551,627	-200,000	0,004	0,028
-550,612	-200,000	-0,021	-0,114
-549,598	773,142	-0,046	-0,091
-548,583	-200,000	0,009	0,168
-547,569	-200,000	0,005	0,025
-546,554	171,008	0,063	0,066
-545,539	350,785	0,053	-0,077
-544,525	-29,412	0,186	-0,077
-543,510	-8,768	-0,131	-0,064
-542,496	338,239	-0,074	-0,106
-541,481	-32,748	-0,143	-0,058
-540,466	168,711	-0,006	-0,006
-539,452	800,000	-0,045	-0,092
-538,437	-130,664	0,176	0,017
-537,423	-90,097	0,128	0,027
-536,408	156,656	-0,090	-0,091
-535,393	-102,500	-0,040	-0,007
-534,379	85,755	-0,014	0,011
-533,364	-113,321	-0,051	0,007
-532,350	-200,000	0,016	0,105
-531,335	79,181	0,039	-0,031
-530,321	-106,496	-0,205	-0,033
-529,306	800,000	0,049	-0,113
-528,291	21,793	0,193	-0,114
-527,277	350,931	-0,046	0,067
-526,262	-200,000	-0,000	-0,018
-525,248	800,000	-0,039	-0,119
-524,233	324,319	0,052	0,072
-523,218	800,000	-0,016	0,047
-522,204	-200,000	0,012	0,096
-521,189	109,724	0,029	-0,025
-520,175	-151,851	-0,017	-0,001
-519,160	63,324	0,038	-0,028
-518,145	2,319	0,054	0,028
-517,131	800,000	0,048	-0,129
-516,116	-45,216	-0,081	0,029
-515,102	155,677	-0,081	0,081
-514,087	205,679	-0,078	0,089
-513,072	583,361	-0,053	0,096
-512,058	271,983	0,076	0,098
-511,043	87,258	-0,075	0,060
-510,029	-53,736	-0,023	-0,008
-509,014	-200,000	0,010	0,149
-507,999	55,424	0,076	0,054
-506,985	800,000	-0,065	0,133
-505,970	-200,000	0,024	-0,100
-504,956	-200,000	0,016	-0,090
-503,941	-182,463	-0,166	-0,002
-502,926	218,044	0,033	-0,038
-501,912	800,000	0,036	-0,089
-500,897	-85,974	-0,082	-0,018
-499,883	-168,284	-0,070	0,002
-498,868	100,829	0,052	-0,044
-497,853	348,135	0,051	-0,074
-496,839	-200,000	0,007	0,065
-495,824	23,620	0,070	0,042
-494,810	-78,934	-0,083	0,020
-493,795	159,545	-0,072	0,073
-492,781	700,783	-0,016	0,031
-491,766	88,464	-0,105	-0,085
-490,751	-200,000	-0,031	-0,152
-489,737	800,000	-0,027	-0,079
-488,722	181,394	-0,032	0,035
-487,708	800,000	0,008	0,016
-486,693	-55,345	0,111	-0,036
-485,678	800,000	-0,031	0,067
-484,664	-200,000	0,038	-0,141
-483,649	203,314	0,078	-0,088
-482,635	133,466	0,013	-0,012
-481,620	-200,000	0,006	0,117
-480,605	595,581	0,072	-0,129
-479,591	800,000	0,034	-0,087
-478,576	800,000	-0,021	-0,049
-477,562	29,511	-0,076	-0,047
-476,547	-48,168	0,023	-0,008
-475,532	-200,000	-0,018	-0,096
-474,518	26,848	-0,122	0,074
-473,503	158,747	0,082	0,083
-472,489	800,000	-0,033	-0,098
-471,474	-37,619	0,089	0,034
-470,459	800,000	0,017	-0,035
-469,445	180,767	-0,105	-0,113
-468,430	347,850	0,016	-0,022
-467,416	-200,000	-0,019	-0,061
-466,401	-200,000	-0,023	-0,103
-465,386	-159,376	0,116	0,005
-464,372	-200,000	-0,010	0,073
-463,357	623,245	-0,023	0,043
-462,343	-200,000	-0,024	-0,095
-461,328	-200,000	-0,017	0,060
-460,313	800,000	-0,019	-0,054
-459,299	313,895	0,040	0,055
-458,284	-41,106	0,155	0,058
-457,270	-117,668	0,108	-0,014
-456,255	-101,897	0,025	0,004
-455,241	210,986	-0,048	-0,055
-454,226	128,447	0,137	0,126
-453,211	-4,580	0,071	0,036
-452,197	-200,000	0,002	-0,030
-451,182	5,458	0,151	0,081
-450,168	557,303	-0,059	-0,104
-449,153	-112,821	-0,098	-0,014
-448,138	76,822	-0,065	0,050
-447,124	536,937	0,022	0,038
-446,109	292,532	-0,090	0,120
-445,095	63,798	0,084	0,062
-444,080	800,000	0,040	-0,103
-443,065	-200,000	-0,003	0,035
-442,051	2,110	-0,019	0,010
-441,036	359,400	0,047	-0,068
-440,022	111,993	-0,114	-0,100
-439,007	364,185	0,036	-0,053
-437,992	53,534	0,066	0,046
-436,978	-146,729	0,170	-0,010
-435,963	-137,076	-0,107	0,009
-434,949	187,691	-0,019	-0,021
-433,934	479,776	-0,032	-0,054
-432,919	194,669	-0,042	-0,046
-431,905	-200,000	0,046	-0,171
-430,890	-136,164	0,167	0,014
-429,876	-200,000	0,023	0,124
-428,861	800,000	0,036	-0,081
-427,846	76,281	0,089	0,068
-426,832	44,637	-0,067	-0,045
-425,817	620,247	0,080	-0,147
-424,803	-31,691	0,070	-0,028
-423,788	-200,000	0,031	0,103
-422,773	-128,794	0,060	0,006
-421,759	-200,000	-0,007	0,025
-420,744	399,595	-0,024	-0,037
-419,730	126,162	-0,016	0,015
-418,715	800,000	-0,030	0,081
-417,701	669,644	0,047	0,088
-416,686	-106,849	0,177	0,028
-415,671	75,535	0,042	-0,032
-414,657	400,325	-0,030	0,046
-413,642	-157,533	0,135	0,006
-412,628	-50,208	-0,036	-0,012
-411,613	-119,582	-0,075	-0,009
-410,598	800,000	0,020	0,041
-409,584	-200,000	-0,045	0,169
-408,569	146,486	0,097	-0,094
-407,555	94,054	0,018	-0,015
-406,540	-200,000	-0,092	-0,000
-405,525	170,777	0,048	-0,050
-404,511	-60,223	-0,116	-0,036
-403,496	476,006	-0,019	-0,031
-402,482	-200,000	-0,010	-0,057
-401,467	-142,651	-0,050	-0,004
-400,452	120,085	0,044	0,039
-399,438	-36,825	0,067	0,026
-398,423	6,227	-0,074	-0,040
-397,409	58,281	-0,073	-0,052
-396,394	800,000	-0,039	-0,079
-395,379	-200,000	0,001	0,116
-394,365	-117,437	-0,083	0,011
-393,350	174,835	0,080	-0,085
-392,336	437,355	0,037	0,058
-391,321	-34,675	-0,155	0,061
-390,306	22,453	-0,134	-0,079
-389,292	800,000	0,007	0,018
-388,277	380,265	-0,051	0,076
-387,263	476,260	0,101	-0,167
-386,248	-200,000	0,021	0,092
-385,233	-37,964	0,168	-0,065
-384,219	385,160	-0,025	-0,038
-383,204	-82,278	-0,105	-0,025
-382,190	100,881	0,069	-0,058
-381,175	800,000	0,018	-0,045
-380,160	-56,976	0,089	-0,028
-379,146	151,872	0,129	-0,128
-378,131	-80,558	0,072	0,017
-377,117	273,216	-0,098	-0,126
-376,102	52,222	-0,066	-0,045
-375,088	-200,000	0,025	-0,148
-374,073	800,000	-0,010	-0,026
-373,058	800,000	0,045	0,108
-372,044	-200,000	0,008	0,088
-371,029	800,000	0,026	-0,052
-370,015	-85,579	-0,107	-0,024
-369,000	183,929	0,073	-0,079
-367,985	800,000	0,012	0,036
-366,971	-38,701	-0,113	-0,043
-365,956	-191,468	0,059	0,000
-364,942	279,608	0,069	0,090
-363,927	589,854	-0,016	0,029
-362,912	-177,013	-0,070	-0,001
-361,898	719,840	-0,034	0,066
-360,883	55,361	-0,058	-0,041
-359,869	-200,000	-0,026	-0,148
-358,854	324,680	0,048	-0,067
-357,839	70,799	0,173	0,130
-356,825	288,621	0,045	0,059
-355,810	44,446	0,023	-0,015
-354,796	-200,000	-0,030	0,119
-353,781	-62,157	0,026	-0,008
-352,766	-121,568	0,106	0,013
-351,752	-23,853	-0,136	0,059
-350,737	327,618	0,080	-0,111
-349,723	-200,000	0,006	0,208
-348,708	800,000	-0,026	0,080
-347,693	-200,000	-0,033	0,121
-346,679	-200,000	-0,023	0,086
-345,664	-77,605	0,068	0,017
-344,650	364,293	0,038	0,055
-343,635	-200,000	-0,001	0,084
-342,620	-200,000	-0,026	0,131
-341,606	25,660	0,069	-0,041
-340,591	87,343	-0,019	0,015
-339,577	75,518	-0,069	-0,053
-338,562	-200,000	0,013	0,085
-337,548	-30,933	-0,065	0,026
-336,533	74,661	0,047	-0,036
-335,518	193,235	0,085	0,093
-334,504	-200,000	0,046	0,163
-333,489	-157,368	-0,013	-0,001
-332,475	-25,591	-0,060	0,026
-331,460	-179,141	0,026	0,000
-330,445	-131,725	-0,093	0,009
-329,431	284,879	0,047	-0,062
-328,416	800,000	-0,052	0,112
-327,402	800,000	-0,045	0,116
-326,387	249,269	-0,113	0,138
-325,372	-200,000	0,014	-0,093
-324,358	134,713	-0,047	0,044
-323,343	-200,000	-0,029	0,181
-322,329	5,853	0,210	0,112
-321,314	8,389	0,038	0,021
-320,299	800,000	-0,034	0,093
-319,285	-200,000	0,015	0,110
-318,270	-200,000	0,034	-0,134
-317,256	78,095	-0,101	0,078
-316,241	-86,714	0,097	-0,021
-315,226	-177,579	0,101	-0,002
-314,212	-79,232	0,166	0,040
-313,197	193,390	-0,017	0,018
-312,183	-94,363	-0,132	-0,026
-311,168	244,137	-0,102	-0,124
-310,153	-80,109	0,134	-0,032
-309,139	16,769	-0,142	-0,081
-308,124	-190,729	0,196	-0,001
-307,110	-71,580	-0,037	0,010
-306,095	407,189	0,064	0,098
-305,080	-25,952	-0,071	-0,030
-304,066	480,189	-0,069	-0,113
-303,051	-200,000	0,002	0,018
-302,037	7,356	0,082	-0,044
-301,022	800,000	0,045	0,101
-300,008	226,634	0,073	0,085
-298,993	-200,000	0,003	0,049
-297,978	421,239	-0,044	0,068
-296,964	-31,648	0,084	0,034
-295,949	-52,951	-0,028	-0,009
-294,935	161,975	-0,098	-0,099
-293,920	89,388	0,028	0,023
-292,905	-200,000	0,001	-0,078
-291,891	800,000	0,067	0,161
-290,876	-34,963	-0,201	0,079
-289,862	8,623	-0,036	0,019
-288,847	-200,000	0,027	-0,088
-287,832	-200,000	0,023	-0,138
-286,818	34,852	0,046	0,029
-285,803	800,000	0,052	0,119
-284,789	125,267	0,079	-0,072
-283,774	456,805	0,035	-0,057
-282,759	-47,201	0,007	-0,003
-281,745	264,026	0,048	-0,060
-280,730	254,820	-0,124	-0,153
-279,716	362,579	0,019	0,028
-278,701	-13,567	0,101	0,047
-277,686	29,859	0,151	0,093
-276,672	800,000	-0,043	0,105
-275,657	-21,893	0,174	0,076
-274,643	-119,009	0,040	-0,005
-273,628	70,823	-0,174	-0,130
-272,613	124,109	-0,079	0,071
-271,599	-200,000	0,023	-0,077
-270,584	-73,101	0,053	-0,014
-269,570	122,273	-0,105	-0,095
-268,555	309,854	-0,052	0,071
-267,540	507,329	-0,017	-0,029
-266,526	91,131	-0,152	0,123
-265,511	271,519	-0,076	-0,097
-264,497	-152,462	-0,057	0,003
-263,482	-114,594	0,172	0,023
-262,467	-200,000	-0,035	-0,142
-261,453	-200,000	0,002	0,138
-260,438	141,240	-0,022	-0,021
-259,424	-136,692	0,105	-0,009
-258,409	177,292	0,027	-0,029
-257,395	-98,858	0,081	-0,015
-256,380	47,626	-0,101	0,068
-255,365	224,865	0,111	0,130
-254,351	206,344	0,067	0,076
-253,336	800,000	0,030	0,096
-252,322	-148,766	-0,054	0,003
-251,307	-39,919	-0,076	0,029
-250,292	442,831	0,118	-0,188
-249,278	207,948	0,082	0,093
-248,263	-94,555	0,021	-0,004
-247,249	-48,249	0,138	0,048
-246,234	-200,000	0,003	0,023
-245,219	48,584	-0,030	0,020
-244,205	157,802	0,129	-0,129
-243,190	-93,816	-0,114	0,023
-242,176	800,000	0,049	0,135
-241,161	310,844	-0,084	-0,114
-240,146	800,000	0,020	0,040
-239,132	-89,795	0,030	0,006
-238,117	-200,000	0,013	-0,158
-237,103	183,122	-0,085	-0,090
-236,088	150,958	-0,057	-0,056
-235,073	-122,318	0,038	0,004
-234,059	11,658	0,078	-0,043
-233,044	241,511	-0,115	0,138
-232,030	-200,000	0,010	0,061
-231,015	-25,617	-0,166	-0,070
-230,000	-200,000	0,005	-0,143
-228,986	800,000	0,051	0,136
-227,971	138,040	0,059	-0,056
-226,957	-200,000	0,006	0,055
-225,942	-200,000	-0,033	0,124
-224,927	-103,359	-0,079	0,013
-223,913	800,000	0,018	0,048
-222,898	49,233	-0,100	-0,067
-221,884	124,434	-0,029	0,026
-220,869	-175,460	-0,053	0,001
-219,855	-52,678	0,128	-0,042
-218,840	-28,151	-0,037	-0,015
-217,825	364,605	0,014	0,021
-216,811	-72,083	-0,142	-0,038
-215,796	-200,000	-0,005	0,147
-214,782	483,759	-0,026	-0,043
-213,767	607,939	-0,038	-0,068
-212,752	-200,000	-0,013	0,070
-211,738	10,629	-0,126	0,069
-210,723	143,846	0,038	0,037
-209,709	452,414	-0,033	0,053
-208,694	800,000	-0,034	0,092
-207,679	-198,563	0,086	-0,000
-206,665	277,282	-0,024	-0,030
-205,650	-200,000	-0,017	0,063
-204,636	-200,000	-0,021	0,186
-203,621	-167,371	0,064	0,002
-202,606	800,000	-0,059	0,127
-201,592	-71,078	-0,098	-0,026
-200,577	13,030	-0,129	-0,072
-199,563	-200,000	-0,020	-0,120
-198,548	-114,739	0,012	-0,002
-197,533	-200,000	-0,005	-0,129
-196,519	-200,000	-0,013	-0,198
-195,504	-200,000	-0,030	0,104
-194,490	-200,000	0,019	0,131
-193,475	-68,420	-0,170	-0,047
-192,460	377,138	0,068	0,100
-191,446	236,672	0,041	0,049
-190,431	44,190	0,162	0,107
-189,417	800,000	-0,027	-0,078
-188,402	356,387	0,048	-0,069
-187,387	800,000	0,030	0,064
-186,373	-32,407	-0,062	0,025
-185,358	-109,655	0,039	-0,006
-184,344	105,686	0,056	0,047
-183,329	80,143	-0,097	0,075
-182,315	-72,760	0,118	0,031
-181,300	-200,000	-0,021	0,069
-180,285	546,396	-0,048	-0,084
-179,271	696,441	-0,072	-0,137
-178,256	-82,338	-0,095	-0,022
-177,242	419,402	0,071	-0,110
-176,227	207,835	0,044	0,050
-175,212	-29,984	-0,096	-0,039
-174,198	150,273	-0,043	-0,042
-173,183	156,290	0,094	-0,093
-172,169	-161,730	-0,067	0,002
-171,154	-160,421	0,046	-0,002
-170,139	18,126	-0,045	0,026
-169,125	452,689	-0,044	0,070
-168,110	-107,105	-0,198	-0,031
-167,096	248,341	-0,056	0,068
-166,081	-85,712	0,024	-0,005
-165,066	800,000	-0,025	0,063
-164,052	199,139	0,083	-0,091
-163,037	61,091	0,060	-0,043
-162,023	133,848	-0,093	0,087
-161,008	-5,958	-0,081	-0,040
-159,993	512,139	-0,045	-0,076
-158,979	-200,000	-0,014	-0,136
-157,964	-140,244	0,100	0,007
-156,950	-200,000	0,003	-0,044
-155,935	-125,892	0,127	0,014
-154,920	663,837	0,027	-0,051
-153,906	800,000	0,045	-0,131
-152,891	800,000	0,011	-0,033
-151,877	-200,000	0,008	-0,047
-150,862	71,061	-0,143	-0,106
-149,847	800,000	0,072	-0,189
-148,833	161,516	-0,087	-0,087
-147,818	-82,927	0,093	0,021
-146,804	-200,000	0,018	0,187
-145,789	-1,817	0,182	0,092
-144,775	5,059	-0,052	-0,027
-143,760	32,594	0,131	-0,081
-142,745	169,557	-0,070	0,072
-141,731	11,659	-0,138	-0,076
-140,716	146,557	0,059	-0,057
-139,702	-62,480	-0,080	0,024
-138,687	-152,013	0,080	-0,004
-137,672	800,000	0,030	0,090
-136,658	-59,758	-0,068	0,021
-135,643	49,030	0,077	0,052
-134,629	-72,881	0,083	-0,022
-133,614	-200,000	-0,000	0,088
-132,599	133,368	0,076	0,071
-131,585	31,078	0,090	-0,055
-130,570	-200,000	-0,003	-0,136
-129,556	-9,814	-0,016	0,007
-128,541	54,290	-0,052	0,036
-127,526	184,942	0,077	-0,082
-126,512	209,786	0,071	-0,080
-125,497	79,545	-0,086	0,067
-124,483	-25,783	0,053	-0,022
-123,468	-200,000	0,008	-0,062
-122,453	-200,000	0,001	-0,009
-121,439	784,086	-0,023	0,046
-120,424	-24,123	-0,082	0,035
-119,410	-200,000	-0,029	-0,098
-118,395	-63,619	0,078	0,023
-117,380	800,000	0,051	-0,111
-116,366	63,658	-0,073	0,053
-115,351	-97,743	-0,156	-0,029
-114,337	-51,878	0,123	-0,041
-113,322	-72,936	-0,167	-0,044
-112,307	402,067	0,116	0,176
-111,293	668,311	-0,014	-0,027
-110,278	-38,781	0,069	0,026
-109,264	-37,984	0,053	0,020
-108,249	-64,714	-0,219	0,063
-107,234	-100,011	-0,027	-0,005
-106,220	-95,044	0,098	0,019
-105,205	-1,800	0,079	-0,040
-104,191	183,711	0,047	-0,050
-103,176	442,349	0,004	-0,007
-102,162	125,945	-0,080	-0,072
-101,147	-73,396	0,076	-0,020
-100,132	-69,709	-0,147	-0,040
-99,118	212,377	0,114	0,129
-98,103	-63,488	-0,043	-0,013
-97,089	605,879	0,088	0,159
-96,074	-101,405	-0,079	0,014
-95,059	-148,247	0,049	-0,003
-94,045	-8,238	0,072	0,035
-93,030	800,000	0,018	-0,039
-92,016	-200,000	-0,011	-0,035
-91,001	603,179	0,033	0,059
-89,986	-118,681	0,099	-0,012
-88,972	100,624	0,088	-0,073
-87,957	800,000	-0,059	0,170
-86,943	-11,131	-0,057	0,027
-85,928	124,203	0,042	-0,038
-84,913	69,978	-0,092	-0,068
-83,899	371,662	0,032	0,047
-82,884	-200,000	-0,012	0,112
-81,870	-163,705	-0,159	0,005
-80,855	-93,978	0,123	-0,024
-79,840	-200,000	-0,025	-0,135
-78,826	48,533	-0,037	0,025
-77,811	90,213	0,039	-0,031
-76,797	42,309	0,077	0,050
-75,782	-152,489	0,082	-0,004
-74,767	-94,348	0,040	0,008
-73,753	-200,000	-0,012	-0,099
-72,738	269,382	-0,024	0,030
-71,724	87,313	0,026	0,021
-70,709	800,000	-0,033	0,070
-69,694	-200,000	0,017	0,102
-68,680	-22,290	0,080	0,035
-67,665	321,210	0,074	0,101
-66,651	-152,158	0,018	0,001
-65,636	800,000	0,061	-0,145
-64,622	-200,000	-0,012	-0,084
-63,607	546,996	-0,049	-0,084
-62,592	80,607	-0,062	-0,048
-61,578	-8,296	0,031	0,015
-60,563	-14,362	0,114	0,052
-59,549	-35,776	-0,214	0,083
-58,534	44,776	-2,153	-1,416
-57,519	-200,000	0,008	-0,757
-56,505	-200,000	-1,329	-5,115
-55,490	79,668	0,977	0,751
-54,476	800,000	5,261	12,149
-53,461	-200,000	18,659	309,809
-52,446	800,000	739,712	2292,301
-51,432	542,166	1652,718	2832,370
-50,417	108,901	1636,377	1400,451
-49,403	72,448	1286,747	959,418
-48,388	29,746	1028,523	625,566
-47,373	19,717	990,850	569,562
-46,359	17,290	978,568	554,524
-45,344	13,959	975,010	541,579
-44,330	14,350	973,279	541,873
-43,315	13,623	971,447	538,458
-42,300	13,560	970,473	537,690
-41,286	13,559	969,631	537,200
-40,271	13,552	968,873	536,734
-39,257	13,597	967,615	536,164
-38,242	13,636	966,703	535,765
-37,227	13,667	965,906	535,401
-36,213	13,602	965,178	534,765
-35,198	13,617	964,114	534,203
-34,184	13,603	963,533	533,815
-33,169	13,535	962,636	533,076
-32,154	13,648	961,430	532,755
-31,140	13,600	960,705	532,175
-30,125	13,697	959,936	532,042
-29,111	13,637	959,097	531,363
-28,096	13,645	958,505	531,037
-27,082	13,631	957,841	530,605
-26,067	13,622	956,974	530,073
-25,052	13,587	956,168	529,495
-24,038	13,667	955,534	529,380
-23,023	13,601	954,985	528,842
-22,009	13,647	954,165	528,513
-20,994	13,686	953,702	528,361
-19,979	13,623	953,305	527,918
-18,965	13,635	952,542	527,514
-17,950	13,604	952,029	527,111
-16,936	13,596	951,398	526,713
-15,921	13,586	950,568	526,202
-14,906	13,526	949,850	525,593
-13,892	13,589	949,186	525,404
-12,877	13,494	948,540	524,723
-11,863	13,473	948,063	524,372
-10,848	13,453	947,456	523,950
-9,833	13,616	946,846	524,112
-8,819	13,567	946,170	523,561
-7,804	13,439	945,812	522,936
-6,790	13,548	944,920	522,768
-5,775	13,560	944,386	522,489
-4,760	13,538	943,872	522,114
-3,746	13,472	943,292	521,565
-2,731	13,407	942,484	520,890
-1,717	13,323	941,947	520,306
-0,702	13,350	941,247	519,986
0,313	13,172	940,704	519,908
1,327	16,496	938,555	529,155
2,342	25,301	789,747	468,441
3,356	21,355	444,030	257,519
4,371	-7,648	296,436	142,848
5,386	-11,288	278,243	130,611
6,400	-12,862	272,605	126,486
7,415	-12,607	270,105	125,551
8,429	-12,868	268,769	124,678
9,444	-12,964	267,984	124,215
10,459	-12,850	267,230	123,959
11,473	-12,956	266,680	123,596
12,488	-13,210	266,070	123,072
13,502	-13,126	265,524	122,884
14,517	-13,191	265,176	122,653
15,531	-12,971	264,669	122,607
16,546	-13,115	264,350	122,317
17,561	-13,091	264,000	122,167
18,575	-12,958	263,677	122,126
19,590	-13,157	263,174	121,703
20,604	-13,068	263,012	121,697
21,619	-13,162	262,553	121,390
22,634	-13,128	262,252	121,270
23,648	-13,203	261,894	121,027
24,663	-13,116	261,729	121,018
25,677	-13,219	261,620	120,865
26,692	-13,161	261,198	120,711
27,707	-13,129	260,870	120,576
28,721	-13,116	260,628	120,465
29,736	-13,149	260,268	120,259
30,750	-13,007	259,993	120,247
31,765	-13,087	259,703	120,032
32,780	-13,331	259,675	119,792
33,794	-13,149	259,390	119,810
34,809	-13,277	259,074	119,541
35,823	-13,174	258,902	119,542
36,838	-13,319	258,717	119,318
37,853	-13,182	258,337	119,253
38,867	-13,355	258,028	118,947
39,882	-13,273	257,838	118,921
40,896	-13,246	257,641	118,843
41,911	-13,208	257,354	118,734
42,926	-13,267	257,127	118,567
43,940	-13,389	256,883	118,336
44,955	-13,301	256,718	118,328
45,969	-13,360	256,454	118,143
46,984	-13,417	255,967	117,859
47,999	-13,818	255,925	117,479
49,013	-13,946	255,660	117,236
50,028	-13,994	255,427	117,076
51,042	-13,946	255,085	116,951
52,057	-14,249	254,862	116,576
53,071	-14,098	254,688	116,617
54,086	-14,103	254,635	116,578
55,101	-13,821	254,528	116,763
56,115	-13,629	254,189	116,763
57,130	-13,123	254,244	117,216
58,144	-12,751	253,847	117,343
59,159	-12,786	253,735	117,251
60,174	-12,713	253,531	117,209
61,188	-13,051	253,317	116,808
62,203	-13,080	253,037	116,644
63,217	-12,966	252,857	116,649
64,232	-13,040	252,532	116,425
65,247	-12,936	252,392	116,439
66,261	-13,069	252,106	116,183
67,276	-13,273	251,837	115,874
68,290	-13,345	251,522	115,657
69,305	-13,593	251,328	115,345
70,320	-13,724	251,420	115,265
71,334	-13,122	251,049	115,598
72,349	-12,858	250,795	115,697
73,363	-12,770	250,592	115,667
74,378	-12,965	250,510	115,453
75,393	-12,994	250,168	115,261
76,407	-12,973	249,939	115,163
77,422	-13,205	249,898	114,937
78,436	-13,126	249,758	114,929
79,451	-13,093	249,417	114,790
80,466	-13,303	249,149	114,478
81,480	-13,023	248,795	114,542
82,495	-13,301	248,685	114,247
83,509	-13,402	248,676	114,147
84,524	-13,443	248,393	113,972
85,539	-13,342	248,186	113,952
86,553	-13,621	247,969	113,608
87,568	-13,345	247,750	113,729
88,582	-13,382	247,554	113,598
89,597	-13,507	247,304	113,369
90,611	-13,498	247,284	113,357
91,626	-13,247	247,127	113,486
92,641	-13,289	246,823	113,301
93,655	-13,128	246,651	113,346
94,670	-13,412	246,412	112,989
95,684	-13,317	246,349	113,029
96,699	-13,372	246,058	112,839
97,714	-13,348	245,812	112,737
98,728	-13,615	245,708	112,456
99,743	-13,295	245,311	112,531
100,757	-13,494	245,164	112,288
101,772	-13,512	245,074	112,222
102,787	-13,506	244,810	112,095
103,801	-13,213	244,649	112,255
104,816	-13,124	244,480	112,241
105,830	-13,192	244,428	112,151
106,845	-13,011	244,290	112,228
107,860	-13,143	244,023	111,986
108,874	-13,039	243,763	111,942
109,889	-13,371	243,656	111,609
110,903	-13,361	243,431	111,505
111,918	-13,282	243,204	111,456
112,933	-13,391	243,028	111,276
113,947	-13,301	242,837	111,252
114,962	-13,092	242,669	111,337
115,976	-13,245	242,359	111,059
116,991	-13,253	242,379	111,052
118,006	-13,105	242,128	111,048
119,020	-13,289	242,109	110,879
120,035	-13,236	241,949	110,839
121,049	-13,063	241,717	110,865
122,064	-13,153	241,426	110,648
123,079	-13,293	241,325	110,477
124,093	-13,430	241,165	110,282
125,108	-13,370	240,744	110,129
126,122	-13,680	240,777	109,881
127,137	-13,594	240,426	109,782
128,151	-13,578	240,335	109,743
129,166	-13,375	240,095	109,789
130,181	-13,524	239,794	109,520
131,195	-13,411	239,657	109,539
132,210	-13,285	239,435	109,530
133,224	-13,215	239,371	109,547
134,239	-13,112	239,290	109,584
135,254	-13,112	239,114	109,494
136,268	-13,325	238,848	109,190
137,283	-13,438	238,460	108,913
138,297	-13,554	238,223	108,700
139,312	-13,512	238,127	108,681
140,327	-13,422	238,200	108,778
141,341	-13,042	238,168	109,058
142,356	-12,996	238,027	109,021
143,370	-12,865	237,829	109,027
144,385	-12,788	237,474	108,915
145,400	-12,890	237,407	108,793
146,414	-13,037	237,309	108,621
147,429	-13,060	236,989	108,446
148,443	-13,128	236,886	108,335
149,458	-13,040	236,639	108,283
150,473	-12,737	236,414	108,412
151,487	-13,156	236,270	108,002
152,502	-12,840	236,113	108,172
153,516	-13,018	236,032	107,984
154,531	-12,929	235,848	107,961
155,546	-13,041	235,545	107,724
156,560	-12,985	235,437	107,709
157,575	-13,275	235,209	107,365
158,589	-12,909	234,981	107,542
159,604	-12,973	234,900	107,445
160,619	-12,656	234,664	107,578
161,633	-12,809	234,614	107,424
162,648	-12,855	234,538	107,343
163,662	-12,835	234,391	107,282
164,677	-13,009	234,128	107,015
165,692	-12,790	234,047	107,142
166,706	-12,867	233,815	106,964
167,721	-12,683	233,746	107,069
168,735	-12,825	233,687	106,920
169,750	-12,626	233,373	106,924
170,764	-12,911	233,324	106,668
171,779	-12,831	233,171	106,651
172,794	-12,691	232,933	106,642
173,808	-12,936	232,706	106,337
174,823	-13,374	232,478	105,880
175,837	-13,480	232,252	105,685
176,852	-13,301	232,326	105,849
177,867	-12,996	232,218	106,029
178,881	-12,759	231,957	106,086
179,896	-12,988	231,942	105,890
180,910	-12,793	231,546	105,852
181,925	-12,969	231,545	105,705
182,940	-12,768	231,457	105,812
183,954	-12,828	231,197	105,637
184,969	-12,818	231,223	105,647
185,983	-12,582	231,034	105,735
186,998	-12,556	230,667	105,578
188,013	-12,585	230,516	105,476
189,027	-12,808	230,471	105,274
190,042	-12,634	230,294	105,319
191,056	-12,881	230,163	105,058
192,071	-12,629	229,927	105,136
193,086	-12,807	229,677	104,875
194,100	-12,764	229,619	104,872
195,115	-12,982	229,150	104,480
196,129	-13,180	229,263	104,370
197,144	-7,605	230,961	109,458
198,159	-1,814	232,706	114,790
199,173	1,718	233,777	118,066
200,188	2,602	233,727	118,720
201,202	2,249	233,712	118,426
202,217	2,464	233,458	118,455
203,232	2,461	233,486	118,456
204,246	2,620	233,306	118,477
205,261	2,772	233,005	118,432
206,275	2,844	233,057	118,504
207,290	2,848	232,868	118,401
208,304	2,637	232,826	118,205
209,319	2,947	232,592	118,315
210,334	2,821	232,367	118,093
211,348	2,653	232,009	117,771
212,363	2,131	231,949	117,327
213,377	1,918	231,620	116,985
214,392	2,223	231,612	117,207
215,407	2,195	231,293	117,013
216,421	2,345	231,264	117,104
217,436	2,279	231,022	116,919
218,450	2,097	230,812	116,663
219,465	1,942	230,615	116,434
220,480	2,129	230,545	116,531
221,494	1,996	230,370	116,331
222,509	2,127	230,413	116,443
223,523	2,311	230,129	116,430
224,538	2,099	230,132	116,259
225,553	2,198	229,888	116,200
226,567	2,108	229,602	115,976
227,582	2,416	229,698	116,250
228,596	2,655	229,573	116,359
229,611	2,270	229,429	115,982
230,626	1,894	229,149	115,544
231,640	2,045	228,959	115,553
232,655	2,262	228,794	115,624
233,669	2,668	228,830	115,941
234,684	2,411	228,744	115,692
235,699	2,570	228,456	115,656
236,713	2,192	228,326	115,294
237,728	2,170	228,068	115,136
238,742	2,087	227,808	114,932
239,757	2,116	227,697	114,888
240,772	2,172	227,560	114,850
241,786	2,054	227,389	114,665
242,801	2,185	227,418	114,768
243,815	2,617	227,414	115,082
244,830	2,488	227,237	114,885
245,844	2,257	226,888	114,524
246,859	2,244	226,769	114,444
247,874	2,359	226,576	114,423
248,888	2,288	226,496	114,319
249,903	2,374	226,314	114,281
250,917	2,155	226,315	114,107
251,932	2,140	226,024	113,939
252,947	2,019	225,828	113,739
253,961	1,784	225,687	113,482
254,976	2,135	225,468	113,625
255,990	2,447	225,426	113,827
257,005	2,193	225,440	113,633
258,020	2,098	225,463	113,564
259,034	2,407	225,008	113,556
260,049	2,410	224,984	113,536
261,063	2,358	224,679	113,332
262,078	2,622	224,685	113,522
263,093	2,594	224,479	113,387
264,107	2,473	224,499	113,297
265,122	2,426	224,327	113,166
266,136	2,539	224,257	113,204
267,151	2,522	223,907	113,005
268,166	2,401	223,625	112,762
269,180	1,802	223,558	112,275
270,195	1,975	223,424	112,325
271,209	2,267	223,080	112,358
272,224	2,091	223,200	112,279
273,239	2,175	223,019	112,240
274,253	2,072	222,810	112,048
275,268	2,173	222,658	112,037
276,282	1,995	222,483	111,807
277,297	1,715	222,385	111,542
278,312	2,060	222,272	111,729
279,326	2,098	222,253	111,738
280,341	2,536	221,832	111,838
281,355	2,438	221,728	111,703
282,370	2,183	221,715	111,500
283,384	1,871	221,525	111,165
284,399	1,897	221,359	111,091
285,414	1,974	221,013	110,964
286,428	1,912	221,196	111,001
287,443	2,554	221,031	111,378
288,457	2,524	221,006	111,333
289,472	2,256	220,633	110,940
290,487	1,882	220,459	110,569
291,501	1,649	220,234	110,277
292,516	1,720	220,154	110,278
293,530	1,994	220,023	110,403
294,545	1,886	219,972	110,289
295,560	2,007	219,937	110,349
296,574	2,154	219,716	110,335
297,589	2,208	219,558	110,286
298,603	2,155	219,524	110,220
299,618	2,194	219,330	110,141
300,633	2,169	219,236	110,066
301,647	2,249	219,232	110,112
302,662	2,364	218,986	110,062
303,676	2,527	218,835	110,094
304,691	2,782	218,652	110,176
305,706	2,401	218,505	109,818
306,720	2,467	218,303	109,753
307,735	2,250	218,128	109,499
308,749	1,932	218,051	109,222
309,764	2,435	217,847	109,472
310,779	2,456	217,725	109,416
311,793	2,202	217,777	109,250
312,808	2,204	217,588	109,147
313,822	2,474	217,330	109,201
314,837	2,068	217,267	108,869
315,852	2,135	216,998	108,772
316,866	2,152	216,992	108,771
317,881	2,637	216,737	108,981
318,895	2,314	216,699	108,721
319,910	2,383	216,433	108,627
320,925	1,880	216,316	108,200
321,939	1,703	216,105	107,958
322,954	1,521	216,045	107,789
323,968	1,891	216,001	108,021
324,983	2,265	216,022	108,289
325,997	2,685	215,858	108,496
327,012	2,398	215,592	108,149
328,027	2,471	215,482	108,136
329,041	2,645	215,379	108,198
330,056	2,550	215,180	108,021
331,070	2,222	215,189	107,783
332,085	2,103	214,762	107,475
333,100	2,328	214,847	107,667
334,114	2,325	214,598	107,531
335,129	2,196	214,425	107,344
336,143	1,989	214,365	107,158
337,158	2,081	214,082	107,071
338,173	1,816	214,136	106,902
339,187	2,069	213,785	106,896
340,202	1,665	213,619	106,518
341,216	2,126	213,678	106,863
342,231	2,482	213,576	107,053
343,246	2,248	213,503	106,843
344,260	2,201	213,405	106,751
345,275	2,393	213,226	106,786
346,289	2,604	213,101	106,863
347,304	2,445	212,920	106,651
348,319	2,034	212,742	106,264
349,333	2,172	212,586	106,274
350,348	2,393	212,575	106,413
351,362	2,550	212,377	106,414
352,377	2,490	212,237	106,293
353,392	2,383	212,104	106,141
354,406	2,233	211,955	105,953
355,421	196,826	1314,136	1391,337
356,435	157,418	1448,372	1391,277
