DTS Sentinel unit serial number:	SN410029Multiplexer serial number:	ORYXHardware model number:	OX2-SRSoftware version number:	ORYX F/W v4,00 Oryx Data Collector v3.7.2.0data status	okinstallation	B6 Nyhavnadifferential loss correction	single-endedforward channel	channel 2reverse channel	N/Adate	2023/12/10time	06:15:08forward acquisition time	300,00reverse acquisition time	0,00gamma	499,1914k internal	0,3124k external	0,3124temperature offset calibration	1,0000default loss term (dB/km)	0,3820temperature slope calibration	1,0000multiplexer offset coefficient	1,0000multiplexer slope coefficient	1,0000fibre end	0,00T internal ref (°C)	22,56T ext. ref 1 (°C)	6,47T ext. ref 2 (°C)	6,45length (m)	temperature (°C)	Stokes	anti-Stokes-744,400	800,000	0,056	-0,135
-743,385	-20,919	-0,195	0,089
-742,371	-200,000	0,000	-0,052
-741,356	87,614	-0,243	0,200
-740,342	555,037	-0,038	0,068
-739,327	-90,821	-0,276	0,059
-738,312	-78,066	-0,053	-0,013
-737,298	-116,546	-0,108	0,015
-736,283	-200,000	0,010	-0,151
-735,269	-54,474	-0,221	0,074
-734,254	164,960	0,091	0,096
-733,239	-104,030	-0,470	-0,081
-732,225	203,270	0,093	0,107
-731,210	-200,000	-0,002	0,121
-730,196	238,217	0,063	-0,079
-729,181	-200,000	-0,012	-0,097
-728,167	-200,000	0,000	-0,035
-727,152	229,303	-0,048	-0,059
-726,137	-108,201	-0,137	0,022
-725,123	321,087	-0,081	0,115
-724,108	150,135	-0,142	-0,144
-723,094	-50,711	-0,155	-0,054
-722,079	-50,072	-0,042	-0,015
-721,064	-8,975	-0,062	0,031
-720,050	800,000	-0,052	-0,130
-719,035	555,738	-0,031	0,055
-718,021	510,777	-0,048	-0,083
-717,006	-124,123	-0,069	0,008
-715,991	42,455	-0,084	-0,057
-714,977	77,792	-0,060	-0,048
-713,962	-122,192	0,168	-0,020
-712,948	-200,000	-0,021	0,119
-711,933	-83,750	-0,095	0,022
-710,918	494,384	-0,026	-0,044
-709,904	800,000	-0,039	-0,082
-708,889	-200,000	-0,008	-0,060
-707,875	-0,020	-0,072	-0,038
-706,860	-200,000	-0,008	0,059
-705,845	445,937	-0,033	-0,054
-704,831	452,652	0,019	0,031
-703,816	169,097	0,076	-0,081
-702,802	245,109	-0,054	0,068
-701,787	-131,637	-0,034	-0,003
-700,772	543,190	-0,063	-0,112
-699,758	174,073	-0,019	-0,021
-698,743	-200,000	-0,008	0,076
-697,729	-103,598	-0,081	0,014
-696,714	-88,747	0,026	0,006
-695,699	9,478	0,042	0,024
-694,685	-82,776	-0,066	-0,016
-693,670	800,000	0,034	-0,094
-692,656	-124,768	0,085	0,010
-691,641	260,342	0,050	0,065
-690,627	37,655	-0,034	0,023
-689,612	-117,534	-0,044	0,006
-688,597	-79,127	-0,079	0,020
-687,583	95,620	-0,099	-0,084
-686,568	-56,172	-0,120	-0,039
-685,554	-48,815	-0,102	-0,036
-684,539	788,488	0,050	-0,102
-683,524	-59,109	0,152	0,048
-682,510	-200,000	-0,019	-0,064
-681,495	-93,624	-0,125	-0,026
-680,481	-5,414	-0,079	-0,040
-679,466	309,148	0,013	-0,018
-678,451	160,963	0,006	0,006
-677,437	-200,000	-0,026	0,092
-676,422	-33,288	0,047	0,019
-675,408	-159,475	0,028	-0,001
-674,393	-200,000	0,021	-0,239
-673,378	-59,524	-0,117	-0,037
-672,364	800,000	-0,040	-0,127
-671,349	230,860	-0,047	-0,058
-670,335	135,884	-0,057	0,055
-669,320	-76,586	-0,097	-0,025
-668,305	-152,708	0,103	-0,005
-667,291	-70,250	-0,074	-0,021
-666,276	-150,359	-0,092	0,005
-665,262	-200,000	-0,028	-0,171
-664,247	409,282	0,061	-0,096
-663,232	800,000	0,055	-0,154
-662,218	471,898	0,043	-0,072
-661,203	333,022	0,084	-0,121
-660,189	-46,441	-0,130	-0,047
-659,174	-200,000	-0,015	-0,133
-658,159	45,106	-0,105	-0,072
-657,145	-95,956	-0,052	-0,010
-656,130	-103,047	0,071	0,012
-655,116	90,045	-0,017	0,014
-654,101	391,777	0,025	0,039
-653,086	-200,000	0,010	0,093
-652,072	167,224	0,045	0,048
-651,057	800,000	-0,025	-0,066
-650,043	73,407	-0,059	-0,045
-649,028	350,366	-0,040	-0,059
-648,014	279,972	-0,051	0,068
-646,999	-200,000	0,018	-0,089
-645,984	795,856	0,008	0,016
-644,970	-93,990	-0,140	-0,028
-643,955	-110,872	0,085	0,013
-642,941	66,787	0,049	-0,037
-641,926	800,000	0,012	0,037
-640,911	800,000	-0,053	-0,134
-639,897	175,356	-0,144	0,155
-638,882	800,000	-0,005	0,015
-637,868	-200,000	-0,014	-0,150
-636,853	-44,758	0,104	-0,038
-635,838	77,368	-0,123	-0,097
-634,824	365,894	0,100	-0,150
-633,809	270,083	0,020	-0,027
-632,795	144,926	-0,081	0,080
-631,780	-89,635	-0,014	0,003
-630,765	-200,000	-0,005	0,027
-629,751	-200,000	0,003	-0,129
-628,736	800,000	0,019	-0,048
-627,722	377,537	0,039	0,059
-626,707	-49,102	-0,030	-0,011
-625,692	-124,850	0,117	-0,013
-624,678	-81,365	0,062	0,015
-623,663	-53,231	0,102	0,035
-622,649	180,434	-0,109	0,119
-621,634	591,517	0,018	-0,034
-620,619	99,136	-0,085	-0,073
-619,605	253,359	0,012	0,015
-618,590	5,410	-0,066	0,036
-617,576	800,000	-0,086	0,192
-616,561	-200,000	-0,002	-0,042
-615,546	785,897	-0,074	-0,151
-614,532	800,000	-0,056	0,120
-613,517	800,000	-0,036	0,108
-612,503	-97,680	-0,037	0,007
-611,488	42,966	-0,095	0,064
-610,474	-200,000	0,033	0,113
-609,459	-200,000	-0,001	0,171
-608,444	-55,899	-0,020	-0,007
-607,430	465,416	-0,054	-0,089
-606,415	800,000	0,017	0,044
-605,401	411,804	-0,046	-0,073
-604,386	115,553	-0,068	-0,062
-603,371	-200,000	-0,014	-0,132
-602,357	-200,000	-0,092	0,000
-601,342	-80,659	-0,191	-0,047
-600,328	216,727	-0,080	-0,095
-599,313	54,639	-0,011	0,008
-598,298	-200,000	0,019	0,236
-597,284	65,782	0,085	0,064
-596,269	-200,000	-0,025	0,200
-595,255	-200,000	0,002	0,070
-594,240	800,000	-0,070	0,149
-593,225	800,000	-0,039	0,121
-592,211	644,806	0,009	0,018
-591,196	-200,000	-0,007	0,071
-590,182	-117,529	-0,102	-0,013
-589,167	-200,000	-0,020	-0,129
-588,152	556,844	0,053	-0,095
-587,138	-173,150	0,057	-0,001
-586,123	-89,266	-0,101	-0,022
-585,109	800,000	0,026	-0,059
-584,094	800,000	-0,055	-0,119
-583,079	-200,000	0,014	0,063
-582,065	-82,057	0,088	0,021
-581,050	712,767	-0,063	-0,124
-580,036	779,340	0,094	-0,191
-579,021	800,000	0,040	-0,109
-578,006	800,000	-0,040	-0,113
-576,992	136,377	0,049	-0,047
-575,977	-38,600	0,095	0,037
-574,963	346,621	0,059	-0,086
-573,948	-200,000	0,002	-0,096
-572,934	275,506	-0,048	-0,064
-571,919	-200,000	-0,017	0,072
-570,904	188,494	0,052	-0,057
-569,890	-58,971	0,048	-0,015
-568,875	79,156	0,072	0,057
-567,861	-65,397	0,016	-0,005
-566,846	252,990	-0,108	0,137
-565,831	-120,046	-0,035	-0,004
-564,817	22,336	-0,086	-0,052
-563,802	-200,000	0,009	-0,092
-562,788	-139,939	-0,025	0,002
-561,773	800,000	0,021	-0,045
-560,758	-200,000	0,022	-0,161
-559,744	-70,745	-0,065	0,018
-558,729	-200,000	0,022	0,147
-557,715	28,343	0,039	0,024
-556,700	-144,736	0,087	0,006
-555,685	-0,614	-0,080	0,042
-554,671	-159,084	0,152	-0,006
-553,656	-200,000	0,001	0,080
-552,642	80,514	0,065	0,052
-551,627	-200,000	-0,004	-0,026
-550,612	92,595	-0,049	0,041
-549,598	-14,983	-0,062	-0,029
-548,583	25,949	-0,049	-0,030
-547,569	800,000	-0,030	0,074
-546,554	800,000	0,028	-0,059
-545,539	-116,457	-0,107	0,014
-544,525	17,258	-0,025	0,015
-543,510	-200,000	0,003	-0,014
-542,496	-200,000	-0,002	-0,006
-541,481	-56,267	-0,118	-0,038
-540,466	800,000	0,008	-0,019
-539,452	63,849	0,063	0,047
-538,437	581,917	-0,022	0,040
-537,423	-200,000	-0,010	0,061
-536,408	183,080	-0,032	-0,035
-535,393	50,900	-0,101	-0,070
-534,379	158,147	-0,068	0,070
-533,364	309,394	0,071	-0,099
-532,350	236,336	-0,041	-0,050
-531,335	800,000	-0,029	0,076
-530,321	670,102	0,033	0,064
-529,306	-48,154	-0,016	-0,006
-528,291	-47,540	-0,086	-0,031
-527,277	-200,000	0,009	-0,078
-526,262	-200,000	-0,005	-0,083
-525,248	-86,766	0,060	0,014
-524,233	-129,256	-0,049	-0,005
-523,218	-78,262	0,087	0,022
-522,204	-200,000	0,011	-0,051
-521,189	8,221	-0,083	-0,046
-520,175	-31,535	0,058	0,024
-519,160	175,952	-0,042	0,045
-518,145	-200,000	-0,017	0,100
-517,131	-200,000	-0,013	-0,059
-516,116	-200,000	0,003	0,101
-515,102	138,403	0,016	-0,016
-514,087	-108,028	0,243	-0,039
-513,072	800,000	-0,055	-0,116
-512,058	383,513	0,112	-0,171
-511,043	-200,000	0,011	0,036
-510,029	-200,000	0,016	-0,097
-509,014	-10,407	-0,158	0,077
-507,999	177,607	-0,053	-0,057
-506,985	-102,800	0,075	-0,013
-505,970	-131,791	-0,157	-0,015
-504,956	800,000	-0,008	0,025
-503,941	-37,441	-0,091	0,036
-502,926	-29,980	-0,043	0,018
-501,912	48,813	-0,066	-0,046
-500,897	448,323	0,096	0,157
-499,883	-62,027	-0,039	-0,012
-498,868	-200,000	0,021	-0,170
-497,853	-200,000	-0,036	-0,168
-496,839	-74,184	0,018	0,005
-495,824	-200,000	-0,006	-0,038
-494,810	231,258	0,028	-0,034
-493,795	-43,224	-0,094	-0,035
-492,781	38,303	0,047	-0,031
-491,766	7,291	0,106	0,058
-490,751	18,231	-0,043	0,025
-489,737	-7,501	-0,052	-0,026
-488,722	-200,000	-0,011	0,095
-487,708	800,000	-0,052	-0,140
-486,693	-200,000	-0,008	-0,056
-485,678	46,604	-0,100	0,069
-484,664	-40,430	-0,092	-0,035
-483,649	20,441	0,005	0,003
-482,635	-43,199	0,053	-0,020
-481,620	-47,981	-0,041	-0,015
-480,605	-200,000	0,028	0,093
-479,591	-134,280	-0,034	-0,003
-478,576	519,140	0,083	-0,144
-477,562	-22,708	0,077	0,034
-476,547	-73,803	0,075	0,020
-475,532	800,000	0,028	-0,075
-474,518	-200,000	0,015	-0,163
-473,503	-94,633	0,016	-0,003
-472,489	-200,000	0,010	-0,060
-471,474	-200,000	0,008	-0,137
-470,459	-200,000	-0,031	-0,157
-469,445	41,804	-0,034	-0,023
-468,430	-93,102	0,077	-0,016
-467,416	367,920	0,005	-0,007
-466,401	-99,201	0,040	0,007
-465,386	-7,431	0,152	-0,076
-464,372	-200,000	0,007	-0,038
-463,357	79,754	-0,193	0,153
-462,343	-59,612	-0,069	0,022
-461,328	-166,218	0,052	-0,002
-460,313	173,015	0,025	-0,026
-459,299	-200,000	-0,001	0,104
-458,284	-200,000	0,005	0,053
-457,270	-200,000	-0,007	-0,051
-456,255	800,000	0,052	0,149
-455,241	-200,000	0,018	-0,079
-454,226	800,000	0,037	-0,081
-453,211	800,000	0,022	0,052
-452,197	256,070	0,065	0,083
-451,182	-33,568	0,090	0,037
-450,168	-164,556	-0,008	-0,000
-449,153	-200,000	0,010	0,070
-448,138	-109,395	0,063	0,010
-447,124	547,138	0,025	0,044
-446,109	70,284	0,109	-0,083
-445,095	17,820	0,155	-0,091
-444,080	-52,638	0,063	-0,021
-443,065	-200,000	0,004	0,093
-442,051	-200,000	0,023	-0,143
-441,036	128,898	-0,048	0,045
-440,022	-3,875	-0,156	-0,080
-439,007	252,793	0,026	0,033
-437,992	-199,246	0,042	-0,000
-436,978	-62,102	0,108	0,033
-435,963	-200,000	0,014	-0,065
-434,949	260,311	-0,017	0,022
-433,934	648,864	0,039	-0,073
-432,919	800,000	-0,070	-0,202
-431,905	-6,102	-0,042	-0,021
-430,890	-82,216	0,064	0,015
-429,876	-200,000	0,000	0,162
-428,861	-200,000	0,001	0,033
-427,846	564,961	0,040	0,071
-426,832	-72,315	-0,038	0,010
-425,817	800,000	0,040	-0,093
-424,803	-200,000	-0,008	-0,048
-423,788	-200,000	0,000	0,007
-422,773	-200,000	0,006	0,095
-421,759	-169,426	-0,022	-0,001
-420,744	-160,721	0,105	0,004
-419,730	-200,000	0,025	-0,105
-418,715	-26,455	-0,072	0,031
-417,701	-200,000	-0,020	-0,088
-416,686	800,000	0,029	-0,061
-415,671	5,405	0,073	0,040
-414,657	194,359	0,068	0,076
-413,642	744,555	0,027	-0,054
-412,628	-81,310	-0,033	0,008
-411,613	205,834	-0,113	-0,130
-410,598	185,558	0,148	-0,162
-409,584	800,000	0,029	-0,079
-408,569	-200,000	0,019	0,078
-407,555	-200,000	-0,019	-0,088
-406,540	102,464	0,102	-0,088
-405,525	150,397	-0,060	0,060
-404,511	800,000	-0,032	0,087
-403,496	8,679	0,023	0,012
-402,482	-200,000	0,014	0,110
-401,467	-200,000	0,026	0,119
-400,452	119,684	0,141	0,128
-399,438	14,124	0,118	0,067
-398,423	-152,189	-0,210	-0,011
-397,409	-116,836	0,044	-0,006
-396,394	148,853	0,058	0,057
-395,379	143,015	0,072	0,071
-394,365	94,088	-0,055	-0,046
-393,350	645,600	0,047	0,088
-392,336	355,706	-0,072	-0,105
-391,321	-200,000	-0,018	-0,147
-390,306	800,000	-0,022	-0,057
-389,292	-80,809	-0,093	-0,023
-388,277	-83,581	0,116	0,027
-387,263	-200,000	-0,016	0,097
-386,248	249,031	0,060	0,075
-385,233	237,675	-0,029	0,035
-384,219	-100,719	-0,082	-0,015
-383,204	-200,000	-0,028	-0,123
-382,190	-200,000	0,027	-0,135
-381,175	-24,885	-0,108	-0,047
-380,160	800,000	-0,002	0,006
-379,146	-40,148	0,084	0,032
-378,131	800,000	-0,003	-0,010
-377,117	800,000	0,009	-0,022
-376,102	-105,724	-0,192	-0,032
-375,088	625,641	-0,069	-0,128
-374,073	47,087	-0,084	0,057
-373,058	-32,919	0,134	0,054
-372,044	-92,885	0,069	0,014
-371,029	239,111	-0,062	0,075
-370,015	202,457	-0,107	0,122
-369,000	141,890	0,023	-0,023
-367,985	-186,729	-0,063	-0,001
-366,971	800,000	-0,007	0,016
-365,956	360,648	-0,060	0,088
-364,942	-200,000	-0,013	-0,055
-363,927	800,000	0,019	0,060
-362,912	-110,036	-0,128	0,019
-361,898	-106,064	-0,067	-0,011
-360,883	29,050	-0,074	-0,046
-359,869	-200,000	0,019	0,069
-358,854	224,284	0,078	0,092
-357,839	-97,442	0,064	-0,012
-356,825	505,768	0,078	-0,134
-355,810	-106,096	0,091	-0,015
-354,796	-21,464	0,025	0,011
-353,781	1,328	-0,043	-0,023
-352,766	800,000	0,055	0,118
-351,752	800,000	0,069	0,160
-350,737	407,845	-0,061	0,095
-349,723	-66,240	0,163	0,047
-348,708	169,708	0,051	-0,053
-347,693	800,000	-0,031	0,092
-346,679	800,000	0,018	-0,048
-345,664	21,535	-0,141	-0,084
-344,650	465,568	0,069	-0,113
-343,635	-169,662	0,279	0,007
-342,620	571,841	-0,075	0,135
-341,606	-99,114	0,104	0,019
-340,591	61,100	-0,056	0,041
-339,577	695,896	-0,035	-0,068
-338,562	-50,232	-0,020	-0,007
-337,548	-175,634	0,062	0,001
-336,533	-200,000	0,014	-0,112
-335,518	-41,072	0,024	0,009
-334,504	-200,000	0,008	0,056
-333,489	-44,538	0,129	0,047
-332,475	-200,000	-0,002	0,094
-331,460	-102,581	-0,066	-0,011
-330,445	147,960	0,141	0,139
-329,431	-0,391	0,083	-0,043
-328,416	-33,110	0,113	0,046
-327,402	0,232	0,119	0,062
-326,387	-143,955	0,009	0,001
-325,372	-136,502	-0,130	-0,011
-324,358	-183,619	0,057	-0,001
-323,343	-31,698	-0,098	0,040
-322,329	-75,152	-0,077	-0,020
-321,314	-200,000	0,002	0,112
-320,299	-200,000	-0,013	0,046
-319,285	223,766	0,027	0,032
-318,270	8,073	0,114	0,062
-317,256	187,693	-0,063	-0,069
-316,241	668,172	-0,063	0,121
-315,226	-200,000	0,001	-0,010
-314,212	629,574	0,059	0,110
-313,197	-200,000	-0,030	-0,153
-312,183	-200,000	0,017	-0,140
-311,168	8,147	0,030	0,017
-310,153	-108,261	0,042	0,007
-309,139	-163,923	-0,136	0,005
-308,124	-200,000	0,003	-0,060
-307,110	800,000	-0,031	0,066
-306,095	668,706	0,027	-0,051
-305,080	41,750	-0,041	-0,027
-304,066	404,116	0,040	-0,062
-303,051	335,201	-0,027	0,038
-302,037	-108,924	0,094	0,015
-301,022	-30,865	-0,047	-0,019
-300,008	74,297	-0,077	0,059
-298,993	-169,150	0,190	-0,005
-297,978	200,648	-0,061	-0,069
-296,964	21,480	0,030	-0,018
-295,949	95,702	0,047	0,039
-294,935	-200,000	0,008	0,094
-293,920	-18,749	-0,099	-0,045
-292,905	538,867	-0,041	-0,072
-291,891	350,414	0,026	0,038
-290,876	-13,714	-0,113	0,053
-289,862	5,931	-0,104	-0,056
-288,847	-105,332	-0,091	-0,015
-287,832	800,000	0,022	-0,047
-286,818	7,299	0,040	0,022
-285,803	-1,437	-0,041	0,021
-284,789	-93,594	0,046	-0,009
-283,774	393,797	0,052	0,079
-282,759	-130,601	-0,184	0,018
-281,745	588,626	0,047	0,085
-280,730	-200,000	-0,060	-0,214
-279,716	129,442	0,099	-0,093
-278,701	-200,000	0,009	0,055
-277,686	534,299	-0,023	0,039
-276,672	46,690	-0,044	-0,030
-275,657	-200,000	-0,012	-0,061
-274,643	800,000	0,012	0,028
-273,628	244,950	0,029	-0,036
-272,613	800,000	0,063	0,142
-271,599	-159,985	-0,073	0,003
-270,584	800,000	-0,055	0,141
-269,570	68,633	0,150	0,112
-268,555	-23,368	0,122	0,053
-267,540	-110,178	-0,128	0,019
-266,526	-29,704	-0,149	-0,062
-265,511	800,000	-0,045	0,113
-264,497	53,755	0,091	-0,063
-263,482	64,502	0,040	0,029
-262,467	-74,000	-0,052	0,014
-261,453	-17,397	-0,085	-0,039
-260,438	-49,556	0,045	-0,016
-259,424	-13,244	-0,064	-0,030
-258,409	288,212	-0,092	-0,122
-257,395	800,000	-0,036	0,084
-256,380	213,920	0,012	0,014
-255,365	-200,000	0,023	0,081
-254,351	52,247	-0,017	0,012
-253,336	-59,799	-0,057	0,018
-252,322	-7,260	-0,047	-0,023
-251,307	-200,000	-0,003	0,051
-250,292	-112,667	0,018	0,003
-249,278	-200,000	0,005	0,217
-248,263	-200,000	-0,001	0,106
-247,249	-200,000	0,010	0,054
-246,234	-50,689	-0,083	0,029
-245,219	171,016	0,067	0,070
-244,205	558,126	0,032	-0,057
-243,190	-28,425	0,064	-0,027
-242,176	-69,166	0,072	-0,020
-241,161	100,836	0,101	-0,086
-240,146	474,096	-0,044	0,073
-239,132	-32,876	-0,047	0,019
-238,117	-200,000	0,013	-0,071
-237,103	-71,089	0,041	-0,011
-236,088	768,575	-0,054	-0,107
-235,073	343,182	-0,043	-0,062
-234,059	-42,533	0,088	-0,033
-233,044	237,478	-0,077	-0,093
-232,030	-200,000	-0,010	0,124
-231,015	112,156	-0,064	-0,057
-230,000	26,081	0,015	0,009
-228,986	157,025	0,065	-0,066
-227,971	-95,069	0,092	0,018
-226,957	68,195	-0,091	0,068
-225,942	-34,329	-0,014	-0,006
-224,927	633,554	-0,087	0,162
-223,913	5,248	-0,080	-0,043
-222,898	-36,497	-0,045	0,017
-221,884	-98,047	-0,076	0,014
-220,869	88,878	-0,124	0,100
-219,855	176,885	0,085	-0,090
-218,840	213,853	0,079	-0,091
-217,825	-102,936	0,082	-0,014
-216,811	-106,766	-0,072	-0,012
-215,796	53,234	-0,026	0,018
-214,782	-200,000	-0,003	0,095
-213,767	173,080	-0,045	0,048
-212,752	-200,000	-0,043	0,140
-211,738	800,000	-0,021	-0,053
-210,723	-200,000	-0,023	0,098
-209,709	-200,000	0,045	-0,243
-208,694	189,579	0,023	-0,025
-207,679	7,499	0,040	0,022
-206,665	-186,679	0,135	-0,001
-205,650	-200,000	0,003	-0,069
-204,636	-200,000	0,011	0,073
-203,621	-200,000	-0,030	0,163
-202,606	-200,000	-0,021	0,148
-201,592	-146,790	-0,038	-0,002
-200,577	75,849	0,031	-0,024
-199,563	-200,000	-0,010	-0,072
-198,548	1,677	-0,107	-0,056
-197,533	-99,905	0,220	-0,040
-196,519	-200,000	-0,025	0,108
-195,504	-21,203	-0,089	-0,040
-194,490	-200,000	-0,026	-0,088
-193,475	-193,556	-0,068	-0,000
-192,460	-200,000	-0,020	-0,134
-191,446	800,000	0,041	0,118
-190,431	800,000	0,041	0,084
-189,417	210,635	0,103	0,118
-188,402	800,000	0,020	0,051
-187,387	-200,000	-0,015	-0,074
-186,373	109,434	0,093	-0,082
-185,358	-133,554	0,025	-0,002
-184,344	800,000	-0,026	0,060
-183,329	593,408	0,039	0,071
-182,315	21,258	0,062	-0,037
-181,300	-48,634	0,034	-0,012
-180,285	800,000	0,027	-0,083
-179,271	653,013	-0,051	0,096
-178,256	-58,720	0,128	0,040
-177,242	195,808	-0,051	-0,056
-176,227	145,205	-0,042	-0,041
-175,212	100,658	0,054	0,046
-174,198	-48,174	0,140	-0,049
-173,183	662,058	-0,064	-0,121
-172,169	-83,693	-0,097	-0,022
-171,154	-200,000	0,009	-0,032
-170,139	126,222	0,058	-0,053
-169,125	-134,543	0,085	0,007
-168,110	800,000	0,040	0,101
-167,096	-123,391	0,047	-0,005
-166,081	-72,825	-0,103	-0,027
-165,066	-146,214	-0,050	0,003
-164,052	-200,000	-0,018	0,080
-163,037	194,826	0,059	0,065
-162,023	346,774	-0,048	-0,068
-161,008	-200,000	0,008	0,058
-159,993	-100,855	0,103	-0,018
-158,979	18,740	-0,067	-0,039
-157,964	96,378	0,091	-0,076
-156,950	31,728	-0,071	0,045
-155,935	151,400	-0,090	0,089
-154,920	60,679	0,105	0,076
-153,906	118,779	0,077	0,069
-152,891	26,662	0,074	0,045
-151,877	32,306	-0,049	-0,031
-150,862	206,619	0,035	-0,040
-149,847	-200,000	-0,002	-0,010
-148,833	-200,000	-0,002	0,027
-147,818	800,000	0,022	0,049
-146,804	-45,198	0,073	-0,026
-145,789	326,603	0,059	0,083
-144,775	-200,000	0,006	0,029
-143,760	-159,165	-0,119	0,005
-142,745	-114,337	-0,209	0,029
-141,731	-154,257	0,149	0,007
-140,716	556,565	0,032	-0,056
-139,702	60,209	-0,063	0,045
-138,687	-200,000	-0,045	0,178
-137,672	-200,000	-0,003	0,037
-136,658	50,653	-0,064	-0,044
-135,643	-145,258	-0,087	0,006
-134,629	-44,252	-0,136	0,049
-133,614	-200,000	-0,005	-0,181
-132,599	-36,496	0,100	0,039
-131,585	800,000	0,029	0,084
-130,570	-140,606	0,091	-0,007
-129,556	-62,474	0,082	-0,025
-128,541	224,646	-0,078	-0,092
-127,526	-97,675	-0,122	-0,023
-126,512	-137,491	0,060	-0,005
-125,497	-119,658	0,133	-0,016
-124,483	800,000	0,029	-0,066
-123,468	-200,000	0,008	-0,029
-122,453	275,118	-0,097	0,126
-121,439	-6,640	-0,090	-0,045
-120,424	104,867	-0,030	0,026
-119,410	-125,403	0,063	0,007
-118,395	800,000	-0,056	-0,124
-117,380	77,669	0,072	-0,056
-116,366	800,000	-0,049	-0,149
-115,351	-128,587	0,033	0,003
-114,337	-139,788	-0,127	0,010
-113,322	-200,000	-0,018	-0,069
-112,307	800,000	-0,048	0,143
-111,293	-71,991	0,120	0,032
-110,278	-200,000	0,005	-0,082
-109,264	63,621	0,087	0,063
-108,249	-118,759	0,081	0,010
-107,234	541,863	-0,074	-0,129
-106,220	46,073	0,160	-0,107
-105,205	800,000	0,033	0,096
-104,191	420,247	-0,034	0,053
-103,176	-200,000	-0,008	0,112
-102,162	134,526	-0,012	-0,011
-101,147	800,000	0,028	-0,057
-100,132	556,658	-0,021	-0,038
-99,118	620,838	0,007	0,013
-98,103	3,453	0,069	-0,036
-97,089	404,706	-0,029	0,044
-96,074	-200,000	0,006	0,058
-95,059	-71,391	0,097	0,026
-94,045	220,079	-0,045	0,053
-93,030	-200,000	0,006	-0,044
-92,016	444,438	0,105	-0,168
-91,001	-200,000	-0,003	0,112
-89,986	-7,284	0,137	0,067
-88,972	-116,019	-0,101	-0,014
-87,957	117,547	0,121	-0,108
-86,943	-200,000	-0,003	-0,034
-85,928	-92,079	-0,144	-0,029
-84,913	99,295	-0,060	0,050
-83,899	-200,000	-0,035	-0,128
-82,884	64,026	-0,030	-0,022
-81,870	-200,000	-0,004	-0,019
-80,855	637,887	0,046	-0,085
-79,840	-200,000	0,002	0,045
-78,826	-120,615	-0,066	-0,008
-77,811	-3,577	-0,074	0,037
-76,797	-79,575	-0,131	-0,032
-75,782	258,624	0,059	0,074
-74,767	177,478	-0,032	-0,034
-73,753	316,501	0,007	0,010
-72,738	224,379	0,036	-0,042
-71,724	-95,322	0,131	0,025
-70,709	-200,000	-0,014	-0,052
-69,694	-200,000	-0,002	0,096
-68,680	800,000	-0,086	0,182
-67,665	-200,000	-0,003	0,035
-66,651	-113,452	0,103	0,015
-65,636	800,000	0,045	0,130
-64,622	-200,000	0,018	-0,062
-63,607	-103,057	0,039	-0,007
-62,592	569,920	-0,007	-0,012
-61,578	-13,375	-0,089	-0,042
-60,563	112,706	0,090	0,079
-59,549	-200,000	-0,007	0,066
-58,534	-119,716	-1,340	-0,166
-57,519	514,976	-0,843	-1,434
-56,505	-200,000	-0,998	-4,457
-55,490	42,834	0,624	-0,412
-54,476	800,000	4,848	11,817
-53,461	-200,000	13,463	253,320
-52,446	-200,000	689,354	2268,425
-51,432	595,249	1623,027	2925,545
-50,417	120,776	1636,140	1475,665
-49,403	73,544	1290,101	979,033
-48,388	38,359	1025,116	661,147
-47,373	24,435	982,642	587,948
-46,359	23,693	972,290	579,298
-45,344	22,770	967,978	573,688
-44,330	22,706	966,470	572,564
-43,315	22,611	965,042	571,383
-42,300	22,603	964,012	570,727
-41,286	22,631	963,191	570,309
-40,271	22,538	962,247	569,426
-39,257	22,543	961,177	568,786
-38,242	22,593	960,277	568,392
-37,227	22,590	959,396	567,838
-36,213	22,582	958,585	567,309
-35,198	22,520	957,773	566,607
-34,184	22,597	956,935	566,336
-33,169	22,566	956,156	565,754
-32,154	22,569	955,450	565,322
-31,140	22,582	954,460	564,755
-30,125	22,632	953,552	564,357
-29,111	22,614	952,753	563,805
-28,096	22,617	952,155	563,440
-27,082	22,664	951,390	563,114
-26,067	22,598	950,702	562,472
-25,052	22,581	950,013	561,990
-24,038	22,611	949,213	561,588
-23,023	22,519	948,864	561,065
-22,009	22,678	947,902	560,982
-20,994	22,620	947,316	560,430
-19,979	22,668	946,752	560,225
-18,965	22,592	946,283	559,684
-17,950	22,620	945,639	559,369
-16,936	22,524	944,847	558,574
-15,921	22,580	944,158	558,321
-14,906	22,505	943,488	557,665
-13,892	22,505	942,850	557,264
-12,877	22,527	942,220	556,942
-11,863	22,386	941,778	556,208
-10,848	22,457	941,082	556,001
-9,833	22,567	940,546	556,012
-8,819	22,548	940,071	555,650
-7,804	22,522	939,364	555,126
-6,790	22,474	938,656	554,535
-5,775	22,529	938,038	554,319
-4,760	22,498	937,500	553,883
-3,746	22,496	936,828	553,457
-2,731	22,329	936,242	552,561
-1,717	22,289	935,388	551,911
-0,702	22,306	934,757	551,569
0,313	22,086	934,228	551,395
1,327	25,125	932,015	559,599
2,342	34,783	796,483	503,952
3,356	32,680	451,908	282,736
4,371	1,735	293,546	152,815
5,386	-2,794	274,416	138,564
6,400	-3,964	268,549	134,505
7,415	-4,655	266,444	132,804
8,429	-4,120	265,062	132,593
9,444	-4,030	264,229	132,246
10,459	-4,106	263,623	131,862
11,473	-4,269	263,050	131,416
12,488	-4,410	262,496	131,000
13,502	-4,565	262,009	130,605
14,517	-4,443	261,447	130,423
15,531	-4,306	261,087	130,355
16,546	-4,305	260,909	130,256
17,561	-4,293	260,367	129,984
18,575	-4,273	260,040	129,827
19,590	-4,445	259,779	129,531
20,604	-4,318	259,491	129,490
21,619	-4,441	259,107	129,177
22,634	-4,272	258,742	129,134
23,648	-4,485	258,488	128,806
24,663	-4,301	258,185	128,807
25,677	-4,412	258,077	128,643
26,692	-4,418	257,688	128,432
27,707	-4,351	257,514	128,393
28,721	-4,485	257,374	128,194
29,736	-4,381	256,982	128,079
30,750	-4,494	256,666	127,810
31,765	-4,591	256,399	127,580
32,780	-4,593	256,303	127,519
33,794	-4,336	256,086	127,627
34,809	-4,393	255,762	127,403
35,823	-4,369	255,473	127,269
36,838	-4,211	255,103	127,212
37,853	-4,459	254,963	126,914
38,867	-4,383	254,820	126,898
39,882	-4,442	254,588	126,719
40,896	-4,666	254,445	126,440
41,911	-4,637	254,257	126,361
42,926	-4,434	253,915	126,357
43,940	-4,561	253,569	126,063
44,955	-4,556	253,338	125,942
45,969	-4,660	253,256	125,799
46,984	-4,759	253,073	125,610
47,999	-5,012	252,632	125,161
49,013	-5,046	252,542	125,076
50,028	-5,206	252,280	124,796
51,042	-5,248	251,890	124,555
52,057	-5,330	251,888	124,472
53,071	-5,304	251,670	124,376
54,086	-5,077	251,420	124,437
55,101	-5,092	251,307	124,357
56,115	-4,772	251,118	124,528
57,130	-4,428	250,851	124,682
58,144	-4,208	250,856	124,863
59,159	-4,202	250,593	124,726
60,174	-4,192	250,359	124,607
61,188	-4,288	250,234	124,451
62,203	-4,390	250,023	124,247
63,217	-4,328	249,837	124,198
64,232	-4,283	249,533	124,074
65,247	-4,391	249,336	123,872
66,261	-4,230	249,139	123,901
67,276	-4,701	248,824	123,331
68,290	-4,707	248,529	123,168
69,305	-4,937	248,428	122,911
70,320	-4,936	248,236	122,807
71,334	-4,569	248,177	123,079
72,349	-4,381	248,025	123,152
73,363	-4,009	247,584	123,239
74,378	-4,127	247,523	123,097
75,393	-4,190	247,293	122,918
76,407	-4,508	247,146	122,564
77,422	-4,212	246,988	122,726
78,436	-4,359	246,757	122,475
79,451	-4,405	246,659	122,377
80,466	-4,463	246,233	122,106
81,480	-4,540	246,032	121,931
82,495	-4,598	245,958	121,834
83,509	-4,540	245,600	121,695
84,524	-4,537	245,440	121,607
85,539	-4,607	245,235	121,436
86,553	-4,580	245,067	121,365
87,568	-4,674	244,956	121,220
88,582	-4,615	244,823	121,193
89,597	-4,761	244,600	120,950
90,611	-4,593	244,497	121,028
91,626	-4,419	244,138	120,985
92,641	-4,330	244,037	120,999
93,655	-4,582	243,807	120,663
94,670	-4,514	243,677	120,645
95,684	-4,455	243,445	120,569
96,699	-4,516	243,327	120,449
97,714	-4,582	243,110	120,276
98,728	-4,640	242,983	120,154
99,743	-4,840	242,653	119,814
100,757	-4,662	242,324	119,788
101,772	-4,597	242,402	119,870
102,787	-4,725	242,206	119,656
103,801	-4,569	242,036	119,690
104,816	-4,589	241,828	119,561
105,830	-4,314	241,722	119,725
106,845	-4,455	241,659	119,567
107,860	-4,379	241,425	119,503
108,874	-4,701	241,212	119,121
109,889	-4,358	240,890	119,235
110,903	-4,476	240,822	119,092
111,918	-4,471	240,608	118,981
112,933	-4,602	240,490	118,804
113,947	-4,555	240,275	118,726
114,962	-4,422	240,079	118,727
115,976	-4,349	239,935	118,705
116,991	-4,528	239,838	118,500
118,006	-4,446	239,637	118,457
119,020	-4,369	239,433	118,409
120,035	-4,246	239,240	118,404
121,049	-4,380	239,260	118,294
122,064	-4,297	239,017	118,230
123,079	-4,497	238,826	117,962
124,093	-4,560	238,618	117,798
125,108	-4,604	238,190	117,540
126,122	-4,849	238,110	117,291
127,137	-4,646	237,795	117,290
128,151	-4,844	237,847	117,144
129,166	-4,570	237,700	117,284
130,181	-4,824	237,357	116,898
131,195	-4,939	237,304	116,768
132,210	-4,561	237,094	116,961
133,224	-4,283	236,816	117,038
134,239	-4,444	236,929	116,954
135,254	-4,433	236,695	116,836
136,268	-4,620	236,404	116,531
137,283	-4,687	236,177	116,355
138,297	-4,819	236,075	116,188
139,312	-4,823	235,647	115,964
140,327	-4,515	235,807	116,280
141,341	-4,303	235,687	116,381
142,356	-4,024	235,694	116,598
143,370	-4,015	235,230	116,365
144,385	-4,106	235,328	116,331
145,400	-4,175	235,088	116,146
146,414	-4,068	234,922	116,139
147,429	-4,204	234,673	115,897
148,443	-4,176	234,501	115,824
149,458	-4,182	234,310	115,715
150,473	-4,184	234,096	115,598
151,487	-4,209	234,011	115,525
152,502	-4,439	233,990	115,321
153,516	-3,923	233,657	115,557
154,531	-4,162	233,590	115,324
155,546	-4,100	233,468	115,303
156,560	-4,369	233,290	114,991
157,575	-4,282	233,027	114,920
158,589	-4,502	232,903	114,674
159,604	-4,151	232,769	114,876
160,619	-4,021	232,596	114,883
161,633	-4,066	232,414	114,748
162,648	-3,953	232,235	114,738
163,662	-4,229	232,094	114,440
164,677	-4,197	231,941	114,380
165,692	-4,051	231,754	114,392
166,706	-3,967	231,639	114,392
167,721	-4,022	231,499	114,269
168,735	-3,969	231,317	114,211
169,750	-3,981	231,133	114,100
170,764	-4,155	231,199	113,986
171,779	-3,900	231,008	114,082
172,794	-4,127	230,819	113,800
173,808	-4,023	230,467	113,698
174,823	-4,610	230,277	113,134
175,837	-4,805	230,069	112,869
176,852	-4,469	230,160	113,168
177,867	-4,300	229,996	113,208
178,881	-4,219	229,919	113,224
179,896	-4,072	229,743	113,242
180,910	-4,081	229,550	113,129
181,925	-3,898	229,278	113,129
182,940	-4,155	229,299	112,928
183,954	-3,794	229,043	113,072
184,969	-4,128	229,023	112,793
185,983	-3,892	228,798	112,855
186,998	-3,795	228,581	112,814
188,013	-3,996	228,526	112,620
189,027	-3,888	228,227	112,547
190,042	-3,914	228,234	112,521
191,056	-3,982	227,994	112,340
192,071	-3,999	227,910	112,275
193,086	-4,114	227,677	112,061
194,100	-3,959	227,456	112,062
195,115	-4,260	227,119	111,654
196,129	-4,622	227,080	111,346
197,144	-2,253	227,782	113,510
198,159	1,262	228,733	116,697
199,173	4,054	229,350	119,164
200,188	4,257	229,367	119,320
201,202	4,203	229,113	119,135
202,217	4,264	229,083	119,156
203,232	4,419	228,930	119,186
204,246	4,603	228,762	119,230
205,261	4,609	228,667	119,174
206,275	4,883	228,458	119,265
207,290	4,767	228,471	119,172
208,304	4,720	228,280	119,026
209,319	4,703	228,098	118,907
210,334	4,903	227,838	118,914
211,348	4,652	227,594	118,584
212,363	4,094	227,406	118,048
213,377	3,840	227,184	117,728
214,392	3,769	227,010	117,573
215,407	3,885	226,956	117,623
216,421	4,218	226,726	117,748
217,436	4,058	226,476	117,485
218,450	3,840	226,223	117,177
219,465	3,809	226,198	117,130
220,480	3,544	226,126	116,881
221,494	3,706	225,925	116,890
222,509	3,955	225,813	117,011
223,523	3,831	225,690	116,842
224,538	3,918	225,431	116,764
225,553	3,821	225,352	116,639
226,567	4,044	225,320	116,781
227,582	4,108	225,251	116,784
228,596	4,371	225,012	116,848
229,611	4,019	224,885	116,506
230,626	3,703	224,578	116,097
231,640	3,792	224,466	116,096
232,655	3,965	224,348	116,156
233,669	4,398	224,431	116,515
234,684	4,592	224,155	116,508
235,699	4,079	224,052	116,057
236,713	4,024	223,845	115,898
237,728	3,969	223,647	115,744
238,742	3,903	223,407	115,560
239,757	4,061	223,203	115,562
240,772	3,957	223,050	115,395
241,786	3,687	223,046	115,180
242,801	3,971	223,005	115,361
243,815	4,299	222,854	115,519
244,830	4,348	222,799	115,517
245,844	4,239	222,409	115,223
246,859	4,018	222,340	115,012
247,874	4,156	222,192	115,028
248,888	4,231	222,251	115,104
249,903	3,785	221,934	114,597
250,917	3,856	221,817	114,579
251,932	3,946	221,755	114,605
252,947	3,718	221,460	114,272
253,961	3,624	221,323	114,121
254,976	3,957	221,106	114,246
255,990	4,187	221,050	114,378
257,005	4,073	220,916	114,214
258,020	3,938	220,851	114,070
259,034	4,488	220,799	114,440
260,049	4,279	220,534	114,138
261,063	4,027	220,389	113,867
262,078	4,284	220,243	113,971
263,093	4,320	220,093	113,910
264,107	4,230	220,001	113,786
265,122	4,287	219,760	113,693
266,136	4,586	219,765	113,905
267,151	4,591	219,706	113,869
268,166	4,013	219,351	113,249
269,180	3,865	219,084	112,993
270,195	3,727	219,017	112,846
271,209	3,708	218,891	112,758
272,224	3,830	218,710	112,744
273,239	4,052	218,644	112,863
274,253	3,907	218,430	112,636
275,268	3,823	218,231	112,462
276,282	3,771	218,106	112,349
277,297	3,674	217,938	112,182
278,312	3,647	217,894	112,129
279,326	3,881	217,793	112,238
280,341	3,793	217,765	112,150
281,355	3,747	217,543	111,991
282,370	3,950	217,446	112,080
283,384	3,729	217,209	111,786
284,399	3,695	216,886	111,586
285,414	3,710	216,798	111,541
286,428	3,794	216,755	111,570
287,443	3,954	216,813	111,707
288,457	3,982	216,469	111,539
289,472	3,973	216,533	111,556
290,487	3,729	216,031	111,111
291,501	3,273	216,024	110,768
292,516	3,488	215,847	110,823
293,530	3,676	215,792	110,920
294,545	3,564	215,660	110,761
295,560	3,702	215,494	110,766
296,574	3,763	215,244	110,671
297,589	3,787	215,239	110,677
298,603	3,845	215,211	110,694
299,618	3,977	214,872	110,604
300,633	3,766	214,926	110,471
301,647	4,126	214,823	110,666
302,662	4,112	214,707	110,587
303,676	4,179	214,492	110,515
304,691	4,184	214,403	110,462
305,706	4,317	214,307	110,498
306,720	4,278	214,213	110,412
307,735	4,052	213,937	110,098
308,749	3,704	213,814	109,776
309,764	4,005	213,572	109,857
310,779	4,134	213,590	109,949
311,793	4,198	213,352	109,862
312,808	3,995	213,279	109,670
313,822	3,906	213,139	109,525
314,837	3,757	212,917	109,295
315,852	3,721	212,847	109,224
316,866	3,847	212,667	109,211
317,881	3,925	212,656	109,251
318,895	4,187	212,543	109,369
319,910	4,015	212,287	109,106
320,925	3,611	212,138	108,734
321,939	3,478	211,896	108,506
322,954	3,410	211,936	108,468
323,968	4,026	211,824	108,837
324,983	4,005	211,746	108,772
325,997	4,087	211,609	108,750
327,012	4,094	211,317	108,595
328,027	3,945	211,202	108,421
329,041	4,253	211,244	108,651
330,056	4,660	211,082	108,844
331,070	3,936	210,762	108,161
332,085	3,718	210,453	107,839
333,100	3,669	210,568	107,854
334,114	4,007	210,417	108,004
335,129	4,084	210,187	107,930
336,143	3,659	210,117	107,587
337,158	4,000	209,871	107,690
338,173	3,837	209,820	107,541
339,187	3,895	209,637	107,478
340,202	3,431	209,585	107,117
341,216	3,435	209,313	106,971
342,231	3,710	209,219	107,106
343,246	3,872	208,955	107,074
344,260	3,950	208,928	107,105
345,275	3,686	208,887	106,890
346,289	4,189	208,860	107,217
347,304	4,039	208,722	107,032
348,319	3,918	208,547	106,849
349,333	3,896	208,434	106,767
350,348	3,846	208,321	106,664
351,362	4,185	208,238	106,847
352,377	4,434	208,096	106,938
353,392	4,110	207,817	106,561
354,406	4,005	207,776	106,457
355,421	193,968	1348,212	1436,826
356,435	154,735	1487,271	1436,953
