DTS Sentinel unit serial number:	SN410029Multiplexer serial number:	ORYXHardware model number:	OX2-SRSoftware version number:	ORYX F/W v4,00 Oryx Data Collector v3.7.2.0data status	okinstallation	B6 Nyhavnadifferential loss correction	single-endedforward channel	channel 2reverse channel	N/Adate	2023/12/07time	15:10:08forward acquisition time	300,00reverse acquisition time	0,00gamma	499,1914k internal	0,3143k external	0,3143temperature offset calibration	1,0000default loss term (dB/km)	0,3820temperature slope calibration	1,0000multiplexer offset coefficient	1,0000multiplexer slope coefficient	1,0000fibre end	0,00T internal ref (°C)	14,24T ext. ref 1 (°C)	-1,85T ext. ref 2 (°C)	-1,85length (m)	temperature (°C)	Stokes	anti-Stokes-744,400	-43,308	0,174	0,065
-743,385	-97,350	-0,319	-0,061
-742,371	800,000	0,015	-0,044
-741,356	-12,711	-0,204	-0,098
-740,342	194,975	0,060	-0,067
-739,327	-96,383	-0,323	0,063
-738,312	165,456	0,046	0,049
-737,298	-200,000	-0,329	0,001
-736,283	-51,501	0,158	0,054
-735,269	-78,106	-0,257	-0,065
-734,254	10,083	0,074	0,042
-733,239	-13,103	-0,396	-0,190
-732,225	-163,778	0,176	0,006
-731,210	60,801	-0,055	-0,040
-730,196	-200,000	-0,024	0,128
-729,181	800,000	0,045	0,135
-728,167	-200,000	0,003	0,039
-727,152	585,144	-0,014	-0,025
-726,137	-17,930	-0,065	0,030
-725,123	99,935	-0,029	-0,025
-724,108	-200,000	-0,002	-0,202
-723,094	234,131	-0,106	-0,130
-722,079	800,000	0,053	-0,165
-721,064	-127,235	0,164	0,018
-720,050	-200,000	0,000	-0,035
-719,035	-200,000	-0,049	-0,191
-718,021	46,330	-0,125	-0,085
-717,006	166,063	-0,115	-0,121
-715,991	-109,921	0,040	0,006
-714,977	800,000	-0,035	-0,106
-713,962	-200,000	0,001	-0,029
-712,948	40,881	-0,120	-0,080
-711,933	800,000	-0,034	0,084
-710,918	527,143	-0,059	0,103
-709,904	-133,768	-0,073	0,007
-708,889	10,895	-0,092	-0,052
-707,875	-200,000	0,041	-0,151
-706,860	800,000	-0,014	0,036
-705,845	-171,317	0,087	-0,002
-704,831	-200,000	0,014	0,136
-703,816	238,400	-0,057	-0,070
-702,802	102,116	-0,075	0,065
-701,787	-82,290	0,063	0,015
-700,772	20,714	-0,198	-0,119
-699,758	-147,308	-0,041	0,003
-698,743	42,875	-0,053	-0,036
-697,729	-200,000	0,036	-0,121
-696,714	91,839	0,069	-0,058
-695,699	-3,558	0,093	-0,048
-694,685	800,000	-0,047	-0,118
-693,670	115,886	-0,027	-0,024
-692,656	-35,258	-0,078	-0,031
-691,641	-9,329	-0,090	0,044
-690,627	180,141	-0,112	0,122
-689,612	69,278	0,059	-0,045
-688,597	7,038	-0,186	-0,102
-687,583	-184,038	0,021	0,000
-686,568	391,209	-0,065	-0,100
-685,554	120,154	0,043	-0,040
-684,539	-200,000	-0,023	0,162
-683,524	351,406	-0,066	0,097
-682,510	-158,892	-0,030	-0,001
-681,495	77,130	0,011	0,008
-680,481	-200,000	-0,013	-0,080
-679,466	115,014	0,115	-0,104
-678,451	800,000	0,004	-0,013
-677,437	57,911	0,073	-0,053
-676,422	619,101	-0,034	0,063
-675,408	399,055	-0,064	-0,100
-674,393	-64,246	-0,145	-0,043
-673,378	-138,380	0,013	-0,001
-672,364	319,737	-0,065	-0,091
-671,349	303,241	-0,040	-0,055
-670,335	-200,000	0,006	-0,030
-669,320	800,000	-0,012	-0,038
-668,305	-87,856	0,212	-0,047
-667,291	800,000	-0,025	0,075
-666,276	-200,000	0,006	-0,104
-665,262	655,217	-0,039	-0,074
-664,247	35,686	-0,092	-0,060
-663,232	-169,640	-0,040	-0,001
-662,218	-200,000	-0,022	0,104
-661,203	226,021	-0,068	0,082
-660,189	96,956	-0,056	-0,048
-659,174	557,601	-0,022	-0,039
-658,159	-172,619	-0,187	0,004
-657,145	121,481	-0,079	-0,073
-656,130	-9,372	0,117	0,058
-655,116	800,000	0,019	0,058
-654,101	110,759	-0,050	-0,045
-653,086	-200,000	0,001	-0,090
-652,072	-159,328	-0,147	0,006
-651,057	6,199	-0,059	-0,032
-650,043	538,407	-0,040	-0,070
-649,028	-7,558	0,045	0,022
-648,014	155,586	-0,017	-0,017
-646,999	206,855	0,055	-0,064
-645,984	94,601	-0,097	-0,081
-644,970	-200,000	-0,002	0,038
-643,955	48,297	-0,047	-0,033
-642,941	187,628	-0,027	-0,030
-641,926	152,020	-0,026	-0,026
-640,911	-123,157	0,079	0,009
-639,897	800,000	0,057	0,120
-638,882	-200,000	0,001	0,011
-637,868	-200,000	-0,031	-0,154
-636,853	89,625	-0,063	-0,052
-635,838	108,947	-0,144	0,127
-634,824	126,691	0,062	0,058
-633,809	800,000	-0,058	-0,123
-632,795	-200,000	0,024	0,117
-631,780	114,993	-0,077	-0,069
-630,765	163,239	-0,097	0,100
-629,751	193,959	-0,049	0,055
-628,736	-127,056	-0,021	-0,002
-627,722	-76,276	-0,180	0,046
-626,707	-47,320	0,049	0,018
-625,692	241,872	-0,063	-0,078
-624,678	430,706	0,051	0,081
-623,663	800,000	0,025	-0,060
-622,649	-200,000	0,005	-0,109
-621,634	-200,000	0,030	-0,112
-620,619	437,057	-0,026	0,042
-619,605	-5,759	-0,014	0,007
-618,590	-55,735	-0,045	-0,015
-617,576	-200,000	-0,014	-0,061
-616,561	-200,000	-0,007	0,033
-615,546	-152,361	-0,084	0,004
-614,532	5,374	-0,062	-0,034
-613,517	466,641	0,031	-0,051
-612,503	205,610	-0,064	0,074
-611,488	-156,476	0,023	-0,001
-610,474	800,000	-0,019	0,053
-609,459	192,004	0,052	-0,057
-608,444	-145,792	-0,215	0,014
-607,430	-158,467	0,035	-0,001
-606,415	140,929	0,022	-0,022
-605,401	68,196	0,094	-0,071
-604,386	-108,470	0,099	0,016
-603,371	409,776	-0,025	0,038
-602,357	409,001	-0,033	-0,051
-601,342	-123,366	-0,124	-0,014
-600,328	800,000	-0,065	-0,183
-599,313	155,492	-0,034	-0,035
-598,298	-200,000	0,003	0,050
-597,284	-200,000	-0,003	0,090
-596,269	-139,272	-0,035	-0,003
-595,255	652,711	0,019	0,037
-594,240	44,513	0,096	0,065
-593,225	800,000	0,015	0,047
-592,211	445,954	-0,081	0,131
-591,196	800,000	-0,009	-0,027
-590,182	-6,151	0,038	0,019
-589,167	-200,000	-0,007	0,034
-588,152	519,241	0,003	0,004
-587,138	-127,677	-0,055	0,006
-586,123	800,000	0,052	-0,117
-585,109	-200,000	0,004	-0,068
-584,094	800,000	-0,041	0,113
-583,079	290,237	-0,094	-0,126
-582,065	-38,467	0,063	0,024
-581,050	-73,979	0,139	0,037
-580,036	-16,767	0,181	0,084
-579,021	368,927	-0,013	-0,020
-578,006	800,000	-0,092	-0,211
-576,992	-16,211	0,125	-0,058
-575,977	325,210	-0,088	-0,124
-574,963	30,355	0,084	-0,053
-573,948	-78,391	0,125	-0,031
-572,934	-122,024	0,048	0,006
-571,919	98,246	-0,143	-0,121
-570,904	800,000	-0,006	-0,013
-569,890	26,625	-0,082	0,050
-568,875	183,604	-0,052	-0,056
-567,861	562,053	0,007	0,012
-566,846	49,922	0,132	0,091
-565,831	100,191	0,050	-0,043
-564,817	800,000	-0,005	0,014
-563,802	24,120	-0,102	-0,062
-562,788	219,238	-0,019	-0,022
-561,773	268,963	-0,095	-0,123
-560,758	-200,000	-0,004	0,160
-559,744	800,000	0,033	-0,083
-558,729	118,198	0,056	-0,051
-557,715	237,462	0,072	-0,087
-556,700	800,000	0,070	-0,200
-555,685	0,604	-0,089	0,046
-554,671	800,000	0,042	0,124
-553,656	-72,548	-0,093	0,025
-552,642	-180,696	-0,071	-0,001
-551,627	83,212	-0,049	0,039
-550,612	341,597	0,078	0,112
-549,598	800,000	0,015	-0,038
-548,583	-30,291	-0,110	0,046
-547,569	-50,326	0,072	0,025
-546,554	424,779	0,046	0,072
-545,539	31,271	0,111	-0,070
-544,525	-200,000	-0,001	0,037
-543,510	-157,567	-0,128	0,006
-542,496	512,344	0,037	0,064
-541,481	-78,121	-0,217	0,054
-540,466	65,165	0,075	-0,056
-539,452	-17,620	0,130	-0,060
-538,437	-134,945	-0,060	-0,005
-537,423	-30,559	0,075	0,031
-536,408	216,556	-0,131	0,154
-535,393	288,210	-0,064	-0,085
-534,379	159,996	-0,087	-0,089
-533,364	-95,579	-0,061	-0,012
-532,350	161,981	-0,132	0,136
-531,335	38,623	0,113	0,074
-530,321	191,513	0,082	0,090
-529,306	214,334	0,059	-0,069
-528,291	-200,000	-0,043	0,304
-527,277	83,053	-0,065	0,052
-526,262	800,000	0,046	-0,118
-525,248	800,000	-0,041	0,111
-524,233	-43,424	-0,082	0,030
-523,218	-105,875	0,135	-0,022
-522,204	-104,816	-0,060	0,010
-521,189	-200,000	0,037	-0,153
-520,175	525,865	-0,066	-0,115
-519,160	-113,270	0,108	0,015
-518,145	-137,536	0,138	0,011
-517,131	-59,207	0,135	-0,042
-516,116	-4,364	0,097	0,049
-515,102	-35,195	-0,051	0,020
-514,087	800,000	0,042	0,115
-513,072	800,000	0,053	0,121
-512,058	139,805	-0,058	0,057
-511,043	26,815	-0,008	-0,005
-510,029	-200,000	-0,015	0,056
-509,014	382,564	0,145	0,219
-507,999	-53,626	-0,079	0,026
-506,985	-15,872	0,096	0,045
-505,970	3,340	-0,048	-0,026
-504,956	12,459	0,144	-0,081
-503,941	-200,000	0,009	-0,064
-502,926	-62,033	-0,087	0,027
-501,912	-200,000	0,048	0,189
-500,897	409,860	-0,047	-0,073
-499,883	-200,000	0,018	-0,075
-498,868	150,033	0,032	-0,032
-497,853	-13,612	0,101	-0,048
-496,839	-2,136	-0,081	-0,042
-495,824	400,222	0,010	0,015
-494,810	-200,000	-0,023	0,074
-493,795	390,321	-0,034	-0,052
-492,781	-200,000	0,006	-0,088
-491,766	800,000	0,028	0,089
-490,751	38,012	0,062	-0,040
-489,737	-200,000	-0,021	-0,105
-488,722	-44,309	-0,083	0,030
-487,708	4,548	0,121	0,065
-486,693	401,878	0,051	0,079
-485,678	-200,000	-0,014	-0,061
-484,664	-21,824	-0,098	0,044
-483,649	800,000	-0,038	-0,095
-482,635	247,084	0,030	-0,037
-481,620	-200,000	-0,000	-0,064
-480,605	-12,613	-0,017	0,008
-479,591	712,643	-0,036	0,071
-478,576	226,715	-0,054	-0,065
-477,562	429,580	0,065	0,103
-476,547	-200,000	-0,016	0,068
-475,532	512,642	-0,057	-0,098
-474,518	-73,530	0,076	0,020
-473,503	473,647	0,039	0,065
-472,489	-200,000	-0,022	0,104
-471,474	233,725	0,106	-0,129
-470,459	-200,000	-0,018	-0,069
-469,445	23,561	-0,158	-0,095
-468,430	800,000	0,037	0,112
-467,416	250,777	-0,062	-0,078
-466,401	693,611	0,032	0,061
-465,386	181,652	-0,104	0,112
-464,372	-200,000	0,030	0,103
-463,357	-200,000	0,017	0,114
-462,343	-148,365	-0,074	-0,004
-461,328	86,157	-0,078	0,063
-460,313	120,926	-0,074	0,067
-459,299	97,837	0,021	-0,018
-458,284	208,909	0,082	-0,094
-457,270	555,036	-0,024	0,043
-456,255	-120,413	-0,058	-0,007
-455,241	705,774	0,053	0,103
-454,226	-200,000	-0,010	0,062
-453,211	86,973	-0,106	-0,085
-452,197	-146,020	0,072	0,005
-451,182	-92,162	0,035	-0,007
-450,168	247,321	0,105	0,130
-449,153	-143,361	-0,018	0,001
-448,138	-200,000	0,002	-0,085
-447,124	-200,000	0,010	-0,043
-446,109	-8,812	0,097	-0,047
-445,095	-121,694	0,199	-0,024
-444,080	-48,075	0,031	-0,011
-443,065	800,000	-0,024	0,055
-442,051	21,445	0,077	-0,046
-441,036	-200,000	0,023	0,113
-440,022	-200,000	0,022	-0,102
-439,007	-108,385	0,029	0,004
-437,992	-87,536	-0,085	-0,019
-436,978	62,571	-0,064	-0,047
-435,963	-124,045	0,070	0,008
-434,949	41,049	-0,030	0,020
-433,934	-200,000	-0,010	0,041
-432,919	424,984	0,045	0,072
-431,905	-89,416	-0,090	-0,019
-430,890	-200,000	0,006	0,199
-429,876	76,003	0,064	0,049
-428,861	800,000	0,040	0,086
-427,846	8,838	-0,153	0,084
-426,832	258,909	-0,110	0,139
-425,817	89,197	-0,092	-0,075
-424,803	-200,000	0,020	-0,069
-423,788	-114,230	0,074	-0,010
-422,773	160,241	0,059	0,061
-421,759	-200,000	0,130	-0,000
-420,744	11,621	-0,087	-0,049
-419,730	-90,014	0,021	0,004
-418,715	-200,000	0,025	-0,134
-417,701	-200,000	0,011	-0,046
-416,686	-200,000	-0,003	-0,079
-415,671	-41,553	-0,060	-0,022
-414,657	-51,307	0,030	-0,010
-413,642	800,000	0,037	-0,102
-412,628	-98,022	-0,073	-0,014
-411,613	-125,872	-0,072	-0,008
-410,598	-43,966	-0,070	-0,026
-409,584	-142,080	-0,100	0,007
-408,569	695,875	0,076	0,147
-407,555	-56,324	0,058	0,019
-406,540	-92,384	-0,060	0,012
-405,525	27,250	-0,073	0,045
-404,511	123,864	-0,077	-0,070
-403,496	-157,829	0,083	-0,004
-402,482	80,262	-0,047	-0,037
-401,467	-11,653	-0,043	0,021
-400,452	365,572	0,068	0,101
-399,438	-21,880	-0,073	-0,032
-398,423	-106,230	-0,066	0,011
-397,409	-200,000	0,021	-0,075
-396,394	213,497	0,059	0,068
-395,379	-200,000	-0,000	0,044
-394,365	391,114	0,023	-0,035
-393,350	-200,000	-0,013	0,095
-392,336	137,623	0,082	0,078
-391,321	800,000	-0,045	-0,092
-390,306	-200,000	0,012	-0,091
-389,292	-69,095	-0,132	0,037
-388,277	-200,000	0,015	-0,106
-387,263	300,414	-0,090	-0,122
-386,248	244,369	0,068	-0,084
-385,233	800,000	0,038	0,090
-384,219	-63,959	-0,088	0,026
-383,204	105,951	-0,028	-0,024
-382,190	121,009	-0,073	-0,066
-381,175	259,201	-0,059	-0,075
-380,160	-56,690	0,029	0,009
-379,146	316,490	0,060	0,083
-378,131	463,018	-0,048	0,079
-377,117	-200,000	-0,016	-0,077
-376,102	102,118	-0,128	-0,109
-375,088	800,000	-0,023	-0,068
-374,073	-200,000	-0,006	-0,045
-373,058	111,056	0,016	0,014
-372,044	-200,000	-0,000	0,076
-371,029	-180,921	-0,050	-0,001
-370,015	61,144	0,106	0,077
-369,000	-200,000	0,012	-0,060
-367,985	84,280	-0,097	-0,077
-366,971	800,000	-0,038	-0,109
-365,956	17,790	0,131	-0,076
-364,942	141,650	0,067	-0,064
-363,927	-200,000	0,050	-0,181
-362,912	712,088	-0,066	0,128
-361,898	-178,796	-0,056	0,001
-360,883	-200,000	0,008	-0,079
-359,869	744,969	-0,029	-0,058
-358,854	-200,000	0,004	0,074
-357,839	-200,000	-0,006	0,205
-356,825	431,875	0,067	0,107
-355,810	-14,415	-0,058	-0,027
-354,796	800,000	0,013	-0,030
-353,781	800,000	-0,069	-0,179
-352,766	627,283	-0,054	-0,099
-351,752	-34,079	0,051	0,020
-350,737	-159,949	-0,140	-0,005
-349,723	-200,000	0,056	0,225
-348,708	800,000	0,021	0,046
-347,693	800,000	-0,011	-0,023
-346,679	-145,317	0,018	-0,001
-345,664	51,123	-0,144	-0,099
-344,650	279,704	-0,103	-0,134
-343,635	800,000	0,064	-0,172
-342,620	9,425	0,199	0,109
-341,606	207,259	0,029	0,033
-340,591	-200,000	0,036	0,147
-339,577	63,949	-0,087	-0,064
-338,562	13,894	-0,142	0,080
-337,548	-200,000	0,013	0,043
-336,533	429,378	-0,056	0,088
-335,518	13,810	0,023	0,013
-334,504	549,508	0,039	0,069
-333,489	370,320	-0,024	0,035
-332,475	249,795	0,046	-0,057
-331,460	399,062	-0,069	0,105
-330,445	376,856	0,034	-0,050
-329,431	99,984	0,104	-0,088
-328,416	99,090	-0,031	-0,026
-327,402	-67,435	0,111	-0,031
-326,387	52,634	-0,057	0,040
-325,372	339,516	0,082	0,117
-324,358	41,778	-0,084	-0,055
-323,343	4,970	0,098	0,053
-322,329	54,211	0,142	0,100
-321,314	-200,000	0,008	0,080
-320,299	499,853	0,023	-0,038
-319,285	66,133	-0,036	-0,027
-318,270	800,000	-0,022	0,052
-317,256	-200,000	-0,041	-0,172
-316,241	612,416	-0,025	-0,046
-315,226	-173,682	0,185	0,004
-314,212	-28,457	0,138	-0,058
-313,197	800,000	-0,020	0,043
-312,183	-138,177	0,081	-0,006
-311,168	800,000	-0,047	-0,099
-310,153	-200,000	-0,012	-0,072
-309,139	-136,644	0,097	-0,008
-308,124	27,197	0,063	0,038
-307,110	-200,000	-0,020	0,083
-306,095	-200,000	0,012	-0,054
-305,080	-200,000	0,005	-0,029
-304,066	-200,000	-0,004	0,058
-303,051	-200,000	0,011	-0,101
-302,037	-76,359	-0,152	-0,039
-301,022	-47,589	0,064	0,022
-300,008	-77,646	0,147	0,037
-298,993	239,639	0,073	0,089
-297,978	-30,114	-0,075	0,031
-296,964	-200,000	-0,034	-0,119
-295,949	-200,000	-0,025	-0,134
-294,935	-200,000	-0,028	-0,121
-293,920	-200,000	0,011	-0,198
-292,905	86,896	0,075	-0,061
-291,891	-41,262	-0,056	-0,021
-290,876	-36,865	0,133	0,052
-289,862	-200,000	-0,034	-0,112
-288,847	185,952	-0,107	0,116
-287,832	-99,065	0,039	-0,007
-286,818	-40,913	-0,038	0,014
-285,803	800,000	0,072	0,150
-284,789	-200,000	0,003	0,041
-283,774	37,519	0,065	0,042
-282,759	-19,752	-0,155	0,069
-281,745	800,000	-0,070	-0,153
-280,730	253,061	-0,045	-0,055
-279,716	523,041	0,047	0,080
-278,701	-83,532	0,074	-0,017
-277,686	-140,334	-0,054	0,004
-276,672	102,887	0,132	0,112
-275,657	716,960	0,054	0,105
-274,643	800,000	0,006	-0,017
-273,628	-147,223	-0,057	0,003
-272,613	800,000	-0,041	-0,106
-271,599	-47,744	0,109	0,038
-270,584	-20,163	0,114	-0,051
-269,570	97,870	0,066	0,055
-268,555	-58,632	-0,099	-0,031
-267,540	485,590	0,038	0,062
-266,526	0,213	0,052	-0,027
-265,511	-21,254	-0,169	0,075
-264,497	2,239	0,144	0,076
-263,482	-72,500	0,106	-0,028
-262,467	800,000	-0,064	0,155
-261,453	800,000	-0,005	0,013
-260,438	20,976	0,121	-0,071
-259,424	-200,000	0,009	-0,029
-258,409	531,130	0,103	0,178
-257,395	518,291	-0,064	0,109
-256,380	-200,000	0,007	-0,041
-255,365	342,758	0,035	-0,050
-254,351	-30,871	-0,084	0,034
-253,336	-54,728	-0,093	0,030
-252,322	-3,641	-0,112	0,056
-251,307	50,605	0,024	0,017
-250,292	-113,451	0,135	-0,019
-249,278	-200,000	-0,001	-0,131
-248,263	403,868	-0,060	-0,092
-247,249	800,000	0,056	0,158
-246,234	-200,000	0,021	-0,073
-245,219	-200,000	0,001	-0,003
-244,205	-200,000	0,001	-0,092
-243,190	715,063	0,082	0,159
-242,176	800,000	0,020	0,041
-241,161	-45,240	0,040	-0,014
-240,146	682,636	0,014	-0,026
-239,132	324,321	0,082	-0,113
-238,117	99,449	-0,081	-0,068
-237,103	383,058	0,045	-0,067
-236,088	800,000	-0,056	0,133
-235,073	-200,000	-0,002	0,007
-234,059	-200,000	0,003	0,151
-233,044	800,000	-0,029	-0,060
-232,030	-51,420	-0,161	0,054
-231,015	-200,000	0,011	-0,086
-230,000	800,000	-0,052	-0,166
-228,986	136,569	-0,090	0,086
-227,971	374,398	0,059	-0,087
-226,957	-105,868	-0,072	-0,012
-225,942	-110,349	0,110	-0,016
-224,927	90,280	0,096	-0,078
-223,913	663,830	-0,051	-0,096
-222,898	-78,192	-0,096	-0,024
-221,884	84,028	0,022	0,018
-220,869	-111,829	0,159	0,023
-219,855	800,000	0,034	0,082
-218,840	800,000	0,059	0,161
-217,825	600,752	0,020	0,036
-216,811	113,608	-0,138	-0,121
-215,796	-171,135	0,119	0,003
-214,782	-50,052	-0,148	0,051
-213,767	-200,000	0,010	0,134
-212,752	-200,000	-0,013	-0,069
-211,738	-41,330	-0,054	0,020
-210,723	220,884	-0,092	0,107
-209,709	-40,401	0,042	0,016
-208,694	-38,232	-0,007	0,003
-207,679	800,000	-0,083	-0,197
-206,665	800,000	0,029	-0,076
-205,650	-108,256	0,077	-0,012
-204,636	-200,000	-0,006	0,100
-203,621	800,000	-0,078	0,189
-202,606	-200,000	0,025	0,137
-201,592	281,636	0,019	0,025
-200,577	-69,459	0,074	-0,020
-199,563	-85,894	-0,105	-0,023
-198,548	-47,056	-0,093	-0,033
-197,533	-49,666	0,142	-0,049
-196,519	800,000	0,050	0,137
-195,504	276,648	-0,041	0,052
-194,490	695,490	-0,044	-0,083
-193,475	-2,475	-0,090	-0,046
-192,460	649,181	0,066	0,122
-191,446	-200,000	0,004	0,137
-190,431	800,000	0,023	0,068
-189,417	800,000	0,038	0,078
-188,402	137,170	0,106	-0,101
-187,387	800,000	0,011	-0,028
-186,373	-200,000	0,015	-0,099
-185,358	35,003	0,028	0,018
-184,344	-200,000	-0,002	-0,042
-183,329	800,000	0,060	-0,122
-182,315	238,241	-0,066	0,079
-181,300	278,167	-0,080	-0,103
-180,285	-59,476	-0,115	0,036
-179,271	800,000	0,067	-0,154
-178,256	800,000	0,074	-0,186
-177,242	-200,000	0,027	0,188
-176,227	-89,185	0,002	0,000
-175,212	406,603	-0,015	0,024
-174,198	-200,000	0,017	-0,172
-173,183	-200,000	-0,012	-0,138
-172,169	-200,000	0,004	-0,019
-171,154	800,000	-0,005	-0,013
-170,139	-74,967	0,091	-0,023
-169,125	-200,000	-0,016	0,051
-168,110	-200,000	-0,003	0,062
-167,096	-108,626	0,137	-0,021
-166,081	393,016	-0,045	0,069
-165,066	336,329	0,025	0,035
-164,052	-66,456	0,119	-0,034
-163,037	41,798	-0,081	0,053
-162,023	-200,000	0,083	0,000
-161,008	65,767	0,089	-0,065
-159,993	-69,107	-0,141	-0,039
-158,979	-59,784	0,073	-0,022
-157,964	-75,265	-0,135	0,035
-156,950	-200,000	0,015	-0,054
-155,935	-200,000	-0,004	-0,070
-154,920	148,189	-0,011	-0,011
-153,906	800,000	0,051	0,159
-152,891	163,163	-0,107	-0,109
-151,877	-54,436	-0,110	-0,036
-150,862	-200,000	-0,010	-0,040
-149,847	-31,499	0,124	0,050
-148,833	-100,666	-0,048	0,009
-147,818	20,363	0,208	0,121
-146,804	263,520	-0,049	-0,062
-145,789	-47,063	0,015	0,005
-144,775	-200,000	-0,023	-0,087
-143,760	184,513	-0,073	0,078
-142,745	-104,034	0,107	0,018
-141,731	-134,826	0,044	0,004
-140,716	695,636	-0,032	0,062
-139,702	673,815	-0,083	-0,157
-138,687	-4,881	0,021	0,010
-137,672	178,482	0,008	0,009
-136,658	281,297	-0,019	0,025
-135,643	416,993	0,023	-0,035
-134,629	185,056	-0,047	0,051
-133,614	-4,706	-0,077	-0,038
-132,599	-200,000	0,015	0,090
-131,585	800,000	-0,013	0,040
-130,570	-200,000	0,002	0,024
-129,556	-150,036	-0,044	0,002
-128,541	-77,020	-0,150	0,038
-127,526	144,200	-0,054	-0,052
-126,512	-72,399	0,067	0,018
-125,497	-142,383	0,235	-0,016
-124,483	-200,000	-0,006	-0,064
-123,468	287,744	-0,031	-0,041
-122,453	165,250	0,100	-0,103
-121,439	800,000	-0,021	-0,047
-120,424	-200,000	-0,010	0,129
-119,410	165,307	0,072	-0,073
-118,395	-200,000	0,020	-0,107
-117,380	800,000	-0,012	-0,024
-116,366	121,144	-0,059	0,053
-115,351	-200,000	-0,018	0,160
-114,337	67,686	-0,038	0,028
-113,322	476,162	0,114	0,187
-112,307	737,685	0,048	0,094
-111,293	-30,853	0,031	-0,013
-110,278	170,713	0,034	0,035
-109,264	-200,000	-0,006	-0,030
-108,249	-200,000	0,035	-0,145
-107,234	-200,000	-0,025	0,134
-106,220	36,552	0,024	0,015
-105,205	-95,104	0,121	0,023
-104,191	-200,000	0,015	0,078
-103,176	9,209	0,084	0,046
-102,162	-55,872	-0,135	0,043
-101,147	-200,000	0,027	-0,121
-100,132	-87,313	-0,089	-0,019
-99,118	133,769	0,065	-0,061
-98,103	-200,000	-0,044	0,142
-97,089	-200,000	0,016	0,081
-96,074	542,743	0,063	0,109
-95,059	-140,852	-0,193	-0,014
-94,045	-86,180	-0,131	0,029
-93,030	-200,000	-0,023	-0,100
-92,016	-102,906	-0,083	-0,014
-91,001	-200,000	0,031	0,127
-89,986	151,634	-0,072	0,071
-88,972	-200,000	-0,019	0,078
-87,957	169,883	-0,172	0,177
-86,943	237,355	-0,050	0,059
-85,928	26,754	-0,033	0,020
-84,913	79,054	-0,014	-0,010
-83,899	65,459	0,013	0,009
-82,884	-200,000	0,020	0,084
-81,870	-200,000	0,025	0,103
-80,855	222,744	0,091	0,106
-79,840	161,535	0,057	-0,058
-78,826	-131,143	-0,166	0,016
-77,811	-188,483	0,081	-0,001
-76,797	-200,000	-0,008	-0,037
-75,782	31,184	0,047	0,029
-74,767	-200,000	-0,018	0,272
-73,753	-200,000	0,002	0,097
-72,738	292,529	-0,069	-0,092
-71,724	-115,935	0,060	-0,008
-70,709	175,841	0,026	0,027
-69,694	-23,287	0,109	-0,047
-68,680	800,000	-0,030	-0,091
-67,665	19,868	-0,073	-0,043
-66,651	-23,810	-0,033	0,014
-65,636	800,000	-0,057	-0,155
-64,622	12,936	0,071	0,039
-63,607	444,358	0,020	-0,032
-62,592	15,446	0,156	-0,088
-61,578	-200,000	0,029	0,110
-60,563	-113,099	0,097	0,014
-59,549	763,452	0,028	0,056
-58,534	35,956	-2,087	-1,322
-57,519	-200,000	0,006	-0,796
-56,505	-200,000	-1,247	-4,986
-55,490	69,286	1,011	0,749
-54,476	800,000	5,295	11,964
-53,461	-200,000	18,113	295,285
-52,446	800,000	730,164	2226,368
-51,432	513,889	1642,911	2773,124
-50,417	76,166	1622,216	1236,726
-49,403	23,798	1306,411	774,066
-48,388	16,824	1096,331	623,826
-47,373	18,879	1068,026	615,104
-46,359	17,922	1055,900	604,685
-45,344	14,405	1051,240	589,498
-44,330	14,270	1049,696	588,129
-43,315	14,257	1048,393	587,329
-42,300	14,244	1047,615	586,826
-41,286	14,218	1046,735	586,217
-40,271	14,191	1045,810	585,578
-39,257	14,217	1044,750	585,053
-38,242	14,197	1043,628	584,332
-37,227	14,198	1042,602	583,737
-36,213	14,250	1041,675	583,380
-35,198	14,164	1040,544	582,420
-34,184	14,239	1039,788	582,236
-33,169	14,219	1038,533	581,441
-32,154	14,269	1037,807	581,185
-31,140	14,289	1036,527	580,519
-30,125	14,286	1035,606	579,967
-29,111	14,304	1034,568	579,428
-28,096	14,285	1033,915	578,973
-27,082	14,184	1033,472	578,348
-26,067	14,288	1032,420	578,098
-25,052	14,276	1031,531	577,536
-24,038	14,343	1030,421	577,127
-23,023	14,282	1029,820	576,553
-22,009	14,295	1028,921	576,074
-20,994	14,338	1028,336	575,872
-19,979	14,319	1027,699	575,428
-18,965	14,342	1027,072	575,133
-17,950	14,337	1026,318	574,671
-16,936	14,260	1025,621	573,988
-15,921	14,247	1024,832	573,480
-14,906	14,201	1024,018	572,842
-13,892	14,181	1023,371	572,389
-12,877	14,169	1022,589	571,887
-11,863	14,091	1022,067	571,304
-10,848	14,168	1021,384	571,164
-9,833	14,303	1020,839	571,303
-8,819	14,286	1020,060	570,786
-7,804	14,171	1019,349	569,969
-6,790	14,185	1018,845	569,712
-5,775	14,265	1018,202	569,605
-4,760	14,218	1017,585	569,075
-3,746	14,198	1016,861	568,580
-2,731	14,049	1016,023	567,579
-1,717	14,050	1015,353	567,184
-0,702	14,009	1014,452	566,517
0,313	13,839	1013,845	566,450
1,327	17,158	1011,707	576,557
2,342	26,043	850,754	510,188
3,356	22,047	476,426	279,302
4,371	-7,636	316,302	153,476
5,386	-11,539	296,523	139,887
6,400	-12,734	290,364	135,775
7,415	-12,880	287,935	134,482
8,429	-12,896	286,487	133,778
9,444	-13,040	285,638	133,228
10,459	-13,242	284,953	132,699
11,473	-13,298	284,336	132,344
12,488	-13,442	283,720	131,906
13,502	-13,645	283,040	131,380
14,517	-13,790	282,593	131,020
15,531	-13,549	282,068	130,998
16,546	-13,723	281,773	130,681
17,561	-13,592	281,242	130,550
18,575	-13,595	280,975	130,411
19,590	-13,777	280,691	130,092
20,604	-13,573	280,252	130,074
21,619	-13,589	279,890	129,879
22,634	-13,651	279,454	129,606
23,648	-13,597	279,212	129,533
24,663	-13,763	279,002	129,265
25,677	-13,663	278,518	129,126
26,692	-13,693	278,389	129,025
27,707	-13,545	278,017	128,982
28,721	-13,674	277,753	128,726
29,736	-13,676	277,468	128,580
30,750	-13,802	277,146	128,300
31,765	-13,949	276,896	128,032
32,780	-13,736	276,603	128,088
33,794	-13,460	276,230	128,166
34,809	-13,802	276,126	127,782
35,823	-13,726	275,845	127,713
36,838	-13,922	275,769	127,481
37,853	-13,794	275,171	127,313
38,867	-13,886	275,059	127,163
39,882	-13,745	274,804	127,167
40,896	-13,899	274,669	126,949
41,911	-13,791	274,253	126,846
42,926	-14,011	274,023	126,522
43,940	-13,875	273,748	126,511
44,955	-13,820	273,535	126,453
45,969	-13,913	273,198	126,199
46,984	-14,177	272,975	125,838
47,999	-14,311	272,729	125,587
49,013	-14,339	272,456	125,424
50,028	-14,473	272,026	125,090
51,042	-14,534	271,926	124,976
52,057	-14,652	271,760	124,778
53,071	-14,583	271,527	124,724
54,086	-14,281	271,291	124,886
55,101	-14,265	271,105	124,804
56,115	-14,146	270,963	124,838
57,130	-13,786	270,829	125,099
58,144	-13,576	270,675	125,212
59,159	-13,501	270,357	125,124
60,174	-13,385	270,147	125,123
61,188	-13,553	270,058	124,914
62,203	-13,720	269,722	124,594
63,217	-13,687	269,527	124,523
64,232	-13,717	269,165	124,316
65,247	-13,474	268,968	124,439
66,261	-13,613	268,876	124,257
67,276	-13,824	268,480	123,869
68,290	-13,980	268,189	123,580
69,305	-14,079	267,950	123,369
70,320	-14,120	267,826	123,262
71,334	-13,843	267,533	123,370
72,349	-13,711	267,474	123,453
73,363	-13,678	267,341	123,411
74,378	-13,669	267,099	123,297
75,393	-13,559	266,649	123,178
76,407	-13,630	266,452	123,012
77,422	-13,715	266,497	122,944
78,436	-13,788	266,138	122,701
79,451	-13,781	265,875	122,575
80,466	-13,850	265,672	122,407
81,480	-13,984	265,289	122,099
82,495	-13,985	265,057	121,980
83,509	-13,852	264,967	122,048
84,524	-13,913	264,676	121,849
85,539	-13,920	264,291	121,654
86,553	-14,089	264,300	121,494
87,568	-13,908	264,034	121,525
88,582	-14,151	263,881	121,224
89,597	-13,961	263,733	121,316
90,611	-13,845	263,560	121,331
91,626	-13,708	263,380	121,361
92,641	-13,824	263,183	121,154
93,655	-13,714	263,007	121,161
94,670	-13,787	262,723	120,955
95,684	-13,980	262,515	120,675
96,699	-13,699	262,268	120,802
97,714	-13,988	262,009	120,413
98,728	-13,984	261,833	120,325
99,743	-13,947	261,651	120,264
100,757	-14,085	261,363	119,997
101,772	-13,955	261,232	120,043
102,787	-13,902	261,075	120,007
103,801	-13,617	260,790	120,120
104,816	-13,686	260,713	120,012
105,830	-13,535	260,530	120,051
106,845	-13,684	260,428	119,861
107,860	-13,587	260,178	119,821
108,874	-13,755	259,897	119,532
109,889	-13,850	259,796	119,391
110,903	-13,987	259,518	119,131
111,918	-13,813	259,240	119,147
112,933	-13,820	259,227	119,124
113,947	-13,554	258,932	119,212
114,962	-13,709	258,774	118,993
115,976	-13,621	258,570	118,966
116,991	-13,639	258,410	118,866
118,006	-13,788	258,259	118,655
119,020	-13,774	258,104	118,585
120,035	-13,712	258,013	118,587
121,049	-13,584	257,737	118,562
122,064	-13,517	257,663	118,576
123,079	-13,631	257,217	118,261
124,093	-13,858	257,081	117,989
125,108	-13,927	256,784	117,781
126,122	-14,032	256,561	117,577
127,137	-14,245	256,274	117,249
128,151	-14,000	256,143	117,392
129,166	-13,991	256,035	117,340
130,181	-13,935	255,855	117,296
131,195	-13,963	255,641	117,163
132,210	-13,808	255,401	117,177
133,224	-13,630	255,422	117,331
134,239	-13,787	255,166	117,067
135,254	-13,580	254,862	117,096
136,268	-13,867	254,696	116,761
137,283	-14,102	254,398	116,411
138,297	-14,142	254,140	116,247
139,312	-14,242	253,852	116,019
140,327	-13,840	253,920	116,387
141,341	-13,441	254,113	116,810
142,356	-13,409	253,818	116,692
143,370	-13,379	253,543	116,581
144,385	-13,330	253,451	116,570
145,400	-13,189	253,113	116,526
146,414	-13,400	252,895	116,233
147,429	-13,480	252,731	116,079
148,443	-13,349	252,589	116,116
149,458	-13,645	252,337	115,736
150,473	-13,443	252,120	115,800
151,487	-13,475	251,875	115,649
152,502	-13,383	251,657	115,618
153,516	-13,324	251,608	115,635
154,531	-13,325	251,344	115,502
155,546	-13,494	251,235	115,297
156,560	-13,586	251,204	115,195
157,575	-13,577	250,864	115,036
158,589	-13,533	250,590	114,938
159,604	-13,323	250,573	115,099
160,619	-13,046	250,537	115,308
161,633	-13,328	250,272	114,935
162,648	-13,289	250,066	114,863
163,662	-13,499	249,986	114,639
164,677	-13,560	249,864	114,520
165,692	-13,372	249,487	114,497
166,706	-13,210	249,402	114,585
167,721	-13,307	249,397	114,491
168,735	-12,943	249,169	114,683
169,750	-13,367	249,083	114,275
170,764	-13,488	248,833	114,047
171,779	-13,277	248,658	114,136
172,794	-13,301	248,586	114,072
173,808	-13,361	248,033	113,758
174,823	-13,902	247,969	113,263
175,837	-14,298	247,709	112,801
176,852	-13,655	247,634	113,297
177,867	-13,360	247,606	113,522
178,881	-13,476	247,311	113,279
179,896	-13,397	247,165	113,269
180,910	-13,380	247,066	113,228
181,925	-13,155	247,011	113,381
182,940	-13,289	246,792	113,158
183,954	-13,184	246,575	113,136
184,969	-13,195	246,538	113,099
185,983	-13,150	246,237	112,989
186,998	-13,061	246,142	113,010
188,013	-13,101	245,905	112,857
189,027	-12,984	245,745	112,871
190,042	-13,208	245,635	112,624
191,056	-13,176	245,456	112,559
192,071	-13,325	245,443	112,419
193,086	-13,173	245,046	112,353
194,100	-12,956	245,093	112,545
195,115	-13,034	244,670	112,276
196,129	-13,185	244,701	112,156
197,144	-8,561	246,246	116,705
198,159	-3,826	247,646	121,316
199,173	-0,690	248,877	124,536
200,188	0,011	248,740	125,043
201,202	-0,290	248,557	124,688
202,217	-0,165	248,289	124,647
203,232	0,003	248,146	124,705
204,246	0,173	248,037	124,780
205,261	0,219	247,845	124,711
206,275	0,371	247,962	124,885
207,290	0,292	247,809	124,731
208,304	0,226	247,492	124,506
209,319	0,125	247,339	124,334
210,334	0,056	247,057	124,124
211,348	0,160	246,981	124,161
212,363	0,011	246,794	123,932
213,377	-0,090	246,490	123,685
214,392	-0,080	246,297	123,586
215,407	0,078	246,305	123,709
216,421	0,034	246,119	123,568
217,436	-0,187	245,901	123,265
218,450	-0,170	245,686	123,160
219,465	-0,245	245,420	122,954
220,480	-0,416	245,303	122,744
221,494	-0,357	245,327	122,793
222,509	0,056	245,274	123,096
223,523	0,011	245,064	122,943
224,538	-0,090	244,731	122,682
225,553	-0,079	244,630	122,629
226,567	-0,027	244,477	122,584
227,582	0,285	244,346	122,764
228,596	0,417	244,326	122,851
229,611	0,295	243,909	122,530
230,626	-0,215	243,674	121,984
231,640	-0,352	243,677	121,863
232,655	0,137	243,461	122,144
233,669	0,069	243,450	122,072
234,684	0,590	243,350	122,436
235,699	0,232	243,132	122,023
236,713	-0,040	242,869	121,659
237,728	0,029	242,684	121,611
238,742	-0,118	242,288	121,283
239,757	0,025	242,362	121,425
240,772	-0,088	242,226	121,255
241,786	-0,208	241,877	120,972
242,801	-0,051	242,120	121,209
243,815	0,548	241,943	121,596
244,830	0,196	241,734	121,195
245,844	-0,027	241,389	120,831
246,859	-0,382	241,179	120,428
247,874	0,151	241,110	120,813
248,888	0,182	240,992	120,769
249,903	0,123	240,866	120,647
250,917	-0,041	240,676	120,409
251,932	-0,011	240,406	120,288
252,947	-0,219	240,231	120,022
253,961	-0,135	240,007	119,966
254,976	-0,082	239,801	119,896
255,990	0,106	239,843	120,056
257,005	0,304	239,756	120,161
258,020	0,231	239,467	119,947
259,034	0,246	239,277	119,853
260,049	0,264	239,289	119,863
261,063	0,105	239,070	119,615
262,078	0,346	239,155	119,840
263,093	0,237	239,093	119,711
264,107	0,267	238,743	119,549
265,122	0,084	238,563	119,303
266,136	0,420	238,428	119,492
267,151	0,419	238,199	119,366
268,166	-0,099	238,158	118,922
269,180	-0,333	237,650	118,472
270,195	-0,172	237,690	118,610
271,209	-0,376	237,561	118,373
272,224	0,088	237,406	118,653
273,239	0,223	237,201	118,647
274,253	-0,025	236,940	118,310
275,268	-0,321	236,811	118,001
276,282	-0,271	236,619	117,933
277,297	-0,332	236,372	117,752
278,312	-0,094	236,454	117,970
279,326	0,126	236,325	118,068
280,341	-0,019	236,195	117,879
281,355	0,123	236,108	117,937
282,370	0,263	235,917	117,942
283,384	-0,144	235,677	117,490
284,399	-0,352	235,475	117,216
285,414	-0,163	235,338	117,286
286,428	-0,294	235,278	117,142
287,443	0,252	235,195	117,519
288,457	0,128	235,125	117,377
289,472	-0,095	234,735	116,996
290,487	-0,456	234,573	116,623
291,501	-0,418	234,337	116,525
292,516	-0,505	234,225	116,391
293,530	-0,199	234,059	116,537
294,545	-0,397	234,098	116,391
295,560	-0,002	233,927	116,604
296,574	0,065	233,805	116,586
297,589	0,008	233,605	116,431
298,603	-0,085	233,404	116,247
299,618	0,182	233,250	116,368
300,633	0,237	233,268	116,409
301,647	0,227	233,116	116,316
302,662	0,171	233,011	116,210
303,676	0,370	232,826	116,261
304,691	0,279	232,646	116,090
305,706	0,098	232,470	115,852
306,720	0,006	232,315	115,693
307,735	0,033	232,102	115,598
308,749	-0,031	231,839	115,407
309,764	0,105	231,864	115,514
310,779	0,327	231,668	115,577
311,793	-0,073	231,568	115,209
312,808	0,118	231,444	115,284
313,822	0,126	231,278	115,197
314,837	-0,128	231,018	114,862
315,852	-0,121	230,877	114,787
316,866	0,139	230,952	115,014
317,881	0,275	230,610	114,938
318,895	0,065	230,601	114,762
319,910	-0,062	230,137	114,423
320,925	-0,421	230,022	114,081
321,939	-0,520	229,790	113,881
322,954	-0,418	229,913	114,009
323,968	0,149	229,852	114,402
324,983	0,352	229,721	114,482
325,997	0,403	229,787	114,544
327,012	0,472	229,315	114,350
328,027	0,395	229,242	114,246
329,041	0,565	229,183	114,335
330,056	0,548	228,895	114,169
331,070	0,018	228,713	113,664
332,085	-0,353	228,593	113,313
333,100	0,061	228,402	113,522
334,114	0,357	228,416	113,744
335,129	0,233	228,240	113,552
336,143	0,080	228,144	113,378
337,158	0,081	227,882	113,239
338,173	0,187	227,687	113,212
339,187	0,035	227,643	113,065
340,202	-0,087	227,444	112,864
341,216	-0,312	227,170	112,548
342,231	-0,191	227,055	112,573
343,246	0,154	226,863	112,727
344,260	-0,076	226,843	112,534
345,275	-0,001	226,832	112,575
346,289	0,092	226,689	112,564
347,304	0,137	226,593	112,540
348,319	0,334	226,402	112,583
349,333	0,335	226,294	112,520
350,348	0,347	226,084	112,415
351,362	0,600	225,953	112,529
352,377	0,534	225,714	112,351
353,392	0,266	225,589	112,078
354,406	0,367	225,508	112,103
355,421	194,085	1318,047	1396,287
356,435	155,522	1451,107	1396,251
