DTS Sentinel unit serial number:	SN410029Multiplexer serial number:	ORYXHardware model number:	OX2-SRSoftware version number:	ORYX F/W v4,00 Oryx Data Collector v3.7.2.0data status	okinstallation	B6 Nyhavnadifferential loss correction	single-endedforward channel	channel 2reverse channel	N/Adate	2023/12/09time	15:15:08forward acquisition time	300,00reverse acquisition time	0,00gamma	499,1914k internal	0,3133k external	0,3133temperature offset calibration	1,0000default loss term (dB/km)	0,3820temperature slope calibration	1,0000multiplexer offset coefficient	1,0000multiplexer slope coefficient	1,0000fibre end	0,00T internal ref (°C)	20,62T ext. ref 1 (°C)	4,45T ext. ref 2 (°C)	4,45length (m)	temperature (°C)	Stokes	anti-Stokes-744,400	-200,000	0,030	-0,100
-743,385	-84,853	-0,223	0,052
-742,371	347,716	0,082	0,120
-741,356	606,393	-0,130	0,242
-740,342	-75,903	0,044	-0,012
-739,327	-39,956	-0,273	0,105
-738,312	695,360	-0,107	0,209
-737,298	-84,515	-0,149	-0,035
-736,283	220,751	0,133	0,159
-735,269	-134,159	-0,259	0,023
-734,254	-200,000	0,005	-0,063
-733,239	-54,469	-0,385	-0,129
-732,225	7,605	0,031	0,017
-731,210	-103,288	-0,153	-0,027
-730,196	-200,000	-0,016	0,103
-729,181	-167,237	-0,035	0,001
-728,167	-200,000	-0,007	0,040
-727,152	-37,382	-0,071	-0,028
-726,137	-95,670	-0,056	0,011
-725,123	2,995	-0,146	0,078
-724,108	-200,000	-0,013	0,060
-723,094	764,226	-0,057	-0,116
-722,079	126,724	-0,126	-0,119
-721,064	-200,000	0,015	-0,120
-720,050	800,000	0,070	0,188
-719,035	800,000	0,054	0,140
-718,021	380,845	0,023	-0,035
-717,006	-200,000	-0,018	-0,060
-715,991	48,452	-0,149	-0,103
-714,977	-200,000	-0,004	-0,088
-713,962	-200,000	-0,007	0,039
-712,948	-127,693	-0,093	-0,010
-711,933	380,029	-0,044	0,068
-710,918	31,414	-0,105	0,067
-709,904	424,328	0,050	0,080
-708,889	61,738	-0,050	-0,037
-707,875	384,244	-0,023	0,036
-706,860	397,927	0,005	-0,008
-705,845	269,238	0,032	-0,042
-704,831	-200,000	-0,019	-0,141
-703,816	71,637	0,043	-0,033
-702,802	546,877	-0,028	0,049
-701,787	-200,000	0,009	-0,037
-700,772	101,452	-0,137	0,118
-699,758	-117,074	0,081	-0,011
-698,743	800,000	0,041	-0,097
-697,729	-200,000	0,016	0,146
-696,714	203,893	-0,050	-0,057
-695,699	-200,000	-0,031	-0,161
-694,685	360,383	-0,090	-0,135
-693,670	-200,000	0,007	-0,081
-692,656	-20,263	-0,072	0,033
-691,641	-200,000	0,009	0,046
-690,627	-200,000	0,014	0,050
-689,612	-200,000	0,003	0,050
-688,597	84,866	0,014	-0,011
-687,583	-3,363	-0,151	-0,078
-686,568	78,834	0,008	0,006
-685,554	26,096	-0,081	0,050
-684,539	-83,814	0,090	0,021
-683,524	-25,494	-0,052	-0,023
-682,510	-200,000	0,011	0,065
-681,495	74,851	0,052	-0,041
-680,481	-32,388	0,033	0,014
-679,466	-20,887	-0,050	0,023
-678,451	651,384	0,035	-0,067
-677,437	328,059	-0,128	0,182
-676,422	800,000	0,051	0,136
-675,408	-114,617	-0,032	0,005
-674,393	408,053	0,068	-0,107
-673,378	17,395	-0,114	-0,067
-672,364	-200,000	-0,002	-0,021
-671,349	69,387	0,072	-0,055
-670,335	-141,198	0,041	-0,003
-669,320	-200,000	-0,009	-0,043
-668,305	157,362	0,095	0,098
-667,291	-200,000	0,002	0,034
-666,276	274,509	-0,060	0,079
-665,262	99,061	0,023	0,020
-664,247	376,456	-0,079	0,120
-663,232	-200,000	-0,001	0,158
-662,218	55,239	-0,057	0,041
-661,203	-200,000	0,052	0,172
-660,189	-22,103	-0,014	0,006
-659,174	561,732	0,025	-0,045
-658,159	800,000	-0,085	0,177
-657,145	296,582	0,042	-0,057
-656,130	-200,000	-0,004	-0,017
-655,116	0,834	-0,030	-0,016
-654,101	800,000	0,004	0,011
-653,086	-110,484	-0,164	-0,025
-652,072	35,059	-0,125	0,081
-651,057	200,655	-0,035	0,040
-650,043	-21,626	0,055	-0,025
-649,028	-200,000	0,000	-0,114
-648,014	-200,000	0,015	-0,129
-646,999	800,000	-0,053	-0,125
-645,984	-20,218	-0,162	-0,074
-644,970	-200,000	0,005	-0,037
-643,955	800,000	-0,040	-0,109
-642,941	-200,000	-0,010	-0,140
-641,926	73,337	-0,052	0,040
-640,911	728,452	0,055	0,108
-639,897	-200,000	0,049	-0,176
-638,882	800,000	-0,046	0,127
-637,868	48,076	0,100	-0,069
-636,853	-121,567	-0,037	0,005
-635,838	800,000	0,025	-0,052
-634,824	329,957	0,034	-0,048
-633,809	-49,312	0,117	-0,041
-632,795	12,907	-0,096	-0,055
-631,780	59,105	0,119	-0,086
-630,765	-15,263	-0,076	-0,036
-629,751	-200,000	-0,009	-0,070
-628,736	-126,791	-0,133	-0,014
-627,722	454,274	-0,015	-0,025
-626,707	-137,519	0,042	0,003
-625,692	-25,046	0,105	0,046
-624,678	-200,000	-0,021	0,097
-623,663	115,503	-0,061	-0,055
-622,649	-161,942	-0,079	0,003
-621,634	164,810	-0,042	0,044
-620,619	77,767	-0,120	0,094
-619,605	0,556	-0,041	-0,022
-618,590	15,560	0,080	0,046
-617,576	-161,322	-0,082	0,003
-616,561	98,482	0,074	0,063
-615,546	34,303	-0,143	-0,092
-614,532	439,527	0,037	-0,060
-613,517	309,649	0,029	-0,040
-612,503	-200,000	-0,015	-0,074
-611,488	-107,752	0,129	0,021
-610,474	116,349	-0,086	0,078
-609,459	-21,798	-0,056	-0,025
-608,444	-200,000	-0,008	-0,071
-607,430	-85,114	-0,059	0,013
-606,415	253,572	-0,081	-0,102
-605,401	-1,951	-0,139	0,072
-604,386	39,367	-0,068	0,045
-603,371	800,000	-0,003	-0,008
-602,357	48,504	0,020	0,014
-601,342	-200,000	-0,010	-0,038
-600,328	-200,000	-0,013	-0,140
-599,313	96,445	-0,091	-0,077
-598,298	380,523	-0,049	-0,075
-597,284	-200,000	0,003	-0,054
-596,269	279,522	0,038	0,050
-595,255	606,370	0,087	-0,162
-594,240	-200,000	0,002	0,128
-593,225	270,961	-0,052	0,068
-592,211	800,000	0,028	-0,067
-591,196	1,612	-0,141	-0,075
-590,182	800,000	0,011	-0,031
-589,167	-200,000	-0,003	0,072
-588,152	248,881	0,027	0,033
-587,138	55,778	-0,081	-0,058
-586,123	-20,041	-0,062	-0,028
-585,109	502,328	0,094	-0,162
-584,094	-65,911	0,131	-0,038
-583,079	500,306	-0,033	0,057
-582,065	-77,468	-0,055	0,014
-581,050	-93,060	0,059	0,012
-580,036	431,131	-0,019	-0,030
-579,021	95,877	-0,072	0,061
-578,006	410,512	-0,050	-0,078
-576,992	800,000	0,034	-0,078
-575,977	291,107	0,026	0,035
-574,963	455,921	0,052	0,086
-573,948	-200,000	-0,005	0,111
-572,934	160,083	0,040	0,041
-571,919	-70,518	-0,197	0,055
-570,904	-200,000	0,017	-0,129
-569,890	66,803	-0,015	-0,011
-568,875	87,859	-0,073	0,060
-567,861	604,436	0,065	0,120
-566,846	254,157	0,125	0,157
-565,831	-200,000	0,030	-0,115
-564,817	191,867	-0,088	0,098
-563,802	-25,754	-0,095	-0,041
-562,788	-138,168	-0,194	-0,016
-561,773	225,609	0,135	0,162
-560,758	104,699	-0,024	0,021
-559,744	-200,000	-0,006	0,028
-558,729	388,457	-0,069	0,106
-557,715	-134,280	0,081	-0,007
-556,700	-200,000	-0,010	0,156
-555,685	-91,929	0,060	0,013
-554,671	800,000	0,033	-0,082
-553,656	-200,000	0,017	0,077
-552,642	135,796	-0,101	0,097
-551,627	800,000	0,038	0,108
-550,612	-200,000	0,004	0,016
-549,598	-200,000	-0,025	-0,098
-548,583	-17,684	-0,054	-0,025
-547,569	745,540	-0,069	-0,137
-546,554	-200,000	-0,013	-0,120
-545,539	79,147	0,051	-0,040
-544,525	376,592	0,035	-0,053
-543,510	-81,810	-0,173	-0,041
-542,496	-65,643	-0,085	-0,025
-541,481	-200,000	0,019	0,070
-540,466	-82,143	0,075	0,018
-539,452	-33,650	-0,127	0,051
-538,437	-0,976	-0,076	0,039
-537,423	17,953	0,149	0,087
-536,408	800,000	-0,017	0,042
-535,393	739,305	0,022	0,043
-534,379	676,559	-0,047	-0,090
-533,364	800,000	-0,028	0,062
-532,350	-200,000	-0,020	0,100
-531,335	-42,969	0,068	0,025
-530,321	-200,000	0,006	-0,038
-529,306	77,453	-0,130	-0,102
-528,291	800,000	-0,026	-0,078
-527,277	-200,000	-0,031	0,135
-526,262	83,988	-0,020	-0,016
-525,248	-200,000	-0,002	-0,124
-524,233	295,848	0,052	0,070
-523,218	307,571	-0,106	0,147
-522,204	678,144	-0,086	0,165
-521,189	-200,000	-0,004	0,059
-520,175	-53,673	-0,054	-0,018
-519,160	-65,901	-0,102	0,030
-518,145	-79,686	0,136	-0,034
-517,131	508,501	0,011	0,019
-516,116	18,309	0,014	-0,008
-515,102	140,442	0,035	-0,034
-514,087	401,318	-0,048	0,075
-513,072	278,088	0,065	-0,086
-512,058	-200,000	0,006	-0,037
-511,043	21,342	0,077	0,046
-510,029	-200,000	-0,002	0,093
-509,014	63,850	0,144	0,106
-507,999	-38,133	0,045	-0,018
-506,985	80,877	-0,094	-0,075
-505,970	424,878	-0,065	-0,103
-504,956	800,000	0,064	-0,146
-503,941	-200,000	-0,036	0,124
-502,926	-200,000	-0,020	0,110
-501,912	104,349	0,062	-0,053
-500,897	194,517	0,060	0,067
-499,883	-64,156	-0,050	-0,015
-498,868	-123,509	0,112	-0,013
-497,853	73,350	0,116	-0,089
-496,839	-198,468	-0,053	0,000
-495,824	800,000	0,106	0,228
-494,810	-200,000	-0,021	0,075
-493,795	124,582	-0,053	0,050
-492,781	187,706	0,021	-0,023
-491,766	302,255	-0,051	-0,070
-490,751	-200,000	0,009	0,063
-489,737	-200,000	0,027	0,139
-488,722	227,729	-0,096	0,116
-487,708	8,302	0,030	0,017
-486,693	81,344	-0,043	-0,034
-485,678	800,000	0,041	-0,112
-484,664	423,851	-0,039	0,062
-483,649	-200,000	0,022	-0,106
-482,635	77,452	-0,155	-0,121
-481,620	10,039	-0,020	0,011
-480,605	90,289	-0,036	0,030
-479,591	800,000	-0,026	0,054
-478,576	-56,063	0,041	-0,013
-477,562	-200,000	-0,025	-0,144
-476,547	130,620	-0,035	-0,033
-475,532	17,326	-0,055	0,032
-474,518	-97,420	-0,056	-0,011
-473,503	-74,316	-0,125	0,033
-472,489	-131,917	0,112	-0,011
-471,474	105,741	-0,081	-0,070
-470,459	313,286	-0,108	0,150
-469,445	800,000	-0,024	0,058
-468,430	420,245	-0,047	-0,075
-467,416	322,532	0,050	0,070
-466,401	-83,510	-0,036	0,008
-465,386	-200,000	-0,033	0,109
-464,372	-200,000	-0,009	0,094
-463,357	95,542	0,103	0,086
-462,343	-200,000	0,013	0,047
-461,328	-45,917	-0,167	-0,060
-460,313	-100,587	0,041	0,007
-459,299	-200,000	-0,009	0,091
-458,284	-146,746	0,033	-0,002
-457,270	576,129	-0,036	0,065
-456,255	295,463	0,040	-0,054
-455,241	278,344	0,022	-0,029
-454,226	131,033	0,057	-0,054
-453,211	7,083	0,062	-0,034
-452,197	-200,000	-0,015	-0,080
-451,182	-5,210	0,089	0,045
-450,168	-200,000	0,034	0,181
-449,153	800,000	0,048	-0,134
-448,138	-200,000	-0,030	-0,141
-447,124	-25,388	-0,098	-0,042
-446,109	-200,000	0,004	-0,025
-445,095	800,000	0,094	0,194
-444,080	-200,000	0,007	0,178
-443,065	-200,000	-0,031	0,102
-442,051	60,507	0,100	-0,073
-441,036	32,294	-0,057	0,036
-440,022	-162,206	-0,060	0,002
-439,007	-40,205	-0,063	-0,024
-437,992	195,335	0,023	-0,026
-436,978	18,431	0,124	-0,073
-435,963	-200,000	-0,013	0,088
-434,949	42,902	-0,066	0,044
-433,934	800,000	-0,042	-0,094
-432,919	-49,822	-0,164	-0,057
-431,905	-36,643	0,087	0,034
-430,890	84,989	0,012	0,010
-429,876	634,633	-0,010	0,018
-428,861	25,689	-0,044	-0,027
-427,846	183,902	0,031	0,034
-426,832	-8,652	0,062	0,030
-425,817	-121,527	-0,074	0,009
-424,803	-200,000	-0,002	-0,018
-423,788	-142,882	0,125	-0,009
-422,773	800,000	0,029	0,065
-421,759	57,595	-0,078	-0,056
-420,744	170,764	-0,040	0,042
-419,730	608,246	-0,028	-0,051
-418,715	335,981	0,041	-0,059
-417,701	-3,153	-0,048	-0,024
-416,686	-108,290	-0,117	0,018
-415,671	168,851	-0,009	0,009
-414,657	-173,049	0,163	-0,004
-413,642	-122,486	-0,092	-0,011
-412,628	59,792	-0,206	-0,149
-411,613	132,783	0,062	-0,059
-410,598	-200,000	-0,008	-0,073
-409,584	113,636	0,054	-0,048
-408,569	-127,835	0,121	-0,013
-407,555	-82,544	0,017	-0,004
-406,540	334,183	-0,082	-0,117
-405,525	449,190	-0,084	-0,136
-404,511	424,169	-0,078	-0,123
-403,496	120,770	-0,130	-0,118
-402,482	-107,502	0,119	0,019
-401,467	89,451	0,062	0,051
-400,452	-200,000	0,002	0,072
-399,438	-27,117	-0,096	0,041
-398,423	76,991	-0,010	0,008
-397,409	-138,640	-0,101	0,008
-396,394	-4,833	-0,105	0,053
-395,379	-200,000	0,034	0,150
-394,365	-200,000	0,038	0,232
-393,350	-127,950	0,077	0,008
-392,336	-11,173	-0,124	0,060
-391,321	800,000	0,028	-0,079
-390,306	49,686	-0,042	-0,029
-389,292	23,498	-0,083	0,050
-388,277	-75,559	-0,054	0,014
-387,263	382,526	-0,065	0,098
-386,248	-200,000	0,004	0,087
-385,233	-151,827	0,229	0,012
-384,219	439,064	0,029	-0,047
-383,204	746,557	0,022	-0,044
-382,190	-182,701	-0,186	-0,002
-381,175	800,000	-0,070	-0,190
-380,160	397,277	0,081	0,124
-379,146	565,493	-0,015	-0,026
-378,131	800,000	0,021	0,060
-377,117	800,000	-0,033	-0,100
-376,102	-200,000	-0,016	0,093
-375,088	-200,000	0,022	0,096
-374,073	83,856	0,067	0,053
-373,058	-200,000	-0,001	0,012
-372,044	-17,917	0,058	0,026
-371,029	-105,817	-0,160	-0,026
-370,015	-114,442	-0,096	-0,013
-369,000	-200,000	-0,007	0,083
-367,985	-152,327	0,080	0,004
-366,971	-127,448	0,100	-0,010
-365,956	228,255	0,097	-0,116
-364,942	298,280	-0,123	0,166
-363,927	-200,000	-0,002	0,011
-362,912	-160,885	0,140	0,005
-361,898	181,875	-0,030	-0,033
-360,883	220,807	-0,024	-0,029
-359,869	-87,390	-0,115	-0,025
-358,854	-58,321	-0,032	0,010
-357,839	335,986	-0,031	-0,045
-356,825	-200,000	0,011	-0,039
-355,810	34,404	0,077	0,049
-354,796	800,000	0,050	-0,119
-353,781	-200,000	0,034	-0,217
-352,766	282,696	0,061	0,080
-351,752	800,000	0,049	0,103
-350,737	12,598	-0,031	0,018
-349,723	-200,000	0,012	0,052
-348,708	50,612	0,055	0,038
-347,693	-165,361	0,077	-0,002
-346,679	242,799	-0,036	-0,045
-345,664	-200,000	0,004	-0,065
-344,650	-94,886	-0,090	0,018
-343,635	314,733	0,066	-0,091
-342,620	-67,882	-0,037	-0,010
-341,606	252,015	0,067	0,084
-340,591	-200,000	-0,001	-0,080
-339,577	98,749	-0,085	0,071
-338,562	-2,065	0,077	-0,039
-337,548	-54,727	0,080	0,026
-336,533	-36,700	0,177	-0,069
-335,518	38,977	-0,026	-0,017
-334,504	-200,000	0,005	-0,091
-333,489	683,554	-0,029	0,056
-332,475	-200,000	-0,012	-0,079
-331,460	216,439	0,079	-0,092
-330,445	255,783	0,044	0,055
-329,431	-200,000	0,014	-0,179
-328,416	-200,000	-0,042	0,161
-327,402	800,000	-0,004	0,010
-326,387	208,754	-0,091	-0,104
-325,372	145,159	0,068	-0,066
-324,358	800,000	-0,070	0,148
-323,343	-83,560	0,067	0,016
-322,329	-61,285	0,174	0,053
-321,314	800,000	0,024	-0,067
-320,299	-32,002	-0,041	0,017
-319,285	-26,407	0,022	0,009
-318,270	-56,375	-0,078	-0,025
-317,256	147,612	0,037	0,036
-316,241	223,128	0,054	-0,063
-315,226	-200,000	0,007	-0,066
-314,212	-200,000	0,013	-0,152
-313,197	77,785	0,103	0,080
-312,183	75,096	-0,053	0,041
-311,168	142,806	-0,109	-0,106
-310,153	211,777	-0,051	-0,059
-309,139	-200,000	0,005	0,073
-308,124	371,802	-0,055	0,081
-307,110	-14,288	0,161	-0,076
-306,095	211,969	-0,048	0,055
-305,080	-200,000	0,003	0,144
-304,066	56,296	-0,078	0,055
-303,051	-200,000	0,039	-0,146
-302,037	371,639	0,091	-0,136
-301,022	1,210	0,082	0,043
-300,008	-200,000	0,000	0,135
-298,993	-84,584	0,094	0,021
-297,978	-106,253	0,110	0,018
-296,964	-67,516	0,066	-0,019
-295,949	-200,000	0,010	-0,100
-294,935	57,814	0,006	-0,004
-293,920	-133,644	0,097	-0,009
-292,905	800,000	-0,035	0,100
-291,891	-106,344	-0,181	-0,029
-290,876	-200,000	-0,006	0,102
-289,862	800,000	0,015	-0,036
-288,847	36,355	-0,075	-0,048
-287,832	3,193	0,124	0,066
-286,818	-48,212	0,020	0,007
-285,803	307,212	0,020	0,028
-284,789	-7,540	0,070	0,035
-283,774	710,213	-0,015	0,029
-282,759	84,338	0,011	-0,009
-281,745	588,040	-0,027	-0,048
-280,730	-166,746	-0,181	0,005
-279,716	-200,000	0,009	0,050
-278,701	-200,000	-0,017	-0,055
-277,686	-27,432	0,021	0,009
-276,672	732,326	0,038	0,075
-275,657	-200,000	0,005	0,031
-274,643	-200,000	-0,030	-0,098
-273,628	-43,411	-0,073	-0,027
-272,613	-100,791	0,047	-0,008
-271,599	800,000	0,054	0,135
-270,584	-200,000	0,038	0,219
-269,570	-200,000	-0,025	0,099
-268,555	600,676	-0,068	0,125
-267,540	305,731	-0,018	0,024
-266,526	34,653	-0,022	0,014
-265,511	165,409	0,086	-0,089
-264,497	800,000	-0,070	0,142
-263,482	-68,866	-0,103	-0,029
-262,467	62,356	0,110	-0,080
-261,453	33,583	0,102	0,065
-260,438	-200,000	0,003	-0,012
-259,424	199,965	-0,033	-0,037
-258,409	227,824	-0,073	-0,087
-257,395	-20,782	0,121	-0,054
-256,380	800,000	-0,028	0,061
-255,365	54,328	0,114	0,080
-254,351	800,000	0,011	-0,026
-253,336	800,000	-0,051	0,131
-252,322	135,684	-0,061	-0,058
-251,307	76,181	0,080	-0,061
-250,292	230,060	0,059	0,071
-249,278	-9,844	0,174	0,084
-248,263	796,996	0,023	-0,046
-247,249	800,000	0,005	-0,011
-246,234	-200,000	0,003	0,133
-245,219	-134,777	-0,059	0,005
-244,205	-200,000	-0,003	0,022
-243,190	-200,000	-0,009	-0,067
-242,176	-200,000	0,006	0,106
-241,161	169,253	0,051	0,053
-240,146	-200,000	-0,007	-0,036
-239,132	26,845	0,089	-0,054
-238,117	-19,506	-0,120	-0,054
-237,103	-200,000	-0,013	0,048
-236,088	-38,813	0,061	0,023
-235,073	-200,000	-0,003	0,020
-234,059	-155,758	0,199	-0,009
-233,044	123,872	-0,026	-0,023
-232,030	568,571	0,076	-0,134
-231,015	-57,744	-0,090	-0,029
-230,000	-113,316	0,063	-0,009
-228,986	-37,323	0,119	-0,046
-227,971	-200,000	0,009	-0,126
-226,957	-27,701	0,092	-0,039
-225,942	800,000	0,016	0,039
-224,927	173,860	-0,016	0,017
-223,913	-25,400	-0,134	-0,057
-222,898	-55,445	-0,116	-0,038
-221,884	21,152	-0,062	-0,036
-220,869	-72,639	0,127	0,034
-219,855	-4,749	0,114	-0,057
-218,840	33,023	0,058	-0,036
-217,825	179,890	0,006	0,007
-216,811	-112,623	0,096	0,014
-215,796	-81,155	-0,083	0,020
-214,782	56,553	0,016	0,012
-213,767	-135,433	0,059	0,005
-212,752	-200,000	0,010	-0,112
-211,738	47,168	0,062	-0,042
-210,723	373,361	-0,006	0,009
-209,709	-83,339	0,113	0,026
-208,694	-200,000	-0,021	-0,164
-207,679	247,762	0,037	-0,046
-206,665	-124,457	-0,058	0,006
-205,650	12,900	-0,092	0,052
-204,636	-67,262	0,095	0,027
-203,621	-110,263	0,065	0,010
-202,606	-200,000	-0,012	-0,080
-201,592	350,227	0,034	0,050
-200,577	800,000	-0,042	-0,104
-199,563	167,299	0,113	-0,117
-198,548	-200,000	-0,018	-0,082
-197,533	358,722	0,101	0,148
-196,519	-200,000	0,010	0,033
-195,504	-200,000	0,018	-0,080
-194,490	243,932	0,047	-0,057
-193,475	-4,849	-0,074	-0,037
-192,460	20,107	-0,011	0,007
-191,446	279,788	0,017	-0,022
-190,431	504,654	0,050	0,084
-189,417	612,217	-0,027	0,050
-188,402	-200,000	-0,026	0,096
-187,387	181,327	0,061	0,066
-186,373	522,890	-0,090	-0,154
-185,358	800,000	-0,043	0,099
-184,344	-39,861	0,123	0,046
-183,329	800,000	-0,022	0,065
-182,315	-13,665	-0,021	-0,010
-181,300	800,000	-0,025	-0,055
-180,285	59,120	0,034	0,025
-179,271	111,003	0,016	0,014
-178,256	-200,000	-0,001	0,038
-177,242	-87,476	0,028	0,006
-176,227	-140,842	0,177	0,013
-175,212	-141,768	0,080	-0,006
-174,198	-200,000	-0,021	-0,146
-173,183	800,000	0,024	0,072
-172,169	-64,066	-0,107	0,032
-171,154	-150,888	0,105	0,006
-170,139	696,165	0,038	0,073
-169,125	-200,000	0,000	0,009
-168,110	-87,957	-0,086	-0,019
-167,096	14,938	0,080	-0,046
-166,081	152,911	-0,040	-0,039
-165,066	-112,126	-0,204	0,029
-164,052	-200,000	0,001	-0,056
-163,037	-0,963	0,087	-0,044
-162,023	464,374	0,100	0,164
-161,008	-58,936	0,127	0,040
-159,993	800,000	-0,031	-0,088
-158,979	172,362	-0,076	-0,079
-157,964	-3,920	0,083	-0,042
-156,950	-78,509	0,075	0,018
-155,935	-31,193	-0,046	0,019
-154,920	287,932	-0,046	-0,061
-153,906	530,760	0,058	0,100
-152,891	-150,543	-0,090	0,005
-151,877	-83,964	0,129	0,029
-150,862	226,402	-0,047	0,055
-149,847	120,557	0,089	-0,080
-148,833	-200,000	0,004	-0,024
-147,818	-19,495	-0,115	0,052
-146,804	170,008	0,121	0,126
-145,789	433,522	0,040	-0,063
-144,775	-200,000	-0,007	-0,024
-143,760	-200,000	-0,007	-0,187
-142,745	179,575	-0,063	0,067
-141,731	528,494	0,041	-0,070
-140,716	-81,798	0,104	0,024
-139,702	-200,000	0,020	0,094
-138,687	-78,887	0,025	-0,006
-137,672	800,000	0,012	-0,027
-136,658	-125,842	0,060	0,006
-135,643	-117,754	-0,155	-0,020
-134,629	800,000	0,024	-0,057
-133,614	800,000	0,066	-0,139
-132,599	-63,574	0,052	0,015
-131,585	31,438	-0,079	-0,049
-130,570	-54,651	-0,066	0,022
-129,556	202,992	0,050	-0,057
-128,541	340,596	-0,114	-0,162
-127,526	-78,619	0,054	-0,013
-126,512	394,967	-0,027	0,041
-125,497	-131,679	0,161	0,015
-124,483	-46,645	-0,084	0,030
-123,468	-107,826	0,031	-0,005
-122,453	449,473	0,044	-0,071
-121,439	-132,731	-0,027	-0,002
-120,424	800,000	-0,009	0,029
-119,410	-200,000	0,024	-0,087
-118,395	-200,000	-0,001	0,127
-117,380	-200,000	-0,000	0,099
-116,366	-28,940	0,058	-0,024
-115,351	344,342	-0,031	-0,044
-114,337	578,248	-0,116	-0,207
-113,322	800,000	0,013	-0,027
-112,307	-200,000	-0,000	-0,103
-111,293	-147,550	0,083	-0,005
-110,278	83,388	-0,095	0,075
-109,264	534,639	-0,021	-0,037
-108,249	64,875	-0,049	-0,035
-107,234	45,137	0,094	0,062
-106,220	51,955	-0,110	-0,076
-105,205	-200,000	-0,001	-0,050
-104,191	-200,000	-0,040	0,166
-103,176	330,520	0,140	0,196
-102,162	-156,411	-0,103	-0,005
-101,147	371,516	0,067	0,099
-100,132	-20,799	-0,063	-0,028
-99,118	96,390	0,030	-0,025
-98,103	279,266	-0,078	0,101
-97,089	800,000	0,076	0,166
-96,074	333,550	0,018	0,025
-95,059	214,698	-0,102	0,118
-94,045	-81,063	0,060	0,014
-93,030	763,041	0,029	-0,057
-92,016	-200,000	-0,007	0,024
-91,001	37,684	0,059	0,038
-89,986	73,916	0,091	-0,069
-88,972	800,000	0,030	0,068
-87,957	-98,959	-0,084	-0,015
-86,943	-200,000	0,021	0,128
-85,928	-200,000	-0,016	-0,051
-84,913	309,655	-0,007	0,010
-83,899	-200,000	0,015	0,112
-82,884	-200,000	-0,012	0,101
-81,870	409,961	-0,077	0,119
-80,855	-200,000	-0,005	0,025
-79,840	81,944	-0,137	-0,108
-78,826	-91,111	0,095	0,020
-77,811	-200,000	-0,001	-0,062
-76,797	800,000	0,006	-0,017
-75,782	-28,309	0,104	0,043
-74,767	-92,424	0,073	0,015
-73,753	-45,867	0,074	0,026
-72,738	800,000	-0,009	-0,025
-71,724	-128,617	-0,144	-0,015
-70,709	-68,096	-0,059	-0,017
-69,694	-200,000	0,018	-0,223
-68,680	-144,823	0,069	-0,005
-67,665	-80,189	0,072	-0,017
-66,651	101,240	-0,018	0,015
-65,636	322,976	0,009	-0,013
-64,622	-200,000	0,015	-0,095
-63,607	-63,367	-0,034	0,010
-62,592	800,000	-0,081	-0,175
-61,578	82,309	-0,072	-0,056
-60,563	16,831	0,112	0,064
-59,549	800,000	0,045	0,117
-58,534	-47,907	-1,552	-0,540
-57,519	774,691	-0,648	-1,285
-56,505	-200,000	-1,050	-4,415
-55,490	-92,001	0,682	-0,139
-54,476	800,000	5,118	11,763
-53,461	-200,000	14,757	262,666
-52,446	-200,000	697,021	2239,478
-51,432	566,578	1621,582	2857,500
-50,417	118,982	1629,079	1456,404
-49,403	76,349	1283,142	982,100
-48,388	37,487	1022,130	654,286
-47,373	22,981	981,982	580,980
-46,359	22,100	971,039	571,599
-45,344	20,905	966,653	565,098
-44,330	20,886	965,477	564,328
-43,315	20,720	963,909	562,848
-42,300	20,735	962,906	562,289
-41,286	20,696	961,978	561,599
-40,271	20,752	960,896	561,127
-39,257	20,699	960,133	560,487
-38,242	20,670	959,207	559,829
-37,227	20,689	958,309	559,346
-36,213	20,646	957,416	558,662
-35,198	20,658	956,433	558,107
-34,184	20,655	955,939	557,787
-33,169	20,587	954,991	556,990
-32,154	20,705	954,049	556,799
-31,140	20,651	953,059	556,026
-30,125	20,715	952,400	555,824
-29,111	20,668	951,590	555,179
-28,096	20,655	950,890	554,709
-27,082	20,628	950,303	554,256
-26,067	20,644	949,293	553,698
-25,052	20,682	948,653	553,422
-24,038	20,630	948,062	552,891
-23,023	20,650	947,237	552,450
-22,009	20,690	946,664	552,222
-20,994	20,723	946,022	551,931
-19,979	20,656	945,572	551,434
-18,965	20,689	944,964	551,161
-17,950	20,641	944,178	550,529
-16,936	20,558	943,650	549,937
-15,921	20,601	942,794	549,552
-14,906	20,590	942,180	549,136
-13,892	20,591	941,497	548,721
-12,877	20,527	941,008	548,208
-11,863	20,482	940,330	547,651
-10,848	20,599	939,687	547,626
-9,833	20,589	939,528	547,477
-8,819	20,624	938,930	547,220
-7,804	20,569	938,186	546,589
-6,790	20,484	937,779	546,064
-5,775	20,570	936,957	545,835
-4,760	20,527	936,423	545,364
-3,746	20,579	935,732	545,104
-2,731	20,402	935,042	544,124
-1,717	20,450	934,166	543,743
-0,702	20,409	933,544	543,232
0,313	20,177	932,833	542,908
1,327	23,152	931,237	551,269
2,342	32,197	793,368	493,645
3,356	29,444	451,449	276,726
4,371	-0,302	296,688	151,912
5,386	-4,436	277,618	138,191
6,400	-5,519	271,950	134,343
7,415	-6,012	269,702	132,763
8,429	-5,864	268,357	132,226
9,444	-5,967	267,466	131,680
10,459	-5,997	266,823	131,325
11,473	-6,199	266,252	130,847
12,488	-6,012	265,853	130,810
13,502	-6,304	265,340	130,279
14,517	-6,190	264,846	130,129
15,531	-6,282	264,460	129,844
16,546	-6,174	263,980	129,695
17,561	-6,105	263,552	129,536
18,575	-6,106	263,461	129,478
19,590	-6,304	262,880	129,002
20,604	-6,234	262,798	129,014
21,619	-6,322	262,389	128,722
22,634	-6,214	261,992	128,613
23,648	-6,337	261,704	128,350
24,663	-6,080	261,345	128,392
25,677	-6,416	261,369	128,092
26,692	-6,392	261,025	127,933
27,707	-6,313	260,651	127,809
28,721	-6,252	260,392	127,725
29,736	-6,345	260,239	127,555
30,750	-6,066	259,789	127,573
31,765	-6,274	259,629	127,297
32,780	-6,302	259,450	127,173
33,794	-6,323	259,294	127,067
34,809	-6,368	258,938	126,841
35,823	-6,461	258,881	126,719
36,838	-6,578	258,656	126,493
37,853	-6,400	258,226	126,430
38,867	-6,312	258,064	126,418
39,882	-6,300	257,801	126,288
40,896	-6,485	257,510	125,971
41,911	-6,429	257,251	125,882
42,926	-6,409	257,066	125,798
43,940	-6,507	256,972	125,654
44,955	-6,356	256,376	125,484
45,969	-6,782	256,456	125,137
46,984	-6,732	256,163	125,027
47,999	-7,054	255,968	124,638
49,013	-7,029	255,593	124,466
50,028	-7,046	255,301	124,298
51,042	-7,333	254,969	123,874
52,057	-7,175	254,822	123,930
53,071	-7,100	254,817	123,982
54,086	-7,101	254,553	123,841
55,101	-6,932	254,453	123,930
56,115	-6,714	254,078	123,925
57,130	-6,442	254,212	124,217
58,144	-6,146	253,948	124,335
59,159	-5,943	253,827	124,441
60,174	-6,070	253,493	124,156
61,188	-6,253	253,434	123,957
62,203	-6,249	253,188	123,829
63,217	-6,215	252,845	123,680
64,232	-6,065	252,583	123,670
65,247	-6,252	252,517	123,466
66,261	-6,216	252,292	123,375
67,276	-6,515	251,940	122,934
68,290	-6,665	251,774	122,712
69,305	-6,769	251,462	122,461
70,320	-6,638	251,220	122,444
71,334	-6,517	251,315	122,584
72,349	-6,206	251,012	122,692
73,363	-6,211	250,917	122,630
74,378	-6,256	250,724	122,487
75,393	-6,258	250,541	122,385
76,407	-6,362	250,139	122,088
77,422	-6,215	249,919	122,096
78,436	-6,280	249,828	121,985
79,451	-6,165	249,769	122,043
80,466	-6,501	249,334	121,534
81,480	-6,604	249,128	121,335
82,495	-6,598	248,949	121,241
83,509	-6,591	248,813	121,171
84,524	-6,495	248,524	121,100
85,539	-6,682	248,205	120,775
86,553	-6,709	248,116	120,699
87,568	-6,696	248,050	120,666
88,582	-6,475	247,696	120,671
89,597	-6,734	247,706	120,446
90,611	-6,475	247,529	120,568
91,626	-6,554	247,383	120,419
92,641	-6,286	247,113	120,504
93,655	-6,361	246,855	120,303
94,670	-6,590	246,805	120,076
95,684	-6,279	246,391	120,125
96,699	-6,507	246,486	119,969
97,714	-6,436	246,125	119,842
98,728	-6,579	245,985	119,643
99,743	-6,720	245,801	119,424
100,757	-6,770	245,529	119,240
101,772	-6,718	245,433	119,226
102,787	-6,480	245,155	119,280
103,801	-6,625	245,077	119,110
104,816	-6,695	244,963	118,985
105,830	-6,335	244,808	119,200
106,845	-6,318	244,660	119,132
107,860	-6,228	244,345	119,043
108,874	-6,457	244,118	118,731
109,889	-6,596	244,060	118,576
110,903	-6,474	243,642	118,463
111,918	-6,626	243,661	118,336
112,933	-6,313	243,484	118,500
113,947	-6,505	243,395	118,287
114,962	-6,501	243,106	118,138
115,976	-6,298	242,836	118,165
116,991	-6,462	242,870	118,036
118,006	-6,167	242,526	118,102
119,020	-6,264	242,446	117,972
120,035	-6,447	242,518	117,845
121,049	-6,387	242,233	117,746
122,064	-6,275	242,023	117,726
123,079	-6,117	241,619	117,648
124,093	-6,331	241,436	117,373
125,108	-6,637	241,329	117,059
126,122	-6,750	240,949	116,771
127,137	-6,751	240,810	116,692
128,151	-6,570	240,726	116,790
129,166	-6,675	240,543	116,604
130,181	-6,598	240,282	116,530
131,195	-6,744	240,089	116,307
132,210	-6,597	240,022	116,385
133,224	-6,423	239,905	116,460
134,239	-6,437	239,635	116,307
135,254	-6,377	239,738	116,395
136,268	-6,551	239,392	116,075
137,283	-6,705	239,039	115,768
138,297	-6,948	238,953	115,519
139,312	-6,889	238,797	115,481
140,327	-6,471	238,754	115,790
141,341	-6,269	238,693	115,914
142,356	-6,083	238,429	115,927
143,370	-5,915	238,183	115,932
144,385	-6,025	238,086	115,786
145,400	-6,122	237,905	115,609
146,414	-5,981	237,856	115,688
147,429	-6,115	237,547	115,420
148,443	-6,225	237,458	115,278
149,458	-6,127	237,261	115,250
150,473	-6,224	237,227	115,146
151,487	-6,110	236,848	115,043
152,502	-5,984	236,767	115,095
153,516	-6,078	236,682	114,968
154,531	-6,015	236,247	114,797
155,546	-6,196	236,218	114,627
156,560	-6,181	236,068	114,556
157,575	-6,286	235,796	114,330
158,589	-6,164	235,618	114,331
159,604	-5,937	235,626	114,507
160,619	-5,735	235,360	114,529
161,633	-5,751	235,178	114,417
162,648	-5,961	235,116	114,209
163,662	-6,051	234,956	114,050
164,677	-6,195	234,716	113,808
165,692	-6,054	234,664	113,885
166,706	-5,949	234,488	113,873
167,721	-5,738	234,261	113,920
168,735	-5,941	234,247	113,742
169,750	-5,813	233,959	113,694
170,764	-5,899	233,819	113,547
171,779	-6,019	233,731	113,399
172,794	-5,836	233,580	113,461
173,808	-6,041	233,327	113,165
174,823	-6,475	232,953	112,631
175,837	-6,539	232,776	112,484
176,852	-6,384	232,957	112,685
177,867	-5,961	232,776	112,921
178,881	-5,934	232,630	112,862
179,896	-5,910	232,487	112,801
180,910	-5,888	232,299	112,717
181,925	-5,930	232,238	112,644
182,940	-6,018	231,951	112,426
183,954	-5,827	231,794	112,490
184,969	-5,712	231,746	112,547
185,983	-5,719	231,626	112,473
186,998	-5,647	231,387	112,403
188,013	-5,571	231,374	112,446
189,027	-5,838	231,150	112,118
190,042	-5,663	230,950	112,149
191,056	-5,908	230,938	111,941
192,071	-5,858	230,676	111,843
193,086	-5,815	230,425	111,745
194,100	-5,776	230,399	111,753
195,115	-5,648	230,070	111,683
196,129	-6,236	229,803	111,086
197,144	-3,656	230,786	113,566
198,159	0,974	232,030	117,796
199,173	3,629	232,725	120,221
200,188	3,995	232,627	120,446
201,202	3,971	232,418	120,309
202,217	4,072	232,409	120,371
203,232	4,205	232,296	120,407
204,246	4,364	232,122	120,429
205,261	4,358	232,005	120,353
206,275	4,665	231,915	120,536
207,290	4,728	231,689	120,456
208,304	4,655	231,531	120,307
209,319	4,535	231,389	120,128
210,334	4,348	231,280	119,916
211,348	4,006	230,985	119,487
212,363	3,729	230,735	119,132
213,377	3,460	230,646	118,867
214,392	3,658	230,292	118,827
215,407	3,742	230,299	118,885
216,421	3,730	230,185	118,806
217,436	3,654	229,859	118,569
218,450	3,283	229,662	118,171
219,465	3,381	229,472	118,137
220,480	3,206	229,382	117,946
221,494	3,406	229,289	118,042
222,509	3,681	229,120	118,155
223,523	3,729	229,018	118,130
224,538	3,493	228,961	117,908
225,553	3,585	228,734	117,851
226,567	3,820	228,555	117,929
227,582	4,038	228,515	118,065
228,596	4,019	228,391	117,976
229,611	3,848	228,168	117,720
230,626	3,532	227,915	117,337
231,640	3,352	227,760	117,109
232,655	3,741	227,673	117,351
233,669	4,399	227,605	117,808
234,684	4,346	227,596	117,752
235,699	4,132	227,336	117,444
236,713	3,946	227,132	117,186
237,728	3,668	226,894	116,841
238,742	3,634	226,701	116,706
239,757	3,664	226,657	116,695
240,772	3,831	226,206	116,579
241,786	3,570	226,219	116,378
242,801	3,622	226,257	116,427
243,815	4,171	226,039	116,720
244,830	3,960	226,015	116,537
245,844	3,881	225,699	116,305
246,859	3,803	225,452	116,107
247,874	3,878	225,538	116,198
248,888	4,300	225,374	116,422
249,903	3,865	225,242	116,016
250,917	3,695	225,227	115,869
251,932	3,612	224,989	115,674
252,947	3,518	224,680	115,434
253,961	3,459	224,585	115,330
254,976	3,196	224,577	115,117
255,990	3,730	224,427	115,432
257,005	3,860	224,223	115,415
258,020	3,928	224,112	115,398
259,034	4,075	224,053	115,468
260,049	4,061	223,763	115,298
261,063	4,007	223,622	115,174
262,078	4,163	223,515	115,226
263,093	4,075	223,347	115,063
264,107	4,167	223,283	115,088
265,122	3,730	223,305	114,763
266,136	4,133	223,035	114,915
267,151	4,336	222,941	115,007
268,166	3,821	222,683	114,480
269,180	3,478	222,343	114,040
270,195	3,592	222,185	114,034
271,209	3,557	222,052	113,929
272,224	3,727	221,930	113,983
273,239	3,712	221,909	113,951
274,253	3,608	221,722	113,767
275,268	3,301	221,514	113,423
276,282	3,490	221,314	113,451
277,297	3,415	221,134	113,292
278,312	3,651	221,106	113,443
279,326	3,756	220,953	113,431
280,341	3,546	220,955	113,268
281,355	3,678	220,692	113,220
282,370	3,567	220,688	113,126
283,384	3,522	220,449	112,960
284,399	3,438	220,229	112,775
285,414	3,317	220,082	112,601
286,428	3,773	219,929	112,848
287,443	3,589	220,125	112,803
288,457	3,965	219,718	112,860
289,472	3,614	219,552	112,508
290,487	3,261	219,294	112,107
291,501	3,190	219,242	112,018
292,516	3,350	219,032	112,018
293,530	3,317	219,039	111,987
294,545	3,375	218,782	111,888
295,560	3,112	218,814	111,703
296,574	3,465	218,716	111,900
297,589	3,528	218,489	111,821
298,603	3,707	218,374	111,882
299,618	3,672	218,094	111,703
300,633	3,657	218,026	111,648
301,647	4,015	217,986	111,877
302,662	3,885	217,866	111,711
303,676	4,054	217,787	111,783
304,691	3,800	217,520	111,453
305,706	3,808	217,314	111,343
306,720	3,803	217,102	111,220
307,735	3,800	217,107	111,211
308,749	3,657	217,011	111,048
309,764	3,831	216,954	111,135
310,779	3,823	216,826	111,054
311,793	3,753	216,617	110,887
312,808	3,860	216,421	110,853
313,822	3,595	216,327	110,604
314,837	3,737	216,080	110,570
315,852	3,484	215,940	110,307
316,866	3,618	215,845	110,345
317,881	3,960	215,683	110,497
318,895	3,884	215,655	110,419
319,910	3,767	215,305	110,146
320,925	3,622	215,171	109,963
321,939	3,487	214,956	109,748
322,954	3,076	214,947	109,439
323,968	3,810	214,898	109,929
324,983	3,962	214,936	110,048
325,997	3,854	214,608	109,793
327,012	3,771	214,591	109,715
328,027	3,817	214,254	109,566
329,041	4,032	214,354	109,760
330,056	4,260	214,152	109,810
331,070	3,814	214,008	109,409
332,085	3,588	213,763	109,113
333,100	3,576	213,649	109,037
334,114	3,891	213,443	109,145
335,129	3,851	213,329	109,049
336,143	3,801	213,136	108,905
337,158	3,623	213,076	108,738
338,173	3,684	213,002	108,734
339,187	3,616	212,805	108,576
340,202	3,301	212,685	108,282
341,216	3,497	212,428	108,280
342,231	3,497	212,230	108,169
343,246	3,592	212,128	108,175
344,260	3,136	212,172	107,866
345,275	3,408	212,037	107,980
346,289	3,747	211,821	108,099
347,304	3,788	211,793	108,103
348,319	3,694	211,656	107,958
349,333	3,758	211,518	107,923
350,348	3,795	211,422	107,891
351,362	3,749	211,351	107,812
352,377	3,798	211,203	107,761
353,392	3,544	211,092	107,517
354,406	3,835	210,723	107,523
355,421	195,090	1342,868	1430,478
356,435	155,787	1480,875	1430,551
