DTS Sentinel unit serial number:	SN410029Multiplexer serial number:	ORYXHardware model number:	OX2-SRSoftware version number:	ORYX F/W v4,00 Oryx Data Collector v3.7.2.0data status	okinstallation	B6 Nyhavnadifferential loss correction	single-endedforward channel	channel 2reverse channel	N/Adate	2023/12/11time	09:15:08forward acquisition time	300,00reverse acquisition time	0,00gamma	499,1914k internal	0,3137k external	0,3137temperature offset calibration	1,0000default loss term (dB/km)	0,3820temperature slope calibration	1,0000multiplexer offset coefficient	1,0000multiplexer slope coefficient	1,0000fibre end	0,00T internal ref (°C)	16,92T ext. ref 1 (°C)	-0,65T ext. ref 2 (°C)	-0,66length (m)	temperature (°C)	Stokes	anti-Stokes-744,400	269,822	0,034	0,045
-743,385	-2,041	-0,156	-0,081
-742,371	31,716	0,117	0,074
-741,356	-49,978	-0,169	-0,059
-740,342	-200,000	0,023	-0,084
-739,327	-78,166	-0,384	0,097
-738,312	177,515	0,102	0,111
-737,298	-180,456	-0,360	-0,005
-736,283	-70,448	0,053	-0,015
-735,269	35,585	-0,151	0,098
-734,254	-200,000	0,005	0,035
-733,239	-64,129	-0,441	-0,133
-732,225	-174,985	0,085	0,002
-731,210	145,689	0,163	0,162
-730,196	-200,000	0,004	-0,040
-729,181	-186,318	-0,145	-0,002
-728,167	225,298	-0,036	0,043
-727,152	800,000	0,040	-0,099
-726,137	105,034	-0,081	-0,071
-725,123	-108,193	0,014	0,002
-724,108	800,000	0,077	-0,195
-723,094	-95,108	-0,208	-0,041
-722,079	-200,000	-0,023	0,136
-721,064	-200,000	0,017	0,068
-720,050	-93,261	-0,091	-0,019
-719,035	-71,129	-0,071	0,020
-718,021	275,997	-0,012	-0,015
-717,006	-145,611	-0,193	-0,013
-715,991	721,162	-0,051	-0,101
-714,977	505,560	-0,026	0,045
-713,962	381,307	0,051	-0,078
-712,948	33,399	0,030	-0,019
-711,933	-200,000	-0,014	-0,193
-710,918	191,417	-0,016	0,018
-709,904	106,911	-0,040	-0,036
-708,889	800,000	0,032	0,091
-707,875	800,000	-0,031	-0,086
-706,860	800,000	0,015	0,035
-705,845	582,540	-0,051	-0,093
-704,831	800,000	0,040	-0,088
-703,816	-200,000	-0,008	0,075
-702,802	149,989	-0,022	-0,023
-701,787	129,335	-0,055	0,052
-700,772	-128,873	-0,107	0,011
-699,758	800,000	-0,026	0,064
-698,743	-185,305	0,126	0,001
-697,729	-200,000	0,007	0,096
-696,714	470,048	-0,074	-0,123
-695,699	-122,934	-0,026	0,003
-694,685	94,883	-0,066	-0,056
-693,670	-200,000	-0,019	-0,102
-692,656	-200,000	0,001	-0,153
-691,641	11,084	0,138	-0,078
-690,627	430,733	0,102	-0,165
-689,612	-17,541	-0,012	0,006
-688,597	-200,000	-0,011	0,084
-687,583	-108,637	-0,058	0,009
-686,568	800,000	0,039	-0,087
-685,554	197,708	0,063	0,071
-684,539	800,000	0,023	-0,052
-683,524	-195,493	0,226	-0,001
-682,510	21,599	-0,029	0,017
-681,495	225,204	-0,036	0,043
-680,481	114,668	-0,103	-0,093
-679,466	800,000	-0,050	-0,124
-678,451	609,071	0,047	-0,087
-677,437	-18,920	0,060	0,028
-676,422	45,924	-0,083	0,057
-675,408	618,721	-0,055	0,102
-674,393	364,313	0,028	-0,042
-673,378	-40,076	-0,133	-0,051
-672,364	800,000	0,036	-0,087
-671,349	800,000	0,002	0,006
-670,335	-30,802	-0,153	-0,064
-669,320	-43,412	-0,033	-0,012
-668,305	-200,000	-0,046	0,157
-667,291	-37,231	0,079	-0,031
-666,276	-64,593	-0,047	-0,014
-665,262	-137,385	-0,055	-0,005
-664,247	-42,130	-0,118	-0,044
-663,232	499,259	0,114	0,195
-662,218	487,612	-0,078	0,132
-661,203	60,382	0,037	0,027
-660,189	54,110	0,048	-0,034
-659,174	271,246	0,027	-0,036
-658,159	-200,000	0,010	-0,158
-657,145	-200,000	-0,003	-0,049
-656,130	-200,000	0,013	-0,071
-655,116	-57,517	-0,166	-0,053
-654,101	-200,000	-0,042	-0,162
-653,086	-94,230	-0,131	-0,026
-652,072	595,289	0,039	-0,071
-651,057	129,256	-0,085	-0,080
-650,043	650,267	-0,028	-0,054
-649,028	285,253	0,086	-0,115
-648,014	-200,000	0,010	0,044
-646,999	800,000	0,081	0,219
-645,984	-82,806	-0,067	0,016
-644,970	800,000	0,017	-0,044
-643,955	164,744	0,064	-0,066
-642,941	-144,314	-0,112	-0,008
-641,926	183,868	0,062	-0,068
-640,911	650,127	0,052	0,100
-639,897	154,998	-0,083	0,085
-638,882	-29,189	-0,039	-0,017
-637,868	487,317	-0,048	-0,081
-636,853	-200,000	-0,016	-0,177
-635,838	789,749	0,045	0,091
-634,824	595,787	0,033	-0,061
-633,809	-173,005	-0,087	-0,002
-632,795	-109,004	0,076	-0,012
-631,780	800,000	0,028	-0,082
-630,765	-200,000	-0,021	-0,126
-629,751	-123,881	-0,129	-0,015
-628,736	-200,000	-0,004	-0,028
-627,722	31,205	-0,165	-0,104
-626,707	-65,141	-0,162	0,048
-625,692	-53,611	0,088	0,030
-624,678	-142,795	-0,079	-0,006
-623,663	-200,000	-0,016	-0,146
-622,649	-136,091	-0,149	-0,013
-621,634	254,025	0,052	-0,066
-620,619	-130,311	-0,035	-0,003
-619,605	779,557	0,014	-0,027
-618,590	800,000	-0,017	0,041
-617,576	332,417	-0,051	-0,073
-616,561	75,339	-0,056	-0,044
-615,546	-89,129	0,046	0,010
-614,532	-200,000	0,010	-0,197
-613,517	301,919	0,109	0,149
-612,503	-126,741	-0,019	-0,002
-611,488	-200,000	-0,020	-0,129
-610,474	-200,000	-0,004	-0,061
-609,459	-110,205	-0,067	-0,010
-608,444	-78,886	-0,076	0,019
-607,430	-85,674	-0,045	-0,010
-606,415	37,074	0,056	-0,037
-605,401	-200,000	-0,009	-0,139
-604,386	-113,586	0,153	-0,022
-603,371	-200,000	0,004	0,029
-602,357	-27,774	-0,072	0,031
-601,342	-200,000	-0,017	0,113
-600,328	362,654	-0,030	-0,045
-599,313	-35,980	0,047	-0,019
-598,298	800,000	0,019	-0,057
-597,284	800,000	-0,024	0,076
-596,269	213,897	0,077	0,090
-595,255	403,084	-0,093	0,145
-594,240	235,854	0,057	-0,070
-593,225	248,231	-0,039	-0,049
-592,211	0,816	-0,069	-0,036
-591,196	17,741	-0,140	-0,082
-590,182	180,509	0,009	0,010
-589,167	195,273	0,053	0,059
-588,152	180,501	0,073	0,079
-587,138	-132,027	-0,084	0,008
-586,123	800,000	0,055	-0,150
-585,109	-200,000	0,029	-0,097
-584,094	186,621	-0,072	-0,079
-583,079	-52,927	0,187	0,063
-582,065	-200,000	0,026	0,126
-581,050	-200,000	-0,006	-0,062
-580,036	85,447	0,010	-0,008
-579,021	800,000	0,028	-0,061
-578,006	-200,000	-0,009	0,159
-576,992	800,000	-0,032	-0,072
-575,977	-168,702	0,131	-0,004
-574,963	-200,000	0,021	-0,082
-573,948	242,112	0,039	-0,048
-572,934	627,691	-0,076	-0,143
-571,919	800,000	-0,029	-0,086
-570,904	198,784	-0,076	-0,086
-569,890	-129,008	0,051	0,005
-568,875	43,929	-0,083	0,056
-567,861	572,878	-0,039	0,070
-566,846	-200,000	-0,006	0,215
-565,831	-49,245	-0,101	0,035
-564,817	44,087	0,031	-0,021
-563,802	-61,234	0,099	-0,030
-562,788	-114,670	-0,108	0,015
-561,773	351,108	0,036	0,053
-560,758	-200,000	-0,014	-0,077
-559,744	29,943	-0,125	-0,078
-558,729	-200,000	-0,008	0,087
-557,715	116,400	-0,084	0,076
-556,700	18,666	-0,044	0,026
-555,685	-88,632	-0,079	-0,017
-554,671	571,362	0,011	0,020
-553,656	-81,020	0,096	0,023
-552,642	170,127	0,045	0,048
-551,627	-200,000	0,009	0,031
-550,612	800,000	0,003	0,008
-549,598	-200,000	-0,018	-0,160
-548,583	-80,610	-0,036	0,009
-547,569	800,000	-0,014	-0,029
-546,554	-200,000	0,041	0,153
-545,539	-103,103	0,104	0,018
-544,525	800,000	0,037	0,084
-543,510	516,876	0,020	0,034
-542,496	224,345	-0,022	0,026
-541,481	-22,089	-0,110	0,049
-540,466	-45,504	-0,146	-0,053
-539,452	800,000	0,023	-0,054
-538,437	-126,878	0,100	0,011
-537,423	47,644	0,047	-0,033
-536,408	204,678	0,045	-0,052
-535,393	-161,291	-0,090	-0,003
-534,379	800,000	-0,051	-0,138
-533,364	-200,000	-0,002	0,083
-532,350	-140,858	0,104	0,008
-531,335	-117,154	-0,099	-0,013
-530,321	-91,891	-0,060	-0,012
-529,306	-200,000	0,016	-0,079
-528,291	49,780	0,045	0,031
-527,277	-54,136	-0,008	0,003
-526,262	-56,952	0,100	-0,032
-525,248	-10,868	-0,048	-0,023
-524,233	599,411	0,044	-0,081
-523,218	-200,000	0,003	-0,026
-522,204	800,000	0,065	0,161
-521,189	-35,044	-0,123	-0,049
-520,175	198,109	-0,102	-0,115
-519,160	-200,000	0,010	-0,155
-518,145	166,711	-0,076	-0,080
-517,131	431,005	-0,045	0,073
-516,116	-200,000	-0,008	-0,057
-515,102	68,577	-0,070	-0,052
-514,087	800,000	-0,013	-0,038
-513,072	-200,000	0,007	-0,101
-512,058	89,776	0,042	-0,035
-511,043	231,769	-0,010	0,013
-510,029	31,170	0,015	0,009
-509,014	-200,000	0,004	-0,020
-507,999	-128,596	-0,051	0,005
-506,985	426,481	-0,035	0,055
-505,970	266,150	0,049	-0,063
-504,956	800,000	-0,085	-0,223
-503,941	-151,386	-0,040	-0,002
-502,926	399,139	-0,017	0,026
-501,912	-169,324	0,126	-0,003
-500,897	-200,000	-0,015	0,066
-499,883	800,000	-0,047	0,098
-498,868	121,925	-0,065	-0,060
-497,853	-117,125	-0,094	-0,012
-496,839	800,000	0,032	-0,087
-495,824	800,000	-0,008	-0,024
-494,810	77,192	-0,088	0,069
-493,795	800,000	-0,034	-0,085
-492,781	-200,000	-0,045	-0,231
-491,766	718,347	-0,058	-0,113
-490,751	-8,699	-0,082	0,040
-489,737	800,000	0,056	-0,164
-488,722	800,000	-0,030	0,087
-487,708	-200,000	0,016	0,170
-486,693	-73,484	0,111	0,029
-485,678	-88,465	-0,173	0,038
-484,664	183,466	-0,051	-0,055
-483,649	-101,346	0,064	0,011
-482,635	-200,000	-0,002	-0,073
-481,620	-83,100	0,180	-0,042
-480,605	-90,505	0,018	-0,004
-479,591	60,590	-0,074	0,054
-478,576	297,783	-0,113	0,152
-477,562	800,000	-0,049	0,107
-476,547	-82,524	-0,104	0,025
-475,532	800,000	-0,043	-0,136
-474,518	15,223	-0,069	-0,040
-473,503	800,000	0,042	0,104
-472,489	800,000	-0,029	0,079
-471,474	-200,000	-0,012	-0,075
-470,459	773,335	0,071	-0,143
-469,445	-106,714	0,088	0,014
-468,430	-128,364	0,087	0,009
-467,416	800,000	-0,030	-0,090
-466,401	-200,000	0,005	0,083
-465,386	-132,619	-0,041	-0,004
-464,372	-200,000	-0,022	0,116
-463,357	-88,647	0,054	0,012
-462,343	-77,179	-0,081	-0,021
-461,328	800,000	-0,071	-0,166
-460,313	-136,736	0,089	0,007
-459,299	800,000	0,041	0,096
-458,284	-200,000	-0,006	0,049
-457,270	-38,250	0,032	0,012
-456,255	-200,000	0,002	-0,050
-455,241	295,706	0,055	-0,075
-454,226	60,308	-0,077	-0,056
-453,211	-200,000	0,022	-0,073
-452,197	256,745	0,041	0,051
-451,182	740,361	0,049	0,098
-450,168	78,608	0,083	-0,065
-449,153	24,510	-0,099	0,060
-448,138	108,137	-0,053	0,047
-447,124	47,433	-0,053	-0,036
-446,109	148,720	-0,093	-0,092
-445,095	-200,000	0,017	0,058
-444,080	-200,000	-0,007	0,070
-443,065	800,000	-0,029	0,069
-442,051	-55,352	0,103	0,034
-441,036	-116,311	-0,099	0,013
-440,022	-79,283	0,094	-0,023
-439,007	800,000	0,045	0,139
-437,992	-153,946	0,068	-0,003
-436,978	188,118	0,044	0,049
-435,963	303,708	0,033	-0,045
-434,949	-81,275	-0,098	0,023
-433,934	-177,453	-0,079	0,001
-432,919	800,000	-0,074	0,169
-431,905	78,714	-0,050	-0,039
-430,890	800,000	-0,027	-0,061
-429,876	-26,684	0,059	0,025
-428,861	178,429	-0,092	0,099
-427,846	800,000	0,002	0,005
-426,832	21,433	-0,116	-0,069
-425,817	-6,675	0,131	-0,065
-424,803	800,000	-0,058	-0,136
-423,788	-13,273	0,129	-0,061
-422,773	239,837	0,025	-0,030
-421,759	135,145	0,085	0,081
-420,744	239,265	-0,037	-0,045
-419,730	-40,919	-0,096	-0,036
-418,715	-200,000	-0,001	-0,122
-417,701	-200,000	0,014	0,142
-416,686	-200,000	-0,009	0,123
-415,671	800,000	-0,033	0,105
-414,657	-200,000	-0,014	0,159
-413,642	-200,000	-0,018	0,109
-412,628	71,726	-0,110	-0,083
-411,613	246,918	0,036	-0,044
-410,598	-69,559	0,038	0,010
-409,584	108,196	-0,029	-0,025
-408,569	-175,678	0,095	0,002
-407,555	-200,000	0,007	0,086
-406,540	194,808	-0,071	-0,079
-405,525	-71,164	0,038	-0,010
-404,511	-109,827	-0,088	0,013
-403,496	33,128	0,071	-0,045
-402,482	-108,697	-0,060	0,009
-401,467	-200,000	0,002	0,118
-400,452	-200,000	0,014	0,099
-399,438	673,925	0,043	-0,081
-398,423	-34,347	-0,126	-0,050
-397,409	82,145	0,145	0,115
-396,394	-165,253	-0,058	0,002
-395,379	800,000	0,033	-0,067
-394,365	-121,876	0,108	-0,013
-393,350	-200,000	0,001	-0,041
-392,336	800,000	-0,018	-0,044
-391,321	-200,000	-0,017	-0,113
-390,306	297,732	0,033	-0,044
-389,292	-200,000	-0,014	-0,057
-388,277	800,000	0,064	-0,147
-387,263	800,000	0,041	0,116
-386,248	355,017	0,082	0,120
-385,233	-200,000	-0,033	0,109
-384,219	98,006	-0,071	0,060
-383,204	-102,830	-0,068	0,012
-382,190	-26,733	0,116	-0,049
-381,175	-200,000	0,026	-0,094
-380,160	800,000	0,070	0,206
-379,146	800,000	-0,047	0,101
-378,131	152,276	0,022	0,022
-377,117	393,560	-0,027	0,042
-376,102	-5,768	-0,069	-0,035
-375,088	1,366	-0,088	-0,046
-374,073	-200,000	0,024	-0,141
-373,058	347,122	0,020	0,028
-372,044	65,294	0,038	0,028
-371,029	800,000	0,007	0,015
-370,015	-137,812	0,064	0,005
-369,000	-32,436	-0,072	0,029
-367,985	113,093	0,045	-0,040
-366,971	40,788	0,074	-0,048
-365,956	-23,267	0,127	-0,056
-364,942	177,161	0,087	0,093
-363,927	-179,393	-0,096	-0,002
-362,912	-200,000	0,011	0,117
-361,898	800,000	0,026	0,061
-360,883	175,804	0,085	0,091
-359,869	107,884	0,053	-0,046
-358,854	247,567	0,062	0,077
-357,839	225,209	0,062	-0,074
-356,825	-23,798	-0,043	0,019
-355,810	2,903	-0,069	-0,037
-354,796	10,492	0,136	0,075
-353,781	28,744	0,104	-0,064
-352,766	92,568	-0,066	-0,054
-351,752	34,231	0,040	0,026
-350,737	800,000	0,034	0,105
-349,723	135,165	0,035	-0,033
-348,708	-52,766	0,081	0,027
-347,693	-22,073	-0,169	0,075
-346,679	486,436	-0,045	0,075
-345,664	-16,985	-0,079	0,036
-344,650	290,407	0,105	0,139
-343,635	27,149	0,042	0,026
-342,620	-200,000	0,159	0,000
-341,606	-92,416	0,068	0,014
-340,591	-200,000	-0,021	0,120
-339,577	-144,264	-0,060	-0,004
-338,562	-200,000	0,012	-0,052
-337,548	114,749	-0,081	-0,072
-336,533	-110,933	0,041	0,006
-335,518	-174,425	-0,026	0,001
-334,504	-144,792	-0,106	-0,007
-333,489	-200,000	-0,010	0,073
-332,475	-150,173	0,149	0,008
-331,460	800,000	-0,039	-0,090
-330,445	231,290	-0,097	-0,117
-329,431	800,000	0,024	0,062
-328,416	-137,913	-0,046	0,004
-327,402	116,311	0,078	0,070
-326,387	88,029	-0,074	0,060
-325,372	600,724	-0,059	-0,108
-324,358	74,550	-0,048	-0,037
-323,343	800,000	0,059	0,122
-322,329	-200,000	0,013	-0,116
-321,314	-200,000	0,048	-0,158
-320,299	-139,700	0,039	0,003
-319,285	-127,961	0,043	-0,004
-318,270	800,000	0,052	-0,166
-317,256	-200,000	0,011	-0,154
-316,241	-27,861	0,185	-0,078
-315,226	97,515	-0,086	-0,072
-314,212	800,000	0,061	0,125
-313,197	-200,000	-0,030	0,139
-312,183	443,382	-0,047	-0,076
-311,168	72,636	0,050	0,038
-310,153	-200,000	0,014	-0,094
-309,139	417,381	-0,024	-0,038
-308,124	-93,518	0,094	-0,019
-307,110	427,006	0,083	0,131
-306,095	800,000	0,050	0,130
-305,080	55,689	-0,013	-0,009
-304,066	-79,998	-0,137	-0,033
-303,051	-3,242	0,039	-0,020
-302,037	-140,458	-0,027	0,002
-301,022	-101,753	0,106	-0,018
-300,008	15,853	0,091	0,052
-298,993	-200,000	-0,001	0,021
-297,978	20,704	0,068	0,040
-296,964	-139,968	-0,053	-0,004
-295,949	628,500	-0,048	-0,088
-294,935	-127,620	-0,168	-0,017
-293,920	164,446	0,116	-0,119
-292,905	-174,678	0,101	0,002
-291,891	-54,702	-0,093	-0,030
-290,876	-9,992	0,080	-0,039
-289,862	-200,000	-0,012	0,044
-288,847	-149,967	-0,212	0,012
-287,832	-200,000	-0,011	0,157
-286,818	-200,000	-0,031	-0,113
-285,803	160,592	-0,047	0,048
-284,789	-200,000	0,012	0,113
-283,774	-108,563	0,075	-0,012
-282,759	-200,000	0,007	0,128
-281,745	800,000	-0,034	0,073
-280,730	-24,222	-0,069	-0,030
-279,716	107,838	-0,117	0,102
-278,701	564,009	0,033	0,059
-277,686	-200,000	0,004	-0,052
-276,672	558,648	-0,033	-0,058
-275,657	-200,000	0,016	-0,104
-274,643	-200,000	-0,026	0,150
-273,628	711,843	-0,026	0,051
-272,613	486,660	0,040	0,066
-271,599	652,522	0,050	-0,093
-270,584	89,545	0,087	0,071
-269,570	-150,209	0,084	0,005
-268,555	65,616	0,036	0,027
-267,540	53,391	-0,053	-0,037
-266,526	-10,682	-0,076	0,036
-265,511	346,803	-0,056	0,081
-264,497	22,918	0,140	0,084
-263,482	-169,146	-0,102	-0,003
-262,467	-47,786	0,071	-0,025
-261,453	253,772	-0,100	-0,125
-260,438	-83,110	-0,131	-0,030
-259,424	-200,000	-0,009	-0,134
-258,409	-2,112	-0,112	-0,057
-257,395	358,538	0,033	0,048
-256,380	-65,027	0,130	-0,038
-255,365	27,060	-0,092	0,056
-254,351	39,208	0,078	0,050
-253,336	59,124	-0,149	-0,106
-252,322	-95,831	-0,008	0,002
-251,307	580,079	-0,014	-0,026
-250,292	800,000	0,040	0,084
-249,278	715,168	0,063	0,122
-248,263	-200,000	0,006	0,083
-247,249	-104,445	-0,178	-0,030
-246,234	599,596	-0,022	-0,041
-245,219	-48,131	-0,115	0,040
-244,205	-200,000	0,014	-0,056
-243,190	800,000	-0,020	-0,064
-242,176	800,000	0,010	0,030
-241,161	60,499	0,098	0,070
-240,146	40,807	0,045	-0,029
-239,132	126,438	0,059	0,054
-238,117	-200,000	-0,013	-0,053
-237,103	-86,144	-0,075	0,017
-236,088	-131,918	0,083	0,008
-235,073	686,701	-0,080	-0,153
-234,059	138,905	0,060	0,057
-233,044	-200,000	-0,003	-0,030
-232,030	-39,502	0,132	0,050
-231,015	-200,000	-0,019	0,119
-230,000	39,808	-0,057	-0,037
-228,986	475,285	-0,036	-0,060
-227,971	-200,000	-0,003	0,052
-226,957	-200,000	-0,012	0,112
-225,942	800,000	-0,018	0,057
-224,927	95,815	0,015	-0,013
-223,913	267,034	-0,107	0,137
-222,898	800,000	0,027	-0,055
-221,884	-54,752	0,043	-0,014
-220,869	96,873	0,046	0,038
-219,855	240,438	-0,053	0,064
-218,840	-82,294	0,072	-0,017
-217,825	501,993	-0,044	0,075
-216,811	459,023	0,067	-0,108
-215,796	47,221	-0,077	-0,052
-214,782	-69,943	-0,052	-0,014
-213,767	435,542	0,023	-0,037
-212,752	-200,000	-0,037	0,151
-211,738	-15,679	0,037	0,017
-210,723	83,025	0,068	-0,054
-209,709	-200,000	-0,007	-0,132
-208,694	-200,000	0,018	0,113
-207,679	-47,616	-0,031	0,011
-206,665	-200,000	0,008	0,042
-205,650	71,932	0,101	0,076
-204,636	261,443	-0,060	0,076
-203,621	800,000	-0,006	0,016
-202,606	-200,000	0,011	-0,130
-201,592	44,332	0,061	0,041
-200,577	-13,551	0,097	-0,046
-199,563	-66,287	-0,105	0,030
-198,548	-18,020	0,109	0,049
-197,533	800,000	0,048	0,098
-196,519	111,962	0,083	0,073
-195,504	63,023	0,085	0,061
-194,490	800,000	-0,055	-0,140
-193,475	257,690	0,037	0,047
-192,460	-6,633	-0,118	-0,058
-191,446	376,434	0,069	0,102
-190,431	151,050	0,161	0,159
-189,417	-35,232	-0,094	-0,037
-188,402	-115,004	0,077	0,010
-187,387	128,133	0,063	-0,058
-186,373	-200,000	-0,029	-0,124
-185,358	-144,264	-0,207	0,014
-184,344	-200,000	-0,007	0,169
-183,329	-40,073	0,137	0,051
-182,315	330,002	0,037	-0,052
-181,300	-200,000	-0,011	0,040
-180,285	-87,459	-0,038	0,008
-179,271	-183,762	0,143	0,002
-178,256	170,690	-0,129	0,135
-177,242	129,848	0,150	0,140
-176,227	-90,300	-0,083	0,017
-175,212	188,079	-0,076	-0,082
-174,198	247,337	0,124	0,153
-173,183	129,282	0,037	-0,034
-172,169	-200,000	-0,021	-0,093
-171,154	-200,000	0,016	-0,086
-170,139	-66,218	0,026	-0,008
-169,125	-200,000	0,023	0,077
-168,110	800,000	0,022	-0,056
-167,096	34,492	0,046	-0,029
-166,081	28,459	0,019	0,011
-165,066	-200,000	-0,003	-0,066
-164,052	800,000	-0,015	-0,046
-163,037	66,510	0,129	-0,095
-162,023	800,000	-0,061	0,128
-161,008	174,021	0,068	0,071
-159,993	-180,132	0,080	-0,001
-158,979	-8,478	-0,075	-0,037
-157,964	-200,000	0,013	-0,068
-156,950	341,384	0,134	-0,191
-155,935	-141,560	0,068	-0,005
-154,920	800,000	-0,026	-0,068
-153,906	261,587	0,080	0,100
-152,891	342,504	0,066	0,094
-151,877	56,728	0,048	-0,034
-150,862	-35,371	-0,021	-0,008
-149,847	-9,826	-0,079	0,038
-148,833	314,813	-0,042	0,058
-147,818	284,286	0,094	0,123
-146,804	-200,000	0,013	0,071
-145,789	-200,000	-0,011	-0,065
-144,775	-200,000	-0,001	-0,099
-143,760	-37,008	0,085	-0,033
-142,745	696,707	-0,021	-0,040
-141,731	-200,000	0,003	-0,057
-140,716	-200,000	0,015	-0,079
-139,702	-200,000	-0,019	0,107
-138,687	238,626	-0,055	0,066
-137,672	-200,000	-0,010	0,094
-136,658	-131,505	0,106	-0,010
-135,643	-153,395	0,109	-0,005
-134,629	-200,000	0,005	0,048
-133,614	800,000	-0,032	0,077
-132,599	800,000	-0,044	0,113
-131,585	352,442	-0,058	0,084
-130,570	-200,000	-0,014	0,194
-129,556	-200,000	0,003	0,050
-128,541	800,000	0,031	-0,075
-127,526	290,757	0,040	-0,053
-126,512	-47,482	0,154	-0,054
-125,497	800,000	-0,003	0,006
-124,483	-200,000	-0,022	0,127
-123,468	222,641	-0,037	0,043
-122,453	17,116	-0,107	-0,061
-121,439	201,167	0,071	-0,079
-120,424	326,868	-0,076	-0,105
-119,410	474,154	-0,009	0,015
-118,395	-200,000	0,010	0,033
-117,380	-200,000	0,017	-0,122
-116,366	-44,413	0,134	0,048
-115,351	82,731	-0,032	0,025
-114,337	24,058	-0,147	-0,088
-113,322	13,742	0,097	-0,055
-112,307	475,712	0,065	0,107
-111,293	-51,798	-0,074	0,025
-110,278	800,000	-0,041	0,114
-109,264	-41,749	0,075	0,028
-108,249	-73,746	0,075	0,020
-107,234	-176,008	-0,161	0,003
-106,220	800,000	0,030	0,069
-105,205	-145,123	0,158	0,010
-104,191	800,000	0,034	-0,094
-103,176	-20,617	0,079	-0,035
-102,162	-200,000	-0,014	0,092
-101,147	148,740	-0,102	0,100
-100,132	83,252	0,037	-0,029
-99,118	-102,663	-0,099	0,017
-98,103	61,049	0,060	-0,043
-97,089	-200,000	0,052	0,209
-96,074	-11,559	0,083	0,039
-95,059	-39,296	-0,049	0,019
-94,045	-200,000	-0,003	-0,026
-93,030	-8,881	0,045	0,022
-92,016	800,000	0,038	-0,092
-91,001	-200,000	0,032	-0,144
-89,986	200,296	0,077	0,086
-88,972	-200,000	-0,015	0,155
-87,957	182,458	0,054	0,058
-86,943	-200,000	0,033	0,120
-85,928	-200,000	0,009	0,047
-84,913	188,279	0,086	-0,094
-83,899	87,543	-0,057	0,046
-82,884	-65,634	0,068	0,020
-81,870	-4,100	-0,077	0,038
-80,855	-200,000	-0,029	-0,202
-79,840	800,000	-0,033	-0,082
-78,826	-127,280	0,019	0,002
-77,811	177,280	-0,032	0,034
-76,797	-18,021	0,049	-0,022
-75,782	800,000	-0,023	-0,069
-74,767	-69,608	0,077	0,021
-73,753	-67,066	-0,116	0,033
-72,738	-172,625	-0,068	0,002
-71,724	-5,345	-0,168	-0,083
-70,709	-200,000	-0,002	-0,057
-69,694	-200,000	0,001	-0,158
-68,680	-118,011	-0,085	-0,011
-67,665	800,000	0,042	0,101
-66,651	187,115	-0,084	0,090
-65,636	800,000	0,030	-0,065
-64,622	-200,000	-0,007	-0,203
-63,607	-30,506	-0,126	-0,051
-62,592	-200,000	0,014	-0,045
-61,578	247,750	-0,046	-0,057
-60,563	155,199	0,106	0,106
-59,549	-200,000	-0,020	0,136
-58,534	1,282	-1,774	-0,918
-57,519	800,000	-0,358	-1,041
-56,505	-200,000	-1,176	-4,948
-55,490	-16,698	0,703	0,320
-54,476	800,000	5,254	12,317
-53,461	-200,000	16,656	273,160
-52,446	800,000	713,671	2208,389
-51,432	556,504	1624,294	2838,301
-50,417	114,813	1621,319	1428,064
-49,403	79,782	1282,274	993,979
-48,388	34,258	1027,883	646,185
-47,373	20,732	989,878	577,454
-46,359	19,352	978,434	566,201
-45,344	17,281	974,078	556,839
-44,330	17,387	972,757	556,411
-43,315	17,026	971,093	554,251
-42,300	16,958	970,116	553,449
-41,286	17,025	969,003	553,010
-40,271	16,955	968,032	552,205
-39,257	16,988	967,131	551,777
-38,242	16,971	966,469	551,321
-37,227	16,937	965,617	550,705
-36,213	16,936	964,862	550,248
-35,198	16,981	963,920	549,834
-34,184	17,055	963,027	549,544
-33,169	16,958	962,042	548,644
-32,154	16,970	961,228	548,199
-31,140	17,002	960,224	547,709
-30,125	16,966	959,591	547,208
-29,111	17,007	958,742	546,835
-28,096	17,008	958,183	546,498
-27,082	16,977	957,326	545,886
-26,067	16,946	956,518	545,305
-25,052	16,931	955,749	544,797
-24,038	16,894	955,247	544,370
-23,023	16,964	954,409	544,097
-22,009	16,974	953,737	543,723
-20,994	17,003	953,067	543,413
-19,979	16,983	952,606	543,064
-18,965	16,930	951,870	542,451
-17,950	16,966	951,376	542,266
-16,936	16,953	950,611	541,767
-15,921	16,956	949,789	541,286
-14,906	16,865	949,055	540,554
-13,892	16,816	948,634	540,136
-12,877	16,813	947,929	539,703
-11,863	16,763	947,471	539,262
-10,848	16,765	947,037	539,001
-9,833	16,946	946,373	539,178
-8,819	16,887	945,766	538,623
-7,804	16,778	945,084	537,866
-6,790	16,817	944,371	537,561
-5,775	16,895	943,687	537,400
-4,760	16,896	943,167	537,087
-3,746	16,858	942,443	536,533
-2,731	16,695	941,838	535,646
-1,717	16,682	941,263	535,256
-0,702	16,713	940,449	534,872
0,313	16,498	939,890	534,677
1,327	19,857	937,901	544,143
2,342	29,264	793,935	485,645
3,356	25,597	447,453	268,190
4,371	-5,466	295,324	145,796
5,386	-9,674	276,865	132,660
6,400	-11,065	270,955	128,517
7,415	-11,157	268,923	127,457
8,429	-10,922	267,449	126,964
9,444	-10,888	266,667	126,612
10,459	-10,627	266,046	126,546
11,473	-10,649	265,629	126,316
12,488	-10,559	264,994	126,085
13,502	-10,816	264,487	125,599
14,517	-10,472	264,117	125,725
15,531	-10,206	263,747	125,779
16,546	-10,192	263,645	125,731
17,561	-10,130	263,266	125,596
18,575	-9,885	262,838	125,602
19,590	-10,006	262,583	125,360
20,604	-9,926	262,118	125,199
21,619	-10,129	261,902	124,902
22,634	-9,979	261,506	124,836
23,648	-10,260	261,374	124,510
24,663	-10,192	261,068	124,414
25,677	-9,893	260,697	124,494
26,692	-10,017	260,355	124,208
27,707	-10,077	260,291	124,114
28,721	-10,138	259,973	123,896
29,736	-10,080	259,686	123,801
30,750	-10,317	259,415	123,449
31,765	-10,185	259,314	123,507
32,780	-10,243	258,940	123,266
33,794	-10,198	258,892	123,272
34,809	-10,140	258,584	123,166
35,823	-10,145	258,353	123,041
36,838	-10,148	258,153	122,932
37,853	-10,093	257,804	122,803
38,867	-10,108	257,633	122,698
39,882	-10,216	257,325	122,445
40,896	-10,195	257,195	122,391
41,911	-10,280	257,033	122,228
42,926	-10,138	256,603	122,137
43,940	-10,194	256,390	121,975
44,955	-10,085	256,146	121,945
45,969	-10,193	255,984	121,762
46,984	-10,246	255,953	121,690
47,999	-10,261	255,512	121,456
49,013	-10,272	255,355	121,360
50,028	-10,283	255,139	121,238
51,042	-10,362	254,939	121,063
52,057	-10,667	254,876	120,755
53,071	-10,376	254,498	120,820
54,086	-10,526	254,327	120,596
55,101	-10,307	254,184	120,709
56,115	-10,228	253,772	120,572
57,130	-10,167	253,756	120,606
58,144	-10,168	253,377	120,414
59,159	-10,282	253,239	120,239
60,174	-10,142	252,956	120,215
61,188	-10,268	252,900	120,069
62,203	-10,218	252,545	119,933
63,217	-10,199	252,356	119,849
64,232	-10,140	252,185	119,808
65,247	-10,310	251,894	119,512
66,261	-10,230	251,687	119,472
67,276	-10,196	251,470	119,388
68,290	-10,412	251,389	119,153
69,305	-10,467	250,958	118,890
70,320	-10,272	250,925	119,032
71,334	-10,210	250,616	118,928
72,349	-10,191	250,574	118,914
73,363	-10,148	250,193	118,759
74,378	-10,207	249,982	118,598
75,393	-10,188	249,794	118,514
76,407	-10,251	249,769	118,438
77,422	-10,082	249,528	118,458
78,436	-10,176	249,310	118,264
79,451	-10,226	248,982	118,055
80,466	-10,233	248,760	117,933
81,480	-10,264	248,676	117,856
82,495	-10,062	248,337	117,857
83,509	-10,043	248,175	117,786
84,524	-10,101	247,955	117,621
85,539	-10,164	247,828	117,497
86,553	-10,339	247,756	117,304
87,568	-10,113	247,425	117,328
88,582	-10,231	247,286	117,152
89,597	-10,280	247,107	117,015
90,611	-10,323	246,977	116,908
91,626	-10,112	246,635	116,913
92,641	-10,074	246,625	116,930
93,655	-10,251	246,454	116,689
94,670	-10,337	246,135	116,456
95,684	-10,491	246,073	116,286
96,699	-10,420	245,852	116,231
97,714	-10,364	245,629	116,162
98,728	-10,344	245,351	116,037
99,743	-10,493	245,253	115,855
100,757	-10,275	244,983	115,900
101,772	-10,321	244,748	115,740
102,787	-10,437	244,619	115,571
103,801	-10,372	244,434	115,528
104,816	-10,163	244,253	115,607
105,830	-10,173	244,136	115,533
106,845	-10,098	243,889	115,468
107,860	-10,251	243,736	115,258
108,874	-10,250	243,479	115,127
109,889	-10,445	243,210	114,827
110,903	-10,438	242,966	114,708
111,918	-10,442	242,921	114,673
112,933	-10,298	242,852	114,750
113,947	-10,311	242,602	114,611
114,962	-10,367	242,413	114,465
115,976	-10,337	242,419	114,483
116,991	-10,383	242,129	114,297
118,006	-10,199	241,867	114,315
119,020	-10,184	241,593	114,188
120,035	-10,327	241,706	114,114
121,049	-10,360	241,405	113,934
122,064	-10,289	241,258	113,912
123,079	-10,323	241,092	113,796
124,093	-10,579	241,008	113,536
125,108	-10,333	240,687	113,576
126,122	-10,366	240,621	113,508
127,137	-10,122	240,298	113,546
128,151	-10,191	240,189	113,427
129,166	-10,367	239,860	113,118
130,181	-10,239	239,716	113,144
131,195	-10,381	239,755	113,037
132,210	-10,372	239,311	112,825
133,224	-10,388	239,177	112,739
134,239	-10,440	238,929	112,569
135,254	-10,398	238,714	112,492
136,268	-10,430	238,521	112,365
137,283	-10,465	238,503	112,319
138,297	-10,463	238,205	112,169
139,312	-10,502	237,996	112,029
140,327	-10,278	237,929	112,169
141,341	-10,082	237,795	112,254
142,356	-10,190	237,668	112,098
143,370	-10,177	237,566	112,050
144,385	-10,041	237,232	111,992
145,400	-10,229	237,173	111,803
146,414	-10,033	236,978	111,858
147,429	-10,262	236,956	111,653
148,443	-10,317	236,604	111,434
149,458	-10,290	236,530	111,410
150,473	-10,055	236,233	111,449
151,487	-10,369	236,082	111,117
152,502	-10,259	235,977	111,146
153,516	-10,177	235,743	111,091
154,531	-10,106	235,447	110,998
155,546	-10,205	235,314	110,847
156,560	-10,307	235,196	110,700
157,575	-10,209	234,992	110,672
158,589	-10,344	234,808	110,468
159,604	-10,174	234,548	110,471
160,619	-10,009	234,450	110,546
161,633	-10,024	234,413	110,507
162,648	-10,091	234,170	110,330
163,662	-9,980	234,071	110,362
164,677	-10,247	233,870	110,045
165,692	-10,258	233,844	110,014
166,706	-10,067	233,619	110,050
167,721	-10,269	233,560	109,852
168,735	-10,188	233,422	109,841
169,750	-10,186	233,288	109,770
170,764	-10,368	232,964	109,464
171,779	-10,230	232,816	109,494
172,794	-10,383	232,835	109,372
173,808	-10,344	232,483	109,228
174,823	-10,333	232,291	109,136
175,837	-10,589	232,137	108,853
176,852	-10,478	232,021	108,876
177,867	-10,325	231,898	108,928
178,881	-10,271	231,683	108,861
179,896	-10,258	231,572	108,809
180,910	-9,965	231,262	108,883
181,925	-10,397	231,351	108,576
182,940	-10,193	231,033	108,577
183,954	-10,053	230,829	108,581
184,969	-10,163	230,855	108,498
185,983	-10,165	230,744	108,435
186,998	-10,050	230,623	108,458
188,013	-10,036	230,214	108,267
189,027	-10,138	230,177	108,160
190,042	-10,107	230,028	108,104
191,056	-10,221	229,881	107,937
192,071	-10,185	229,635	107,840
193,086	-10,433	229,412	107,533
194,100	-10,851	229,062	107,035
195,115	-11,988	228,284	105,781
196,129	-11,690	228,566	106,134
197,144	-6,915	229,995	110,507
198,159	-1,804	231,468	115,203
199,173	0,962	232,191	117,718
200,188	1,756	232,318	118,393
201,202	2,339	232,457	118,909
202,217	2,703	232,576	119,244
203,232	3,229	232,325	119,516
204,246	2,971	232,145	119,211
205,261	3,268	231,982	119,348
206,275	3,322	231,835	119,305
207,290	3,308	231,594	119,159
208,304	3,173	231,591	119,042
209,319	3,275	231,413	119,018
210,334	3,038	231,248	118,740
211,348	2,662	230,938	118,277
212,363	2,305	230,498	117,766
213,377	1,987	230,229	117,371
214,392	1,797	230,257	117,228
215,407	1,883	229,970	117,138
216,421	1,833	229,771	116,988
217,436	1,812	229,493	116,819
218,450	1,509	229,582	116,620
219,465	1,500	229,460	116,541
220,480	1,533	229,184	116,416
221,494	1,894	229,030	116,605
222,509	1,705	228,907	116,387
223,523	1,853	228,896	116,484
224,538	1,861	228,784	116,423
225,553	2,129	228,321	116,383
226,567	2,037	228,293	116,287
227,582	1,865	228,130	116,063
228,596	1,951	228,072	116,089
229,611	1,615	227,956	115,761
230,626	1,788	227,869	115,840
231,640	1,728	227,678	115,686
232,655	1,889	227,345	115,629
233,669	1,767	227,223	115,465
234,684	1,926	227,141	115,533
235,699	1,966	226,982	115,473
236,713	1,926	226,833	115,356
237,728	2,154	226,693	115,448
238,742	2,021	226,551	115,264
239,757	1,960	226,416	115,139
240,772	1,922	226,452	115,118
241,786	2,307	226,224	115,284
242,801	2,144	226,273	115,175
243,815	2,089	226,050	115,010
244,830	2,262	225,921	115,065
245,844	2,211	225,653	114,879
246,859	1,998	225,524	114,643
247,874	2,136	225,334	114,640
248,888	2,232	225,149	114,608
249,903	2,281	224,993	114,555
250,917	2,076	224,949	114,368
251,932	2,098	224,827	114,313
252,947	1,997	224,749	114,187
253,961	2,167	224,396	114,124
254,976	2,186	224,231	114,046
255,990	2,119	224,321	114,030
257,005	2,152	223,990	113,877
258,020	2,239	223,859	113,865
259,034	2,443	223,831	113,994
260,049	2,236	223,682	113,753
261,063	2,196	223,446	113,593
262,078	2,311	223,310	113,599
263,093	2,313	223,125	113,497
264,107	2,286	222,980	113,393
265,122	2,349	222,838	113,357
266,136	2,510	222,582	113,337
267,151	2,042	222,531	112,952
268,166	2,086	222,367	112,891
269,180	1,769	222,236	112,579
270,195	1,900	222,057	112,576
271,209	2,093	221,984	112,672
272,224	1,851	221,847	112,413
273,239	1,931	221,707	112,391
274,253	2,100	221,517	112,411
275,268	1,799	221,277	112,056
276,282	1,806	221,215	112,020
277,297	1,897	220,987	111,962
278,312	1,842	220,933	111,884
279,326	1,789	220,890	111,813
280,341	2,042	220,814	111,951
281,355	2,074	220,581	111,846
282,370	2,145	220,418	111,806
283,384	1,842	220,183	111,454
284,399	1,968	219,987	111,437
285,414	2,068	219,904	111,459
286,428	2,114	219,861	111,461
287,443	2,200	219,711	111,438
288,457	2,124	219,548	111,290
289,472	2,051	219,451	111,177
290,487	1,956	219,211	110,976
291,501	1,877	219,045	110,824
292,516	2,024	219,015	110,907
293,530	2,199	218,957	110,996
294,545	2,032	218,806	110,787
295,560	2,115	218,724	110,797
296,574	2,283	218,573	110,832
297,589	2,285	218,377	110,724
298,603	2,367	218,334	110,752
299,618	2,238	218,096	110,528
300,633	2,533	217,882	110,624
301,647	2,563	217,941	110,666
302,662	2,116	217,733	110,226
303,676	2,425	217,493	110,318
304,691	2,251	217,456	110,164
305,706	2,114	217,246	109,948
306,720	2,138	217,110	109,888
307,735	2,427	216,955	110,008
308,749	2,183	216,767	109,727
309,764	2,151	216,620	109,619
310,779	2,184	216,573	109,610
311,793	2,339	216,346	109,596
312,808	2,287	216,142	109,446
313,822	2,174	216,135	109,351
314,837	2,337	215,886	109,333
315,852	2,028	215,778	109,046
316,866	2,447	215,620	109,257
317,881	2,305	215,590	109,131
318,895	1,902	215,385	108,728
319,910	2,002	215,264	108,729
320,925	1,968	215,069	108,596
321,939	2,076	214,921	108,589
322,954	2,095	214,820	108,542
323,968	2,070	214,647	108,427
324,983	2,260	214,448	108,452
325,997	1,850	214,464	108,158
327,012	2,173	214,172	108,232
328,027	2,069	213,951	108,036
329,041	2,200	213,899	108,094
330,056	2,189	213,792	108,023
331,070	2,010	213,690	107,834
332,085	2,067	213,620	107,829
333,100	2,217	213,498	107,865
334,114	2,178	213,145	107,649
335,129	2,325	213,053	107,697
336,143	2,097	212,886	107,442
337,158	2,208	212,933	107,535
338,173	2,273	212,764	107,485
339,187	2,078	212,665	107,288
340,202	1,969	212,448	107,092
341,216	2,033	212,411	107,109
342,231	2,077	212,286	107,068
343,246	2,186	212,180	107,082
344,260	2,180	212,007	106,980
345,275	2,418	211,813	107,040
346,289	2,252	211,645	106,829
347,304	2,190	211,540	106,723
348,319	2,403	211,385	106,785
349,333	2,180	211,205	106,528
350,348	2,305	211,044	106,525
351,362	2,430	210,985	106,573
352,377	2,175	210,842	106,313
353,392	2,256	210,633	106,254
354,406	2,152	210,695	106,204
355,421	193,960	1342,450	1424,649
356,435	154,838	1480,351	1424,655
