DTS Sentinel unit serial number:	SN410029Multiplexer serial number:	ORYXHardware model number:	OX2-SRSoftware version number:	ORYX F/W v4,00 Oryx Data Collector v3.7.2.0data status	okinstallation	B6 Nyhavnadifferential loss correction	single-endedforward channel	channel 2reverse channel	N/Adate	2023/12/10time	03:50:08forward acquisition time	300,00reverse acquisition time	0,00gamma	499,1914k internal	0,3125k external	0,3125temperature offset calibration	1,0000default loss term (dB/km)	0,3820temperature slope calibration	1,0000multiplexer offset coefficient	1,0000multiplexer slope coefficient	1,0000fibre end	0,00T internal ref (°C)	22,06T ext. ref 1 (°C)	6,02T ext. ref 2 (°C)	5,99length (m)	temperature (°C)	Stokes	anti-Stokes-744,400	393,712	0,022	-0,034
-743,385	-67,919	-0,178	0,051
-742,371	-200,000	-0,001	0,016
-741,356	63,694	-0,161	0,120
-740,342	-41,141	0,073	0,028
-739,327	-93,698	-0,298	0,061
-738,312	-87,748	-0,105	0,023
-737,298	-111,783	-0,356	-0,053
-736,283	14,005	0,112	0,065
-735,269	140,784	-0,131	0,129
-734,254	80,186	-0,031	-0,025
-733,239	-38,927	-0,391	-0,153
-732,225	-77,930	0,186	0,047
-731,210	202,426	0,072	0,083
-730,196	-200,000	-0,026	-0,106
-729,181	749,681	0,019	0,039
-728,167	-152,594	-0,028	-0,001
-727,152	-75,294	-0,163	0,043
-726,137	-94,279	-0,081	-0,016
-725,123	245,918	-0,068	0,086
-724,108	740,945	0,031	-0,062
-723,094	-97,597	-0,105	0,020
-722,079	270,283	-0,090	0,119
-721,064	89,111	0,078	-0,064
-720,050	-120,144	-0,195	0,025
-719,035	800,000	-0,050	0,113
-718,021	-45,115	-0,089	-0,033
-717,006	45,804	-0,204	-0,140
-715,991	800,000	0,037	-0,112
-714,977	15,492	-0,092	-0,054
-713,962	384,145	-0,091	-0,140
-712,948	192,792	-0,032	-0,036
-711,933	403,644	-0,026	0,041
-710,918	-200,000	0,001	0,037
-709,904	30,014	0,078	0,050
-708,889	-21,191	-0,069	-0,031
-707,875	129,971	-0,086	-0,082
-706,860	-87,360	0,078	-0,017
-705,845	-123,685	-0,135	0,016
-704,831	-33,395	0,100	-0,041
-703,816	747,632	-0,048	-0,098
-702,802	-115,047	0,061	-0,009
-701,787	-200,000	-0,005	0,055
-700,772	-200,000	0,001	-0,095
-699,758	-73,365	-0,042	-0,011
-698,743	121,129	-0,061	0,056
-697,729	-45,427	-0,109	0,040
-696,714	-200,000	0,018	0,168
-695,699	-165,515	-0,128	0,004
-694,685	403,982	-0,026	0,040
-693,670	288,263	-0,060	0,080
-692,656	800,000	0,011	0,027
-691,641	-75,315	0,049	-0,013
-690,627	-81,102	0,049	-0,012
-689,612	800,000	0,024	-0,072
-688,597	14,168	-0,198	-0,114
-687,583	-200,000	-0,002	-0,136
-686,568	-200,000	-0,005	0,068
-685,554	176,212	0,058	-0,062
-684,539	100,912	0,026	-0,023
-683,524	-200,000	-0,016	-0,075
-682,510	-86,077	0,057	-0,013
-681,495	314,833	-0,044	-0,062
-680,481	800,000	0,020	-0,063
-679,466	140,413	0,022	0,022
-678,451	712,352	-0,020	-0,039
-677,437	-96,352	-0,083	0,016
-676,422	346,016	-0,060	0,089
-675,408	-200,000	0,007	-0,026
-674,393	591,925	0,018	0,032
-673,378	-200,000	-0,003	0,050
-672,364	285,635	0,043	-0,058
-671,349	-72,152	0,104	-0,028
-670,335	-81,467	0,097	0,024
-669,320	800,000	0,018	-0,054
-668,305	236,145	0,092	0,114
-667,291	-63,496	-0,055	-0,017
-666,276	64,751	-0,137	-0,102
-665,262	800,000	-0,060	-0,127
-664,247	56,479	0,014	-0,010
-663,232	76,181	0,093	-0,073
-662,218	-197,855	0,078	-0,000
-661,203	243,930	0,095	0,119
-660,189	59,739	0,036	0,027
-659,174	-26,426	-0,067	0,029
-658,159	-200,000	0,005	0,048
-657,145	-36,881	-0,149	0,059
-656,130	-200,000	0,003	0,037
-655,116	119,827	0,056	-0,051
-654,101	75,095	0,051	0,040
-653,086	-200,000	-0,003	0,044
-652,072	-66,977	-0,093	-0,027
-651,057	-7,099	-0,071	0,036
-650,043	159,539	0,046	0,048
-649,028	800,000	0,022	0,070
-648,014	65,131	-0,085	0,063
-646,999	323,033	0,038	0,055
-645,984	-66,801	-0,041	0,012
-644,970	-80,313	-0,125	-0,031
-643,955	537,227	0,034	-0,061
-642,941	-10,053	-0,030	-0,015
-641,926	56,910	0,123	0,089
-640,911	-200,000	0,040	0,153
-639,897	142,390	0,033	0,032
-638,882	800,000	0,050	-0,119
-637,868	350,577	-0,026	-0,038
-636,853	-200,000	-0,019	0,088
-635,838	-18,144	-0,091	0,042
-634,824	252,907	0,068	-0,086
-633,809	172,836	-0,119	-0,127
-632,795	-200,000	0,010	0,152
-631,780	232,371	0,062	-0,076
-630,765	-60,349	0,091	0,028
-629,751	75,144	-0,109	-0,085
-628,736	-176,233	-0,088	-0,002
-627,722	229,303	-0,046	0,056
-626,707	-200,000	0,026	-0,105
-625,692	-74,652	-0,224	-0,059
-624,678	-45,871	-0,066	0,024
-623,663	95,254	-0,089	-0,075
-622,649	-200,000	-0,002	-0,088
-621,634	-177,562	0,019	-0,000
-620,619	-129,485	0,096	0,010
-619,605	-200,000	0,003	-0,014
-618,590	144,328	0,033	-0,032
-617,576	496,155	0,071	0,122
-616,561	38,900	-0,047	0,031
-615,546	800,000	-0,023	0,058
-614,532	75,271	0,056	0,043
-613,517	-200,000	-0,029	-0,116
-612,503	-123,237	-0,102	-0,012
-611,488	224,801	0,036	0,044
-610,474	-64,756	-0,112	-0,033
-609,459	-200,000	-0,028	-0,118
-608,444	-140,696	-0,089	-0,007
-607,430	800,000	-0,012	-0,040
-606,415	-60,870	-0,085	-0,026
-605,401	299,275	-0,079	0,108
-604,386	-139,667	0,176	0,014
-603,371	87,214	0,081	-0,066
-602,357	-32,906	-0,086	-0,035
-601,342	-200,000	-0,193	-0,000
-600,328	800,000	0,038	-0,106
-599,313	800,000	-0,025	-0,073
-598,298	168,982	-0,038	0,040
-597,284	-200,000	-0,022	0,102
-596,269	-200,000	0,021	-0,098
-595,255	-21,252	0,138	-0,062
-594,240	67,474	-0,158	-0,120
-593,225	800,000	-0,072	-0,221
-592,211	-19,898	0,171	-0,078
-591,196	-20,165	-0,052	-0,023
-590,182	-17,207	0,029	-0,013
-589,167	-200,000	0,017	0,071
-588,152	-200,000	0,009	-0,049
-587,138	-200,000	-0,007	-0,093
-586,123	562,003	-0,038	-0,068
-585,109	-62,963	-0,055	0,017
-584,094	624,746	-0,020	-0,037
-583,079	-20,695	-0,051	0,023
-582,065	-26,010	0,114	-0,050
-581,050	101,547	0,047	0,040
-580,036	-200,000	0,024	0,132
-579,021	418,839	-0,017	-0,026
-578,006	-200,000	-0,007	-0,082
-576,992	-38,618	0,053	0,021
-575,977	-12,875	-0,089	-0,043
-574,963	75,028	0,153	0,119
-573,948	107,149	0,071	0,062
-572,934	-57,055	-0,048	0,016
-571,919	119,995	0,146	-0,134
-570,904	800,000	0,019	0,058
-569,890	97,264	0,167	-0,141
-568,875	800,000	0,016	-0,051
-567,861	-200,000	0,013	-0,086
-566,846	-200,000	-0,029	0,108
-565,831	-200,000	-0,008	-0,043
-564,817	-43,388	0,084	0,031
-563,802	800,000	-0,059	-0,149
-562,788	-200,000	-0,013	0,136
-561,773	33,028	-0,085	-0,054
-560,758	139,803	0,096	-0,094
-559,744	230,983	-0,050	0,060
-558,729	-86,874	-0,067	0,015
-557,715	-200,000	-0,024	-0,145
-556,700	800,000	-0,058	-0,128
-555,685	-78,449	-0,051	0,013
-554,671	-36,807	-0,025	-0,010
-553,656	800,000	0,043	0,122
-552,642	-81,523	0,061	0,015
-551,627	800,000	0,059	-0,133
-550,612	800,000	-0,048	0,150
-549,598	-10,311	-0,065	-0,032
-548,583	-200,000	0,002	-0,102
-547,569	203,022	-0,040	0,046
-546,554	126,805	-0,176	0,165
-545,539	-200,000	0,015	0,060
-544,525	260,332	-0,063	0,081
-543,510	-200,000	0,015	-0,218
-542,496	451,743	0,040	-0,065
-541,481	17,350	-0,054	0,032
-540,466	-44,618	0,103	0,038
-539,452	-155,465	-0,070	0,003
-538,437	-192,595	0,014	0,000
-537,423	-23,374	-0,062	-0,028
-536,408	-200,000	-0,004	0,021
-535,393	800,000	-0,044	0,128
-534,379	-200,000	-0,006	-0,039
-533,364	229,842	-0,015	0,018
-532,350	-62,258	0,022	0,007
-531,335	45,033	0,035	-0,024
-530,321	-69,206	0,056	-0,016
-529,306	308,734	-0,112	0,155
-528,291	630,533	-0,063	-0,118
-527,277	-129,348	-0,066	0,007
-526,262	-200,000	0,002	-0,066
-525,248	-128,054	-0,024	0,003
-524,233	-159,517	-0,057	-0,002
-523,218	149,156	0,065	-0,065
-522,204	800,000	-0,018	-0,039
-521,189	-200,000	-0,011	-0,234
-520,175	707,875	0,050	-0,099
-519,160	-200,000	0,020	-0,073
-518,145	-200,000	-0,001	-0,152
-517,131	-200,000	-0,021	0,073
-516,116	18,495	-0,034	0,020
-515,102	132,393	-0,117	0,111
-514,087	368,942	-0,066	0,099
-513,072	-200,000	0,011	0,071
-512,058	-29,016	-0,068	0,029
-511,043	-200,000	0,015	-0,058
-510,029	139,470	-0,072	-0,070
-509,014	800,000	-0,034	-0,095
-507,999	-200,000	0,012	-0,070
-506,985	-200,000	-0,010	0,073
-505,970	-200,000	-0,001	-0,040
-504,956	227,417	0,006	-0,007
-503,941	20,136	-0,053	-0,031
-502,926	-8,172	0,117	0,058
-501,912	-101,033	0,117	0,021
-500,897	800,000	-0,035	0,084
-499,883	91,105	0,029	0,024
-498,868	-200,000	-0,013	-0,156
-497,853	228,776	-0,058	0,069
-496,839	-200,000	0,003	-0,014
-495,824	800,000	0,002	0,005
-494,810	292,547	0,050	0,067
-493,795	685,758	0,036	0,070
-492,781	-200,000	-0,004	-0,123
-491,766	101,112	-0,104	-0,089
-490,751	-106,646	-0,077	-0,013
-489,737	-200,000	0,018	-0,099
-488,722	-35,640	0,054	-0,021
-487,708	-200,000	-0,044	0,153
-486,693	724,245	-0,053	0,104
-485,678	-200,000	-0,012	-0,067
-484,664	-42,287	0,065	0,024
-483,649	800,000	-0,025	0,073
-482,635	-200,000	0,011	0,073
-481,620	-200,000	-0,004	0,242
-480,605	800,000	0,030	0,083
-479,591	-200,000	-0,025	0,139
-478,576	243,381	0,053	-0,065
-477,562	-115,889	0,079	-0,011
-476,547	277,612	-0,057	-0,075
-475,532	561,697	0,062	0,111
-474,518	55,791	0,049	-0,035
-473,503	-200,000	0,000	0,012
-472,489	-132,320	-0,108	-0,010
-471,474	-130,568	0,084	-0,008
-470,459	-172,455	0,097	0,002
-469,445	573,997	-0,039	-0,071
-468,430	248,268	0,051	-0,064
-467,416	-200,000	-0,008	-0,053
-466,401	71,889	0,058	0,045
-465,386	-185,214	-0,115	0,001
-464,372	-200,000	0,009	0,178
-463,357	-200,000	-0,005	-0,058
-462,343	83,961	0,008	-0,006
-461,328	800,000	-0,020	-0,042
-460,313	641,285	-0,039	-0,074
-459,299	-46,799	-0,063	0,023
-458,284	36,931	0,119	0,077
-457,270	-200,000	-0,027	0,168
-456,255	91,036	-0,100	0,083
-455,241	800,000	0,031	0,093
-454,226	-200,000	-0,019	-0,111
-453,211	41,061	0,083	0,055
-452,197	-84,058	0,065	0,015
-451,182	151,932	0,056	0,056
-450,168	-143,654	0,142	0,010
-449,153	-13,707	0,079	-0,038
-448,138	187,417	-0,033	-0,037
-447,124	203,980	-0,030	-0,034
-446,109	263,405	-0,024	-0,031
-445,095	144,120	0,127	-0,125
-444,080	81,981	0,067	0,053
-443,065	800,000	0,047	0,150
-442,051	122,650	0,053	0,049
-441,036	800,000	0,016	-0,041
-440,022	800,000	-0,035	0,081
-439,007	82,280	-0,034	0,027
-437,992	-20,289	-0,017	0,008
-436,978	5,048	-0,022	-0,012
-435,963	-143,813	0,072	0,005
-434,949	510,169	0,066	0,114
-433,934	-151,671	-0,066	0,004
-432,919	-118,557	0,083	-0,011
-431,905	-200,000	0,009	-0,056
-430,890	-26,271	0,123	-0,053
-429,876	-200,000	-0,008	0,100
-428,861	800,000	0,063	-0,134
-427,846	-200,000	-0,092	0,000
-426,832	-44,818	0,036	-0,013
-425,817	-200,000	0,002	-0,023
-424,803	-11,930	0,075	-0,036
-423,788	119,170	0,062	0,057
-422,773	270,463	0,040	-0,052
-421,759	-53,283	0,108	0,036
-420,744	-200,000	-0,009	-0,094
-419,730	-39,559	-0,070	0,027
-418,715	-92,723	-0,061	0,012
-417,701	314,361	0,017	-0,023
-416,686	22,780	0,127	-0,076
-415,671	70,976	-0,086	-0,065
-414,657	-155,848	0,099	-0,005
-413,642	118,669	0,043	0,039
-412,628	-75,351	0,085	0,022
-411,613	433,451	0,028	0,045
-410,598	800,000	-0,023	0,048
-409,584	-200,000	-0,022	-0,099
-408,569	96,610	-0,038	-0,032
-407,555	-2,794	-0,082	0,042
-406,540	378,182	0,088	0,133
-405,525	-105,720	0,097	0,016
-404,511	80,161	-0,033	-0,026
-403,496	639,762	-0,022	0,041
-402,482	-200,000	-0,014	0,049
-401,467	313,805	0,090	0,125
-400,452	-95,522	0,013	-0,002
-399,438	-83,472	0,031	0,007
-398,423	-200,000	-0,012	-0,041
-397,409	800,000	0,021	0,058
-396,394	630,669	-0,047	0,088
-395,379	513,978	0,035	-0,060
-394,365	800,000	0,023	0,073
-393,350	-200,000	-0,015	0,100
-392,336	-200,000	-0,001	0,006
-391,321	-32,938	0,036	0,015
-390,306	-57,785	-0,146	0,047
-389,292	-200,000	0,019	-0,088
-388,277	379,214	0,048	-0,073
-387,263	-135,687	0,125	0,011
-386,248	-147,117	0,096	0,006
-385,233	340,119	0,019	-0,028
-384,219	114,657	0,025	-0,022
-383,204	-63,944	-0,068	-0,020
-382,190	-200,000	-0,012	0,055
-381,175	-200,000	0,016	-0,130
-380,160	-9,196	-0,048	-0,023
-379,146	147,813	-0,069	0,069
-378,131	608,392	-0,017	0,032
-377,117	-200,000	0,001	0,100
-376,102	-200,000	0,032	-0,126
-375,088	105,795	0,016	-0,014
-374,073	5,630	-0,079	0,043
-373,058	-200,000	0,029	0,108
-372,044	-200,000	-0,003	0,098
-371,029	800,000	0,040	0,125
-370,015	-200,000	0,019	0,074
-369,000	-200,000	0,006	-0,062
-367,985	-200,000	-0,020	-0,216
-366,971	-200,000	0,001	-0,111
-365,956	87,065	-0,014	-0,011
-364,942	-200,000	0,007	0,047
-363,927	53,643	0,008	0,005
-362,912	412,438	0,054	-0,084
-361,898	-200,000	0,032	-0,108
-360,883	558,152	-0,047	0,084
-359,869	181,333	-0,070	-0,076
-358,854	-96,155	0,104	0,020
-357,839	386,507	-0,061	0,093
-356,825	-200,000	-0,004	0,180
-355,810	412,386	0,012	0,018
-354,796	147,869	-0,065	-0,065
-353,781	17,425	0,073	0,043
-352,766	-131,032	-0,139	0,013
-351,752	233,002	-0,028	0,033
-350,737	92,561	0,081	-0,067
-349,723	-200,000	-0,004	-0,119
-348,708	168,039	-0,065	0,068
-347,693	-74,558	-0,097	0,025
-346,679	260,077	-0,109	0,138
-345,664	626,642	0,016	-0,029
-344,650	173,788	0,098	0,103
-343,635	161,592	-0,037	0,038
-342,620	6,474	-0,048	-0,026
-341,606	98,544	0,118	0,100
-340,591	-28,305	0,020	0,008
-339,577	-200,000	-0,097	0,000
-338,562	31,414	0,050	0,032
-337,548	-200,000	-0,001	0,037
-336,533	362,646	0,067	-0,099
-335,518	381,041	0,042	-0,063
-334,504	-137,535	-0,034	0,003
-333,489	200,973	-0,102	-0,115
-332,475	800,000	-0,051	-0,121
-331,460	-200,000	-0,034	-0,135
-330,445	-125,335	-0,047	0,005
-329,431	400,983	-0,093	0,144
-328,416	253,211	0,135	0,169
-327,402	-200,000	-0,019	0,085
-326,387	6,789	0,032	-0,018
-325,372	651,539	0,070	-0,131
-324,358	800,000	-0,029	-0,089
-323,343	-118,117	0,043	-0,006
-322,329	-200,000	0,000	-0,027
-321,314	-200,000	0,003	0,181
-320,299	-9,399	0,074	0,036
-319,285	-200,000	-0,004	0,036
-318,270	-106,821	0,099	0,016
-317,256	62,592	-0,057	-0,042
-316,241	-200,000	0,017	0,097
-315,226	800,000	0,050	-0,107
-314,212	-200,000	0,001	0,005
-313,197	-200,000	-0,003	0,029
-312,183	-200,000	0,001	0,103
-311,168	-200,000	0,015	0,136
-310,153	-10,213	-0,034	-0,016
-309,139	154,526	0,109	0,110
-308,124	800,000	-0,041	-0,112
-307,110	-141,302	-0,063	0,005
-306,095	86,018	-0,049	0,040
-305,080	17,903	-0,031	-0,018
-304,066	-25,335	-0,153	0,066
-303,051	-200,000	0,029	-0,119
-302,037	-163,043	-0,126	0,004
-301,022	800,000	-0,054	0,143
-300,008	281,920	0,053	0,070
-298,993	-103,593	0,143	0,024
-297,978	319,657	0,052	-0,072
-296,964	-92,148	-0,129	-0,026
-295,949	302,954	0,023	0,031
-294,935	-200,000	-0,009	-0,085
-293,920	309,419	-0,073	0,100
-292,905	2,809	0,120	0,063
-291,891	-200,000	-0,017	0,127
-290,876	-76,552	-0,073	-0,019
-289,862	399,412	0,059	0,091
-288,847	-74,604	-0,063	0,017
-287,832	570,608	-0,057	0,103
-286,818	-200,000	0,023	-0,128
-285,803	-26,315	0,036	-0,015
-284,789	77,523	-0,188	0,146
-283,774	-200,000	-0,023	0,100
-282,759	-96,760	0,066	-0,013
-281,745	-63,306	0,055	0,016
-280,730	-200,000	0,013	-0,044
-279,716	26,795	0,065	0,040
-278,701	-117,730	0,195	0,025
-277,686	-18,963	0,114	0,052
-276,672	-129,410	0,193	-0,019
-275,657	800,000	-0,011	-0,034
-274,643	-200,000	-0,021	-0,090
-273,628	800,000	-0,043	-0,112
-272,613	301,285	-0,009	0,012
-271,599	-116,825	0,057	-0,008
-270,584	109,376	0,016	0,014
-269,570	800,000	0,020	-0,054
-268,555	36,139	-0,065	-0,042
-267,540	800,000	-0,038	0,088
-266,526	-79,143	-0,170	0,042
-265,511	6,793	-0,050	0,027
-264,497	23,589	0,030	0,018
-263,482	-200,000	0,031	-0,167
-262,467	181,488	0,036	0,039
-261,453	261,914	-0,035	-0,045
-260,438	800,000	0,021	0,049
-259,424	175,160	-0,052	0,055
-258,409	800,000	-0,056	-0,160
-257,395	61,266	0,055	-0,040
-256,380	800,000	0,032	0,064
-255,365	374,309	0,097	0,144
-254,351	-200,000	-0,015	0,087
-253,336	213,855	-0,104	-0,120
-252,322	235,874	0,075	-0,091
-251,307	-200,000	-0,020	-0,141
-250,292	196,386	-0,031	0,035
-249,278	-200,000	0,009	0,118
-248,263	-200,000	-0,027	-0,158
-247,249	5,097	0,100	0,054
-246,234	-70,166	-0,211	-0,058
-245,219	-200,000	0,020	-0,200
-244,205	800,000	-0,040	-0,111
-243,190	647,530	-0,066	-0,123
-242,176	-148,125	0,006	-0,000
-241,161	-141,166	-0,048	0,004
-240,146	-60,545	-0,062	-0,019
-239,132	-152,770	-0,075	0,004
-238,117	-200,000	0,021	-0,211
-237,103	-112,064	0,105	-0,015
-236,088	-200,000	-0,016	-0,190
-235,073	-200,000	-0,008	-0,116
-234,059	723,424	0,022	-0,044
-233,044	-123,748	-0,065	-0,007
-232,030	-100,618	0,105	-0,019
-231,015	-61,023	-0,107	0,033
-230,000	64,362	0,029	-0,021
-228,986	-103,659	0,233	-0,039
-227,971	-177,482	0,118	-0,002
-226,957	761,644	-0,038	0,076
-225,942	-10,495	0,106	0,051
-224,927	-20,929	-0,082	-0,036
-223,913	177,462	0,078	0,083
-222,898	-200,000	-0,003	-0,108
-221,884	-107,143	0,048	-0,008
-220,869	232,972	-0,050	0,060
-219,855	-200,000	-0,006	-0,025
-218,840	47,626	0,011	0,007
-217,825	70,232	0,120	0,091
-216,811	-13,638	-0,077	-0,036
-215,796	233,875	0,032	-0,038
-214,782	55,657	0,097	-0,068
-213,767	-134,440	0,099	-0,009
-212,752	-200,000	-0,009	-0,076
-211,738	36,495	0,099	0,063
-210,723	800,000	-0,045	-0,120
-209,709	800,000	0,061	-0,150
-208,694	800,000	-0,021	0,047
-207,679	-124,634	-0,099	0,011
-206,665	462,958	-0,074	-0,121
-205,650	-111,180	-0,149	-0,022
-204,636	-200,000	0,014	0,116
-203,621	-200,000	0,014	0,187
-202,606	255,475	-0,047	0,058
-201,592	93,502	-0,013	0,011
-200,577	-200,000	0,009	-0,033
-199,563	-200,000	0,004	0,013
-198,548	115,198	-0,033	-0,029
-197,533	-150,247	0,021	0,001
-196,519	800,000	0,023	0,048
-195,504	53,656	-0,037	0,026
-194,490	28,084	-0,122	0,075
-193,475	322,211	-0,100	0,139
-192,460	21,278	0,040	-0,024
-191,446	260,601	0,082	0,104
-190,431	-200,000	0,008	0,199
-189,417	-87,113	0,136	0,030
-188,402	800,000	0,034	0,085
-187,387	198,138	0,017	-0,018
-186,373	-200,000	-0,012	-0,104
-185,358	74,305	0,078	0,060
-184,344	-200,000	-0,007	-0,077
-183,329	-200,000	0,001	-0,017
-182,315	800,000	0,068	0,170
-181,300	800,000	-0,035	0,096
-180,285	39,816	-0,096	-0,063
-179,271	800,000	0,035	-0,072
-178,256	-96,646	-0,122	-0,023
-177,242	-130,279	-0,150	-0,015
-176,227	-75,599	0,161	-0,042
-175,212	-60,314	0,084	0,026
-174,198	102,133	-0,032	0,027
-173,183	-200,000	0,002	-0,056
-172,169	47,645	-0,058	-0,039
-171,154	311,250	0,092	-0,126
-170,139	132,520	0,075	-0,071
-169,125	800,000	0,038	0,110
-168,110	256,049	0,040	0,050
-167,096	800,000	-0,041	-0,104
-166,081	732,582	-0,124	0,242
-165,066	-98,449	-0,177	-0,033
-164,052	708,317	0,084	-0,162
-163,037	-73,041	0,106	0,028
-162,023	-200,000	-0,015	0,057
-161,008	85,128	-0,050	0,040
-159,993	-200,000	0,006	0,039
-158,979	333,069	0,027	0,039
-157,964	-149,908	-0,113	-0,006
-156,950	-30,082	0,008	0,003
-155,935	-59,361	0,078	0,024
-154,920	800,000	-0,037	0,085
-153,906	136,206	-0,037	-0,035
-152,891	59,691	-0,116	0,083
-151,877	133,416	-0,054	0,050
-150,862	-200,000	-0,013	0,049
-149,847	416,649	-0,031	-0,048
-148,833	-200,000	0,001	-0,019
-147,818	800,000	-0,033	0,067
-146,804	151,287	-0,081	-0,080
-145,789	800,000	-0,027	-0,064
-144,775	2,517	0,077	0,041
-143,760	112,581	0,083	0,073
-142,745	800,000	-0,033	-0,078
-141,731	-39,947	0,050	0,019
-140,716	-200,000	-0,021	0,074
-139,702	-200,000	-0,001	0,090
-138,687	-200,000	-0,007	-0,027
-137,672	800,000	0,048	0,129
-136,658	-200,000	-0,005	-0,030
-135,643	-45,403	-0,057	0,020
-134,629	-200,000	-0,001	-0,045
-133,614	-111,205	0,055	-0,008
-132,599	-57,488	-0,095	-0,030
-131,585	-111,741	0,062	-0,009
-130,570	-200,000	0,036	0,116
-129,556	131,755	-0,164	-0,153
-128,541	-54,471	-0,174	0,057
-127,526	79,827	-0,043	0,033
-126,512	288,149	0,023	-0,031
-125,497	-97,759	0,127	0,024
-124,483	-200,000	0,008	0,067
-123,468	31,149	-0,072	-0,045
-122,453	515,576	0,017	-0,028
-121,439	-200,000	-0,004	0,110
-120,424	-169,971	0,064	-0,002
-119,410	-25,866	0,107	-0,046
-118,395	-139,286	0,061	0,005
-117,380	-200,000	0,014	-0,095
-116,366	-58,639	0,094	0,029
-115,351	306,937	-0,071	0,096
-114,337	96,937	0,016	0,014
-113,322	204,013	-0,007	-0,007
-112,307	25,244	0,069	0,041
-111,293	-78,550	-0,024	-0,006
-110,278	-11,443	0,090	0,043
-109,264	-200,000	0,011	-0,054
-108,249	-100,073	-0,128	-0,023
-107,234	800,000	0,046	-0,142
-106,220	124,978	-0,071	-0,065
-105,205	326,622	-0,051	0,071
-104,191	-172,288	0,129	-0,003
-103,176	11,492	-0,167	0,093
-102,162	-99,332	0,099	0,018
-101,147	-29,224	0,107	-0,044
-100,132	398,147	0,045	0,069
-99,118	-46,557	-0,142	-0,050
-98,103	-86,416	-0,062	-0,014
-97,089	710,404	0,007	0,013
-96,074	-180,146	-0,151	0,002
-95,059	-83,766	-0,028	-0,006
-94,045	-190,789	0,071	0,001
-93,030	36,337	-0,064	-0,041
-92,016	579,177	-0,017	0,030
-91,001	2,278	0,082	0,043
-89,986	-31,212	-0,092	0,037
-88,972	-75,092	0,089	0,023
-87,957	800,000	-0,026	-0,073
-86,943	112,554	0,006	0,005
-85,928	-54,386	-0,125	0,041
-84,913	-92,347	0,030	-0,006
-83,899	-51,075	0,084	0,029
-82,884	83,071	0,068	-0,054
-81,870	-8,766	-0,096	-0,047
-80,855	23,339	0,100	0,059
-79,840	-17,782	0,019	-0,009
-78,826	-200,000	-0,019	0,158
-77,811	-140,514	-0,052	0,004
-76,797	-37,067	-0,144	0,056
-75,782	-200,000	-0,037	0,165
-74,767	-116,330	0,116	0,015
-73,753	-44,913	-0,047	-0,017
-72,738	252,179	0,047	-0,058
-71,724	617,701	-0,143	-0,262
-70,709	-48,644	0,029	-0,010
-69,694	-200,000	0,027	-0,129
-68,680	157,678	0,019	-0,019
-67,665	-101,996	0,118	0,021
-66,651	-200,000	0,008	-0,053
-65,636	409,049	-0,060	0,093
-64,622	649,829	0,052	0,097
-63,607	731,316	-0,021	-0,042
-62,592	-86,375	-0,141	0,031
-61,578	-108,341	-0,033	0,005
-60,563	800,000	0,064	0,156
-59,549	0,597	-0,061	0,031
-58,534	-138,049	-1,351	-0,107
-57,519	800,000	-0,652	-1,453
-56,505	-200,000	-1,110	-4,477
-55,490	82,281	0,593	-0,466
-54,476	800,000	4,890	11,666
-53,461	-200,000	13,774	252,767
-52,446	-200,000	691,571	2242,955
-51,432	578,579	1622,864	2891,266
-50,417	118,026	1633,370	1459,465
-49,403	72,378	1287,455	971,864
-48,388	37,608	1023,499	657,265
-47,373	24,065	981,131	585,566
-46,359	23,262	970,949	576,835
-45,344	22,336	966,492	571,140
-44,330	22,234	964,970	569,887
-43,315	22,089	963,652	568,613
-42,300	22,087	962,640	567,988
-41,286	22,100	961,848	567,539
-40,271	22,076	960,811	566,829
-39,257	22,047	959,682	566,044
-38,242	22,046	958,866	565,539
-37,227	22,061	957,979	565,043
-36,213	22,066	957,187	564,569
-35,198	22,036	956,184	563,856
-34,184	22,124	955,528	563,732
-33,169	22,066	954,857	563,127
-32,154	22,117	953,876	562,689
-31,140	22,141	952,924	562,183
-30,125	22,172	951,938	561,680
-29,111	22,101	951,213	561,000
-28,096	22,071	950,829	560,654
-27,082	22,103	949,988	560,240
-26,067	22,146	949,238	559,913
-25,052	22,077	948,567	559,275
-24,038	22,083	947,776	558,804
-23,023	22,085	947,178	558,435
-22,009	22,097	946,501	558,054
-20,994	22,199	945,699	557,886
-19,979	22,150	945,306	557,474
-18,965	22,135	944,723	557,060
-17,950	22,100	944,153	556,590
-16,936	22,076	943,393	556,046
-15,921	22,064	942,564	555,496
-14,906	22,062	941,783	555,005
-13,892	22,013	941,340	554,569
-12,877	21,936	940,755	553,955
-11,863	21,954	940,093	553,601
-10,848	21,964	939,602	553,323
-9,833	22,031	939,201	553,278
-8,819	22,065	938,516	552,960
-7,804	21,977	937,983	552,343
-6,790	21,947	937,288	551,819
-5,775	21,965	936,767	551,546
-4,760	22,025	935,992	551,257
-3,746	21,941	935,501	550,682
-2,731	21,868	934,795	550,012
-1,717	21,803	933,920	549,271
-0,702	21,803	933,182	548,817
0,313	21,605	932,701	548,739
1,327	24,772	930,738	557,482
2,342	34,365	795,152	501,783
3,356	32,137	451,410	281,483
4,371	1,362	294,257	152,742
5,386	-3,348	275,313	138,431
6,400	-4,472	269,511	134,456
7,415	-4,901	267,089	132,841
8,429	-4,647	265,820	132,431
9,444	-4,805	264,957	131,844
10,459	-4,709	264,448	131,667
11,473	-4,680	263,798	131,358
12,488	-4,611	263,125	131,074
13,502	-4,769	262,664	130,689
14,517	-4,851	262,190	130,368
15,531	-4,887	261,923	130,191
16,546	-4,849	261,393	129,950
17,561	-4,783	261,126	129,865
18,575	-4,586	260,799	129,868
19,590	-4,855	260,626	129,529
20,604	-4,824	260,253	129,360
21,619	-4,935	260,033	129,139
22,634	-4,888	259,529	128,919
23,648	-5,126	259,325	128,594
24,663	-4,958	259,015	128,579
25,677	-4,992	258,834	128,447
26,692	-5,055	258,492	128,210
27,707	-4,848	258,292	128,284
28,721	-5,042	258,093	128,000
29,736	-5,092	257,690	127,745
30,750	-4,924	257,497	127,787
31,765	-4,962	257,248	127,618
32,780	-4,992	256,855	127,385
33,794	-4,930	256,768	127,386
34,809	-4,946	256,465	127,210
35,823	-5,012	256,438	127,127
36,838	-4,926	256,010	126,979
37,853	-5,094	255,708	126,670
38,867	-4,988	255,467	126,633
39,882	-5,071	255,262	126,447
40,896	-5,079	255,299	126,447
41,911	-5,217	254,960	126,146
42,926	-5,175	254,713	126,050
43,940	-5,026	254,369	125,999
44,955	-5,026	254,199	125,903
45,969	-5,030	253,963	125,772
46,984	-5,286	253,750	125,432
47,999	-5,362	253,540	125,251
49,013	-5,573	253,335	124,954
50,028	-5,636	253,024	124,735
51,042	-5,809	252,794	124,460
52,057	-5,727	252,559	124,405
53,071	-5,601	252,275	124,363
54,086	-5,649	252,246	124,296
55,101	-5,473	252,083	124,357
56,115	-5,336	251,875	124,362
57,130	-4,980	251,914	124,678
58,144	-4,777	251,651	124,713
59,159	-4,660	251,369	124,662
60,174	-4,741	251,204	124,500
61,188	-4,856	250,933	124,255
62,203	-4,944	250,840	124,123
63,217	-4,977	250,465	123,897
64,232	-4,947	250,389	123,874
65,247	-4,861	250,163	123,826
66,261	-4,857	249,858	123,667
67,276	-4,852	249,596	123,530
68,290	-5,191	249,486	123,175
69,305	-5,179	249,165	123,015
70,320	-5,300	249,062	122,850
71,334	-5,094	248,858	122,915
72,349	-4,521	248,552	123,241
73,363	-4,701	248,526	123,064
74,378	-4,789	248,272	122,852
75,393	-4,912	248,132	122,667
76,407	-4,791	247,943	122,665
77,422	-4,801	247,824	122,587
78,436	-4,752	247,331	122,374
79,451	-4,948	247,370	122,216
80,466	-4,849	247,102	122,157
81,480	-5,094	246,850	121,814
82,495	-5,225	246,685	121,611
83,509	-5,198	246,583	121,573
84,524	-5,095	246,237	121,478
85,539	-5,270	246,043	121,224
86,553	-5,325	245,861	121,077
87,568	-5,197	245,787	121,138
88,582	-5,054	245,482	121,097
89,597	-5,216	245,382	120,900
90,611	-4,909	245,093	121,005
91,626	-4,928	245,090	120,976
92,641	-5,035	244,941	120,803
93,655	-5,061	244,674	120,638
94,670	-4,858	244,286	120,607
95,684	-5,007	244,271	120,464
96,699	-5,099	244,167	120,324
97,714	-5,198	243,953	120,125
98,728	-5,140	243,717	120,048
99,743	-5,307	243,465	119,773
100,757	-5,216	243,293	119,754
101,772	-5,349	243,129	119,551
102,787	-5,292	242,957	119,504
103,801	-4,972	242,698	119,631
104,816	-5,041	242,743	119,586
105,830	-5,237	242,602	119,343
106,845	-5,025	242,500	119,458
107,860	-4,919	242,159	119,367
108,874	-4,938	241,961	119,243
109,889	-4,871	241,661	119,140
110,903	-5,106	241,518	118,865
111,918	-5,141	241,352	118,744
112,933	-4,984	241,170	118,772
113,947	-4,974	241,001	118,687
114,962	-4,907	240,993	118,728
115,976	-4,769	240,607	118,641
116,991	-4,774	240,366	118,507
118,006	-4,912	240,247	118,325
119,020	-4,796	240,149	118,361
120,035	-4,778	240,122	118,352
121,049	-4,890	240,056	118,217
122,064	-4,958	239,760	118,005
123,079	-4,969	239,467	117,842
124,093	-4,979	239,320	117,751
125,108	-5,166	239,076	117,467
126,122	-5,258	238,907	117,299
127,137	-5,343	238,660	117,098
128,151	-5,221	238,500	117,108
129,166	-5,171	238,444	117,110
130,181	-5,069	238,126	117,026
131,195	-5,349	237,967	116,711
132,210	-5,079	237,840	116,857
133,224	-4,865	237,703	116,953
134,239	-5,207	237,588	116,609
135,254	-4,758	237,415	116,877
136,268	-4,998	237,212	116,573
137,283	-5,333	237,009	116,192
138,297	-5,647	236,713	115,783
139,312	-5,378	236,451	115,861
140,327	-5,225	236,573	116,034
141,341	-4,663	236,406	116,394
142,356	-4,734	236,288	116,269
143,370	-4,745	236,186	116,200
144,385	-4,675	235,936	116,122
145,400	-4,576	235,674	116,063
146,414	-4,635	235,564	115,951
147,429	-4,717	235,486	115,837
148,443	-4,750	235,298	115,708
149,458	-4,799	235,135	115,578
150,473	-4,694	234,906	115,538
151,487	-4,854	234,775	115,336
152,502	-4,810	234,680	115,314
153,516	-4,720	234,530	115,302
154,531	-4,477	234,279	115,362
155,546	-4,761	234,146	115,060
156,560	-4,873	233,925	114,852
157,575	-4,838	233,766	114,792
158,589	-4,593	233,418	114,806
159,604	-4,592	233,266	114,721
160,619	-4,419	233,152	114,792
161,633	-4,503	233,155	114,716
162,648	-4,553	232,889	114,536
163,662	-4,627	232,880	114,462
164,677	-4,557	232,480	114,311
165,692	-4,683	232,744	114,331
166,706	-4,509	232,427	114,302
167,721	-4,475	232,222	114,218
168,735	-4,629	232,099	114,026
169,750	-4,619	232,034	113,992
170,764	-4,668	231,831	113,843
171,779	-4,515	231,565	113,823
172,794	-4,538	231,447	113,737
173,808	-4,809	231,261	113,423
174,823	-5,222	230,952	112,936
175,837	-5,219	230,746	112,827
176,852	-4,982	230,713	112,987
177,867	-4,545	230,537	113,234
178,881	-4,582	230,404	113,129
179,896	-4,744	230,300	112,941
180,910	-4,441	230,182	113,110
181,925	-4,494	229,885	112,913
182,940	-4,681	230,034	112,830
183,954	-4,446	229,756	112,867
184,969	-4,470	229,638	112,780
185,983	-4,458	229,535	112,729
186,998	-4,492	229,303	112,578
188,013	-4,384	229,146	112,575
189,027	-4,492	228,969	112,395
190,042	-4,419	228,881	112,397
191,056	-4,394	228,675	112,306
192,071	-4,323	228,406	112,219
193,086	-4,438	228,427	112,130
194,100	-4,438	228,039	111,929
195,115	-4,745	227,809	111,569
196,129	-5,153	227,674	111,178
197,144	-3,396	228,292	112,831
198,159	0,670	229,412	116,533
199,173	3,651	230,235	119,258
200,188	4,059	230,136	119,514
201,202	4,098	230,126	119,528
202,217	4,102	230,008	119,459
203,232	4,446	229,686	119,548
204,246	4,629	229,620	119,644
205,261	4,558	229,305	119,415
206,275	4,558	229,502	119,507
207,290	4,561	229,303	119,395
208,304	4,354	229,123	119,131
209,319	4,444	228,919	119,084
210,334	4,394	228,733	118,938
211,348	4,286	228,537	118,742
212,363	3,932	228,237	118,303
213,377	3,721	227,945	117,979
214,392	3,764	227,935	117,996
215,407	3,838	227,743	117,943
216,421	3,932	227,643	117,953
217,436	3,894	227,218	117,693
218,450	3,743	227,045	117,477
219,465	3,405	227,000	117,186
220,480	3,576	226,956	117,283
221,494	3,605	226,727	117,176
222,509	3,623	226,684	117,157
223,523	3,669	226,530	117,103
224,538	3,666	226,454	117,051
225,553	3,802	226,247	117,037
226,567	3,863	226,151	117,023
227,582	4,191	225,995	117,181
228,596	4,314	225,770	117,148
229,611	3,860	225,670	116,740
230,626	3,615	225,561	116,488
231,640	3,680	225,271	116,377
232,655	3,925	225,302	116,568
233,669	4,273	225,237	116,788
234,684	4,247	225,157	116,717
235,699	4,100	224,845	116,433
236,713	3,976	224,590	116,197
237,728	3,806	224,467	115,994
238,742	3,492	224,293	115,657
239,757	3,628	224,129	115,665
240,772	3,537	223,976	115,508
241,786	3,580	223,762	115,420
242,801	3,919	223,699	115,631
243,815	3,983	223,790	115,716
244,830	4,290	223,513	115,793
245,844	3,953	223,374	115,457
246,859	3,905	223,186	115,314
247,874	3,931	223,099	115,279
248,888	4,138	223,031	115,389
249,903	3,836	222,805	115,035
250,917	4,008	222,604	115,050
251,932	3,879	222,363	114,818
252,947	3,582	222,226	114,516
253,961	3,744	222,006	114,513
254,976	3,551	221,992	114,351
255,990	4,183	221,903	114,767
257,005	4,147	221,630	114,588
258,020	4,125	221,618	114,555
259,034	4,293	221,634	114,678
260,049	3,902	221,446	114,280
261,063	3,975	221,149	114,171
262,078	4,086	221,089	114,212
263,093	4,143	221,008	114,203
264,107	3,908	220,767	113,893
265,122	4,114	220,695	113,999
266,136	4,274	220,675	114,097
267,151	4,228	220,526	113,976
268,166	3,811	220,270	113,525
269,180	3,490	220,052	113,166
270,195	3,530	219,842	113,077
271,209	3,759	219,660	113,142
272,224	3,526	219,719	112,991
273,239	3,799	219,550	113,095
274,253	3,863	219,119	112,910
275,268	3,495	219,078	112,608
276,282	3,851	218,907	112,771
277,297	3,749	218,658	112,558
278,312	3,454	218,647	112,326
279,326	3,579	218,725	112,448
280,341	3,809	218,372	112,425
281,355	3,956	218,268	112,469
282,370	3,867	218,209	112,363
283,384	3,483	217,947	111,938
284,399	3,676	217,719	111,952
285,414	3,632	217,675	111,887
286,428	3,665	217,656	111,891
287,443	4,103	217,488	112,114
288,457	4,056	217,326	111,986
289,472	3,917	217,083	111,750
290,487	3,594	216,946	111,435
291,501	3,104	216,742	110,965
292,516	3,273	216,705	111,059
293,530	3,449	216,523	111,083
294,545	3,405	216,369	110,962
295,560	3,470	216,257	110,942
296,574	3,698	216,261	111,099
297,589	3,820	216,010	111,048
298,603	3,866	215,950	111,041
299,618	3,828	215,832	110,943
300,633	3,714	215,752	110,810
301,647	3,977	215,559	110,890
302,662	3,863	215,582	110,810
303,676	4,051	215,309	110,795
304,691	3,878	215,318	110,665
305,706	4,115	215,040	110,683
306,720	4,042	214,979	110,589
307,735	3,985	214,617	110,352
308,749	3,788	214,401	110,090
309,764	4,062	214,296	110,223
310,779	4,066	214,392	110,265
311,793	4,077	214,079	110,102
312,808	3,981	213,904	109,933
313,822	4,164	213,687	109,943
314,837	3,888	213,695	109,740
315,852	3,646	213,469	109,442
316,866	3,824	213,380	109,513
317,881	4,018	213,307	109,605
318,895	4,061	213,174	109,557
319,910	3,958	213,034	109,402
320,925	3,706	212,830	109,108
321,939	3,292	212,607	108,690
322,954	3,558	212,551	108,841
323,968	3,922	212,471	109,048
324,983	3,814	212,443	108,948
325,997	3,920	212,389	108,985
327,012	3,972	212,059	108,843
328,027	3,789	211,935	108,640
329,041	4,003	212,046	108,839
330,056	4,204	211,741	108,814
331,070	3,864	211,658	108,522
332,085	3,586	211,305	108,136
333,100	3,463	211,269	108,020
334,114	3,575	211,264	108,088
335,129	3,841	210,973	108,116
336,143	3,773	210,871	108,007
337,158	3,757	210,869	107,984
338,173	3,841	210,667	107,930
339,187	3,571	210,394	107,591
340,202	3,426	210,190	107,376
341,216	3,410	210,035	107,276
342,231	3,476	210,180	107,387
343,246	3,674	209,867	107,355
344,260	3,690	209,749	107,297
345,275	3,585	209,745	107,212
346,289	3,707	209,683	107,256
347,304	3,740	209,592	107,223
348,319	3,886	209,315	107,173
349,333	3,901	209,164	107,097
350,348	4,032	209,035	107,112
351,362	3,987	208,910	107,007
352,377	3,829	208,737	106,800
353,392	3,877	208,656	106,782
354,406	3,856	208,544	106,701
355,421	193,151	1345,571	1430,706
356,435	154,084	1484,204	1430,820
