DTS Sentinel unit serial number:	SN410029Multiplexer serial number:	ORYXHardware model number:	OX2-SRSoftware version number:	ORYX F/W v4,00 Oryx Data Collector v3.7.2.0data status	okinstallation	B6 Nyhavnadifferential loss correction	single-endedforward channel	channel 2reverse channel	N/Adate	2023/12/11time	05:50:08forward acquisition time	300,00reverse acquisition time	0,00gamma	499,1914k internal	0,3126k external	0,3126temperature offset calibration	1,0000default loss term (dB/km)	0,3820temperature slope calibration	1,0000multiplexer offset coefficient	1,0000multiplexer slope coefficient	1,0000fibre end	0,00T internal ref (°C)	19,82T ext. ref 1 (°C)	2,97T ext. ref 2 (°C)	3,00length (m)	temperature (°C)	Stokes	anti-Stokes-744,400	45,793	0,040	-0,027
-743,385	-118,426	-0,187	0,024
-742,371	-200,000	0,014	0,066
-741,356	-1,637	-0,154	0,081
-740,342	-46,174	0,111	-0,041
-739,327	-120,908	-0,166	-0,021
-738,312	-200,000	0,003	-0,063
-737,298	-73,444	-0,194	0,052
-736,283	350,255	-0,025	-0,037
-735,269	-36,091	-0,200	0,080
-734,254	-120,742	0,118	0,015
-733,239	80,850	-0,326	-0,261
-732,225	-169,531	0,180	0,005
-731,210	60,625	-0,019	0,014
-730,196	-200,000	-0,005	-0,024
-729,181	155,406	-0,050	-0,052
-728,167	-200,000	0,001	-0,080
-727,152	-151,356	-0,054	-0,003
-726,137	271,815	-0,069	-0,091
-725,123	800,000	0,071	-0,155
-724,108	33,572	-0,116	-0,075
-723,094	182,020	-0,160	-0,175
-722,079	177,894	0,034	-0,037
-721,064	-135,968	0,123	-0,011
-720,050	-5,093	-0,121	-0,062
-719,035	-73,615	-0,100	0,027
-718,021	-33,681	-0,125	0,051
-717,006	36,110	-0,071	-0,047
-715,991	-200,000	-0,007	-0,093
-714,977	-200,000	0,013	-0,131
-713,962	-200,000	0,000	-0,151
-712,948	-91,403	0,119	0,025
-711,933	65,297	-0,065	0,049
-710,918	-200,000	-0,005	-0,048
-709,904	-35,317	-0,165	-0,066
-708,889	800,000	-0,060	0,143
-707,875	800,000	-0,023	-0,069
-706,860	-23,217	-0,094	-0,042
-705,845	46,781	0,081	0,056
-704,831	696,425	-0,062	0,122
-703,816	93,112	-0,073	-0,062
-702,802	-200,000	-0,026	0,104
-701,787	-140,903	-0,068	-0,005
-700,772	-67,085	-0,034	-0,010
-699,758	-200,000	0,030	0,187
-698,743	800,000	0,050	0,144
-697,729	664,503	-0,056	0,107
-696,714	800,000	-0,062	0,155
-695,699	-139,742	-0,031	0,002
-694,685	62,620	-0,060	-0,044
-693,670	181,540	0,033	-0,036
-692,656	79,690	-0,050	0,040
-691,641	-161,348	-0,093	-0,004
-690,627	-200,000	-0,003	-0,040
-689,612	58,003	0,127	0,092
-688,597	-7,640	-0,082	-0,041
-687,583	81,108	0,066	-0,053
-686,568	368,344	-0,082	-0,124
-685,554	-200,000	0,003	0,059
-684,539	379,897	0,109	0,166
-683,524	517,935	-0,060	0,105
-682,510	-13,955	-0,054	-0,026
-681,495	120,100	-0,108	0,099
-680,481	55,617	-0,092	0,066
-679,466	614,103	0,027	-0,050
-678,451	-63,952	-0,089	0,027
-677,437	800,000	0,048	-0,126
-676,422	62,293	0,096	-0,071
-675,408	-193,291	-0,057	0,000
-674,393	-109,397	-0,038	-0,006
-673,378	279,966	-0,077	0,102
-672,364	163,847	0,043	0,045
-671,349	-200,000	-0,007	0,083
-670,335	454,123	0,023	-0,038
-669,320	169,685	-0,110	0,117
-668,305	203,139	0,023	0,026
-667,291	302,727	0,021	-0,029
-666,276	213,664	0,118	-0,139
-665,262	240,958	-0,117	-0,146
-664,247	-200,000	0,014	-0,071
-663,232	-77,745	0,085	0,022
-662,218	200,626	0,046	0,053
-661,203	-200,000	0,026	-0,145
-660,189	114,241	0,028	0,025
-659,174	-153,911	-0,051	-0,003
-658,159	107,981	0,068	-0,060
-657,145	33,825	0,086	-0,056
-656,130	103,239	0,097	-0,084
-655,116	20,078	-0,032	-0,019
-654,101	129,320	-0,036	-0,034
-653,086	20,629	-0,075	0,045
-652,072	27,872	0,050	-0,031
-651,057	573,341	0,021	0,038
-650,043	100,662	-0,120	-0,103
-649,028	426,635	0,028	0,045
-648,014	800,000	-0,038	0,103
-646,999	800,000	0,053	-0,123
-645,984	800,000	-0,019	0,058
-644,970	-15,760	-0,156	-0,074
-643,955	800,000	0,060	-0,137
-642,941	-77,112	-0,110	0,028
-641,926	179,849	-0,075	-0,081
-640,911	-144,026	-0,015	-0,001
-639,897	-81,876	0,065	0,016
-638,882	359,997	0,074	0,110
-637,868	301,397	0,100	-0,137
-636,853	800,000	-0,046	-0,100
-635,838	165,366	0,034	-0,036
-634,824	-134,691	0,119	0,011
-633,809	273,336	0,076	0,100
-632,795	-200,000	0,003	-0,012
-631,780	-33,565	0,061	0,025
-630,765	-54,512	-0,038	-0,013
-629,751	67,867	0,074	-0,056
-628,736	-5,250	-0,102	-0,052
-627,722	-71,104	-0,095	-0,026
-626,707	-5,933	0,022	0,011
-625,692	-117,698	0,081	0,011
-624,678	138,222	-0,122	0,119
-623,663	343,462	-0,025	-0,036
-622,649	263,277	0,032	-0,041
-621,634	-200,000	0,012	-0,090
-620,619	352,849	0,055	-0,081
-619,605	800,000	0,020	-0,046
-618,590	165,890	0,011	0,011
-617,576	-143,665	-0,034	-0,002
-616,561	1,126	0,004	0,002
-615,546	-78,427	0,108	-0,027
-614,532	378,261	-0,057	0,087
-613,517	-43,114	-0,134	0,050
-612,503	59,322	0,043	0,032
-611,488	23,381	0,039	0,024
-610,474	800,000	-0,047	0,128
-609,459	-200,000	-0,001	-0,094
-608,444	-96,026	-0,117	0,023
-607,430	-200,000	-0,008	0,149
-606,415	-53,135	-0,086	0,029
-605,401	-200,000	0,012	-0,178
-604,386	219,887	-0,109	-0,130
-603,371	-73,263	0,131	-0,035
-602,357	13,080	0,039	0,022
-601,342	-38,259	0,105	0,041
-600,328	-184,400	-0,097	-0,001
-599,313	800,000	0,026	0,056
-598,298	3,939	-0,119	0,064
-597,284	49,041	0,110	0,076
-596,269	194,460	-0,044	0,050
-595,255	800,000	0,017	0,043
-594,240	391,165	-0,031	0,049
-593,225	112,292	-0,145	-0,130
-592,211	671,292	0,044	0,084
-591,196	170,100	0,017	0,018
-590,182	4,197	-0,007	0,004
-589,167	-109,219	-0,112	0,017
-588,152	405,432	0,077	0,121
-587,138	800,000	-0,061	0,165
-586,123	392,274	-0,025	0,039
-585,109	364,174	-0,130	-0,194
-584,094	800,000	-0,041	0,135
-583,079	-135,390	0,021	0,002
-582,065	33,928	0,109	-0,070
-581,050	-200,000	-0,016	0,092
-580,036	800,000	0,029	0,076
-579,021	-178,364	-0,076	0,001
-578,006	800,000	0,033	-0,088
-576,992	-200,000	0,009	0,126
-575,977	235,667	-0,048	0,058
-574,963	800,000	0,041	0,097
-573,948	377,918	-0,036	0,054
-572,934	27,494	-0,215	0,133
-571,919	116,009	-0,038	-0,034
-570,904	87,300	0,029	-0,023
-569,890	-23,890	-0,033	-0,015
-568,875	-33,509	0,065	0,027
-567,861	-17,968	-0,059	0,027
-566,846	800,000	-0,007	-0,023
-565,831	44,528	0,089	-0,060
-564,817	70,762	0,137	-0,105
-563,802	-69,038	0,132	-0,037
-562,788	800,000	-0,048	0,124
-561,773	-136,302	0,111	-0,009
-560,758	118,465	0,010	-0,010
-559,744	275,500	0,165	0,217
-558,729	800,000	-0,040	0,116
-557,715	50,776	-0,095	-0,066
-556,700	-200,000	-0,005	-0,033
-555,685	42,710	-0,034	-0,023
-554,671	173,201	0,098	-0,105
-553,656	22,721	0,096	0,058
-552,642	-31,462	-0,074	-0,031
-551,627	274,500	0,051	0,067
-550,612	-200,000	-0,014	-0,098
-549,598	-78,516	-0,080	-0,020
-548,583	-57,646	0,023	-0,007
-547,569	800,000	-0,022	0,054
-546,554	-131,299	-0,043	-0,004
-545,539	-100,361	0,091	0,016
-544,525	-80,155	-0,055	-0,013
-543,510	-184,998	-0,108	0,001
-542,496	616,107	0,028	0,052
-541,481	-200,000	-0,010	-0,205
-540,466	-31,548	0,140	0,058
-539,452	-152,044	-0,080	0,004
-538,437	-200,000	0,023	0,097
-537,423	54,605	0,083	0,059
-536,408	-93,678	0,064	-0,013
-535,393	587,409	0,030	0,055
-534,379	-200,000	-0,014	-0,091
-533,364	-62,105	-0,052	0,016
-532,350	158,923	0,121	0,125
-531,335	-200,000	0,004	-0,123
-530,321	-200,000	0,008	0,156
-529,306	296,826	-0,117	-0,159
-528,291	68,340	-0,057	0,043
-527,277	-200,000	-0,008	-0,061
-526,262	800,000	-0,047	0,136
-525,248	-200,000	0,003	0,053
-524,233	-11,519	-0,035	0,017
-523,218	-13,770	-0,056	-0,027
-522,204	160,151	0,092	-0,095
-521,189	-195,765	-0,055	-0,000
-520,175	236,996	-0,157	-0,193
-519,160	800,000	0,050	-0,126
-518,145	334,821	-0,061	-0,088
-517,131	-77,631	0,074	-0,019
-516,116	-64,539	0,057	0,017
-515,102	472,622	0,024	-0,040
-514,087	-200,000	-0,002	-0,111
-513,072	800,000	0,056	-0,154
-512,058	-200,000	0,000	0,078
-511,043	132,832	0,051	0,048
-510,029	4,539	-0,042	-0,023
-509,014	-156,864	-0,140	-0,006
-507,999	121,534	0,049	-0,045
-506,985	-138,943	0,043	-0,003
-505,970	800,000	-0,011	0,032
-504,956	311,435	-0,033	0,046
-503,941	456,041	0,119	-0,195
-502,926	69,576	0,024	-0,018
-501,912	-200,000	0,039	0,137
-500,897	-200,000	0,012	-0,087
-499,883	138,743	-0,071	-0,069
-498,868	-200,000	-0,028	-0,103
-497,853	-191,060	0,042	0,000
-496,839	-22,042	0,103	-0,046
-495,824	-200,000	-0,001	-0,024
-494,810	-200,000	0,023	0,106
-493,795	475,174	-0,115	0,192
-492,781	296,165	-0,046	0,062
-491,766	-130,949	0,041	-0,004
-490,751	278,162	-0,086	0,114
-489,737	130,957	0,106	0,101
-488,722	800,000	-0,042	-0,096
-487,708	-200,000	0,014	-0,056
-486,693	-95,404	-0,148	0,029
-485,678	-74,163	0,013	0,003
-484,664	70,718	0,044	0,034
-483,649	-200,000	-0,017	-0,227
-482,635	678,869	0,034	-0,066
-481,620	71,959	0,074	-0,056
-480,605	547,949	-0,101	-0,179
-479,591	403,407	0,102	0,159
-478,576	-61,829	-0,195	0,060
-477,562	69,302	-0,041	-0,031
-476,547	132,504	-0,106	-0,101
-475,532	-200,000	-0,031	-0,120
-474,518	199,767	0,053	-0,060
-473,503	-136,917	-0,040	0,003
-472,489	630,565	0,027	0,050
-471,474	-91,191	-0,099	0,021
-470,459	-200,000	-0,001	-0,050
-469,445	800,000	0,034	0,086
-468,430	-31,701	-0,095	-0,039
-467,416	15,285	0,087	0,050
-466,401	800,000	-0,019	-0,045
-465,386	224,627	-0,075	0,089
-464,372	35,911	-0,115	0,074
-463,357	-200,000	-0,009	-0,057
-462,343	-96,273	-0,097	0,019
-461,328	427,036	0,008	0,013
-460,313	-200,000	-0,024	0,115
-459,299	-53,317	0,136	-0,046
-458,284	102,619	-0,079	0,068
-457,270	-93,324	0,067	0,014
-456,255	-46,961	0,122	-0,043
-455,241	-200,000	0,027	-0,110
-454,226	800,000	0,028	-0,066
-453,211	383,006	0,133	0,203
-452,197	-140,457	0,076	0,006
-451,182	-200,000	0,010	-0,084
-450,168	295,811	0,031	0,042
-449,153	-153,406	-0,118	0,006
-448,138	72,844	-0,061	0,046
-447,124	-54,767	0,024	0,008
-446,109	-136,378	-0,039	0,003
-445,095	-153,611	0,065	0,003
-444,080	800,000	0,022	0,055
-443,065	213,353	-0,023	0,027
-442,051	-200,000	-0,009	-0,171
-441,036	74,023	0,021	0,016
-440,022	80,784	0,121	-0,096
-439,007	-200,000	0,022	-0,157
-437,992	93,195	0,195	0,162
-436,978	-200,000	-0,004	-0,023
-435,963	-200,000	0,002	-0,083
-434,949	800,000	0,014	0,041
-433,934	-35,587	-0,056	0,022
-432,919	-152,719	0,048	0,002
-431,905	655,540	0,033	-0,063
-430,890	69,813	-0,075	0,057
-429,876	-200,000	-0,013	0,094
-428,861	800,000	-0,033	0,075
-427,846	118,136	0,093	0,084
-426,832	-25,750	-0,115	-0,050
-425,817	800,000	0,037	0,083
-424,803	-200,000	-0,025	-0,153
-423,788	800,000	0,079	-0,174
-422,773	-23,920	0,065	-0,028
-421,759	143,796	-0,093	-0,092
-420,744	64,914	-0,025	-0,018
-419,730	-200,000	-0,061	0,209
-418,715	-29,386	-0,052	0,022
-417,701	-135,105	-0,231	-0,020
-416,686	800,000	-0,008	0,021
-415,671	-87,782	-0,076	-0,017
-414,657	-183,670	-0,116	-0,001
-413,642	800,000	0,032	-0,076
-412,628	-92,625	-0,066	-0,013
-411,613	36,482	-0,080	-0,052
-410,598	800,000	-0,005	0,014
-409,584	800,000	0,012	0,028
-408,569	-200,000	-0,005	0,034
-407,555	-42,929	-0,050	0,019
-406,540	129,955	-0,053	-0,050
-405,525	800,000	-0,045	0,098
-404,511	84,439	0,066	0,053
-403,496	767,435	-0,023	-0,046
-402,482	-58,610	0,117	-0,037
-401,467	800,000	0,014	0,046
-400,452	-111,794	0,072	0,011
-399,438	-200,000	-0,004	0,212
-398,423	153,461	0,042	-0,042
-397,409	85,089	0,147	0,118
-396,394	-200,000	0,012	-0,097
-395,379	27,169	0,065	0,040
-394,365	100,632	0,014	-0,012
-393,350	38,893	0,156	0,102
-392,336	365,423	-0,079	0,118
-391,321	302,880	-0,064	-0,087
-390,306	291,229	-0,032	0,042
-389,292	-200,000	-0,002	-0,061
-388,277	3,752	-0,049	0,026
-387,263	-200,000	-0,015	0,063
-386,248	186,731	0,040	0,044
-385,233	45,003	0,102	0,069
-384,219	-170,620	-0,161	-0,004
-383,204	800,000	-0,048	-0,101
-382,190	-200,000	-0,120	-0,000
-381,175	-74,216	-0,060	-0,016
-380,160	-124,787	0,132	-0,015
-379,146	69,629	-0,069	0,052
-378,131	-200,000	0,013	0,112
-377,117	128,669	0,012	0,011
-376,102	-34,558	-0,107	-0,043
-375,088	-74,694	0,135	-0,035
-374,073	-200,000	0,006	-0,094
-373,058	775,621	0,037	-0,075
-372,044	49,817	0,010	0,007
-371,029	-50,316	0,067	-0,023
-370,015	-32,450	-0,008	-0,003
-369,000	159,819	-0,020	-0,020
-367,985	-198,016	-0,099	0,000
-366,971	42,154	0,076	-0,050
-365,956	364,407	-0,038	0,056
-364,942	87,928	0,076	0,062
-363,927	-32,934	0,101	-0,041
-362,912	-200,000	0,009	-0,037
-361,898	-146,155	-0,073	0,005
-360,883	-65,150	0,067	-0,020
-359,869	785,897	-0,055	0,112
-358,854	567,443	0,043	0,076
-357,839	571,215	0,043	0,077
-356,825	535,115	-0,027	0,047
-355,810	334,952	-0,047	0,067
-354,796	-200,000	0,000	0,074
-353,781	-14,665	-0,100	0,047
-352,766	-200,000	-0,011	-0,064
-351,752	83,199	0,026	-0,021
-350,737	-119,571	0,067	0,008
-349,723	-85,195	0,150	0,034
-348,708	-200,000	-0,024	0,120
-347,693	596,207	0,052	-0,095
-346,679	390,579	-0,059	0,090
-345,664	137,015	0,085	0,082
-344,650	512,858	0,020	0,034
-343,635	-200,000	-0,012	-0,076
-342,620	-93,423	0,088	0,018
-341,606	92,141	0,077	0,064
-340,591	178,895	-0,064	0,068
-339,577	-200,000	0,001	-0,083
-338,562	800,000	-0,056	-0,115
-337,548	-200,000	-0,000	-0,022
-336,533	-22,328	0,134	0,059
-335,518	-173,567	0,076	-0,002
-334,504	800,000	0,019	0,050
-333,489	-200,000	-0,015	-0,100
-332,475	5,319	-0,102	0,055
-331,460	269,049	-0,144	-0,185
-330,445	-170,791	0,155	0,004
-329,431	-200,000	-0,002	0,069
-328,416	16,073	0,083	0,048
-327,402	-30,275	0,089	-0,037
-326,387	264,212	-0,075	-0,096
-325,372	61,019	-0,106	-0,077
-324,358	-200,000	-0,004	-0,062
-323,343	28,260	-0,026	0,016
-322,329	-144,110	-0,073	-0,005
-321,314	213,561	-0,041	-0,048
-320,299	-88,988	-0,059	0,013
-319,285	42,866	0,076	-0,051
-318,270	441,507	0,012	0,019
-317,256	121,694	-0,114	-0,104
-316,241	272,830	0,036	-0,046
-315,226	800,000	0,038	0,081
-314,212	103,137	0,061	-0,053
-313,197	-200,000	0,026	0,139
-312,183	-200,000	-0,038	-0,236
-311,168	661,914	-0,044	-0,084
-310,153	-52,299	0,080	0,027
-309,139	800,000	0,012	-0,034
-308,124	135,809	0,051	-0,049
-307,110	-200,000	-0,000	-0,046
-306,095	216,295	0,009	0,011
-305,080	800,000	0,043	0,095
-304,066	118,908	0,018	0,017
-303,051	-57,327	-0,104	-0,033
-302,037	-200,000	-0,036	-0,125
-301,022	-98,813	-0,108	0,020
-300,008	171,687	0,041	0,043
-298,993	-200,000	0,004	-0,095
-297,978	-200,000	-0,018	-0,119
-296,964	-55,555	0,048	0,016
-295,949	-89,318	-0,004	0,001
-294,935	-200,000	-0,003	-0,072
-293,920	68,779	0,089	-0,067
-292,905	-200,000	0,000	0,120
-291,891	753,815	-0,021	0,041
-290,876	-200,000	-0,009	-0,056
-289,862	344,374	-0,061	0,088
-288,847	-168,004	-0,196	0,005
-287,832	-166,745	-0,118	0,003
-286,818	401,459	-0,086	-0,132
-285,803	-200,000	0,002	-0,041
-284,789	800,000	0,039	0,126
-283,774	-23,867	0,058	-0,025
-282,759	-200,000	-0,002	0,058
-281,745	-45,573	0,164	-0,059
-280,730	-200,000	-0,013	0,089
-279,716	-200,000	0,004	0,084
-278,701	4,505	0,089	-0,048
-277,686	-135,313	0,228	0,020
-276,672	186,414	-0,039	-0,043
-275,657	-200,000	0,007	0,038
-274,643	-200,000	-0,028	-0,167
-273,628	98,486	0,021	0,017
-272,613	373,672	-0,040	-0,060
-271,599	136,321	0,093	-0,089
-270,584	61,265	-0,152	-0,110
-269,570	161,534	-0,032	0,032
-268,555	-91,756	0,116	0,024
-267,540	-10,384	-0,147	0,071
-266,526	170,179	0,006	-0,006
-265,511	569,623	0,065	-0,117
-264,497	329,035	-0,096	-0,135
-263,482	-200,000	-0,002	0,162
-262,467	-88,977	0,066	0,014
-261,453	-200,000	-0,020	-0,077
-260,438	-107,943	0,105	0,017
-259,424	-54,327	-0,091	-0,030
-258,409	800,000	0,032	0,066
-257,395	444,936	0,037	0,060
-256,380	-171,327	0,108	0,003
-255,365	800,000	0,022	-0,058
-254,351	-19,721	-0,084	0,038
-253,336	17,498	0,009	0,005
-252,322	-0,549	0,038	-0,019
-251,307	-65,683	0,028	-0,008
-250,292	601,147	-0,047	0,085
-249,278	477,541	0,025	-0,042
-248,263	-200,000	-0,002	0,100
-247,249	-200,000	0,020	0,157
-246,234	-78,699	-0,020	0,005
-245,219	-200,000	0,026	-0,162
-244,205	-91,399	-0,101	0,021
-243,190	-129,691	-0,103	-0,010
-242,176	-200,000	-0,002	0,098
-241,161	314,605	0,099	0,136
-240,146	-58,062	-0,017	0,005
-239,132	593,745	0,025	-0,045
-238,117	-200,000	-0,017	0,137
-237,103	455,076	0,040	-0,065
-236,088	800,000	-0,015	-0,035
-235,073	-200,000	-0,013	-0,094
-234,059	222,496	0,021	0,025
-233,044	-39,359	0,050	0,019
-232,030	800,000	-0,047	-0,139
-231,015	-127,657	0,119	0,012
-230,000	-200,000	0,008	-0,068
-228,986	106,807	-0,111	-0,096
-227,971	708,664	0,017	-0,034
-226,957	-18,933	0,107	0,048
-225,942	-200,000	0,002	-0,079
-224,927	800,000	0,033	-0,071
-223,913	52,239	-0,057	0,040
-222,898	5,318	0,033	0,018
-221,884	-200,000	0,035	0,117
-220,869	-138,065	0,063	0,005
-219,855	-200,000	0,020	0,140
-218,840	800,000	-0,059	-0,150
-217,825	155,469	0,071	0,072
-216,811	593,200	0,053	0,096
-215,796	-200,000	0,006	-0,084
-214,782	773,712	-0,063	0,126
-213,767	144,462	0,113	0,110
-212,752	1,642	-0,060	0,032
-211,738	-200,000	-0,001	0,054
-210,723	-200,000	0,009	-0,053
-209,709	800,000	-0,077	0,167
-208,694	131,757	-0,143	-0,135
-207,679	-41,704	-0,103	-0,038
-206,665	322,356	0,094	-0,131
-205,650	18,756	-0,027	-0,016
-204,636	177,620	0,046	0,048
-203,621	-72,523	0,019	0,005
-202,606	8,336	-0,084	-0,046
-201,592	800,000	0,053	-0,127
-200,577	142,898	-0,028	-0,027
-199,563	-42,346	-0,161	-0,060
-198,548	310,431	0,099	0,136
-197,533	-78,176	0,085	0,021
-196,519	-1,554	-0,023	0,012
-195,504	-92,745	0,056	0,011
-194,490	162,568	0,144	-0,147
-193,475	164,119	0,081	-0,083
-192,460	192,681	-0,043	0,048
-191,446	382,489	-0,020	-0,030
-190,431	198,973	0,007	0,008
-189,417	43,468	-0,025	0,016
-188,402	-65,676	-0,133	0,038
-187,387	-200,000	0,002	0,010
-186,373	18,528	-0,095	0,055
-185,358	162,196	-0,051	0,053
-184,344	121,489	-0,080	0,072
-183,329	-200,000	0,017	0,073
-182,315	-200,000	0,065	0,000
-181,300	-182,251	-0,058	-0,001
-180,285	800,000	-0,066	-0,154
-179,271	-163,524	-0,083	-0,003
-178,256	-56,651	0,052	0,017
-177,242	-144,052	0,084	-0,006
-176,227	-200,000	-0,006	0,113
-175,212	265,202	0,093	0,119
-174,198	-200,000	-0,013	-0,155
-173,183	-125,039	0,051	-0,006
-172,169	-200,000	-0,002	0,036
-171,154	-200,000	-0,012	0,070
-170,139	-130,213	0,130	-0,013
-169,125	28,223	0,040	0,024
-168,110	34,273	-0,019	0,012
-167,096	122,669	0,039	-0,036
-166,081	-200,000	-0,094	0,000
-165,066	-200,000	0,020	-0,078
-164,052	-39,491	-0,062	-0,023
-163,037	70,059	0,039	-0,029
-162,023	800,000	0,020	-0,046
-161,008	-200,000	-0,012	-0,047
-159,993	644,029	-0,042	0,078
-158,979	-61,160	0,117	0,036
-157,964	-200,000	-0,000	0,097
-156,950	-100,042	-0,100	-0,018
-155,935	-200,000	0,010	0,038
-154,920	796,392	0,042	0,085
-153,906	235,437	0,047	0,057
-152,891	371,523	-0,063	-0,093
-151,877	799,422	-0,074	-0,149
-150,862	-200,000	0,009	-0,132
-149,847	367,679	0,049	-0,072
-148,833	114,772	-0,035	0,031
-147,818	800,000	0,029	0,083
-146,804	-86,049	0,092	-0,020
-145,789	800,000	-0,043	0,102
-144,775	-98,283	0,080	-0,015
-143,760	800,000	-0,019	-0,044
-142,745	-6,588	0,100	0,049
-141,731	720,569	-0,008	-0,016
-140,716	-200,000	-0,001	-0,013
-139,702	-86,599	0,101	0,022
-138,687	310,002	-0,047	0,064
-137,672	800,000	-0,021	-0,067
-136,658	49,238	-0,084	0,057
-135,643	-162,287	0,059	0,002
-134,629	560,272	0,046	-0,081
-133,614	800,000	0,042	-0,098
-132,599	-81,934	0,027	0,006
-131,585	800,000	0,067	0,165
-130,570	-21,772	0,048	-0,021
-129,556	-92,501	-0,056	0,011
-128,541	-200,000	0,003	0,124
-127,526	800,000	0,009	0,024
-126,512	-200,000	0,001	0,049
-125,497	-200,000	0,003	0,096
-124,483	346,747	-0,095	-0,137
-123,468	-200,000	-0,025	0,083
-122,453	-200,000	0,025	-0,157
-121,439	-62,243	0,082	-0,025
-120,424	800,000	0,023	-0,049
-119,410	-38,278	0,084	0,032
-118,395	800,000	0,052	0,109
-117,380	800,000	0,018	0,038
-116,366	472,666	0,031	-0,051
-115,351	56,390	0,063	0,045
-114,337	596,040	-0,047	0,085
-113,322	800,000	-0,063	0,184
-112,307	68,145	0,077	-0,058
-111,293	565,558	-0,032	0,057
-110,278	1,436	0,027	0,014
-109,264	800,000	-0,030	-0,081
-108,249	-163,184	-0,015	0,001
-107,234	-94,700	-0,093	-0,018
-106,220	-1,946	0,152	0,077
-105,205	141,659	-0,063	-0,061
-104,191	-63,790	0,118	-0,035
-103,176	-109,286	-0,099	0,015
-102,162	-200,000	0,002	-0,017
-101,147	645,980	-0,013	0,024
-100,132	-63,971	0,120	-0,035
-99,118	132,111	-0,147	-0,137
-98,103	-200,000	0,008	-0,059
-97,089	-69,776	0,068	-0,019
-96,074	-180,815	0,076	-0,001
-95,059	-200,000	-0,012	0,055
-94,045	430,120	-0,053	-0,084
-93,030	-32,502	0,017	-0,007
-92,016	-62,562	-0,102	-0,031
-91,001	-40,092	-0,046	0,017
-89,986	9,959	0,124	0,068
-88,972	144,074	-0,061	-0,059
-87,957	90,477	0,128	-0,104
-86,943	-50,997	0,124	0,042
-85,928	521,474	-0,024	-0,041
-84,913	-169,067	0,064	-0,002
-83,899	-200,000	-0,033	-0,134
-82,884	756,493	-0,018	0,036
-81,870	-88,980	0,135	0,029
-80,855	-74,115	-0,085	-0,022
-79,840	-81,707	0,035	-0,008
-78,826	-200,000	-0,020	-0,105
-77,811	-110,322	-0,142	0,021
-76,797	200,823	0,063	-0,070
-75,782	104,377	-0,024	0,021
-74,767	104,270	0,112	0,096
-73,753	-200,000	-0,018	0,095
-72,738	723,167	-0,017	0,034
-71,724	-93,652	-0,152	-0,030
-70,709	235,944	-0,007	-0,008
-69,694	154,757	0,106	0,106
-68,680	-200,000	0,014	0,061
-67,665	118,286	-0,074	0,066
-66,651	337,337	0,018	-0,026
-65,636	800,000	0,054	0,157
-64,622	173,941	0,112	-0,118
-63,607	-200,000	-0,027	-0,107
-62,592	178,695	0,084	0,089
-61,578	-43,418	-0,049	0,018
-60,563	-200,000	0,022	-0,087
-59,549	-200,000	0,003	-0,015
-58,534	-69,579	-1,558	-0,429
-57,519	800,000	-0,622	-1,379
-56,505	-200,000	-1,094	-4,680
-55,490	-82,859	0,755	-0,175
-54,476	800,000	5,149	11,936
-53,461	-200,000	15,038	265,075
-52,446	-200,000	695,684	2226,256
-51,432	571,283	1617,256	2865,374
-50,417	121,152	1627,702	1468,498
-49,403	82,350	1284,608	1009,347
-48,388	37,924	1024,441	658,637
-47,373	22,484	984,913	582,294
-46,359	21,477	973,939	572,469
-45,344	20,100	969,453	565,294
-44,330	20,158	968,214	564,738
-43,315	19,946	966,679	563,127
-42,300	19,910	965,648	562,388
-41,286	19,903	964,678	561,777
-40,271	19,853	963,623	560,976
-39,257	19,904	962,946	560,728
-38,242	19,862	962,062	560,054
-37,227	19,900	961,343	559,737
-36,213	19,828	960,372	558,915
-35,198	19,818	959,627	558,426
-34,184	19,894	958,758	558,145
-33,169	19,868	957,786	557,473
-32,154	19,928	956,770	557,053
-31,140	19,922	955,870	556,489
-30,125	19,905	955,221	556,033
-29,111	19,843	954,548	555,418
-28,096	19,888	953,872	555,150
-27,082	19,819	953,170	554,495
-26,067	19,839	952,294	554,027
-25,052	19,855	951,409	553,541
-24,038	19,834	950,872	553,139
-23,023	19,812	950,441	552,797
-22,009	19,878	949,643	552,523
-20,994	19,845	948,925	551,977
-19,979	19,793	948,572	551,585
-18,965	19,867	947,625	551,249
-17,950	19,901	947,129	551,049
-16,936	19,792	946,467	550,291
-15,921	19,752	945,686	549,687
-14,906	19,755	944,941	549,242
-13,892	19,745	944,316	548,825
-12,877	19,699	943,813	548,364
-11,863	19,665	943,215	547,887
-10,848	19,732	942,743	547,805
-9,833	19,829	942,236	547,796
-8,819	19,737	941,675	547,156
-7,804	19,746	940,864	546,690
-6,790	19,683	940,545	546,286
-5,775	19,845	939,600	546,227
-4,760	19,813	938,987	545,748
-3,746	19,734	938,421	545,147
-2,731	19,578	937,724	544,226
-1,717	19,561	937,255	543,877
-0,702	19,601	936,442	543,511
0,313	19,386	935,777	543,267
1,327	22,347	934,025	551,550
2,342	31,572	794,196	493,546
3,356	28,754	449,574	275,120
4,371	-1,422	294,450	149,950
5,386	-5,665	275,771	136,392
6,400	-7,106	270,042	132,204
7,415	-7,364	267,636	130,775
8,429	-6,934	266,426	130,568
9,444	-7,009	265,599	130,083
10,459	-6,900	264,964	129,859
11,473	-7,131	264,393	129,357
12,488	-7,058	263,953	129,197
13,502	-7,156	263,309	128,781
14,517	-7,134	263,015	128,646
15,531	-6,980	262,657	128,599
16,546	-6,761	262,244	128,583
17,561	-6,982	261,931	128,219
18,575	-6,988	261,725	128,101
19,590	-7,028	261,301	127,846
20,604	-6,946	261,017	127,770
21,619	-6,831	260,663	127,688
22,634	-6,972	260,391	127,417
23,648	-7,140	260,128	127,126
24,663	-6,811	259,748	127,223
25,677	-6,966	259,621	127,012
26,692	-6,907	259,297	126,895
27,707	-6,990	259,142	126,733
28,721	-7,111	258,820	126,457
29,736	-6,792	258,400	126,524
30,750	-7,001	258,399	126,326
31,765	-7,116	258,076	126,055
32,780	-7,001	257,826	126,023
33,794	-6,956	257,541	125,913
34,809	-6,988	257,494	125,850
35,823	-7,136	257,178	125,554
36,838	-7,033	257,035	125,563
37,853	-7,063	256,679	125,352
38,867	-7,027	256,265	125,170
39,882	-7,209	256,238	124,985
40,896	-7,227	256,059	124,871
41,911	-7,115	255,805	124,835
42,926	-7,023	255,489	124,750
43,940	-7,182	255,374	124,544
44,955	-7,038	255,125	124,537
45,969	-7,272	254,905	124,214
46,984	-7,533	254,619	123,835
47,999	-7,365	254,214	123,773
49,013	-7,601	254,146	123,523
50,028	-7,708	253,840	123,270
51,042	-7,594	253,504	123,195
52,057	-7,831	253,421	122,937
53,071	-7,700	253,182	122,925
54,086	-7,554	252,983	122,943
55,101	-7,651	252,982	122,848
56,115	-7,436	252,822	122,946
57,130	-6,987	252,636	123,235
58,144	-6,871	252,463	123,240
59,159	-6,782	252,215	123,185
60,174	-6,861	252,017	123,009
61,188	-6,717	251,633	122,935
62,203	-6,912	251,596	122,737
63,217	-6,964	251,357	122,565
64,232	-6,921	251,158	122,494
65,247	-6,966	250,928	122,332
66,261	-6,870	250,684	122,285
67,276	-7,101	250,552	122,011
68,290	-7,368	250,199	121,599
69,305	-7,458	249,904	121,368
70,320	-7,332	249,775	121,402
71,334	-7,271	249,757	121,435
72,349	-6,961	249,580	121,603
73,363	-6,840	249,320	121,569
74,378	-6,971	249,196	121,387
75,393	-6,998	248,953	121,234
76,407	-7,066	248,627	121,006
77,422	-6,957	248,573	121,062
78,436	-6,975	248,397	120,951
79,451	-6,897	248,047	120,836
80,466	-6,810	247,816	120,786
81,480	-7,183	247,623	120,365
82,495	-7,409	247,425	120,066
83,509	-6,953	247,233	120,349
84,524	-6,990	247,081	120,233
85,539	-7,199	246,850	119,932
86,553	-7,425	246,708	119,662
87,568	-7,345	246,521	119,628
88,582	-7,233	246,322	119,616
89,597	-7,215	246,019	119,472
90,611	-6,997	245,836	119,557
91,626	-6,863	245,871	119,676
92,641	-6,989	245,713	119,483
93,655	-6,939	245,420	119,371
94,670	-7,052	245,344	119,229
95,684	-7,051	244,932	119,018
96,699	-7,192	244,935	118,891
97,714	-7,144	244,671	118,793
98,728	-7,285	244,469	118,566
99,743	-7,347	244,214	118,380
100,757	-7,491	244,080	118,184
101,772	-7,193	243,826	118,299
102,787	-7,230	243,642	118,168
103,801	-7,339	243,573	118,033
104,816	-7,342	243,503	117,987
105,830	-6,939	243,321	118,224
106,845	-7,096	243,063	117,957
107,860	-7,216	242,929	117,782
108,874	-7,268	242,735	117,634
109,889	-7,263	242,448	117,489
110,903	-7,255	242,195	117,362
111,918	-7,446	242,272	117,231
112,933	-7,218	241,923	117,240
113,947	-7,282	241,825	117,129
114,962	-7,064	241,568	117,174
115,976	-7,174	241,470	117,025
116,991	-7,149	241,379	116,991
118,006	-7,181	241,140	116,839
119,020	-7,077	240,997	116,845
120,035	-7,024	240,858	116,811
121,049	-6,939	240,732	116,809
122,064	-6,751	240,441	116,812
123,079	-7,080	240,242	116,434
124,093	-7,026	239,989	116,346
125,108	-7,337	239,887	116,032
126,122	-7,323	239,710	115,947
127,137	-7,495	239,400	115,646
128,151	-7,396	239,292	115,665
129,166	-7,523	239,217	115,514
130,181	-7,434	238,920	115,433
131,195	-7,423	238,853	115,399
132,210	-7,242	238,783	115,503
133,224	-7,263	238,636	115,404
134,239	-7,113	238,380	115,393
135,254	-7,213	238,195	115,211
136,268	-7,216	237,934	115,072
137,283	-7,425	237,677	114,768
138,297	-7,589	237,487	114,532
139,312	-7,626	237,233	114,370
140,327	-7,432	237,090	114,448
141,341	-6,669	237,124	115,072
142,356	-6,975	237,028	114,768
143,370	-6,775	236,888	114,851
144,385	-6,761	236,730	114,775
145,400	-6,824	236,368	114,539
146,414	-6,781	236,363	114,561
147,429	-6,769	236,090	114,428
148,443	-6,887	235,953	114,257
149,458	-6,887	235,697	114,123
150,473	-6,914	235,737	114,110
151,487	-7,022	235,517	113,907
152,502	-6,954	235,405	113,897
153,516	-6,844	235,184	113,868
154,531	-6,697	235,020	113,896
155,546	-6,829	234,781	113,665
156,560	-6,956	234,660	113,494
157,575	-7,090	234,379	113,241
158,589	-7,168	234,280	113,121
159,604	-6,646	234,044	113,413
160,619	-6,717	233,950	113,301
161,633	-6,858	233,896	113,152
162,648	-6,735	233,650	113,121
163,662	-6,788	233,538	113,015
164,677	-6,872	233,311	112,828
165,692	-6,855	233,265	112,809
166,706	-6,663	233,096	112,870
167,721	-6,625	232,902	112,796
168,735	-6,757	232,929	112,694
169,750	-6,812	232,645	112,503
170,764	-6,829	232,481	112,401
171,779	-6,677	232,302	112,423
172,794	-6,689	232,163	112,338
173,808	-6,881	231,936	112,066
174,823	-7,274	231,661	111,613
175,837	-7,523	231,535	111,347
176,852	-7,169	231,483	111,591
177,867	-7,033	231,366	111,631
178,881	-6,899	231,214	111,653
179,896	-6,638	231,003	111,746
180,910	-6,884	230,843	111,466
181,925	-6,768	230,705	111,480
182,940	-6,789	230,441	111,326
183,954	-6,630	230,427	111,434
184,969	-6,547	230,283	111,419
185,983	-6,416	230,214	111,478
186,998	-6,515	230,002	111,288
188,013	-6,633	229,952	111,162
189,027	-6,690	229,653	110,963
190,042	-6,758	229,587	110,868
191,056	-6,645	229,232	110,775
192,071	-6,723	229,092	110,637
193,086	-6,825	229,000	110,503
194,100	-6,805	228,810	110,417
195,115	-7,117	228,437	109,985
196,129	-7,135	228,393	109,941
197,144	-3,592	229,757	113,349
198,159	0,804	230,909	117,343
199,173	4,125	231,810	120,389
200,188	4,509	231,734	120,638
201,202	4,457	231,581	120,507
202,217	4,775	231,453	120,678
203,232	4,705	231,402	120,587
204,246	4,785	231,214	120,540
205,261	4,885	231,014	120,503
206,275	5,184	231,016	120,726
207,290	5,151	230,736	120,543
208,304	5,051	230,577	120,372
209,319	5,065	230,386	120,272
210,334	4,787	230,369	120,036
211,348	4,831	229,842	119,785
212,363	4,405	229,755	119,400
213,377	4,428	229,460	119,254
214,392	4,336	229,284	119,081
215,407	4,166	229,198	118,894
216,421	4,389	229,098	119,003
217,436	4,221	228,907	118,765
218,450	4,104	228,544	118,476
219,465	3,913	228,551	118,322
220,480	3,865	228,444	118,218
221,494	3,936	228,276	118,176
222,509	4,200	228,190	118,324
223,523	4,031	228,134	118,155
224,538	4,005	227,936	118,021
225,553	4,167	227,744	118,036
226,567	4,234	227,580	117,991
227,582	4,405	227,581	118,112
228,596	4,491	227,615	118,185
229,611	4,426	227,291	117,957
230,626	4,497	226,777	117,733
231,640	4,164	226,849	117,506
232,655	4,383	226,815	117,645
233,669	4,641	226,826	117,837
234,684	4,964	226,575	117,942
235,699	4,560	226,469	117,569
236,713	4,221	226,231	117,177
237,728	4,062	226,069	116,962
238,742	4,071	225,754	116,795
239,757	4,249	225,645	116,863
240,772	4,316	225,484	116,820
241,786	4,297	225,258	116,679
242,801	4,378	225,340	116,772
243,815	4,519	225,252	116,823
244,830	4,705	225,064	116,855
245,844	4,200	224,858	116,357
246,859	4,198	224,688	116,256
247,874	4,550	224,569	116,450
248,888	4,493	224,454	116,337
249,903	4,405	224,196	116,127
250,917	4,259	224,086	115,949
251,932	3,993	224,096	115,745
252,947	4,043	223,811	115,625
253,961	4,011	223,637	115,500
254,976	4,140	223,502	115,517
255,990	4,435	223,341	115,644
257,005	4,177	223,257	115,398
258,020	4,515	223,142	115,581
259,034	4,582	223,004	115,549
260,049	4,496	222,873	115,407
261,063	4,306	222,744	115,188
262,078	4,499	222,737	115,318
263,093	4,645	222,457	115,271
264,107	4,587	222,272	115,122
265,122	4,555	222,247	115,075
266,136	4,886	222,043	115,206
267,151	4,442	222,017	114,851
268,166	4,388	221,557	114,563
269,180	3,937	221,446	114,161
270,195	3,938	221,319	114,086
271,209	4,053	221,282	114,142
272,224	4,101	221,178	114,114
273,239	4,280	220,959	114,123
274,253	4,149	220,812	113,940
275,268	3,894	220,610	113,637
276,282	3,737	220,470	113,439
277,297	3,803	220,393	113,438
278,312	3,916	220,159	113,391
279,326	3,877	220,150	113,347
280,341	4,216	219,928	113,473
281,355	4,178	219,907	113,423
282,370	4,380	219,639	113,424
283,384	4,122	219,594	113,201
284,399	4,023	219,242	112,937
285,414	4,052	219,138	112,894
286,428	4,240	219,177	113,042
287,443	4,178	219,124	112,960
288,457	4,300	218,975	112,962
289,472	4,135	218,573	112,624
290,487	4,015	218,293	112,382
291,501	3,686	218,169	112,068
292,516	3,739	218,224	112,125
293,530	3,624	218,166	112,001
294,545	3,933	217,886	112,073
295,560	4,064	217,850	112,139
296,574	4,123	217,725	112,108
297,589	4,074	217,659	112,028
298,603	4,282	217,292	111,981
299,618	4,216	217,281	111,917
300,633	4,367	217,142	111,945
301,647	4,394	217,033	111,898
302,662	4,506	217,054	111,980
303,676	4,251	216,792	111,650
304,691	4,367	216,667	111,660
305,706	4,338	216,582	111,585
306,720	4,511	216,452	111,633
307,735	4,217	216,097	111,228
308,749	4,099	216,065	111,117
309,764	4,217	215,972	111,145
310,779	4,566	215,844	111,320
311,793	4,546	215,672	111,207
312,808	4,388	215,498	110,993
313,822	4,188	215,442	110,811
314,837	4,195	215,243	110,704
315,852	4,048	215,029	110,478
316,866	3,972	214,980	110,389
317,881	4,519	214,762	110,659
318,895	4,352	214,663	110,479
319,910	4,222	214,450	110,266
320,925	4,020	214,248	110,008
321,939	3,725	214,037	109,679
322,954	3,681	214,043	109,641
323,968	4,373	213,983	110,094
324,983	4,231	213,921	109,952
325,997	4,398	213,865	110,032
327,012	4,286	213,632	109,822
328,027	4,205	213,419	109,646
329,041	4,496	213,488	109,878
330,056	4,709	213,281	109,913
331,070	4,274	213,039	109,470
332,085	3,857	212,703	108,992
333,100	4,240	212,649	109,226
334,114	4,299	212,686	109,277
335,129	3,949	212,554	108,952
336,143	3,988	212,340	108,860
337,158	4,106	212,181	108,852
338,173	4,109	212,109	108,808
339,187	3,965	211,757	108,516
340,202	3,773	211,676	108,330
341,216	3,801	211,526	108,262
342,231	4,000	211,495	108,377
343,246	3,931	211,326	108,232
344,260	4,034	211,104	108,181
345,275	4,199	211,110	108,291
346,289	4,363	211,098	108,390
347,304	4,300	211,116	108,345
348,319	4,026	210,761	107,961
349,333	4,051	210,669	107,922
350,348	4,428	210,495	108,087
351,362	4,293	210,622	108,048
352,377	4,342	210,344	107,930
353,392	4,307	210,210	107,827
354,406	4,145	209,989	107,591
355,421	194,768	1342,373	1431,923
356,435	155,497	1480,400	1431,987
