DTS Sentinel unit serial number:	SN410029Multiplexer serial number:	ORYXHardware model number:	OX2-SRSoftware version number:	ORYX F/W v4,00 Oryx Data Collector v3.7.2.0data status	okinstallation	B6 Nyhavnadifferential loss correction	single-endedforward channel	channel 2reverse channel	N/Adate	2023/12/08time	08:55:08forward acquisition time	300,00reverse acquisition time	0,00gamma	499,1914k internal	0,3169k external	0,3169temperature offset calibration	1,0000default loss term (dB/km)	0,3820temperature slope calibration	1,0000multiplexer offset coefficient	1,0000multiplexer slope coefficient	1,0000fibre end	0,00T internal ref (°C)	12,64T ext. ref 1 (°C)	-2,26T ext. ref 2 (°C)	-2,21length (m)	temperature (°C)	Stokes	anti-Stokes-744,400	-103,604	0,108	0,018
-743,385	-185,359	-0,456	-0,005
-742,371	98,549	0,129	0,109
-741,356	-86,070	-0,309	0,070
-740,342	11,392	0,154	0,086
-739,327	-111,596	-0,239	0,035
-738,312	27,046	0,100	0,062
-737,298	-90,950	-0,199	0,042
-736,283	-49,548	0,068	-0,024
-735,269	-43,442	-0,277	-0,102
-734,254	68,107	0,161	0,121
-733,239	16,416	-0,496	-0,287
-732,225	83,234	0,160	0,128
-731,210	-200,000	-0,006	0,021
-730,196	-27,080	0,087	-0,037
-729,181	-105,756	-0,292	-0,048
-728,167	-200,000	0,026	-0,087
-727,152	-150,225	-0,049	0,003
-726,137	37,236	0,076	0,049
-725,123	63,304	-0,213	-0,157
-724,108	60,979	-0,148	-0,107
-723,094	293,851	0,045	-0,060
-722,079	31,491	0,042	-0,027
-721,064	79,372	0,029	0,023
-720,050	-200,000	-0,005	-0,022
-719,035	-112,770	-0,054	-0,008
-718,021	-200,000	-0,029	-0,177
-717,006	355,237	-0,123	-0,181
-715,991	-200,000	0,016	-0,153
-714,977	800,000	0,015	0,039
-713,962	800,000	-0,013	0,030
-712,948	507,635	-0,016	-0,027
-711,933	450,108	0,052	0,084
-710,918	-109,459	-0,199	-0,031
-709,904	800,000	0,058	-0,129
-708,889	-20,257	-0,082	-0,037
-707,875	282,332	-0,063	0,083
-706,860	-61,879	-0,019	-0,006
-705,845	107,805	0,073	0,064
-704,831	-82,206	0,120	0,029
-703,816	9,533	0,104	-0,057
-702,802	-22,336	-0,138	-0,061
-701,787	800,000	0,026	-0,083
-700,772	-157,139	-0,149	-0,007
-699,758	800,000	0,049	0,145
-698,743	77,976	0,034	0,027
-697,729	26,545	0,094	-0,057
-696,714	-200,000	-0,002	-0,036
-695,699	97,515	-0,177	-0,149
-694,685	0,618	0,084	0,044
-693,670	-200,000	-0,008	-0,038
-692,656	466,417	0,062	-0,102
-691,641	60,263	0,089	-0,065
-690,627	-200,000	0,001	0,155
-689,612	-25,873	-0,039	-0,017
-688,597	-200,000	-0,026	0,100
-687,583	-200,000	-0,005	-0,064
-686,568	567,804	-0,087	-0,156
-685,554	-200,000	0,005	-0,036
-684,539	-102,488	-0,064	0,011
-683,524	265,464	0,090	0,116
-682,510	-38,604	-0,117	0,045
-681,495	273,499	0,041	-0,053
-680,481	717,350	0,049	-0,097
-679,466	-200,000	0,022	-0,155
-678,451	-200,000	-0,005	-0,047
-677,437	429,953	0,058	0,092
-676,422	25,214	-0,082	0,050
-675,408	800,000	0,018	-0,045
-674,393	-200,000	-0,013	-0,061
-673,378	-200,000	0,016	-0,064
-672,364	83,560	-0,057	-0,046
-671,349	800,000	0,036	-0,105
-670,335	-200,000	0,009	-0,118
-669,320	-200,000	-0,006	0,099
-668,305	-163,893	0,127	0,004
-667,291	-156,956	-0,054	-0,002
-666,276	800,000	-0,060	-0,129
-665,262	259,932	-0,092	-0,117
-664,247	-200,000	-0,002	-0,032
-663,232	-200,000	0,014	-0,114
-662,218	-29,786	0,096	-0,040
-661,203	769,604	-0,042	0,083
-660,189	800,000	-0,026	0,059
-659,174	148,971	-0,132	-0,131
-658,159	-200,000	-0,011	-0,117
-657,145	258,193	-0,012	0,015
-656,130	53,076	0,027	-0,019
-655,116	-200,000	0,004	-0,030
-654,101	-200,000	0,020	-0,091
-653,086	57,705	-0,173	-0,124
-652,072	287,854	0,017	-0,023
-651,057	504,098	-0,017	-0,029
-650,043	160,565	-0,096	-0,098
-649,028	295,992	-0,020	-0,027
-648,014	94,789	-0,167	0,139
-646,999	800,000	-0,016	-0,036
-645,984	800,000	0,020	0,046
-644,970	-200,000	0,009	-0,058
-643,955	348,169	-0,064	-0,092
-642,941	-15,534	-0,108	-0,050
-641,926	-160,299	-0,029	0,001
-640,911	-69,119	0,037	0,010
-639,897	-200,000	-0,021	0,082
-638,882	-200,000	-0,003	0,036
-637,868	39,346	0,073	-0,048
-636,853	800,000	-0,043	-0,131
-635,838	-200,000	-0,015	0,109
-634,824	-200,000	0,009	-0,055
-633,809	-119,428	0,024	-0,003
-632,795	-200,000	0,010	0,034
-631,780	4,571	0,158	-0,085
-630,765	-92,164	-0,160	-0,033
-629,751	130,258	-0,158	-0,148
-628,736	264,347	0,046	0,058
-627,722	800,000	-0,008	-0,019
-626,707	-121,085	0,110	-0,013
-625,692	-200,000	-0,012	0,044
-624,678	546,413	0,021	-0,037
-623,663	800,000	0,025	-0,066
-622,649	132,940	-0,076	-0,072
-621,634	-200,000	-0,014	0,059
-620,619	-38,811	-0,071	-0,027
-619,605	-183,503	0,153	-0,002
-618,590	-200,000	0,002	-0,055
-617,576	-200,000	-0,013	0,054
-616,561	-200,000	0,007	0,033
-615,546	-32,325	-0,081	-0,033
-614,532	216,478	-0,080	-0,093
-613,517	-200,000	-0,030	-0,147
-612,503	-149,705	0,040	0,002
-611,488	-4,616	0,048	0,024
-610,474	-20,577	0,064	-0,028
-609,459	-54,828	0,019	0,006
-608,444	-200,000	-0,007	-0,030
-607,430	-200,000	0,008	-0,080
-606,415	-63,690	-0,087	-0,026
-605,401	-79,398	0,101	0,025
-604,386	171,756	0,038	-0,040
-603,371	-200,000	0,013	-0,052
-602,357	800,000	-0,026	-0,059
-601,342	-200,000	-0,012	-0,095
-600,328	-200,000	-0,019	-0,124
-599,313	-78,104	-0,188	0,047
-598,298	189,398	0,076	0,084
-597,284	800,000	0,024	-0,063
-596,269	-200,000	0,003	0,025
-595,255	46,264	-0,021	-0,014
-594,240	71,982	0,120	-0,091
-593,225	-143,073	-0,117	0,008
-592,211	31,886	-0,082	-0,051
-591,196	9,660	0,066	-0,036
-590,182	-200,000	0,025	-0,106
-589,167	-200,000	-0,007	-0,073
-588,152	94,140	0,043	0,035
-587,138	-200,000	0,025	-0,119
-586,123	-200,000	0,061	-0,204
-585,109	-200,000	0,034	0,135
-584,094	-200,000	-0,040	-0,141
-583,079	252,731	0,045	-0,056
-582,065	-31,132	0,010	0,004
-581,050	-148,322	0,023	-0,001
-580,036	-71,910	-0,113	-0,030
-579,021	800,000	0,049	-0,127
-578,006	-79,491	0,148	-0,036
-576,992	-81,384	-0,012	0,003
-575,977	341,414	0,081	-0,116
-574,963	-34,985	-0,045	-0,018
-573,948	-137,535	-0,098	-0,008
-572,934	-99,234	-0,119	0,022
-571,919	153,789	-0,123	-0,123
-570,904	17,478	0,071	-0,041
-569,890	36,701	-0,053	-0,034
-568,875	800,000	-0,040	-0,123
-567,861	-200,000	0,003	0,021
-566,846	523,657	-0,059	-0,102
-565,831	332,208	-0,008	0,011
-564,817	-110,826	-0,027	0,004
-563,802	800,000	-0,040	-0,091
-562,788	423,446	-0,023	-0,036
-561,773	-200,000	-0,015	-0,052
-560,758	359,087	-0,036	0,053
-559,744	800,000	0,034	-0,069
-558,729	-139,465	0,051	-0,004
-557,715	-200,000	-0,035	-0,147
-556,700	-136,395	-0,109	0,009
-555,685	-200,000	0,002	0,126
-554,671	700,872	0,023	0,045
-553,656	-54,905	-0,109	-0,036
-552,642	256,032	0,087	0,109
-551,627	-3,796	0,019	-0,010
-550,612	800,000	-0,060	0,158
-549,598	81,542	0,056	0,044
-548,583	-94,890	-0,104	0,020
-547,569	230,656	0,077	0,093
-546,554	657,132	0,064	0,120
-545,539	759,553	0,083	-0,164
-544,525	253,116	-0,132	0,165
-543,510	-200,000	-0,013	-0,062
-542,496	-200,000	-0,018	-0,164
-541,481	-59,983	0,056	0,017
-540,466	140,497	0,081	-0,078
-539,452	800,000	-0,027	-0,070
-538,437	159,178	0,061	0,062
-537,423	-200,000	0,014	0,055
-536,408	165,911	0,137	-0,141
-535,393	-200,000	-0,035	-0,181
-534,379	522,152	-0,059	0,102
-533,364	-156,206	-0,124	-0,006
-532,350	800,000	0,025	0,054
-531,335	451,932	0,041	0,066
-530,321	84,045	0,041	-0,032
-529,306	428,662	0,057	-0,089
-528,291	13,276	-0,096	0,054
-527,277	-200,000	-0,041	-0,184
-526,262	-65,051	0,110	0,032
-525,248	588,819	0,074	0,133
-524,233	-200,000	-0,002	-0,060
-523,218	-28,314	0,098	0,041
-522,204	137,240	0,023	0,022
-521,189	164,305	-0,087	-0,089
-520,175	167,648	-0,107	-0,111
-519,160	-200,000	-0,002	0,024
-518,145	85,575	-0,049	-0,039
-517,131	75,100	0,093	-0,071
-516,116	-96,472	-0,029	0,006
-515,102	-137,794	-0,095	0,008
-514,087	-200,000	-0,004	0,195
-513,072	18,644	0,057	0,033
-512,058	-33,948	-0,167	-0,067
-511,043	42,687	-0,092	0,061
-510,029	-200,000	-0,010	-0,067
-509,014	-1,319	0,033	-0,017
-507,999	800,000	0,018	0,046
-506,985	-200,000	-0,008	-0,083
-505,970	-200,000	-0,019	-0,085
-504,956	800,000	0,034	0,099
-503,941	289,185	0,009	-0,012
-502,926	-8,914	0,124	-0,060
-501,912	-200,000	0,010	-0,093
-500,897	147,377	-0,093	0,091
-499,883	63,064	-0,084	0,061
-498,868	800,000	-0,031	-0,071
-497,853	227,432	-0,087	0,103
-496,839	-200,000	-0,013	0,091
-495,824	69,233	-0,019	-0,014
-494,810	-200,000	-0,008	0,083
-493,795	800,000	-0,009	-0,026
-492,781	-200,000	-0,012	0,053
-491,766	-66,332	-0,028	-0,008
-490,751	-200,000	-0,020	0,115
-489,737	28,572	-0,043	0,027
-488,722	-171,478	0,092	0,002
-487,708	-200,000	-0,021	0,073
-486,693	800,000	0,033	0,080
-485,678	-118,913	-0,234	-0,030
-484,664	15,714	0,049	-0,028
-483,649	212,879	-0,009	-0,011
-482,635	-200,000	0,002	0,012
-481,620	800,000	0,024	0,061
-480,605	-158,501	0,089	-0,004
-479,591	193,033	0,044	-0,048
-478,576	240,496	0,064	0,078
-477,562	-200,000	0,005	0,079
-476,547	800,000	-0,036	-0,115
-475,532	-89,744	-0,077	0,016
-474,518	133,349	-0,045	0,042
-473,503	243,888	-0,060	0,073
-472,489	800,000	-0,036	0,087
-471,474	207,724	0,073	0,083
-470,459	71,435	-0,139	-0,105
-469,445	-200,000	-0,002	-0,116
-468,430	-200,000	-0,028	0,123
-467,416	-200,000	-0,014	-0,074
-466,401	-200,000	0,001	-0,045
-465,386	-200,000	-0,011	0,082
-464,372	800,000	-0,024	-0,072
-463,357	107,144	-0,017	-0,015
-462,343	193,526	-0,016	0,018
-461,328	-150,938	0,067	0,004
-460,313	800,000	0,051	-0,119
-459,299	-3,108	-0,119	-0,060
-458,284	-144,869	-0,102	-0,007
-457,270	-200,000	-0,002	0,047
-456,255	-63,085	0,077	-0,023
-455,241	101,388	-0,050	0,042
-454,226	370,523	-0,084	-0,124
-453,211	-12,797	0,160	-0,076
-452,197	-0,823	0,105	0,054
-451,182	800,000	0,050	0,104
-450,168	437,383	0,022	-0,034
-449,153	197,481	-0,116	-0,129
-448,138	-20,052	-0,135	0,060
-447,124	800,000	-0,031	0,067
-446,109	-200,000	0,012	0,041
-445,095	597,715	0,036	-0,065
-444,080	-24,404	-0,078	0,034
-443,065	-200,000	0,000	-0,154
-442,051	-13,421	-0,098	-0,046
-441,036	-200,000	-0,007	-0,075
-440,022	143,848	-0,085	-0,083
-439,007	-157,224	0,026	-0,001
-437,992	201,818	0,028	-0,031
-436,978	800,000	0,070	0,188
-435,963	-17,692	-0,143	-0,065
-434,949	20,853	-0,027	0,016
-433,934	-200,000	0,037	0,135
-432,919	141,568	-0,068	-0,065
-431,905	-5,380	-0,061	0,030
-430,890	800,000	-0,036	0,086
-429,876	-200,000	0,027	0,129
-428,861	200,011	-0,029	-0,032
-427,846	117,351	0,041	-0,037
-426,832	-200,000	0,005	-0,040
-425,817	-200,000	-0,013	0,074
-424,803	-200,000	-0,019	-0,089
-423,788	-69,987	0,082	0,022
-422,773	568,168	0,089	0,157
-421,759	-29,448	0,063	0,026
-420,744	-200,000	-0,009	0,095
-419,730	-21,727	-0,059	0,026
-418,715	800,000	0,066	-0,150
-417,701	-96,205	-0,066	0,013
-416,686	-79,745	0,149	-0,036
-415,671	653,909	-0,021	-0,040
-414,657	-23,871	-0,113	0,049
-413,642	-198,161	0,076	-0,000
-412,628	800,000	-0,023	-0,072
-411,613	-27,590	0,027	-0,011
-410,598	-200,000	-0,004	-0,053
-409,584	800,000	-0,049	0,109
-408,569	-110,735	-0,078	0,012
-407,555	-63,720	0,112	0,033
-406,540	800,000	0,016	-0,034
-405,525	-92,583	-0,083	-0,017
-404,511	89,787	0,134	-0,108
-403,496	-35,525	-0,087	-0,034
-402,482	693,128	0,028	0,054
-401,467	-110,404	0,097	0,014
-400,452	-39,874	0,025	-0,009
-399,438	-92,274	-0,047	0,010
-398,423	800,000	0,048	0,112
-397,409	119,675	0,007	-0,006
-396,394	213,512	0,064	0,073
-395,379	-162,960	0,035	0,001
-394,365	-87,219	0,208	-0,045
-393,350	800,000	0,025	0,064
-392,336	-32,580	-0,047	0,019
-391,321	800,000	0,035	0,085
-390,306	-200,000	0,008	0,058
-389,292	-200,000	-0,046	0,157
-388,277	-65,551	-0,078	-0,023
-387,263	-200,000	-0,002	0,064
-386,248	-150,874	0,021	-0,001
-385,233	203,477	-0,041	-0,046
-384,219	-102,097	0,205	0,035
-383,204	-137,382	0,111	-0,009
-382,190	-55,136	-0,161	0,052
-381,175	-169,275	0,066	-0,002
-380,160	-57,743	0,073	-0,023
-379,146	-200,000	0,015	0,128
-378,131	35,200	0,090	0,057
-377,117	194,318	-0,023	0,025
-376,102	254,432	0,018	-0,023
-375,088	327,076	0,052	0,072
-374,073	-153,864	0,083	0,004
-373,058	127,991	-0,049	0,045
-372,044	-4,471	-0,112	-0,056
-371,029	100,893	0,042	-0,036
-370,015	50,063	-0,029	0,020
-369,000	-200,000	-0,006	0,027
-367,985	78,328	0,065	-0,050
-366,971	-200,000	-0,030	0,101
-365,956	-13,057	-0,025	0,012
-364,942	-104,083	0,021	-0,003
-363,927	-1,623	0,113	0,058
-362,912	-200,000	-0,000	0,049
-361,898	-46,495	-0,031	0,011
-360,883	147,797	-0,073	-0,071
-359,869	800,000	0,028	-0,062
-358,854	800,000	-0,017	-0,041
-357,839	126,352	0,087	0,080
-356,825	-200,000	-0,008	0,198
-355,810	-40,327	-0,068	0,025
-354,796	170,766	-0,075	0,078
-353,781	-71,319	-0,104	-0,028
-352,766	-200,000	0,001	-0,059
-351,752	207,126	-0,067	0,075
-350,737	223,566	-0,023	0,027
-349,723	800,000	-0,042	0,133
-348,708	-11,298	0,037	-0,018
-347,693	176,348	0,149	-0,157
-346,679	-35,308	0,105	-0,041
-345,664	139,334	-0,016	-0,015
-344,650	-17,843	0,112	-0,051
-343,635	47,029	0,090	0,061
-342,620	-200,000	-0,020	0,131
-341,606	244,702	0,060	-0,074
-340,591	214,771	-0,025	-0,028
-339,577	-100,793	-0,167	-0,030
-338,562	229,595	-0,081	0,096
-337,548	313,213	0,025	-0,034
-336,533	323,297	-0,043	0,059
-335,518	645,119	0,031	0,058
-334,504	800,000	-0,014	0,033
-333,489	-200,000	0,005	-0,079
-332,475	800,000	0,018	0,054
-331,460	281,759	0,015	-0,020
-330,445	208,289	0,071	0,081
-329,431	-200,000	-0,040	0,157
-328,416	800,000	0,079	0,234
-327,402	207,211	0,084	-0,094
-326,387	-200,000	0,011	-0,083
-325,372	-93,655	-0,071	-0,014
-324,358	202,853	-0,121	-0,135
-323,343	-200,000	0,036	-0,206
-322,329	357,221	0,063	0,090
-321,314	190,946	-0,089	-0,097
-320,299	67,109	0,083	0,061
-319,285	-38,488	0,140	0,053
-318,270	-200,000	-0,036	-0,152
-317,256	128,906	-0,026	-0,024
-316,241	-69,335	0,023	-0,006
-315,226	99,156	0,165	-0,137
-314,212	294,999	-0,078	0,104
-313,197	-141,991	-0,020	-0,001
-312,183	-64,302	-0,108	-0,032
-311,168	800,000	0,023	-0,066
-310,153	-200,000	-0,006	-0,149
-309,139	-200,000	0,022	0,117
-308,124	-200,000	-0,012	0,061
-307,110	-200,000	-0,082	-0,000
-306,095	-200,000	-0,005	-0,070
-305,080	-126,372	-0,061	-0,007
-304,066	262,688	0,052	0,066
-303,051	177,149	-0,105	-0,111
-302,037	-48,171	-0,137	-0,047
-301,022	310,732	0,069	0,094
-300,008	387,136	0,038	0,057
-298,993	800,000	0,008	0,018
-297,978	-200,000	0,007	-0,065
-296,964	-200,000	-0,015	-0,245
-295,949	-123,917	0,167	-0,019
-294,935	280,181	-0,078	-0,100
-293,920	439,356	0,091	-0,144
-292,905	-65,056	0,078	-0,023
-291,891	800,000	0,018	0,053
-290,876	306,634	-0,087	0,117
-289,862	146,839	-0,081	0,079
-288,847	-200,000	0,013	-0,145
-287,832	36,825	-0,017	-0,011
-286,818	-71,822	-0,076	0,020
-285,803	74,602	-0,025	-0,019
-284,789	-32,628	0,045	0,018
-283,774	-200,000	0,010	0,031
-282,759	-36,813	0,206	-0,079
-281,745	-177,869	-0,090	0,002
-280,730	-22,750	-0,065	-0,028
-279,716	8,013	0,032	-0,017
-278,701	-28,149	0,116	-0,048
-277,686	-200,000	0,018	-0,131
-276,672	129,195	0,088	-0,081
-275,657	359,089	-0,084	-0,122
-274,643	193,954	0,068	0,074
-273,628	-75,760	-0,195	-0,049
-272,613	800,000	-0,030	-0,073
-271,599	-76,321	0,131	0,033
-270,584	373,411	-0,061	0,090
-269,570	-200,000	-0,002	0,050
-268,555	534,138	-0,081	0,140
-267,540	27,574	0,092	0,056
-266,526	97,136	-0,031	-0,025
-265,511	-200,000	-0,009	0,065
-264,497	799,070	0,040	0,081
-263,482	177,041	0,021	0,022
-262,467	-11,269	0,075	0,036
-261,453	225,284	0,086	0,101
-260,438	-200,000	0,017	0,107
-259,424	-200,000	0,001	-0,018
-258,409	800,000	0,016	0,036
-257,395	18,204	0,088	0,050
-256,380	-200,000	0,018	0,066
-255,365	786,086	0,066	0,131
-254,351	-200,000	-0,022	0,075
-253,336	588,605	0,049	-0,088
-252,322	156,940	-0,033	0,033
-251,307	66,178	-0,058	0,042
-250,292	-200,000	0,003	0,017
-249,278	211,487	0,051	-0,058
-248,263	4,141	0,133	0,070
-247,249	-41,653	-0,083	-0,031
-246,234	-88,044	-0,082	0,018
-245,219	-158,901	-0,108	0,004
-244,205	800,000	-0,031	-0,092
-243,190	-96,600	0,061	0,012
-242,176	-39,226	0,097	-0,037
-241,161	-200,000	0,005	-0,055
-240,146	22,419	-0,181	-0,106
-239,132	388,124	0,017	-0,026
-238,117	212,306	-0,057	0,064
-237,103	-200,000	-0,003	0,071
-236,088	-178,345	-0,154	-0,003
-235,073	-200,000	0,027	0,143
-234,059	92,956	0,109	-0,088
-233,044	105,160	-0,049	-0,042
-232,030	64,569	0,061	0,044
-231,015	-173,893	-0,098	-0,002
-230,000	800,000	0,003	-0,007
-228,986	393,406	0,044	0,067
-227,971	112,070	0,131	0,114
-226,957	134,713	-0,093	0,087
-225,942	-5,724	-0,088	-0,043
-224,927	-62,891	0,086	-0,025
-223,913	-200,000	-0,002	0,124
-222,898	-200,000	0,005	-0,076
-221,884	-55,118	-0,066	0,021
-220,869	24,168	-0,114	0,068
-219,855	383,556	-0,009	0,014
-218,840	260,872	-0,078	-0,097
-217,825	203,942	0,023	0,026
-216,811	50,840	-0,138	-0,094
-215,796	-200,000	0,027	-0,097
-214,782	-200,000	0,023	-0,076
-213,767	-69,397	0,144	0,039
-212,752	-157,068	0,070	-0,003
-211,738	-22,061	0,013	-0,006
-210,723	-200,000	0,012	0,058
-209,709	-200,000	-0,032	-0,140
-208,694	800,000	-0,026	0,075
-207,679	239,599	-0,119	0,143
-206,665	-43,552	0,063	-0,023
-205,650	248,825	0,069	-0,084
-204,636	139,426	0,141	0,134
-203,621	-200,000	-0,010	0,036
-202,606	-25,640	0,064	0,027
-201,592	-200,000	-0,005	-0,026
-200,577	480,570	-0,047	0,077
-199,563	-53,738	-0,082	0,027
-198,548	-131,186	0,149	0,014
-197,533	251,960	0,058	0,071
-196,519	228,444	-0,103	0,121
-195,504	-107,552	0,058	-0,009
-194,490	41,561	0,047	0,031
-193,475	-200,000	-0,015	-0,084
-192,460	34,688	0,074	-0,046
-191,446	-200,000	0,017	0,103
-190,431	141,888	-0,053	-0,051
-189,417	31,794	-0,101	0,062
-188,402	-110,166	0,052	0,008
-187,387	516,018	-0,045	0,075
-186,373	677,773	-0,003	0,006
-185,358	-200,000	0,024	0,090
-184,344	-21,099	0,110	0,048
-183,329	268,281	0,089	0,113
-182,315	800,000	0,009	0,019
-181,300	629,761	-0,042	0,077
-180,285	382,888	0,099	-0,146
-179,271	-18,655	-0,046	0,020
-178,256	562,614	-0,012	0,021
-177,242	-40,714	-0,080	-0,030
-176,227	-123,508	-0,102	0,011
-175,212	-200,000	-0,010	0,078
-174,198	25,684	-0,072	-0,043
-173,183	337,854	0,054	-0,075
-172,169	-200,000	-0,009	-0,032
-171,154	-51,210	0,033	0,011
-170,139	346,388	-0,013	-0,018
-169,125	235,262	0,081	0,097
-168,110	-69,855	0,116	0,032
-167,096	-60,746	0,009	0,003
-166,081	119,885	-0,014	0,012
-165,066	80,944	0,151	0,117
-164,052	137,615	-0,058	0,054
-163,037	-200,000	0,018	0,137
-162,023	-4,593	0,159	0,078
-161,008	800,000	-0,023	0,051
-159,993	-200,000	0,025	0,097
-158,979	-200,000	0,032	-0,109
-157,964	-200,000	-0,009	0,063
-156,950	343,492	-0,128	-0,181
-155,935	-200,000	-0,001	0,005
-154,920	-200,000	0,012	0,053
-153,906	67,865	0,006	-0,005
-152,891	9,955	0,112	-0,061
-151,877	-172,495	-0,140	-0,003
-150,862	-200,000	0,029	-0,201
-149,847	-117,774	-0,180	0,023
-148,833	203,077	0,083	-0,092
-147,818	74,961	0,090	0,068
-146,804	163,202	0,080	0,081
-145,789	800,000	-0,061	0,122
-144,775	-160,753	-0,074	-0,003
-143,760	31,584	-0,116	0,071
-142,745	-104,356	0,107	0,018
-141,731	-4,381	0,059	0,029
-140,716	155,574	-0,059	-0,058
-139,702	800,000	0,016	0,046
-138,687	-200,000	0,011	0,127
-137,672	-200,000	0,013	-0,098
-136,658	602,571	0,039	-0,070
-135,643	43,923	-0,134	-0,088
-134,629	-24,584	-0,106	-0,045
-133,614	-188,437	0,137	0,001
-132,599	800,000	-0,044	-0,117
-131,585	80,858	-0,110	0,085
-130,570	-144,360	-0,022	0,001
-129,556	-200,000	0,010	-0,044
-128,541	193,579	-0,076	-0,082
-127,526	202,727	0,034	-0,038
-126,512	-41,114	0,106	0,039
-125,497	-66,501	0,018	0,005
-124,483	-200,000	0,006	0,134
-123,468	207,495	-0,110	-0,123
-122,453	-152,732	0,089	-0,004
-121,439	104,113	0,107	0,091
-120,424	649,291	-0,069	-0,127
-119,410	204,806	-0,038	-0,042
-118,395	-74,194	0,150	0,039
-117,380	153,457	-0,084	0,083
-116,366	-26,269	-0,033	-0,014
-115,351	17,334	0,046	-0,026
-114,337	-200,000	-0,034	-0,131
-113,322	601,474	-0,050	0,089
-112,307	166,496	-0,064	-0,065
-111,293	-168,924	0,041	0,001
-110,278	800,000	0,030	0,079
-109,264	152,441	-0,042	-0,041
-108,249	50,134	-0,070	-0,047
-107,234	-140,386	-0,109	0,008
-106,220	106,819	0,110	-0,093
-105,205	800,000	0,008	-0,018
-104,191	-68,399	0,072	-0,020
-103,176	111,691	-0,040	0,034
-102,162	-111,490	-0,082	0,012
-101,147	147,594	-0,047	-0,046
-100,132	30,154	0,061	0,037
-99,118	83,253	-0,093	-0,073
-98,103	118,556	0,049	-0,043
-97,089	800,000	-0,036	-0,105
-96,074	-8,278	0,109	-0,052
-95,059	606,873	-0,032	-0,057
-94,045	75,079	0,040	-0,030
-93,030	6,401	-0,059	-0,031
-92,016	-200,000	0,000	0,021
-91,001	-200,000	0,002	0,012
-89,986	-28,055	0,092	-0,038
-88,972	-200,000	0,024	0,135
-87,957	-81,983	0,160	0,037
-86,943	800,000	-0,048	0,096
-85,928	-200,000	-0,001	0,026
-84,913	-200,000	-0,010	0,114
-83,899	-159,314	0,054	0,002
-82,884	-200,000	-0,006	0,041
-81,870	-79,059	0,129	-0,031
-80,855	570,908	-0,069	-0,121
-79,840	73,720	-0,104	-0,078
-78,826	-2,606	-0,061	0,030
-77,811	507,071	0,016	0,026
-76,797	-200,000	0,008	0,059
-75,782	-200,000	-0,056	-0,177
-74,767	-131,218	0,060	-0,006
-73,753	163,288	-0,078	-0,079
-72,738	-200,000	0,060	0,211
-71,724	-200,000	0,019	-0,074
-70,709	-104,301	0,126	0,021
-69,694	275,197	-0,070	0,090
-68,680	-200,000	0,027	-0,167
-67,665	8,910	-0,067	-0,036
-66,651	32,183	0,095	-0,058
-65,636	-97,980	0,079	-0,015
-64,622	-200,000	-0,005	0,128
-63,607	34,279	0,062	0,039
-62,592	610,545	0,060	0,108
-61,578	-200,000	-0,016	-0,107
-60,563	-200,000	0,000	0,031
-59,549	-200,000	-0,022	0,088
-58,534	41,254	-2,267	-1,463
-57,519	-200,000	0,044	-0,464
-56,505	-200,000	-1,493	-5,188
-55,490	146,641	0,898	0,863
-54,476	800,000	5,406	12,294
-53,461	-200,000	19,095	322,873
-52,446	800,000	742,103	2323,397
-51,432	549,513	1653,635	2846,024
-50,417	110,617	1636,752	1407,275
-49,403	74,480	1287,096	966,641
-48,388	29,374	1028,646	623,617
-47,373	19,280	991,489	567,789
-46,359	16,468	979,245	551,536
-45,344	13,032	975,929	538,390
-44,330	13,406	973,949	538,501
-43,315	12,742	972,180	535,331
-42,300	12,667	971,130	534,486
-41,286	12,678	970,074	533,921
-40,271	12,691	969,219	533,472
-39,257	12,626	968,429	532,803
-38,242	12,719	967,361	532,496
-37,227	12,602	966,856	531,818
-36,213	12,671	965,585	531,320
-35,198	12,586	964,819	530,604
-34,184	12,609	964,230	530,332
-33,169	12,613	963,361	529,847
-32,154	12,697	962,175	529,444
-31,140	12,678	961,334	528,900
-30,125	12,737	960,458	528,586
-29,111	12,674	959,676	527,934
-28,096	12,644	959,278	527,594
-27,082	12,692	958,565	527,338
-26,067	12,679	957,679	526,788
-25,052	12,649	956,968	526,279
-24,038	12,673	956,259	525,946
-23,023	12,606	955,919	525,523
-22,009	12,715	955,056	525,377
-20,994	12,695	954,542	525,010
-19,979	12,736	953,835	524,732
-18,965	12,664	953,164	524,109
-17,950	12,687	952,794	523,958
-16,936	12,651	951,883	523,323
-15,921	12,696	951,054	522,992
-14,906	12,624	950,544	522,459
-13,892	12,558	949,957	521,904
-12,877	12,574	949,240	521,542
-11,863	12,539	948,599	521,058
-10,848	12,605	948,062	520,952
-9,833	12,695	947,622	520,976
-8,819	12,672	946,653	520,348
-7,804	12,594	946,069	519,759
-6,790	12,576	945,482	519,358
-5,775	12,601	944,980	519,141
-4,760	12,606	944,570	518,912
-3,746	12,629	944,009	518,656
-2,731	12,420	943,109	517,479
-1,717	12,393	942,504	517,041
-0,702	12,402	941,850	516,692
0,313	12,204	941,211	516,495
1,327	15,963	939,276	527,244
2,342	25,571	790,496	469,026
3,356	22,264	445,404	259,352
4,371	-6,637	299,080	144,978
5,386	-10,261	280,899	132,682
6,400	-11,443	275,122	128,831
7,415	-11,474	272,848	127,727
8,429	-11,555	271,314	126,922
9,444	-11,715	270,353	126,314
10,459	-11,826	269,630	125,863
11,473	-12,021	268,956	125,358
12,488	-12,083	268,401	125,031
13,502	-12,185	267,858	124,674
14,517	-12,195	267,433	124,456
15,531	-12,184	266,789	124,156
16,546	-12,270	266,676	124,013
17,561	-12,299	265,971	123,648
18,575	-12,219	265,875	123,665
19,590	-12,327	265,415	123,343
20,604	-12,290	264,944	123,145
21,619	-12,269	264,738	123,058
22,634	-12,041	264,290	123,044
23,648	-12,422	264,012	122,561
24,663	-12,448	263,836	122,445
25,677	-12,423	263,668	122,379
26,692	-12,370	263,260	122,225
27,707	-12,326	262,979	122,124
28,721	-12,338	262,805	122,021
29,736	-12,373	262,467	121,822
30,750	-12,320	262,297	121,780
31,765	-12,460	261,912	121,465
32,780	-12,338	261,727	121,478
33,794	-12,411	261,496	121,294
34,809	-12,429	261,228	121,143
35,823	-12,565	260,972	120,893
36,838	-12,643	260,686	120,681
37,853	-12,629	260,506	120,598
38,867	-12,410	260,172	120,627
39,882	-12,549	260,027	120,426
40,896	-12,507	259,799	120,347
41,911	-12,644	259,651	120,146
42,926	-12,558	259,163	119,986
43,940	-12,442	258,897	119,954
44,955	-12,506	258,763	119,825
45,969	-12,541	258,404	119,617
46,984	-12,878	258,222	119,226
47,999	-13,024	257,929	118,953
49,013	-13,198	257,927	118,788
50,028	-13,228	257,401	118,509
51,042	-13,529	257,337	118,206
52,057	-13,395	257,051	118,180
53,071	-13,383	256,857	118,092
54,086	-13,154	256,717	118,217
55,101	-13,162	256,569	118,132
56,115	-12,819	256,296	118,293
57,130	-12,282	256,395	118,797
58,144	-12,165	256,202	118,798
59,159	-12,031	255,835	118,735
60,174	-12,141	255,617	118,528
61,188	-12,131	255,420	118,434
62,203	-12,329	255,305	118,198
63,217	-12,294	254,962	118,059
64,232	-12,243	254,849	118,041
65,247	-12,275	254,697	117,932
66,261	-12,185	254,235	117,786
67,276	-12,455	253,869	117,372
68,290	-12,773	253,807	117,059
69,305	-12,870	253,656	116,896
70,320	-12,616	253,174	116,882
71,334	-12,407	253,109	117,021
72,349	-12,229	253,009	117,117
73,363	-12,101	252,893	117,163
74,378	-12,124	252,682	117,034
75,393	-12,306	252,355	116,717
76,407	-12,285	252,138	116,624
77,422	-12,450	252,065	116,438
78,436	-12,161	251,829	116,566
79,451	-12,261	251,569	116,349
80,466	-12,330	251,276	116,145
81,480	-12,635	251,083	115,786
82,495	-12,808	250,792	115,495
83,509	-12,729	250,869	115,587
84,524	-12,730	250,518	115,414
85,539	-12,893	250,189	115,114
86,553	-12,611	249,893	115,206
87,568	-12,613	249,910	115,202
88,582	-12,724	249,689	114,996
89,597	-12,645	249,370	114,906
90,611	-12,434	249,362	115,070
91,626	-12,433	249,354	115,057
92,641	-12,521	249,157	114,881
93,655	-12,450	248,857	114,793
94,670	-12,526	248,495	114,551
95,684	-12,367	248,445	114,652
96,699	-12,458	248,181	114,443
97,714	-12,649	247,895	114,141
98,728	-12,670	247,801	114,070
99,743	-12,794	247,511	113,822
100,757	-12,920	247,251	113,587
101,772	-12,672	247,138	113,733
102,787	-12,720	246,968	113,604
103,801	-12,616	246,838	113,621
104,816	-12,650	246,823	113,575
105,830	-12,583	246,507	113,476
106,845	-12,414	246,327	113,524
107,860	-12,395	246,118	113,433
108,874	-12,444	245,936	113,298
109,889	-12,542	245,594	113,050
110,903	-12,586	245,422	112,923
111,918	-12,610	245,405	112,886
112,933	-12,712	245,155	112,676
113,947	-12,457	245,063	112,835
114,962	-12,469	244,830	112,708
115,976	-12,359	244,702	112,730
116,991	-12,439	244,560	112,588
118,006	-12,397	244,430	112,553
119,020	-12,519	244,298	112,381
120,035	-12,454	244,032	112,303
121,049	-12,036	243,785	112,523
122,064	-12,291	243,788	112,305
123,079	-12,417	243,482	112,050
124,093	-12,567	243,139	111,759
125,108	-12,945	243,009	111,379
126,122	-12,942	242,644	111,204
127,137	-12,966	242,534	111,124
128,151	-12,751	242,319	111,192
129,166	-12,700	242,283	111,207
130,181	-12,462	241,810	111,174
131,195	-12,755	241,783	110,913
132,210	-12,604	241,692	110,984
133,224	-12,496	241,600	111,021
134,239	-12,439	241,324	110,930
135,254	-12,414	241,207	110,887
136,268	-12,629	241,160	110,681
137,283	-12,703	240,677	110,389
138,297	-13,024	240,473	110,025
139,312	-12,866	240,236	110,035
140,327	-12,314	240,339	110,519
141,341	-12,102	240,327	110,676
142,356	-11,835	240,055	110,757
143,370	-11,958	239,934	110,592
144,385	-11,987	239,804	110,499
145,400	-11,999	239,529	110,353
146,414	-11,996	239,438	110,303
147,429	-12,143	239,341	110,130
148,443	-12,193	239,000	109,923
149,458	-12,184	238,897	109,873
150,473	-12,058	238,674	109,862
151,487	-11,994	238,450	109,801
152,502	-12,075	238,399	109,702
153,516	-11,771	238,098	109,798
154,531	-12,079	237,988	109,491
155,546	-12,104	237,704	109,330
156,560	-12,164	237,699	109,270
157,575	-12,470	237,354	108,856
158,589	-12,169	237,176	109,006
159,604	-12,130	237,241	109,057
160,619	-11,868	236,974	109,134
161,633	-12,007	236,825	108,945
162,648	-11,849	236,693	109,000
163,662	-12,129	236,392	108,629
164,677	-12,148	236,285	108,555
165,692	-12,034	236,158	108,578
166,706	-11,801	236,061	108,708
167,721	-11,818	235,892	108,607
168,735	-11,776	235,886	108,629
169,750	-11,845	235,709	108,482
170,764	-11,933	235,522	108,317
171,779	-11,952	235,337	108,207
172,794	-11,915	235,308	108,213
173,808	-11,964	234,944	107,998
174,823	-12,823	234,684	107,190
175,837	-12,495	234,351	107,288
176,852	-12,364	234,467	107,434
177,867	-12,028	234,378	107,649
178,881	-12,019	234,404	107,657
179,896	-11,821	234,032	107,634
180,910	-11,828	233,783	107,504
181,925	-11,784	233,699	107,490
182,940	-11,841	233,653	107,415
183,954	-11,829	233,407	107,301
184,969	-11,934	233,267	107,145
185,983	-11,732	233,072	107,205
186,998	-11,615	232,869	107,193
188,013	-11,728	232,851	107,086
189,027	-11,651	232,545	106,996
190,042	-11,566	232,425	106,998
191,056	-11,845	232,353	106,738
192,071	-11,771	232,090	106,665
193,086	-11,654	232,004	106,707
194,100	-11,513	231,942	106,779
195,115	-11,841	231,665	106,386
196,129	-11,219	231,782	106,915
197,144	-5,732	233,622	112,051
198,159	-0,586	235,223	116,855
199,173	2,400	235,893	119,527
200,188	2,730	235,893	119,775
201,202	2,908	235,685	119,798
202,217	3,132	235,620	119,930
203,232	3,171	235,723	120,003
204,246	3,681	235,346	120,200
205,261	3,559	235,283	120,061
206,275	3,649	235,226	120,092
207,290	3,791	235,082	120,119
208,304	3,526	234,805	119,759
209,319	3,487	234,695	119,662
210,334	3,365	234,496	119,455
211,348	3,325	234,247	119,287
212,363	3,076	233,877	118,893
213,377	2,703	233,865	118,587
214,392	2,548	233,626	118,335
215,407	2,707	233,622	118,446
216,421	3,028	233,442	118,593
217,436	2,712	233,203	118,216
218,450	2,701	232,919	118,053
219,465	2,682	232,740	117,937
220,480	2,516	232,673	117,764
221,494	2,646	232,492	117,762
222,509	2,765	232,430	117,813
223,523	3,049	232,281	117,946
224,538	2,884	232,085	117,708
225,553	2,913	232,001	117,677
226,567	2,884	231,889	117,588
227,582	3,134	231,903	117,777
228,596	3,303	231,681	117,784
229,611	2,984	231,432	117,402
230,626	2,556	231,262	116,976
231,640	2,653	231,053	116,935
232,655	3,030	230,901	117,136
233,669	3,375	230,867	117,373
234,684	3,425	230,844	117,389
235,699	3,062	230,735	117,046
236,713	2,970	230,239	116,713
237,728	3,114	230,158	116,771
238,742	2,661	230,050	116,360
239,757	2,785	229,920	116,379
240,772	2,563	229,721	116,099
241,786	2,954	229,526	116,287
242,801	3,060	229,538	116,364
243,815	3,278	229,457	116,478
244,830	3,193	229,357	116,352
245,844	3,024	228,957	116,011
246,859	2,935	228,747	115,826
247,874	2,919	228,866	115,864
248,888	3,357	228,494	115,997
249,903	2,981	228,528	115,720
250,917	2,871	228,264	115,492
251,932	2,951	228,089	115,454
252,947	3,066	227,726	115,347
253,961	2,882	227,654	115,161
254,976	2,827	227,695	115,130
255,990	2,990	227,548	115,168
257,005	3,083	227,517	115,213
258,020	3,045	227,262	115,044
259,034	3,307	227,146	115,173
260,049	3,019	227,060	114,902
261,063	2,931	226,814	114,702
262,078	3,321	226,630	114,891
263,093	3,279	226,511	114,789
264,107	3,111	226,483	114,638
265,122	3,253	226,346	114,665
266,136	3,326	226,252	114,662
267,151	3,068	226,123	114,394
268,166	2,722	225,919	114,021
269,180	2,656	225,443	113,721
270,195	2,720	225,364	113,719
271,209	2,436	225,361	113,496
272,224	2,800	225,301	113,727
273,239	3,014	224,986	113,717
274,253	2,883	224,886	113,559
275,268	2,641	224,747	113,298
276,282	2,725	224,463	113,208
277,297	2,662	224,412	113,125
278,312	2,637	224,391	113,086
279,326	2,623	224,240	112,989
280,341	2,876	223,956	113,023
281,355	3,049	223,927	113,127
282,370	2,860	223,725	112,875
283,384	2,778	223,550	112,716
284,399	2,714	223,252	112,509
285,414	2,857	223,142	112,549
286,428	2,939	223,213	112,635
287,443	3,013	223,135	112,640
288,457	3,189	222,799	112,590
289,472	2,847	222,705	112,280
290,487	2,414	222,406	111,802
291,501	2,424	222,211	111,701
292,516	2,617	222,199	111,827
293,530	2,785	221,927	111,803
294,545	2,409	221,962	111,535
295,560	2,646	221,925	111,680
296,574	2,670	221,796	111,623
297,589	2,884	221,543	111,642
298,603	2,985	221,451	111,659
299,618	2,762	221,451	111,487
300,633	2,996	221,207	111,525
301,647	3,122	221,172	111,589
302,662	3,224	220,953	111,543
303,676	3,093	220,770	111,346
304,691	3,034	220,565	111,189
305,706	3,134	220,544	111,241
306,720	3,250	220,446	111,266
307,735	2,815	220,108	110,770
308,749	2,590	220,139	110,612
309,764	2,872	220,084	110,779
310,779	3,230	219,730	110,850
311,793	3,012	219,577	110,606
312,808	3,086	219,479	110,600
313,822	3,073	219,228	110,454
314,837	2,958	219,198	110,346
315,852	2,703	218,988	110,047
316,866	2,816	218,891	110,069
317,881	3,105	218,755	110,200
318,895	2,977	218,752	110,096
319,910	2,909	218,358	109,839
320,925	2,718	218,257	109,641
321,939	2,299	218,076	109,240
322,954	2,660	217,975	109,438
323,968	2,864	217,971	109,573
324,983	3,022	217,856	109,619
325,997	3,084	217,791	109,621
327,012	3,105	217,552	109,506
328,027	2,830	217,473	109,260
329,041	3,122	217,424	109,434
330,056	3,203	217,190	109,364
331,070	2,846	216,972	108,990
332,085	2,480	216,638	108,551
333,100	2,560	216,528	108,543
334,114	2,723	216,482	108,627
335,129	2,802	216,547	108,706
336,143	2,983	216,238	108,670
337,158	3,124	216,179	108,732
338,173	2,904	216,159	108,555
339,187	2,864	215,719	108,296
340,202	2,962	215,581	108,286
341,216	2,591	215,611	108,029
342,231	2,619	215,519	107,993
343,246	2,753	215,327	107,982
344,260	2,766	215,220	107,928
345,275	3,066	215,284	108,163
346,289	3,013	215,000	107,973
347,304	3,015	214,823	107,876
348,319	2,860	214,695	107,692
349,333	3,041	214,494	107,710
350,348	2,925	214,463	107,603
351,362	2,946	214,420	107,586
352,377	2,974	214,211	107,492
353,392	2,884	213,896	107,261
354,406	2,929	213,845	107,257
355,421	198,331	1335,515	1417,054
356,435	158,633	1472,103	1416,973
