DTS Sentinel unit serial number:	SN410029Multiplexer serial number:	ORYXHardware model number:	OX2-SRSoftware version number:	ORYX F/W v4,00 Oryx Data Collector v3.7.2.0data status	okinstallation	B6 Nyhavnadifferential loss correction	single-endedforward channel	channel 2reverse channel	N/Adate	2023/12/08time	17:40:08forward acquisition time	300,00reverse acquisition time	0,00gamma	499,1914k internal	0,3158k external	0,3158temperature offset calibration	1,0000default loss term (dB/km)	0,3820temperature slope calibration	1,0000multiplexer offset coefficient	1,0000multiplexer slope coefficient	1,0000fibre end	0,00T internal ref (°C)	15,18T ext. ref 1 (°C)	-1,29T ext. ref 2 (°C)	-1,30length (m)	temperature (°C)	Stokes	anti-Stokes-744,400	-8,231	0,114	-0,056
-743,385	105,610	-0,206	-0,179
-742,371	323,128	0,083	0,117
-741,356	-106,028	-0,260	0,043
-740,342	-158,818	0,088	0,004
-739,327	-65,939	-0,295	-0,086
-738,312	20,337	-0,046	0,028
-737,298	-96,623	-0,260	0,050
-736,283	-8,558	-0,059	0,029
-735,269	-53,418	-0,167	-0,056
-734,254	78,239	0,015	0,012
-733,239	-23,806	-0,502	-0,221
-732,225	-30,390	0,211	0,088
-731,210	-200,000	0,003	0,029
-730,196	-200,000	0,005	-0,076
-729,181	800,000	0,079	-0,218
-728,167	-57,767	-0,153	0,049
-727,152	665,122	-0,091	-0,174
-726,137	140,223	-0,083	-0,081
-725,123	323,655	-0,089	-0,125
-724,108	-189,904	-0,045	-0,000
-723,094	-195,064	-0,127	-0,001
-722,079	682,750	0,061	-0,118
-721,064	76,715	-0,086	-0,067
-720,050	349,531	-0,040	-0,058
-719,035	800,000	-0,017	-0,036
-718,021	231,807	-0,116	-0,140
-717,006	48,101	0,042	-0,029
-715,991	410,395	-0,045	-0,071
-714,977	-79,606	-0,042	-0,010
-713,962	-200,000	-0,007	-0,074
-712,948	-4,786	0,051	-0,026
-711,933	-200,000	0,002	0,049
-710,918	2,732	-0,131	0,070
-709,904	800,000	-0,021	-0,056
-708,889	800,000	0,085	-0,221
-707,875	-61,902	0,021	0,007
-706,860	61,482	0,067	-0,049
-705,845	-95,955	-0,079	-0,015
-704,831	-200,000	-0,006	0,058
-703,816	359,686	-0,053	0,078
-702,802	-23,717	-0,120	0,053
-701,787	-116,585	-0,062	-0,008
-700,772	0,354	-0,039	0,021
-699,758	-54,801	-0,079	-0,026
-698,743	800,000	0,021	-0,066
-697,729	-12,383	0,216	0,104
-696,714	-44,621	0,054	-0,020
-695,699	-160,863	-0,067	0,003
-694,685	-200,000	0,010	-0,032
-693,670	-37,508	-0,113	-0,044
-692,656	-200,000	0,016	0,097
-691,641	800,000	-0,010	-0,023
-690,627	800,000	-0,025	0,078
-689,612	212,473	-0,042	-0,049
-688,597	362,660	0,041	-0,061
-687,583	61,363	-0,172	0,125
-686,568	-10,490	0,109	-0,053
-685,554	-200,000	0,045	0,148
-684,539	-200,000	0,007	0,050
-683,524	-168,534	-0,065	0,002
-682,510	800,000	0,057	0,164
-681,495	-67,204	0,016	-0,005
-680,481	-149,369	0,087	-0,005
-679,466	114,055	-0,087	-0,078
-678,451	-21,808	0,048	0,022
-677,437	800,000	-0,026	-0,062
-676,422	792,844	-0,029	0,059
-675,408	-9,190	0,095	0,047
-674,393	-1,553	-0,050	0,026
-673,378	442,575	-0,071	0,114
-672,364	84,972	-0,066	-0,053
-671,349	212,945	-0,123	-0,143
-670,335	-200,000	-0,026	-0,220
-669,320	13,463	-0,030	0,017
-668,305	-200,000	-0,001	-0,057
-667,291	-200,000	-0,002	-0,062
-666,276	-200,000	0,001	-0,115
-665,262	434,425	-0,006	-0,010
-664,247	160,264	-0,103	-0,106
-663,232	211,330	0,014	0,016
-662,218	396,595	-0,088	-0,136
-661,203	-200,000	-0,011	-0,099
-660,189	-200,000	0,019	-0,100
-659,174	-200,000	0,006	-0,157
-658,159	67,215	-0,054	-0,041
-657,145	-200,000	-0,009	-0,054
-656,130	174,629	-0,041	-0,044
-655,116	-162,385	-0,101	-0,004
-654,101	-4,193	-0,049	0,025
-653,086	-151,943	0,058	-0,003
-652,072	800,000	0,026	0,062
-651,057	718,868	-0,036	-0,071
-650,043	388,026	-0,042	-0,065
-649,028	-129,139	0,113	0,011
-648,014	469,864	0,046	0,077
-646,999	10,055	0,101	-0,056
-645,984	428,125	-0,011	-0,018
-644,970	-1,067	-0,032	0,017
-643,955	-2,811	-0,065	-0,033
-642,941	783,136	-0,020	-0,040
-641,926	-26,199	0,109	0,047
-640,911	477,925	0,092	0,154
-639,897	800,000	0,017	0,035
-638,882	-9,573	-0,208	-0,101
-637,868	-200,000	-0,019	0,084
-636,853	404,982	-0,086	-0,133
-635,838	-200,000	-0,006	-0,029
-634,824	800,000	-0,055	-0,119
-633,809	25,379	-0,059	-0,036
-632,795	-14,403	-0,049	0,023
-631,780	134,881	-0,059	-0,057
-630,765	113,879	-0,136	-0,121
-629,751	8,445	-0,043	-0,023
-628,736	-89,511	-0,150	-0,032
-627,722	-200,000	0,004	-0,060
-626,707	498,499	-0,062	-0,105
-625,692	161,818	0,055	-0,056
-624,678	-116,239	-0,034	-0,005
-623,663	-3,572	-0,120	-0,061
-622,649	-170,332	-0,204	0,005
-621,634	265,309	-0,125	-0,161
-620,619	-102,772	-0,100	0,017
-619,605	-20,450	-0,044	0,020
-618,590	-158,475	0,053	-0,002
-617,576	-129,897	-0,028	0,003
-616,561	-72,121	-0,047	-0,013
-615,546	-43,481	-0,101	-0,037
-614,532	-69,256	-0,038	-0,011
-613,517	113,271	-0,096	-0,085
-612,503	-95,303	-0,153	0,030
-611,488	-96,469	0,089	0,017
-610,474	800,000	0,048	0,132
-609,459	-200,000	0,004	0,055
-608,444	111,584	-0,025	-0,022
-607,430	-200,000	-0,017	-0,165
-606,415	800,000	-0,027	-0,062
-605,401	7,519	0,070	-0,038
-604,386	-200,000	0,009	-0,035
-603,371	78,014	0,084	0,066
-602,357	-77,169	0,050	0,013
-601,342	-53,063	0,045	-0,015
-600,328	-200,000	0,036	-0,165
-599,313	-200,000	0,004	-0,136
-598,298	-200,000	-0,004	-0,049
-597,284	-200,000	0,010	-0,062
-596,269	-200,000	0,015	-0,082
-595,255	-67,470	0,197	0,056
-594,240	138,178	-0,071	-0,068
-593,225	-22,039	0,047	-0,021
-592,211	394,841	-0,044	-0,067
-591,196	-152,348	0,074	0,004
-590,182	800,000	0,031	0,065
-589,167	142,191	-0,037	0,036
-588,152	270,107	0,010	-0,013
-587,138	27,830	-0,036	0,022
-586,123	-179,561	-0,058	-0,001
-585,109	-200,000	-0,012	-0,078
-584,094	-60,439	-0,172	0,053
-583,079	-115,785	0,059	0,008
-582,065	174,518	0,048	-0,051
-581,050	-200,000	-0,006	-0,093
-580,036	309,496	-0,010	-0,014
-579,021	800,000	-0,019	-0,054
-578,006	178,874	0,125	-0,134
-576,992	-14,166	0,101	-0,048
-575,977	-200,000	-0,015	-0,079
-574,963	-81,361	-0,068	0,016
-573,948	-169,686	0,064	-0,002
-572,934	109,986	0,021	0,018
-571,919	-50,532	0,075	-0,026
-570,904	-161,625	-0,104	-0,004
-569,890	800,000	0,046	-0,120
-568,875	288,183	-0,051	0,067
-567,861	189,684	0,034	0,038
-566,846	-133,539	0,068	-0,006
-565,831	-200,000	0,004	-0,016
-564,817	429,978	-0,031	-0,049
-563,802	-200,000	-0,009	-0,194
-562,788	800,000	0,043	0,133
-561,773	-125,041	0,062	-0,007
-560,758	150,813	-0,056	0,056
-559,744	192,581	0,130	0,144
-558,729	-200,000	-0,002	0,083
-557,715	-113,723	0,086	-0,012
-556,700	56,661	0,109	-0,078
-555,685	-27,283	-0,077	-0,033
-554,671	53,906	0,072	-0,051
-553,656	-94,250	-0,099	0,020
-552,642	446,357	0,023	-0,038
-551,627	-200,000	0,001	-0,161
-550,612	17,988	-0,081	-0,047
-549,598	-200,000	-0,023	-0,115
-548,583	435,509	0,074	-0,118
-547,569	800,000	0,017	-0,047
-546,554	-34,284	0,152	-0,061
-545,539	-92,084	0,071	-0,015
-544,525	47,551	0,019	0,013
-543,510	800,000	-0,014	-0,031
-542,496	87,748	0,068	0,055
-541,481	-200,000	0,010	-0,040
-540,466	133,032	0,112	0,106
-539,452	-200,000	0,001	-0,036
-538,437	260,397	-0,025	0,032
-537,423	249,363	-0,037	0,047
-536,408	69,206	0,097	0,073
-535,393	187,809	0,040	-0,043
-534,379	-200,000	0,024	-0,116
-533,364	-200,000	-0,003	-0,106
-532,350	-200,000	0,005	-0,042
-531,335	-200,000	0,018	-0,180
-530,321	25,899	0,066	-0,040
-529,306	-49,976	-0,051	0,018
-528,291	-200,000	-0,016	-0,060
-527,277	-16,495	-0,125	0,058
-526,262	153,072	0,084	-0,084
-525,248	-169,422	-0,051	-0,001
-524,233	800,000	0,022	0,054
-523,218	37,788	-0,113	0,073
-522,204	95,284	-0,027	-0,022
-521,189	245,847	-0,088	0,109
-520,175	-104,367	-0,065	-0,011
-519,160	800,000	-0,067	0,151
-518,145	-65,256	-0,107	-0,031
-517,131	800,000	0,060	0,132
-516,116	379,610	0,108	0,163
-515,102	555,984	0,046	-0,082
-514,087	62,467	-0,112	0,081
-513,072	-200,000	0,012	0,047
-512,058	-45,775	-0,056	-0,020
-511,043	800,000	0,073	0,211
-510,029	-39,400	-0,068	0,026
-509,014	-107,294	0,081	0,013
-507,999	67,484	0,040	-0,030
-506,985	106,301	-0,117	-0,102
-505,970	-200,000	0,007	0,063
-504,956	-200,000	0,021	-0,146
-503,941	381,638	-0,030	0,045
-502,926	53,916	0,165	0,116
-501,912	-117,293	0,085	0,011
-500,897	800,000	-0,047	0,114
-499,883	-71,294	0,188	0,051
-498,868	107,709	-0,097	-0,084
-497,853	568,977	-0,070	0,125
-496,839	298,990	0,023	0,032
-495,824	1,148	0,113	-0,059
-494,810	-117,711	-0,173	0,022
-493,795	-56,312	0,020	-0,006
-492,781	-132,342	-0,095	0,009
-491,766	18,792	0,141	-0,082
-490,751	-200,000	0,003	0,065
-489,737	-92,799	0,054	-0,011
-488,722	-112,460	-0,043	0,006
-487,708	67,526	-0,031	0,023
-486,693	800,000	-0,038	0,079
-485,678	548,621	-0,046	0,081
-484,664	215,273	-0,051	0,059
-483,649	531,055	-0,028	-0,049
-482,635	-200,000	0,021	0,113
-481,620	800,000	0,094	0,208
-480,605	-200,000	0,022	0,125
-479,591	-49,128	0,089	0,031
-478,576	-200,000	0,008	-0,059
-477,562	-101,080	-0,053	-0,009
-476,547	-55,933	0,071	-0,023
-475,532	98,627	0,042	-0,035
-474,518	-175,705	0,071	0,001
-473,503	234,930	-0,040	0,048
-472,489	-76,340	0,139	-0,035
-471,474	800,000	0,044	0,094
-470,459	390,032	0,009	-0,014
-469,445	-200,000	0,002	-0,162
-468,430	-125,504	0,099	-0,011
-467,416	-200,000	-0,006	-0,091
-466,401	-95,107	0,063	-0,012
-465,386	800,000	-0,035	0,091
-464,372	800,000	-0,029	-0,061
-463,357	37,748	-0,040	-0,026
-462,343	5,672	-0,159	-0,086
-461,328	-200,000	0,011	-0,043
-460,313	346,576	-0,039	-0,056
-459,299	12,077	-0,106	-0,060
-458,284	-200,000	0,003	-0,059
-457,270	-84,656	-0,105	-0,024
-456,255	-116,341	-0,111	-0,015
-455,241	-200,000	-0,002	-0,030
-454,226	-75,081	-0,125	0,032
-453,211	244,733	-0,092	0,113
-452,197	-121,068	0,145	0,017
-451,182	-54,920	-0,042	-0,014
-450,168	549,407	-0,080	-0,140
-449,153	-76,210	-0,072	-0,018
-448,138	128,068	0,060	0,056
-447,124	-200,000	0,011	0,053
-446,109	-72,592	0,049	-0,013
-445,095	-20,717	-0,098	-0,044
-444,080	-120,291	0,134	0,016
-443,065	34,739	0,119	0,076
-442,051	179,235	-0,037	0,039
-441,036	589,125	-0,019	-0,034
-440,022	-150,225	0,092	-0,005
-439,007	800,000	-0,040	0,090
-437,992	395,662	-0,064	0,097
-436,978	-81,754	0,001	-0,000
-435,963	184,122	0,024	0,026
-434,949	129,254	-0,084	0,078
-433,934	-45,622	-0,042	-0,015
-432,919	-200,000	0,012	-0,051
-431,905	59,020	0,044	-0,031
-430,890	800,000	-0,036	-0,083
-429,876	-37,380	0,005	-0,002
-428,861	-200,000	-0,004	0,022
-427,846	-200,000	-0,002	0,017
-426,832	-5,113	-0,083	-0,041
-425,817	-200,000	0,006	-0,124
-424,803	-138,783	0,122	0,010
-423,788	-87,977	0,042	0,009
-422,773	-96,775	-0,004	-0,001
-421,759	102,516	-0,099	-0,084
-420,744	-200,000	0,007	0,053
-419,730	-7,949	0,085	0,042
-418,715	-121,788	-0,060	-0,007
-417,701	2,085	0,084	-0,044
-416,686	-146,883	0,176	-0,011
-415,671	-60,112	-0,034	-0,011
-414,657	-200,000	0,032	0,160
-413,642	208,418	0,016	-0,019
-412,628	-101,332	0,067	-0,012
-411,613	148,260	-0,065	-0,064
-410,598	-158,535	-0,114	-0,005
-409,584	144,940	-0,030	-0,029
-408,569	-62,371	0,094	0,028
-407,555	-48,783	-0,123	0,043
-406,540	125,511	0,111	-0,102
-405,525	716,664	-0,048	0,093
-404,511	-131,096	-0,066	0,006
-403,496	39,075	-0,079	0,052
-402,482	567,436	0,037	0,066
-401,467	351,231	0,072	0,105
-400,452	76,600	-0,022	-0,017
-399,438	-59,800	0,012	-0,004
-398,423	800,000	0,028	0,068
-397,409	400,435	0,025	-0,038
-396,394	-200,000	-0,025	-0,219
-395,379	-14,091	0,010	0,005
-394,365	-200,000	-0,001	0,033
-393,350	-200,000	0,004	-0,058
-392,336	-200,000	-0,011	-0,082
-391,321	-200,000	-0,015	0,120
-390,306	203,919	-0,116	-0,130
-389,292	-28,424	-0,034	0,014
-388,277	20,684	-0,105	-0,061
-387,263	-200,000	-0,027	0,115
-386,248	800,000	-0,030	-0,072
-385,233	82,967	0,077	0,061
-384,219	694,779	0,032	-0,061
-383,204	755,630	-0,014	-0,027
-382,190	-200,000	-0,043	0,138
-381,175	-180,220	0,104	-0,002
-380,160	800,000	0,016	-0,050
-379,146	-123,001	0,065	0,008
-378,131	-141,245	-0,049	-0,004
-377,117	-200,000	0,013	0,083
-376,102	61,168	-0,059	0,042
-375,088	44,634	-0,092	-0,061
-374,073	52,844	0,077	-0,053
-373,058	625,865	0,056	0,104
-372,044	-128,584	0,043	0,004
-371,029	512,780	0,041	0,070
-370,015	800,000	0,043	0,091
-369,000	64,994	0,112	-0,082
-367,985	800,000	-0,058	-0,121
-366,971	773,765	-0,022	0,044
-365,956	-83,366	0,101	0,023
-364,942	103,977	0,038	0,032
-363,927	-7,059	0,061	0,030
-362,912	-174,443	0,102	-0,002
-361,898	800,000	-0,063	-0,128
-360,883	800,000	-0,022	-0,044
-359,869	-55,805	-0,102	-0,033
-358,854	800,000	-0,064	0,166
-357,839	210,241	-0,013	0,015
-356,825	-118,414	0,105	0,013
-355,810	-14,936	0,079	-0,037
-354,796	32,420	-0,093	0,058
-353,781	-67,629	-0,155	-0,044
-352,766	-58,425	-0,099	0,031
-351,752	124,265	0,017	0,015
-350,737	-68,399	0,048	-0,013
-349,723	800,000	-0,022	0,060
-348,708	-200,000	-0,014	-0,074
-347,693	110,245	0,142	0,124
-346,679	-91,415	0,025	-0,005
-345,664	800,000	0,029	-0,067
-344,650	-155,870	-0,015	-0,001
-343,635	628,779	0,042	-0,077
-342,620	-140,138	0,008	0,001
-341,606	-41,985	-0,048	-0,018
-340,591	-161,340	-0,052	0,002
-339,577	800,000	0,009	-0,029
-338,562	-99,266	-0,129	0,023
-337,548	-200,000	0,024	0,078
-336,533	51,699	0,080	-0,055
-335,518	-5,317	0,121	-0,060
-334,504	800,000	-0,001	0,004
-333,489	-200,000	-0,014	0,107
-332,475	218,546	-0,090	-0,104
-331,460	800,000	0,018	0,049
-330,445	323,238	-0,071	0,099
-329,431	-200,000	-0,024	-0,082
-328,416	84,785	0,070	0,056
-327,402	-200,000	0,004	0,064
-326,387	307,496	0,030	-0,040
-325,372	132,978	-0,108	-0,102
-324,358	-171,995	0,058	-0,001
-323,343	800,000	-0,043	0,134
-322,329	800,000	0,026	0,061
-321,314	561,890	-0,042	0,074
-320,299	-200,000	0,011	-0,042
-319,285	97,309	-0,078	0,065
-318,270	-49,598	-0,060	-0,020
-317,256	-117,887	0,104	-0,013
-316,241	800,000	0,018	0,041
-315,226	-200,000	-0,007	0,107
-314,212	-200,000	-0,011	0,087
-313,197	118,045	0,103	0,092
-312,183	217,972	-0,049	-0,057
-311,168	169,817	-0,074	-0,077
-310,153	-200,000	0,022	0,074
-309,139	-112,962	0,160	0,023
-308,124	-200,000	0,000	0,005
-307,110	518,811	0,012	-0,020
-306,095	328,370	0,089	0,125
-305,080	-58,948	0,072	0,022
-304,066	-200,000	0,018	-0,059
-303,051	-200,000	-0,007	0,105
-302,037	-82,935	-0,046	0,011
-301,022	800,000	0,076	0,182
-300,008	-44,556	0,129	0,047
-298,993	34,519	-0,057	0,036
-297,978	224,549	-0,032	0,038
-296,964	-200,000	0,037	-0,130
-295,949	-200,000	0,014	-0,091
-294,935	273,321	0,021	-0,027
-293,920	79,763	0,020	0,015
-292,905	518,008	-0,063	-0,108
-291,891	-112,683	0,078	-0,011
-290,876	524,610	-0,088	0,151
-289,862	431,462	0,030	0,047
-288,847	380,715	-0,071	-0,107
-287,832	646,697	-0,087	0,161
-286,818	260,267	-0,045	-0,057
-285,803	139,705	0,122	-0,117
-284,789	-200,000	-0,001	0,018
-283,774	-200,000	0,024	0,139
-282,759	127,658	0,061	0,056
-281,745	800,000	-0,055	-0,119
-280,730	312,396	0,023	0,031
-279,716	320,135	0,063	0,087
-278,701	-79,197	-0,083	-0,020
-277,686	-66,039	0,149	0,043
-276,672	-25,502	0,008	-0,003
-275,657	337,437	-0,045	0,064
-274,643	800,000	0,014	-0,042
-273,628	239,414	-0,058	0,070
-272,613	-33,661	0,076	0,030
-271,599	800,000	-0,051	-0,119
-270,584	111,155	0,047	0,041
-269,570	800,000	0,028	-0,080
-268,555	-200,000	0,004	0,094
-267,540	-52,130	-0,086	0,029
-266,526	-200,000	0,027	0,156
-265,511	50,789	-0,018	-0,012
-264,497	-142,189	0,071	0,005
-263,482	-87,142	0,034	-0,007
-262,467	800,000	-0,026	0,056
-261,453	-200,000	0,018	0,136
-260,438	-200,000	0,002	-0,064
-259,424	-200,000	-0,030	0,102
-258,409	-103,536	0,194	0,033
-257,395	-40,099	-0,024	0,009
-256,380	-200,000	0,001	0,015
-255,365	-129,751	0,185	-0,018
-254,351	-200,000	0,012	0,104
-253,336	4,414	-0,030	-0,016
-252,322	-200,000	-0,016	-0,096
-251,307	800,000	0,020	0,057
-250,292	-200,000	0,028	0,095
-249,278	443,909	0,059	0,095
-248,263	-99,955	-0,062	0,011
-247,249	238,187	0,100	0,120
-246,234	-200,000	0,004	0,086
-245,219	-62,133	0,041	0,012
-244,205	-30,051	-0,078	0,032
-243,190	546,435	-0,024	0,042
-242,176	293,548	-0,053	0,071
-241,161	-200,000	0,002	-0,039
-240,146	-200,000	0,010	0,041
-239,132	159,827	0,030	-0,031
-238,117	-200,000	-0,006	-0,147
-237,103	800,000	-0,016	-0,049
-236,088	439,683	0,056	0,089
-235,073	53,989	0,103	0,072
-234,059	-109,184	0,157	0,024
-233,044	-73,158	0,160	0,042
-232,030	-200,000	0,011	0,058
-231,015	-140,151	0,022	-0,002
-230,000	487,099	-0,022	-0,036
-228,986	45,644	-0,058	-0,039
-227,971	-200,000	0,049	0,171
-226,957	-167,620	-0,129	0,004
-225,942	523,516	0,051	0,087
-224,927	-200,000	0,024	0,124
-223,913	-115,126	-0,114	0,015
-222,898	800,000	0,032	-0,100
-221,884	471,645	0,024	-0,039
-220,869	800,000	0,023	0,051
-219,855	-91,716	-0,127	-0,026
-218,840	87,845	0,068	-0,055
-217,825	143,812	0,063	0,060
-216,811	-200,000	-0,022	0,109
-215,796	-200,000	-0,034	-0,171
-214,782	800,000	0,033	-0,075
-213,767	161,306	-0,056	-0,057
-212,752	683,413	-0,060	0,113
-211,738	693,873	-0,014	-0,026
-210,723	-200,000	-0,015	0,136
-209,709	-119,504	-0,074	0,009
-208,694	-200,000	-0,006	0,035
-207,679	-83,313	-0,130	-0,030
-206,665	99,852	-0,049	0,041
-205,650	214,321	0,125	0,143
-204,636	385,905	0,134	0,201
-203,621	181,637	0,045	-0,048
-202,606	-200,000	0,020	-0,080
-201,592	28,883	-0,051	0,031
-200,577	800,000	0,047	-0,106
-199,563	527,808	0,094	0,160
-198,548	-113,975	0,191	-0,026
-197,533	-200,000	0,023	-0,100
-196,519	800,000	0,016	-0,044
-195,504	-88,368	-0,123	0,026
-194,490	-200,000	0,012	-0,137
-193,475	111,359	-0,082	0,072
-192,460	-16,978	0,105	0,048
-191,446	-200,000	0,040	0,225
-190,431	-200,000	-0,016	-0,063
-189,417	-200,000	0,012	0,060
-188,402	315,422	-0,038	-0,052
-187,387	502,394	-0,086	-0,145
-186,373	-200,000	-0,008	-0,126
-185,358	-10,334	-0,169	-0,080
-184,344	267,569	0,056	-0,071
-183,329	-86,272	0,040	-0,009
-182,315	129,552	-0,023	-0,021
-181,300	-42,404	-0,104	-0,038
-180,285	-200,000	-0,014	-0,084
-179,271	53,115	-0,097	-0,067
-178,256	-178,359	0,024	0,000
-177,242	160,273	-0,060	-0,060
-176,227	784,025	-0,057	0,114
-175,212	146,789	-0,072	0,070
-174,198	345,729	0,024	-0,034
-173,183	-7,672	-0,023	-0,011
-172,169	32,274	-0,081	-0,050
-171,154	-51,706	-0,047	0,016
-170,139	-32,232	0,022	0,009
-169,125	-200,000	0,014	-0,088
-168,110	-79,374	-0,198	0,048
-167,096	-149,129	-0,056	-0,003
-166,081	800,000	-0,027	-0,063
-165,066	571,717	-0,081	-0,143
-164,052	-200,000	-0,008	-0,140
-163,037	-73,649	0,060	-0,016
-162,023	204,439	0,077	-0,087
-161,008	19,961	0,045	-0,026
-159,993	-29,410	-0,117	0,048
-158,979	-8,021	-0,084	0,040
-157,964	-200,000	0,004	0,066
-156,950	-200,000	-0,017	-0,199
-155,935	800,000	0,035	0,077
-154,920	-200,000	0,034	-0,125
-153,906	-200,000	0,001	0,022
-152,891	-40,910	-0,027	-0,010
-151,877	203,070	-0,015	-0,016
-150,862	-200,000	-0,033	-0,164
-149,847	800,000	-0,033	-0,090
-148,833	-10,497	0,058	-0,027
-147,818	-200,000	-0,011	-0,113
-146,804	-36,056	0,056	0,022
-145,789	-200,000	0,016	0,084
-144,775	363,406	0,055	0,080
-143,760	-110,904	-0,061	-0,009
-142,745	287,664	0,011	0,014
-141,731	-42,242	-0,112	0,041
-140,716	-107,302	0,040	0,006
-139,702	-200,000	-0,014	0,063
-138,687	-200,000	-0,009	0,046
-137,672	800,000	-0,049	-0,119
-136,658	-42,752	-0,051	-0,018
-135,643	-16,883	-0,018	0,008
-134,629	136,990	0,045	-0,042
-133,614	800,000	0,023	0,061
-132,599	354,469	0,057	-0,082
-131,585	-38,357	-0,082	0,031
-130,570	-200,000	-0,020	0,156
-129,556	-99,257	-0,153	-0,027
-128,541	-200,000	-0,005	-0,124
-127,526	-20,587	0,094	0,041
-126,512	-200,000	0,002	0,135
-125,497	16,945	0,106	-0,060
-124,483	220,075	-0,041	-0,047
-123,468	-85,398	-0,065	0,014
-122,453	-0,806	-0,093	-0,047
-121,439	359,621	-0,067	0,097
-120,424	-200,000	-0,012	0,073
-119,410	122,408	0,148	0,133
-118,395	-200,000	0,005	-0,029
-117,380	-200,000	0,006	-0,067
-116,366	-200,000	-0,036	-0,124
-115,351	-136,107	-0,130	-0,011
-114,337	618,056	-0,044	0,079
-113,322	6,532	-0,055	0,029
-112,307	800,000	-0,020	0,054
-111,293	-200,000	-0,035	-0,111
-110,278	154,091	0,039	-0,038
-109,264	800,000	-0,028	0,082
-108,249	-177,948	0,139	0,002
-107,234	-200,000	0,011	-0,040
-106,220	-200,000	0,117	0,000
-105,205	-93,535	-0,015	-0,003
-104,191	206,114	0,060	-0,068
-103,176	-139,347	-0,073	-0,006
-102,162	-44,092	0,045	-0,016
-101,147	-34,830	0,063	-0,024
-100,132	-200,000	-0,009	-0,112
-99,118	140,039	0,037	0,035
-98,103	305,918	-0,090	0,121
-97,089	-200,000	0,015	0,061
-96,074	-30,846	-0,060	0,024
-95,059	-200,000	0,016	-0,084
-94,045	99,763	-0,072	-0,060
-93,030	-200,000	0,026	-0,122
-92,016	158,841	-0,063	-0,063
-91,001	-92,549	-0,043	-0,009
-89,986	131,654	0,059	0,055
-88,972	-135,788	0,039	-0,003
-87,957	328,167	0,064	-0,089
-86,943	-200,000	0,028	-0,153
-85,928	-2,062	-0,164	0,083
-84,913	-200,000	0,042	0,154
-83,899	-28,281	0,154	0,064
-82,884	293,442	0,034	-0,044
-81,870	-200,000	-0,010	0,093
-80,855	8,904	0,054	0,029
-79,840	-200,000	-0,003	-0,039
-78,826	140,817	0,102	0,097
-77,811	26,761	-0,094	-0,057
-76,797	468,329	0,048	-0,078
-75,782	800,000	0,002	-0,004
-74,767	44,830	0,034	0,022
-73,753	800,000	0,023	0,048
-72,738	18,466	-0,155	0,089
-71,724	-2,972	-0,028	-0,014
-70,709	-200,000	-0,012	-0,078
-69,694	255,888	0,062	-0,076
-68,680	12,906	0,037	-0,020
-67,665	-41,847	0,010	0,004
-66,651	-200,000	0,011	0,070
-65,636	-143,233	0,034	0,002
-64,622	516,945	-0,066	-0,110
-63,607	-98,874	-0,103	-0,019
-62,592	27,835	0,028	0,017
-61,578	287,128	-0,090	0,117
-60,563	800,000	0,035	0,073
-59,549	800,000	-0,020	0,057
-58,534	10,024	-2,079	-1,130
-57,519	-200,000	-0,166	-0,802
-56,505	-200,000	-1,390	-4,980
-55,490	82,881	0,861	0,671
-54,476	800,000	5,257	11,601
-53,461	-200,000	17,888	290,130
-52,446	800,000	727,112	2228,861
-51,432	535,241	1639,821	2801,351
-50,417	109,285	1629,394	1399,195
-49,403	72,914	1283,156	960,586
-48,388	31,388	1026,081	630,953
-47,373	19,897	988,017	569,705
-46,359	18,248	976,038	557,376
-45,344	15,482	972,132	546,085
-44,330	15,717	970,686	546,018
-43,315	15,251	968,895	543,468
-42,300	15,163	967,732	542,509
-41,286	15,119	966,832	541,838
-40,271	15,148	965,786	541,324
-39,257	15,225	964,837	541,023
-38,242	15,223	963,922	540,480
-37,227	15,236	963,207	540,102
-36,213	15,229	962,203	539,494
-35,198	15,181	961,403	538,868
-34,184	15,199	960,930	538,640
-33,169	15,145	959,771	537,794
-32,154	15,197	959,011	537,516
-31,140	15,257	957,979	537,110
-30,125	15,218	957,274	536,567
-29,111	15,208	956,525	536,093
-28,096	15,207	955,915	535,727
-27,082	15,230	955,032	535,283
-26,067	15,270	954,242	534,948
-25,052	15,197	953,665	534,370
-24,038	15,227	952,817	533,969
-23,023	15,184	952,398	533,577
-22,009	15,261	951,543	533,323
-20,994	15,230	951,012	532,904
-19,979	15,191	950,462	532,451
-18,965	15,205	949,599	531,991
-17,950	15,223	949,337	531,879
-16,936	15,100	948,588	531,046
-15,921	15,227	947,840	531,013
-14,906	15,086	947,145	530,154
-13,892	15,132	946,381	529,851
-12,877	15,110	945,872	529,475
-11,863	15,041	945,314	528,921
-10,848	15,114	944,634	528,752
-9,833	15,214	944,386	528,909
-8,819	15,192	943,500	528,321
-7,804	15,132	942,959	527,809
-6,790	15,069	942,437	527,297
-5,775	15,147	942,017	527,287
-4,760	15,177	941,198	526,902
-3,746	15,083	940,509	526,200
-2,731	15,002	939,829	525,543
-1,717	14,847	939,457	524,823
-0,702	14,926	938,677	524,615
0,313	14,812	937,819	524,570
1,327	18,188	935,761	533,991
2,342	27,368	789,552	474,725
3,356	23,934	444,902	262,390
4,371	-5,561	295,989	145,039
5,386	-9,579	277,811	132,303
6,400	-10,716	272,154	128,538
7,415	-10,855	269,672	127,225
8,429	-11,209	268,500	126,337
9,444	-11,137	267,526	125,933
10,459	-11,042	266,912	125,719
11,473	-11,058	266,107	125,314
12,488	-11,364	265,764	124,864
13,502	-11,488	265,053	124,406
14,517	-11,503	264,860	124,291
15,531	-11,419	264,325	124,105
16,546	-11,337	263,856	123,947
17,561	-11,209	263,529	123,898
18,575	-11,116	263,313	123,869
19,590	-11,291	262,866	123,490
20,604	-11,173	262,725	123,519
21,619	-11,307	262,290	123,183
22,634	-11,227	261,920	123,070
23,648	-11,296	261,686	122,887
24,663	-11,276	261,321	122,723
25,677	-11,354	261,088	122,533
26,692	-11,288	260,781	122,437
27,707	-11,221	260,525	122,365
28,721	-11,385	260,195	122,053
29,736	-11,469	259,942	121,850
30,750	-11,319	259,879	121,943
31,765	-11,404	259,628	121,738
32,780	-11,319	259,215	121,609
33,794	-11,350	259,062	121,499
34,809	-11,435	258,815	121,297
35,823	-11,503	258,686	121,166
36,838	-11,457	258,252	120,992
37,853	-11,672	258,136	120,738
38,867	-11,601	257,802	120,634
39,882	-11,287	257,608	120,808
40,896	-11,496	257,441	120,535
41,911	-11,500	257,154	120,387
42,926	-11,518	256,841	120,213
43,940	-11,546	256,582	120,057
44,955	-11,640	256,436	119,896
45,969	-11,397	256,124	119,951
46,984	-11,644	255,937	119,638
47,999	-11,876	255,592	119,263
49,013	-12,055	255,280	118,951
50,028	-12,332	255,143	118,636
51,042	-12,413	254,922	118,452
52,057	-12,312	254,582	118,371
53,071	-12,240	254,423	118,349
54,086	-12,200	254,361	118,344
55,101	-12,079	254,102	118,318
56,115	-11,701	254,149	118,657
57,130	-11,171	253,908	118,993
58,144	-11,176	253,718	118,889
59,159	-10,845	253,422	119,025
60,174	-11,034	253,321	118,804
61,188	-11,144	253,087	118,589
62,203	-11,309	252,960	118,377
63,217	-11,282	252,653	118,245
64,232	-11,351	252,532	118,119
65,247	-11,352	252,321	118,009
66,261	-11,279	251,984	117,904
67,276	-11,473	251,715	117,601
68,290	-11,796	251,420	117,176
69,305	-11,935	251,234	116,960
70,320	-11,820	251,083	116,978
71,334	-11,325	250,939	117,323
72,349	-11,205	250,737	117,321
73,363	-11,138	250,480	117,247
74,378	-11,276	250,383	117,073
75,393	-11,297	250,060	116,894
76,407	-11,304	249,931	116,818
77,422	-11,242	249,726	116,764
78,436	-11,332	249,493	116,568
79,451	-11,214	249,411	116,620
80,466	-11,550	248,989	116,127
81,480	-11,506	248,862	116,095
82,495	-11,442	248,467	115,954
83,509	-11,558	248,494	115,858
84,524	-11,661	248,118	115,586
85,539	-12,044	248,142	115,264
86,553	-11,791	247,767	115,292
87,568	-11,779	247,608	115,218
88,582	-11,655	247,414	115,222
89,597	-11,737	247,324	115,101
90,611	-11,581	247,234	115,179
91,626	-11,391	247,035	115,236
92,641	-11,518	246,816	115,018
93,655	-11,552	246,645	114,899
94,670	-11,500	246,267	114,756
95,684	-11,649	246,091	114,539
96,699	-11,394	245,865	114,637
97,714	-11,556	245,815	114,468
98,728	-11,688	245,533	114,217
99,743	-11,852	245,375	113,996
100,757	-11,730	245,093	113,956
101,772	-11,856	244,998	113,798
102,787	-11,597	244,882	113,949
103,801	-11,588	244,550	113,791
104,816	-11,292	244,527	114,017
105,830	-11,454	244,488	113,854
106,845	-11,134	244,132	113,942
107,860	-11,492	243,984	113,568
108,874	-11,535	243,639	113,361
109,889	-11,511	243,596	113,350
110,903	-11,662	243,345	113,099
111,918	-11,736	243,241	112,979
112,933	-11,452	243,025	113,103
113,947	-11,542	242,825	112,926
114,962	-11,588	242,762	112,848
115,976	-11,556	242,677	112,825
116,991	-11,380	242,438	112,849
118,006	-11,229	242,134	112,821
119,020	-11,321	242,098	112,719
120,035	-11,469	242,067	112,573
121,049	-11,352	241,718	112,497
122,064	-11,263	241,394	112,409
123,079	-11,449	241,353	112,227
124,093	-11,544	240,996	111,973
125,108	-11,854	240,933	111,681
126,122	-11,911	240,615	111,477
127,137	-12,210	240,335	111,094
128,151	-11,915	240,124	111,227
129,166	-11,526	240,079	111,513
130,181	-11,826	239,974	111,210
131,195	-11,718	239,786	111,201
132,210	-11,561	239,500	111,186
133,224	-11,361	239,275	111,233
134,239	-11,278	239,203	111,257
135,254	-11,386	239,169	111,143
136,268	-11,585	238,821	110,811
137,283	-11,878	238,710	110,513
138,297	-11,804	238,494	110,463
139,312	-11,742	238,190	110,362
140,327	-11,525	238,044	110,460
141,341	-11,128	238,123	110,806
142,356	-11,134	238,005	110,737
143,370	-11,155	237,797	110,613
144,385	-10,924	237,638	110,715
145,400	-11,034	237,577	110,588
146,414	-11,065	237,316	110,432
147,429	-11,123	237,040	110,247
148,443	-11,269	236,948	110,078
149,458	-11,207	236,853	110,073
150,473	-11,182	236,537	109,937
151,487	-11,167	236,339	109,847
152,502	-11,249	236,369	109,785
153,516	-11,069	236,133	109,810
154,531	-11,197	235,860	109,571
155,546	-11,116	235,723	109,562
156,560	-11,144	235,588	109,467
157,575	-11,443	235,355	109,111
158,589	-11,375	235,165	109,068
159,604	-11,001	235,140	109,344
160,619	-10,958	234,998	109,302
161,633	-11,009	234,822	109,169
162,648	-11,002	234,717	109,116
163,662	-11,273	234,549	108,815
164,677	-11,151	234,347	108,808
165,692	-11,031	234,102	108,779
166,706	-10,904	234,018	108,830
167,721	-10,779	233,818	108,826
168,735	-10,919	233,758	108,678
169,750	-10,959	233,601	108,564
170,764	-11,061	233,428	108,394
171,779	-11,064	233,201	108,276
172,794	-10,890	233,184	108,396
173,808	-11,143	232,873	108,043
174,823	-11,671	232,508	107,449
175,837	-11,780	232,284	107,251
176,852	-11,473	232,394	107,533
177,867	-10,920	232,143	107,840
178,881	-10,965	232,197	107,820
179,896	-11,007	232,063	107,715
180,910	-10,817	231,774	107,720
181,925	-11,127	231,686	107,427
182,940	-10,898	231,591	107,553
183,954	-10,853	231,242	107,416
184,969	-10,910	231,295	107,387
185,983	-10,801	231,021	107,335
186,998	-10,793	230,947	107,297
188,013	-10,769	230,742	107,211
189,027	-10,686	230,588	107,194
190,042	-10,629	230,398	107,140
191,056	-10,835	230,350	106,948
192,071	-10,879	230,175	106,824
193,086	-10,727	229,917	106,812
194,100	-10,742	229,799	106,737
195,115	-10,933	229,424	106,405
196,129	-10,938	229,484	106,420
197,144	-5,694	231,275	111,320
198,159	-0,136	232,839	116,402
199,173	2,808	233,879	119,214
200,188	3,419	233,687	119,583
201,202	3,476	233,502	119,522
202,217	3,394	233,460	119,426
203,232	3,871	233,264	119,686
204,246	3,740	233,182	119,532
205,261	3,817	232,979	119,477
206,275	3,800	232,974	119,450
207,290	3,974	232,915	119,545
208,304	3,965	232,598	119,364
209,319	3,900	232,527	119,267
210,334	3,741	232,256	118,994
211,348	3,749	231,900	118,807
212,363	3,259	231,805	118,369
213,377	3,044	231,519	118,047
214,392	2,983	231,339	117,897
215,407	3,436	231,286	118,209
216,421	3,231	231,150	117,971
217,436	3,413	230,917	117,981
218,450	2,814	230,681	117,390
219,465	2,904	230,561	117,387
220,480	2,980	230,355	117,330
221,494	2,959	230,291	117,271
222,509	3,177	230,394	117,481
223,523	3,057	230,076	117,216
224,538	2,920	229,959	117,041
225,553	3,081	229,795	117,071
226,567	3,179	229,665	117,069
227,582	3,221	229,606	117,060
228,596	3,460	229,583	117,221
229,611	3,437	229,249	117,022
230,626	2,827	228,957	116,398
231,640	2,548	228,920	116,156
232,655	3,296	228,683	116,595
233,669	3,743	228,769	116,969
234,684	3,958	228,517	116,994
235,699	3,508	228,338	116,549
236,713	3,388	228,150	116,352
237,728	3,180	228,038	116,126
238,742	3,091	227,650	115,851
239,757	3,152	227,617	115,870
240,772	3,239	227,414	115,822
241,786	2,974	227,459	115,634
242,801	3,178	227,397	115,746
243,815	3,551	227,324	115,981
244,830	3,374	227,140	115,743
245,844	3,210	226,739	115,404
246,859	3,140	226,677	115,310
247,874	3,270	226,577	115,348
248,888	3,229	226,517	115,275
249,903	3,202	226,334	115,152
250,917	3,137	226,078	114,962
251,932	3,152	226,002	114,925
252,947	3,048	225,751	114,708
253,961	2,877	225,624	114,505
254,976	2,996	225,530	114,537
255,990	3,134	225,410	114,569
257,005	3,235	225,251	114,554
258,020	3,239	225,089	114,464
259,034	3,471	225,011	114,588
260,049	3,447	224,900	114,503
261,063	3,454	224,761	114,428
262,078	3,496	224,500	114,316
263,093	3,440	224,419	114,222
264,107	3,335	224,285	114,066
265,122	3,493	224,158	114,108
266,136	3,579	223,999	114,082
267,151	3,695	223,823	114,067
268,166	3,125	223,623	113,532
269,180	2,976	223,206	113,200
270,195	2,979	223,315	113,248
271,209	3,106	223,105	113,225
272,224	3,230	222,975	113,241
273,239	3,216	222,883	113,173
274,253	3,199	222,652	113,034
275,268	3,001	222,396	112,747
276,282	2,789	222,415	112,591
277,297	2,728	222,444	112,550
278,312	2,957	222,194	112,582
279,326	2,992	222,076	112,538
280,341	3,270	221,910	112,649
281,355	3,024	221,720	112,361
282,370	3,329	221,637	112,534
283,384	2,964	221,389	112,129
284,399	2,931	221,263	112,031
285,414	2,841	221,116	111,882
286,428	3,213	221,024	112,098
287,443	3,322	221,048	112,179
288,457	3,136	220,854	111,934
289,472	2,938	220,646	111,674
290,487	2,742	220,357	111,375
291,501	2,503	220,327	111,175
292,516	2,637	220,188	111,194
293,530	2,861	220,072	111,288
294,545	2,824	219,938	111,183
295,560	2,828	219,788	111,100
296,574	2,946	219,615	111,089
297,589	2,898	219,540	111,007
298,603	3,099	219,279	111,011
299,618	3,071	219,326	111,004
300,633	3,129	219,195	110,970
301,647	3,487	219,064	111,153
302,662	3,372	218,939	110,997
303,676	3,437	218,620	110,872
304,691	3,226	218,718	110,759
305,706	3,168	218,398	110,545
306,720	3,237	218,304	110,538
307,735	3,223	218,199	110,464
308,749	2,976	217,975	110,163
309,764	3,007	217,872	110,124
310,779	3,296	217,764	110,267
311,793	3,229	217,676	110,165
312,808	3,254	217,535	110,102
313,822	3,257	217,299	109,974
314,837	3,158	217,079	109,783
315,852	3,019	216,990	109,628
316,866	2,946	216,799	109,469
317,881	3,258	216,789	109,678
318,895	3,186	216,668	109,555
319,910	2,994	216,473	109,310
320,925	2,937	216,223	109,133
321,939	2,675	216,104	108,876
322,954	2,823	216,077	108,958
323,968	3,208	215,893	109,131
324,983	3,419	215,806	109,228
325,997	3,344	215,698	109,110
327,012	3,164	215,517	108,880
328,027	3,111	215,472	108,810
329,041	3,482	215,200	108,927
330,056	3,214	215,130	108,691
331,070	2,656	214,830	108,134
332,085	2,602	214,649	107,995
333,100	3,277	214,567	108,422
334,114	3,545	214,495	108,566
335,129	3,273	214,560	108,396
336,143	3,183	214,262	108,172
337,158	3,110	214,139	108,049
338,173	3,179	214,026	108,031
339,187	2,781	213,916	107,685
340,202	2,826	213,808	107,653
341,216	2,928	213,505	107,562
342,231	3,001	213,357	107,530
343,246	3,024	213,229	107,472
344,260	2,911	213,315	107,426
345,275	3,310	213,089	107,583
346,289	3,432	212,985	107,607
347,304	3,372	212,869	107,496
348,319	3,053	212,570	107,112
349,333	3,070	212,485	107,072
350,348	3,046	212,334	106,969
351,362	3,383	212,343	107,200
352,377	3,175	212,175	106,961
353,392	2,948	212,067	106,738
354,406	3,359	211,812	106,886
355,421	195,590	1340,121	1417,808
356,435	156,250	1477,559	1417,774
