DTS Sentinel unit serial number:	SN410029Multiplexer serial number:	ORYXHardware model number:	OX2-SRSoftware version number:	ORYX F/W v4,00 Oryx Data Collector v3.7.2.0data status	okinstallation	B6 Nyhavnadifferential loss correction	single-endedforward channel	channel 2reverse channel	N/Adate	2023/12/09time	07:20:08forward acquisition time	300,00reverse acquisition time	0,00gamma	499,1914k internal	0,3138k external	0,3138temperature offset calibration	1,0000default loss term (dB/km)	0,3820temperature slope calibration	1,0000multiplexer offset coefficient	1,0000multiplexer slope coefficient	1,0000fibre end	0,00T internal ref (°C)	18,57T ext. ref 1 (°C)	2,04T ext. ref 2 (°C)	2,05length (m)	temperature (°C)	Stokes	anti-Stokes-744,400	-61,995	0,171	-0,053
-743,385	-16,756	-0,307	0,144
-742,371	4,680	0,107	0,058
-741,356	-135,590	-0,210	-0,018
-740,342	-192,625	0,066	-0,000
-739,327	-137,421	-0,268	0,022
-738,312	-16,487	0,019	-0,009
-737,298	-149,216	-0,291	-0,017
-736,283	-42,120	0,139	0,053
-735,269	-75,378	-0,253	0,066
-734,254	10,163	0,102	0,057
-733,239	-160,115	-0,404	0,016
-732,225	-57,680	0,164	-0,053
-731,210	800,000	0,095	0,220
-730,196	26,028	0,032	-0,020
-729,181	159,363	-0,037	-0,038
-728,167	-129,295	0,075	0,008
-727,152	-75,092	0,093	0,024
-726,137	109,164	-0,117	-0,104
-725,123	-138,351	-0,049	0,004
-724,108	-28,836	-0,156	-0,066
-723,094	-200,000	-0,004	-0,158
-722,079	-200,000	-0,002	-0,172
-721,064	667,861	0,026	-0,051
-720,050	117,746	0,064	0,058
-719,035	67,495	-0,025	0,019
-718,021	800,000	0,023	-0,055
-717,006	434,952	-0,032	0,052
-715,991	-200,000	0,004	-0,042
-714,977	84,694	-0,054	0,044
-713,962	800,000	-0,026	-0,075
-712,948	-91,225	0,102	-0,022
-711,933	197,857	-0,116	-0,132
-710,918	182,833	-0,035	-0,039
-709,904	79,823	-0,122	-0,097
-708,889	-200,000	-0,005	-0,048
-707,875	93,901	-0,037	-0,031
-706,860	143,225	-0,050	0,050
-705,845	456,218	0,062	0,102
-704,831	34,935	0,192	-0,124
-703,816	-105,835	0,078	-0,013
-702,802	-200,000	-0,004	-0,083
-701,787	124,087	0,148	-0,138
-700,772	-200,000	0,005	-0,164
-699,758	656,988	0,002	0,004
-698,743	-73,324	0,029	0,008
-697,729	-193,132	0,052	-0,000
-696,714	-113,886	0,116	0,016
-695,699	22,462	-0,137	-0,083
-694,685	-100,324	-0,019	0,004
-693,670	-200,000	-0,003	0,011
-692,656	-200,000	-0,072	0,000
-691,641	-103,816	0,061	0,010
-690,627	440,652	0,035	-0,057
-689,612	-104,155	-0,082	0,014
-688,597	-108,429	-0,159	-0,025
-687,583	201,835	-0,107	-0,122
-686,568	-126,818	-0,110	0,012
-685,554	800,000	-0,027	0,056
-684,539	800,000	0,020	0,060
-683,524	800,000	-0,056	-0,142
-682,510	159,543	-0,019	0,020
-681,495	552,925	-0,056	-0,101
-680,481	23,620	-0,040	-0,024
-679,466	-200,000	-0,015	-0,058
-678,451	800,000	0,044	-0,107
-677,437	-72,250	0,086	0,024
-676,422	429,191	-0,098	-0,158
-675,408	289,967	-0,081	-0,109
-674,393	-200,000	0,008	0,111
-673,378	381,445	0,123	-0,188
-672,364	-200,000	-0,024	-0,154
-671,349	-200,000	-0,009	0,032
-670,335	10,797	-0,083	-0,047
-669,320	391,297	0,060	-0,092
-668,305	36,772	0,075	0,049
-667,291	658,792	0,059	-0,113
-666,276	-127,740	0,022	0,002
-665,262	-200,000	-0,003	-0,063
-664,247	-170,139	-0,068	-0,002
-663,232	-200,000	-0,014	-0,077
-662,218	800,000	-0,048	-0,113
-661,203	-65,262	0,067	0,020
-660,189	-24,547	-0,037	-0,016
-659,174	800,000	0,037	0,084
-658,159	800,000	-0,065	-0,189
-657,145	568,140	-0,026	-0,047
-656,130	29,847	0,165	-0,103
-655,116	174,913	0,007	0,007
-654,101	-12,324	-0,072	-0,035
-653,086	-11,406	0,054	-0,026
-652,072	317,853	-0,048	0,067
-651,057	692,693	-0,024	-0,047
-650,043	-25,623	-0,101	-0,044
-649,028	123,400	0,108	0,100
-648,014	613,047	0,021	0,039
-646,999	114,924	-0,108	0,097
-645,984	98,625	0,099	0,085
-644,970	800,000	-0,024	-0,077
-643,955	-50,024	0,048	-0,017
-642,941	615,746	0,037	-0,069
-641,926	36,935	0,047	0,031
-640,911	83,900	-0,062	-0,050
-639,897	-15,421	0,117	-0,055
-638,882	-35,856	0,087	0,035
-637,868	-22,986	-0,045	0,020
-636,853	-32,696	-0,096	0,039
-635,838	298,564	-0,036	-0,049
-634,824	-9,094	-0,061	-0,030
-633,809	609,407	-0,093	0,173
-632,795	110,656	0,033	0,030
-631,780	-133,120	0,039	-0,004
-630,765	800,000	0,029	0,060
-629,751	-145,500	0,025	-0,002
-628,736	81,060	-0,043	0,034
-627,722	-200,000	-0,003	0,167
-626,707	-115,103	-0,189	0,026
-625,692	-200,000	-0,021	0,149
-624,678	102,405	-0,072	0,062
-623,663	800,000	-0,033	0,070
-622,649	-200,000	-0,012	-0,120
-621,634	-106,977	-0,066	0,011
-620,619	101,367	0,101	0,087
-619,605	-58,900	0,089	-0,028
-618,590	-122,809	-0,094	-0,011
-617,576	-25,305	-0,122	0,053
-616,561	10,686	-0,140	0,079
-615,546	-200,000	0,015	0,199
-614,532	72,586	-0,078	-0,060
-613,517	207,743	-0,038	-0,044
-612,503	-200,000	-0,000	-0,082
-611,488	-17,356	0,112	-0,052
-610,474	354,021	-0,059	-0,086
-609,459	50,902	0,037	-0,026
-608,444	-96,031	-0,072	-0,014
-607,430	286,085	0,092	-0,123
-606,415	22,053	0,048	-0,029
-605,401	800,000	0,077	-0,193
-604,386	800,000	0,030	0,078
-603,371	-200,000	0,011	-0,037
-602,357	800,000	-0,065	0,191
-601,342	79,036	0,083	0,066
-600,328	-200,000	-0,010	-0,045
-599,313	800,000	-0,028	-0,064
-598,298	-200,000	0,005	0,153
-597,284	11,420	-0,056	0,031
-596,269	-107,311	0,105	-0,017
-595,255	800,000	-0,024	-0,070
-594,240	154,730	0,159	-0,162
-593,225	230,709	-0,059	-0,071
-592,211	-79,818	0,019	0,005
-591,196	207,012	-0,033	0,037
-590,182	800,000	0,008	-0,023
-589,167	800,000	-0,033	0,092
-588,152	-42,380	-0,147	-0,055
-587,138	747,388	-0,035	-0,070
-586,123	-12,129	-0,011	0,005
-585,109	800,000	-0,025	-0,076
-584,094	61,108	0,078	0,057
-583,079	-136,184	0,057	0,005
-582,065	214,376	-0,088	0,103
-581,050	-200,000	-0,001	-0,006
-580,036	-99,837	0,077	0,014
-579,021	-83,619	-0,154	-0,036
-578,006	-55,379	-0,169	-0,056
-576,992	800,000	0,013	0,030
-575,977	426,344	0,010	-0,016
-574,963	73,707	0,022	-0,017
-573,948	446,574	0,051	0,083
-572,934	-69,509	-0,173	0,049
-571,919	97,793	-0,044	0,037
-570,904	-200,000	-0,040	-0,133
-569,890	800,000	0,078	-0,236
-568,875	4,329	0,135	-0,073
-567,861	-109,545	0,059	-0,009
-566,846	49,727	-0,054	0,038
-565,831	129,379	-0,075	0,070
-564,817	-89,816	0,097	0,021
-563,802	91,341	-0,040	0,033
-562,788	309,858	-0,023	-0,032
-561,773	-200,000	-0,021	0,110
-560,758	-200,000	0,019	0,064
-559,744	800,000	-0,019	-0,058
-558,729	-200,000	0,003	0,017
-557,715	-108,931	-0,187	-0,029
-556,700	800,000	-0,051	-0,138
-555,685	217,006	-0,049	0,057
-554,671	22,407	0,074	0,044
-553,656	298,860	0,053	-0,071
-552,642	-101,038	0,030	-0,005
-551,627	-134,279	0,010	-0,001
-550,612	800,000	0,026	-0,057
-549,598	15,449	-0,084	0,048
-548,583	242,487	-0,055	-0,068
-547,569	223,317	-0,032	-0,038
-546,554	800,000	0,012	-0,027
-545,539	-120,360	-0,084	-0,010
-544,525	164,009	0,017	0,018
-543,510	233,667	-0,084	0,102
-542,496	124,217	-0,021	0,019
-541,481	32,199	0,071	-0,045
-540,466	-35,595	0,102	-0,041
-539,452	133,401	0,030	0,029
-538,437	5,314	0,056	-0,030
-537,423	-200,000	0,011	0,070
-536,408	347,040	0,053	0,077
-535,393	21,298	-0,072	-0,043
-534,379	127,185	0,069	-0,065
-533,364	800,000	-0,019	-0,058
-532,350	800,000	0,038	-0,092
-531,335	59,935	0,057	0,042
-530,321	701,124	0,040	-0,079
-529,306	283,895	0,041	0,055
-528,291	-89,741	-0,130	-0,028
-527,277	69,971	-0,053	0,040
-526,262	4,878	0,064	0,035
-525,248	585,391	0,061	0,110
-524,233	-200,000	-0,039	0,247
-523,218	58,266	-0,023	-0,017
-522,204	83,313	0,111	0,089
-521,189	36,492	0,065	-0,042
-520,175	-151,015	0,099	0,005
-519,160	19,809	-0,110	0,065
-518,145	800,000	0,061	-0,164
-517,131	361,954	0,060	-0,089
-516,116	503,248	-0,043	0,074
-515,102	598,669	-0,031	0,056
-514,087	-200,000	-0,005	-0,152
-513,072	-200,000	0,020	-0,086
-512,058	-200,000	-0,018	-0,094
-511,043	-98,678	0,084	-0,016
-510,029	800,000	0,030	0,063
-509,014	800,000	0,035	0,087
-507,999	800,000	-0,028	0,090
-506,985	-200,000	0,036	-0,146
-505,970	-25,909	-0,065	-0,028
-504,956	691,269	-0,016	-0,032
-503,941	242,063	-0,064	-0,079
-502,926	-20,811	-0,056	0,025
-501,912	761,439	0,012	0,025
-500,897	-71,504	-0,025	0,007
-499,883	-200,000	-0,039	0,134
-498,868	152,347	0,079	-0,079
-497,853	327,596	-0,074	-0,105
-496,839	296,427	-0,027	-0,037
-495,824	45,619	0,100	-0,068
-494,810	-130,787	0,071	-0,007
-493,795	111,796	-0,084	0,075
-492,781	314,036	0,068	0,095
-491,766	172,468	-0,022	-0,024
-490,751	546,993	0,039	0,069
-489,737	800,000	-0,020	-0,053
-488,722	554,095	0,051	-0,090
-487,708	-75,546	0,023	-0,006
-486,693	-131,779	0,021	-0,002
-485,678	31,458	-0,063	0,040
-484,664	126,738	0,080	-0,074
-483,649	152,049	-0,095	-0,095
-482,635	194,304	0,053	-0,060
-481,620	132,136	0,046	0,043
-480,605	569,460	-0,020	-0,037
-479,591	90,511	0,053	0,044
-478,576	16,967	0,066	-0,038
-477,562	-200,000	0,013	-0,116
-476,547	-92,599	-0,104	0,021
-475,532	8,617	0,111	0,061
-474,518	359,260	-0,100	0,147
-473,503	7,142	0,066	-0,036
-472,489	-156,963	-0,034	0,002
-471,474	800,000	0,018	0,046
-470,459	-104,161	-0,151	0,025
-469,445	-109,174	0,083	0,013
-468,430	2,549	-0,084	-0,044
-467,416	-29,254	-0,116	0,049
-466,401	800,000	-0,044	0,131
-465,386	738,946	0,024	0,047
-464,372	525,458	-0,053	0,092
-463,357	357,496	-0,036	-0,053
-462,343	14,576	-0,068	-0,039
-461,328	-197,648	-0,045	0,000
-460,313	-17,491	-0,078	-0,036
-459,299	800,000	0,054	0,125
-458,284	177,647	-0,130	0,139
-457,270	800,000	-0,029	0,082
-456,255	800,000	-0,050	0,134
-455,241	-200,000	-0,022	-0,076
-454,226	483,339	-0,031	-0,052
-453,211	-75,634	0,101	0,026
-452,197	-200,000	-0,003	0,038
-451,182	800,000	0,049	0,144
-450,168	462,192	0,042	-0,070
-449,153	-123,823	0,027	0,003
-448,138	-200,000	0,015	-0,104
-447,124	-200,000	-0,005	-0,117
-446,109	-200,000	0,029	-0,162
-445,095	214,804	0,070	-0,081
-444,080	-200,000	-0,004	0,014
-443,065	99,607	-0,073	0,062
-442,051	800,000	-0,014	-0,032
-441,036	-200,000	0,053	0,000
-440,022	133,290	-0,042	-0,040
-439,007	67,148	0,038	0,029
-437,992	-200,000	-0,005	-0,090
-436,978	-110,221	-0,006	-0,001
-435,963	185,164	0,040	-0,043
-434,949	800,000	0,046	-0,118
-433,934	92,454	0,125	-0,103
-432,919	-200,000	-0,023	-0,167
-431,905	-200,000	-0,035	0,128
-430,890	623,550	-0,046	0,085
-429,876	5,165	0,198	0,107
-428,861	391,512	0,021	-0,031
-427,846	95,076	0,074	-0,061
-426,832	390,032	0,054	-0,083
-425,817	146,793	-0,144	-0,142
-424,803	222,630	-0,047	-0,055
-423,788	356,681	0,035	0,052
-422,773	800,000	0,036	-0,094
-421,759	199,445	0,108	0,121
-420,744	14,437	-0,074	-0,042
-419,730	-98,522	-0,185	-0,034
-418,715	-200,000	-0,018	-0,079
-417,701	-75,183	-0,077	-0,020
-416,686	252,234	0,070	-0,088
-415,671	343,195	0,047	0,067
-414,657	-101,644	-0,077	-0,014
-413,642	-200,000	0,000	0,004
-412,628	63,677	0,061	0,045
-411,613	35,499	-0,071	0,045
-410,598	-93,810	0,118	-0,024
-409,584	-135,811	0,099	0,008
-408,569	-106,900	0,025	-0,004
-407,555	-200,000	-0,026	0,102
-406,540	-97,508	-0,137	-0,026
-405,525	32,715	-0,032	-0,020
-404,511	233,706	-0,062	-0,075
-403,496	2,794	0,126	-0,067
-402,482	-200,000	0,020	-0,116
-401,467	-200,000	0,003	0,031
-400,452	800,000	0,057	0,135
-399,438	8,161	-0,073	0,040
-398,423	800,000	0,016	-0,044
-397,409	361,157	0,043	-0,063
-396,394	217,835	-0,064	0,074
-395,379	-200,000	-0,003	0,013
-394,365	70,010	-0,032	-0,024
-393,350	73,263	-0,053	-0,040
-392,336	7,539	0,140	-0,077
-391,321	-153,266	-0,097	0,005
-390,306	-200,000	0,011	0,038
-389,292	159,499	0,084	-0,085
-388,277	-131,710	0,112	-0,011
-387,263	-121,028	0,163	0,020
-386,248	153,275	-0,058	-0,058
-385,233	800,000	-0,065	-0,136
-384,219	800,000	-0,043	-0,100
-383,204	800,000	0,056	0,162
-382,190	-78,265	-0,113	0,028
-381,175	100,837	0,060	0,051
-380,160	-200,000	0,022	0,086
-379,146	111,248	-0,058	-0,051
-378,131	-3,800	-0,003	0,002
-377,117	-200,000	0,101	0,000
-376,102	-200,000	-0,013	-0,148
-375,088	-200,000	-0,020	0,111
-374,073	465,496	0,091	0,149
-373,058	-57,578	-0,036	0,012
-372,044	-200,000	0,006	-0,034
-371,029	800,000	-0,022	0,044
-370,015	29,110	-0,050	-0,031
-369,000	91,583	-0,135	-0,111
-367,985	236,100	0,023	0,027
-366,971	-155,074	0,094	0,004
-365,956	4,717	0,087	0,047
-364,942	-65,340	0,165	-0,048
-363,927	-200,000	-0,001	0,163
-362,912	-200,000	-0,012	0,065
-361,898	89,693	-0,040	-0,032
-360,883	800,000	0,026	0,060
-359,869	800,000	0,045	-0,093
-358,854	763,245	-0,035	0,070
-357,839	183,785	0,042	0,046
-356,825	-139,225	0,093	0,007
-355,810	294,899	-0,019	0,026
-354,796	300,853	0,038	-0,051
-353,781	-149,011	-0,069	0,004
-352,766	105,264	0,080	0,069
-351,752	-200,000	0,019	0,092
-350,737	110,156	0,081	-0,071
-349,723	-200,000	0,011	-0,039
-348,708	510,490	0,077	0,132
-347,693	349,993	0,111	-0,160
-346,679	241,250	-0,078	-0,095
-345,664	800,000	-0,044	-0,101
-344,650	-200,000	-0,029	-0,117
-343,635	-200,000	-0,010	0,064
-342,620	-83,718	0,151	-0,035
-341,606	-200,000	0,043	0,158
-340,591	-78,338	-0,104	-0,026
-339,577	-89,524	-0,149	-0,032
-338,562	315,647	-0,064	-0,089
-337,548	221,153	-0,038	0,045
-336,533	0,761	-0,073	-0,038
-335,518	231,181	0,080	0,095
-334,504	-41,580	-0,060	0,022
-333,489	-19,353	-0,090	0,040
-332,475	800,000	-0,040	0,114
-331,460	-0,635	0,067	0,034
-330,445	-199,005	-0,030	-0,000
-329,431	-100,925	-0,101	0,018
-328,416	-84,297	-0,105	0,024
-327,402	10,789	-0,051	-0,028
-326,387	103,686	0,153	0,131
-325,372	5,070	-0,055	0,029
-324,358	24,785	-0,085	-0,051
-323,343	-144,540	-0,103	-0,007
-322,329	40,696	-0,054	-0,035
-321,314	800,000	0,039	0,089
-320,299	71,523	0,113	-0,086
-319,285	306,860	-0,028	0,038
-318,270	800,000	0,040	-0,127
-317,256	-200,000	-0,001	-0,086
-316,241	338,449	0,063	0,089
-315,226	-200,000	-0,011	-0,051
-314,212	223,751	-0,036	-0,042
-313,197	-56,700	0,133	-0,043
-312,183	-200,000	0,003	0,120
-311,168	-157,502	0,096	-0,004
-310,153	781,841	-0,047	0,095
-309,139	-137,846	-0,108	0,009
-308,124	-27,740	0,118	-0,050
-307,110	284,386	0,061	0,080
-306,095	-115,467	0,129	-0,017
-305,080	-173,554	-0,077	-0,002
-304,066	-130,826	-0,107	-0,010
-303,051	113,694	0,024	-0,021
-302,037	164,632	-0,027	0,028
-301,022	-148,334	-0,081	-0,005
-300,008	181,511	0,071	-0,077
-298,993	-200,000	0,010	0,081
-297,978	-200,000	-0,005	0,093
-296,964	-200,000	0,009	-0,133
-295,949	-100,458	-0,128	0,023
-294,935	219,232	0,052	-0,061
-293,920	82,669	0,094	0,074
-292,905	98,382	0,147	0,123
-291,891	-86,001	0,055	0,012
-290,876	189,263	0,092	0,100
-289,862	-200,000	0,010	0,093
-288,847	-6,330	-0,020	0,010
-287,832	14,542	0,101	-0,058
-286,818	-107,226	0,080	0,013
-285,803	311,204	0,028	-0,038
-284,789	790,261	0,034	-0,068
-283,774	-200,000	-0,003	0,018
-282,759	161,234	-0,120	0,123
-281,745	800,000	0,005	0,010
-280,730	248,952	0,022	-0,027
-279,716	-200,000	0,043	-0,197
-278,701	71,848	0,104	0,079
-277,686	182,169	0,033	-0,035
-276,672	-200,000	-0,032	-0,109
-275,657	-35,426	-0,041	0,016
-274,643	-46,938	-0,098	0,035
-273,628	-34,349	-0,078	-0,031
-272,613	800,000	0,014	0,044
-271,599	800,000	-0,007	-0,022
-270,584	519,519	0,090	-0,153
-269,570	127,978	0,047	-0,044
-268,555	-83,576	-0,151	-0,035
-267,540	17,162	0,078	-0,045
-266,526	-200,000	-0,012	-0,106
-265,511	546,823	0,034	-0,059
-264,497	51,756	0,039	0,027
-263,482	-136,359	0,049	-0,004
-262,467	108,545	-0,081	-0,070
-261,453	-200,000	-0,014	-0,068
-260,438	163,782	-0,041	0,042
-259,424	-200,000	-0,013	-0,116
-258,409	18,099	0,089	0,052
-257,395	800,000	-0,047	-0,102
-256,380	800,000	0,005	-0,011
-255,365	800,000	-0,041	0,111
-254,351	396,710	-0,073	0,111
-253,336	13,698	-0,149	-0,084
-252,322	-83,132	-0,009	0,002
-251,307	117,426	0,198	-0,177
-250,292	493,151	-0,041	0,068
-249,278	-5,329	0,016	0,008
-248,263	-72,771	-0,033	-0,009
-247,249	-79,349	-0,045	-0,011
-246,234	-159,577	-0,049	0,002
-245,219	-200,000	-0,037	-0,163
-244,205	-172,994	-0,084	-0,002
-243,190	-132,835	-0,110	-0,010
-242,176	-69,778	-0,050	0,014
-241,161	165,829	0,221	0,228
-240,146	-200,000	0,010	0,075
-239,132	-75,087	0,049	-0,013
-238,117	-104,360	-0,113	-0,019
-237,103	-57,620	0,085	-0,027
-236,088	29,929	-0,004	0,002
-235,073	242,003	-0,030	-0,037
-234,059	800,000	-0,025	-0,077
-233,044	314,213	0,062	0,085
-232,030	-200,000	-0,076	0,000
-231,015	-200,000	0,007	0,063
-230,000	158,868	-0,069	-0,070
-228,986	-200,000	0,004	-0,069
-227,971	40,125	-0,058	0,038
-226,957	431,536	-0,076	0,120
-225,942	630,547	0,030	0,056
-224,927	800,000	-0,072	-0,182
-223,913	-112,194	0,098	-0,014
-222,898	108,119	-0,081	-0,070
-221,884	-200,000	0,012	-0,094
-220,869	-7,203	0,068	-0,034
-219,855	-200,000	-0,010	0,038
-218,840	-10,377	-0,050	-0,024
-217,825	-200,000	0,009	-0,081
-216,811	-47,735	-0,064	0,022
-215,796	317,040	0,034	0,047
-214,782	-200,000	-0,002	0,019
-213,767	-112,857	-0,189	0,027
-212,752	41,412	0,100	0,065
-211,738	84,888	0,074	-0,059
-210,723	328,488	0,077	0,108
-209,709	-200,000	0,008	0,071
-208,694	1,469	-0,097	-0,051
-207,679	-121,119	-0,102	-0,012
-206,665	705,310	0,003	-0,005
-205,650	362,217	0,096	0,140
-204,636	596,308	0,021	0,038
-203,621	511,703	0,031	0,053
-202,606	-12,093	-0,100	-0,047
-201,592	198,690	-0,094	-0,105
-200,577	53,774	0,067	-0,047
-199,563	800,000	0,016	-0,036
-198,548	455,597	-0,037	0,060
-197,533	-45,164	0,066	0,024
-196,519	-200,000	0,034	0,109
-195,504	-200,000	-0,013	0,086
-194,490	31,276	-0,056	0,035
-193,475	-74,942	-0,042	0,011
-192,460	-136,724	0,085	0,007
-191,446	216,722	-0,080	-0,093
-190,431	-122,744	0,052	-0,006
-189,417	-49,072	-0,147	0,051
-188,402	-16,144	0,111	-0,051
-187,387	296,925	0,050	0,067
-186,373	2,027	-0,086	-0,045
-185,358	-200,000	0,018	0,073
-184,344	-180,340	0,052	-0,001
-183,329	800,000	0,012	0,025
-182,315	-200,000	-0,019	0,154
-181,300	81,907	0,062	-0,049
-180,285	239,451	-0,089	-0,108
-179,271	208,574	-0,100	-0,114
-178,256	-19,866	0,075	-0,033
-177,242	145,716	0,147	0,143
-176,227	283,313	0,038	0,050
-175,212	108,610	0,114	0,099
-174,198	-200,000	0,011	-0,052
-173,183	-49,365	0,033	-0,011
-172,169	-21,910	0,048	0,021
-171,154	-26,938	0,082	0,035
-170,139	14,363	0,187	0,105
-169,125	-200,000	-0,036	0,145
-168,110	-138,505	-0,012	0,001
-167,096	-200,000	0,013	-0,075
-166,081	491,947	0,049	-0,082
-165,066	15,492	-0,074	-0,042
-164,052	-200,000	-0,014	-0,064
-163,037	758,664	-0,005	-0,010
-162,023	-200,000	-0,001	0,231
-161,008	-200,000	0,004	-0,027
-159,993	443,754	-0,061	-0,097
-158,979	800,000	0,012	-0,035
-157,964	88,056	-0,019	0,015
-156,950	-30,934	-0,107	0,043
-155,935	147,894	0,052	0,050
-154,920	-148,601	-0,044	0,003
-153,906	-200,000	-0,009	0,085
-152,891	141,273	-0,031	0,029
-151,877	424,367	0,094	-0,147
-150,862	10,154	0,062	0,034
-149,847	-47,341	0,091	0,032
-148,833	800,000	0,026	0,065
-147,818	129,556	-0,107	0,099
-146,804	-200,000	-0,002	0,303
-145,789	-200,000	0,030	0,207
-144,775	800,000	-0,051	-0,118
-143,760	-92,487	0,081	-0,016
-142,745	276,373	0,097	-0,125
-141,731	-47,531	-0,171	0,060
-140,716	18,029	-0,042	0,024
-139,702	130,634	0,066	-0,061
-138,687	-1,407	-0,059	0,030
-137,672	28,494	0,120	0,073
-136,658	800,000	-0,018	0,041
-135,643	363,250	-0,032	0,047
-134,629	601,744	0,046	-0,083
-133,614	-53,065	0,025	0,008
-132,599	99,548	-0,133	0,112
-131,585	486,562	0,067	-0,111
-130,570	-64,682	0,055	0,016
-129,556	42,488	-0,135	-0,089
-128,541	-200,000	0,010	-0,058
-127,526	-200,000	0,039	-0,140
-126,512	70,203	-0,064	-0,048
-125,497	24,799	0,043	-0,026
-124,483	-60,361	0,130	0,040
-123,468	99,110	0,027	-0,023
-122,453	-73,122	0,065	0,017
-121,439	-84,816	-0,101	-0,023
-120,424	349,932	0,067	0,097
-119,410	800,000	-0,059	0,121
-118,395	596,365	0,065	0,116
-117,380	-57,388	-0,077	0,024
-116,366	157,529	-0,037	-0,037
-115,351	-141,651	0,105	-0,008
-114,337	-200,000	-0,112	0,000
-113,322	77,559	0,029	0,023
-112,307	646,513	0,021	-0,040
-111,293	-200,000	0,029	0,121
-110,278	-200,000	-0,004	0,183
-109,264	-200,000	0,041	0,177
-108,249	144,037	-0,014	0,013
-107,234	220,240	0,008	-0,010
-106,220	189,168	-0,066	-0,071
-105,205	-200,000	-0,016	-0,122
-104,191	-200,000	-0,008	0,177
-103,176	-200,000	-0,035	0,121
-102,162	-35,802	0,067	0,026
-101,147	170,855	0,094	-0,097
-100,132	265,564	-0,087	-0,110
-99,118	290,668	0,010	-0,013
-98,103	-175,510	0,100	0,002
-97,089	-200,000	0,009	0,113
-96,074	241,754	-0,049	0,060
-95,059	260,100	0,058	0,072
-94,045	-200,000	0,006	0,059
-93,030	-80,480	-0,141	0,034
-92,016	36,127	-0,026	0,016
-91,001	-72,878	0,043	0,011
-89,986	222,402	0,047	-0,055
-88,972	-200,000	-0,003	0,058
-87,957	800,000	-0,053	0,151
-86,943	396,984	-0,063	0,095
-85,928	-75,985	-0,068	-0,017
-84,913	173,774	-0,030	-0,032
-83,899	-200,000	0,014	0,051
-82,884	800,000	0,072	0,147
-81,870	-200,000	-0,007	0,056
-80,855	-96,395	-0,043	-0,008
-79,840	-106,737	-0,085	0,013
-78,826	-41,714	0,099	0,036
-77,811	-200,000	-0,004	0,023
-76,797	6,340	-0,102	-0,054
-75,782	386,256	-0,035	0,052
-74,767	72,819	-0,032	-0,024
-73,753	800,000	0,058	0,126
-72,738	89,123	-0,101	-0,081
-71,724	-200,000	0,031	-0,149
-70,709	23,287	-0,057	-0,033
-69,694	-200,000	-0,005	0,016
-68,680	-188,455	0,061	0,001
-67,665	-200,000	-0,027	0,139
-66,651	81,051	0,144	0,112
-65,636	158,027	0,023	-0,023
-64,622	800,000	-0,032	-0,077
-63,607	26,314	-0,150	-0,090
-62,592	-0,716	-0,034	-0,017
-61,578	378,207	0,044	0,065
-60,563	800,000	-0,063	-0,136
-59,549	82,223	-0,100	0,078
-58,534	-19,395	-1,699	-0,758
-57,519	-200,000	-0,369	-1,288
-56,505	-200,000	-1,182	-4,882
-55,490	-117,425	0,659	-0,085
-54,476	800,000	5,336	12,316
-53,461	-200,000	15,852	277,836
-52,446	-200,000	702,575	2244,138
-51,432	562,144	1619,059	2839,236
-50,417	121,069	1623,508	1458,755
-49,403	81,200	1283,987	1000,451
-48,388	36,699	1027,894	654,181
-47,373	21,569	989,862	579,946
-46,359	20,511	978,634	569,855
-45,344	18,801	974,436	561,767
-44,330	18,867	973,251	561,279
-43,315	18,666	971,420	559,541
-42,300	18,634	970,470	558,867
-41,286	18,589	969,525	558,153
-40,271	18,590	968,489	557,538
-39,257	18,582	967,570	556,960
-38,242	18,578	966,829	556,498
-37,227	18,600	966,029	556,088
-36,213	18,565	965,228	555,489
-35,198	18,555	964,286	554,896
-34,184	18,743	963,457	555,005
-33,169	18,571	962,644	553,958
-32,154	18,644	961,859	553,721
-31,140	18,649	960,956	553,196
-30,125	18,639	960,136	552,667
-29,111	18,616	959,466	552,187
-28,096	18,663	958,664	551,856
-27,082	18,618	958,156	551,396
-26,067	18,611	957,224	550,815
-25,052	18,546	956,571	550,207
-24,038	18,587	955,713	549,824
-23,023	18,533	955,042	549,242
-22,009	18,674	954,333	549,267
-20,994	18,674	953,678	548,866
-19,979	18,605	953,409	548,470
-18,965	18,638	952,641	548,111
-17,950	18,614	952,006	547,646
-16,936	18,567	951,374	547,111
-15,921	18,468	950,774	546,426
-14,906	18,467	950,001	545,959
-13,892	18,423	949,480	545,495
-12,877	18,438	948,688	545,068
-11,863	18,458	948,015	544,724
-10,848	18,507	947,478	544,548
-9,833	18,579	947,004	544,487
-8,819	18,531	946,283	543,896
-7,804	18,504	945,622	543,409
-6,790	18,444	945,237	542,973
-5,775	18,485	944,617	542,728
-4,760	18,448	944,093	542,288
-3,746	18,475	943,324	541,910
-2,731	18,318	942,541	540,939
-1,717	18,300	941,786	540,427
-0,702	18,274	941,228	540,001
0,313	18,069	940,673	539,851
1,327	21,156	938,693	548,438
2,342	30,159	795,974	489,022
3,356	27,064	449,142	271,273
4,371	-2,607	294,979	148,449
5,386	-6,468	276,164	135,304
6,400	-8,061	270,506	131,038
7,415	-8,062	267,946	129,786
8,429	-8,095	266,790	129,184
9,444	-8,125	266,023	128,773
10,459	-8,132	265,376	128,442
11,473	-8,493	264,989	127,914
12,488	-8,452	264,303	127,610
13,502	-8,359	263,677	127,380
14,517	-8,467	263,270	127,074
15,531	-8,333	262,946	127,028
16,546	-8,022	262,435	127,051
17,561	-8,214	262,239	126,771
18,575	-8,226	261,960	126,614
19,590	-8,323	261,580	126,332
20,604	-8,291	261,232	126,181
21,619	-8,162	260,842	126,097
22,634	-8,283	260,572	125,847
23,648	-8,355	260,248	125,615
24,663	-8,459	260,068	125,424
25,677	-8,423	259,908	125,368
26,692	-8,186	259,454	125,349
27,707	-8,226	259,349	125,251
28,721	-8,364	259,032	124,965
29,736	-8,563	258,816	124,672
30,750	-8,348	258,346	124,626
31,765	-8,375	258,157	124,499
32,780	-8,482	258,107	124,369
33,794	-8,401	257,751	124,258
34,809	-8,465	257,679	124,156
35,823	-8,382	257,185	123,979
36,838	-8,437	257,100	123,879
37,853	-8,337	256,615	123,722
38,867	-8,575	256,570	123,481
39,882	-8,456	256,415	123,499
40,896	-8,485	256,118	123,319
41,911	-8,419	255,851	123,239
42,926	-8,459	255,584	123,064
43,940	-8,597	255,484	122,884
44,955	-8,670	255,239	122,691
45,969	-8,499	254,927	122,679
46,984	-8,716	254,748	122,393
47,999	-8,851	254,450	122,121
49,013	-9,386	254,196	121,522
50,028	-9,207	253,888	121,519
51,042	-9,339	253,591	121,252
52,057	-9,527	253,445	121,007
53,071	-9,248	253,261	121,151
54,086	-9,221	253,114	121,093
55,101	-9,111	252,897	121,074
56,115	-8,921	252,898	121,229
57,130	-8,417	252,766	121,591
58,144	-8,166	252,519	121,679
59,159	-8,228	252,479	121,595
60,174	-8,261	252,076	121,361
61,188	-8,130	251,904	121,381
62,203	-8,340	251,807	121,142
63,217	-8,412	251,654	120,996
64,232	-8,207	251,337	121,009
65,247	-8,204	251,110	120,892
66,261	-8,357	250,782	120,592
67,276	-8,428	250,391	120,332
68,290	-8,887	250,344	119,905
69,305	-8,872	250,007	119,745
70,320	-8,881	249,898	119,675
71,334	-8,325	249,617	120,004
72,349	-8,264	249,745	120,108
73,363	-8,160	249,414	120,027
74,378	-8,276	249,232	119,830
75,393	-8,360	249,121	119,694
76,407	-8,226	248,805	119,646
77,422	-8,338	248,596	119,439
78,436	-8,340	248,400	119,333
79,451	-8,423	248,269	119,189
80,466	-8,587	247,983	118,902
81,480	-8,611	247,644	118,708
82,495	-8,546	247,499	118,683
83,509	-8,570	247,501	118,653
84,524	-8,559	247,120	118,469
85,539	-8,878	246,873	118,071
86,553	-8,890	246,784	118,007
87,568	-8,714	246,578	118,047
88,582	-8,652	246,323	117,967
89,597	-8,581	246,167	117,941
90,611	-8,550	246,066	117,908
91,626	-8,579	246,082	117,881
92,641	-8,294	245,646	117,901
93,655	-8,478	245,550	117,690
94,670	-8,568	245,272	117,471
95,684	-8,647	245,125	117,324
96,699	-8,700	244,942	117,181
97,714	-8,858	244,733	116,939
98,728	-8,617	244,405	116,973
99,743	-8,715	244,230	116,797
100,757	-8,817	244,096	116,637
101,772	-8,814	243,887	116,530
102,787	-8,682	243,691	116,536
103,801	-8,702	243,548	116,440
104,816	-8,574	243,501	116,513
105,830	-8,404	243,299	116,548
106,845	-8,542	243,261	116,405
107,860	-8,219	242,868	116,474
108,874	-8,528	242,699	116,126
109,889	-8,572	242,424	115,948
110,903	-8,532	242,230	115,878
111,918	-8,716	242,224	115,712
112,933	-8,622	242,005	115,675
113,947	-8,702	241,746	115,475
114,962	-8,694	241,617	115,410
115,976	-8,546	241,461	115,447
116,991	-8,497	241,249	115,376
118,006	-8,477	241,195	115,356
119,020	-8,441	241,101	115,330
120,035	-8,520	240,903	115,161
121,049	-8,300	240,748	115,257
122,064	-8,440	240,509	115,017
123,079	-8,586	240,345	114,809
124,093	-8,663	240,122	114,629
125,108	-8,662	239,760	114,447
126,122	-9,107	239,632	114,012
127,137	-8,941	239,483	114,067
128,151	-8,837	239,339	114,073
129,166	-8,596	239,111	114,150
130,181	-8,780	238,984	113,930
131,195	-8,801	238,643	113,740
132,210	-8,572	238,649	113,919
133,224	-8,551	238,582	113,894
134,239	-8,643	238,272	113,661
135,254	-8,618	238,138	113,607
136,268	-8,606	237,938	113,511
137,283	-9,025	237,713	113,054
138,297	-9,027	237,421	112,904
139,312	-9,141	237,381	112,784
140,327	-8,608	237,236	113,134
141,341	-8,103	237,214	113,521
142,356	-8,142	237,118	113,434
143,370	-8,043	236,965	113,430
144,385	-8,108	236,611	113,198
145,400	-8,099	236,597	113,189
146,414	-8,152	236,463	113,072
147,429	-8,160	236,190	112,925
148,443	-8,106	236,066	112,899
149,458	-8,189	235,740	112,666
150,473	-8,109	235,670	112,687
151,487	-8,227	235,473	112,488
152,502	-8,171	235,308	112,444
153,516	-8,145	235,301	112,452
154,531	-8,286	235,068	112,218
155,546	-8,492	234,889	111,957
156,560	-8,373	234,701	111,953
157,575	-8,302	234,398	111,855
158,589	-8,367	234,161	111,680
159,604	-8,248	234,213	111,790
160,619	-8,129	234,127	111,833
161,633	-8,039	233,854	111,765
162,648	-7,974	233,806	111,783
163,662	-8,045	233,366	111,507
164,677	-8,301	233,270	111,248
165,692	-8,252	233,247	111,266
166,706	-8,234	233,233	111,263
167,721	-8,010	232,940	111,291
168,735	-7,925	232,760	111,262
169,750	-7,978	232,640	111,153
170,764	-8,189	232,476	110,898
171,779	-8,202	232,272	110,781
172,794	-7,899	232,149	110,951
173,808	-8,237	231,962	110,585
174,823	-8,657	231,631	110,088
175,837	-8,944	231,618	109,847
176,852	-8,207	231,345	110,286
177,867	-8,177	231,479	110,363
178,881	-8,265	231,217	110,159
179,896	-8,006	231,067	110,281
180,910	-8,146	230,906	110,085
181,925	-7,879	230,755	110,211
182,940	-8,050	230,572	109,981
183,954	-7,938	230,466	110,008
184,969	-7,938	230,281	109,910
185,983	-7,896	230,188	109,889
186,998	-7,803	230,018	109,870
188,013	-7,963	229,880	109,670
189,027	-7,980	229,686	109,555
190,042	-7,876	229,398	109,488
191,056	-7,957	229,435	109,433
192,071	-7,982	229,163	109,274
193,086	-8,109	228,889	109,036
194,100	-8,261	228,822	108,876
195,115	-8,241	228,475	108,717
196,129	-9,001	228,344	108,057
197,144	-4,590	229,697	112,114
198,159	0,563	231,207	116,859
199,173	3,201	231,918	119,266
200,188	3,661	231,888	119,599
201,202	3,682	231,750	119,533
202,217	3,896	231,606	119,615
203,232	4,051	231,541	119,692
204,246	4,229	231,324	119,707
205,261	4,171	231,098	119,535
206,275	4,227	231,229	119,634
207,290	3,951	231,119	119,353
208,304	4,326	230,819	119,478
209,319	4,125	230,573	119,184
210,334	4,084	230,375	119,040
211,348	3,890	230,225	118,802
212,363	3,617	230,031	118,480
213,377	3,088	229,801	117,943
214,392	3,335	229,625	118,033
215,407	3,502	229,469	118,071
216,421	3,680	229,429	118,177
217,436	3,495	229,171	117,891
218,450	3,131	228,971	117,498
219,465	3,116	228,751	117,363
220,480	3,054	228,714	117,287
221,494	3,236	228,441	117,275
222,509	3,399	228,300	117,317
223,523	3,264	228,208	117,156
224,538	3,297	228,083	117,107
225,553	3,306	227,968	117,044
226,567	3,628	227,805	117,195
227,582	3,762	227,804	117,287
228,596	3,734	227,661	117,182
229,611	3,569	227,352	116,886
230,626	3,111	227,258	116,479
231,640	3,219	227,102	116,471
232,655	3,550	227,004	116,662
233,669	3,912	227,029	116,940
234,684	4,088	226,768	116,928
235,699	3,618	226,695	116,524
236,713	3,479	226,441	116,277
237,728	3,375	226,129	116,028
238,742	3,235	226,194	115,945
239,757	3,401	225,745	115,829
240,772	3,326	225,611	115,694
241,786	3,353	225,617	115,707
242,801	3,401	225,684	115,767
243,815	3,511	225,577	115,785
244,830	3,758	225,351	115,845
245,844	3,576	225,071	115,554
246,859	3,423	224,952	115,367
247,874	3,704	224,724	115,451
248,888	3,559	224,761	115,351
249,903	3,500	224,554	115,190
250,917	3,193	224,315	114,827
251,932	3,286	224,218	114,837
252,947	3,377	224,030	114,799
253,961	3,314	223,838	114,642
254,976	3,250	223,809	114,570
255,990	3,492	223,708	114,689
257,005	3,330	223,605	114,505
258,020	3,474	223,460	114,528
259,034	3,766	223,339	114,674
260,049	3,803	223,132	114,584
261,063	3,555	222,955	114,299
262,078	3,757	222,812	114,366
263,093	3,637	222,729	114,224
264,107	3,725	222,529	114,177
265,122	3,461	222,384	113,895
266,136	3,875	222,319	114,159
267,151	3,844	222,110	114,019
268,166	3,366	221,855	113,523
269,180	3,335	221,649	113,385
270,195	3,340	221,476	113,291
271,209	3,403	221,320	113,247
272,224	3,341	221,293	113,177
273,239	3,573	221,261	113,322
274,253	3,313	220,993	112,983
275,268	3,100	220,700	112,666
276,282	3,235	220,395	112,600
277,297	3,057	220,474	112,499
278,312	3,122	220,470	112,535
279,326	3,224	220,315	112,521
280,341	3,501	220,063	112,586
281,355	3,398	220,058	112,498
282,370	3,131	219,971	112,247
283,384	3,071	219,649	112,029
284,399	3,037	219,419	111,876
285,414	3,180	219,416	111,970
286,428	3,436	219,338	112,107
287,443	3,553	219,296	112,161
288,457	3,385	219,122	111,939
289,472	3,349	218,887	111,783
290,487	2,870	218,743	111,350
291,501	2,825	218,382	111,124
292,516	3,061	218,352	111,270
293,530	3,071	218,222	111,201
294,545	3,108	218,138	111,176
295,560	3,146	218,013	111,129
296,574	3,561	217,838	111,332
297,589	3,289	217,783	111,096
298,603	3,423	217,742	111,162
299,618	3,417	217,426	110,987
300,633	3,594	217,393	111,089
301,647	3,645	217,402	111,120
302,662	3,663	217,209	111,024
303,676	3,570	217,039	110,861
304,691	3,496	216,803	110,677
305,706	3,691	216,645	110,727
306,720	3,511	216,619	110,574
307,735	3,320	216,452	110,341
308,749	3,386	216,175	110,237
309,764	3,422	216,264	110,299
310,779	3,735	216,029	110,394
311,793	3,424	215,887	110,088
312,808	3,572	215,636	110,057
313,822	3,153	215,566	109,711
314,837	3,057	215,349	109,522
315,852	3,152	215,305	109,558
316,866	3,662	215,254	109,887
317,881	3,784	215,117	109,895
318,895	3,656	215,015	109,741
319,910	3,428	214,726	109,421
320,925	3,152	214,609	109,155
321,939	2,975	214,324	108,874
322,954	3,071	214,436	108,989
323,968	3,492	214,250	109,185
324,983	3,664	214,138	109,241
325,997	3,625	214,081	109,175
327,012	3,502	213,876	108,972
328,027	3,489	213,632	108,829
329,041	3,914	213,677	109,144
330,056	3,644	213,556	108,881
331,070	3,402	213,308	108,574
332,085	3,139	213,170	108,307
333,100	3,539	212,906	108,447
334,114	3,397	212,976	108,372
335,129	3,299	212,783	108,195
336,143	3,189	212,580	108,005
337,158	3,435	212,257	108,004
338,173	3,317	212,328	107,947
339,187	3,080	212,304	107,759
340,202	3,211	211,950	107,661
341,216	3,128	211,881	107,558
342,231	3,201	211,663	107,489
343,246	3,240	211,499	107,424
344,260	3,379	211,424	107,473
345,275	3,112	211,489	107,310
346,289	3,345	211,253	107,344
347,304	3,326	211,052	107,219
348,319	3,538	210,840	107,250
349,333	3,541	210,782	107,213
350,348	3,547	210,662	107,146
351,362	3,568	210,709	107,176
352,377	3,547	210,512	107,051
353,392	3,512	210,223	106,870
354,406	3,605	210,154	106,890
355,421	195,221	1343,144	1428,769
356,435	155,880	1481,210	1428,806
