DTS Sentinel unit serial number:	SN410029Multiplexer serial number:	ORYXHardware model number:	OX2-SRSoftware version number:	ORYX F/W v4,00 Oryx Data Collector v3.7.2.0data status	okinstallation	B6 Nyhavnadifferential loss correction	single-endedforward channel	channel 2reverse channel	N/Adate	2023/12/11time	01:55:08forward acquisition time	300,00reverse acquisition time	0,00gamma	499,1914k internal	0,3123k external	0,3123temperature offset calibration	1,0000default loss term (dB/km)	0,3820temperature slope calibration	1,0000multiplexer offset coefficient	1,0000multiplexer slope coefficient	1,0000fibre end	0,00T internal ref (°C)	21,97T ext. ref 1 (°C)	5,07T ext. ref 2 (°C)	5,10length (m)	temperature (°C)	Stokes	anti-Stokes-744,400	800,000	0,022	0,069
-743,385	-20,654	-0,176	0,080
-742,371	-200,000	0,004	0,105
-741,356	14,469	-0,194	0,113
-740,342	-200,000	0,003	0,011
-739,327	-14,064	-0,242	0,116
-738,312	126,442	0,099	-0,094
-737,298	32,432	-0,233	0,150
-736,283	-129,350	0,034	-0,004
-735,269	174,785	-0,122	0,132
-734,254	-200,000	0,007	-0,134
-733,239	61,322	-0,314	-0,232
-732,225	-8,623	0,164	-0,082
-731,210	-128,989	0,021	0,002
-730,196	607,365	0,007	-0,014
-729,181	800,000	-0,028	-0,082
-728,167	116,893	0,158	-0,145
-727,152	-7,594	-0,045	-0,023
-726,137	-200,000	0,002	-0,022
-725,123	62,216	-0,040	-0,029
-724,108	-64,748	-0,193	0,058
-723,094	-200,000	-0,012	0,056
-722,079	-70,529	-0,033	-0,009
-721,064	86,306	0,040	-0,033
-720,050	376,559	-0,083	0,127
-719,035	-28,948	-0,015	0,006
-718,021	442,378	-0,060	-0,099
-717,006	71,725	-0,080	-0,062
-715,991	-71,084	-0,121	-0,034
-714,977	-124,959	-0,044	-0,005
-713,962	-90,278	0,090	0,019
-712,948	-39,071	0,065	0,025
-711,933	7,942	0,052	0,029
-710,918	16,621	-0,034	0,020
-709,904	-7,849	-0,156	0,078
-708,889	101,963	0,059	-0,051
-707,875	574,341	0,057	-0,103
-706,860	-7,968	-0,111	-0,056
-705,845	-200,000	0,015	0,140
-704,831	33,165	0,078	0,050
-703,816	-76,722	0,069	0,018
-702,802	297,852	0,073	-0,100
-701,787	229,047	0,033	0,040
-700,772	599,834	-0,070	-0,130
-699,758	-179,238	0,124	0,002
-698,743	458,641	0,078	0,130
-697,729	1,707	0,028	0,015
-696,714	103,562	0,082	0,072
-695,699	-200,000	-0,038	-0,134
-694,685	-200,000	-0,022	-0,087
-693,670	800,000	-0,027	0,058
-692,656	97,830	-0,047	-0,041
-691,641	800,000	0,034	0,074
-690,627	-200,000	0,002	0,107
-689,612	-171,299	-0,241	-0,006
-688,597	800,000	-0,044	0,126
-687,583	76,944	-0,106	-0,083
-686,568	-104,534	0,180	-0,031
-685,554	-200,000	0,010	-0,150
-684,539	331,656	0,052	-0,075
-683,524	-1,360	-0,058	-0,031
-682,510	178,967	0,027	0,030
-681,495	114,731	-0,101	-0,092
-680,481	-200,000	-0,027	0,114
-679,466	-90,323	-0,130	-0,028
-678,451	61,850	0,080	0,059
-677,437	-148,054	0,191	0,012
-676,422	800,000	0,026	-0,064
-675,408	800,000	0,028	-0,067
-674,393	45,482	0,109	-0,075
-673,378	-200,000	-0,001	0,044
-672,364	-9,816	0,056	-0,028
-671,349	213,554	0,098	-0,115
-670,335	408,003	-0,008	-0,013
-669,320	300,682	0,074	0,102
-668,305	-200,000	0,014	0,071
-667,291	-200,000	-0,018	0,066
-666,276	-103,706	-0,163	0,028
-665,262	-143,700	-0,065	0,004
-664,247	217,376	-0,028	0,033
-663,232	343,929	0,045	-0,066
-662,218	-162,590	-0,154	-0,006
-661,203	-81,067	-0,058	-0,014
-660,189	184,959	-0,014	0,015
-659,174	800,000	-0,064	0,172
-658,159	508,543	-0,074	0,129
-657,145	459,780	-0,039	-0,064
-656,130	229,951	-0,042	-0,051
-655,116	79,389	0,116	0,092
-654,101	-157,341	-0,008	-0,000
-653,086	-200,000	-0,011	-0,037
-652,072	800,000	0,065	-0,163
-651,057	-23,836	-0,066	-0,029
-650,043	-45,845	-0,111	-0,040
-649,028	550,626	0,040	-0,072
-648,014	-200,000	0,008	0,027
-646,999	-200,000	-0,031	0,125
-645,984	-200,000	-0,008	-0,078
-644,970	800,000	-0,036	0,096
-643,955	800,000	0,012	-0,039
-642,941	800,000	0,071	-0,221
-641,926	-200,000	-0,038	0,148
-640,911	-200,000	0,010	0,034
-639,897	800,000	-0,010	0,028
-638,882	235,779	0,022	0,027
-637,868	97,710	0,038	-0,033
-636,853	90,207	-0,069	-0,057
-635,838	23,346	-0,126	-0,077
-634,824	0,954	-0,050	0,027
-633,809	132,144	0,066	0,063
-632,795	-200,000	0,001	0,168
-631,780	800,000	0,016	0,051
-630,765	800,000	-0,026	0,084
-629,751	84,437	-0,201	0,163
-628,736	-107,588	-0,163	-0,026
-627,722	800,000	-0,023	0,057
-626,707	44,066	0,026	0,017
-625,692	83,623	-0,077	0,062
-624,678	800,000	0,008	0,021
-623,663	-103,148	0,022	0,004
-622,649	-200,000	0,014	-0,064
-621,634	-200,000	-0,005	-0,114
-620,619	-200,000	0,038	-0,126
-619,605	-55,982	0,080	0,026
-618,590	-200,000	0,019	-0,106
-617,576	-200,000	0,016	0,093
-616,561	457,479	0,058	0,096
-615,546	-95,641	-0,112	-0,022
-614,532	167,919	-0,088	-0,093
-613,517	165,671	0,088	-0,092
-612,503	-64,850	-0,114	0,034
-611,488	-39,254	-0,120	-0,047
-610,474	217,728	0,067	-0,079
-609,459	107,179	-0,029	-0,025
-608,444	22,208	-0,041	0,025
-607,430	-100,234	-0,071	0,013
-606,415	800,000	-0,065	-0,140
-605,401	-57,562	0,071	-0,023
-604,386	138,397	0,093	0,090
-603,371	-200,000	0,006	-0,104
-602,357	-200,000	0,005	-0,024
-601,342	-200,000	-0,040	-0,160
-600,328	-54,775	-0,169	-0,056
-599,313	-21,182	-0,073	-0,033
-598,298	154,899	-0,059	-0,060
-597,284	-129,723	0,082	0,008
-596,269	-200,000	0,020	0,089
-595,255	-6,413	-0,011	-0,006
-594,240	-200,000	-0,013	-0,099
-593,225	160,681	-0,148	-0,153
-592,211	114,545	0,091	-0,082
-591,196	-200,000	0,030	-0,205
-590,182	-200,000	-0,002	-0,149
-589,167	800,000	-0,033	0,092
-588,152	64,108	-0,062	-0,046
-587,138	53,648	-0,155	0,110
-586,123	-94,363	0,037	-0,007
-585,109	-63,745	-0,066	0,020
-584,094	-200,000	0,014	0,094
-583,079	-128,677	-0,085	-0,009
-582,065	265,329	0,042	0,054
-581,050	-200,000	-0,006	-0,041
-580,036	-33,203	0,181	0,074
-579,021	-200,000	0,019	0,155
-578,006	330,282	-0,089	-0,127
-576,992	-41,588	-0,072	0,027
-575,977	124,322	0,109	-0,101
-574,963	642,817	0,088	0,166
-573,948	-200,000	-0,001	0,089
-572,934	-119,421	-0,109	0,014
-571,919	800,000	0,039	-0,114
-570,904	422,065	0,012	-0,019
-569,890	-19,613	0,149	0,068
-568,875	46,688	0,010	0,007
-567,861	675,769	0,027	0,053
-566,846	98,423	-0,050	0,043
-565,831	48,705	0,054	-0,037
-564,817	437,888	-0,030	0,049
-563,802	-69,234	-0,067	0,019
-562,788	67,073	-0,059	-0,045
-561,773	-46,064	-0,089	0,032
-560,758	212,189	0,075	0,087
-559,744	-200,000	-0,027	-0,097
-558,729	-8,159	-0,132	0,066
-557,715	620,068	0,066	0,123
-556,700	-200,000	0,004	0,017
-555,685	-146,755	-0,128	-0,008
-554,671	-41,546	0,107	0,040
-553,656	366,326	-0,032	0,048
-552,642	131,314	0,074	0,070
-551,627	266,667	0,019	0,025
-550,612	374,713	-0,035	-0,052
-549,598	21,674	-0,032	-0,019
-548,583	-200,000	-0,008	0,026
-547,569	-68,641	-0,130	0,037
-546,554	-200,000	0,002	0,025
-545,539	40,145	0,057	-0,038
-544,525	-200,000	-0,004	-0,099
-543,510	-200,000	0,013	-0,129
-542,496	-182,337	-0,184	0,002
-541,481	-200,000	0,005	0,087
-540,466	504,696	0,092	0,159
-539,452	-56,056	0,044	-0,014
-538,437	539,154	0,053	-0,094
-537,423	-58,436	-0,087	0,028
-536,408	-59,920	-0,023	-0,007
-535,393	112,454	-0,092	-0,083
-534,379	-200,000	-0,013	0,070
-533,364	-117,678	-0,022	0,003
-532,350	800,000	-0,009	0,029
-531,335	800,000	-0,078	0,161
-530,321	-200,000	-0,010	0,050
-529,306	246,952	0,057	0,071
-528,291	71,983	-0,105	0,081
-527,277	-73,880	0,051	-0,014
-526,262	238,554	0,041	0,051
-525,248	800,000	0,043	0,111
-524,233	-25,333	-0,075	-0,033
-523,218	-130,954	-0,066	0,006
-522,204	170,351	0,020	-0,021
-521,189	-167,125	-0,214	-0,006
-520,175	206,422	-0,029	-0,033
-519,160	-200,000	0,001	-0,140
-518,145	44,817	-0,031	0,021
-517,131	800,000	-0,041	-0,084
-516,116	-200,000	0,025	0,123
-515,102	800,000	0,035	-0,096
-514,087	140,338	0,020	0,020
-513,072	347,371	0,015	-0,022
-512,058	-168,301	-0,086	-0,002
-511,043	-92,539	-0,086	-0,018
-510,029	152,572	0,103	0,104
-509,014	-200,000	0,064	-0,239
-507,999	800,000	0,042	0,117
-506,985	-97,856	-0,097	0,018
-505,970	-162,103	-0,116	-0,004
-504,956	-73,463	0,150	-0,040
-503,941	-200,000	-0,047	0,270
-502,926	54,083	-0,101	0,071
-501,912	-200,000	0,003	0,009
-500,897	467,514	0,026	-0,044
-499,883	-76,672	-0,115	0,030
-498,868	800,000	-0,106	-0,220
-497,853	514,891	-0,031	0,054
-496,839	765,408	-0,041	-0,084
-495,824	-92,558	-0,093	0,019
-494,810	-91,118	0,075	-0,016
-493,795	745,457	-0,033	-0,066
-492,781	-54,070	0,018	0,006
-491,766	-97,666	0,056	0,011
-490,751	-26,077	-0,099	-0,043
-489,737	-200,000	-0,016	-0,155
-488,722	204,812	0,125	0,143
-487,708	-49,888	0,158	0,055
-486,693	-200,000	-0,006	0,109
-485,678	235,424	-0,050	0,061
-484,664	-200,000	0,001	0,049
-483,649	395,064	-0,122	-0,188
-482,635	800,000	0,057	0,129
-481,620	784,339	-0,033	0,066
-480,605	13,929	-0,064	-0,037
-479,591	-54,858	0,122	0,040
-478,576	-200,000	-0,010	-0,073
-477,562	26,352	-0,101	0,062
-476,547	94,485	-0,127	-0,107
-475,532	-200,000	-0,015	-0,148
-474,518	-162,954	-0,060	0,002
-473,503	457,403	0,042	-0,070
-472,489	37,118	0,192	-0,125
-471,474	-200,000	-0,010	-0,078
-470,459	-122,510	0,058	0,007
-469,445	173,324	0,024	0,026
-468,430	138,620	-0,063	0,061
-467,416	229,281	0,028	0,034
-466,401	-200,000	-0,001	0,047
-465,386	476,640	0,066	-0,110
-464,372	-200,000	0,017	0,058
-463,357	-200,000	0,032	-0,105
-462,343	-77,398	0,112	-0,029
-461,328	2,712	0,100	0,053
-460,313	-200,000	0,002	-0,114
-459,299	496,495	0,072	0,122
-458,284	-200,000	0,049	0,280
-457,270	336,724	0,037	0,053
-456,255	800,000	-0,020	0,062
-455,241	225,769	0,094	-0,113
-454,226	-2,801	0,015	0,008
-453,211	-20,989	0,129	-0,058
-452,197	-200,000	0,018	0,189
-451,182	800,000	0,032	0,088
-450,168	800,000	0,007	0,022
-449,153	352,173	-0,034	0,049
-448,138	800,000	0,034	0,098
-447,124	465,026	-0,034	0,055
-446,109	-79,522	-0,116	-0,029
-445,095	270,766	0,108	0,140
-444,080	-38,563	0,039	-0,015
-443,065	-200,000	-0,015	-0,078
-442,051	800,000	0,056	-0,136
-441,036	445,530	-0,049	-0,080
-440,022	115,312	-0,160	-0,144
-439,007	-200,000	0,012	-0,112
-437,992	-137,095	0,068	-0,006
-436,978	-85,342	0,052	0,012
-435,963	81,536	-0,100	0,079
-434,949	-200,000	0,004	-0,110
-433,934	-200,000	-0,025	-0,168
-432,919	-200,000	-0,030	-0,114
-431,905	-200,000	0,018	-0,099
-430,890	-200,000	-0,010	0,071
-429,876	-200,000	0,083	-0,000
-428,861	243,627	-0,009	-0,011
-427,846	65,206	-0,075	0,056
-426,832	-200,000	0,015	-0,053
-425,817	-200,000	0,010	-0,035
-424,803	-200,000	0,033	-0,119
-423,788	459,845	0,041	-0,068
-422,773	-76,199	-0,024	0,006
-421,759	-200,000	-0,020	0,076
-420,744	268,176	-0,061	-0,079
-419,730	-138,270	-0,083	0,007
-418,715	-39,272	-0,110	-0,042
-417,701	-146,897	-0,120	0,008
-416,686	-114,432	0,035	0,005
-415,671	-56,703	0,044	0,014
-414,657	119,287	0,044	0,040
-413,642	-200,000	-0,012	0,150
-412,628	-71,448	-0,058	0,016
-411,613	-135,112	-0,038	-0,003
-410,598	441,251	-0,030	-0,048
-409,584	70,910	0,150	-0,114
-408,569	27,394	-0,077	0,048
-407,555	-33,947	0,067	-0,027
-406,540	-200,000	-0,006	-0,031
-405,525	69,746	0,071	0,054
-404,511	-200,000	0,025	-0,085
-403,496	-67,945	-0,046	0,013
-402,482	369,542	-0,029	-0,044
-401,467	-0,100	0,083	0,043
-400,452	-200,000	-0,004	-0,094
-399,438	-200,000	-0,015	-0,087
-398,423	-67,863	-0,065	0,018
-397,409	-139,197	-0,081	-0,006
-396,394	-31,907	0,022	0,009
-395,379	-131,876	0,104	0,010
-394,365	-52,928	-0,089	0,030
-393,350	800,000	0,035	-0,098
-392,336	129,160	-0,072	0,067
-391,321	799,145	-0,054	-0,110
-390,306	239,781	-0,025	-0,030
-389,292	800,000	-0,015	0,038
-388,277	-93,136	0,018	-0,004
-387,263	263,656	0,124	0,159
-386,248	-45,335	-0,057	-0,021
-385,233	140,898	0,042	-0,041
-384,219	-85,264	-0,071	0,016
-383,204	-200,000	0,008	-0,044
-382,190	781,337	-0,050	-0,101
-381,175	-200,000	0,093	0,000
-380,160	223,183	0,145	0,172
-379,146	478,412	0,015	-0,026
-378,131	122,000	-0,014	0,013
-377,117	800,000	-0,033	0,080
-376,102	-166,836	0,032	0,001
-375,088	-67,769	-0,151	-0,043
-374,073	99,634	0,075	-0,063
-373,058	656,441	-0,011	0,021
-372,044	-200,000	0,024	0,123
-371,029	-200,000	0,001	-0,050
-370,015	368,997	-0,032	-0,048
-369,000	-200,000	-0,006	0,099
-367,985	-62,601	-0,171	0,052
-366,971	-200,000	-0,031	0,147
-365,956	-124,072	-0,101	0,012
-364,942	200,868	0,063	0,071
-363,927	745,347	0,039	-0,077
-362,912	115,739	-0,059	0,053
-361,898	552,300	-0,070	-0,125
-360,883	-200,000	-0,002	-0,135
-359,869	-200,000	-0,008	0,157
-358,854	-200,000	0,018	-0,095
-357,839	622,634	0,007	-0,014
-356,825	-200,000	0,001	-0,063
-355,810	800,000	0,033	0,082
-354,796	-200,000	0,002	0,084
-353,781	8,680	0,021	-0,011
-352,766	579,610	-0,030	-0,054
-351,752	-66,932	0,106	-0,030
-350,737	124,029	0,118	0,109
-349,723	-1,466	0,033	-0,017
-348,708	120,329	0,111	0,101
-347,693	102,415	0,060	0,051
-346,679	544,115	0,006	-0,011
-345,664	-129,381	-0,068	-0,007
-344,650	102,499	0,042	0,036
-343,635	800,000	-0,048	0,118
-342,620	18,474	0,031	0,018
-341,606	-200,000	0,008	-0,112
-340,591	-179,037	0,104	-0,002
-339,577	-179,278	-0,101	0,002
-338,562	-200,000	0,007	-0,128
-337,548	-200,000	0,018	-0,066
-336,533	151,985	0,088	-0,088
-335,518	-145,706	0,112	-0,007
-334,504	106,759	-0,081	0,071
-333,489	-44,868	0,075	-0,027
-332,475	-200,000	0,011	0,089
-331,460	-0,836	-0,116	-0,060
-330,445	-75,869	-0,055	-0,014
-329,431	-50,404	0,049	0,017
-328,416	-200,000	-0,016	-0,069
-327,402	-200,000	-0,001	-0,057
-326,387	96,774	0,012	0,010
-325,372	76,213	0,048	0,037
-324,358	-200,000	0,001	0,012
-323,343	-200,000	0,007	0,026
-322,329	314,461	-0,059	-0,082
-321,314	20,448	0,156	0,092
-320,299	-156,560	-0,136	0,006
-319,285	430,427	-0,109	-0,174
-318,270	-200,000	-0,041	0,169
-317,256	800,000	-0,020	-0,048
-316,241	-200,000	0,028	-0,192
-315,226	234,106	0,102	-0,123
-314,212	-200,000	-0,004	0,123
-313,197	209,788	0,040	0,046
-312,183	-5,003	-0,043	0,022
-311,168	5,584	-0,042	-0,022
-310,153	-109,220	-0,028	-0,004
-309,139	146,665	-0,062	-0,062
-308,124	145,891	0,103	-0,101
-307,110	-192,862	0,048	0,000
-306,095	-35,679	0,184	0,073
-305,080	800,000	0,054	0,110
-304,066	105,981	-0,148	-0,129
-303,051	-200,000	-0,004	0,014
-302,037	-84,863	0,156	-0,036
-301,022	24,429	-0,025	-0,015
-300,008	565,965	-0,031	0,055
-298,993	-200,000	0,006	0,127
-297,978	-58,372	-0,069	0,022
-296,964	-200,000	0,006	0,175
-295,949	100,910	-0,082	0,069
-294,935	-200,000	0,019	-0,120
-293,920	-70,170	-0,054	0,015
-292,905	-32,977	0,054	-0,022
-291,891	-200,000	0,008	0,066
-290,876	5,848	0,107	0,058
-289,862	66,123	0,026	-0,020
-288,847	-200,000	0,019	0,150
-287,832	-148,246	-0,017	0,001
-286,818	-200,000	-0,001	0,050
-285,803	-200,000	0,017	-0,075
-284,789	800,000	0,022	-0,056
-283,774	-33,049	0,028	-0,011
-282,759	-160,647	0,223	-0,009
-281,745	75,859	-0,084	-0,065
-280,730	800,000	0,029	-0,076
-279,716	195,043	0,083	-0,093
-278,701	-200,000	-0,019	-0,067
-277,686	250,793	-0,011	-0,014
-276,672	-41,870	-0,147	0,055
-275,657	-200,000	0,000	0,025
-274,643	800,000	-0,037	0,108
-273,628	800,000	-0,002	0,005
-272,613	-44,317	0,072	0,026
-271,599	0,268	-0,080	0,042
-270,584	-34,612	0,057	0,023
-269,570	58,893	-0,045	0,033
-268,555	147,192	0,012	0,012
-267,540	-129,329	-0,093	-0,009
-266,526	-70,319	-0,085	-0,023
-265,511	-1,683	-0,009	-0,005
-264,497	276,659	0,111	-0,145
-263,482	-200,000	0,000	0,031
-262,467	-189,927	0,096	-0,001
-261,453	122,448	-0,129	-0,118
-260,438	99,414	-0,071	0,060
-259,424	-90,338	0,108	-0,023
-258,409	800,000	-0,027	-0,072
-257,395	-32,230	-0,131	-0,053
-256,380	-166,996	0,067	-0,002
-255,365	-200,000	0,048	0,324
-254,351	-22,229	-0,125	0,055
-253,336	15,231	0,133	0,076
-252,322	122,907	0,016	0,015
-251,307	214,323	-0,121	-0,140
-250,292	49,475	0,127	0,087
-249,278	161,388	0,019	-0,019
-248,263	21,225	0,054	0,032
-247,249	177,868	0,111	0,118
-246,234	-200,000	-0,020	-0,075
-245,219	-22,495	-0,114	-0,050
-244,205	-200,000	0,021	-0,189
-243,190	800,000	0,012	0,029
-242,176	86,639	0,019	0,016
-241,161	-200,000	-0,007	0,034
-240,146	-114,533	0,065	-0,009
-239,132	-52,042	-0,076	0,026
-238,117	-18,602	0,136	0,062
-237,103	655,954	0,031	-0,059
-236,088	1,927	0,055	0,029
-235,073	-137,382	0,128	0,010
-234,059	244,442	0,028	0,035
-233,044	-200,000	-0,007	0,069
-232,030	456,177	-0,001	-0,002
-231,015	800,000	0,035	0,102
-230,000	174,982	0,068	0,072
-228,986	-118,434	0,092	0,012
-227,971	-200,000	0,018	0,089
-226,957	557,282	-0,021	-0,037
-225,942	268,704	-0,042	-0,054
-224,927	-200,000	0,072	0,000
-223,913	-200,000	-0,059	-0,225
-222,898	-87,473	0,019	-0,004
-221,884	-68,909	0,067	-0,019
-220,869	769,577	-0,046	0,091
-219,855	-200,000	0,004	0,022
-218,840	-200,000	-0,004	0,070
-217,825	-172,411	-0,094	0,002
-216,811	-200,000	0,014	-0,091
-215,796	550,967	0,049	-0,086
-214,782	-200,000	0,020	-0,086
-213,767	430,936	0,054	-0,086
-212,752	-29,036	-0,144	0,060
-211,738	800,000	0,033	0,105
-210,723	-113,565	0,068	-0,010
-209,709	758,960	-0,078	-0,154
-208,694	-200,000	-0,004	0,100
-207,679	-108,233	-0,136	-0,021
-206,665	44,662	0,092	0,062
-205,650	-200,000	0,005	0,033
-204,636	239,965	-0,031	-0,038
-203,621	178,667	0,063	-0,068
-202,606	-87,738	-0,028	-0,006
-201,592	83,145	-0,039	0,031
-200,577	-122,514	0,105	-0,012
-199,563	-200,000	0,040	-0,155
-198,548	434,036	-0,024	0,039
-197,533	-148,228	0,046	-0,003
-196,519	406,111	0,043	0,066
-195,504	106,216	0,059	0,051
-194,490	252,529	0,028	0,035
-193,475	-200,000	-0,031	-0,154
-192,460	800,000	0,073	-0,177
-191,446	472,483	0,027	0,044
-190,431	77,317	-0,099	0,076
-189,417	289,104	0,087	-0,115
-188,402	-200,000	0,001	0,045
-187,387	800,000	-0,045	0,107
-186,373	-22,490	0,120	-0,053
-185,358	800,000	0,006	0,015
-184,344	800,000	-0,031	-0,077
-183,329	-107,964	0,078	0,012
-182,315	-78,934	0,039	0,010
-181,300	43,715	0,043	0,028
-180,285	-121,339	0,080	-0,010
-179,271	-133,663	0,086	0,008
-178,256	800,000	-0,007	-0,022
-177,242	-200,000	0,007	0,058
-176,227	800,000	0,061	0,187
-175,212	800,000	-0,027	-0,058
-174,198	399,384	0,046	0,071
-173,183	-93,007	-0,046	-0,009
-172,169	800,000	0,044	-0,139
-171,154	521,584	-0,054	-0,092
-170,139	509,336	-0,080	0,135
-169,125	152,457	-0,011	-0,011
-168,110	209,149	0,079	-0,091
-167,096	800,000	0,027	-0,067
-166,081	-69,064	-0,122	0,034
-165,066	-47,166	0,093	-0,033
-164,052	226,168	-0,078	0,092
-163,037	139,028	0,088	0,084
-162,023	-150,257	0,194	-0,011
-161,008	220,555	-0,033	0,039
-159,993	-0,980	-0,055	-0,028
-158,979	190,645	-0,063	0,069
-157,964	-90,432	-0,067	0,014
-156,950	179,741	0,048	0,051
-155,935	-20,759	-0,041	0,018
-154,920	-143,985	-0,007	-0,000
-153,906	800,000	0,026	0,078
-152,891	-79,519	0,094	0,023
-151,877	176,922	-0,060	-0,064
-150,862	-200,000	-0,008	-0,053
-149,847	35,116	0,027	0,017
-148,833	-94,767	0,109	-0,021
-147,818	353,730	-0,031	0,046
-146,804	-200,000	-0,035	0,166
-145,789	-51,135	0,006	-0,002
-144,775	-83,956	-0,154	-0,035
-143,760	-36,162	0,167	-0,065
-142,745	141,375	-0,144	-0,138
-141,731	27,476	0,181	0,111
-140,716	734,826	0,045	0,089
-139,702	289,461	0,041	0,054
-138,687	-80,576	-0,113	0,027
-137,672	-144,185	-0,204	0,014
-136,658	455,453	-0,093	-0,151
-135,643	205,797	0,018	-0,020
-134,629	255,115	-0,050	-0,063
-133,614	-200,000	0,006	0,148
-132,599	340,749	-0,074	0,105
-131,585	800,000	-0,020	0,050
-130,570	-125,131	0,113	-0,012
-129,556	-157,468	-0,125	0,005
-128,541	73,921	0,068	0,052
-127,526	388,399	-0,054	-0,081
-126,512	-76,391	0,051	0,013
-125,497	776,926	0,055	-0,109
-124,483	311,446	-0,037	0,050
-123,468	-117,617	-0,108	0,014
-122,453	-88,115	-0,104	-0,023
-121,439	299,884	0,087	-0,117
-120,424	-200,000	-0,019	-0,074
-119,410	80,463	0,102	0,080
-118,395	-83,883	0,072	0,017
-117,380	-83,234	0,023	0,005
-116,366	-107,837	-0,207	-0,033
-115,351	403,812	0,004	0,007
-114,337	210,856	-0,117	-0,133
-113,322	338,038	0,045	0,064
-112,307	-119,583	-0,165	0,020
-111,293	-78,332	0,072	0,018
-110,278	-88,111	0,094	0,020
-109,264	604,428	0,045	0,081
-108,249	108,344	-0,061	0,053
-107,234	-200,000	0,010	0,077
-106,220	340,477	0,073	-0,103
-105,205	800,000	-0,045	0,115
-104,191	80,737	0,112	0,088
-103,176	-31,181	0,044	0,018
-102,162	296,481	0,088	-0,117
-101,147	-200,000	-0,015	0,103
-100,132	-76,158	-0,034	0,009
-99,118	-200,000	0,002	-0,047
-98,103	-200,000	-0,003	0,080
-97,089	800,000	0,050	0,120
-96,074	109,887	0,054	0,047
-95,059	-200,000	-0,012	0,074
-94,045	313,806	0,076	0,104
-93,030	-200,000	-0,002	0,092
-92,016	113,337	-0,038	-0,033
-91,001	-197,917	0,142	0,001
-89,986	33,523	-0,074	0,047
-88,972	416,815	0,088	0,137
-87,957	-200,000	0,022	0,115
-86,943	266,941	0,023	0,029
-85,928	-28,696	-0,062	0,026
-84,913	192,010	-0,023	0,026
-83,899	800,000	0,042	-0,106
-82,884	48,500	0,022	0,015
-81,870	-200,000	-0,004	-0,014
-80,855	800,000	0,035	0,077
-79,840	-46,620	0,042	0,015
-78,826	175,241	-0,030	-0,031
-77,811	-200,000	0,020	0,080
-76,797	-200,000	-0,009	-0,135
-75,782	-200,000	0,002	0,074
-74,767	380,128	-0,066	0,098
-73,753	-200,000	-0,013	-0,060
-72,738	129,261	-0,061	0,057
-71,724	800,000	0,018	-0,050
-70,709	-200,000	-0,009	-0,075
-69,694	282,153	-0,052	-0,067
-68,680	-64,213	-0,030	-0,009
-67,665	800,000	0,047	-0,116
-66,651	-200,000	-0,013	0,098
-65,636	-137,225	-0,023	-0,002
-64,622	-200,000	0,003	-0,056
-63,607	-101,631	0,109	0,019
-62,592	11,570	-0,042	0,023
-61,578	149,236	0,008	-0,008
-60,563	-200,000	-0,004	-0,014
-59,549	-200,000	0,001	0,140
-58,534	-177,568	-1,383	-0,024
-57,519	766,942	-0,761	-1,508
-56,505	-200,000	-0,841	-4,401
-55,490	103,184	0,530	-0,450
-54,476	800,000	5,023	12,022
-53,461	-200,000	14,106	254,526
-52,446	-200,000	693,907	2252,855
-51,432	582,982	1624,924	2905,962
-50,417	118,038	1633,950	1461,191
-49,403	73,404	1287,611	976,916
-48,388	37,703	1024,184	658,549
-47,373	23,958	982,486	586,482
-46,359	23,271	971,732	577,785
-45,344	22,272	967,556	572,012
-44,330	22,170	966,222	570,867
-43,315	22,041	964,670	569,505
-42,300	22,009	963,664	568,785
-41,286	22,054	962,625	568,298
-40,271	21,990	961,809	567,584
-39,257	22,036	960,662	567,034
-38,242	21,999	959,828	566,400
-37,227	22,004	958,936	565,867
-36,213	21,983	958,043	565,249
-35,198	21,945	957,223	564,620
-34,184	21,943	956,797	564,342
-33,169	21,940	955,700	563,659
-32,154	21,984	954,855	563,281
-31,140	22,000	953,915	562,758
-30,125	22,026	953,101	562,338
-29,111	22,041	952,348	561,920
-28,096	22,026	951,694	561,465
-27,082	22,009	950,948	560,947
-26,067	22,018	950,315	560,579
-25,052	22,013	949,492	560,054
-24,038	21,988	948,847	559,574
-23,023	22,053	948,162	559,355
-22,009	22,111	947,391	559,065
-20,994	22,041	946,879	558,515
-19,979	22,023	946,202	558,035
-18,965	21,965	945,612	557,482
-17,950	22,008	945,103	557,297
-16,936	22,015	944,168	556,744
-15,921	21,993	943,564	556,297
-14,906	21,884	942,928	555,551
-13,892	21,967	942,116	555,316
-12,877	21,852	941,613	554,633
-11,863	21,806	941,190	554,215
-10,848	21,857	940,529	553,964
-9,833	22,027	939,917	554,123
-8,819	21,929	939,531	553,561
-7,804	21,885	938,723	552,924
-6,790	21,911	938,107	552,621
-5,775	21,921	937,544	552,301
-4,760	21,923	936,946	551,931
-3,746	21,858	936,436	551,405
-2,731	21,719	935,679	550,496
-1,717	21,659	934,971	549,868
-0,702	21,740	934,235	549,670
0,313	21,463	933,786	549,360
1,327	24,703	931,616	558,231
2,342	34,344	795,770	502,512
3,356	32,233	451,127	281,674
4,371	1,059	293,545	152,186
5,386	-3,565	274,516	137,933
6,400	-5,200	268,702	133,483
7,415	-5,665	266,336	131,868
8,429	-5,301	265,357	131,705
9,444	-5,296	264,459	131,252
10,459	-5,137	263,703	131,010
11,473	-5,278	263,207	130,624
12,488	-5,248	262,575	130,326
13,502	-5,478	262,166	129,903
14,517	-5,309	261,714	129,820
15,531	-5,024	261,340	129,880
16,546	-4,978	261,148	129,814
17,561	-5,206	260,706	129,378
18,575	-4,913	260,445	129,500
19,590	-5,068	260,057	129,157
20,604	-5,009	259,739	129,040
21,619	-5,192	259,491	128,742
22,634	-5,179	259,044	128,520
23,648	-5,117	258,824	128,455
24,663	-5,133	258,510	128,273
25,677	-5,114	258,267	128,158
26,692	-4,977	258,017	128,145
27,707	-5,175	257,727	127,814
28,721	-5,120	257,616	127,795
29,736	-5,240	257,308	127,525
30,750	-5,132	257,007	127,460
31,765	-5,164	256,777	127,306
32,780	-5,191	256,603	127,185
33,794	-5,028	256,345	127,190
34,809	-5,222	256,090	126,880
35,823	-5,284	255,958	126,749
36,838	-5,100	255,561	126,703
37,853	-5,226	255,249	126,427
38,867	-5,148	255,187	126,453
39,882	-5,204	254,900	126,250
40,896	-5,136	254,649	126,175
41,911	-5,087	254,299	126,033
42,926	-5,351	254,303	125,792
43,940	-5,310	254,018	125,676
44,955	-5,410	253,851	125,495
45,969	-5,581	253,554	125,187
46,984	-5,622	253,253	124,992
47,999	-5,552	253,055	124,944
49,013	-5,831	252,767	124,548
50,028	-5,942	252,591	124,353
51,042	-6,054	252,425	124,163
52,057	-6,042	252,038	123,972
53,071	-6,041	251,932	123,911
54,086	-5,772	251,747	124,041
55,101	-5,640	251,612	124,077
56,115	-5,565	251,563	124,108
57,130	-5,123	251,398	124,397
58,144	-4,954	251,128	124,399
59,159	-5,077	251,007	124,221
60,174	-5,051	250,837	124,149
61,188	-4,939	250,427	124,031
62,203	-5,051	250,272	123,847
63,217	-5,144	250,100	123,671
64,232	-5,078	249,939	123,636
65,247	-4,913	249,627	123,613
66,261	-5,158	249,582	123,370
67,276	-5,241	249,154	123,076
68,290	-5,245	248,877	122,925
69,305	-5,744	248,783	122,441
70,320	-5,533	248,566	122,503
71,334	-5,341	248,452	122,600
72,349	-5,269	248,399	122,625
73,363	-5,356	248,147	122,415
74,378	-5,066	247,872	122,515
75,393	-5,180	247,717	122,331
76,407	-5,063	247,357	122,241
77,422	-5,030	247,223	122,192
78,436	-5,231	247,169	121,984
79,451	-5,238	246,889	121,829
80,466	-5,304	246,657	121,648
81,480	-5,256	246,383	121,542
82,495	-5,345	246,311	121,420
83,509	-5,364	246,088	121,284
84,524	-5,363	245,844	121,154
85,539	-5,509	245,605	120,902
86,553	-5,418	245,503	120,918
87,568	-5,420	245,353	120,831
88,582	-5,288	245,067	120,790
89,597	-5,454	244,933	120,575
90,611	-5,338	244,787	120,589
91,626	-5,349	244,743	120,548
92,641	-5,145	244,435	120,556
93,655	-5,257	244,221	120,346
94,670	-5,267	244,008	120,222
95,684	-5,209	243,882	120,198
96,699	-5,310	243,670	119,999
97,714	-5,200	243,428	119,960
98,728	-5,492	243,263	119,625
99,743	-5,793	243,121	119,294
100,757	-5,605	242,878	119,320
101,772	-5,722	242,724	119,136
102,787	-5,331	242,495	119,338
103,801	-5,540	242,389	119,101
104,816	-5,364	242,366	119,226
105,830	-5,261	242,111	119,175
106,845	-5,121	241,909	119,181
107,860	-5,264	241,700	118,950
108,874	-5,291	241,533	118,834
109,889	-5,398	241,313	118,627
110,903	-5,514	241,157	118,443
111,918	-5,538	240,947	118,310
112,933	-5,361	240,746	118,347
113,947	-5,266	240,541	118,313
114,962	-5,160	240,488	118,364
115,976	-5,327	240,343	118,145
116,991	-5,226	240,167	118,131
118,006	-5,373	239,987	117,912
119,020	-5,498	239,922	117,766
120,035	-5,347	239,689	117,766
121,049	-5,143	239,563	117,860
122,064	-5,226	239,415	117,708
123,079	-5,252	239,170	117,557
124,093	-5,350	238,797	117,283
125,108	-5,403	238,657	117,161
126,122	-5,586	238,542	116,944
127,137	-5,619	238,244	116,761
128,151	-5,565	238,110	116,728
129,166	-5,545	238,021	116,691
130,181	-5,430	237,771	116,651
131,195	-5,461	237,597	116,530
132,210	-5,498	237,534	116,459
133,224	-5,401	237,252	116,389
134,239	-5,370	237,154	116,356
135,254	-5,321	236,938	116,279
136,268	-5,534	236,889	116,072
137,283	-5,681	236,417	115,711
138,297	-5,765	236,376	115,614
139,312	-5,852	236,225	115,459
140,327	-5,482	236,153	115,712
141,341	-5,184	236,097	115,915
142,356	-5,189	235,912	115,809
143,370	-4,956	235,726	115,896
144,385	-4,903	235,667	115,899
145,400	-4,749	235,431	115,896
146,414	-5,210	235,356	115,478
147,429	-5,041	235,079	115,468
148,443	-4,927	234,842	115,433
149,458	-5,005	234,570	115,226
150,473	-5,000	234,515	115,193
151,487	-4,807	234,264	115,213
152,502	-5,080	234,136	114,922
153,516	-4,815	234,064	115,088
154,531	-4,892	233,905	114,938
155,546	-5,221	233,815	114,622
156,560	-4,994	233,631	114,702
157,575	-5,018	233,289	114,504
158,589	-5,137	233,249	114,380
159,604	-5,056	233,015	114,320
160,619	-4,900	232,949	114,401
161,633	-4,778	232,685	114,358
162,648	-4,784	232,683	114,342
163,662	-4,829	232,507	114,209
164,677	-5,205	232,308	113,804
165,692	-5,043	232,185	113,862
166,706	-4,916	232,019	113,870
167,721	-4,761	231,888	113,918
168,735	-4,892	231,698	113,711
169,750	-4,895	231,474	113,589
170,764	-4,982	231,360	113,455
171,779	-5,085	231,272	113,320
172,794	-4,727	231,089	113,502
173,808	-5,024	230,825	113,129
174,823	-5,734	230,595	112,448
175,837	-5,653	230,359	112,387
176,852	-5,251	230,441	112,732
177,867	-5,084	230,368	112,817
178,881	-5,067	230,221	112,748
179,896	-4,877	229,978	112,768
180,910	-5,065	229,890	112,568
181,925	-5,050	229,614	112,434
182,940	-4,762	229,529	112,608
183,954	-4,974	229,515	112,425
184,969	-4,964	229,413	112,374
185,983	-4,733	229,108	112,393
186,998	-4,833	229,056	112,280
188,013	-4,642	228,842	112,314
189,027	-4,797	228,699	112,113
190,042	-4,853	228,527	111,975
191,056	-4,830	228,243	111,845
192,071	-4,847	228,125	111,763
193,086	-4,813	227,875	111,658
194,100	-4,838	227,758	111,570
195,115	-5,635	227,264	110,703
196,129	-6,523	226,956	109,859
197,144	-3,168	228,157	113,029
198,159	1,653	229,398	117,381
199,173	4,130	230,046	119,627
200,188	4,130	230,120	119,655
201,202	4,412	229,813	119,703
202,217	4,732	229,669	119,866
203,232	4,692	229,504	119,738
204,246	4,772	229,598	119,838
205,261	4,908	229,287	119,771
206,275	5,259	229,255	120,014
207,290	5,201	229,189	119,924
208,304	5,072	228,930	119,678
209,319	5,122	228,754	119,614
210,334	5,124	228,448	119,445
211,348	4,708	228,343	119,059
212,363	4,509	228,066	118,751
213,377	4,326	227,831	118,477
214,392	4,215	227,658	118,292
215,407	4,222	227,640	118,278
216,421	4,309	227,479	118,250
217,436	4,316	227,237	118,119
218,450	4,150	226,900	117,806
219,465	3,985	226,875	117,657
220,480	3,840	226,833	117,513
221,494	4,116	226,686	117,638
222,509	3,976	226,655	117,504
223,523	4,021	226,464	117,429
224,538	3,864	226,295	117,212
225,553	4,055	226,189	117,292
226,567	4,124	226,095	117,285
227,582	4,385	226,007	117,428
228,596	4,663	225,864	117,554
229,611	4,295	225,559	117,105
230,626	3,961	225,254	116,684
231,640	3,992	225,178	116,658
232,655	4,405	225,015	116,875
233,669	4,724	225,104	117,152
234,684	4,678	225,000	117,053
235,699	4,508	224,761	116,790
236,713	4,476	224,582	116,662
237,728	4,160	224,293	116,263
238,742	3,927	224,162	116,009
239,757	4,096	224,015	116,050
240,772	4,180	223,820	116,002
241,786	4,158	223,694	115,910
242,801	4,367	223,679	116,049
243,815	4,536	223,667	116,159
244,830	4,728	223,430	116,171
245,844	4,303	223,213	115,728
246,859	4,331	223,131	115,696
247,874	4,306	222,944	115,570
248,888	4,584	222,760	115,673
249,903	4,276	222,535	115,315
250,917	4,117	222,411	115,122
251,932	4,211	222,280	115,114
252,947	3,914	222,283	114,883
253,961	4,128	222,041	114,908
254,976	3,886	221,957	114,673
255,990	4,095	221,886	114,783
257,005	4,284	221,609	114,770
258,020	4,191	221,630	114,701
259,034	4,684	221,430	114,954
260,049	4,641	221,197	114,791
261,063	4,318	221,142	114,512
262,078	4,375	221,071	114,507
263,093	4,540	220,863	114,512
264,107	4,286	220,784	114,273
265,122	4,400	220,574	114,238
266,136	4,669	220,528	114,403
267,151	4,451	220,376	114,153
268,166	4,243	219,985	113,787
269,180	4,068	219,848	113,576
270,195	4,021	219,878	113,547
271,209	4,228	219,514	113,502
272,224	4,273	219,440	113,486
273,239	4,196	219,387	113,392
274,253	3,907	219,211	113,078
275,268	3,890	219,046	112,971
276,282	3,968	218,759	112,870
277,297	3,776	218,583	112,628
278,312	3,786	218,726	112,699
279,326	4,278	218,439	112,901
280,341	3,982	218,222	112,563
281,355	4,313	218,145	112,755
282,370	4,215	217,981	112,589
283,384	4,023	217,975	112,435
284,399	4,029	217,639	112,256
285,414	3,947	217,590	112,161
286,428	4,086	217,614	112,265
287,443	4,126	217,439	112,194
288,457	4,367	217,253	112,264
289,472	4,145	216,982	111,952
290,487	3,656	216,831	111,509
291,501	3,834	216,747	111,584
292,516	3,943	216,657	111,608
293,530	4,082	216,470	111,602
294,545	3,970	216,379	111,464
295,560	4,006	216,148	111,361
296,574	4,081	216,099	111,380
297,589	3,984	215,982	111,240
298,603	4,301	215,791	111,360
299,618	4,167	215,636	111,174
300,633	4,416	215,431	111,238
301,647	4,537	215,464	111,332
302,662	4,443	215,317	111,179
303,676	4,336	215,231	111,047
304,691	4,707	214,977	111,173
305,706	4,520	215,012	111,047
306,720	4,422	214,968	110,944
307,735	4,206	214,708	110,645
308,749	4,076	214,498	110,434
309,764	3,997	214,259	110,244
310,779	4,466	214,362	110,623
311,793	4,528	214,084	110,514
312,808	4,297	213,958	110,274
313,822	4,206	213,802	110,118
314,837	4,201	213,676	110,040
315,852	4,071	213,513	109,854
316,866	4,161	213,453	109,877
317,881	4,406	213,350	109,989
318,895	4,393	213,085	109,833
319,910	4,209	212,905	109,600
320,925	3,725	212,837	109,211
321,939	3,687	212,556	109,031
322,954	3,858	212,407	109,066
323,968	4,136	212,538	109,321
324,983	4,250	212,380	109,310
325,997	4,418	212,263	109,359
327,012	4,292	212,105	109,179
328,027	4,115	211,929	108,953
329,041	4,393	211,948	109,150
330,056	4,578	211,774	109,181
331,070	4,263	211,445	108,780
332,085	3,808	211,286	108,367
333,100	4,237	211,123	108,576
334,114	4,219	210,998	108,490
335,129	4,009	210,897	108,281
336,143	3,979	210,705	108,151
337,158	3,942	210,666	108,096
338,173	4,212	210,472	108,176
339,187	4,164	210,185	107,985
340,202	4,199	210,144	107,979
341,216	3,858	210,096	107,706
342,231	3,823	210,034	107,640
343,246	3,951	209,763	107,581
344,260	4,001	209,679	107,564
345,275	4,128	209,624	107,614
346,289	4,196	209,690	107,686
347,304	4,251	209,456	107,594
348,319	4,143	209,205	107,380
349,333	3,937	209,154	107,202
350,348	4,337	208,977	107,379
351,362	4,494	208,871	107,425
352,377	4,369	208,808	107,296
353,392	4,207	208,611	107,073
354,406	4,314	208,435	107,047
355,421	194,284	1344,171	1434,058
356,435	155,039	1482,638	1434,169
