DTS Sentinel unit serial number:	SN410029Multiplexer serial number:	ORYXHardware model number:	OX2-SRSoftware version number:	ORYX F/W v4,00 Oryx Data Collector v3.7.2.0data status	okinstallation	B6 Nyhavnadifferential loss correction	single-endedforward channel	channel 2reverse channel	N/Adate	2023/12/08time	02:00:08forward acquisition time	300,00reverse acquisition time	0,00gamma	499,1914k internal	0,3165k external	0,3165temperature offset calibration	1,0000default loss term (dB/km)	0,3820temperature slope calibration	1,0000multiplexer offset coefficient	1,0000multiplexer slope coefficient	1,0000fibre end	0,00T internal ref (°C)	13,21T ext. ref 1 (°C)	-3,70T ext. ref 2 (°C)	-3,69length (m)	temperature (°C)	Stokes	anti-Stokes-744,400	199,857	0,050	-0,057
-743,385	-68,268	-0,219	-0,062
-742,371	167,406	0,084	0,088
-741,356	-25,721	-0,185	0,080
-740,342	-44,358	0,116	0,043
-739,327	-200,000	-0,355	-0,001
-738,312	-18,017	0,025	-0,011
-737,298	-167,841	-0,287	-0,008
-736,283	246,991	0,087	0,109
-735,269	-139,166	-0,272	-0,021
-734,254	-169,881	0,200	0,005
-733,239	-54,483	-0,550	-0,182
-732,225	-186,546	0,190	0,002
-731,210	67,964	-0,061	-0,046
-730,196	-200,000	-0,025	0,117
-729,181	800,000	-0,056	-0,170
-728,167	-112,266	-0,045	0,007
-727,152	800,000	0,020	-0,057
-726,137	-200,000	-0,015	-0,200
-725,123	255,659	-0,066	-0,084
-724,108	800,000	-0,019	0,046
-723,094	-200,000	0,005	-0,040
-722,079	-28,485	-0,046	0,020
-721,064	19,889	0,127	0,075
-720,050	131,625	0,030	-0,028
-719,035	18,560	-0,188	-0,110
-718,021	25,580	-0,053	0,032
-717,006	800,000	0,012	-0,030
-715,991	36,046	0,142	-0,092
-714,977	503,665	-0,066	-0,112
-713,962	-200,000	0,007	-0,136
-712,948	-200,000	0,023	0,105
-711,933	119,831	-0,053	0,048
-710,918	-116,356	-0,115	-0,015
-709,904	-200,000	-0,022	-0,146
-708,889	385,995	-0,065	-0,099
-707,875	-200,000	-0,001	0,006
-706,860	-200,000	-0,016	-0,073
-705,845	-78,791	-0,023	0,006
-704,831	-117,109	0,042	0,006
-703,816	56,319	-0,022	-0,016
-702,802	-182,338	-0,141	-0,002
-701,787	-153,204	-0,051	0,003
-700,772	304,398	-0,069	-0,094
-699,758	300,260	-0,063	-0,085
-698,743	183,338	-0,099	0,107
-697,729	800,000	0,031	-0,084
-696,714	-157,320	0,125	-0,005
-695,699	-88,710	0,030	-0,007
-694,685	34,462	-0,073	0,047
-693,670	112,099	-0,071	-0,063
-692,656	800,000	-0,041	-0,111
-691,641	99,846	0,020	0,017
-690,627	-200,000	-0,029	0,123
-689,612	315,063	0,045	0,063
-688,597	-134,676	-0,076	-0,007
-687,583	800,000	-0,033	-0,097
-686,568	313,281	-0,016	0,023
-685,554	-112,779	-0,140	0,020
-684,539	-106,746	0,193	-0,031
-683,524	800,000	-0,067	0,205
-682,510	800,000	-0,028	-0,065
-681,495	800,000	-0,038	-0,080
-680,481	18,077	-0,060	-0,035
-679,466	-16,083	0,049	0,023
-678,451	-181,699	0,083	0,001
-677,437	-200,000	-0,003	0,028
-676,422	104,227	-0,082	-0,070
-675,408	-200,000	-0,023	-0,135
-674,393	800,000	-0,016	-0,035
-673,378	-200,000	-0,033	-0,133
-672,364	248,624	0,021	0,026
-671,349	61,957	-0,110	0,081
-670,335	177,966	0,077	0,082
-669,320	-18,851	0,037	0,017
-668,305	-134,597	-0,029	0,003
-667,291	-200,000	0,005	0,035
-666,276	800,000	-0,063	0,173
-665,262	-200,000	0,017	0,097
-664,247	-130,038	-0,026	0,003
-663,232	71,036	-0,051	-0,039
-662,218	91,833	0,045	-0,037
-661,203	-200,000	0,007	-0,036
-660,189	-165,672	-0,072	0,002
-659,174	-200,000	0,006	-0,047
-658,159	104,129	-0,081	-0,070
-657,145	120,512	-0,093	-0,085
-656,130	70,808	0,045	0,034
-655,116	56,361	0,049	0,035
-654,101	-26,738	0,072	-0,031
-653,086	-128,590	0,078	-0,008
-652,072	-184,545	0,069	-0,001
-651,057	413,289	-0,117	-0,183
-650,043	-4,820	0,068	-0,034
-649,028	102,187	0,071	0,060
-648,014	800,000	0,018	-0,042
-646,999	-200,000	-0,035	-0,187
-645,984	-58,525	0,086	-0,027
-644,970	-200,000	0,001	0,073
-643,955	-104,379	-0,138	-0,023
-642,941	54,716	-0,142	-0,100
-641,926	192,638	-0,084	0,093
-640,911	800,000	-0,041	0,103
-639,897	-26,989	-0,037	-0,016
-638,882	205,418	0,056	-0,064
-637,868	-200,000	0,012	-0,069
-636,853	32,049	0,032	-0,020
-635,838	-200,000	0,020	0,089
-634,824	1,297	0,022	-0,012
-633,809	-8,453	0,126	0,062
-632,795	-137,061	0,141	-0,012
-631,780	376,585	-0,056	0,085
-630,765	170,599	-0,015	-0,016
-629,751	-100,297	-0,065	-0,012
-628,736	-47,440	0,057	0,020
-627,722	326,947	0,043	-0,061
-626,707	98,579	0,052	0,044
-625,692	800,000	0,033	0,079
-624,678	800,000	0,078	-0,173
-623,663	-13,295	0,068	-0,032
-622,649	-65,075	0,079	-0,023
-621,634	81,751	-0,065	-0,052
-620,619	409,334	0,108	-0,168
-619,605	-200,000	-0,013	-0,072
-618,590	800,000	-0,021	-0,054
-617,576	800,000	-0,024	-0,059
-616,561	39,302	-0,103	0,067
-615,546	-200,000	0,013	-0,047
-614,532	-119,458	-0,064	0,008
-613,517	355,580	0,122	-0,179
-612,503	-107,616	-0,118	0,019
-611,488	53,882	0,123	0,086
-610,474	-68,885	0,079	0,022
-609,459	-45,608	0,051	-0,018
-608,444	-156,046	-0,143	-0,006
-607,430	-200,000	0,020	0,112
-606,415	2,974	-0,098	-0,052
-605,401	109,587	-0,068	-0,059
-604,386	-144,347	0,145	-0,010
-603,371	-22,476	-0,050	0,022
-602,357	-200,000	0,026	0,097
-601,342	-200,000	-0,025	0,120
-600,328	-200,000	-0,147	0,000
-599,313	375,559	0,026	-0,038
-598,298	-11,375	0,091	0,044
-597,284	5,232	0,120	0,064
-596,269	224,029	0,068	-0,081
-595,255	-131,968	0,005	0,000
-594,240	-200,000	-0,033	-0,159
-593,225	87,862	-0,100	-0,081
-592,211	800,000	0,030	-0,095
-591,196	114,337	-0,096	0,085
-590,182	-151,922	0,082	-0,004
-589,167	-152,855	-0,141	0,007
-588,152	-200,000	-0,035	0,126
-587,138	507,476	0,026	-0,044
-586,123	-70,480	-0,181	-0,050
-585,109	53,050	-0,059	-0,041
-584,094	14,425	-0,074	0,042
-583,079	-200,000	0,001	0,100
-582,065	800,000	0,044	-0,111
-581,050	800,000	0,024	0,063
-580,036	-70,819	-0,083	0,023
-579,021	-125,352	-0,152	0,017
-578,006	125,940	-0,065	-0,060
-576,992	180,118	0,070	0,076
-575,977	-96,511	0,073	-0,014
-574,963	-89,215	0,031	0,007
-573,948	72,539	-0,120	-0,091
-572,934	240,826	0,015	-0,018
-571,919	80,323	-0,025	-0,020
-570,904	276,647	-0,054	-0,070
-569,890	268,027	-0,053	-0,068
-568,875	-135,904	-0,021	0,002
-567,861	-200,000	0,007	0,078
-566,846	-200,000	0,019	0,141
-565,831	67,450	0,037	-0,027
-564,817	464,677	-0,056	-0,092
-563,802	-200,000	-0,012	-0,078
-562,788	800,000	0,061	-0,158
-561,773	23,125	-0,086	-0,051
-560,758	311,290	0,064	0,088
-559,744	320,291	-0,029	0,040
-558,729	664,579	-0,054	0,102
-557,715	583,903	0,014	-0,025
-556,700	-200,000	-0,005	-0,016
-555,685	113,817	-0,043	0,038
-554,671	-99,698	-0,157	-0,029
-553,656	-98,529	0,100	0,019
-552,642	-200,000	-0,009	0,150
-551,627	-121,738	-0,055	-0,007
-550,612	379,748	-0,108	-0,161
-549,598	-200,000	-0,017	-0,098
-548,583	-200,000	-0,002	-0,014
-547,569	-200,000	0,006	0,077
-546,554	800,000	0,037	0,102
-545,539	-110,935	0,045	0,007
-544,525	47,157	-0,131	0,089
-543,510	296,745	-0,055	-0,074
-542,496	312,295	-0,061	-0,083
-541,481	-86,325	0,057	-0,013
-540,466	-200,000	-0,008	-0,096
-539,452	-42,417	-0,093	-0,034
-538,437	296,330	0,043	0,057
-537,423	800,000	0,034	0,087
-536,408	-139,987	-0,083	0,006
-535,393	800,000	-0,030	0,075
-534,379	800,000	0,018	-0,050
-533,364	-91,772	0,076	-0,016
-532,350	379,324	-0,054	0,081
-531,335	-79,341	-0,189	0,046
-530,321	-200,000	0,002	-0,049
-529,306	111,154	-0,080	0,070
-528,291	-200,000	0,018	0,082
-527,277	800,000	-0,007	-0,019
-526,262	-200,000	0,013	-0,107
-525,248	32,816	-0,094	-0,059
-524,233	-73,268	0,071	-0,019
-523,218	-200,000	-0,004	-0,045
-522,204	-147,812	-0,143	-0,009
-521,189	-125,705	0,118	0,013
-520,175	-200,000	-0,003	-0,112
-519,160	-106,465	0,089	0,014
-518,145	74,139	-0,084	-0,064
-517,131	13,634	-0,138	0,078
-516,116	800,000	-0,068	0,151
-515,102	800,000	0,058	-0,153
-514,087	134,330	-0,122	-0,115
-513,072	800,000	0,045	-0,117
-512,058	-200,000	0,005	0,022
-511,043	-63,214	0,050	0,015
-510,029	268,555	-0,029	-0,038
-509,014	800,000	0,037	-0,087
-507,999	800,000	-0,030	0,062
-506,985	800,000	-0,018	-0,037
-505,970	12,851	-0,139	0,078
-504,956	-30,836	0,085	0,035
-503,941	-200,000	-0,001	-0,027
-502,926	239,809	0,063	0,077
-501,912	-200,000	-0,017	0,178
-500,897	-1,840	0,092	0,047
-499,883	28,281	0,077	-0,047
-498,868	30,479	0,135	-0,084
-497,853	52,830	-0,105	0,073
-496,839	-22,042	0,115	-0,051
-495,824	-200,000	0,005	0,094
-494,810	800,000	0,045	-0,095
-493,795	81,102	-0,068	0,053
-492,781	228,973	0,045	0,054
-491,766	318,625	-0,056	0,077
-490,751	-200,000	-0,025	0,082
-489,737	-137,486	0,052	-0,004
-488,722	-105,297	-0,056	0,009
-487,708	70,232	0,090	-0,068
-486,693	107,064	-0,099	0,086
-485,678	-144,922	-0,163	0,011
-484,664	-200,000	-0,051	-0,182
-483,649	-200,000	0,004	-0,069
-482,635	1,662	-0,021	0,011
-481,620	-9,994	0,050	-0,024
-480,605	800,000	0,023	-0,062
-479,591	-75,408	-0,085	0,022
-478,576	-51,579	0,087	0,029
-477,562	22,185	0,042	-0,025
-476,547	596,022	0,049	-0,090
-475,532	-23,904	-0,053	0,023
-474,518	-66,405	0,042	0,012
-473,503	-53,262	-0,097	-0,032
-472,489	-200,000	0,021	0,076
-471,474	-200,000	0,008	0,123
-470,459	-95,822	-0,090	0,017
-469,445	572,561	-0,078	-0,139
-468,430	504,129	0,009	-0,015
-467,416	-200,000	-0,008	-0,030
-466,401	-92,632	0,120	0,024
-465,386	16,749	0,121	0,069
-464,372	49,404	0,066	0,045
-463,357	48,410	0,076	-0,052
-462,343	-141,505	-0,060	-0,004
-461,328	800,000	-0,032	0,074
-460,313	461,742	0,017	-0,028
-459,299	-200,000	-0,023	-0,138
-458,284	800,000	0,061	0,125
-457,270	-19,391	-0,128	0,058
-456,255	4,289	0,100	-0,053
-455,241	-200,000	0,038	-0,140
-454,226	279,890	-0,041	-0,054
-453,211	40,432	0,092	0,060
-452,197	-200,000	-0,002	-0,070
-451,182	525,378	0,026	-0,046
-450,168	-166,758	0,114	0,003
-449,153	-200,000	-0,003	-0,047
-448,138	-200,000	-0,022	-0,115
-447,124	660,411	-0,069	-0,130
-446,109	261,273	0,044	-0,056
-445,095	200,829	-0,019	0,021
-444,080	-200,000	-0,002	-0,046
-443,065	-200,000	0,011	-0,059
-442,051	-200,000	0,007	-0,040
-441,036	-200,000	-0,030	-0,103
-440,022	258,221	-0,166	-0,209
-439,007	-200,000	0,009	0,103
-437,992	85,101	-0,084	0,067
-436,978	-200,000	-0,004	-0,028
-435,963	87,301	-0,016	-0,013
-434,949	-42,997	-0,096	0,035
-433,934	-8,909	-0,120	0,058
-432,919	800,000	0,034	-0,088
-431,905	-31,400	-0,154	-0,063
-430,890	-25,530	0,101	-0,043
-429,876	-200,000	-0,003	0,013
-428,861	128,947	-0,067	-0,062
-427,846	-200,000	-0,006	0,084
-426,832	800,000	0,025	-0,072
-425,817	355,526	0,012	-0,017
-424,803	198,286	0,103	0,115
-423,788	-200,000	-0,002	0,053
-422,773	-200,000	-0,025	0,091
-421,759	387,745	-0,039	0,059
-420,744	-47,040	0,134	0,047
-419,730	506,500	-0,054	0,092
-418,715	-31,119	-0,144	0,059
-417,701	-200,000	-0,010	0,119
-416,686	-37,044	0,021	0,008
-415,671	117,919	0,045	0,040
-414,657	-200,000	0,015	-0,066
-413,642	233,109	-0,018	-0,022
-412,628	210,927	0,074	0,085
-411,613	-159,615	0,107	-0,004
-410,598	88,597	-0,010	0,008
-409,584	-85,882	-0,153	0,034
-408,569	694,404	0,024	-0,046
-407,555	271,953	0,078	-0,100
-406,540	-0,556	0,086	-0,044
-405,525	-157,180	-0,110	0,005
-404,511	-200,000	-0,001	0,100
-403,496	-200,000	-0,007	-0,135
-402,482	-91,315	0,096	0,020
-401,467	800,000	0,028	0,058
-400,452	800,000	-0,002	-0,005
-399,438	-200,000	-0,017	0,078
-398,423	103,469	0,028	-0,024
-397,409	-56,448	0,073	-0,023
-396,394	-200,000	0,005	-0,031
-395,379	-88,868	0,154	0,033
-394,365	-200,000	0,004	0,093
-393,350	-119,638	-0,005	0,001
-392,336	-89,966	0,069	-0,014
-391,321	-200,000	-0,006	0,071
-390,306	-58,852	0,158	-0,049
-389,292	22,709	-0,112	0,067
-388,277	-200,000	0,039	0,152
-387,263	-167,793	0,123	0,003
-386,248	800,000	0,032	0,067
-385,233	800,000	0,035	0,088
-384,219	-200,000	0,008	0,046
-383,204	-200,000	0,009	0,051
-382,190	293,413	-0,052	0,069
-381,175	-158,861	-0,083	-0,003
-380,160	622,699	-0,042	0,076
-379,146	-123,015	0,122	0,014
-378,131	-200,000	-0,007	0,166
-377,117	477,175	-0,078	-0,128
-376,102	800,000	-0,081	-0,189
-375,088	-200,000	-0,017	-0,139
-374,073	10,948	-0,074	-0,041
-373,058	-130,314	0,071	0,007
-372,044	24,035	0,050	0,030
-371,029	791,512	0,034	-0,068
-370,015	57,550	0,105	-0,074
-369,000	-200,000	-0,019	-0,071
-367,985	-200,000	0,003	-0,161
-366,971	-68,232	-0,077	0,022
-365,956	-200,000	-0,021	-0,081
-364,942	-7,544	0,090	-0,044
-363,927	138,742	0,065	0,062
-362,912	-200,000	0,042	0,177
-361,898	-79,331	0,087	-0,021
-360,883	-103,483	0,079	-0,013
-359,869	-200,000	0,038	-0,167
-358,854	84,936	-0,015	-0,012
-357,839	-174,067	-0,054	-0,001
-356,825	-200,000	0,006	-0,021
-355,810	520,285	0,080	0,137
-354,796	191,238	-0,026	-0,028
-353,781	98,498	-0,031	0,026
-352,766	-200,000	-0,041	-0,167
-351,752	402,727	-0,067	0,102
-350,737	-200,000	0,024	0,095
-349,723	-27,764	-0,088	-0,037
-348,708	800,000	-0,021	0,062
-347,693	712,418	-0,030	-0,058
-346,679	-200,000	-0,008	-0,082
-345,664	-42,545	-0,086	-0,031
-344,650	-200,000	-0,006	-0,037
-343,635	-68,132	0,138	0,039
-342,620	-169,399	0,050	0,001
-341,606	-200,000	0,025	0,131
-340,591	190,253	0,038	-0,041
-339,577	338,550	-0,048	-0,068
-338,562	198,293	-0,020	-0,022
-337,548	-200,000	0,035	0,134
-336,533	-146,634	-0,117	0,007
-335,518	-106,925	-0,080	-0,013
-334,504	-4,049	0,031	-0,015
-333,489	-199,293	0,106	0,000
-332,475	800,000	0,031	0,080
-331,460	691,966	-0,034	0,065
-330,445	-200,000	0,016	0,142
-329,431	5,425	0,144	-0,076
-328,416	-82,766	-0,038	0,009
-327,402	60,979	0,064	-0,046
-326,387	800,000	0,036	-0,105
-325,372	-1,300	-0,037	0,019
-324,358	347,781	-0,055	-0,078
-323,343	-33,466	0,104	0,041
-322,329	-200,000	0,014	0,161
-321,314	402,139	-0,061	0,093
-320,299	-200,000	0,003	0,053
-319,285	139,287	0,049	-0,047
-318,270	-200,000	0,002	-0,023
-317,256	113,336	0,026	-0,023
-316,241	336,362	0,044	-0,062
-315,226	-160,266	-0,122	-0,005
-314,212	-79,101	0,041	0,010
-313,197	-200,000	0,003	0,074
-312,183	80,474	-0,056	0,044
-311,168	465,268	0,051	-0,083
-310,153	681,467	-0,040	0,076
-309,139	98,942	-0,015	-0,012
-308,124	318,528	0,002	0,003
-307,110	-10,382	0,056	0,027
-306,095	-200,000	0,013	0,119
-305,080	76,730	-0,038	-0,029
-304,066	-200,000	0,002	-0,026
-303,051	800,000	-0,047	0,116
-302,037	207,586	0,057	0,065
-301,022	122,044	0,047	0,043
-300,008	-141,780	-0,085	-0,006
-298,993	467,400	-0,028	-0,045
-297,978	-84,467	-0,052	-0,012
-296,964	-200,000	0,005	0,058
-295,949	22,939	-0,091	-0,054
-294,935	-200,000	-0,019	0,108
-293,920	-200,000	0,015	0,126
-292,905	590,417	0,070	0,125
-291,891	-200,000	-0,000	0,106
-290,876	168,554	0,036	-0,037
-289,862	62,999	-0,049	-0,035
-288,847	-200,000	0,000	-0,064
-287,832	12,836	0,088	-0,049
-286,818	26,508	-0,073	-0,044
-285,803	-123,876	0,133	-0,015
-284,789	-15,124	0,070	-0,032
-283,774	28,151	0,018	-0,011
-282,759	-200,000	-0,023	-0,101
-281,745	243,211	0,068	0,082
-280,730	-115,643	-0,174	0,023
-279,716	800,000	0,019	-0,050
-278,701	-200,000	0,003	-0,082
-277,686	-200,000	-0,008	-0,028
-276,672	140,949	-0,008	-0,008
-275,657	800,000	0,035	0,106
-274,643	-200,000	0,006	-0,103
-273,628	270,172	0,017	0,022
-272,613	-55,282	0,063	-0,020
-271,599	-68,773	-0,115	0,032
-270,584	28,201	0,073	-0,044
-269,570	-200,000	-0,007	0,116
-268,555	315,754	0,076	-0,103
-267,540	-149,219	0,044	-0,002
-266,526	800,000	-0,020	-0,051
-265,511	-69,720	0,069	0,019
-264,497	-200,000	0,041	-0,138
-263,482	-200,000	-0,004	0,155
-262,467	-38,727	0,116	0,044
-261,453	292,727	-0,053	0,070
-260,438	-108,903	-0,187	-0,029
-259,424	90,182	-0,057	-0,046
-258,409	-6,236	-0,061	-0,030
-257,395	-200,000	0,047	0,153
-256,380	-200,000	-0,001	0,152
-255,365	-200,000	0,004	0,037
-254,351	-171,453	-0,049	0,001
-253,336	-200,000	0,005	-0,086
-252,322	-147,736	0,023	0,001
-251,307	-200,000	0,001	-0,071
-250,292	-143,632	0,062	0,004
-249,278	-200,000	0,007	0,061
-248,263	794,668	0,075	0,151
-247,249	-200,000	0,014	-0,055
-246,234	59,409	0,077	-0,055
-245,219	537,490	-0,046	-0,080
-244,205	-136,616	0,099	0,008
-243,190	219,186	-0,072	0,083
-242,176	-32,661	0,066	0,026
-241,161	217,000	-0,080	-0,092
-240,146	406,451	0,057	-0,087
-239,132	115,798	-0,027	-0,024
-238,117	-200,000	-0,038	0,162
-237,103	145,215	-0,025	-0,024
-236,088	-138,078	0,065	-0,005
-235,073	-101,811	-0,049	0,008
-234,059	-71,284	0,018	0,005
-233,044	533,873	0,031	0,053
-232,030	-200,000	0,012	-0,085
-231,015	87,462	-0,060	0,048
-230,000	691,407	-0,030	-0,056
-228,986	-200,000	-0,014	0,056
-227,971	-200,000	-0,015	0,070
-226,957	-62,039	0,112	-0,033
-225,942	-38,480	-0,030	-0,011
-224,927	28,941	-0,124	0,076
-223,913	800,000	-0,057	-0,146
-222,898	-200,000	-0,021	-0,083
-221,884	171,273	-0,042	-0,043
-220,869	361,087	0,049	-0,071
-219,855	-18,863	-0,131	-0,059
-218,840	-200,000	-0,021	0,139
-217,825	-200,000	0,003	0,092
-216,811	-200,000	-0,006	-0,038
-215,796	-200,000	0,007	-0,074
-214,782	291,688	0,118	-0,155
-213,767	62,731	0,033	-0,024
-212,752	-44,158	0,024	0,009
-211,738	-200,000	0,005	0,137
-210,723	-200,000	0,006	0,056
-209,709	689,955	0,025	0,048
-208,694	-191,889	0,080	-0,001
-207,679	800,000	0,052	0,129
-206,665	-37,209	-0,009	0,004
-205,650	627,313	0,054	0,099
-204,636	172,864	0,087	0,090
-203,621	47,040	0,138	0,092
-202,606	4,554	-0,062	0,033
-201,592	-200,000	-0,028	-0,090
-200,577	-75,143	-0,096	0,025
-199,563	23,211	-0,092	-0,054
-198,548	-189,764	0,068	-0,001
-197,533	417,430	-0,007	-0,010
-196,519	-152,568	-0,094	0,005
-195,504	127,453	0,058	-0,053
-194,490	-200,000	-0,008	0,089
-193,475	538,553	-0,003	0,005
-192,460	-77,548	0,033	-0,008
-191,446	-56,445	0,190	0,060
-190,431	-99,630	0,103	0,018
-189,417	800,000	0,038	0,082
-188,402	-200,000	-0,011	0,072
-187,387	-107,742	-0,150	-0,023
-186,373	10,253	-0,110	0,060
-185,358	70,932	0,105	0,078
-184,344	597,376	-0,054	0,096
-183,329	-49,734	0,105	-0,036
-182,315	-3,295	0,032	0,016
-181,300	301,529	0,062	-0,082
-180,285	87,669	0,062	-0,049
-179,271	800,000	0,043	-0,110
-178,256	-113,772	-0,067	-0,009
-177,242	-15,830	-0,040	-0,018
-176,227	-200,000	-0,035	-0,117
-175,212	110,052	-0,048	0,042
-174,198	-78,223	-0,091	-0,022
-173,183	-21,189	-0,110	-0,048
-172,169	-99,163	-0,034	0,006
-171,154	-40,399	-0,106	0,040
-170,139	76,154	0,129	-0,098
-169,125	82,378	-0,032	-0,025
-168,110	800,000	0,015	-0,034
-167,096	-151,145	0,088	-0,005
-166,081	447,886	0,033	0,053
-165,066	-200,000	-0,006	-0,065
-164,052	-62,229	0,048	0,014
-163,037	-200,000	-0,014	0,147
-162,023	398,714	0,067	0,101
-161,008	-126,102	0,135	-0,014
-159,993	800,000	-0,037	0,080
-158,979	-200,000	0,007	-0,225
-157,964	439,580	-0,058	-0,091
-156,950	-31,131	0,072	0,029
-155,935	-5,975	-0,146	0,071
-154,920	615,919	-0,020	-0,036
-153,906	145,694	0,156	0,150
-152,891	438,392	-0,034	-0,053
-151,877	-200,000	0,013	0,086
-150,862	-200,000	-0,016	0,189
-149,847	-200,000	0,004	0,055
-148,833	116,861	0,110	0,097
-147,818	800,000	0,028	-0,084
-146,804	-80,705	0,048	-0,011
-145,789	-200,000	0,028	0,206
-144,775	395,109	0,003	-0,004
-143,760	2,257	-0,060	0,031
-142,745	800,000	-0,016	-0,042
-141,731	86,558	-0,070	0,055
-140,716	-55,409	-0,055	0,018
-139,702	148,307	0,077	0,075
-138,687	258,801	-0,122	-0,152
-137,672	-200,000	0,015	-0,072
-136,658	-50,570	-0,099	-0,033
-135,643	105,878	-0,117	0,100
-134,629	-33,002	-0,089	0,035
-133,614	-145,130	-0,121	0,008
-132,599	-1,661	0,076	0,038
-131,585	24,417	0,104	0,062
-130,570	349,996	-0,060	-0,085
-129,556	76,781	-0,074	-0,056
-128,541	-200,000	-0,002	-0,111
-127,526	-200,000	0,012	-0,075
-126,512	260,928	-0,036	-0,045
-125,497	44,736	0,041	0,027
-124,483	-200,000	0,001	-0,143
-123,468	87,179	-0,074	0,058
-122,453	-191,622	0,056	0,000
-121,439	800,000	-0,018	-0,039
-120,424	719,731	-0,032	-0,061
-119,410	-185,454	-0,040	0,000
-118,395	180,665	0,005	0,005
-117,380	374,862	0,031	-0,046
-116,366	-200,000	-0,019	0,087
-115,351	-200,000	0,014	-0,112
-114,337	-155,970	-0,102	-0,005
-113,322	-30,851	0,058	-0,023
-112,307	48,528	-0,012	-0,008
-111,293	800,000	-0,046	0,111
-110,278	-80,376	0,022	-0,005
-109,264	-200,000	-0,012	-0,120
-108,249	-200,000	-0,004	-0,036
-107,234	666,522	0,065	-0,121
-106,220	800,000	0,014	-0,030
-105,205	65,999	0,008	0,006
-104,191	-137,305	-0,130	-0,010
-103,176	-200,000	0,013	0,084
-102,162	800,000	-0,004	0,008
-101,147	-200,000	-0,025	0,151
-100,132	800,000	0,054	-0,112
-99,118	134,722	0,049	-0,045
-98,103	15,302	-0,065	-0,037
-97,089	120,838	0,038	0,034
-96,074	-200,000	-0,018	-0,070
-95,059	165,452	-0,052	0,053
-94,045	-200,000	0,011	0,048
-93,030	-0,278	-0,098	0,050
-92,016	171,884	-0,105	-0,109
-91,001	73,705	0,037	-0,028
-89,986	-145,463	0,053	-0,003
-88,972	-200,000	-0,005	0,085
-87,957	-1,053	0,148	0,075
-86,943	800,000	-0,027	-0,069
-85,928	16,760	-0,268	-0,152
-84,913	-200,000	-0,008	0,080
-83,899	134,127	-0,043	0,040
-82,884	-200,000	0,019	0,290
-81,870	113,896	0,142	0,123
-80,855	71,703	0,023	-0,017
-79,840	-200,000	-0,020	-0,155
-78,826	-200,000	-0,012	-0,098
-77,811	58,188	0,037	0,026
-76,797	22,743	-0,143	0,083
-75,782	725,507	0,084	0,162
-74,767	73,405	0,179	0,134
-73,753	800,000	-0,111	0,243
-72,738	-143,042	0,078	-0,005
-71,724	-200,000	0,023	0,133
-70,709	14,886	0,037	-0,021
-69,694	-200,000	-0,006	-0,058
-68,680	-200,000	-0,024	0,085
-67,665	-17,648	-0,189	0,085
-66,651	-105,968	0,225	-0,036
-65,636	-25,735	-0,114	0,048
-64,622	262,151	-0,064	-0,079
-63,607	-200,000	0,036	-0,123
-62,592	106,543	0,088	0,075
-61,578	183,416	0,027	-0,029
-60,563	435,466	0,024	-0,037
-59,549	727,548	-0,026	0,049
-58,534	18,096	-2,233	-1,272
-57,519	-200,000	0,057	-0,659
-56,505	-200,000	-1,533	-5,190
-55,490	95,962	0,947	0,774
-54,476	800,000	5,422	12,187
-53,461	-200,000	18,893	319,897
-52,446	800,000	741,529	2324,821
-51,432	549,389	1654,683	2850,992
-50,417	109,906	1637,654	1406,344
-49,403	73,596	1288,039	964,974
-48,388	29,623	1029,715	625,864
-47,373	19,664	992,586	570,375
-46,359	16,962	980,209	554,369
-45,344	13,611	976,499	541,256
-44,330	13,925	974,770	541,305
-43,315	13,298	973,090	538,299
-42,300	13,212	972,001	537,392
-41,286	13,225	971,026	536,876
-40,271	13,229	970,270	536,448
-39,257	13,209	969,188	535,766
-38,242	13,207	968,548	535,382
-37,227	13,269	967,447	534,955
-36,213	13,175	966,692	534,210
-35,198	13,172	965,783	533,676
-34,184	13,213	965,058	533,390
-33,169	13,159	964,158	532,696
-32,154	13,223	963,243	532,376
-31,140	13,236	962,073	531,751
-30,125	13,225	961,628	531,447
-29,111	13,242	960,440	530,824
-28,096	13,275	960,132	530,739
-27,082	13,262	959,322	530,229
-26,067	13,296	958,569	529,902
-25,052	13,249	957,659	529,226
-24,038	13,208	957,266	528,854
-23,023	13,197	956,816	528,550
-22,009	13,311	955,687	528,273
-20,994	13,225	955,223	527,718
-19,979	13,290	954,785	527,665
-18,965	13,224	954,136	527,074
-17,950	13,243	953,591	526,812
-16,936	13,198	952,829	526,226
-15,921	13,220	952,032	525,836
-14,906	13,133	951,255	525,107
-13,892	13,186	950,543	524,862
-12,877	13,166	949,932	524,440
-11,863	13,085	949,362	523,847
-10,848	13,145	948,885	523,754
-9,833	13,273	948,440	523,897
-8,819	13,165	947,614	523,076
-7,804	13,162	947,124	522,774
-6,790	13,102	946,368	522,146
-5,775	13,213	946,033	522,291
-4,760	13,179	945,344	521,785
-3,746	13,176	944,669	521,379
-2,731	12,998	943,972	520,411
-1,717	12,966	943,415	519,981
-0,702	12,985	942,611	519,577
0,313	12,759	942,132	519,383
1,327	16,213	939,830	528,975
2,342	25,311	790,567	468,949
3,356	21,325	445,126	258,106
4,371	-7,682	298,041	143,585
5,386	-11,550	279,985	131,176
6,400	-12,879	274,199	127,208
7,415	-13,063	271,798	125,912
8,429	-13,225	270,448	125,126
9,444	-13,147	269,422	124,711
10,459	-13,351	268,929	124,285
11,473	-13,277	268,257	124,031
12,488	-13,338	267,763	123,736
13,502	-13,419	267,070	123,330
14,517	-13,610	266,919	123,076
15,531	-13,322	266,275	123,029
16,546	-13,151	265,986	123,041
17,561	-13,267	265,535	122,716
18,575	-13,210	265,203	122,603
19,590	-13,284	264,753	122,318
20,604	-13,307	264,645	122,236
21,619	-13,374	264,188	121,954
22,634	-13,484	263,953	121,735
23,648	-13,233	263,500	121,741
24,663	-13,568	263,545	121,449
25,677	-13,428	263,038	121,330
26,692	-13,346	262,752	121,261
27,707	-13,417	262,422	121,035
28,721	-13,363	262,210	120,974
29,736	-13,453	261,895	120,738
30,750	-13,348	261,650	120,708
31,765	-13,547	261,505	120,452
32,780	-13,459	261,136	120,350
33,794	-13,616	260,949	120,114
34,809	-13,517	260,654	120,056
35,823	-13,563	260,440	119,905
36,838	-13,433	260,024	119,818
37,853	-13,667	259,788	119,491
38,867	-13,550	259,695	119,542
39,882	-13,541	259,400	119,403
40,896	-13,501	259,147	119,312
41,911	-13,462	258,876	119,210
42,926	-13,449	258,784	119,169
43,940	-13,570	258,495	118,919
44,955	-13,575	258,178	118,758
45,969	-13,665	258,045	118,607
46,984	-13,812	257,794	118,352
47,999	-14,145	257,559	117,941
49,013	-14,211	257,189	117,703
50,028	-14,124	256,917	117,644
51,042	-14,269	256,730	117,422
52,057	-14,230	256,409	117,298
53,071	-14,187	256,201	117,230
54,086	-14,276	256,176	117,131
55,101	-13,835	255,920	117,387
56,115	-13,898	255,929	117,327
57,130	-13,279	255,693	117,746
58,144	-13,230	255,538	117,707
59,159	-13,326	255,359	117,531
60,174	-13,171	255,021	117,499
61,188	-13,342	254,764	117,223
62,203	-13,261	254,705	117,254
63,217	-13,216	254,367	117,128
64,232	-13,451	254,271	116,869
65,247	-13,468	253,985	116,713
66,261	-13,415	253,746	116,639
67,276	-13,699	253,450	116,247
68,290	-13,902	253,357	116,020
69,305	-13,949	252,999	115,805
70,320	-13,851	252,662	115,725
71,334	-13,683	252,637	115,847
72,349	-13,274	252,489	116,120
73,363	-13,241	252,276	116,040
74,378	-13,111	251,975	116,002
75,393	-13,406	251,857	115,685
76,407	-13,549	251,657	115,461
77,422	-13,539	251,411	115,346
78,436	-13,296	251,143	115,421
79,451	-13,460	250,969	115,190
80,466	-13,584	250,658	114,931
81,480	-13,737	250,420	114,682
82,495	-13,661	250,253	114,660
83,509	-13,652	250,039	114,559
84,524	-13,777	250,068	114,456
85,539	-13,709	249,600	114,289
86,553	-13,838	249,441	114,097
87,568	-13,754	249,202	114,049
88,582	-13,860	249,091	113,898
89,597	-13,766	248,977	113,915
90,611	-13,624	248,758	113,925
91,626	-13,369	248,474	114,000
92,641	-13,404	248,410	113,931
93,655	-13,519	248,318	113,781
94,670	-13,600	247,979	113,547
95,684	-13,627	247,860	113,461
96,699	-13,542	247,557	113,383
97,714	-13,788	247,445	113,115
98,728	-13,786	247,224	113,006
99,743	-13,936	246,891	112,718
100,757	-13,862	246,739	112,700
101,772	-13,886	246,673	112,640
102,787	-13,712	246,422	112,660
103,801	-13,677	246,277	112,614
104,816	-13,525	246,127	112,662
105,830	-13,352	245,915	112,699
106,845	-13,495	245,728	112,484
107,860	-13,447	245,604	112,457
108,874	-13,608	245,432	112,235
109,889	-13,497	244,974	112,107
110,903	-13,735	244,947	111,888
111,918	-13,788	244,895	111,809
112,933	-13,670	244,616	111,770
113,947	-13,457	244,575	111,918
114,962	-13,442	244,200	111,748
115,976	-13,476	244,105	111,667
116,991	-13,429	243,795	111,554
118,006	-13,593	243,834	111,427
119,020	-13,265	243,537	111,551
120,035	-13,436	243,463	111,366
121,049	-13,421	243,172	111,236
122,064	-13,281	243,057	111,288
123,079	-13,370	242,669	111,028
124,093	-13,578	242,716	110,868
125,108	-13,766	242,338	110,532
126,122	-13,834	242,122	110,368
127,137	-14,063	242,048	110,137
128,151	-14,006	241,747	110,037
129,166	-13,710	241,587	110,196
130,181	-13,873	241,416	109,975
131,195	-13,808	241,175	109,908
132,210	-13,763	241,207	109,950
133,224	-13,591	240,994	109,983
134,239	-13,253	240,700	110,114
135,254	-13,591	240,613	109,789
136,268	-13,364	240,210	109,780
137,283	-13,930	240,149	109,283
138,297	-13,742	239,724	109,232
139,312	-14,132	239,768	108,926
140,327	-13,528	239,699	109,374
141,341	-13,248	239,714	109,599
142,356	-13,185	239,596	109,586
143,370	-13,148	239,282	109,462
144,385	-13,227	239,212	109,356
145,400	-13,019	238,985	109,411
146,414	-12,829	238,801	109,470
147,429	-13,260	238,459	108,957
148,443	-13,389	238,515	108,869
149,458	-13,237	238,188	108,832
150,473	-13,351	238,027	108,657
151,487	-13,323	237,763	108,549
152,502	-13,092	237,629	108,664
153,516	-13,158	237,510	108,547
154,531	-13,317	237,373	108,348
155,546	-13,389	237,220	108,210
156,560	-13,380	237,073	108,141
157,575	-13,481	236,731	107,895
158,589	-13,438	236,547	107,835
159,604	-13,049	236,474	108,102
160,619	-13,032	236,329	108,040
161,633	-13,230	236,247	107,835
162,648	-12,985	235,926	107,874
163,662	-13,255	235,847	107,614
164,677	-13,364	235,778	107,486
165,692	-13,330	235,575	107,410
166,706	-13,120	235,378	107,478
167,721	-13,095	235,329	107,466
168,735	-12,936	235,252	107,547
169,750	-13,210	234,930	107,173
170,764	-13,450	234,835	106,931
171,779	-13,157	234,562	107,028
172,794	-12,997	234,528	107,130
173,808	-13,092	234,145	106,870
174,823	-13,732	233,857	106,225
175,837	-13,895	233,722	106,026
176,852	-13,470	233,758	106,368
177,867	-13,392	233,711	106,397
178,881	-13,129	233,561	106,527
179,896	-12,966	233,206	106,484
180,910	-13,066	233,283	106,430
181,925	-13,005	232,946	106,315
182,940	-13,050	232,908	106,253
183,954	-13,059	232,814	106,193
184,969	-13,108	232,547	106,024
185,983	-12,923	232,319	106,056
186,998	-12,855	232,141	106,018
188,013	-13,089	232,115	105,813
189,027	-12,987	232,009	105,836
190,042	-12,771	231,679	105,844
191,056	-13,004	231,598	105,616
192,071	-13,086	231,331	105,421
193,086	-13,098	231,335	105,404
194,100	-12,882	230,956	105,390
195,115	-13,433	230,648	104,812
196,129	-13,415	230,931	104,946
197,144	-7,775	232,533	110,070
198,159	-2,401	234,111	115,022
199,173	1,868	235,466	119,036
200,188	2,935	235,578	119,920
201,202	2,544	235,507	119,567
202,217	2,757	235,327	119,631
203,232	2,871	235,183	119,637
204,246	2,894	235,065	119,584
205,261	3,138	234,886	119,674
206,275	3,340	234,788	119,771
207,290	3,081	234,679	119,502
208,304	3,184	234,586	119,524
209,319	3,054	234,246	119,240
210,334	3,023	234,039	119,099
211,348	2,878	233,635	118,770
212,363	2,426	233,453	118,315
213,377	2,249	233,377	118,129
214,392	2,408	233,259	118,182
215,407	2,565	233,137	118,232
216,421	2,387	233,182	118,106
217,436	2,427	232,793	117,930
218,450	2,177	232,555	117,605
219,465	2,174	232,359	117,493
220,480	2,287	232,260	117,519
221,494	1,969	232,216	117,240
222,509	2,536	232,074	117,597
223,523	2,545	231,762	117,435
224,538	2,384	231,770	117,304
225,553	2,507	231,533	117,269
226,567	2,575	231,492	117,290
227,582	2,723	231,403	117,349
228,596	2,944	231,118	117,363
229,611	2,475	231,167	117,017
230,626	2,144	230,692	116,512
231,640	2,193	230,635	116,511
232,655	2,677	230,447	116,776
233,669	3,007	230,367	116,978
234,684	3,204	230,218	117,043
235,699	2,937	230,209	116,823
236,713	2,505	229,996	116,375
237,728	2,339	229,898	116,188
238,742	2,122	229,547	115,834
239,757	2,722	229,420	116,217
240,772	2,437	229,222	115,889
241,786	2,138	229,174	115,627
242,801	2,582	229,080	115,908
243,815	2,968	229,054	116,178
244,830	2,895	228,784	115,975
245,844	2,602	228,581	115,639
246,859	2,485	228,347	115,422
247,874	2,470	228,420	115,437
248,888	2,661	228,229	115,475
249,903	2,737	228,025	115,419
250,917	2,523	227,902	115,184
251,932	2,490	227,699	115,047
252,947	2,424	227,443	114,857
253,961	2,329	227,263	114,684
254,976	2,294	227,233	114,633
255,990	2,658	227,244	114,902
257,005	2,771	226,996	114,852
258,020	2,631	226,783	114,629
259,034	2,743	226,677	114,649
260,049	2,627	226,579	114,502
261,063	2,537	226,425	114,346
262,078	2,594	226,445	114,389
263,093	2,961	226,133	114,497
264,107	2,936	225,957	114,378
265,122	2,595	225,895	114,082
266,136	2,917	225,881	114,306
267,151	3,108	225,442	114,216
268,166	2,592	225,268	113,733
269,180	2,352	224,954	113,384
270,195	2,385	224,990	113,418
271,209	2,324	224,861	113,297
272,224	2,419	224,770	113,311
273,239	2,524	224,633	113,310
274,253	2,363	224,390	113,058
275,268	1,928	224,348	112,703
276,282	2,203	224,141	112,794
277,297	2,089	223,976	112,616
278,312	2,421	223,825	112,776
279,326	2,392	223,752	112,708
280,341	2,154	223,796	112,544
281,355	2,582	223,524	112,714
282,370	2,407	223,443	112,533
283,384	2,323	223,094	112,286
284,399	1,999	223,006	111,992
285,414	2,266	222,883	112,117
286,428	2,425	222,781	112,174
287,443	2,364	222,690	112,072
288,457	2,512	222,531	112,091
289,472	2,478	222,243	111,911
290,487	1,934	222,046	111,402
291,501	2,080	221,745	111,348
292,516	1,972	221,796	111,285
293,530	2,044	221,628	111,244
294,545	2,155	221,577	111,290
295,560	2,538	221,455	111,499
296,574	2,388	221,392	111,347
297,589	2,414	221,103	111,211
298,603	2,458	221,197	111,280
299,618	2,626	220,876	111,231
300,633	2,529	220,853	111,139
301,647	2,863	220,704	111,298
302,662	2,690	220,637	111,128
303,676	2,840	220,215	111,015
304,691	2,585	220,229	110,826
305,706	2,653	220,022	110,762
306,720	2,613	219,973	110,699
307,735	2,392	219,729	110,406
308,749	2,442	219,567	110,350
309,764	2,446	219,666	110,393
310,779	2,710	219,360	110,421
311,793	2,467	219,238	110,174
312,808	2,407	219,194	110,098
313,822	2,646	218,907	110,117
314,837	2,520	218,812	109,968
315,852	2,061	218,723	109,582
316,866	2,384	218,629	109,759
317,881	2,935	218,397	110,029
318,895	2,657	218,277	109,759
319,910	2,002	218,125	109,201
320,925	1,983	217,729	108,979
321,939	1,821	217,557	108,768
322,954	2,061	217,595	108,949
323,968	2,323	217,694	109,177
324,983	2,690	217,388	109,277
325,997	2,690	217,426	109,286
327,012	2,434	217,281	109,020
328,027	2,697	217,032	109,074
329,041	2,953	216,852	109,157
330,056	2,642	216,818	108,907
331,070	2,396	216,606	108,616
332,085	2,281	216,400	108,421
333,100	2,514	216,227	108,490
334,114	2,342	216,284	108,387
335,129	2,487	215,912	108,294
336,143	2,342	215,871	108,161
337,158	2,422	215,654	108,098
338,173	2,078	215,640	107,837
339,187	2,137	215,379	107,740
340,202	2,425	215,280	107,885
341,216	2,547	215,289	107,966
342,231	2,772	215,073	108,008
343,246	2,661	214,857	107,811
344,260	2,450	214,847	107,647
345,275	2,578	214,737	107,672
346,289	2,693	214,587	107,669
347,304	2,567	214,489	107,522
348,319	2,630	214,206	107,414
349,333	2,489	214,088	107,246
350,348	2,348	214,041	107,114
351,362	2,685	213,981	107,311
352,377	2,798	213,830	107,305
353,392	2,569	213,543	106,991
354,406	2,746	213,470	107,069
355,421	196,543	1314,315	1390,622
356,435	157,227	1448,384	1390,559
