DTS Sentinel unit serial number:	SN410029Multiplexer serial number:	ORYXHardware model number:	OX2-SRSoftware version number:	ORYX F/W v4,00 Oryx Data Collector v3.7.2.0data status	okinstallation	B6 Nyhavnadifferential loss correction	single-endedforward channel	channel 2reverse channel	N/Adate	2023/12/09time	22:05:08forward acquisition time	300,00reverse acquisition time	0,00gamma	499,1914k internal	0,3127k external	0,3127temperature offset calibration	1,0000default loss term (dB/km)	0,3820temperature slope calibration	1,0000multiplexer offset coefficient	1,0000multiplexer slope coefficient	1,0000fibre end	0,00T internal ref (°C)	21,64T ext. ref 1 (°C)	5,42T ext. ref 2 (°C)	5,42length (m)	temperature (°C)	Stokes	anti-Stokes-744,400	-200,000	0,007	-0,055
-743,385	734,844	-0,079	0,157
-742,371	800,000	-0,018	-0,048
-741,356	-130,131	-0,325	0,033
-740,342	-200,000	-0,021	-0,131
-739,327	-87,589	-0,309	0,069
-738,312	800,000	0,030	-0,077
-737,298	-145,048	-0,264	0,018
-736,283	-5,589	-0,089	-0,045
-735,269	164,608	-0,021	0,022
-734,254	139,891	-0,023	-0,023
-733,239	-129,271	-0,417	-0,043
-732,225	33,219	0,149	-0,096
-731,210	800,000	0,072	-0,192
-730,196	-200,000	0,020	-0,072
-729,181	390,870	-0,059	-0,091
-728,167	-200,000	0,015	-0,098
-727,152	-127,653	-0,080	-0,008
-726,137	-200,000	-0,007	-0,191
-725,123	-29,735	-0,048	0,020
-724,108	-200,000	-0,046	-0,174
-723,094	-200,000	-0,008	-0,155
-722,079	-200,000	-0,026	-0,171
-721,064	-200,000	-0,025	-0,123
-720,050	410,110	0,081	-0,128
-719,035	-32,025	-0,071	0,029
-718,021	115,948	-0,016	0,015
-717,006	84,614	-0,076	-0,062
-715,991	-55,632	-0,139	-0,046
-714,977	800,000	-0,031	-0,070
-713,962	269,084	-0,053	-0,069
-712,948	-141,940	0,036	-0,003
-711,933	-200,000	0,005	-0,038
-710,918	-200,000	0,071	0,260
-709,904	771,653	-0,029	-0,059
-708,889	239,940	-0,094	-0,117
-707,875	-4,726	-0,068	0,035
-706,860	800,000	-0,064	0,139
-705,845	-200,000	-0,032	-0,131
-704,831	-200,000	0,022	0,088
-703,816	116,857	0,087	-0,079
-702,802	-23,499	-0,079	-0,035
-701,787	391,113	-0,067	0,104
-700,772	-131,346	-0,092	0,009
-699,758	731,162	-0,029	0,058
-698,743	62,705	0,062	0,046
-697,729	-200,000	-0,009	-0,099
-696,714	0,338	0,046	-0,024
-695,699	190,922	0,007	0,008
-694,685	173,024	0,048	-0,052
-693,670	-51,901	-0,048	0,016
-692,656	-200,000	-0,188	0,000
-691,641	290,574	0,099	0,134
-690,627	-75,820	0,045	-0,012
-689,612	286,929	0,073	-0,098
-688,597	-200,000	-0,007	-0,035
-687,583	207,611	0,089	-0,103
-686,568	220,548	0,019	-0,023
-685,554	60,671	0,118	-0,087
-684,539	-178,179	-0,073	-0,001
-683,524	-160,253	-0,136	0,005
-682,510	670,272	0,032	-0,062
-681,495	146,067	-0,070	-0,070
-680,481	39,523	-0,188	-0,125
-679,466	-36,165	-0,066	-0,026
-678,451	-200,000	-0,022	0,095
-677,437	105,804	-0,067	-0,058
-676,422	-200,000	-0,025	-0,091
-675,408	-200,000	-0,010	-0,047
-674,393	800,000	0,024	0,076
-673,378	-9,377	-0,088	-0,043
-672,364	143,140	0,145	-0,143
-671,349	63,891	0,016	-0,012
-670,335	150,459	-0,026	-0,026
-669,320	475,441	0,018	0,030
-668,305	-99,683	-0,037	-0,007
-667,291	-89,717	-0,104	0,022
-666,276	207,824	-0,040	-0,046
-665,262	-2,034	-0,072	-0,037
-664,247	800,000	0,018	0,045
-663,232	298,072	-0,049	0,067
-662,218	-98,741	0,048	-0,009
-661,203	698,345	-0,015	-0,029
-660,189	334,650	-0,099	0,142
-659,174	40,429	-0,075	0,050
-658,159	592,416	0,026	-0,048
-657,145	-69,250	0,100	-0,028
-656,130	-36,974	0,030	-0,012
-655,116	-200,000	0,012	0,042
-654,101	37,260	-0,107	0,070
-653,086	800,000	0,012	-0,028
-652,072	-200,000	0,003	-0,066
-651,057	-200,000	-0,021	-0,106
-650,043	-200,000	0,021	-0,085
-649,028	-153,561	-0,201	0,010
-648,014	-144,953	0,148	-0,010
-646,999	204,819	0,079	-0,091
-645,984	800,000	-0,048	-0,102
-644,970	534,084	-0,026	-0,046
-643,955	127,050	0,042	-0,039
-642,941	-200,000	-0,019	-0,062
-641,926	-53,900	0,032	-0,011
-640,911	477,954	-0,062	0,104
-639,897	-200,000	-0,030	0,000
-638,882	65,738	-0,070	-0,053
-637,868	-200,000	-0,020	0,092
-636,853	237,006	-0,086	-0,106
-635,838	53,024	0,062	-0,044
-634,824	-60,723	0,051	-0,016
-633,809	800,000	0,032	0,071
-632,795	-139,234	0,066	-0,005
-631,780	-200,000	0,016	0,071
-630,765	-40,037	0,022	-0,008
-629,751	97,740	-0,092	-0,079
-628,736	-200,000	0,000	0,155
-627,722	800,000	-0,054	0,138
-626,707	-200,000	-0,008	0,124
-625,692	-200,000	0,007	0,055
-624,678	-200,000	-0,013	-0,102
-623,663	-200,000	-0,020	0,177
-622,649	-41,199	-0,086	0,033
-621,634	538,073	-0,034	-0,060
-620,619	-79,792	0,047	-0,012
-619,605	95,877	0,052	-0,044
-618,590	800,000	0,031	0,071
-617,576	99,048	-0,058	0,049
-616,561	439,669	0,075	0,121
-615,546	800,000	-0,046	0,096
-614,532	-144,831	-0,082	0,005
-613,517	800,000	-0,058	-0,142
-612,503	100,177	0,040	-0,034
-611,488	800,000	-0,015	0,040
-610,474	-200,000	0,024	-0,203
-609,459	58,861	0,059	-0,043
-608,444	800,000	-0,055	-0,128
-607,430	800,000	-0,037	-0,105
-606,415	-200,000	-0,007	-0,121
-605,401	-22,555	0,049	-0,022
-604,386	22,706	0,033	0,020
-603,371	-143,069	0,054	0,004
-602,357	800,000	0,041	0,123
-601,342	-18,371	-0,107	0,049
-600,328	800,000	-0,013	-0,041
-599,313	-32,211	-0,022	-0,009
-598,298	-200,000	-0,033	0,126
-597,284	-9,522	0,158	-0,077
-596,269	63,999	-0,058	-0,043
-595,255	-200,000	0,020	-0,081
-594,240	-119,026	-0,074	-0,009
-593,225	-99,184	-0,057	-0,011
-592,211	452,451	-0,046	-0,075
-591,196	800,000	-0,059	-0,166
-590,182	54,706	-0,130	-0,093
-589,167	800,000	0,019	0,041
-588,152	-200,000	0,033	-0,124
-587,138	-20,193	-0,201	-0,091
-586,123	36,773	0,085	-0,056
-585,109	-200,000	-0,029	-0,122
-584,094	800,000	0,058	0,138
-583,079	279,553	-0,054	-0,072
-582,065	-200,000	0,045	-0,157
-581,050	800,000	0,018	0,045
-580,036	153,977	-0,086	-0,087
-579,021	-188,569	-0,116	-0,001
-578,006	68,910	0,085	-0,065
-576,992	455,809	-0,045	0,075
-575,977	-200,000	-0,025	0,112
-574,963	390,347	0,118	0,182
-573,948	-200,000	-0,004	0,055
-572,934	-53,950	-0,124	-0,041
-571,919	418,890	-0,028	-0,044
-570,904	800,000	-0,017	0,047
-569,890	-61,891	0,094	-0,029
-568,875	466,556	0,049	-0,082
-567,861	-101,573	-0,137	0,024
-566,846	-45,511	-0,095	0,035
-565,831	542,012	0,036	-0,063
-564,817	88,787	-0,048	-0,040
-563,802	613,036	0,073	-0,136
-562,788	629,121	0,069	-0,129
-561,773	246,568	0,059	-0,074
-560,758	-14,334	0,054	0,026
-559,744	48,176	0,027	0,019
-558,729	473,510	-0,046	-0,077
-557,715	-200,000	0,018	-0,232
-556,700	-80,142	-0,195	-0,048
-555,685	-48,411	-0,041	0,015
-554,671	326,037	0,051	-0,073
-553,656	168,664	-0,044	-0,046
-552,642	-200,000	0,015	0,110
-551,627	372,653	-0,022	-0,034
-550,612	106,018	0,038	0,033
-549,598	-45,264	-0,064	0,023
-548,583	117,330	-0,099	-0,090
-547,569	15,187	-0,127	0,073
-546,554	-200,000	0,000	-0,009
-545,539	272,076	-0,090	-0,118
-544,525	800,000	0,098	0,205
-543,510	127,295	0,074	0,070
-542,496	-27,747	0,082	0,035
-541,481	140,677	-0,118	-0,115
-540,466	-200,000	0,011	-0,049
-539,452	161,152	0,106	-0,110
-538,437	23,201	-0,019	0,012
-537,423	313,255	0,056	0,078
-536,408	282,592	-0,033	0,043
-535,393	-79,456	-0,151	0,037
-534,379	268,906	0,037	-0,048
-533,364	-26,707	-0,123	-0,053
-532,350	-135,753	0,125	0,011
-531,335	-46,085	0,026	0,009
-530,321	-200,000	-0,000	0,139
-529,306	-128,202	0,030	0,003
-528,291	-200,000	0,013	-0,104
-527,277	800,000	-0,052	-0,166
-526,262	195,434	0,066	-0,074
-525,248	346,045	-0,023	0,033
-524,233	-156,847	0,054	0,002
-523,218	570,140	0,070	0,126
-522,204	139,744	-0,080	0,077
-521,189	-93,142	-0,056	0,011
-520,175	-200,000	0,019	0,108
-519,160	-200,000	0,015	-0,058
-518,145	61,733	0,090	-0,066
-517,131	217,596	0,045	0,053
-516,116	-200,000	0,015	-0,063
-515,102	-200,000	-0,005	0,192
-514,087	45,290	0,060	0,041
-513,072	-15,947	-0,100	0,047
-512,058	439,958	0,061	-0,099
-511,043	-100,972	-0,106	-0,019
-510,029	528,564	-0,102	-0,177
-509,014	-103,619	0,078	0,013
-507,999	-29,587	0,183	0,077
-506,985	16,945	-0,047	0,027
-505,970	71,866	-0,094	0,072
-504,956	-200,000	-0,024	0,093
-503,941	497,906	-0,072	-0,122
-502,926	-16,715	-0,075	0,035
-501,912	15,471	-0,088	0,051
-500,897	232,606	0,031	0,038
-499,883	-11,466	-0,148	0,071
-498,868	-138,296	-0,069	0,006
-497,853	-200,000	0,009	-0,073
-496,839	379,142	-0,024	0,036
-495,824	-200,000	-0,022	0,193
-494,810	-29,270	0,136	0,057
-493,795	68,782	0,009	0,007
-492,781	-200,000	-0,015	0,064
-491,766	147,319	0,075	-0,075
-490,751	800,000	0,028	-0,066
-489,737	-1,255	0,092	0,048
-488,722	800,000	-0,023	0,065
-487,708	-200,000	-0,020	0,132
-486,693	210,664	-0,079	0,091
-485,678	351,661	0,024	-0,035
-484,664	66,861	0,045	-0,033
-483,649	122,743	-0,159	-0,147
-482,635	-200,000	-0,016	-0,070
-481,620	800,000	0,033	0,079
-480,605	-200,000	-0,001	0,060
-479,591	-200,000	-0,011	-0,039
-478,576	800,000	-0,062	0,147
-477,562	106,461	-0,011	0,010
-476,547	340,251	-0,074	0,106
-475,532	800,000	0,045	-0,129
-474,518	57,840	0,074	0,053
-473,503	-200,000	0,010	0,066
-472,489	-125,667	0,058	0,006
-471,474	58,836	-0,168	-0,122
-470,459	43,813	-0,072	-0,048
-469,445	-200,000	-0,004	-0,125
-468,430	-200,000	-0,013	-0,049
-467,416	-156,109	0,067	0,003
-466,401	193,168	0,084	0,093
-465,386	569,874	-0,023	0,042
-464,372	469,289	-0,052	-0,087
-463,357	800,000	0,021	-0,069
-462,343	136,106	-0,052	-0,049
-461,328	-56,130	0,026	0,008
-460,313	800,000	0,012	-0,030
-459,299	-102,115	0,054	0,010
-458,284	-36,689	0,030	-0,012
-457,270	800,000	0,026	-0,082
-456,255	-200,000	0,036	-0,185
-455,241	-19,789	0,083	-0,038
-454,226	800,000	-0,060	0,133
-453,211	-47,254	0,041	0,015
-452,197	-200,000	-0,011	0,082
-451,182	162,310	-0,085	0,088
-450,168	191,430	0,018	0,020
-449,153	-166,130	-0,066	-0,002
-448,138	-181,404	-0,094	-0,001
-447,124	543,248	0,017	-0,029
-446,109	132,650	0,090	0,085
-445,095	-181,127	0,088	-0,001
-444,080	800,000	-0,035	0,104
-443,065	542,448	0,049	0,087
-442,051	-100,715	0,104	-0,019
-441,036	-200,000	-0,018	-0,064
-440,022	19,581	-0,079	-0,047
-439,007	-200,000	0,011	0,209
-437,992	33,852	0,085	0,054
-436,978	-200,000	0,003	0,147
-435,963	800,000	-0,054	0,118
-434,949	161,282	-0,033	0,034
-433,934	-200,000	-0,001	-0,012
-432,919	96,680	-0,058	-0,049
-431,905	-200,000	0,015	-0,085
-430,890	36,112	0,103	0,066
-429,876	800,000	0,051	0,107
-428,861	25,763	-0,036	0,022
-427,846	-130,195	0,062	-0,006
-426,832	-200,000	0,013	0,050
-425,817	-102,514	0,071	0,012
-424,803	730,308	-0,027	-0,053
-423,788	182,816	0,149	0,162
-422,773	472,727	0,011	0,018
-421,759	127,244	0,037	0,035
-420,744	-194,486	0,064	0,000
-419,730	147,389	0,082	-0,082
-418,715	-146,000	0,036	-0,002
-417,701	-80,084	-0,105	-0,026
-416,686	800,000	0,035	0,103
-415,671	749,491	-0,027	0,053
-414,657	480,060	-0,076	0,128
-413,642	460,935	-0,047	0,077
-412,628	707,134	0,128	-0,250
-411,613	229,027	-0,038	-0,045
-410,598	101,179	-0,065	-0,056
-409,584	74,782	-0,044	0,034
-408,569	-200,000	-0,026	0,091
-407,555	325,313	0,061	-0,086
-406,540	50,299	-0,036	0,025
-405,525	-139,478	0,036	0,003
-404,511	-200,000	-0,029	-0,124
-403,496	800,000	-0,034	-0,107
-402,482	295,441	-0,022	0,030
-401,467	800,000	-0,050	0,106
-400,452	800,000	-0,022	0,051
-399,438	-6,428	-0,055	0,028
-398,423	516,015	-0,036	0,061
-397,409	-106,988	-0,062	0,010
-396,394	-42,285	-0,027	-0,010
-395,379	-200,000	0,013	-0,157
-394,365	53,722	0,051	0,036
-393,350	-200,000	0,006	0,086
-392,336	-200,000	-0,004	0,054
-391,321	800,000	-0,034	-0,110
-390,306	-200,000	0,003	0,026
-389,292	-18,746	-0,097	0,044
-388,277	51,773	0,015	0,011
-387,263	800,000	0,055	0,151
-386,248	-177,921	-0,128	0,002
-385,233	117,967	0,062	0,056
-384,219	187,371	0,052	-0,057
-383,204	6,255	-0,130	-0,070
-382,190	-71,401	0,121	0,033
-381,175	286,267	-0,112	0,149
-380,160	-39,213	0,062	0,024
-379,146	7,099	0,159	0,087
-378,131	692,111	-0,047	-0,090
-377,117	336,557	0,066	-0,095
-376,102	254,383	-0,079	-0,100
-375,088	243,239	0,024	-0,030
-374,073	150,420	-0,077	0,077
-373,058	480,920	-0,011	0,018
-372,044	-200,000	-0,015	-0,132
-371,029	-82,698	0,069	0,016
-370,015	-75,789	-0,059	-0,015
-369,000	140,999	-0,092	-0,089
-367,985	431,210	-0,060	-0,095
-366,971	-58,878	0,053	-0,017
-365,956	-200,000	-0,035	-0,140
-364,942	-59,332	0,215	0,067
-363,927	473,168	0,013	-0,021
-362,912	-200,000	0,006	0,142
-361,898	46,930	0,013	0,009
-360,883	104,425	-0,103	-0,089
-359,869	219,172	0,093	0,110
-358,854	217,528	0,087	0,102
-357,839	288,913	0,055	0,073
-356,825	-49,040	-0,139	0,049
-355,810	105,377	0,066	0,057
-354,796	124,961	-0,119	-0,110
-353,781	-200,000	0,038	-0,169
-352,766	199,959	-0,074	-0,083
-351,752	98,757	-0,052	-0,044
-350,737	-178,156	-0,059	-0,001
-349,723	11,608	0,110	0,062
-348,708	-200,000	0,016	0,056
-347,693	-76,721	0,072	0,018
-346,679	-8,360	-0,031	0,015
-345,664	-21,501	-0,181	-0,080
-344,650	619,064	-0,024	0,044
-343,635	-200,000	0,010	-0,044
-342,620	-28,510	0,067	0,028
-341,606	800,000	-0,030	0,081
-340,591	-20,728	-0,040	-0,018
-339,577	286,357	0,087	-0,115
-338,562	-200,000	-0,040	-0,157
-337,548	353,906	0,062	-0,090
-336,533	-75,266	-0,026	0,007
-335,518	800,000	0,058	0,122
-334,504	148,499	-0,034	-0,033
-333,489	772,009	0,040	0,081
-332,475	-176,573	0,043	-0,001
-331,460	-78,460	-0,082	0,020
-330,445	46,018	0,037	-0,025
-329,431	-200,000	-0,028	0,142
-328,416	120,130	0,141	0,128
-327,402	-40,225	0,040	0,015
-326,387	-135,856	-0,057	0,005
-325,372	43,746	0,165	-0,110
-324,358	656,977	0,070	0,132
-323,343	-128,959	0,011	0,001
-322,329	800,000	0,030	0,067
-321,314	156,240	0,107	0,108
-320,299	-101,447	0,009	-0,002
-319,285	-173,458	0,047	0,001
-318,270	-60,763	-0,074	-0,023
-317,256	-200,000	-0,003	0,172
-316,241	800,000	-0,033	0,078
-315,226	364,366	0,045	0,066
-314,212	235,511	0,176	0,213
-313,197	-42,244	0,077	-0,028
-312,183	181,485	0,053	0,057
-311,168	-97,425	-0,163	0,031
-310,153	46,955	0,030	0,021
-309,139	-200,000	0,018	-0,129
-308,124	720,091	-0,025	-0,049
-307,110	-128,778	0,093	0,009
-306,095	-45,752	0,131	0,047
-305,080	94,353	0,035	0,029
-304,066	-200,000	-0,038	0,146
-303,051	800,000	0,023	-0,052
-302,037	800,000	0,015	-0,047
-301,022	-54,383	0,048	-0,016
-300,008	189,898	-0,097	0,107
-298,993	233,261	0,063	-0,076
-297,978	352,295	0,027	-0,040
-296,964	800,000	0,036	-0,103
-295,949	-49,328	-0,053	-0,018
-294,935	150,862	0,042	-0,042
-293,920	-3,652	0,121	-0,061
-292,905	448,841	0,042	-0,067
-291,891	-18,344	0,052	-0,024
-290,876	-155,130	-0,136	0,006
-289,862	72,297	0,063	-0,048
-288,847	-200,000	-0,006	0,083
-287,832	800,000	-0,011	-0,030
-286,818	336,151	0,057	0,082
-285,803	-146,757	0,086	-0,005
-284,789	-200,000	0,018	0,124
-283,774	-160,843	0,122	0,005
-282,759	-85,407	0,077	0,017
-281,745	-200,000	0,003	-0,114
-280,730	-200,000	0,011	0,083
-279,716	25,993	0,037	-0,023
-278,701	198,392	-0,086	-0,096
-277,686	286,348	0,049	-0,065
-276,672	388,426	-0,011	-0,017
-275,657	800,000	-0,065	-0,139
-274,643	172,727	-0,103	-0,109
-273,628	26,713	-0,037	0,023
-272,613	-41,324	0,096	0,036
-271,599	57,862	0,049	-0,035
-270,584	114,755	-0,058	-0,052
-269,570	-160,224	-0,152	0,006
-268,555	55,704	-0,019	0,013
-267,540	-178,742	0,144	0,002
-266,526	-200,000	0,031	-0,149
-265,511	-200,000	-0,024	-0,090
-264,497	466,317	0,039	0,064
-263,482	-109,161	0,064	0,010
-262,467	800,000	-0,049	0,105
-261,453	-53,658	-0,054	0,018
-260,438	-200,000	-0,009	-0,090
-259,424	231,589	0,027	0,032
-258,409	-200,000	-0,019	0,175
-257,395	-200,000	-0,014	-0,057
-256,380	-3,064	-0,039	-0,020
-255,365	-200,000	0,015	-0,115
-254,351	94,656	-0,033	0,027
-253,336	-121,300	-0,121	-0,015
-252,322	-6,698	-0,129	-0,064
-251,307	-11,779	-0,115	-0,055
-250,292	-200,000	-0,027	-0,132
-249,278	184,626	0,149	0,161
-248,263	-200,000	-0,010	0,130
-247,249	108,606	0,049	-0,043
-246,234	-137,373	0,092	0,007
-245,219	-58,268	0,141	-0,045
-244,205	-200,000	-0,022	0,140
-243,190	529,502	-0,053	-0,093
-242,176	800,000	-0,037	-0,083
-241,161	-200,000	0,028	0,125
-240,146	-200,000	0,009	0,069
-239,132	800,000	-0,012	-0,037
-238,117	-75,426	0,040	0,010
-237,103	259,686	-0,038	0,048
-236,088	-0,043	-0,059	-0,031
-235,073	-71,083	0,080	0,022
-234,059	70,440	0,089	0,067
-233,044	-200,000	-0,004	0,053
-232,030	-23,459	-0,158	0,069
-231,015	231,389	-0,089	0,106
-230,000	251,004	0,058	0,072
-228,986	-160,201	-0,074	0,003
-227,971	134,361	-0,071	0,067
-226,957	208,138	-0,011	-0,012
-225,942	-133,782	-0,091	-0,008
-224,927	19,165	0,074	0,043
-223,913	-200,000	-0,008	-0,050
-222,898	-71,010	-0,044	-0,012
-221,884	-68,137	-0,112	-0,031
-220,869	-200,000	-0,012	0,053
-219,855	158,044	0,063	0,063
-218,840	-104,775	-0,067	0,011
-217,825	121,418	0,044	0,040
-216,811	800,000	0,088	-0,179
-215,796	800,000	0,050	-0,152
-214,782	430,759	-0,017	-0,027
-213,767	-200,000	-0,001	-0,055
-212,752	110,047	-0,019	0,016
-211,738	152,608	-0,030	-0,030
-210,723	52,258	0,056	0,039
-209,709	-200,000	-0,004	-0,090
-208,694	-200,000	0,009	-0,064
-207,679	-115,792	0,106	0,014
-206,665	800,000	-0,017	-0,041
-205,650	800,000	0,010	0,022
-204,636	-200,000	-0,025	0,137
-203,621	-81,384	-0,056	-0,013
-202,606	-200,000	-0,024	-0,154
-201,592	-66,081	0,063	0,018
-200,577	-200,000	-0,029	-0,174
-199,563	5,089	0,092	-0,049
-198,548	258,088	0,044	-0,055
-197,533	-200,000	0,017	0,071
-196,519	-62,422	0,156	-0,047
-195,504	-43,631	-0,079	0,029
-194,490	0,154	-0,109	-0,057
-193,475	376,273	0,024	0,035
-192,460	-127,260	-0,027	-0,003
-191,446	175,067	-0,021	-0,023
-190,431	136,534	0,108	0,103
-189,417	-152,410	0,055	0,003
-188,402	-8,679	0,068	0,033
-187,387	441,492	-0,051	-0,081
-186,373	718,414	-0,047	-0,092
-185,358	162,764	0,093	-0,095
-184,344	479,920	-0,053	0,088
-183,329	800,000	-0,015	0,032
-182,315	-200,000	0,016	0,055
-181,300	800,000	-0,006	0,017
-180,285	-14,117	-0,098	0,046
-179,271	-143,741	-0,037	0,003
-178,256	-200,000	-0,006	-0,068
-177,242	496,603	0,079	-0,133
-176,227	800,000	-0,026	-0,081
-175,212	-200,000	0,027	0,096
-174,198	800,000	0,031	0,086
-173,183	-200,000	0,003	-0,012
-172,169	43,035	0,061	-0,040
-171,154	130,192	-0,083	-0,077
-170,139	96,957	-0,058	-0,048
-169,125	-97,902	-0,082	-0,015
-168,110	-200,000	0,003	-0,107
-167,096	377,231	0,044	0,065
-166,081	-27,985	0,103	-0,043
-165,066	-200,000	-0,021	-0,136
-164,052	300,840	0,050	0,067
-163,037	800,000	0,022	0,051
-162,023	-162,272	-0,032	0,001
-161,008	-200,000	0,007	0,090
-159,993	-149,569	0,135	0,008
-158,979	-118,738	-0,229	-0,029
-157,964	-200,000	-0,010	0,044
-156,950	-138,368	0,085	0,007
-155,935	-200,000	0,000	-0,039
-154,920	-200,000	-0,088	0,301
-153,906	63,743	0,135	0,098
-152,891	765,012	0,018	-0,036
-151,877	-200,000	0,003	0,058
-150,862	800,000	-0,018	-0,042
-149,847	-10,447	0,047	-0,022
-148,833	-86,041	-0,121	0,027
-147,818	347,396	-0,084	-0,120
-146,804	-71,352	0,171	-0,046
-145,789	184,599	0,073	-0,079
-144,775	-200,000	-0,008	0,090
-143,760	63,727	-0,101	0,074
-142,745	518,133	0,042	-0,072
-141,731	-59,013	0,033	-0,010
-140,716	800,000	-0,084	0,179
-139,702	-200,000	0,014	0,120
-138,687	800,000	-0,044	0,110
-137,672	33,958	-0,104	-0,066
-136,658	800,000	-0,024	0,063
-135,643	90,513	0,045	-0,036
-134,629	100,408	0,014	0,012
-133,614	73,637	0,047	0,036
-132,599	637,188	0,082	0,153
-131,585	-131,730	0,090	0,008
-130,570	-41,089	0,065	-0,024
-129,556	800,000	-0,018	-0,053
-128,541	-200,000	-0,014	-0,117
-127,526	-118,543	0,063	-0,008
-126,512	800,000	0,015	0,044
-125,497	176,429	0,077	-0,081
-124,483	62,307	0,022	-0,016
-123,468	800,000	0,005	-0,014
-122,453	87,391	-0,119	-0,096
-121,439	55,326	-0,097	0,068
-120,424	800,000	-0,071	-0,145
-119,410	-32,789	0,045	0,018
-118,395	-200,000	-0,043	0,147
-117,380	-81,138	-0,103	0,024
-116,366	-111,491	0,106	0,015
-115,351	-200,000	0,004	-0,038
-114,337	-5,865	0,015	-0,008
-113,322	-140,474	-0,053	-0,004
-112,307	800,000	-0,008	-0,023
-111,293	508,397	0,009	0,016
-110,278	491,769	0,080	0,134
-109,264	-27,654	-0,100	0,042
-108,249	-200,000	0,020	-0,091
-107,234	-200,000	0,003	-0,011
-106,220	-36,444	-0,064	0,025
-105,205	-200,000	0,016	0,118
-104,191	-200,000	0,009	0,080
-103,176	661,211	0,116	0,219
-102,162	-200,000	0,000	-0,064
-101,147	16,901	0,059	-0,034
-100,132	-42,313	0,037	0,014
-99,118	794,518	-0,039	0,079
-98,103	800,000	0,038	-0,086
-97,089	-200,000	-0,025	0,137
-96,074	2,653	0,071	0,037
-95,059	22,792	0,017	-0,010
-94,045	-200,000	-0,057	0,211
-93,030	-200,000	-0,010	0,058
-92,016	-200,000	-0,006	0,128
-91,001	-200,000	0,003	0,121
-89,986	-9,233	0,048	0,023
-88,972	-137,545	-0,047	-0,004
-87,957	800,000	-0,020	0,060
-86,943	-200,000	-0,017	-0,070
-85,928	-78,633	-0,069	0,017
-84,913	-200,000	0,035	-0,132
-83,899	-24,649	-0,036	-0,016
-82,884	800,000	-0,033	0,082
-81,870	-200,000	-0,003	0,111
-80,855	299,674	-0,123	0,165
-79,840	800,000	0,040	-0,102
-78,826	-200,000	-0,006	-0,056
-77,811	338,623	-0,057	0,080
-76,797	93,095	-0,071	0,058
-75,782	-61,724	0,013	0,004
-74,767	-126,456	0,134	-0,014
-73,753	-83,379	0,036	0,008
-72,738	-83,290	-0,080	-0,018
-71,724	-200,000	0,039	-0,193
-70,709	442,680	0,094	-0,151
-69,694	83,910	-0,022	0,017
-68,680	244,100	0,034	-0,041
-67,665	122,854	-0,054	-0,049
-66,651	140,512	0,036	0,034
-65,636	-200,000	0,001	-0,046
-64,622	-200,000	-0,007	0,089
-63,607	110,625	0,038	0,033
-62,592	313,726	-0,036	-0,049
-61,578	-119,729	0,066	-0,008
-60,563	63,389	0,195	0,141
-59,549	800,000	-0,070	0,155
-58,534	-123,614	-1,592	-0,181
-57,519	580,888	-0,796	-1,421
-56,505	-200,000	-0,964	-4,411
-55,490	-80,979	0,573	-0,137
-54,476	800,000	4,930	11,722
-53,461	-200,000	14,343	253,383
-52,446	-200,000	695,925	2230,127
-51,432	567,163	1624,543	2869,418
-50,417	116,827	1631,190	1450,855
-49,403	72,856	1284,611	971,018
-48,388	37,448	1022,015	655,340
-47,373	23,658	980,707	583,582
-46,359	22,895	970,253	574,840
-45,344	21,937	965,806	569,059
-44,330	21,791	964,499	567,793
-43,315	21,716	962,941	566,609
-42,300	21,674	961,908	565,841
-41,286	21,745	960,871	565,438
-40,271	21,672	960,008	564,671
-39,257	21,677	959,021	564,086
-38,242	21,674	958,107	563,516
-37,227	21,586	957,278	562,720
-36,213	21,616	956,346	562,248
-35,198	21,623	955,490	561,744
-34,184	21,643	954,950	561,469
-33,169	21,634	953,894	560,797
-32,154	21,695	952,994	560,443
-31,140	21,644	952,304	559,849
-30,125	21,684	951,322	559,378
-29,111	21,680	950,600	558,921
-28,096	21,676	949,818	558,426
-27,082	21,676	949,322	558,111
-26,067	21,657	948,407	557,490
-25,052	21,656	947,686	557,041
-24,038	21,668	947,116	556,721
-23,023	21,682	946,424	556,340
-22,009	21,718	945,794	556,060
-20,994	21,753	944,979	555,672
-19,979	21,761	944,196	555,215
-18,965	21,734	943,762	554,851
-17,950	21,714	943,064	554,355
-16,936	21,617	942,693	553,806
-15,921	21,630	941,861	553,336
-14,906	21,591	941,036	552,705
-13,892	21,579	940,590	552,385
-12,877	21,562	939,992	551,956
-11,863	21,487	939,427	551,367
-10,848	21,515	938,874	551,109
-9,833	21,647	938,415	551,236
-8,819	21,662	937,731	550,858
-7,804	21,561	937,013	550,096
-6,790	21,573	936,584	549,861
-5,775	21,567	935,934	549,439
-4,760	21,586	935,249	549,074
-3,746	21,530	934,729	548,571
-2,731	21,377	934,012	547,644
-1,717	21,368	933,100	547,059
-0,702	21,462	932,370	546,906
0,313	21,237	931,792	546,687
1,327	24,102	929,856	554,490
2,342	33,100	793,547	497,096
3,356	30,602	450,825	278,622
4,371	0,675	295,141	152,402
5,386	-3,579	276,235	138,583
6,400	-4,796	270,542	134,580
7,415	-5,260	268,136	132,942
8,429	-5,157	267,033	132,478
9,444	-5,008	266,133	132,156
10,459	-4,911	265,403	131,871
11,473	-5,070	264,945	131,486
12,488	-4,984	264,407	131,286
13,502	-5,100	263,674	130,805
14,517	-5,174	263,424	130,602
15,531	-5,089	262,954	130,435
16,546	-5,120	262,727	130,282
17,561	-5,126	262,329	130,068
18,575	-5,155	262,079	129,907
19,590	-5,160	261,718	129,711
20,604	-4,883	261,412	129,797
21,619	-5,146	261,221	129,455
22,634	-4,938	260,463	129,253
23,648	-5,050	260,430	129,125
24,663	-5,194	260,080	128,811
25,677	-5,115	259,807	128,736
26,692	-5,135	259,640	128,623
27,707	-5,096	259,379	128,517
28,721	-5,145	259,104	128,326
29,736	-5,174	258,848	128,162
30,750	-5,307	258,680	127,948
31,765	-5,328	258,421	127,791
32,780	-5,328	258,178	127,659
33,794	-5,333	257,882	127,497
34,809	-5,338	257,687	127,385
35,823	-5,377	257,393	127,193
36,838	-5,425	257,069	126,979
37,853	-5,263	256,916	127,036
38,867	-5,230	256,800	126,997
39,882	-5,289	256,507	126,788
40,896	-5,314	256,116	126,562
41,911	-5,228	256,061	126,599
42,926	-5,323	255,893	126,420
43,940	-5,398	255,539	126,169
44,955	-5,286	255,284	126,130
45,969	-5,402	255,181	125,966
46,984	-5,495	254,781	125,676
47,999	-5,692	254,773	125,488
49,013	-5,984	254,475	125,075
50,028	-5,912	254,090	124,937
51,042	-6,051	253,966	124,744
52,057	-6,130	253,689	124,528
53,071	-6,028	253,461	124,494
54,086	-5,719	253,336	124,690
55,101	-5,681	253,112	124,602
56,115	-5,802	253,046	124,453
57,130	-5,303	252,964	124,835
58,144	-5,155	252,869	124,906
59,159	-5,115	252,551	124,772
60,174	-4,938	252,174	124,727
61,188	-5,151	252,172	124,531
62,203	-5,250	251,818	124,260
63,217	-5,311	251,741	124,158
64,232	-5,099	251,358	124,141
65,247	-5,211	251,312	124,011
66,261	-5,150	250,979	123,888
67,276	-5,251	250,680	123,642
68,290	-5,372	250,482	123,430
69,305	-5,552	250,206	123,128
70,320	-5,644	250,112	122,992
71,334	-5,188	249,961	123,297
72,349	-5,120	249,937	123,333
73,363	-5,018	249,616	123,251
74,378	-4,934	249,335	123,173
75,393	-5,041	249,091	122,950
76,407	-5,285	249,120	122,745
77,422	-5,258	248,821	122,610
78,436	-5,116	248,602	122,612
79,451	-5,180	248,395	122,444
80,466	-5,222	248,030	122,218
81,480	-5,281	247,854	122,070
82,495	-5,534	247,802	121,819
83,509	-5,186	247,590	121,999
84,524	-5,275	247,358	121,798
85,539	-5,552	247,221	121,486
86,553	-5,518	246,981	121,385
87,568	-5,438	246,732	121,320
88,582	-5,286	246,576	121,361
89,597	-5,391	246,445	121,196
90,611	-5,535	246,370	121,028
91,626	-5,172	246,292	121,285
92,641	-5,141	246,050	121,181
93,655	-5,296	245,776	120,905
94,670	-5,307	245,482	120,740
95,684	-5,498	245,354	120,506
96,699	-5,282	245,257	120,629
97,714	-5,448	244,962	120,333
98,728	-5,557	244,728	120,117
99,743	-5,616	244,511	119,950
100,757	-5,616	244,342	119,856
101,772	-5,461	244,115	119,864
102,787	-5,493	243,846	119,695
103,801	-5,392	243,892	119,790
104,816	-5,370	243,771	119,739
105,830	-5,120	243,508	119,808
106,845	-5,250	243,350	119,611
107,860	-5,311	243,111	119,432
108,874	-5,355	242,983	119,322
109,889	-5,265	242,778	119,285
110,903	-5,418	242,554	119,038
111,918	-5,385	242,461	119,009
112,933	-5,224	242,220	119,013
113,947	-5,564	242,184	118,704
114,962	-5,407	241,972	118,719
115,976	-5,240	241,745	118,735
116,991	-5,292	241,553	118,587
118,006	-5,364	241,427	118,455
119,020	-5,286	241,194	118,395
120,035	-5,263	241,124	118,368
121,049	-5,079	240,955	118,426
122,064	-5,197	240,859	118,272
123,079	-5,294	240,548	118,029
124,093	-5,509	240,270	117,705
125,108	-5,236	240,092	117,831
126,122	-5,457	239,964	117,577
127,137	-5,602	239,914	117,423
128,151	-5,633	239,529	117,199
129,166	-5,418	239,358	117,280
130,181	-5,485	239,155	117,116
131,195	-5,566	239,110	117,017
132,210	-5,526	238,934	116,954
133,224	-5,223	238,740	117,095
134,239	-5,245	238,571	116,983
135,254	-5,332	238,467	116,851
136,268	-5,424	238,286	116,678
137,283	-5,523	237,997	116,446
138,297	-5,585	237,795	116,286
139,312	-5,748	237,645	116,070
140,327	-5,370	237,565	116,327
141,341	-4,833	237,540	116,739
142,356	-4,680	237,310	116,739
143,370	-5,078	237,256	116,380
144,385	-5,117	236,965	116,196
145,400	-4,866	236,945	116,378
146,414	-4,999	236,780	116,179
147,429	-4,998	236,422	115,994
148,443	-5,049	236,279	115,873
149,458	-4,979	236,125	115,843
150,473	-5,127	236,111	115,707
151,487	-5,045	235,790	115,605
152,502	-5,184	235,680	115,430
153,516	-4,976	235,431	115,464
154,531	-5,079	235,319	115,316
155,546	-4,935	235,130	115,328
156,560	-5,066	234,939	115,120
157,575	-5,169	234,571	114,847
158,589	-5,277	234,493	114,713
159,604	-4,972	234,418	114,909
160,619	-4,851	234,257	114,916
161,633	-4,994	234,323	114,824
162,648	-4,893	233,916	114,695
163,662	-5,061	233,888	114,537
164,677	-4,978	233,660	114,481
165,692	-4,981	233,578	114,428
166,706	-5,075	233,527	114,319
167,721	-4,942	233,204	114,256
168,735	-4,774	233,019	114,288
169,750	-4,671	232,823	114,263
170,764	-4,957	232,896	114,062
171,779	-4,989	232,661	113,912
172,794	-4,904	232,483	113,882
173,808	-5,022	232,142	113,612
174,823	-5,289	232,031	113,337
175,837	-5,489	231,738	113,026
176,852	-5,267	231,752	113,198
177,867	-4,835	231,603	113,455
178,881	-4,869	231,560	113,396
179,896	-4,870	231,328	113,272
180,910	-4,966	231,263	113,155
181,925	-4,960	231,105	113,072
182,940	-4,997	231,065	113,013
183,954	-4,668	230,621	113,044
184,969	-4,805	230,694	112,962
185,983	-4,837	230,511	112,838
186,998	-4,822	230,319	112,745
188,013	-4,708	230,153	112,742
189,027	-4,898	230,021	112,520
190,042	-4,715	229,975	112,630
191,056	-4,863	229,724	112,382
192,071	-4,828	229,510	112,294
193,086	-4,786	229,477	112,301
194,100	-4,619	229,111	112,241
195,115	-5,179	228,998	111,741
196,129	-5,817	228,465	110,976
197,144	-2,535	229,615	114,079
198,159	1,868	230,942	118,168
199,173	3,762	231,327	119,832
200,188	3,856	231,172	119,815
201,202	3,886	231,051	119,765
202,217	4,038	231,068	119,881
203,232	4,169	230,943	119,908
204,246	4,551	230,585	120,008
205,261	4,563	230,459	119,941
206,275	4,534	230,503	119,931
207,290	4,492	230,418	119,843
208,304	4,470	230,158	119,681
209,319	4,470	230,051	119,614
210,334	4,418	229,737	119,400
211,348	4,113	229,595	119,079
212,363	4,021	229,319	118,855
213,377	3,952	228,997	118,624
214,392	3,560	228,998	118,311
215,407	3,788	228,850	118,400
216,421	3,698	228,680	118,232
217,436	3,863	228,491	118,251
218,450	3,493	228,252	117,832
219,465	3,350	228,148	117,658
220,480	3,584	228,027	117,765
221,494	3,558	227,950	117,695
222,509	3,657	227,920	117,745
223,523	3,690	227,604	117,596
224,538	3,685	227,394	117,474
225,553	3,653	227,429	117,457
226,567	3,903	227,245	117,543
227,582	4,091	227,076	117,588
228,596	4,300	226,978	117,687
229,611	3,806	226,822	117,218
230,626	3,608	226,536	116,909
231,640	3,464	226,446	116,742
232,655	3,976	226,282	117,037
233,669	4,498	226,280	117,423
234,684	4,471	226,054	117,274
235,699	4,037	225,857	116,833
236,713	3,833	225,681	116,576
237,728	3,732	225,495	116,393
238,742	3,736	225,236	116,252
239,757	3,787	225,061	116,190
240,772	3,876	225,015	116,224
241,786	3,504	224,960	115,903
242,801	3,838	224,832	116,079
243,815	3,880	224,816	116,092
244,830	4,240	224,542	116,212
245,844	3,857	224,326	115,802
246,859	3,988	224,193	115,821
247,874	4,022	224,218	115,849
248,888	3,982	223,956	115,673
249,903	3,931	223,875	115,583
250,917	3,631	223,651	115,232
251,932	3,993	223,529	115,430
252,947	3,771	223,339	115,156
253,961	3,757	223,113	115,018
254,976	3,770	223,168	115,046
255,990	3,985	222,948	115,083
257,005	4,014	222,708	114,971
258,020	3,893	222,781	114,907
259,034	4,125	222,748	115,054
260,049	4,002	222,356	114,749
261,063	3,962	222,278	114,669
262,078	4,188	222,188	114,781
263,093	4,139	222,106	114,691
264,107	4,156	221,736	114,503
265,122	3,714	221,789	114,192
266,136	4,162	221,709	114,473
267,151	4,212	221,514	114,399
268,166	3,828	221,169	113,926
269,180	3,666	220,982	113,700
270,195	3,569	220,881	113,566
271,209	3,341	220,760	113,325
272,224	3,661	220,628	113,484
273,239	3,670	220,522	113,426
274,253	3,686	220,262	113,293
275,268	3,543	220,154	113,122
276,282	3,548	219,914	112,993
277,297	3,481	219,819	112,885
278,312	3,612	219,757	112,938
279,326	3,769	219,599	112,963
280,341	3,594	219,595	112,822
281,355	3,948	219,368	112,956
282,370	3,709	219,291	112,731
283,384	3,618	218,875	112,440
284,399	3,338	218,797	112,185
285,414	3,400	218,720	112,181
286,428	3,786	218,650	112,417
287,443	3,757	218,596	112,358
288,457	3,911	218,476	112,399
289,472	3,888	218,151	112,205
290,487	3,311	217,901	111,645
291,501	3,423	217,868	111,700
292,516	3,400	217,720	111,598
293,530	3,569	217,603	111,650
294,545	3,175	217,650	111,379
295,560	3,261	217,479	111,343
296,574	3,567	217,250	111,438
297,589	3,537	217,066	111,312
298,603	3,737	216,982	111,405
299,618	3,849	216,812	111,388
300,633	3,863	216,677	111,320
301,647	4,053	216,783	111,501
302,662	3,979	216,584	111,335
303,676	4,014	216,363	111,238
304,691	3,905	216,293	111,113
305,706	4,047	216,055	111,083
306,720	3,884	216,029	110,942
307,735	3,870	215,760	110,784
308,749	3,415	215,706	110,419
309,764	3,669	215,436	110,453
310,779	4,266	215,266	110,785
311,793	3,838	215,301	110,486
312,808	3,672	215,135	110,272
313,822	3,684	215,051	110,227
314,837	3,805	214,755	110,153
315,852	3,713	214,595	109,994
316,866	3,776	214,465	109,964
317,881	4,042	214,412	110,117
318,895	4,031	214,340	110,062
319,910	3,827	214,100	109,784
320,925	3,539	213,877	109,454
321,939	3,248	213,581	109,085
322,954	3,518	213,582	109,269
323,968	3,783	213,652	109,483
324,983	3,842	213,511	109,443
325,997	3,989	213,378	109,470
327,012	4,080	213,108	109,386
328,027	3,893	213,013	109,195
329,041	4,188	212,959	109,367
330,056	4,188	212,940	109,348
331,070	4,038	212,585	109,049
332,085	3,614	212,296	108,591
333,100	3,523	212,348	108,544
334,114	3,904	212,146	108,700
335,129	3,868	211,980	108,580
336,143	3,622	211,798	108,303
337,158	3,481	211,800	108,195
338,173	3,681	211,468	108,157
339,187	3,463	211,525	108,023
340,202	3,259	211,305	107,757
341,216	3,430	211,072	107,749
342,231	3,599	210,991	107,816
343,246	3,552	210,904	107,730
344,260	3,640	210,705	107,680
345,275	3,581	210,698	107,626
346,289	3,679	210,684	107,678
347,304	3,918	210,449	107,716
348,319	3,619	210,350	107,445
349,333	3,638	210,096	107,320
350,348	4,036	209,991	107,534
351,362	3,776	209,972	107,333
352,377	3,818	209,927	107,330
353,392	3,813	209,655	107,178
354,406	3,815	209,577	107,130
355,421	193,575	1346,472	1432,117
356,435	154,470	1485,072	1432,223
