DTS Sentinel unit serial number:	SN410029Multiplexer serial number:	ORYXHardware model number:	OX2-SRSoftware version number:	ORYX F/W v4,00 Oryx Data Collector v3.7.2.0data status	okinstallation	B6 Nyhavnadifferential loss correction	single-endedforward channel	channel 2reverse channel	N/Adate	2023/12/09time	03:05:08forward acquisition time	300,00reverse acquisition time	0,00gamma	499,1914k internal	0,3154k external	0,3154temperature offset calibration	1,0000default loss term (dB/km)	0,3820temperature slope calibration	1,0000multiplexer offset coefficient	1,0000multiplexer slope coefficient	1,0000fibre end	0,00T internal ref (°C)	16,19T ext. ref 1 (°C)	0,04T ext. ref 2 (°C)	0,02length (m)	temperature (°C)	Stokes	anti-Stokes-744,400	-178,044	0,128	-0,002
-743,385	-70,351	-0,393	0,109
-742,371	-137,515	0,202	-0,017
-741,356	-147,260	-0,287	-0,018
-740,342	-32,615	0,073	-0,030
-739,327	-55,329	-0,233	0,077
-738,312	-200,000	-0,006	-0,023
-737,298	-183,397	-0,279	-0,003
-736,283	-153,190	0,099	0,005
-735,269	-93,800	-0,286	-0,058
-734,254	-200,000	-0,001	0,015
-733,239	-134,606	-0,559	-0,050
-732,225	-173,172	0,148	-0,003
-731,210	-126,783	-0,073	0,008
-730,196	198,523	-0,033	-0,037
-729,181	-200,000	0,001	-0,065
-728,167	-101,199	-0,179	0,032
-727,152	-200,000	0,000	0,030
-726,137	-159,137	-0,211	0,009
-725,123	-33,840	-0,111	-0,045
-724,108	800,000	-0,035	-0,099
-723,094	393,626	0,035	-0,054
-722,079	-182,792	-0,056	0,001
-721,064	-108,485	0,029	-0,005
-720,050	-55,192	0,078	-0,026
-719,035	117,725	0,030	-0,027
-718,021	-28,994	-0,148	-0,062
-717,006	441,148	-0,062	-0,100
-715,991	800,000	0,023	-0,049
-714,977	800,000	0,017	-0,042
-713,962	277,101	0,039	0,052
-712,948	528,101	-0,032	-0,055
-711,933	49,381	0,081	0,056
-710,918	800,000	0,028	0,060
-709,904	62,213	-0,008	-0,006
-708,889	-138,604	0,094	-0,007
-707,875	91,822	-0,108	-0,089
-706,860	-104,674	0,079	0,013
-705,845	-61,305	-0,102	-0,032
-704,831	656,184	0,102	0,193
-703,816	-113,389	-0,161	0,023
-702,802	-102,428	-0,203	-0,035
-701,787	800,000	0,055	-0,128
-700,772	285,153	-0,051	-0,068
-699,758	-1,384	0,057	0,029
-698,743	-200,000	0,025	-0,112
-697,729	652,926	0,044	-0,084
-696,714	404,899	-0,027	0,042
-695,699	800,000	0,030	-0,065
-694,685	188,008	0,059	-0,065
-693,670	-160,488	-0,169	0,007
-692,656	800,000	-0,019	0,040
-691,641	800,000	0,053	0,120
-690,627	85,890	-0,038	0,031
-689,612	-1,731	0,084	0,043
-688,597	23,309	0,044	0,027
-687,583	-27,616	-0,125	-0,053
-686,568	-200,000	0,015	-0,161
-685,554	163,667	-0,094	-0,098
-684,539	-200,000	-0,001	0,041
-683,524	-15,314	-0,127	0,059
-682,510	-48,196	-0,081	0,029
-681,495	-200,000	-0,011	0,061
-680,481	390,617	0,055	-0,084
-679,466	167,210	0,022	-0,023
-678,451	96,690	0,068	0,057
-677,437	-200,000	-0,005	0,021
-676,422	-37,713	-0,107	-0,042
-675,408	800,000	-0,026	0,067
-674,393	-1,705	-0,061	0,031
-673,378	20,780	-0,108	-0,064
-672,364	235,093	0,065	-0,079
-671,349	-200,000	0,003	-0,121
-670,335	214,701	0,055	0,065
-669,320	800,000	0,025	0,074
-668,305	62,995	0,079	-0,058
-667,291	123,728	-0,043	0,040
-666,276	-130,093	-0,091	-0,009
-665,262	-88,372	-0,074	0,016
-664,247	-200,000	-0,009	-0,066
-663,232	-49,453	0,049	-0,017
-662,218	372,859	0,045	-0,067
-661,203	800,000	-0,038	0,109
-660,189	-200,000	-0,012	-0,048
-659,174	-200,000	-0,036	-0,141
-658,159	0,599	-0,115	-0,061
-657,145	800,000	-0,063	-0,131
-656,130	-200,000	-0,001	-0,062
-655,116	281,649	0,109	0,144
-654,101	-128,667	0,096	0,010
-653,086	477,519	-0,023	-0,039
-652,072	800,000	-0,062	0,131
-651,057	-195,440	-0,109	-0,001
-650,043	800,000	-0,100	-0,214
-649,028	800,000	-0,048	-0,121
-648,014	735,390	-0,040	-0,078
-646,999	-115,716	0,100	-0,014
-645,984	105,028	-0,112	0,097
-644,970	-91,936	-0,127	-0,026
-643,955	-123,646	-0,096	0,011
-642,941	800,000	-0,028	0,063
-641,926	-67,115	-0,083	-0,024
-640,911	800,000	-0,029	-0,088
-639,897	800,000	-0,005	0,013
-638,882	61,982	-0,017	-0,013
-637,868	-200,000	-0,012	-0,089
-636,853	-165,438	-0,070	-0,002
-635,838	-145,895	-0,028	0,002
-634,824	-35,842	0,040	-0,016
-633,809	-88,477	0,030	-0,007
-632,795	772,282	0,038	0,077
-631,780	800,000	0,032	-0,071
-630,765	-200,000	-0,007	-0,083
-629,751	-200,000	0,021	-0,199
-628,736	-16,784	0,054	-0,025
-627,722	201,951	-0,075	-0,085
-626,707	250,006	0,071	0,089
-625,692	117,779	0,057	0,051
-624,678	99,760	0,045	-0,038
-623,663	112,109	0,071	0,063
-622,649	-145,850	0,102	0,007
-621,634	400,154	-0,132	-0,205
-620,619	169,342	0,111	-0,117
-619,605	-50,765	-0,044	-0,015
-618,590	27,457	0,181	0,111
-617,576	-92,461	-0,201	0,041
-616,561	362,549	0,027	-0,039
-615,546	32,595	-0,130	0,082
-614,532	-200,000	-0,043	-0,181
-613,517	686,579	-0,058	0,113
-612,503	663,005	-0,012	0,024
-611,488	-128,002	0,138	-0,014
-610,474	-200,000	0,006	0,024
-609,459	84,824	-0,044	-0,035
-608,444	421,219	-0,040	0,063
-607,430	-111,871	0,072	0,011
-606,415	-51,262	0,034	-0,012
-605,401	800,000	0,044	-0,103
-604,386	211,764	-0,011	0,013
-603,371	114,703	0,074	-0,066
-602,357	-165,231	0,083	-0,003
-601,342	-43,757	-0,052	-0,019
-600,328	176,200	0,002	-0,002
-599,313	20,471	0,054	0,032
-598,298	-200,000	-0,020	0,099
-597,284	56,533	0,102	-0,073
-596,269	101,505	-0,133	0,113
-595,255	-200,000	0,009	-0,053
-594,240	-22,179	-0,094	0,042
-593,225	298,756	-0,073	0,099
-592,211	-95,932	-0,184	-0,036
-591,196	800,000	0,031	-0,083
-590,182	-200,000	-0,019	-0,129
-589,167	549,768	0,008	-0,014
-588,152	51,305	0,099	0,069
-587,138	37,407	-0,072	-0,047
-586,123	61,710	-0,049	0,036
-585,109	-50,722	-0,060	-0,020
-584,094	800,000	0,043	0,102
-583,079	-10,827	0,048	0,023
-582,065	-200,000	0,000	0,088
-581,050	-19,934	-0,050	0,022
-580,036	800,000	0,007	-0,022
-579,021	-116,621	-0,137	0,018
-578,006	157,625	-0,129	-0,131
-576,992	54,485	-0,201	-0,142
-575,977	-80,112	0,114	-0,028
-574,963	800,000	-0,026	0,076
-573,948	15,099	-0,113	0,065
-572,934	-60,520	-0,031	-0,010
-571,919	-200,000	0,023	-0,101
-570,904	719,275	0,022	-0,043
-569,890	800,000	-0,049	-0,148
-568,875	-200,000	-0,011	-0,108
-567,861	-200,000	0,023	-0,095
-566,846	-56,022	-0,048	0,016
-565,831	-44,130	-0,099	0,036
-564,817	-49,316	0,065	-0,023
-563,802	534,389	-0,038	-0,067
-562,788	-200,000	0,069	-0,228
-561,773	112,305	-0,080	0,071
-560,758	-156,537	0,085	-0,004
-559,744	-64,071	0,143	-0,042
-558,729	234,570	0,077	-0,094
-557,715	800,000	-0,036	-0,099
-556,700	640,949	-0,021	0,039
-555,685	-48,112	-0,054	-0,019
-554,671	-120,193	0,052	-0,006
-553,656	-37,083	0,051	0,020
-552,642	20,994	-0,040	-0,024
-551,627	-200,000	-0,004	0,059
-550,612	115,507	-0,104	0,093
-549,598	-200,000	-0,012	-0,165
-548,583	497,830	0,058	0,099
-547,569	-15,375	0,060	-0,028
-546,554	-200,000	-0,018	0,115
-545,539	-83,327	-0,036	-0,008
-544,525	800,000	0,006	-0,014
-543,510	-200,000	-0,038	-0,158
-542,496	516,104	-0,048	0,082
-541,481	-40,771	-0,045	-0,017
-540,466	10,747	0,098	0,055
-539,452	-130,395	-0,096	0,009
-538,437	800,000	0,030	0,068
-537,423	-59,317	-0,085	0,027
-536,408	800,000	-0,029	0,082
-535,393	18,512	-0,129	-0,076
-534,379	-200,000	-0,012	-0,087
-533,364	800,000	0,001	-0,002
-532,350	608,087	-0,033	-0,061
-531,335	-177,650	-0,033	-0,001
-530,321	-200,000	0,001	-0,028
-529,306	372,845	-0,001	-0,002
-528,291	-200,000	-0,013	-0,134
-527,277	116,705	-0,036	-0,032
-526,262	140,588	0,130	0,126
-525,248	-200,000	0,017	-0,067
-524,233	91,196	-0,002	-0,002
-523,218	-107,782	-0,063	0,010
-522,204	-40,208	0,093	0,035
-521,189	327,836	0,049	0,069
-520,175	486,769	-0,055	-0,092
-519,160	55,779	0,048	-0,034
-518,145	-128,561	-0,095	0,010
-517,131	-115,792	-0,040	0,005
-516,116	193,278	-0,048	0,054
-515,102	800,000	-0,058	0,135
-514,087	-139,460	0,033	0,003
-513,072	195,216	0,039	-0,043
-512,058	15,648	-0,089	-0,051
-511,043	-200,000	0,183	0,000
-510,029	-72,847	0,115	-0,031
-509,014	-200,000	-0,017	0,090
-507,999	249,599	-0,021	0,026
-506,985	800,000	-0,061	-0,139
-505,970	-43,350	-0,092	0,034
-504,956	800,000	0,074	-0,156
-503,941	-78,787	0,053	0,013
-502,926	90,189	0,120	0,098
-501,912	800,000	0,047	0,107
-500,897	-105,562	-0,101	0,017
-499,883	195,608	0,031	-0,035
-498,868	-79,469	0,042	0,010
-497,853	60,405	-0,088	-0,064
-496,839	-55,892	0,125	-0,040
-495,824	42,939	0,080	-0,053
-494,810	-102,105	0,103	0,018
-493,795	386,298	-0,035	0,053
-492,781	800,000	0,036	-0,109
-491,766	203,988	-0,037	-0,042
-490,751	269,878	0,048	-0,062
-489,737	210,675	0,018	0,021
-488,722	-47,610	0,124	-0,044
-487,708	800,000	0,028	-0,089
-486,693	128,510	-0,149	0,139
-485,678	-147,865	-0,177	-0,011
-484,664	-166,412	-0,026	-0,001
-483,649	-35,404	0,096	-0,038
-482,635	84,101	-0,078	0,062
-481,620	265,464	0,059	0,076
-480,605	-200,000	0,005	0,040
-479,591	28,103	-0,097	0,060
-478,576	98,678	0,053	0,045
-477,562	-57,747	-0,068	-0,022
-476,547	800,000	0,006	0,016
-475,532	101,753	0,064	-0,055
-474,518	-91,700	0,119	-0,024
-473,503	-200,000	-0,017	0,066
-472,489	3,113	-0,097	-0,051
-471,474	-200,000	-0,026	0,084
-470,459	-200,000	-0,012	-0,050
-469,445	-200,000	-0,003	-0,061
-468,430	800,000	-0,025	0,069
-467,416	661,230	-0,049	0,093
-466,401	800,000	0,071	0,147
-465,386	-130,911	-0,169	0,016
-464,372	-11,651	-0,104	0,050
-463,357	-200,000	0,002	-0,065
-462,343	783,084	0,026	-0,052
-461,328	-64,526	0,103	0,030
-460,313	-200,000	-0,020	0,067
-459,299	-27,262	0,009	0,004
-458,284	-30,493	0,048	-0,020
-457,270	-74,047	-0,032	-0,008
-456,255	266,333	0,043	-0,055
-455,241	384,375	0,014	-0,020
-454,226	-104,689	0,080	0,013
-453,211	98,680	0,090	0,076
-452,197	79,406	0,160	-0,125
-451,182	-200,000	-0,004	-0,071
-450,168	381,048	-0,012	0,019
-449,153	335,863	-0,063	-0,089
-448,138	5,055	-0,170	-0,091
-447,124	-200,000	0,004	0,026
-446,109	-200,000	0,002	0,133
-445,095	-45,132	0,099	0,036
-444,080	-200,000	-0,043	0,248
-443,065	-117,758	0,084	-0,011
-442,051	116,555	-0,073	-0,066
-441,036	-200,000	0,014	0,061
-440,022	-200,000	0,056	-0,182
-439,007	-11,767	0,077	-0,037
-437,992	-179,582	0,148	-0,002
-436,978	157,924	-0,058	0,059
-435,963	800,000	-0,029	-0,073
-434,949	147,653	-0,065	-0,064
-433,934	-130,887	-0,042	0,004
-432,919	800,000	-0,075	-0,209
-431,905	255,642	-0,068	-0,085
-430,890	-8,403	-0,027	-0,013
-429,876	209,535	0,060	0,068
-428,861	275,861	0,071	0,092
-427,846	800,000	-0,030	0,077
-426,832	-200,000	0,014	0,094
-425,817	-71,448	-0,122	-0,033
-424,803	800,000	0,050	-0,121
-423,788	-200,000	-0,052	-0,184
-422,773	-35,518	0,139	0,055
-421,759	30,016	0,112	0,069
-420,744	-200,000	-0,012	-0,074
-419,730	514,785	-0,072	-0,123
-418,715	-93,591	-0,065	0,013
-417,701	-14,877	0,080	0,037
-416,686	800,000	0,037	0,117
-415,671	179,436	0,063	-0,067
-414,657	800,000	-0,077	0,158
-413,642	-200,000	-0,007	-0,156
-412,628	-30,905	-0,151	0,062
-411,613	-158,181	-0,100	0,004
-410,598	712,130	0,058	0,113
-409,584	-113,166	-0,095	0,013
-408,569	-200,000	0,026	0,209
-407,555	81,325	-0,059	-0,046
-406,540	-92,325	0,058	-0,012
-405,525	-107,605	-0,206	0,032
-404,511	46,787	0,052	-0,035
-403,496	71,502	0,170	-0,128
-402,482	800,000	0,036	-0,087
-401,467	118,652	-0,040	-0,036
-400,452	344,902	-0,077	0,110
-399,438	76,749	-0,058	-0,045
-398,423	59,564	-0,086	-0,061
-397,409	-200,000	-0,026	-0,115
-396,394	-92,462	0,134	-0,027
-395,379	-200,000	-0,014	0,089
-394,365	395,769	0,102	0,155
-393,350	101,586	0,076	-0,065
-392,336	-33,418	0,084	-0,034
-391,321	102,553	0,097	-0,083
-390,306	-200,000	-0,006	-0,050
-389,292	-93,405	-0,169	-0,034
-388,277	-200,000	-0,007	-0,070
-387,263	800,000	0,019	-0,049
-386,248	-200,000	0,017	0,057
-385,233	274,455	0,053	-0,068
-384,219	104,461	-0,137	-0,118
-383,204	720,811	0,027	-0,052
-382,190	34,992	-0,021	0,013
-381,175	427,679	0,096	0,151
-380,160	-200,000	0,035	0,121
-379,146	63,872	0,088	0,064
-378,131	800,000	0,051	-0,117
-377,117	800,000	-0,012	0,027
-376,102	201,384	0,027	-0,031
-375,088	105,891	-0,026	0,022
-374,073	-200,000	0,012	-0,088
-373,058	153,964	-0,076	0,076
-372,044	-67,861	0,129	0,036
-371,029	266,360	0,049	0,063
-370,015	-200,000	0,007	-0,082
-369,000	75,479	-0,176	-0,135
-367,985	800,000	-0,019	-0,045
-366,971	84,612	-0,085	-0,068
-365,956	-26,802	0,039	-0,016
-364,942	-200,000	-0,005	0,041
-363,927	-200,000	-0,027	0,091
-362,912	-200,000	-0,016	0,073
-361,898	221,847	-0,083	-0,097
-360,883	800,000	-0,076	-0,165
-359,869	-15,166	-0,061	0,028
-358,854	517,332	0,028	0,048
-357,839	-200,000	0,005	-0,042
-356,825	-141,342	-0,074	0,005
-355,810	-135,116	0,096	0,008
-354,796	0,137	0,095	0,049
-353,781	-19,388	-0,043	0,020
-352,766	-68,521	-0,072	0,020
-351,752	123,069	0,035	0,032
-350,737	-124,289	0,055	0,006
-349,723	-41,069	0,206	0,077
-348,708	800,000	0,052	0,119
-347,693	100,124	-0,058	-0,049
-346,679	223,778	-0,067	-0,079
-345,664	-200,000	0,012	0,125
-344,650	800,000	0,027	0,063
-343,635	-200,000	-0,017	-0,122
-342,620	348,718	-0,015	-0,021
-341,606	101,353	-0,038	-0,032
-340,591	800,000	-0,019	0,041
-339,577	153,158	-0,043	-0,043
-338,562	229,075	-0,058	0,069
-337,548	800,000	0,034	0,078
-336,533	389,279	0,040	0,060
-335,518	477,345	-0,040	-0,066
-334,504	-200,000	0,002	0,153
-333,489	272,438	-0,075	0,097
-332,475	800,000	0,034	-0,106
-331,460	47,286	-0,079	0,053
-330,445	228,483	0,123	0,146
-329,431	-48,660	0,020	-0,007
-328,416	-7,095	0,045	-0,022
-327,402	-200,000	0,008	0,152
-326,387	25,043	0,081	0,049
-325,372	28,889	-0,038	0,024
-324,358	-200,000	-0,064	-0,208
-323,343	800,000	0,049	-0,122
-322,329	800,000	-0,042	0,109
-321,314	-200,000	0,011	0,093
-320,299	800,000	0,052	0,139
-319,285	443,099	0,051	0,081
-318,270	-99,097	-0,097	-0,018
-317,256	-92,416	0,086	0,017
-316,241	197,057	-0,102	-0,113
-315,226	-126,181	0,147	-0,016
-314,212	-200,000	0,011	0,047
-313,197	-200,000	-0,013	0,084
-312,183	429,240	0,064	0,101
-311,168	-108,167	-0,068	-0,011
-310,153	35,717	-0,117	-0,074
-309,139	439,433	0,009	0,014
-308,124	-54,480	0,116	0,038
-307,110	196,237	-0,045	0,050
-306,095	-0,968	-0,035	-0,018
-305,080	-200,000	0,026	0,145
-304,066	-129,107	-0,113	-0,011
-303,051	253,057	-0,042	0,052
-302,037	376,962	0,031	0,046
-301,022	-200,000	-0,014	0,052
-300,008	-200,000	0,006	0,050
-298,993	330,660	0,048	0,067
-297,978	800,000	-0,017	0,039
-296,964	-4,231	-0,028	-0,014
-295,949	-115,509	0,110	0,015
-294,935	64,249	-0,106	-0,077
-293,920	-200,000	0,018	-0,061
-292,905	-200,000	0,025	0,129
-291,891	-200,000	0,002	0,205
-290,876	555,527	-0,022	0,038
-289,862	691,690	0,007	-0,013
-288,847	-200,000	0,049	-0,160
-287,832	19,550	-0,202	0,117
-286,818	-200,000	-0,019	-0,070
-285,803	105,498	0,015	0,013
-284,789	553,723	0,089	0,156
-283,774	322,628	-0,092	-0,128
-282,759	-200,000	0,013	0,066
-281,745	186,606	-0,059	0,063
-280,730	127,933	-0,058	0,053
-279,716	-200,000	-0,027	-0,109
-278,701	719,202	-0,052	0,101
-277,686	-200,000	0,012	0,082
-276,672	-63,456	0,059	0,018
-275,657	800,000	0,002	0,006
-274,643	800,000	-0,053	-0,131
-273,628	800,000	0,043	-0,111
-272,613	-109,796	0,035	-0,005
-271,599	330,991	0,095	-0,132
-270,584	-43,565	0,076	-0,028
-269,570	-200,000	-0,010	0,135
-268,555	-200,000	-0,009	-0,040
-267,540	222,700	-0,010	-0,012
-266,526	303,181	0,024	-0,032
-265,511	-200,000	-0,005	-0,067
-264,497	52,009	0,081	0,055
-263,482	-99,664	-0,046	0,008
-262,467	-69,721	0,048	0,013
-261,453	-20,574	0,076	0,034
-260,438	-119,166	-0,205	-0,026
-259,424	-98,632	0,067	-0,012
-258,409	186,124	0,064	-0,069
-257,395	472,630	0,068	0,111
-256,380	163,706	-0,028	0,029
-255,365	132,337	0,114	0,107
-254,351	179,871	0,067	-0,072
-253,336	72,109	-0,043	0,032
-252,322	-8,382	0,103	0,050
-251,307	800,000	0,056	-0,126
-250,292	605,402	0,058	-0,105
-249,278	191,567	0,060	-0,066
-248,263	-104,056	-0,097	0,016
-247,249	-200,000	0,014	0,074
-246,234	485,122	-0,073	-0,121
-245,219	446,614	-0,033	-0,053
-244,205	122,290	0,120	0,108
-243,190	-200,000	-0,002	0,111
-242,176	786,299	0,052	0,103
-241,161	130,715	0,065	0,061
-240,146	132,972	0,131	0,122
-239,132	95,422	-0,064	0,053
-238,117	-200,000	0,012	-0,083
-237,103	132,196	0,013	0,012
-236,088	351,776	0,067	-0,096
-235,073	-200,000	-0,020	-0,088
-234,059	404,201	0,076	0,116
-233,044	145,328	-0,032	0,031
-232,030	193,982	0,041	-0,045
-231,015	-113,106	-0,098	-0,014
-230,000	201,988	0,088	0,098
-228,986	-23,157	-0,017	-0,007
-227,971	-160,751	0,077	0,003
-226,957	-27,669	0,081	0,034
-225,942	263,678	-0,114	-0,143
-224,927	393,896	-0,032	0,048
-223,913	1,710	0,062	-0,032
-222,898	572,248	-0,053	-0,093
-221,884	-200,000	-0,003	0,058
-220,869	600,343	0,029	-0,053
-219,855	-94,862	0,051	-0,010
-218,840	74,078	-0,034	-0,026
-217,825	-10,800	-0,098	0,047
-216,811	-179,879	0,041	0,001
-215,796	-200,000	-0,019	-0,070
-214,782	18,164	0,093	0,054
-213,767	-159,919	0,102	0,004
-212,752	-200,000	0,010	0,124
-211,738	223,212	-0,114	0,133
-210,723	-200,000	-0,022	0,132
-209,709	800,000	-0,032	-0,093
-208,694	89,773	0,083	0,067
-207,679	-200,000	-0,020	-0,146
-206,665	17,280	0,098	0,056
-205,650	125,143	-0,048	0,044
-204,636	-200,000	0,040	0,200
-203,621	-9,523	0,089	0,043
-202,606	137,054	-0,113	-0,107
-201,592	-200,000	0,002	-0,035
-200,577	-133,084	0,049	0,004
-199,563	-200,000	-0,015	-0,103
-198,548	103,053	-0,032	-0,027
-197,533	-200,000	0,014	0,074
-196,519	172,342	0,165	0,172
-195,504	-55,626	0,093	0,030
-194,490	191,667	0,081	0,089
-193,475	240,507	0,020	-0,024
-192,460	-112,053	0,132	0,019
-191,446	-200,000	-0,006	0,038
-190,431	189,730	-0,049	0,054
-189,417	-113,921	-0,038	-0,005
-188,402	222,970	0,058	-0,068
-187,387	-200,000	-0,009	0,046
-186,373	-144,505	-0,043	-0,003
-185,358	800,000	-0,005	0,013
-184,344	265,049	0,051	-0,064
-183,329	67,586	0,003	-0,002
-182,315	-200,000	0,001	-0,011
-181,300	171,307	-0,097	0,101
-180,285	-60,943	-0,078	0,024
-179,271	800,000	0,014	0,038
-178,256	-200,000	-0,010	-0,056
-177,242	-138,295	0,162	0,013
-176,227	800,000	-0,030	-0,084
-175,212	-191,200	0,115	0,001
-174,198	-200,000	0,034	0,119
-173,183	435,274	-0,068	-0,108
-172,169	-109,918	-0,153	0,023
-171,154	214,253	-0,050	0,058
-170,139	170,158	-0,008	-0,008
-169,125	53,587	-0,051	-0,035
-168,110	-140,856	-0,119	0,009
-167,096	-44,565	-0,039	-0,014
-166,081	330,559	0,041	0,057
-165,066	800,000	0,018	-0,055
-164,052	1,430	0,089	0,046
-163,037	29,171	-0,038	-0,023
-162,023	800,000	-0,019	-0,059
-161,008	800,000	-0,030	0,089
-159,993	114,916	0,051	0,045
-158,979	403,577	-0,052	-0,079
-157,964	-200,000	0,008	-0,189
-156,950	169,111	-0,082	-0,084
-155,935	-11,088	0,112	0,053
-154,920	-102,976	-0,100	-0,017
-153,906	-200,000	-0,015	0,115
-152,891	475,973	0,033	-0,054
-151,877	365,517	-0,022	-0,032
-150,862	774,772	-0,021	0,041
-149,847	219,358	0,075	0,087
-148,833	-26,640	0,048	0,020
-147,818	-200,000	0,036	0,211
-146,804	800,000	0,027	0,082
-145,789	-200,000	-0,004	0,036
-144,775	67,458	-0,046	-0,034
-143,760	101,197	0,069	-0,058
-142,745	-200,000	-0,011	-0,039
-141,731	-200,000	0,031	-0,117
-140,716	71,137	0,065	0,049
-139,702	-183,373	-0,047	-0,001
-138,687	-200,000	-0,011	-0,041
-137,672	-200,000	-0,028	0,091
-136,658	136,320	-0,069	0,064
-135,643	-114,999	0,142	-0,019
-134,629	-200,000	-0,015	-0,142
-133,614	-200,000	-0,030	0,140
-132,599	445,096	0,112	0,178
-131,585	-160,039	0,116	-0,004
-130,570	142,906	-0,011	-0,010
-129,556	50,620	-0,104	0,071
-128,541	800,000	-0,040	-0,116
-127,526	334,686	-0,011	0,015
-126,512	-28,763	0,102	-0,042
-125,497	-86,759	-0,071	0,015
-124,483	188,143	0,050	0,054
-123,468	-180,311	0,093	0,001
-122,453	406,134	-0,042	0,065
-121,439	-74,715	-0,083	0,021
-120,424	-146,587	-0,209	-0,013
-119,410	426,538	0,064	0,100
-118,395	-200,000	-0,019	-0,097
-117,380	-70,337	-0,031	0,008
-116,366	484,747	-0,058	-0,095
-115,351	-131,546	0,103	-0,010
-114,337	358,706	-0,087	-0,126
-113,322	-200,000	0,022	-0,092
-112,307	-200,000	-0,008	0,045
-111,293	-14,318	-0,015	0,007
-110,278	-118,098	-0,031	0,004
-109,264	-200,000	0,034	-0,161
-108,249	19,246	-0,083	-0,048
-107,234	-200,000	0,016	-0,095
-106,220	-97,937	-0,054	0,010
-105,205	800,000	-0,026	-0,068
-104,191	800,000	0,020	0,059
-103,176	-200,000	0,004	0,067
-102,162	91,425	-0,119	0,096
-101,147	15,287	-0,015	0,008
-100,132	-200,000	0,010	0,045
-99,118	-200,000	0,004	0,110
-98,103	270,407	-0,045	-0,058
-97,089	-140,680	0,176	0,013
-96,074	56,443	0,209	-0,146
-95,059	-52,514	-0,068	0,023
-94,045	-200,000	-0,007	0,029
-93,030	-200,000	0,019	-0,081
-92,016	-175,014	0,020	0,000
-91,001	-42,586	-0,031	-0,011
-89,986	659,759	0,051	0,096
-88,972	800,000	0,064	0,139
-87,957	-32,613	0,023	-0,009
-86,943	-5,406	0,061	0,030
-85,928	475,736	-0,057	-0,092
-84,913	94,247	-0,086	0,070
-83,899	47,169	0,060	-0,040
-82,884	597,147	0,052	0,093
-81,870	13,940	-0,070	0,039
-80,855	800,000	0,014	0,030
-79,840	-200,000	0,020	0,104
-78,826	14,861	0,116	0,065
-77,811	800,000	-0,028	-0,074
-76,797	171,106	0,075	-0,077
-75,782	-200,000	0,008	0,178
-74,767	-83,427	0,191	0,044
-73,753	99,257	-0,077	0,064
-72,738	195,112	0,046	0,050
-71,724	197,590	-0,040	0,044
-70,709	-200,000	-0,025	0,147
-69,694	-13,599	-0,064	0,030
-68,680	738,822	0,013	0,025
-67,665	24,320	0,080	0,048
-66,651	-200,000	0,009	-0,058
-65,636	-77,560	0,038	0,009
-64,622	-200,000	-0,013	-0,078
-63,607	414,982	0,028	-0,044
-62,592	253,996	0,038	0,046
-61,578	290,509	-0,050	0,065
-60,563	162,702	0,099	0,100
-59,549	-200,000	-0,002	-0,013
-58,534	5,111	-1,881	-0,992
-57,519	800,000	-0,309	-0,689
-56,505	-200,000	-1,300	-4,901
-55,490	-43,585	0,732	0,264
-54,476	800,000	5,457	12,375
-53,461	-200,000	17,259	276,093
-52,446	800,000	719,204	2191,639
-51,432	529,889	1632,822	2781,607
-50,417	111,897	1626,778	1411,236
-49,403	75,501	1286,225	974,528
-48,388	32,980	1031,411	640,506
-47,373	20,077	993,510	574,229
-46,359	18,759	981,814	563,100
-45,344	16,444	977,931	553,236
-44,330	16,666	976,086	552,900
-43,315	16,235	974,397	550,508
-42,300	16,155	973,637	549,794
-41,286	16,221	972,360	549,266
-40,271	16,199	971,329	548,592
-39,257	16,309	970,437	548,426
-38,242	16,259	969,735	547,845
-37,227	16,281	968,764	547,344
-36,213	16,241	968,081	546,806
-35,198	16,180	967,200	546,090
-34,184	16,240	966,388	545,805
-33,169	16,160	965,636	545,098
-32,154	16,196	964,760	544,698
-31,140	16,190	963,640	544,025
-30,125	16,245	962,702	543,652
-29,111	16,256	962,011	543,275
-28,096	16,233	961,521	542,904
-27,082	16,154	960,784	542,211
-26,067	16,208	960,058	541,954
-25,052	16,255	959,163	541,576
-24,038	16,217	958,392	541,000
-23,023	16,229	957,787	540,675
-22,009	16,262	957,109	540,377
-20,994	16,247	956,499	539,960
-19,979	16,237	956,067	539,665
-18,965	16,233	955,278	539,184
-17,950	16,231	954,810	538,894
-16,936	16,198	954,235	538,439
-15,921	16,187	953,307	537,862
-14,906	16,067	952,747	537,138
-13,892	16,032	952,103	536,643
-12,877	16,101	951,381	536,435
-11,863	16,047	950,896	535,969
-10,848	16,105	950,193	535,735
-9,833	16,119	949,892	535,588
-8,819	16,189	949,021	535,299
-7,804	16,151	948,360	534,784
-6,790	16,123	947,793	534,353
-5,775	16,134	947,215	534,041
-4,760	16,133	946,657	533,703
-3,746	16,118	945,929	533,225
-2,731	15,983	945,239	532,385
-1,717	15,931	944,686	531,889
-0,702	15,935	944,030	531,510
0,313	15,730	943,591	531,413
1,327	19,170	941,513	541,088
2,342	28,407	796,014	481,994
3,356	25,351	448,260	266,840
4,371	-4,113	296,491	146,945
5,386	-8,362	278,064	133,758
6,400	-9,549	272,282	129,857
7,415	-9,778	269,829	128,464
8,429	-9,799	268,575	127,837
9,444	-9,978	267,896	127,338
10,459	-9,995	267,223	126,991
11,473	-10,110	266,493	126,528
12,488	-9,982	265,894	126,349
13,502	-10,302	265,246	125,738
14,517	-10,279	264,980	125,622
15,531	-10,254	264,571	125,440
16,546	-10,357	264,276	125,196
17,561	-10,304	263,761	124,988
18,575	-10,263	263,410	124,848
19,590	-10,414	263,183	124,593
20,604	-10,344	262,873	124,498
21,619	-10,520	262,523	124,163
22,634	-10,279	262,035	124,138
23,648	-10,276	261,699	123,970
24,663	-10,252	261,602	123,934
25,677	-10,350	261,354	123,718
26,692	-10,324	260,974	123,551
27,707	-10,350	260,785	123,427
28,721	-10,488	260,506	123,160
29,736	-10,436	260,209	123,056
30,750	-10,429	259,996	122,950
31,765	-10,456	259,797	122,821
32,780	-10,280	259,539	122,844
33,794	-10,422	259,276	122,583
34,809	-10,483	259,012	122,394
35,823	-10,533	258,837	122,256
36,838	-10,562	258,544	122,080
37,853	-10,773	258,441	121,834
38,867	-10,443	257,977	121,896
39,882	-10,552	257,802	121,707
40,896	-10,631	257,647	121,553
41,911	-10,475	257,187	121,462
42,926	-10,605	256,977	121,238
43,940	-10,635	256,885	121,158
44,955	-10,574	256,610	121,071
45,969	-10,688	256,404	120,863
46,984	-10,942	256,207	120,536
47,999	-11,231	255,893	120,125
49,013	-11,282	255,728	119,993
50,028	-11,436	255,401	119,694
51,042	-11,458	255,142	119,543
52,057	-11,608	254,798	119,241
53,071	-11,388	254,544	119,303
54,086	-11,387	254,518	119,281
55,101	-11,233	254,445	119,369
56,115	-10,860	254,184	119,560
57,130	-10,396	254,259	119,987
58,144	-10,134	254,051	120,105
59,159	-10,159	253,797	119,953
60,174	-10,280	253,611	119,750
61,188	-10,249	253,279	119,609
62,203	-10,423	253,138	119,381
63,217	-10,293	252,857	119,350
64,232	-10,215	252,606	119,289
65,247	-10,323	252,470	119,120
66,261	-10,325	252,369	119,061
67,276	-10,565	251,844	118,596
68,290	-11,051	251,684	118,094
69,305	-10,896	251,429	118,097
70,320	-10,879	251,228	118,006
71,334	-10,828	251,164	118,009
72,349	-10,480	251,128	118,279
73,363	-10,033	250,828	118,509
74,378	-10,129	250,440	118,234
75,393	-10,093	250,203	118,141
76,407	-10,396	250,035	117,794
77,422	-10,364	249,961	117,776
78,436	-10,561	249,791	117,518
79,451	-10,414	249,554	117,520
80,466	-10,585	249,340	117,264
81,480	-10,555	248,970	117,105
82,495	-10,634	248,727	116,914
83,509	-10,777	248,643	116,742
84,524	-10,713	248,287	116,619
85,539	-10,980	248,356	116,415
86,553	-10,990	248,028	116,243
87,568	-10,694	247,698	116,327
88,582	-10,922	247,604	116,081
89,597	-10,819	247,451	116,085
90,611	-10,651	247,397	116,191
91,626	-10,403	247,200	116,296
92,641	-10,455	247,023	116,159
93,655	-10,437	246,774	116,047
94,670	-10,497	246,516	115,865
95,684	-10,932	246,524	115,494
96,699	-10,620	246,160	115,574
97,714	-10,802	246,074	115,371
98,728	-10,695	245,756	115,301
99,743	-10,796	245,478	115,076
100,757	-10,848	245,351	114,963
101,772	-10,970	245,167	114,764
102,787	-10,650	244,805	114,851
103,801	-10,676	244,833	114,833
104,816	-10,715	244,659	114,709
105,830	-10,578	244,483	114,729
106,845	-10,422	244,401	114,810
107,860	-10,158	243,961	114,813
108,874	-10,464	243,936	114,537
109,889	-10,569	243,819	114,384
110,903	-10,631	243,514	114,180
111,918	-10,689	243,324	114,033
112,933	-10,716	243,330	114,003
113,947	-10,623	243,100	113,962
114,962	-10,502	242,931	113,972
115,976	-10,538	242,739	113,843
116,991	-10,425	242,507	113,817
118,006	-10,458	242,183	113,627
119,020	-10,688	242,241	113,455
120,035	-10,548	242,129	113,508
121,049	-10,297	241,863	113,579
122,064	-10,577	241,819	113,318
123,079	-10,445	241,506	113,269
124,093	-10,654	241,312	112,998
125,108	-10,935	241,151	112,683
126,122	-10,962	240,851	112,510
127,137	-11,032	240,646	112,347
128,151	-11,086	240,517	112,232
129,166	-10,588	240,217	112,488
130,181	-11,072	240,069	112,014
131,195	-11,074	239,943	111,944
132,210	-10,715	239,726	112,125
133,224	-10,477	239,568	112,234
134,239	-10,654	239,574	112,083
135,254	-10,522	239,347	112,074
136,268	-10,706	239,066	111,783
137,283	-11,040	238,715	111,339
138,297	-11,121	238,628	111,224
139,312	-10,946	238,423	111,259
140,327	-10,665	238,483	111,505
141,341	-10,224	238,391	111,807
142,356	-10,117	238,119	111,756
143,370	-10,138	238,061	111,702
144,385	-10,166	237,974	111,629
145,400	-10,003	237,753	111,647
146,414	-10,035	237,433	111,461
147,429	-10,236	237,409	111,278
148,443	-10,168	237,251	111,249
149,458	-10,185	237,006	111,110
150,473	-10,322	236,840	110,912
151,487	-10,229	236,455	110,796
152,502	-10,262	236,439	110,753
153,516	-9,947	236,212	110,888
154,531	-10,205	236,125	110,632
155,546	-10,238	235,911	110,495
156,560	-10,222	235,722	110,410
157,575	-10,497	235,662	110,153
158,589	-10,623	235,450	109,943
159,604	-9,989	235,182	110,312
160,619	-9,940	235,172	110,337
161,633	-10,103	234,993	110,114
162,648	-9,888	234,851	110,208
163,662	-10,118	234,825	110,003
164,677	-10,169	234,577	109,836
165,692	-10,084	234,438	109,830
166,706	-10,033	234,293	109,792
167,721	-10,016	234,154	109,730
168,735	-10,040	234,095	109,674
169,750	-9,937	233,817	109,616
170,764	-10,082	233,666	109,420
171,779	-9,908	233,443	109,443
172,794	-10,066	233,313	109,248
173,808	-10,201	233,129	109,046
174,823	-10,794	232,805	108,418
175,837	-10,877	232,397	108,153
176,852	-10,591	232,696	108,508
177,867	-10,276	232,486	108,647
178,881	-10,070	232,317	108,720
179,896	-10,000	232,180	108,701
180,910	-9,982	232,041	108,641
181,925	-9,969	231,815	108,536
182,940	-10,095	231,671	108,360
183,954	-9,915	231,494	108,408
184,969	-9,867	231,614	108,492
185,983	-9,911	231,319	108,309
186,998	-9,758	231,163	108,346
188,013	-9,722	230,877	108,230
189,027	-9,866	230,873	108,107
190,042	-9,690	230,696	108,151
191,056	-9,799	230,471	107,952
192,071	-9,863	230,419	107,868
193,086	-9,863	230,135	107,725
194,100	-9,863	230,041	107,671
195,115	-9,826	229,842	107,597
196,129	-9,777	229,866	107,637
197,144	-5,069	231,414	112,020
198,159	0,173	232,692	116,723
199,173	3,449	233,592	119,727
200,188	3,677	233,706	119,952
201,202	3,550	233,504	119,739
202,217	3,598	233,403	119,714
203,232	3,795	233,314	119,811
204,246	3,797	233,179	119,733
205,261	4,013	233,034	119,816
206,275	4,218	232,948	119,920
207,290	4,300	232,774	119,884
208,304	4,131	232,623	119,664
209,319	4,088	232,385	119,497
210,334	3,984	232,188	119,305
211,348	3,779	232,033	119,056
212,363	3,588	231,831	118,793
213,377	3,290	231,567	118,417
214,392	3,260	231,348	118,271
215,407	3,420	231,384	118,403
216,421	3,466	231,213	118,341
217,436	3,366	230,933	118,109
218,450	3,395	230,613	117,958
219,465	3,082	230,530	117,664
220,480	3,108	230,412	117,613
221,494	3,194	230,330	117,626
222,509	3,234	230,185	117,573
223,523	3,395	230,047	117,615
224,538	3,316	229,722	117,378
225,553	3,438	229,766	117,484
226,567	3,481	229,611	117,427
227,582	3,639	229,575	117,519
228,596	3,840	229,345	117,545
229,611	3,564	229,204	117,251
230,626	3,266	228,906	116,861
231,640	3,161	228,705	116,668
232,655	3,421	228,913	116,962
233,669	3,912	228,886	117,312
234,684	3,904	228,642	117,171
235,699	3,706	228,397	116,884
236,713	3,602	228,120	116,653
237,728	3,512	228,022	116,523
238,742	3,208	227,835	116,187
239,757	3,253	227,592	116,086
240,772	3,193	227,528	115,999
241,786	3,134	227,413	115,884
242,801	3,635	227,115	116,101
243,815	3,874	227,243	116,337
244,830	3,771	226,998	116,124
245,844	3,406	226,841	115,757
246,859	3,303	226,686	115,590
247,874	3,584	226,599	115,748
248,888	3,623	226,395	115,662
249,903	3,606	226,158	115,518
250,917	3,504	226,032	115,367
251,932	3,425	225,823	115,190
252,947	3,084	225,810	114,917
253,961	3,318	225,389	114,868
254,976	3,221	225,377	114,779
255,990	3,445	225,400	114,949
257,005	3,328	225,223	114,760
258,020	3,587	225,069	114,865
259,034	3,578	225,048	114,838
260,049	3,687	224,892	114,830
261,063	3,464	224,833	114,622
262,078	3,785	224,506	114,685
263,093	3,741	224,424	114,600
264,107	3,664	224,299	114,469
265,122	3,622	224,205	114,380
266,136	3,975	224,019	114,537
267,151	3,632	223,890	114,206
268,166	3,186	223,681	113,757
269,180	2,893	223,423	113,398
270,195	3,325	223,224	113,608
271,209	3,328	223,103	113,538
272,224	3,236	223,040	113,428
273,239	3,405	222,899	113,472
274,253	3,165	222,735	113,200
275,268	3,210	222,486	113,096
276,282	2,928	222,402	112,835
277,297	3,144	222,180	112,872
278,312	3,036	222,136	112,760
279,326	3,266	222,040	112,871
280,341	3,366	221,924	112,876
281,355	3,464	221,777	112,863
282,370	3,316	221,654	112,681
283,384	3,103	221,339	112,355
284,399	3,003	221,126	112,163
285,414	3,186	220,997	112,222
286,428	3,209	220,972	112,216
287,443	3,310	220,996	112,293
288,457	3,441	220,812	112,285
289,472	3,462	220,469	112,116
290,487	2,935	220,360	111,665
291,501	2,939	220,108	111,530
292,516	3,060	220,053	111,581
293,530	3,231	219,762	111,548
294,545	3,015	219,689	111,344
295,560	3,012	219,678	111,326
296,574	3,349	219,545	111,494
297,589	3,209	219,315	111,266
298,603	3,427	219,301	111,407
299,618	3,482	219,055	111,311
300,633	3,504	219,093	111,337
301,647	3,576	218,952	111,308
302,662	3,489	218,994	111,256
303,676	3,680	218,655	111,212
304,691	3,485	218,495	110,980
305,706	3,612	218,374	111,001
306,720	3,596	218,231	110,907
307,735	3,213	218,145	110,576
308,749	3,239	217,880	110,450
309,764	3,444	217,805	110,550
310,779	3,663	217,679	110,635
311,793	3,417	217,565	110,389
312,808	3,579	217,391	110,408
313,822	3,428	217,241	110,214
314,837	3,287	217,032	109,996
315,852	3,079	216,980	109,811
316,866	3,157	216,788	109,759
317,881	3,269	216,886	109,880
318,895	3,255	216,540	109,685
319,910	3,172	216,339	109,514
320,925	2,722	216,067	109,045
321,939	3,033	215,952	109,199
322,954	3,323	215,962	109,402
323,968	3,491	215,906	109,483
324,983	3,352	215,816	109,329
325,997	3,534	215,606	109,343
327,012	3,547	215,367	109,221
328,027	3,256	215,370	109,005
329,041	3,673	215,237	109,225
330,056	3,606	215,161	109,129
331,070	3,216	215,006	108,764
332,085	3,306	214,774	108,700
333,100	3,253	214,561	108,545
334,114	3,326	214,467	108,539
335,129	3,570	214,339	108,638
336,143	3,226	214,109	108,269
337,158	3,492	214,051	108,417
338,173	3,281	213,989	108,227
339,187	3,263	213,705	108,061
340,202	3,150	213,509	107,873
341,216	3,032	213,470	107,760
342,231	3,136	213,229	107,702
343,246	2,955	213,187	107,544
344,260	3,198	213,069	107,646
345,275	3,057	213,073	107,539
346,289	3,505	212,888	107,751
347,304	3,474	212,763	107,656
348,319	3,425	212,644	107,552
349,333	3,492	212,514	107,524
350,348	3,365	212,330	107,332
351,362	3,949	212,148	107,640
352,377	3,552	212,055	107,305
353,392	3,377	211,940	107,115
354,406	3,305	211,863	107,016
355,421	196,802	1339,554	1422,982
356,435	157,271	1476,936	1422,964
