DTS Sentinel unit serial number:	SN410029Multiplexer serial number:	ORYXHardware model number:	OX2-SRSoftware version number:	ORYX F/W v4,00 Oryx Data Collector v3.7.2.0data status	okinstallation	B6 Nyhavnadifferential loss correction	single-endedforward channel	channel 2reverse channel	N/Adate	2023/12/11time	02:20:08forward acquisition time	300,00reverse acquisition time	0,00gamma	499,1914k internal	0,3123k external	0,3123temperature offset calibration	1,0000default loss term (dB/km)	0,3820temperature slope calibration	1,0000multiplexer offset coefficient	1,0000multiplexer slope coefficient	1,0000fibre end	0,00T internal ref (°C)	21,81T ext. ref 1 (°C)	4,71T ext. ref 2 (°C)	4,73length (m)	temperature (°C)	Stokes	anti-Stokes-744,400	33,476	0,028	-0,018
-743,385	-70,039	-0,222	0,062
-742,371	796,861	-0,017	-0,036
-741,356	-132,131	-0,213	0,020
-740,342	-200,000	0,009	-0,062
-739,327	21,657	-0,309	0,187
-738,312	237,146	0,034	-0,042
-737,298	36,975	-0,134	0,088
-736,283	-28,729	0,060	0,026
-735,269	71,812	-0,081	0,063
-734,254	592,494	0,044	-0,082
-733,239	-62,149	-0,373	-0,115
-732,225	72,844	0,076	0,059
-731,210	431,870	0,104	0,168
-730,196	82,195	0,052	-0,042
-729,181	-35,088	0,024	-0,010
-728,167	800,000	-0,024	0,050
-727,152	-71,871	0,080	-0,022
-726,137	73,141	-0,144	-0,112
-725,123	623,272	-0,102	-0,193
-724,108	60,391	-0,035	-0,026
-723,094	-103,743	0,038	-0,007
-722,079	-200,000	0,008	-0,072
-721,064	-96,662	-0,096	-0,019
-720,050	-145,043	-0,076	0,005
-719,035	462,580	-0,046	0,077
-718,021	-200,000	-0,026	0,118
-717,006	-105,384	-0,168	-0,028
-715,991	800,000	-0,033	-0,082
-714,977	-105,849	-0,038	-0,006
-713,962	-200,000	-0,023	-0,078
-712,948	109,299	-0,075	0,067
-711,933	10,992	-0,085	-0,048
-710,918	-36,227	0,046	-0,018
-709,904	-200,000	-0,001	0,020
-708,889	-147,001	-0,034	0,002
-707,875	-166,267	-0,116	-0,004
-706,860	187,610	0,058	-0,064
-705,845	415,834	-0,105	0,168
-704,831	394,529	0,022	-0,034
-703,816	64,142	0,153	0,114
-702,802	-152,997	-0,102	0,005
-701,787	98,117	-0,050	-0,043
-700,772	800,000	-0,036	0,105
-699,758	-200,000	0,015	0,166
-698,743	800,000	-0,021	-0,051
-697,729	-200,000	-0,001	-0,034
-696,714	310,766	0,064	0,090
-695,699	-75,748	-0,114	-0,030
-694,685	800,000	-0,066	-0,181
-693,670	-100,507	-0,159	-0,029
-692,656	-180,688	0,071	0,001
-691,641	-91,120	-0,032	-0,007
-690,627	32,546	-0,087	-0,056
-689,612	-65,393	-0,080	0,024
-688,597	178,696	-0,096	0,105
-687,583	42,295	-0,099	-0,067
-686,568	-145,916	-0,118	-0,008
-685,554	212,345	0,095	0,111
-684,539	127,822	0,178	-0,169
-683,524	800,000	0,032	-0,081
-682,510	-148,479	-0,097	0,006
-681,495	207,517	-0,038	-0,045
-680,481	-55,163	0,049	-0,016
-679,466	-200,000	0,008	-0,059
-678,451	16,308	0,033	-0,019
-677,437	237,701	0,084	0,104
-676,422	-200,000	0,028	0,000
-675,408	248,870	-0,110	0,138
-674,393	-44,506	-0,141	-0,052
-673,378	800,000	0,030	-0,073
-672,364	-125,469	-0,123	0,014
-671,349	800,000	-0,020	-0,044
-670,335	-71,448	0,137	0,038
-669,320	-142,212	-0,059	0,004
-668,305	-85,756	-0,020	-0,005
-667,291	-136,806	-0,032	0,003
-666,276	-53,314	-0,050	-0,017
-665,262	-140,632	-0,050	-0,004
-664,247	164,635	0,080	-0,084
-663,232	-111,387	-0,059	0,009
-662,218	777,519	-0,033	0,068
-661,203	-26,020	0,169	-0,074
-660,189	39,518	-0,084	-0,056
-659,174	800,000	0,035	-0,078
-658,159	-85,470	-0,079	0,018
-657,145	-32,250	0,068	-0,028
-656,130	83,794	-0,023	-0,018
-655,116	-200,000	0,008	0,096
-654,101	117,371	-0,032	0,029
-653,086	-200,000	0,047	0,160
-652,072	-85,196	-0,107	-0,025
-651,057	-182,475	-0,090	-0,001
-650,043	243,881	-0,043	-0,054
-649,028	124,323	-0,074	-0,069
-648,014	800,000	0,017	0,044
-646,999	800,000	0,049	0,116
-645,984	-56,870	-0,127	-0,041
-644,970	-200,000	-0,000	0,059
-643,955	134,357	0,075	-0,072
-642,941	251,626	-0,089	-0,113
-641,926	263,502	-0,068	0,088
-640,911	85,194	0,079	0,065
-639,897	-200,000	0,092	0,000
-638,882	190,272	-0,095	0,106
-637,868	25,000	-0,069	0,042
-636,853	440,036	-0,048	0,077
-635,838	133,805	-0,029	0,028
-634,824	-41,880	-0,087	0,033
-633,809	-86,312	-0,139	0,031
-632,795	-200,000	0,007	0,144
-631,780	278,253	-0,102	0,136
-630,765	-138,347	0,087	0,007
-629,751	-56,003	-0,090	0,029
-628,736	-200,000	0,002	-0,133
-627,722	155,689	-0,047	-0,048
-626,707	-200,000	-0,016	-0,072
-625,692	-200,000	-0,013	-0,070
-624,678	-70,491	0,069	-0,019
-623,663	178,717	-0,034	-0,037
-622,649	-200,000	-0,008	-0,113
-621,634	486,056	-0,056	-0,095
-620,619	-200,000	-0,007	-0,041
-619,605	121,330	0,045	-0,042
-618,590	108,158	0,087	0,077
-617,576	132,403	-0,042	-0,040
-616,561	-200,000	0,026	-0,127
-615,546	87,518	0,044	-0,036
-614,532	800,000	-0,059	-0,155
-613,517	3,872	0,182	-0,098
-612,503	-80,180	0,046	0,011
-611,488	-6,934	-0,109	0,055
-610,474	-182,724	0,098	0,001
-609,459	800,000	-0,057	-0,143
-608,444	-23,645	-0,035	-0,016
-607,430	-40,157	-0,158	-0,061
-606,415	800,000	0,007	-0,022
-605,401	-200,000	-0,017	0,094
-604,386	350,328	0,101	0,149
-603,371	-5,784	-0,012	-0,006
-602,357	-128,151	-0,122	0,013
-601,342	11,899	0,086	0,049
-600,328	240,785	-0,112	-0,139
-599,313	732,595	0,066	-0,131
-598,298	-200,000	0,009	-0,089
-597,284	-63,815	0,028	-0,009
-596,269	-21,786	-0,018	-0,008
-595,255	800,000	-0,029	-0,063
-594,240	-200,000	-0,009	-0,052
-593,225	-1,898	0,107	0,055
-592,211	-84,122	-0,045	-0,011
-591,196	-117,576	-0,075	-0,010
-590,182	-165,084	0,027	-0,001
-589,167	-200,000	0,002	0,062
-588,152	-146,350	0,090	-0,006
-587,138	284,128	-0,046	-0,061
-586,123	319,789	0,096	0,135
-585,109	800,000	-0,020	-0,043
-584,094	218,110	0,024	-0,028
-583,079	191,287	0,006	-0,007
-582,065	-119,518	-0,079	-0,010
-581,050	163,426	-0,079	-0,082
-580,036	124,739	0,072	0,067
-579,021	-200,000	-0,000	-0,024
-578,006	-200,000	0,005	-0,040
-576,992	317,298	-0,047	-0,066
-575,977	800,000	-0,057	-0,125
-574,963	642,231	0,056	0,106
-573,948	-200,000	0,006	0,031
-572,934	800,000	-0,015	-0,040
-571,919	-165,117	-0,164	0,005
-570,904	-96,609	-0,049	-0,009
-569,890	-140,480	0,156	0,012
-568,875	-200,000	-0,027	-0,149
-567,861	1,807	-0,114	-0,061
-566,846	133,814	0,083	-0,079
-565,831	-200,000	-0,022	0,086
-564,817	90,011	-0,056	0,047
-563,802	800,000	-0,051	-0,109
-562,788	158,359	0,065	0,067
-561,773	18,938	-0,012	-0,007
-560,758	-110,486	0,053	-0,008
-559,744	21,548	0,047	-0,028
-558,729	800,000	-0,060	-0,151
-557,715	-200,000	0,008	-0,040
-556,700	800,000	-0,021	-0,056
-555,685	324,607	0,067	-0,095
-554,671	-149,752	-0,103	0,006
-553,656	321,960	-0,044	-0,062
-552,642	-39,937	0,064	-0,024
-551,627	-93,983	0,044	0,009
-550,612	-39,381	0,072	0,028
-549,598	-145,938	-0,079	-0,005
-548,583	-152,338	-0,059	0,003
-547,569	-200,000	-0,001	-0,092
-546,554	-9,021	0,044	-0,022
-545,539	-154,091	-0,041	0,002
-544,525	146,119	0,025	-0,025
-543,510	-200,000	0,001	-0,056
-542,496	223,861	-0,084	-0,101
-541,481	800,000	-0,025	-0,076
-540,466	194,219	0,034	-0,038
-539,452	-120,999	-0,041	-0,005
-538,437	-23,775	0,142	0,062
-537,423	800,000	-0,034	0,071
-536,408	-122,476	0,031	0,004
-535,393	-121,151	-0,123	0,015
-534,379	6,508	-0,122	-0,067
-533,364	-58,600	0,124	-0,040
-532,350	-119,938	-0,140	0,018
-531,335	-197,464	0,119	0,001
-530,321	445,802	0,025	0,040
-529,306	107,456	0,052	0,045
-528,291	-22,963	-0,088	-0,039
-527,277	-29,544	-0,084	-0,035
-526,262	800,000	0,018	-0,041
-525,248	-159,817	-0,084	-0,003
-524,233	-200,000	-0,002	0,026
-523,218	-200,000	-0,041	0,181
-522,204	-200,000	-0,001	0,092
-521,189	98,917	0,042	-0,036
-520,175	-200,000	0,004	-0,102
-519,160	331,870	-0,081	-0,116
-518,145	61,619	-0,008	-0,006
-517,131	-114,538	0,157	-0,022
-516,116	-108,933	-0,144	-0,022
-515,102	-200,000	-0,007	0,235
-514,087	-200,000	0,007	-0,044
-513,072	-128,425	-0,102	-0,011
-512,058	-24,340	0,100	0,044
-511,043	94,185	-0,055	0,046
-510,029	-11,425	0,070	0,034
-509,014	265,029	0,108	0,139
-507,999	324,424	-0,051	0,072
-506,985	702,995	-0,031	0,061
-505,970	-61,132	-0,090	0,028
-504,956	153,306	-0,044	-0,044
-503,941	800,000	0,016	-0,052
-502,926	87,916	0,094	-0,077
-501,912	-38,644	0,093	-0,036
-500,897	511,954	0,054	0,093
-499,883	-114,620	0,094	-0,013
-498,868	-82,128	-0,031	0,007
-497,853	-27,211	-0,038	-0,016
-496,839	-200,000	0,019	-0,143
-495,824	11,812	0,141	0,080
-494,810	-200,000	-0,040	0,180
-493,795	436,603	0,028	-0,045
-492,781	427,561	0,026	0,041
-491,766	-134,945	-0,057	0,005
-490,751	739,191	0,083	-0,165
-489,737	-46,270	-0,144	-0,052
-488,722	800,000	-0,052	0,123
-487,708	-200,000	0,016	0,073
-486,693	-15,321	0,092	0,043
-485,678	495,796	-0,021	-0,036
-484,664	-200,000	0,004	-0,094
-483,649	-147,161	0,078	0,005
-482,635	4,161	0,064	-0,034
-481,620	-200,000	0,019	0,135
-480,605	26,048	0,086	0,053
-479,591	155,526	0,057	0,058
-478,576	-86,713	-0,120	-0,027
-477,562	115,095	-0,005	-0,005
-476,547	-98,926	0,051	-0,010
-475,532	250,521	-0,081	0,102
-474,518	-126,369	-0,080	-0,009
-473,503	-13,458	0,038	0,018
-472,489	454,140	0,056	-0,091
-471,474	-29,247	0,073	0,031
-470,459	800,000	-0,030	-0,068
-469,445	-117,003	0,190	0,025
-468,430	-200,000	-0,028	-0,145
-467,416	-200,000	0,001	-0,158
-466,401	-110,908	0,097	0,015
-465,386	800,000	-0,076	0,232
-464,372	202,311	-0,105	0,120
-463,357	20,232	0,110	0,065
-462,343	51,654	-0,104	0,073
-461,328	153,452	0,046	-0,047
-460,313	-178,801	0,198	-0,003
-459,299	39,119	0,142	0,094
-458,284	-200,000	0,003	-0,022
-457,270	800,000	-0,017	-0,036
-456,255	-88,652	-0,116	0,025
-455,241	-27,242	-0,052	-0,022
-454,226	695,747	-0,025	-0,048
-453,211	-200,000	-0,010	0,101
-452,197	532,887	-0,028	0,049
-451,182	800,000	0,050	0,110
-450,168	10,048	-0,078	0,044
-449,153	139,603	-0,089	-0,086
-448,138	20,905	-0,061	-0,037
-447,124	591,981	0,039	0,071
-446,109	-13,645	-0,032	0,015
-445,095	-50,188	0,048	-0,017
-444,080	148,136	-0,069	-0,068
-443,065	-118,482	0,112	-0,014
-442,051	317,458	-0,076	0,107
-441,036	800,000	-0,054	-0,157
-440,022	53,937	-0,027	0,019
-439,007	-31,447	0,077	0,032
-437,992	800,000	0,038	0,106
-436,978	-200,000	0,006	-0,097
-435,963	-19,093	0,078	-0,035
-434,949	800,000	0,013	0,030
-433,934	83,274	0,055	-0,044
-432,919	282,621	0,027	-0,036
-431,905	361,940	0,074	0,110
-430,890	187,715	0,118	0,130
-429,876	3,345	-0,090	0,048
-428,861	424,245	0,063	0,101
-427,846	800,000	0,042	-0,108
-426,832	-176,349	-0,065	-0,001
-425,817	39,977	-0,106	0,070
-424,803	800,000	0,009	0,019
-423,788	237,918	0,099	0,122
-422,773	-40,239	0,086	-0,033
-421,759	-200,000	0,044	0,151
-420,744	387,622	0,060	-0,091
-419,730	281,665	-0,148	-0,196
-418,715	544,610	0,041	-0,072
-417,701	311,536	0,087	-0,121
-416,686	-100,684	0,082	0,015
-415,671	-178,121	-0,128	-0,002
-414,657	-200,000	-0,036	0,154
-413,642	38,191	0,138	-0,090
-412,628	800,000	-0,039	-0,093
-411,613	-1,262	-0,055	0,029
-410,598	-34,000	0,165	-0,066
-409,584	-1,443	-0,035	0,018
-408,569	-38,629	-0,118	0,045
-407,555	-81,518	-0,062	0,015
-406,540	58,103	0,025	0,018
-405,525	800,000	-0,038	-0,095
-404,511	-81,901	-0,027	0,006
-403,496	444,732	0,035	-0,057
-402,482	800,000	0,028	0,080
-401,467	-200,000	0,028	0,180
-400,452	76,690	-0,042	0,033
-399,438	222,171	-0,022	0,026
-398,423	-145,332	-0,063	-0,004
-397,409	800,000	0,026	-0,078
-396,394	-200,000	-0,016	0,094
-395,379	-119,704	-0,052	0,006
-394,365	33,661	0,158	0,101
-393,350	-200,000	0,006	0,074
-392,336	-89,965	0,078	-0,017
-391,321	-63,325	0,074	0,022
-390,306	-200,000	0,003	-0,078
-389,292	800,000	0,013	0,037
-388,277	-91,393	-0,062	0,013
-387,263	-110,615	-0,109	0,016
-386,248	213,978	0,006	0,007
-385,233	8,521	-0,088	0,049
-384,219	800,000	-0,010	-0,020
-383,204	-164,126	0,033	-0,001
-382,190	-200,000	0,016	-0,084
-381,175	-142,134	0,114	-0,008
-380,160	142,438	-0,127	-0,124
-379,146	-65,919	-0,141	0,041
-378,131	489,735	0,066	0,112
-377,117	270,602	-0,093	0,120
-376,102	-200,000	-0,009	0,069
-375,088	-200,000	-0,053	-0,238
-374,073	-200,000	0,032	-0,106
-373,058	800,000	-0,028	0,071
-372,044	800,000	-0,018	0,053
-371,029	691,955	-0,037	0,072
-370,015	800,000	0,033	0,075
-369,000	-200,000	-0,013	-0,112
-367,985	-110,492	-0,098	0,015
-366,971	800,000	0,065	0,169
-365,956	800,000	0,020	0,059
-364,942	39,623	0,055	-0,036
-363,927	357,666	0,054	-0,080
-362,912	227,030	-0,017	0,021
-361,898	2,626	-0,106	-0,056
-360,883	-200,000	0,011	-0,073
-359,869	14,097	0,040	-0,023
-358,854	-69,349	0,096	-0,027
-357,839	-68,777	0,140	0,039
-356,825	-200,000	0,026	0,098
-355,810	75,825	0,078	0,060
-354,796	-20,449	-0,083	-0,037
-353,781	-102,274	0,051	0,009
-352,766	-104,403	0,087	-0,015
-351,752	800,000	-0,025	0,071
-350,737	-200,000	-0,012	0,074
-349,723	-200,000	0,005	-0,048
-348,708	800,000	0,050	0,129
-347,693	-111,431	-0,099	-0,015
-346,679	4,862	0,013	0,007
-345,664	-200,000	-0,016	-0,083
-344,650	16,834	0,109	0,063
-343,635	136,771	0,075	-0,072
-342,620	137,825	-0,012	-0,012
-341,606	21,724	-0,080	-0,048
-340,591	271,148	0,038	-0,049
-339,577	707,288	0,030	-0,058
-338,562	800,000	0,055	0,115
-337,548	83,312	-0,036	-0,029
-336,533	-4,824	0,081	0,041
-335,518	22,289	0,160	0,096
-334,504	-85,105	0,087	-0,020
-333,489	-87,949	0,113	0,025
-332,475	-9,828	-0,053	-0,026
-331,460	181,042	-0,053	0,057
-330,445	-26,142	0,038	-0,016
-329,431	187,145	0,065	0,071
-328,416	-79,302	-0,072	-0,018
-327,402	800,000	-0,012	-0,025
-326,387	223,329	-0,061	0,072
-325,372	127,654	-0,099	0,092
-324,358	800,000	-0,026	-0,056
-323,343	800,000	-0,013	-0,035
-322,329	-175,288	0,143	-0,003
-321,314	504,906	-0,019	-0,032
-320,299	603,446	0,034	0,062
-319,285	-165,278	0,115	0,004
-318,270	62,888	0,047	-0,034
-317,256	38,856	-0,069	0,045
-316,241	800,000	0,028	-0,075
-315,226	-200,000	0,013	0,185
-314,212	78,834	-0,028	-0,022
-313,197	-63,626	0,084	0,025
-312,183	8,297	0,128	-0,070
-311,168	448,102	0,084	-0,136
-310,153	-142,439	-0,082	-0,006
-309,139	-10,053	0,045	-0,022
-308,124	101,169	-0,085	0,073
-307,110	-200,000	-0,009	0,048
-306,095	800,000	-0,023	-0,074
-305,080	-200,000	-0,009	-0,037
-304,066	-28,415	0,041	-0,017
-303,051	-28,200	-0,073	0,031
-302,037	19,667	0,100	-0,059
-301,022	13,658	-0,107	-0,061
-300,008	125,609	0,061	-0,057
-298,993	800,000	-0,039	-0,110
-297,978	-200,000	0,005	-0,052
-296,964	293,005	0,073	-0,097
-295,949	489,585	-0,056	-0,094
-294,935	90,426	0,065	0,053
-293,920	-60,502	-0,094	0,029
-292,905	34,676	0,014	-0,009
-291,891	-200,000	-0,017	0,067
-290,876	15,827	0,044	0,026
-289,862	257,930	0,088	-0,111
-288,847	-29,219	-0,075	-0,031
-287,832	-84,361	0,043	0,010
-286,818	262,232	0,074	0,095
-285,803	99,840	0,118	0,100
-284,789	-115,104	0,155	-0,021
-283,774	171,555	-0,078	0,082
-282,759	-200,000	-0,006	0,025
-281,745	615,023	0,033	-0,061
-280,730	-118,796	-0,091	-0,012
-279,716	-200,000	0,012	-0,088
-278,701	16,889	0,072	-0,041
-277,686	346,099	-0,021	0,031
-276,672	606,420	-0,022	0,041
-275,657	96,195	-0,064	-0,054
-274,643	-109,176	0,058	-0,009
-273,628	686,848	-0,097	-0,187
-272,613	47,043	-0,037	-0,025
-271,599	-55,988	-0,043	0,014
-270,584	451,385	0,060	0,098
-269,570	178,482	-0,076	0,082
-268,555	295,552	-0,033	-0,045
-267,540	-200,000	0,010	-0,108
-266,526	800,000	0,015	-0,047
-265,511	189,665	-0,070	-0,077
-264,497	-150,505	0,216	-0,012
-263,482	-150,246	-0,089	-0,005
-262,467	-37,249	0,068	0,027
-261,453	597,141	-0,026	-0,047
-260,438	-60,659	-0,093	-0,029
-259,424	394,254	-0,052	-0,080
-258,409	525,695	-0,068	0,118
-257,395	31,287	-0,046	-0,029
-256,380	701,464	-0,051	0,098
-255,365	800,000	0,056	0,180
-254,351	-200,000	0,025	0,115
-253,336	124,350	-0,045	0,041
-252,322	-200,000	0,006	-0,113
-251,307	800,000	-0,038	-0,109
-250,292	-120,600	-0,043	-0,005
-249,278	-200,000	0,015	0,104
-248,263	413,304	0,047	0,074
-247,249	13,567	-0,077	-0,044
-246,234	-200,000	-0,005	-0,169
-245,219	-118,017	-0,077	-0,010
-244,205	800,000	-0,045	-0,119
-243,190	-200,000	-0,007	0,096
-242,176	800,000	0,079	-0,162
-241,161	-81,324	0,132	0,032
-240,146	-39,501	-0,221	0,084
-239,132	-44,883	0,087	0,032
-238,117	118,911	-0,055	-0,049
-237,103	580,247	-0,032	-0,057
-236,088	800,000	0,047	0,118
-235,073	-85,446	0,114	-0,026
-234,059	84,123	-0,066	-0,053
-233,044	56,884	0,078	-0,055
-232,030	196,556	-0,107	-0,120
-231,015	-200,000	-0,010	0,156
-230,000	-200,000	-0,002	0,068
-228,986	109,329	0,108	0,094
-227,971	-135,640	0,091	-0,008
-226,957	-87,775	0,146	0,032
-225,942	-200,000	-0,008	0,075
-224,927	-200,000	-0,017	0,090
-223,913	568,326	-0,027	-0,048
-222,898	-77,755	0,126	0,032
-221,884	-38,850	0,064	-0,025
-220,869	4,094	-0,082	-0,044
-219,855	192,198	-0,033	0,036
-218,840	-63,217	-0,052	-0,015
-217,825	246,873	-0,019	0,024
-216,811	-29,443	0,077	0,032
-215,796	63,240	-0,081	-0,059
-214,782	-62,641	0,032	-0,010
-213,767	179,274	-0,043	0,046
-212,752	757,094	-0,030	0,059
-211,738	-99,010	0,064	0,012
-210,723	800,000	-0,040	0,086
-209,709	8,545	-0,121	-0,066
-208,694	-200,000	-0,018	-0,137
-207,679	-93,726	0,122	-0,024
-206,665	800,000	0,028	0,076
-205,650	-200,000	-0,001	0,288
-204,636	800,000	-0,038	0,103
-203,621	-166,220	-0,113	0,003
-202,606	-200,000	0,008	0,055
-201,592	-200,000	-0,008	-0,029
-200,577	-200,000	-0,039	-0,148
-199,563	345,718	0,018	-0,025
-198,548	-200,000	0,013	-0,122
-197,533	145,398	0,046	-0,045
-196,519	-200,000	0,028	0,092
-195,504	163,597	-0,024	-0,025
-194,490	298,009	-0,019	-0,025
-193,475	-200,000	-0,011	-0,106
-192,460	800,000	0,031	0,065
-191,446	-129,209	-0,080	0,008
-190,431	559,627	0,045	0,079
-189,417	800,000	0,065	0,134
-188,402	9,972	-0,056	0,031
-187,387	-61,414	-0,027	-0,008
-186,373	617,135	-0,043	0,080
-185,358	399,428	-0,050	-0,077
-184,344	4,468	0,062	-0,033
-183,329	-200,000	0,032	0,109
-182,315	-11,797	0,053	0,025
-181,300	800,000	0,027	0,064
-180,285	-153,604	-0,007	-0,000
-179,271	-28,900	-0,126	0,052
-178,256	526,703	0,069	-0,119
-177,242	212,925	0,023	-0,026
-176,227	148,024	0,045	-0,044
-175,212	-86,298	-0,064	-0,014
-174,198	800,000	0,032	0,068
-173,183	41,550	-0,094	0,062
-172,169	412,847	-0,062	-0,096
-171,154	-124,965	-0,155	0,017
-170,139	79,476	-0,091	0,071
-169,125	-200,000	-0,008	0,125
-168,110	-200,000	-0,001	-0,006
-167,096	-200,000	-0,018	0,083
-166,081	-5,527	-0,073	-0,036
-165,066	2,403	0,028	0,015
-164,052	-182,033	0,137	-0,002
-163,037	-111,906	-0,103	0,015
-162,023	-200,000	-0,000	-0,019
-161,008	-106,028	-0,102	0,016
-159,993	-110,104	-0,028	0,004
-158,979	-200,000	-0,002	-0,149
-157,964	107,723	-0,079	-0,069
-156,950	-28,599	-0,083	-0,034
-155,935	-11,394	-0,030	-0,014
-154,920	590,732	0,056	0,101
-153,906	47,185	0,071	0,048
-152,891	200,282	0,093	-0,104
-151,877	231,863	-0,041	0,049
-150,862	401,340	0,047	-0,072
-149,847	259,052	0,058	-0,073
-148,833	800,000	0,032	-0,094
-147,818	1,723	-0,066	0,035
-146,804	-200,000	0,005	-0,100
-145,789	-136,234	-0,086	0,007
-144,775	795,707	0,028	0,056
-143,760	357,935	-0,038	-0,056
-142,745	-97,856	-0,047	0,009
-141,731	215,207	0,117	-0,136
-140,716	412,824	0,015	0,024
-139,702	-200,000	0,001	0,187
-138,687	-110,097	0,152	0,023
-137,672	232,808	-0,025	0,030
-136,658	181,208	-0,086	-0,092
-135,643	-57,972	0,075	-0,024
-134,629	-56,559	-0,108	0,035
-133,614	108,979	-0,057	0,050
-132,599	23,072	0,116	0,069
-131,585	-200,000	0,015	-0,098
-130,570	-21,722	-0,023	0,010
-129,556	-19,230	-0,088	0,040
-128,541	-200,000	0,000	-0,137
-127,526	284,836	0,016	0,021
-126,512	-98,881	-0,096	-0,018
-125,497	-200,000	-0,014	-0,052
-124,483	-40,967	-0,102	0,038
-123,468	-200,000	0,010	-0,037
-122,453	-100,422	-0,144	0,026
-121,439	-200,000	-0,018	-0,096
-120,424	402,715	-0,057	-0,088
-119,410	800,000	0,022	0,067
-118,395	-200,000	-0,006	0,172
-117,380	274,462	-0,059	0,076
-116,366	117,109	0,011	-0,010
-115,351	404,972	0,048	-0,074
-114,337	-200,000	-0,003	-0,081
-113,322	-108,776	-0,134	0,021
-112,307	6,673	0,095	-0,051
-111,293	-182,367	0,180	0,002
-110,278	37,404	-0,134	0,086
-109,264	-10,964	-0,144	0,069
-108,249	601,695	-0,043	0,078
-107,234	-80,150	-0,042	0,010
-106,220	800,000	-0,037	0,076
-105,205	-126,521	0,086	-0,009
-104,191	488,296	-0,052	-0,086
-103,176	221,405	0,054	0,063
-102,162	342,921	-0,083	-0,118
-101,147	325,327	-0,123	0,172
-100,132	-200,000	0,016	0,114
-99,118	103,245	-0,030	0,026
-98,103	-200,000	-0,010	-0,145
-97,089	16,397	0,064	-0,037
-96,074	-200,000	-0,015	0,049
-95,059	-200,000	0,026	0,159
-94,045	800,000	-0,041	-0,116
-93,030	-7,576	0,056	-0,027
-92,016	800,000	0,025	-0,071
-91,001	-107,573	0,107	-0,017
-89,986	-12,632	-0,060	0,028
-88,972	34,046	0,115	0,073
-87,957	800,000	-0,015	-0,045
-86,943	-200,000	-0,010	-0,058
-85,928	800,000	0,007	0,015
-84,913	-200,000	-0,025	0,161
-83,899	415,227	0,041	0,064
-82,884	-200,000	0,002	0,125
-81,870	-200,000	-0,005	0,050
-80,855	-130,182	0,115	-0,011
-79,840	84,101	0,038	-0,030
-78,826	535,511	0,039	-0,068
-77,811	-200,000	-0,001	-0,147
-76,797	-154,493	-0,016	-0,001
-75,782	800,000	0,007	-0,019
-74,767	-200,000	0,018	-0,105
-73,753	-113,061	-0,076	0,011
-72,738	-36,741	0,016	0,006
-71,724	800,000	-0,029	-0,075
-70,709	-2,685	-0,098	0,049
-69,694	-200,000	0,007	0,153
-68,680	-200,000	0,024	0,123
-67,665	800,000	0,037	-0,099
-66,651	800,000	-0,023	-0,051
-65,636	16,172	0,052	-0,030
-64,622	263,825	0,031	0,039
-63,607	640,837	0,076	-0,142
-62,592	800,000	-0,006	0,018
-61,578	6,455	-0,077	-0,041
-60,563	45,791	-0,086	0,057
-59,549	4,313	0,023	0,012
-58,534	-162,272	-1,420	-0,050
-57,519	473,226	-0,900	-1,477
-56,505	-200,000	-0,802	-4,498
-55,490	54,409	0,621	-0,434
-54,476	800,000	4,847	11,830
-53,461	-200,000	14,238	255,666
-52,446	-200,000	695,090	2254,740
-51,432	582,652	1624,931	2905,283
-50,417	117,864	1633,663	1460,087
-49,403	73,915	1287,643	979,003
-48,388	37,680	1024,717	658,805
-47,373	23,899	982,981	586,572
-46,359	23,098	972,369	577,587
-45,344	22,018	968,043	571,461
-44,330	21,976	966,628	570,466
-43,315	21,891	965,085	569,255
-42,300	21,899	964,187	568,727
-41,286	21,862	963,082	567,934
-40,271	21,841	962,078	567,250
-39,257	21,901	960,928	566,743
-38,242	21,831	960,241	566,089
-37,227	21,789	959,357	565,411
-36,213	21,813	958,442	564,926
-35,198	21,775	957,619	564,297
-34,184	21,828	956,979	564,068
-33,169	21,774	956,159	563,387
-32,154	21,882	955,048	563,058
-31,140	21,857	954,327	562,532
-30,125	21,812	953,597	561,933
-29,111	21,850	952,627	561,460
-28,096	21,852	951,909	561,022
-27,082	21,851	951,472	560,740
-26,067	21,855	950,549	560,185
-25,052	21,817	949,859	559,634
-24,038	21,892	949,110	559,413
-23,023	21,829	948,590	558,881
-22,009	21,914	947,883	558,714
-20,994	21,931	947,117	558,297
-19,979	21,875	946,686	557,841
-18,965	21,899	945,887	557,424
-17,950	21,864	945,313	556,952
-16,936	21,822	944,719	556,446
-15,921	21,860	943,843	556,028
-14,906	21,700	943,195	555,117
-13,892	21,716	942,567	554,773
-12,877	21,736	941,854	554,398
-11,863	21,715	941,313	553,990
-10,848	21,668	941,112	553,699
-9,833	21,792	940,500	553,711
-8,819	21,805	939,869	553,358
-7,804	21,754	939,029	552,682
-6,790	21,748	938,501	552,329
-5,775	21,772	937,876	552,014
-4,760	21,721	937,266	551,472
-3,746	21,739	936,683	551,165
-2,731	21,578	936,031	550,250
-1,717	21,483	935,323	549,514
-0,702	21,558	934,517	549,254
0,313	21,357	933,934	549,107
1,327	24,389	932,013	557,475
2,342	33,902	795,625	501,242
3,356	31,431	451,954	280,974
4,371	0,390	294,982	152,250
5,386	-4,105	276,088	138,206
6,400	-5,686	270,233	133,788
7,415	-6,056	267,810	132,234
8,429	-5,455	266,701	132,228
9,444	-5,500	265,776	131,716
10,459	-5,542	265,232	131,397
11,473	-5,499	264,561	131,092
12,488	-5,701	264,051	130,643
13,502	-5,737	263,578	130,365
14,517	-5,544	263,044	130,265
15,531	-5,225	262,712	130,378
16,546	-5,151	262,351	130,254
17,561	-5,236	262,116	130,049
18,575	-5,148	261,793	129,957
19,590	-5,479	261,582	129,542
20,604	-5,079	261,139	129,671
21,619	-5,300	260,900	129,342
22,634	-5,071	260,403	129,289
23,648	-5,263	260,124	128,967
24,663	-5,235	259,890	128,864
25,677	-5,354	259,726	128,666
26,692	-5,259	259,608	128,680
27,707	-5,351	259,155	128,362
28,721	-5,244	258,851	128,295
29,736	-5,322	258,499	128,041
30,750	-5,354	258,420	127,961
31,765	-5,397	258,117	127,762
32,780	-5,327	257,859	127,685
33,794	-5,268	257,682	127,639
34,809	-5,350	257,458	127,443
35,823	-5,376	257,135	127,249
36,838	-5,320	256,997	127,219
37,853	-5,405	256,666	126,968
38,867	-5,520	256,480	126,764
39,882	-5,439	256,334	126,752
40,896	-5,393	255,994	126,612
41,911	-5,443	255,857	126,490
42,926	-5,524	255,542	126,251
43,940	-5,430	255,327	126,216
44,955	-5,439	255,155	126,112
45,969	-5,432	254,916	125,989
46,984	-5,570	254,603	125,702
47,999	-5,861	254,372	125,322
49,013	-5,969	254,149	125,107
50,028	-6,077	253,808	124,834
51,042	-6,167	253,712	124,697
52,057	-6,059	253,420	124,635
53,071	-6,100	253,236	124,498
54,086	-6,041	253,046	124,445
55,101	-6,031	253,050	124,445
56,115	-5,846	252,883	124,513
57,130	-5,315	252,658	124,852
58,144	-5,219	252,367	124,781
59,159	-5,199	252,187	124,698
60,174	-5,289	252,124	124,577
61,188	-5,216	251,815	124,477
62,203	-5,290	251,605	124,298
63,217	-5,368	251,449	124,142
64,232	-5,311	251,266	124,091
65,247	-5,471	251,090	123,854
66,261	-5,385	250,904	123,825
67,276	-5,445	250,464	123,546
68,290	-5,731	250,227	123,172
69,305	-5,677	249,932	123,062
70,320	-5,719	249,767	122,934
71,334	-5,486	249,785	123,131
72,349	-5,179	249,616	123,301
73,363	-5,259	249,319	123,074
74,378	-5,237	249,198	123,023
75,393	-5,431	249,023	122,760
76,407	-5,313	248,772	122,726
77,422	-5,222	248,592	122,703
78,436	-5,348	248,354	122,467
79,451	-5,288	248,181	122,422
80,466	-5,203	247,795	122,293
81,480	-5,398	247,644	122,043
82,495	-5,481	247,484	121,882
83,509	-5,352	247,205	121,843
84,524	-5,555	247,167	121,641
85,539	-5,472	247,005	121,621
86,553	-5,543	246,777	121,438
87,568	-5,575	246,603	121,315
88,582	-5,617	246,442	121,189
89,597	-5,631	246,183	121,039
90,611	-5,532	246,157	121,099
91,626	-5,458	245,972	121,059
92,641	-5,340	245,676	121,003
93,655	-5,360	245,595	120,935
94,670	-5,475	245,226	120,646
95,684	-5,403	245,162	120,664
96,699	-5,654	244,997	120,361
97,714	-5,600	244,867	120,332
98,728	-5,903	244,692	119,981
99,743	-5,583	244,237	120,015
100,757	-5,685	244,135	119,869
101,772	-5,444	243,965	119,976
102,787	-5,565	243,664	119,717
103,801	-5,708	243,712	119,610
104,816	-5,503	243,333	119,584
105,830	-5,445	243,419	119,665
106,845	-5,309	243,031	119,576
107,860	-5,443	242,887	119,383
108,874	-5,528	242,682	119,201
109,889	-5,497	242,569	119,160
110,903	-5,571	242,214	118,914
111,918	-5,667	242,196	118,815
112,933	-5,648	241,979	118,714
113,947	-5,620	241,878	118,677
114,962	-5,563	241,690	118,621
115,976	-5,501	241,606	118,621
116,991	-5,433	241,418	118,574
118,006	-5,307	241,098	118,510
119,020	-5,609	241,033	118,219
120,035	-5,488	241,032	118,308
121,049	-5,189	240,806	118,432
122,064	-5,484	240,574	118,065
123,079	-5,416	240,408	118,028
124,093	-5,508	240,152	117,817
125,108	-5,750	240,010	117,538
126,122	-5,691	239,680	117,414
127,137	-5,814	239,502	117,216
128,151	-5,816	239,467	117,187
129,166	-5,619	239,083	117,149
130,181	-5,891	239,156	116,953
131,195	-5,838	238,766	116,795
132,210	-5,591	238,658	116,933
133,224	-5,687	238,563	116,798
134,239	-5,321	238,251	116,933
135,254	-5,409	238,118	116,785
136,268	-5,528	237,925	116,583
137,283	-5,816	237,784	116,270
138,297	-5,758	237,462	116,149
139,312	-5,751	237,317	116,073
140,327	-5,709	237,320	116,099
141,341	-5,329	237,222	116,347
142,356	-5,063	236,958	116,423
143,370	-5,183	236,977	116,325
144,385	-5,232	236,857	116,216
145,400	-5,081	236,563	116,183
146,414	-5,085	236,419	116,099
147,429	-4,976	236,336	116,136
148,443	-5,150	235,967	115,804
149,458	-5,221	236,008	115,757
150,473	-5,198	235,807	115,666
151,487	-5,284	235,523	115,448
152,502	-5,336	235,410	115,340
153,516	-4,999	235,224	115,509
154,531	-5,180	234,977	115,233
155,546	-5,233	234,934	115,159
156,560	-5,300	234,718	114,989
157,575	-5,416	234,370	114,716
158,589	-5,640	234,489	114,584
159,604	-5,263	234,257	114,763
160,619	-4,923	233,963	114,879
161,633	-4,952	233,904	114,817
162,648	-5,199	233,862	114,589
163,662	-5,173	233,666	114,503
164,677	-5,335	233,304	114,187
165,692	-5,107	233,322	114,367
166,706	-5,063	233,220	114,342
167,721	-5,021	233,100	114,306
168,735	-4,943	232,855	114,237
169,750	-5,054	232,792	114,108
170,764	-5,217	232,499	113,826
171,779	-5,274	232,481	113,762
172,794	-4,999	232,198	113,830
173,808	-5,280	232,117	113,558
174,823	-5,590	231,755	113,126
175,837	-5,751	231,481	112,856
176,852	-5,533	231,513	113,033
177,867	-5,299	231,411	113,158
178,881	-5,291	231,293	113,096
179,896	-5,065	231,068	113,153
180,910	-4,940	231,044	113,230
181,925	-4,964	230,793	113,078
182,940	-5,125	230,680	112,886
183,954	-5,061	230,585	112,880
184,969	-5,105	230,446	112,767
185,983	-4,937	230,230	112,783
186,998	-4,840	230,207	112,838
188,013	-5,004	229,900	112,548
189,027	-4,901	229,800	112,570
190,042	-4,738	229,675	112,626
191,056	-5,027	229,383	112,248
192,071	-4,877	229,230	112,280
193,086	-5,114	229,150	112,046
194,100	-5,327	228,826	111,712
195,115	-5,925	228,422	111,041
196,129	-6,765	228,188	110,265
197,144	-3,335	229,236	113,432
198,159	1,690	230,533	117,989
199,173	4,228	231,274	120,340
200,188	4,387	231,363	120,500
201,202	4,476	231,082	120,413
202,217	4,651	230,852	120,418
203,232	4,805	230,848	120,526
204,246	4,853	230,694	120,472
205,261	5,104	230,532	120,571
206,275	5,082	230,516	120,535
207,290	5,355	230,251	120,598
208,304	5,090	230,158	120,333
209,319	5,047	230,104	120,260
210,334	4,948	229,755	119,991
211,348	4,656	229,704	119,727
212,363	4,480	229,336	119,389
213,377	4,125	229,129	118,996
214,392	4,044	228,971	118,841
215,407	4,369	228,843	119,015
216,421	4,495	228,641	118,996
217,436	4,304	228,469	118,749
218,450	4,035	228,268	118,427
219,465	3,871	228,155	118,231
220,480	4,020	228,011	118,261
221,494	3,921	227,883	118,108
222,509	4,239	227,775	118,285
223,523	4,259	227,465	118,129
224,538	4,206	227,396	118,042
225,553	4,108	227,277	117,895
226,567	4,508	227,206	118,153
227,582	4,395	227,156	118,030
228,596	4,551	227,048	118,083
229,611	4,335	226,784	117,770
230,626	3,997	226,415	117,311
231,640	4,118	226,280	117,322
232,655	4,334	226,346	117,510
233,669	4,744	226,239	117,757
234,684	4,931	226,206	117,871
235,699	4,508	226,047	117,457
236,713	4,253	225,781	117,114
237,728	4,212	225,472	116,912
238,742	4,156	225,302	116,771
239,757	4,200	225,127	116,703
240,772	4,221	224,974	116,630
241,786	4,019	225,013	116,487
242,801	4,403	224,900	116,708
243,815	4,536	224,594	116,639
244,830	4,593	224,767	116,762
245,844	4,322	224,441	116,378
246,859	4,136	224,231	116,118
247,874	4,518	224,234	116,397
248,888	4,325	224,081	116,162
249,903	4,382	223,861	116,080
250,917	4,188	223,720	115,851
251,932	4,165	223,558	115,740
252,947	4,215	223,343	115,656
253,961	3,969	223,230	115,402
254,976	4,143	222,998	115,402
255,990	4,356	222,949	115,526
257,005	4,337	222,909	115,481
258,020	4,526	222,793	115,552
259,034	4,528	222,707	115,498
260,049	4,517	222,475	115,360
261,063	4,458	222,369	115,251
262,078	4,697	222,176	115,318
263,093	4,858	221,915	115,293
264,107	4,490	221,997	115,051
265,122	4,514	221,756	114,934
266,136	4,427	221,756	114,859
267,151	4,733	221,374	114,878
268,166	4,184	221,292	114,417
269,180	4,076	220,973	114,162
270,195	4,278	220,785	114,205
271,209	4,191	220,659	114,065
272,224	4,367	220,572	114,139
273,239	4,184	220,492	113,952
274,253	4,190	220,254	113,824
275,268	3,962	220,241	113,639
276,282	3,814	219,990	113,389
277,297	3,795	219,878	113,308
278,312	3,843	219,807	113,297
279,326	4,044	219,722	113,391
280,341	4,065	219,482	113,273
281,355	4,042	219,263	113,133
282,370	4,369	219,211	113,335
283,384	4,012	218,989	112,948
284,399	3,871	218,902	112,790
285,414	3,994	218,734	112,784
286,428	4,072	218,617	112,771
287,443	4,365	218,595	112,964
288,457	4,306	218,363	112,790
289,472	4,173	218,296	112,649
290,487	3,856	217,868	112,187
291,501	3,661	217,762	111,980
292,516	4,198	217,647	112,302
293,530	3,990	217,661	112,147
294,545	3,887	217,502	111,981
295,560	3,993	217,395	111,993
296,574	4,146	217,121	111,953
297,589	4,129	217,154	111,947
298,603	4,047	217,120	111,860
299,618	4,207	216,774	111,788
300,633	4,075	216,749	111,670
301,647	4,378	216,749	111,880
302,662	4,510	216,471	111,822
303,676	4,521	216,259	111,710
304,691	4,589	216,118	111,677
305,706	4,345	216,123	111,492
306,720	4,309	216,020	111,403
307,735	4,298	215,748	111,245
308,749	4,290	215,521	111,113
309,764	4,112	215,517	110,973
310,779	4,446	215,350	111,117
311,793	4,072	215,274	110,799
312,808	4,426	215,063	110,935
313,822	4,381	214,963	110,841
314,837	4,051	214,809	110,515
315,852	4,120	214,579	110,436
316,866	4,032	214,493	110,319
317,881	4,381	214,575	110,601
318,895	4,223	214,439	110,408
319,910	4,230	214,121	110,240
320,925	4,082	213,859	109,989
321,939	3,792	213,534	109,605
322,954	3,962	213,547	109,724
323,968	4,189	213,581	109,893
324,983	4,283	213,422	109,869
325,997	4,574	213,193	109,948
327,012	4,414	213,096	109,774
328,027	4,300	213,060	109,665
329,041	4,448	212,862	109,658
330,056	4,795	212,730	109,826
331,070	4,352	212,540	109,405
332,085	4,327	212,257	109,232
333,100	3,814	212,363	108,913
334,114	4,039	212,208	108,983
335,129	4,262	211,941	108,994
336,143	4,004	211,710	108,683
337,158	4,143	211,698	108,766
338,173	3,916	211,537	108,513
339,187	3,947	211,392	108,451
340,202	3,746	211,369	108,288
341,216	3,961	211,022	108,251
342,231	4,204	210,982	108,392
343,246	3,671	210,945	107,989
344,260	4,118	210,824	108,232
345,275	3,908	210,671	107,996
346,289	4,240	210,638	108,202
347,304	4,281	210,448	108,124
348,319	4,124	210,333	107,945
349,333	4,170	210,227	107,913
350,348	4,192	209,925	107,764
351,362	4,287	210,006	107,862
352,377	4,225	209,900	107,755
353,392	4,100	209,687	107,548
354,406	4,343	209,504	107,615
355,421	195,084	1344,407	1436,911
356,435	155,738	1482,778	1437,014
