DTS Sentinel unit serial number:	SN410029Multiplexer serial number:	ORYXHardware model number:	OX2-SRSoftware version number:	ORYX F/W v4,00 Oryx Data Collector v3.7.2.0data status	okinstallation	B6 Nyhavnadifferential loss correction	single-endedforward channel	channel 2reverse channel	N/Adate	2023/12/09time	09:40:08forward acquisition time	300,00reverse acquisition time	0,00gamma	499,1914k internal	0,3139k external	0,3139temperature offset calibration	1,0000default loss term (dB/km)	0,3820temperature slope calibration	1,0000multiplexer offset coefficient	1,0000multiplexer slope coefficient	1,0000fibre end	0,00T internal ref (°C)	18,48T ext. ref 1 (°C)	2,09T ext. ref 2 (°C)	2,10length (m)	temperature (°C)	Stokes	anti-Stokes-744,400	191,808	0,019	-0,021
-743,385	-111,152	-0,286	0,043
-742,371	-150,495	0,229	-0,013
-741,356	-129,041	-0,227	0,023
-740,342	-56,058	0,059	-0,019
-739,327	-161,912	-0,410	0,015
-738,312	145,250	-0,038	0,038
-737,298	12,195	-0,242	0,138
-736,283	36,979	0,097	-0,064
-735,269	9,876	-0,212	0,119
-734,254	-53,045	-0,064	0,022
-733,239	-76,722	-0,328	-0,084
-732,225	-200,000	0,002	0,054
-731,210	800,000	0,044	0,097
-730,196	46,603	0,116	-0,080
-729,181	800,000	0,056	0,134
-728,167	-200,000	0,009	0,052
-727,152	-200,000	-0,007	-0,046
-726,137	-115,405	-0,134	0,019
-725,123	-52,709	-0,125	0,043
-724,108	394,822	-0,027	-0,041
-723,094	127,127	-0,074	-0,069
-722,079	-94,096	-0,177	-0,036
-721,064	-53,434	-0,107	0,036
-720,050	-95,068	-0,154	0,030
-719,035	211,084	0,109	0,127
-718,021	800,000	-0,034	0,092
-717,006	443,359	-0,027	-0,044
-715,991	229,407	-0,058	-0,071
-714,977	466,455	-0,128	-0,214
-713,962	635,339	0,039	0,074
-712,948	-46,720	0,016	-0,006
-711,933	-82,432	-0,216	0,052
-710,918	-57,368	0,052	-0,017
-709,904	128,855	0,097	-0,092
-708,889	-9,738	-0,054	-0,027
-707,875	-200,000	0,014	-0,086
-706,860	-200,000	-0,012	0,075
-705,845	40,988	-0,009	-0,006
-704,831	230,645	-0,091	0,111
-703,816	170,553	-0,006	0,007
-702,802	628,453	-0,011	-0,022
-701,787	800,000	-0,086	-0,256
-700,772	-102,400	-0,127	-0,022
-699,758	800,000	-0,048	0,121
-698,743	-124,049	0,108	0,012
-697,729	-200,000	0,026	0,141
-696,714	221,195	0,117	0,139
-695,699	376,723	0,040	0,061
-694,685	-18,407	-0,149	-0,068
-693,670	-147,913	0,063	0,004
-692,656	-200,000	0,022	0,099
-691,641	-118,839	0,118	0,015
-690,627	-200,000	-0,013	-0,045
-689,612	-200,000	-0,009	0,200
-688,597	-3,211	0,108	0,055
-687,583	-27,883	-0,118	0,051
-686,568	-29,884	0,053	0,022
-685,554	613,967	0,007	-0,013
-684,539	-42,705	-0,067	0,025
-683,524	-200,000	-0,018	0,101
-682,510	-200,000	-0,002	0,139
-681,495	-164,208	-0,077	-0,003
-680,481	-200,000	-0,001	-0,130
-679,466	-53,273	0,054	-0,018
-678,451	800,000	0,010	0,023
-677,437	-27,003	-0,004	0,002
-676,422	329,430	-0,042	0,061
-675,408	136,006	0,037	0,036
-674,393	800,000	-0,037	-0,105
-673,378	40,863	-0,228	-0,152
-672,364	-22,928	-0,022	-0,010
-671,349	800,000	0,018	-0,048
-670,335	800,000	0,053	-0,121
-669,320	800,000	0,023	-0,047
-668,305	800,000	0,043	0,126
-667,291	2,504	-0,070	-0,037
-666,276	-200,000	-0,009	0,048
-665,262	21,982	-0,067	0,040
-664,247	-200,000	-0,005	0,043
-663,232	-86,862	-0,079	-0,018
-662,218	-23,384	0,060	-0,027
-661,203	30,244	0,082	-0,052
-660,189	-200,000	0,025	-0,123
-659,174	786,290	-0,059	-0,120
-658,159	-200,000	-0,011	0,055
-657,145	-129,383	-0,094	-0,009
-656,130	800,000	-0,044	-0,107
-655,116	15,505	0,111	-0,064
-654,101	800,000	0,093	-0,202
-653,086	800,000	0,008	0,020
-652,072	-25,545	-0,090	-0,039
-651,057	103,312	0,053	0,046
-650,043	110,061	-0,047	-0,041
-649,028	800,000	-0,028	-0,084
-648,014	800,000	0,006	-0,014
-646,999	132,968	0,050	0,048
-645,984	373,485	-0,073	0,110
-644,970	-200,000	-0,057	-0,186
-643,955	-43,692	-0,114	-0,042
-642,941	135,009	-0,105	-0,101
-641,926	-27,596	0,089	0,038
-640,911	-72,889	-0,094	-0,025
-639,897	-200,000	0,007	0,138
-638,882	-136,179	-0,064	0,005
-637,868	12,141	-0,038	-0,021
-636,853	-200,000	0,014	-0,069
-635,838	800,000	0,083	-0,217
-634,824	-62,734	0,055	-0,017
-633,809	-200,000	-0,047	-0,163
-632,795	-15,984	-0,030	-0,014
-631,780	44,223	0,126	0,085
-630,765	-42,209	0,009	0,003
-629,751	743,153	0,058	-0,116
-628,736	800,000	-0,038	-0,121
-627,722	-53,505	-0,082	-0,028
-626,707	-0,364	0,036	-0,019
-625,692	-114,848	0,039	0,005
-624,678	406,418	0,070	0,110
-623,663	60,156	-0,120	0,088
-622,649	800,000	-0,026	-0,080
-621,634	-51,482	-0,012	0,004
-620,619	-148,329	-0,176	0,010
-619,605	230,043	-0,071	0,086
-618,590	-200,000	0,001	0,079
-617,576	-200,000	0,036	0,147
-616,561	-200,000	0,010	-0,086
-615,546	346,592	-0,024	0,035
-614,532	-134,790	-0,036	-0,003
-613,517	11,734	-0,024	0,014
-612,503	283,191	0,043	0,057
-611,488	-67,565	-0,082	0,024
-610,474	159,104	0,048	0,049
-609,459	-90,119	-0,074	-0,016
-608,444	204,845	0,048	0,055
-607,430	57,382	0,072	0,052
-606,415	251,308	-0,097	-0,122
-605,401	-200,000	-0,002	-0,026
-604,386	487,279	0,031	-0,052
-603,371	55,730	0,112	-0,080
-602,357	-26,952	0,046	-0,020
-601,342	132,562	0,064	-0,061
-600,328	256,203	-0,006	-0,008
-599,313	-200,000	0,019	-0,082
-598,298	-200,000	-0,002	-0,095
-597,284	800,000	-0,020	0,043
-596,269	10,491	0,173	0,097
-595,255	-200,000	-0,006	0,183
-594,240	-200,000	0,026	0,106
-593,225	-107,574	-0,156	-0,025
-592,211	-37,573	0,087	-0,034
-591,196	314,243	0,024	0,034
-590,182	-103,780	-0,105	-0,018
-589,167	-54,708	0,070	-0,023
-588,152	800,000	0,033	-0,080
-587,138	-103,494	-0,118	-0,020
-586,123	-59,362	0,067	0,021
-585,109	203,469	0,029	-0,033
-584,094	-74,095	0,122	0,032
-583,079	-43,662	0,145	0,054
-582,065	-101,419	-0,028	0,005
-581,050	800,000	0,012	-0,037
-580,036	52,935	-0,136	-0,096
-579,021	-200,000	0,086	0,000
-578,006	-113,601	-0,159	0,023
-576,992	63,866	0,040	0,030
-575,977	-143,587	0,061	-0,004
-574,963	-92,096	0,174	-0,036
-573,948	-200,000	-0,020	0,146
-572,934	-141,116	0,076	-0,006
-571,919	115,171	-0,100	-0,090
-570,904	341,483	-0,030	0,043
-569,890	-28,872	0,045	0,019
-568,875	800,000	0,021	-0,047
-567,861	-200,000	-0,011	-0,089
-566,846	-83,826	0,107	0,025
-565,831	-200,000	0,024	-0,174
-564,817	-200,000	-0,007	-0,049
-563,802	800,000	0,023	0,073
-562,788	-200,000	0,030	-0,149
-561,773	-102,587	-0,056	0,010
-560,758	42,688	-0,053	0,035
-559,744	-200,000	-0,031	0,108
-558,729	-200,000	-0,022	-0,103
-557,715	-2,316	0,099	0,051
-556,700	-200,000	0,002	-0,024
-555,685	-126,295	0,061	-0,007
-554,671	-132,518	0,097	0,009
-553,656	-146,057	-0,039	-0,002
-552,642	800,000	-0,011	0,031
-551,627	-200,000	0,033	0,139
-550,612	-138,829	-0,117	0,009
-549,598	470,853	0,045	0,075
-548,583	-200,000	-0,000	-0,045
-547,569	135,264	0,051	0,049
-546,554	73,482	0,153	0,118
-545,539	800,000	-0,051	0,110
-544,525	596,602	0,037	-0,068
-543,510	179,988	0,031	0,033
-542,496	-13,150	-0,074	-0,035
-541,481	-110,328	0,098	-0,015
-540,466	447,111	-0,082	0,132
-539,452	-200,000	-0,001	-0,091
-538,437	800,000	0,040	0,083
-537,423	188,205	-0,003	-0,004
-536,408	800,000	0,029	-0,074
-535,393	-200,000	0,018	0,076
-534,379	-200,000	-0,012	-0,067
-533,364	61,872	-0,096	0,071
-532,350	800,000	0,043	0,135
-531,335	-200,000	-0,022	0,092
-530,321	800,000	0,057	0,140
-529,306	-13,554	-0,193	0,092
-528,291	-45,141	0,072	-0,026
-527,277	34,817	0,038	0,025
-526,262	316,465	0,039	-0,054
-525,248	300,911	0,065	-0,089
-524,233	-108,089	0,008	-0,001
-523,218	-200,000	-0,017	-0,084
-522,204	48,554	-0,096	-0,066
-521,189	-165,418	0,069	0,002
-520,175	-156,141	-0,151	0,007
-519,160	-144,105	-0,112	0,008
-518,145	0,351	0,112	0,059
-517,131	76,564	-0,023	-0,018
-516,116	255,458	-0,064	0,081
-515,102	-59,721	-0,075	0,023
-514,087	136,263	-0,033	-0,032
-513,072	385,105	-0,132	-0,200
-512,058	269,220	0,037	-0,048
-511,043	-200,000	-0,011	0,126
-510,029	-200,000	0,004	0,151
-509,014	-21,918	-0,026	0,011
-507,999	230,480	-0,041	-0,050
-506,985	-200,000	0,003	0,052
-505,970	-196,949	0,063	0,000
-504,956	-99,368	-0,016	-0,003
-503,941	405,970	0,079	0,123
-502,926	75,246	-0,060	0,046
-501,912	800,000	0,011	-0,029
-500,897	-117,378	0,149	-0,020
-499,883	-57,858	-0,054	-0,017
-498,868	-149,210	0,101	-0,006
-497,853	800,000	0,022	0,048
-496,839	88,229	0,082	-0,067
-495,824	78,828	0,076	-0,060
-494,810	-200,000	-0,027	0,179
-493,795	-141,620	-0,130	0,009
-492,781	-200,000	0,025	-0,083
-491,766	800,000	0,022	0,054
-490,751	187,951	-0,054	0,060
-489,737	-1,031	0,059	0,030
-488,722	92,395	0,075	-0,062
-487,708	-200,000	-0,009	-0,122
-486,693	-200,000	0,014	0,063
-485,678	353,266	-0,027	-0,040
-484,664	134,205	-0,035	0,033
-483,649	-200,000	0,002	-0,117
-482,635	153,775	-0,050	-0,051
-481,620	159,061	0,049	0,050
-480,605	-11,943	-0,143	0,068
-479,591	36,959	-0,029	-0,019
-478,576	332,541	-0,077	-0,109
-477,562	26,886	-0,129	-0,079
-476,547	-53,174	-0,080	-0,027
-475,532	219,417	-0,023	-0,028
-474,518	93,893	-0,115	0,095
-473,503	-187,783	0,038	-0,000
-472,489	-45,985	-0,127	-0,046
-471,474	-200,000	-0,007	0,041
-470,459	-46,191	-0,217	0,078
-469,445	560,375	0,081	-0,144
-468,430	-74,901	-0,127	-0,033
-467,416	54,303	0,064	-0,045
-466,401	232,023	0,038	0,046
-465,386	-73,681	0,102	0,027
-464,372	-91,986	0,053	0,011
-463,357	-118,414	-0,061	-0,008
-462,343	-77,412	-0,092	-0,023
-461,328	800,000	-0,015	-0,045
-460,313	-200,000	0,011	0,150
-459,299	800,000	-0,007	0,017
-458,284	-15,472	-0,081	0,038
-457,270	800,000	0,045	-0,116
-456,255	-151,785	0,100	0,005
-455,241	-159,386	-0,080	0,003
-454,226	551,288	-0,028	0,050
-453,211	51,353	0,099	-0,069
-452,197	-75,365	-0,030	-0,008
-451,182	800,000	0,035	0,089
-450,168	-200,000	-0,013	-0,077
-449,153	-101,907	-0,057	-0,010
-448,138	-98,309	-0,174	-0,032
-447,124	-200,000	0,002	-0,028
-446,109	-200,000	0,025	0,084
-445,095	132,783	0,019	0,018
-444,080	-200,000	0,015	0,156
-443,065	375,256	0,061	-0,092
-442,051	-111,847	0,051	-0,008
-441,036	-166,663	-0,162	0,005
-440,022	-200,000	-0,021	-0,105
-439,007	-75,841	-0,077	-0,020
-437,992	-28,309	0,160	0,068
-436,978	-200,000	-0,005	0,123
-435,963	-200,000	0,009	0,163
-434,949	-93,994	-0,021	-0,004
-433,934	-59,057	-0,108	0,034
-432,919	-200,000	-0,010	-0,147
-431,905	100,176	-0,159	-0,135
-430,890	192,756	0,078	0,086
-429,876	85,740	0,093	-0,075
-428,861	-53,558	-0,021	-0,007
-427,846	-200,000	-0,012	0,122
-426,832	698,425	-0,048	-0,093
-425,817	800,000	-0,062	-0,132
-424,803	16,732	-0,117	-0,068
-423,788	44,215	0,091	-0,061
-422,773	507,770	0,070	0,120
-421,759	16,552	0,075	0,044
-420,744	-200,000	-0,009	-0,137
-419,730	47,401	-0,018	0,012
-418,715	-126,198	-0,085	-0,009
-417,701	800,000	0,063	-0,196
-416,686	-171,552	-0,085	0,002
-415,671	32,045	0,045	0,029
-414,657	-200,000	0,004	-0,012
-413,642	-53,836	0,101	0,034
-412,628	-200,000	0,015	-0,112
-411,613	800,000	-0,008	-0,024
-410,598	800,000	0,004	0,013
-409,584	-42,113	0,025	-0,009
-408,569	-200,000	0,004	0,029
-407,555	157,627	-0,086	0,087
-406,540	-39,910	-0,053	-0,020
-405,525	52,648	-0,026	-0,018
-404,511	-94,769	0,215	-0,042
-403,496	300,052	0,019	-0,025
-402,482	131,289	-0,108	0,101
-401,467	-200,000	0,015	-0,060
-400,452	129,076	-0,102	0,095
-399,438	-200,000	0,005	0,083
-398,423	-115,781	-0,115	0,016
-397,409	295,533	-0,040	-0,054
-396,394	-33,384	-0,080	-0,032
-395,379	522,944	-0,064	-0,110
-394,365	31,293	0,063	0,040
-393,350	28,271	0,009	0,005
-392,336	152,934	0,036	-0,036
-391,321	-200,000	-0,004	0,082
-390,306	-48,606	-0,121	0,042
-389,292	-139,509	-0,084	0,006
-388,277	220,225	-0,002	0,003
-387,263	423,608	0,052	0,083
-386,248	-36,826	0,119	-0,046
-385,233	-57,668	0,099	0,031
-384,219	-41,102	-0,067	0,025
-383,204	800,000	-0,040	-0,127
-382,190	131,651	-0,088	0,083
-381,175	282,949	0,004	0,005
-380,160	-32,157	-0,067	-0,027
-379,146	-125,143	-0,038	-0,004
-378,131	-40,762	-0,056	0,021
-377,117	-200,000	-0,007	0,168
-376,102	363,661	-0,036	-0,054
-375,088	127,577	-0,061	0,057
-374,073	214,896	0,015	-0,017
-373,058	800,000	0,059	-0,138
-372,044	33,185	0,041	-0,026
-371,029	-200,000	-0,003	0,117
-370,015	-2,766	-0,059	0,030
-369,000	-105,080	0,120	-0,020
-367,985	398,537	-0,041	0,062
-366,971	-103,321	-0,029	0,005
-365,956	-57,534	-0,025	-0,008
-364,942	104,897	0,105	-0,090
-363,927	800,000	-0,045	-0,130
-362,912	-114,405	0,091	-0,013
-361,898	-200,000	-0,007	0,030
-360,883	536,059	-0,024	-0,042
-359,869	-24,894	0,079	-0,034
-358,854	-122,522	0,054	-0,006
-357,839	289,212	-0,053	0,070
-356,825	-200,000	0,001	0,080
-355,810	265,931	0,025	-0,031
-354,796	576,945	0,011	0,019
-353,781	800,000	0,016	0,034
-352,766	330,722	0,059	-0,084
-351,752	90,758	-0,096	0,078
-350,737	800,000	0,045	0,116
-349,723	-200,000	0,017	0,078
-348,708	800,000	-0,023	0,051
-347,693	214,417	-0,043	0,050
-346,679	-62,602	-0,068	-0,021
-345,664	800,000	0,078	0,186
-344,650	-200,000	-0,007	0,032
-343,635	-200,000	-0,018	0,065
-342,620	-200,000	0,003	0,134
-341,606	-68,185	0,165	-0,047
-340,591	295,325	-0,074	0,099
-339,577	-68,046	0,057	0,016
-338,562	46,324	-0,073	-0,049
-337,548	-200,000	0,002	0,018
-336,533	-200,000	-0,014	0,056
-335,518	45,788	0,021	0,014
-334,504	371,970	0,018	-0,027
-333,489	387,890	-0,009	-0,014
-332,475	-200,000	-0,019	-0,068
-331,460	-197,311	0,080	-0,000
-330,445	226,009	-0,010	0,012
-329,431	-50,354	0,113	-0,039
-328,416	50,925	0,090	0,062
-327,402	-169,472	-0,038	-0,001
-326,387	-200,000	0,000	-0,018
-325,372	-200,000	0,009	-0,048
-324,358	151,237	-0,065	-0,065
-323,343	-6,850	-0,089	-0,044
-322,329	-76,002	0,093	-0,024
-321,314	261,230	-0,056	0,071
-320,299	-111,115	0,051	0,008
-319,285	-200,000	0,019	0,065
-318,270	800,000	-0,024	-0,070
-317,256	-53,183	0,180	0,060
-316,241	105,573	-0,060	-0,052
-315,226	33,656	0,152	0,096
-314,212	15,392	0,082	-0,047
-313,197	-200,000	0,002	-0,034
-312,183	-200,000	0,003	-0,105
-311,168	-200,000	0,017	0,085
-310,153	12,958	0,072	-0,040
-309,139	-79,463	-0,065	-0,016
-308,124	-200,000	0,002	-0,029
-307,110	-30,536	0,056	-0,023
-306,095	186,192	0,114	0,124
-305,080	800,000	0,004	0,012
-304,066	91,358	-0,126	0,103
-303,051	-148,707	-0,074	0,004
-302,037	330,279	0,035	0,050
-301,022	800,000	0,028	-0,083
-300,008	-92,440	0,079	-0,016
-298,993	419,302	0,069	0,108
-297,978	13,029	-0,150	0,084
-296,964	21,149	-0,085	-0,050
-295,949	800,000	0,093	-0,213
-294,935	-200,000	0,005	-0,102
-293,920	-200,000	0,018	-0,072
-292,905	412,057	-0,013	-0,020
-291,891	313,766	-0,010	-0,013
-290,876	800,000	0,012	0,039
-289,862	-115,930	-0,071	-0,010
-288,847	-12,744	-0,035	-0,017
-287,832	388,867	-0,026	0,039
-286,818	436,251	0,042	0,067
-285,803	-66,114	0,141	0,041
-284,789	-31,370	-0,103	0,042
-283,774	-13,975	-0,113	0,053
-282,759	242,890	0,057	0,070
-281,745	-163,182	-0,160	-0,005
-280,730	800,000	-0,037	0,075
-279,716	364,905	0,075	-0,110
-278,701	800,000	0,050	0,132
-277,686	143,944	0,153	0,149
-276,672	-65,350	0,064	-0,019
-275,657	542,914	0,032	0,056
-274,643	254,752	-0,055	-0,068
-273,628	-68,909	-0,086	0,024
-272,613	265,114	0,072	-0,092
-271,599	392,890	0,004	-0,006
-270,584	253,284	-0,045	0,056
-269,570	-200,000	-0,003	0,056
-268,555	24,418	-0,050	0,030
-267,540	800,000	-0,040	-0,108
-266,526	-69,709	-0,087	-0,024
-265,511	-200,000	0,037	-0,126
-264,497	-200,000	0,020	0,080
-263,482	217,829	0,063	0,073
-262,467	800,000	-0,031	0,077
-261,453	-200,000	-0,003	0,044
-260,438	-39,913	0,097	-0,037
-259,424	142,537	0,100	-0,097
-258,409	-200,000	0,020	-0,138
-257,395	295,683	-0,066	0,088
-256,380	27,601	0,151	0,093
-255,365	81,085	-0,053	-0,041
-254,351	800,000	-0,016	-0,037
-253,336	-0,969	-0,048	0,024
-252,322	800,000	-0,040	-0,118
-251,307	260,746	0,071	-0,089
-250,292	217,629	-0,085	-0,099
-249,278	-68,090	0,126	-0,036
-248,263	-200,000	0,006	0,024
-247,249	-200,000	-0,007	-0,091
-246,234	-58,630	-0,014	0,005
-245,219	253,177	-0,104	-0,129
-244,205	-19,648	-0,038	0,017
-243,190	88,635	-0,033	0,027
-242,176	124,365	0,102	0,093
-241,161	7,520	-0,028	0,015
-240,146	-7,661	0,035	0,017
-239,132	-200,000	0,031	0,154
-238,117	80,292	-0,049	-0,038
-237,103	-200,000	0,006	-0,088
-236,088	-28,339	0,059	-0,025
-235,073	696,773	0,061	-0,117
-234,059	-188,122	0,032	0,000
-233,044	360,050	0,071	0,104
-232,030	-17,072	-0,112	-0,051
-231,015	800,000	0,020	-0,054
-230,000	-200,000	0,004	0,030
-228,986	-24,773	-0,081	0,035
-227,971	-125,017	0,061	0,007
-226,957	-200,000	0,003	0,110
-225,942	-200,000	-0,004	0,081
-224,927	28,741	0,032	0,019
-223,913	236,238	0,047	-0,057
-222,898	-21,531	-0,135	0,059
-221,884	58,533	-0,043	0,031
-220,869	-123,292	0,173	0,020
-219,855	-12,399	0,113	-0,053
-218,840	-200,000	-0,016	0,102
-217,825	19,012	0,010	0,006
-216,811	734,842	-0,029	0,057
-215,796	247,386	-0,102	0,126
-214,782	426,779	-0,019	-0,029
-213,767	194,792	-0,108	0,119
-212,752	-44,164	-0,061	-0,022
-211,738	-200,000	-0,007	-0,072
-210,723	63,326	0,115	0,083
-209,709	-28,837	-0,079	-0,033
-208,694	-200,000	0,004	-0,048
-207,679	-122,522	-0,062	-0,007
-206,665	338,167	0,012	0,016
-205,650	-200,000	0,003	-0,028
-204,636	-136,842	0,157	-0,013
-203,621	-200,000	0,002	-0,091
-202,606	-106,886	0,076	0,012
-201,592	800,000	-0,041	-0,111
-200,577	800,000	0,029	-0,070
-199,563	32,004	0,033	0,021
-198,548	-39,637	0,103	0,039
-197,533	268,246	0,036	0,045
-196,519	117,219	-0,039	-0,035
-195,504	688,920	-0,062	-0,118
-194,490	131,932	0,077	-0,072
-193,475	323,588	-0,064	-0,088
-192,460	-137,179	0,077	0,006
-191,446	43,215	-0,119	0,079
-190,431	31,953	0,153	-0,096
-189,417	-200,000	-0,002	0,096
-188,402	-200,000	0,016	-0,055
-187,387	-200,000	-0,004	0,087
-186,373	-111,289	-0,043	0,006
-185,358	-200,000	-0,012	-0,053
-184,344	-70,027	0,046	-0,013
-183,329	-200,000	-0,010	0,118
-182,315	800,000	-0,017	0,051
-181,300	550,412	0,076	0,132
-180,285	-143,699	0,073	-0,005
-179,271	-200,000	0,003	-0,247
-178,256	50,092	-0,051	0,035
-177,242	800,000	0,044	0,098
-176,227	-131,249	0,047	0,004
-175,212	-200,000	-0,010	-0,099
-174,198	467,895	-0,045	-0,073
-173,183	-200,000	0,008	-0,043
-172,169	83,427	0,031	0,024
-171,154	62,246	-0,084	-0,060
-170,139	459,461	-0,063	0,102
-169,125	26,770	0,093	0,056
-168,110	-200,000	-0,041	0,143
-167,096	-200,000	-0,006	0,040
-166,081	396,024	-0,069	-0,105
-165,066	-200,000	-0,030	-0,100
-164,052	17,924	-0,072	-0,042
-163,037	230,149	-0,061	-0,073
-162,023	-27,466	0,105	-0,044
-161,008	754,802	-0,035	-0,069
-159,993	513,152	-0,065	-0,111
-158,979	-81,312	-0,081	0,019
-157,964	-200,000	-0,001	-0,040
-156,950	-200,000	-0,029	-0,115
-155,935	-73,797	0,088	-0,023
-154,920	-75,829	0,178	0,045
-153,906	-200,000	0,015	-0,085
-152,891	-54,515	0,117	0,038
-151,877	65,467	-0,116	0,085
-150,862	142,045	-0,081	-0,078
-149,847	3,405	0,051	0,027
-148,833	800,000	0,011	0,022
-147,818	800,000	0,033	0,074
-146,804	-12,561	-0,091	0,043
-145,789	304,211	0,076	0,102
-144,775	-104,032	0,031	-0,005
-143,760	318,785	0,075	0,103
-142,745	-200,000	0,018	-0,162
-141,731	-31,184	0,058	-0,024
-140,716	-12,263	-0,121	0,057
-139,702	327,115	0,057	0,079
-138,687	523,634	-0,097	0,165
-137,672	267,909	-0,059	0,075
-136,658	-32,716	0,092	-0,037
-135,643	89,754	0,070	0,056
-134,629	212,551	-0,097	0,111
-133,614	147,854	0,045	-0,044
-132,599	-150,640	0,127	0,007
-131,585	225,467	0,031	-0,037
-130,570	-92,651	-0,165	-0,033
-129,556	516,810	0,054	-0,092
-128,541	45,783	-0,124	-0,083
-127,526	-98,648	0,097	-0,018
-126,512	48,248	-0,071	0,048
-125,497	-200,000	0,027	0,098
-124,483	800,000	-0,061	-0,135
-123,468	800,000	-0,012	0,026
-122,453	-200,000	-0,009	-0,189
-121,439	-138,609	-0,091	-0,007
-120,424	-144,320	-0,101	-0,007
-119,410	19,049	0,042	0,025
-118,395	-200,000	-0,026	0,169
-117,380	-200,000	-0,000	0,077
-116,366	297,061	-0,065	-0,086
-115,351	800,000	-0,045	0,106
-114,337	188,255	-0,075	0,081
-113,322	8,003	-0,112	0,061
-112,307	-200,000	-0,010	0,042
-111,293	-134,795	0,115	0,010
-110,278	-182,470	-0,061	-0,001
-109,264	1,373	-0,041	-0,021
-108,249	800,000	0,023	-0,072
-107,234	-200,000	-0,037	0,209
-106,220	246,281	-0,128	0,156
-105,205	76,929	-0,022	-0,017
-104,191	800,000	-0,017	-0,036
-103,176	-200,000	0,052	0,177
-102,162	43,292	0,064	0,043
-101,147	198,671	0,081	-0,090
-100,132	480,796	-0,063	0,104
-99,118	422,825	0,020	0,032
-98,103	545,346	0,038	-0,066
-97,089	-27,031	0,217	0,091
-96,074	-200,000	0,029	0,124
-95,059	-116,006	-0,042	0,006
-94,045	321,000	-0,048	0,066
-93,030	-17,276	-0,044	0,020
-92,016	-200,000	0,012	0,082
-91,001	162,172	0,044	0,045
-89,986	251,605	0,079	-0,097
-88,972	-200,000	-0,010	0,054
-87,957	-6,721	-0,173	-0,085
-86,943	150,729	-0,101	-0,099
-85,928	800,000	-0,119	-0,242
-84,913	800,000	0,023	-0,058
-83,899	174,237	0,109	-0,114
-82,884	541,621	-0,018	0,031
-81,870	412,757	0,057	0,088
-80,855	800,000	0,032	0,069
-79,840	-200,000	0,006	-0,042
-78,826	28,580	-0,041	0,025
-77,811	-51,534	-0,068	0,023
-76,797	-182,055	-0,039	-0,001
-75,782	569,979	0,045	0,080
-74,767	281,960	0,080	0,103
-73,753	-200,000	0,008	0,224
-72,738	534,469	0,063	0,108
-71,724	588,028	0,074	0,131
-70,709	-11,347	-0,094	0,044
-69,694	487,642	0,030	0,050
-68,680	800,000	-0,050	-0,113
-67,665	-22,168	0,088	0,038
-66,651	-82,209	0,034	0,008
-65,636	-75,457	0,108	-0,028
-64,622	800,000	0,012	-0,024
-63,607	696,720	-0,036	-0,070
-62,592	217,347	0,094	-0,108
-61,578	275,239	-0,009	0,011
-60,563	86,718	0,121	0,096
-59,549	727,519	-0,050	0,096
-58,534	-63,760	-1,702	-0,500
-57,519	584,235	-0,594	-1,059
-56,505	-200,000	-1,255	-4,822
-55,490	-138,355	0,579	-0,045
-54,476	800,000	5,297	12,327
-53,461	-200,000	15,857	278,474
-52,446	-200,000	702,468	2249,478
-51,432	566,379	1618,419	2846,497
-50,417	122,166	1622,953	1463,293
-49,403	82,892	1283,942	1007,071
-48,388	36,957	1028,260	655,247
-47,373	21,534	990,096	579,927
-46,359	20,427	978,982	569,743
-45,344	18,735	974,656	561,641
-44,330	18,840	973,275	561,167
-43,315	18,602	971,679	559,443
-42,300	18,520	970,565	558,510
-41,286	18,454	969,760	557,811
-40,271	18,483	968,689	557,267
-39,257	18,575	967,710	556,982
-38,242	18,540	967,021	556,449
-37,227	18,503	966,221	555,844
-36,213	18,494	965,415	555,332
-35,198	18,479	964,549	554,762
-34,184	18,499	963,814	554,382
-33,169	18,472	962,784	553,681
-32,154	18,572	962,038	553,553
-31,140	18,552	961,031	552,887
-30,125	18,541	960,243	552,376
-29,111	18,540	959,493	551,920
-28,096	18,518	959,240	551,681
-27,082	18,534	958,195	551,109
-26,067	18,467	957,624	550,543
-25,052	18,457	956,898	550,070
-24,038	18,518	955,903	549,675
-23,023	18,477	955,321	549,186
-22,009	18,543	954,525	548,920
-20,994	18,511	954,124	548,562
-19,979	18,578	953,393	548,338
-18,965	18,542	952,860	547,893
-17,950	18,493	952,261	547,369
-16,936	18,413	951,630	546,730
-15,921	18,466	950,879	546,447
-14,906	18,344	950,176	545,629
-13,892	18,457	949,415	545,531
-12,877	18,411	948,791	545,005
-11,863	18,416	948,275	544,703
-10,848	18,406	947,725	544,333
-9,833	18,476	947,205	544,235
-8,819	18,444	946,547	543,735
-7,804	18,373	945,851	543,087
-6,790	18,369	945,553	542,880
-5,775	18,433	944,732	542,592
-4,760	18,385	944,166	542,093
-3,746	18,389	943,643	541,784
-2,731	18,252	942,932	540,917
-1,717	18,229	942,118	540,357
-0,702	18,224	941,413	539,914
0,313	18,080	940,746	539,890
1,327	21,203	939,076	548,775
2,342	30,351	796,519	489,835
3,356	27,505	449,624	272,209
4,371	-2,496	295,682	148,905
5,386	-6,548	276,972	135,615
6,400	-7,795	271,241	131,634
7,415	-8,423	269,035	129,970
8,429	-8,046	267,565	129,596
9,444	-7,982	266,699	129,224
10,459	-7,913	266,050	128,960
11,473	-8,059	265,685	128,639
12,488	-8,197	264,860	128,102
13,502	-8,412	264,355	127,651
14,517	-8,325	263,930	127,513
15,531	-8,417	263,550	127,234
16,546	-8,166	263,146	127,255
17,561	-8,203	262,703	126,997
18,575	-8,145	262,524	126,952
19,590	-8,373	262,196	126,576
20,604	-8,414	262,041	126,453
21,619	-8,419	261,663	126,254
22,634	-8,361	261,109	126,028
23,648	-8,449	260,937	125,855
24,663	-8,434	260,660	125,723
25,677	-8,578	260,421	125,468
26,692	-8,484	260,052	125,363
27,707	-8,488	259,915	125,283
28,721	-8,410	259,481	125,132
29,736	-8,509	259,271	124,931
30,750	-8,432	259,071	124,892
31,765	-8,598	258,759	124,583
32,780	-8,575	258,647	124,538
33,794	-8,346	258,182	124,506
34,809	-8,561	258,024	124,228
35,823	-8,508	257,948	124,228
36,838	-8,633	257,572	123,925
37,853	-8,622	257,411	123,846
38,867	-8,520	257,209	123,828
39,882	-8,661	256,981	123,583
40,896	-8,571	256,588	123,462
41,911	-8,455	256,424	123,475
42,926	-8,546	256,181	123,267
43,940	-8,579	255,974	123,127
44,955	-8,527	255,725	123,042
45,969	-8,706	255,486	122,759
46,984	-8,758	255,260	122,593
47,999	-8,996	254,939	122,221
49,013	-8,965	254,606	122,077
50,028	-9,390	254,516	121,652
51,042	-9,267	254,268	121,630
52,057	-9,259	253,904	121,453
53,071	-9,308	253,978	121,434
54,086	-9,192	253,571	121,330
55,101	-9,056	253,532	121,418
56,115	-8,899	253,465	121,512
57,130	-8,509	253,247	121,735
58,144	-8,275	253,214	121,911
59,159	-8,334	252,891	121,693
60,174	-8,314	252,618	121,568
61,188	-8,221	252,433	121,549
62,203	-8,404	252,314	121,323
63,217	-8,428	252,073	121,175
64,232	-8,478	251,684	120,935
65,247	-8,378	251,662	120,999
66,261	-8,320	251,447	120,936
67,276	-8,526	251,035	120,549
68,290	-8,926	250,861	120,111
69,305	-8,912	250,536	119,957
70,320	-8,809	250,354	119,948
71,334	-8,728	250,339	119,999
72,349	-8,227	250,251	120,375
73,363	-8,220	249,913	120,208
74,378	-8,332	249,844	120,068
75,393	-8,512	249,491	119,734
76,407	-8,450	249,369	119,718
77,422	-8,486	249,037	119,518
78,436	-8,560	248,952	119,403
79,451	-8,320	248,733	119,491
80,466	-8,466	248,444	119,218
81,480	-8,802	248,351	118,877
82,495	-8,790	247,978	118,698
83,509	-8,586	247,811	118,780
84,524	-8,867	247,649	118,454
85,539	-8,861	247,421	118,339
86,553	-9,030	247,372	118,163
87,568	-8,727	247,161	118,308
88,582	-8,647	246,994	118,285
89,597	-8,755	246,684	118,035
90,611	-8,591	246,624	118,134
91,626	-8,656	246,526	118,021
92,641	-8,436	246,288	118,082
93,655	-8,444	245,988	117,921
94,670	-8,532	245,711	117,703
95,684	-8,641	245,696	117,594
96,699	-8,518	245,497	117,591
97,714	-8,615	245,238	117,376
98,728	-8,630	245,064	117,270
99,743	-8,957	244,887	116,901
100,757	-8,967	244,746	116,815
101,772	-8,770	244,399	116,803
102,787	-8,554	244,348	116,949
103,801	-8,793	244,176	116,657
104,816	-8,803	244,103	116,603
105,830	-8,547	243,813	116,667
106,845	-8,329	243,692	116,781
107,860	-8,398	243,360	116,554
108,874	-8,617	243,254	116,310
109,889	-8,727	243,000	116,088
110,903	-8,678	242,962	116,100
111,918	-8,747	242,718	115,915
112,933	-8,738	242,591	115,852
113,947	-8,562	242,410	115,901
114,962	-8,478	242,135	115,828
115,976	-8,554	242,028	115,704
116,991	-8,656	241,985	115,589
118,006	-8,378	241,725	115,684
119,020	-8,686	241,683	115,400
120,035	-8,463	241,535	115,502
121,049	-8,372	241,246	115,428
122,064	-8,323	241,081	115,379
123,079	-8,471	240,847	115,135
124,093	-8,735	240,645	114,813
125,108	-8,782	240,415	114,654
126,122	-8,925	240,208	114,428
127,137	-8,874	240,003	114,362
128,151	-9,091	239,868	114,110
129,166	-8,928	239,695	114,151
130,181	-8,862	239,504	114,103
131,195	-8,859	239,327	114,011
132,210	-8,710	239,119	114,024
133,224	-8,619	239,030	114,045
134,239	-8,525	238,870	114,035
135,254	-8,691	238,832	113,871
136,268	-8,714	238,416	113,644
137,283	-8,941	238,198	113,346
138,297	-8,871	237,953	113,276
139,312	-9,015	237,768	113,062
140,327	-8,517	237,661	113,403
141,341	-8,140	237,730	113,731
142,356	-8,225	237,699	113,637
143,370	-8,160	237,431	113,551
144,385	-8,148	237,346	113,510
145,400	-8,237	237,190	113,353
146,414	-8,249	237,049	113,267
147,429	-8,353	236,743	113,026
148,443	-8,169	236,554	113,074
149,458	-8,233	236,438	112,958
150,473	-8,223	236,267	112,873
151,487	-8,322	236,041	112,676
152,502	-8,343	235,946	112,604
153,516	-8,148	235,701	112,633
154,531	-8,240	235,612	112,507
155,546	-8,207	235,381	112,413
156,560	-8,435	235,248	112,157
157,575	-8,265	234,988	112,159
158,589	-8,387	234,779	111,952
159,604	-8,083	234,654	112,124
160,619	-8,070	234,523	112,062
161,633	-8,180	234,472	111,940
162,648	-7,866	234,325	112,110
163,662	-8,128	234,101	111,784
164,677	-8,316	233,878	111,519
165,692	-8,117	233,741	111,601
166,706	-8,033	233,646	111,613
167,721	-7,976	233,438	111,549
168,735	-8,017	233,352	111,465
169,750	-8,303	233,316	111,211
170,764	-8,151	233,131	111,234
171,779	-8,242	232,850	111,018
172,794	-8,021	232,788	111,153
173,808	-8,322	232,614	110,823
174,823	-8,670	232,253	110,367
175,837	-8,986	231,945	109,962
176,852	-8,538	232,022	110,341
177,867	-8,238	231,869	110,494
178,881	-8,351	231,906	110,413
179,896	-8,314	231,661	110,316
180,910	-7,990	231,390	110,431
181,925	-8,356	231,318	110,099
182,940	-8,102	231,140	110,204
183,954	-7,988	230,999	110,216
184,969	-8,074	230,929	110,105
185,983	-7,897	230,939	110,239
186,998	-8,050	230,712	110,001
188,013	-8,002	230,455	109,907
189,027	-7,971	230,319	109,856
190,042	-8,033	230,056	109,672
191,056	-7,860	229,884	109,715
192,071	-7,856	229,830	109,683
193,086	-8,087	229,653	109,409
194,100	-7,843	229,428	109,482
195,115	-8,189	229,269	109,127
196,129	-8,390	229,009	108,838
197,144	-3,834	230,542	113,108
198,159	1,414	232,118	117,977
199,173	3,429	232,339	119,654
200,188	3,438	232,335	119,648
201,202	3,467	232,275	119,629
202,217	3,667	232,289	119,782
203,232	3,871	232,193	119,880
204,246	3,993	232,035	119,883
205,261	3,943	231,976	119,803
206,275	4,271	231,824	119,969
207,290	4,411	231,564	119,932
208,304	4,408	231,384	119,826
209,319	4,034	231,350	119,508
210,334	4,056	231,074	119,371
211,348	3,978	230,785	119,151
212,363	3,622	230,657	118,799
213,377	3,341	230,274	118,374
214,392	3,471	230,236	118,445
215,407	3,427	230,145	118,353
216,421	3,552	229,989	118,359
217,436	3,255	229,899	118,073
218,450	3,083	229,484	117,716
219,465	3,393	229,435	117,919
220,480	3,222	229,256	117,686
221,494	3,087	229,174	117,529
222,509	3,379	229,130	117,721
223,523	3,449	228,765	117,576
224,538	3,241	228,769	117,408
225,553	3,343	228,613	117,396
226,567	3,606	228,448	117,502
227,582	3,831	228,437	117,659
228,596	3,879	228,275	117,601
229,611	3,563	228,020	117,218
230,626	3,226	227,766	116,819
231,640	3,265	227,639	116,774
232,655	3,547	227,551	116,934
233,669	3,903	227,538	117,187
234,684	4,197	227,443	117,352
235,699	3,575	227,340	116,815
236,713	3,714	227,062	116,767
237,728	3,485	226,884	116,491
238,742	3,419	226,644	116,307
239,757	3,287	226,568	116,158
240,772	3,348	226,410	116,112
241,786	3,387	226,155	116,001
242,801	3,514	226,154	116,087
243,815	3,590	226,226	116,171
244,830	3,647	225,975	116,074
245,844	3,504	225,771	115,851
246,859	3,592	225,491	115,764
247,874	3,521	225,505	115,707
248,888	3,428	225,280	115,511
249,903	3,489	225,066	115,437
250,917	3,469	224,985	115,370
251,932	3,327	224,821	115,169
252,947	3,319	224,661	115,071
253,961	3,339	224,457	114,971
254,976	3,494	224,377	115,036
255,990	3,598	224,239	115,033
257,005	3,241	224,235	114,753
258,020	3,508	224,273	114,962
259,034	3,758	224,004	115,002
260,049	3,779	223,685	114,844
261,063	3,445	223,686	114,584
262,078	3,642	223,404	114,577
263,093	3,787	223,401	114,673
264,107	3,766	223,001	114,441
265,122	3,762	222,913	114,383
266,136	4,022	222,911	114,565
267,151	4,003	222,648	114,406
268,166	3,405	222,442	113,846
269,180	3,197	222,200	113,557
270,195	3,391	222,158	113,670
271,209	3,330	221,988	113,527
272,224	3,513	221,768	113,540
273,239	3,509	221,804	113,546
274,253	3,201	221,561	113,183
275,268	3,196	221,410	113,092
276,282	2,984	221,384	112,913
277,297	3,187	221,210	112,964
278,312	3,038	221,022	112,747
279,326	3,250	220,881	112,822
280,341	3,525	220,791	112,968
281,355	3,480	220,675	112,866
282,370	3,491	220,442	112,745
283,384	3,113	220,366	112,418
284,399	2,869	220,160	112,123
285,414	3,096	219,988	112,192
286,428	3,633	219,836	112,499
287,443	3,504	219,957	112,455
288,457	3,261	219,813	112,194
289,472	3,569	219,449	112,224
290,487	2,879	219,292	111,629
291,501	2,849	218,941	111,418
292,516	2,997	218,932	111,512
293,530	3,120	218,926	111,589
294,545	3,160	218,749	111,517
295,560	3,373	218,565	111,569
296,574	3,359	218,474	111,503
297,589	3,266	218,386	111,380
298,603	3,581	218,246	111,527
299,618	3,494	218,144	111,402
300,633	3,456	218,128	111,357
301,647	3,710	217,994	111,462
302,662	3,715	217,705	111,309
303,676	3,822	217,701	111,374
304,691	3,715	217,483	111,175
305,706	3,659	217,308	111,035
306,720	3,644	217,196	110,957
307,735	3,484	217,006	110,735
308,749	3,077	216,907	110,381
309,764	3,565	216,708	110,621
310,779	3,525	216,614	110,535
311,793	3,441	216,373	110,342
312,808	3,570	216,386	110,431
313,822	3,758	216,159	110,440
314,837	3,359	216,092	110,110
315,852	3,425	215,728	109,962
316,866	3,469	215,711	109,975
317,881	3,657	215,597	110,042
318,895	3,927	215,469	110,160
319,910	3,619	215,272	109,829
320,925	3,301	215,064	109,486
321,939	2,857	214,932	109,091
322,954	3,089	214,926	109,244
323,968	3,630	214,799	109,557
324,983	3,360	214,749	109,329
325,997	3,813	214,624	109,578
327,012	3,534	214,349	109,230
328,027	3,484	214,300	109,159
329,041	3,614	214,348	109,266
330,056	3,981	214,031	109,356
331,070	3,619	213,816	108,979
332,085	3,256	213,716	108,661
333,100	3,341	213,548	108,626
334,114	3,360	213,479	108,594
335,129	3,495	213,283	108,581
336,143	3,151	213,074	108,221
337,158	3,101	213,139	108,209
338,173	3,414	213,014	108,357
339,187	3,259	212,628	108,042
340,202	3,184	212,606	107,969
341,216	3,048	212,323	107,719
342,231	3,371	212,209	107,879
343,246	3,150	212,126	107,672
344,260	3,169	211,994	107,609
345,275	3,111	212,010	107,566
346,289	3,431	211,827	107,689
347,304	3,386	211,718	107,592
348,319	3,316	211,571	107,459
349,333	3,304	211,380	107,344
350,348	3,449	211,299	107,395
351,362	3,723	211,254	107,554
352,377	3,872	211,028	107,533
353,392	3,637	210,792	107,240
354,406	3,514	210,697	107,096
355,421	194,694	1342,678	1426,465
356,435	155,455	1480,626	1426,503
