DTS Sentinel unit serial number:	SN410029Multiplexer serial number:	ORYXHardware model number:	OX2-SRSoftware version number:	ORYX F/W v4,00 Oryx Data Collector v3.7.2.0data status	okinstallation	B6 Nyhavnadifferential loss correction	single-endedforward channel	channel 2reverse channel	N/Adate	2023/12/09time	00:50:08forward acquisition time	300,00reverse acquisition time	0,00gamma	499,1914k internal	0,3156k external	0,3156temperature offset calibration	1,0000default loss term (dB/km)	0,3820temperature slope calibration	1,0000multiplexer offset coefficient	1,0000multiplexer slope coefficient	1,0000fibre end	0,00T internal ref (°C)	15,64T ext. ref 1 (°C)	-0,71T ext. ref 2 (°C)	-0,69length (m)	temperature (°C)	Stokes	anti-Stokes-744,400	5,319	-0,003	-0,002
-743,385	-123,913	-0,405	0,047
-742,371	133,646	0,162	0,154
-741,356	-136,618	-0,254	-0,021
-740,342	506,843	0,084	0,144
-739,327	-106,796	-0,269	0,044
-738,312	800,000	-0,083	-0,200
-737,298	-129,914	-0,216	-0,022
-736,283	716,237	0,075	0,148
-735,269	-80,658	-0,281	-0,068
-734,254	-15,815	0,090	0,042
-733,239	-74,849	-0,553	-0,145
-732,225	87,653	0,117	0,095
-731,210	800,000	0,067	0,144
-730,196	800,000	-0,034	0,071
-729,181	115,213	-0,034	-0,031
-728,167	800,000	-0,021	-0,063
-727,152	-91,960	0,051	0,010
-726,137	540,851	-0,074	-0,131
-725,123	-12,483	-0,170	-0,081
-724,108	366,364	-0,060	-0,090
-723,094	-200,000	-0,001	-0,095
-722,079	437,927	0,040	-0,065
-721,064	-4,184	-0,089	0,045
-720,050	-175,960	-0,095	0,002
-719,035	-200,000	-0,025	0,139
-718,021	-129,423	-0,080	-0,008
-717,006	-150,958	-0,047	-0,003
-715,991	746,234	0,064	0,128
-714,977	-67,743	-0,181	-0,052
-713,962	800,000	0,047	-0,117
-712,948	-200,000	-0,003	0,114
-711,933	-200,000	0,015	-0,059
-710,918	-200,000	0,001	-0,067
-709,904	54,542	-0,100	-0,071
-708,889	116,328	-0,093	-0,084
-707,875	800,000	-0,051	-0,122
-706,860	772,881	-0,034	-0,069
-705,845	11,118	0,086	0,049
-704,831	-142,328	0,039	0,003
-703,816	-200,000	0,020	-0,130
-702,802	633,940	0,033	-0,061
-701,787	800,000	-0,056	-0,121
-700,772	800,000	0,022	0,051
-699,758	252,008	0,060	-0,075
-698,743	-46,295	0,070	-0,025
-697,729	441,872	0,053	0,086
-696,714	219,164	-0,091	0,107
-695,699	106,922	-0,128	-0,112
-694,685	-139,483	-0,171	0,013
-693,670	-200,000	-0,008	-0,103
-692,656	-114,495	-0,167	-0,023
-691,641	747,772	0,045	0,089
-690,627	-37,133	0,069	-0,027
-689,612	-1,560	0,075	0,039
-688,597	104,992	-0,033	0,029
-687,583	303,802	-0,079	-0,108
-686,568	800,000	-0,037	-0,089
-685,554	128,845	0,046	0,043
-684,539	370,339	0,026	0,039
-683,524	442,681	0,081	-0,131
-682,510	-200,000	0,001	0,043
-681,495	-200,000	-0,003	-0,105
-680,481	430,793	-0,048	-0,077
-679,466	-47,196	-0,226	-0,081
-678,451	-25,414	-0,050	0,022
-677,437	800,000	-0,034	0,083
-676,422	723,128	-0,042	0,083
-675,408	100,539	-0,186	-0,159
-674,393	56,453	-0,019	-0,013
-673,378	-200,000	0,020	-0,174
-672,364	-2,321	-0,127	0,065
-671,349	62,370	0,137	-0,100
-670,335	57,726	-0,084	-0,060
-669,320	-102,951	0,103	-0,018
-668,305	354,559	-0,070	0,103
-667,291	-200,000	0,006	-0,031
-666,276	288,868	-0,062	0,082
-665,262	-111,710	-0,122	-0,018
-664,247	536,212	-0,107	-0,187
-663,232	-86,267	-0,079	-0,018
-662,218	748,635	-0,004	-0,008
-661,203	74,849	-0,071	0,055
-660,189	568,095	-0,038	-0,069
-659,174	-21,392	0,032	-0,014
-658,159	800,000	-0,023	-0,059
-657,145	800,000	-0,019	-0,058
-656,130	-68,066	-0,077	0,022
-655,116	-149,038	0,051	-0,003
-654,101	800,000	0,027	0,077
-653,086	-200,000	0,006	0,081
-652,072	325,569	0,056	-0,079
-651,057	800,000	-0,018	-0,053
-650,043	-200,000	0,024	0,113
-649,028	-200,000	-0,002	-0,032
-648,014	-200,000	-0,005	0,096
-646,999	185,510	0,029	0,032
-645,984	6,419	-0,074	-0,040
-644,970	98,333	-0,048	-0,040
-643,955	-200,000	-0,018	-0,088
-642,941	-200,000	-0,001	-0,052
-641,926	-75,917	-0,123	0,032
-640,911	-43,786	0,063	-0,023
-639,897	-67,989	-0,057	-0,016
-638,882	800,000	0,009	0,022
-637,868	244,127	-0,106	0,131
-636,853	-90,339	-0,034	-0,007
-635,838	697,651	-0,019	0,036
-634,824	295,350	-0,034	0,046
-633,809	97,366	0,111	0,094
-632,795	-149,763	0,080	-0,005
-631,780	-30,670	-0,022	0,009
-630,765	82,100	0,081	0,065
-629,751	40,213	0,042	0,028
-628,736	-200,000	-0,015	-0,074
-627,722	62,539	0,030	0,022
-626,707	800,000	-0,013	-0,039
-625,692	-200,000	0,040	0,166
-624,678	-200,000	-0,010	0,166
-623,663	800,000	0,025	0,078
-622,649	60,330	-0,121	-0,088
-621,634	-131,436	-0,151	0,014
-620,619	59,964	0,081	-0,059
-619,605	281,984	0,057	0,076
-618,590	42,499	0,063	0,042
-617,576	-183,347	-0,130	-0,002
-616,561	-200,000	-0,015	0,093
-615,546	-200,000	-0,022	-0,108
-614,532	-200,000	0,002	0,078
-613,517	-200,000	-0,003	0,041
-612,503	288,605	-0,078	-0,104
-611,488	800,000	-0,033	-0,096
-610,474	79,629	0,074	0,058
-609,459	472,895	-0,069	-0,114
-608,444	330,595	0,061	0,087
-607,430	14,137	0,007	0,004
-606,415	-200,000	-0,034	-0,134
-605,401	225,131	-0,032	0,037
-604,386	-19,192	0,070	0,032
-603,371	-200,000	0,042	0,138
-602,357	328,565	-0,025	-0,035
-601,342	-36,696	0,131	-0,051
-600,328	661,904	-0,041	0,078
-599,313	-200,000	-0,006	-0,084
-598,298	73,471	-0,032	-0,025
-597,284	-50,216	0,091	0,031
-596,269	482,453	0,077	0,128
-595,255	-200,000	-0,025	0,131
-594,240	-200,000	-0,003	-0,080
-593,225	86,499	-0,169	-0,136
-592,211	-71,998	0,091	-0,025
-591,196	6,106	-0,083	0,045
-590,182	-109,581	-0,010	0,001
-589,167	69,165	0,011	-0,009
-588,152	-127,960	-0,100	-0,010
-587,138	-67,423	-0,126	-0,036
-586,123	-200,000	0,001	0,019
-585,109	800,000	0,016	-0,051
-584,094	171,113	-0,079	-0,083
-583,079	800,000	0,049	-0,112
-582,065	120,530	-0,032	0,029
-581,050	-102,242	0,070	-0,012
-580,036	-200,000	0,027	-0,139
-579,021	800,000	0,052	-0,117
-578,006	-68,653	-0,027	-0,008
-576,992	-200,000	0,012	-0,064
-575,977	-200,000	-0,015	-0,114
-574,963	-200,000	-0,024	-0,089
-573,948	-200,000	0,006	0,097
-572,934	-200,000	0,009	0,042
-571,919	-200,000	-0,029	-0,127
-570,904	-80,194	-0,057	0,014
-569,890	-200,000	-0,026	-0,115
-568,875	514,270	0,017	-0,028
-567,861	42,112	0,053	-0,035
-566,846	-83,918	0,098	-0,023
-565,831	800,000	-0,045	-0,109
-564,817	-200,000	-0,014	0,060
-563,802	-200,000	-0,002	-0,051
-562,788	-200,000	-0,009	-0,149
-561,773	-200,000	-0,008	0,111
-560,758	222,855	0,040	0,047
-559,744	-200,000	0,007	-0,149
-558,729	291,216	0,034	0,045
-557,715	-200,000	-0,012	-0,088
-556,700	186,666	0,056	0,061
-555,685	-200,000	-0,025	-0,127
-554,671	61,705	0,093	0,068
-553,656	-200,000	0,025	0,099
-552,642	405,222	-0,040	-0,062
-551,627	-200,000	0,003	0,127
-550,612	107,739	0,030	-0,027
-549,598	-65,645	-0,090	-0,026
-548,583	-200,000	-0,028	-0,095
-547,569	-153,210	0,035	-0,002
-546,554	-200,000	-0,013	0,073
-545,539	-42,138	0,096	-0,036
-544,525	-200,000	-0,005	-0,151
-543,510	-4,024	0,085	0,043
-542,496	800,000	-0,019	-0,049
-541,481	-200,000	0,011	0,071
-540,466	-14,995	-0,039	-0,018
-539,452	800,000	0,026	0,075
-538,437	-68,529	0,123	0,035
-537,423	-67,369	-0,094	0,027
-536,408	-200,000	-0,001	0,010
-535,393	71,559	-0,076	0,058
-534,379	-12,177	-0,107	-0,051
-533,364	-200,000	-0,004	-0,076
-532,350	457,224	0,076	0,123
-531,335	-85,869	-0,048	0,011
-530,321	21,569	-0,098	-0,058
-529,306	-44,601	0,048	0,018
-528,291	-200,000	-0,023	-0,120
-527,277	102,915	-0,027	0,023
-526,262	800,000	-0,078	-0,162
-525,248	-200,000	-0,021	0,087
-524,233	-89,430	-0,105	-0,022
-523,218	-63,915	0,005	0,002
-522,204	246,807	-0,089	0,110
-521,189	65,216	-0,116	-0,085
-520,175	575,321	0,018	0,031
-519,160	155,792	-0,066	-0,067
-518,145	336,889	-0,099	0,141
-517,131	800,000	0,040	0,107
-516,116	800,000	0,030	-0,062
-515,102	186,445	-0,192	-0,209
-514,087	56,171	-0,059	0,042
-513,072	-200,000	-0,001	0,113
-512,058	172,430	-0,021	0,022
-511,043	8,321	0,068	0,037
-510,029	64,972	0,087	0,064
-509,014	-44,352	0,072	0,026
-507,999	800,000	0,016	0,048
-506,985	-200,000	-0,002	0,121
-505,970	66,614	-0,129	0,096
-504,956	800,000	-0,022	0,058
-503,941	800,000	-0,019	-0,051
-502,926	179,569	0,041	0,044
-501,912	168,934	0,034	0,036
-500,897	-200,000	-0,023	0,104
-499,883	800,000	-0,034	0,077
-498,868	-90,737	-0,146	0,031
-497,853	-118,829	-0,114	-0,014
-496,839	68,695	0,052	0,039
-495,824	6,994	0,085	0,046
-494,810	-200,000	-0,005	0,052
-493,795	19,500	0,039	-0,023
-492,781	800,000	-0,017	-0,054
-491,766	-47,878	-0,144	-0,051
-490,751	-200,000	-0,022	-0,098
-489,737	129,782	0,014	-0,013
-488,722	-82,804	0,037	0,009
-487,708	-200,000	0,022	-0,110
-486,693	-200,000	0,001	-0,120
-485,678	-200,000	0,013	-0,142
-484,664	375,973	0,028	-0,042
-483,649	184,863	0,075	0,082
-482,635	-200,000	-0,006	0,041
-481,620	307,912	0,034	0,047
-480,605	68,119	-0,060	-0,045
-479,591	371,028	0,083	0,124
-478,576	-200,000	0,019	0,089
-477,562	-22,550	-0,071	-0,031
-476,547	-200,000	-0,025	0,123
-475,532	100,680	0,078	-0,066
-474,518	-106,195	-0,019	-0,003
-473,503	-12,293	0,036	0,017
-472,489	111,677	-0,079	0,070
-471,474	249,250	-0,109	0,136
-470,459	-200,000	-0,006	0,062
-469,445	-200,000	0,004	-0,229
-468,430	173,010	-0,095	-0,100
-467,416	268,099	0,043	-0,056
-466,401	-142,427	0,089	-0,006
-465,386	-47,750	0,052	0,018
-464,372	512,948	0,026	-0,045
-463,357	800,000	-0,089	-0,190
-462,343	191,115	-0,058	0,064
-461,328	-30,552	0,045	0,019
-460,313	117,392	0,065	-0,058
-459,299	-93,221	0,056	0,011
-458,284	800,000	0,018	0,054
-457,270	346,830	0,026	-0,037
-456,255	800,000	-0,022	0,059
-455,241	-200,000	-0,016	-0,080
-454,226	355,848	-0,059	-0,086
-453,211	272,764	0,069	0,089
-452,197	-182,420	0,150	-0,002
-451,182	261,288	-0,009	0,012
-450,168	-200,000	-0,001	-0,034
-449,153	240,153	-0,062	0,075
-448,138	-109,366	-0,100	-0,015
-447,124	-132,352	-0,172	0,016
-446,109	627,861	-0,033	0,061
-445,095	15,771	0,137	0,078
-444,080	-108,111	0,196	-0,031
-443,065	800,000	-0,064	0,134
-442,051	-200,000	-0,018	0,080
-441,036	-200,000	-0,003	-0,064
-440,022	-138,475	0,061	0,005
-439,007	-200,000	-0,002	0,070
-437,992	800,000	0,046	-0,095
-436,978	-200,000	0,024	0,140
-435,963	-200,000	0,012	0,167
-434,949	-58,107	-0,017	-0,006
-433,934	-200,000	-0,015	-0,086
-432,919	55,560	0,029	-0,020
-431,905	800,000	-0,034	-0,091
-430,890	385,752	0,020	0,030
-429,876	-200,000	0,021	-0,089
-428,861	-200,000	-0,016	0,136
-427,846	354,066	-0,028	0,040
-426,832	-200,000	-0,019	-0,068
-425,817	-200,000	0,014	-0,117
-424,803	80,915	-0,047	0,037
-423,788	142,701	0,036	-0,035
-422,773	255,350	0,104	0,130
-421,759	7,722	-0,091	0,049
-420,744	193,448	0,024	0,026
-419,730	-170,262	0,130	-0,003
-418,715	-111,450	-0,071	0,010
-417,701	135,778	0,021	0,020
-416,686	-104,373	-0,053	0,009
-415,671	164,559	-0,002	0,002
-414,657	-18,575	-0,042	-0,019
-413,642	-200,000	0,025	-0,113
-412,628	-200,000	0,015	-0,087
-411,613	527,713	-0,138	-0,238
-410,598	-200,000	-0,011	0,051
-409,584	-200,000	0,011	-0,130
-408,569	-79,781	0,076	-0,018
-407,555	175,685	-0,080	-0,084
-406,540	150,682	0,108	-0,107
-405,525	-111,241	-0,075	0,011
-404,511	-200,000	0,029	-0,148
-403,496	68,258	0,146	-0,109
-402,482	57,375	0,101	-0,072
-401,467	27,755	-0,088	0,054
-400,452	800,000	0,028	0,082
-399,438	-65,196	0,040	-0,012
-398,423	66,763	-0,047	-0,035
-397,409	-200,000	0,005	-0,026
-396,394	800,000	-0,030	-0,069
-395,379	-147,568	0,109	0,007
-394,365	-81,560	-0,068	0,016
-393,350	190,529	-0,078	0,086
-392,336	-200,000	-0,009	0,074
-391,321	-200,000	0,005	0,075
-390,306	-200,000	-0,002	0,008
-389,292	-23,301	-0,040	0,017
-388,277	632,151	0,049	0,090
-387,263	133,769	-0,040	0,037
-386,248	800,000	0,032	-0,066
-385,233	-200,000	-0,002	0,134
-384,219	281,581	0,042	0,055
-383,204	103,517	0,025	0,021
-382,190	117,361	-0,069	-0,062
-381,175	-43,868	0,132	0,048
-380,160	530,320	-0,032	0,056
-379,146	84,889	0,141	0,112
-378,131	-200,000	-0,017	0,078
-377,117	-200,000	-0,003	-0,061
-376,102	-200,000	-0,030	-0,196
-375,088	-200,000	-0,001	-0,012
-374,073	-179,075	0,074	0,001
-373,058	-27,001	-0,075	0,032
-372,044	53,291	0,121	0,084
-371,029	-54,263	-0,033	0,011
-370,015	-200,000	0,002	-0,042
-369,000	659,088	0,086	-0,161
-367,985	-72,370	-0,043	0,011
-366,971	-200,000	0,013	0,068
-365,956	86,075	0,120	0,096
-364,942	-40,891	-0,139	-0,052
-363,927	-200,000	-0,020	0,119
-362,912	4,856	0,051	0,027
-361,898	36,331	-0,089	0,057
-360,883	-200,000	0,008	-0,155
-359,869	440,500	0,061	-0,097
-358,854	-79,064	0,082	-0,020
-357,839	-2,918	0,110	-0,056
-356,825	254,373	-0,045	-0,057
-355,810	228,191	0,058	0,069
-354,796	800,000	-0,021	-0,058
-353,781	441,922	0,093	-0,148
-352,766	167,374	-0,154	0,159
-351,752	87,283	0,038	-0,031
-350,737	522,715	-0,038	-0,065
-349,723	-200,000	0,004	0,017
-348,708	139,877	0,038	0,037
-347,693	252,118	0,054	0,067
-346,679	800,000	0,022	-0,070
-345,664	-39,138	-0,071	0,027
-344,650	800,000	-0,026	0,060
-343,635	-81,833	-0,042	0,010
-342,620	11,157	0,078	0,043
-341,606	-200,000	-0,030	-0,114
-340,591	-18,502	-0,090	-0,041
-339,577	800,000	-0,037	0,095
-338,562	-59,752	-0,118	0,036
-337,548	-49,526	0,037	-0,013
-336,533	-200,000	0,010	0,105
-335,518	800,000	-0,032	0,064
-334,504	27,537	0,090	-0,055
-333,489	-200,000	-0,010	-0,148
-332,475	800,000	-0,039	0,088
-331,460	28,228	0,066	-0,041
-330,445	107,656	0,091	0,079
-329,431	-47,723	0,044	0,016
-328,416	-200,000	0,002	-0,010
-327,402	800,000	0,045	0,119
-326,387	4,887	-0,053	-0,028
-325,372	76,461	-0,077	-0,059
-324,358	172,701	-0,009	0,009
-323,343	-200,000	-0,014	-0,056
-322,329	383,180	-0,042	-0,063
-321,314	-200,000	0,019	0,091
-320,299	-80,831	-0,120	0,029
-319,285	140,074	0,066	0,063
-318,270	800,000	0,082	-0,197
-317,256	-200,000	-0,004	-0,030
-316,241	644,751	-0,053	-0,099
-315,226	104,125	0,027	-0,023
-314,212	193,619	0,022	-0,024
-313,197	-114,123	0,051	0,007
-312,183	289,831	-0,117	0,154
-311,168	-183,401	-0,141	-0,002
-310,153	800,000	-0,004	0,012
-309,139	-70,081	0,028	-0,008
-308,124	178,361	0,031	-0,033
-307,110	-69,619	0,082	0,023
-306,095	617,792	-0,039	0,071
-305,080	-33,321	0,097	0,039
-304,066	398,317	0,044	-0,067
-303,051	-7,840	-0,025	0,012
-302,037	-39,435	-0,090	-0,034
-301,022	800,000	-0,025	0,068
-300,008	-200,000	0,043	0,138
-298,993	-91,214	0,071	0,015
-297,978	-200,000	-0,011	-0,061
-296,964	144,891	0,054	-0,052
-295,949	-200,000	0,039	0,133
-294,935	745,968	-0,034	0,067
-293,920	800,000	0,074	-0,151
-292,905	134,864	0,124	0,117
-291,891	176,467	-0,101	0,106
-290,876	34,889	0,110	0,070
-289,862	-162,858	0,026	-0,001
-288,847	-35,851	-0,063	-0,025
-287,832	160,856	0,042	0,043
-286,818	-92,295	0,075	0,015
-285,803	800,000	-0,019	0,054
-284,789	-0,316	0,080	0,041
-283,774	354,764	-0,083	0,119
-282,759	-200,000	0,007	-0,057
-281,745	-36,070	-0,157	-0,061
-280,730	-200,000	0,006	-0,091
-279,716	53,713	-0,055	-0,038
-278,701	31,711	0,198	0,123
-277,686	-200,000	0,012	0,083
-276,672	73,271	0,086	0,065
-275,657	312,916	-0,062	0,085
-274,643	-173,891	0,011	-0,000
-273,628	800,000	0,028	-0,073
-272,613	624,010	-0,009	-0,016
-271,599	648,465	0,021	0,040
-270,584	-158,378	-0,131	0,005
-269,570	461,758	0,102	0,166
-268,555	-111,810	0,031	-0,005
-267,540	271,209	0,023	0,029
-266,526	-67,387	-0,144	0,041
-265,511	-200,000	0,012	0,081
-264,497	-105,260	0,044	-0,007
-263,482	-64,964	0,082	-0,024
-262,467	109,190	0,066	-0,057
-261,453	-122,858	-0,078	-0,009
-260,438	251,466	0,032	0,039
-259,424	800,000	-0,057	0,139
-258,409	-200,000	-0,011	-0,040
-257,395	-65,285	-0,101	0,029
-256,380	238,653	0,036	0,043
-255,365	-134,604	0,048	0,004
-254,351	-200,000	-0,026	-0,141
-253,336	-200,000	0,013	0,050
-252,322	-185,919	-0,228	-0,002
-251,307	-200,000	0,012	0,079
-250,292	-28,931	0,122	0,050
-249,278	-91,225	0,108	-0,022
-248,263	-118,944	0,095	-0,012
-247,249	11,290	0,021	0,012
-246,234	-200,000	-0,019	0,067
-245,219	687,935	-0,045	-0,086
-244,205	-109,420	-0,118	-0,018
-243,190	-200,000	-0,030	-0,105
-242,176	-109,653	0,100	0,015
-241,161	265,734	-0,106	-0,134
-240,146	-200,000	-0,026	-0,098
-239,132	800,000	-0,022	0,047
-238,117	65,238	-0,042	0,030
-237,103	-95,326	-0,096	-0,018
-236,088	-151,399	-0,088	0,005
-235,073	-200,000	-0,027	0,173
-234,059	457,682	0,042	0,068
-233,044	800,000	-0,034	0,087
-232,030	-97,234	0,034	0,006
-231,015	800,000	-0,025	-0,056
-230,000	395,681	0,024	0,037
-228,986	-200,000	-0,183	0,001
-227,971	97,562	0,071	-0,059
-226,957	-36,131	0,201	0,078
-225,942	-200,000	0,015	0,055
-224,927	-35,213	0,094	-0,037
-223,913	110,075	-0,086	-0,075
-222,898	-42,886	0,067	-0,024
-221,884	-28,727	-0,106	0,044
-220,869	148,525	0,042	0,041
-219,855	409,727	-0,022	0,034
-218,840	112,077	-0,084	-0,074
-217,825	529,395	-0,050	-0,085
-216,811	-134,700	0,056	0,005
-215,796	-67,218	-0,164	-0,046
-214,782	-200,000	0,001	-0,096
-213,767	-138,785	0,082	-0,006
-212,752	-21,765	0,111	0,049
-211,738	-200,000	0,012	-0,263
-210,723	800,000	-0,032	-0,089
-209,709	-200,000	-0,026	-0,257
-208,694	800,000	-0,015	-0,031
-207,679	-96,155	0,027	0,005
-206,665	211,046	0,034	-0,039
-205,650	-200,000	-0,017	0,109
-204,636	415,816	0,051	0,078
-203,621	304,817	0,003	-0,004
-202,606	262,396	0,019	-0,024
-201,592	-28,498	0,041	0,017
-200,577	-200,000	0,065	0,226
-199,563	37,130	0,134	0,086
-198,548	-86,619	0,106	-0,023
-197,533	-44,483	0,083	0,030
-196,519	559,235	-0,035	0,062
-195,504	-169,355	-0,129	0,003
-194,490	624,188	-0,045	-0,083
-193,475	226,571	0,038	-0,045
-192,460	-111,119	0,205	-0,030
-191,446	12,781	0,061	0,034
-190,431	-200,000	0,001	-0,018
-189,417	800,000	0,015	0,047
-188,402	160,631	-0,040	-0,040
-187,387	4,785	-0,023	-0,012
-186,373	96,477	0,058	-0,048
-185,358	-155,966	-0,108	0,005
-184,344	-139,635	0,082	0,006
-183,329	-200,000	0,027	0,126
-182,315	239,851	0,087	0,105
-181,300	-200,000	0,003	0,106
-180,285	413,072	0,080	-0,123
-179,271	556,238	-0,057	-0,099
-178,256	448,792	0,012	-0,019
-177,242	-80,164	0,094	0,022
-176,227	-200,000	0,014	-0,100
-175,212	100,411	-0,043	-0,036
-174,198	-200,000	0,005	0,022
-173,183	83,906	0,036	-0,028
-172,169	800,000	-0,012	0,036
-171,154	58,141	0,031	0,022
-170,139	-144,051	-0,047	-0,003
-169,125	800,000	-0,043	-0,113
-168,110	-200,000	0,027	0,147
-167,096	-200,000	-0,001	-0,088
-166,081	800,000	0,020	-0,050
-165,066	27,936	0,067	-0,041
-164,052	115,636	-0,149	-0,131
-163,037	-200,000	0,027	0,096
-162,023	-76,310	0,039	-0,010
-161,008	800,000	-0,034	-0,072
-159,993	151,919	0,112	0,110
-158,979	-19,459	-0,124	-0,055
-157,964	-200,000	0,028	-0,137
-156,950	-89,621	-0,125	0,026
-155,935	663,104	0,033	-0,061
-154,920	-200,000	0,012	-0,104
-153,906	800,000	0,037	0,098
-152,891	-147,570	-0,193	0,012
-151,877	-87,767	0,105	-0,023
-150,862	-10,773	-0,049	0,023
-149,847	-55,424	0,115	0,037
-148,833	-200,000	-0,023	0,141
-147,818	447,977	0,054	-0,087
-146,804	683,445	0,010	0,019
-145,789	-121,052	0,125	-0,015
-144,775	-56,923	-0,192	-0,061
-143,760	-200,000	0,004	0,123
-142,745	10,109	0,121	-0,066
-141,731	-200,000	-0,025	-0,088
-140,716	-114,870	0,102	0,014
-139,702	-200,000	-0,005	0,079
-138,687	-200,000	0,000	-0,002
-137,672	-13,287	-0,011	-0,005
-136,658	-200,000	-0,014	-0,044
-135,643	800,000	0,025	0,053
-134,629	800,000	0,024	0,073
-133,614	-8,611	0,119	0,058
-132,599	-200,000	0,028	0,102
-131,585	69,237	-0,093	-0,069
-130,570	274,141	0,054	-0,070
-129,556	-17,966	-0,113	-0,051
-128,541	-200,000	-0,010	-0,083
-127,526	272,244	-0,034	-0,043
-126,512	-40,230	-0,097	-0,036
-125,497	403,050	0,020	0,030
-124,483	1,323	0,030	0,015
-123,468	-52,559	-0,011	0,004
-122,453	130,739	0,038	-0,036
-121,439	157,755	-0,020	0,020
-120,424	-165,039	-0,072	-0,002
-119,410	491,186	0,027	0,045
-118,395	-2,737	0,051	0,025
-117,380	-38,008	0,144	0,055
-116,366	-45,731	0,050	0,018
-115,351	-200,000	-0,030	-0,105
-114,337	-110,136	-0,175	-0,026
-113,322	-68,155	-0,044	-0,012
-112,307	-110,361	-0,093	0,014
-111,293	215,660	-0,056	-0,064
-110,278	121,580	-0,039	0,035
-109,264	-129,440	0,056	-0,006
-108,249	800,000	0,065	-0,166
-107,234	-200,000	0,009	-0,036
-106,220	-200,000	-0,036	-0,122
-105,205	451,712	-0,007	-0,011
-104,191	-36,546	0,074	0,029
-103,176	-67,609	0,173	-0,048
-102,162	-27,831	-0,044	-0,018
-101,147	-3,199	0,048	0,024
-100,132	-26,138	0,151	0,064
-99,118	372,280	-0,026	0,039
-98,103	-146,971	-0,116	-0,007
-97,089	-200,000	0,015	0,096
-96,074	-200,000	-0,018	-0,105
-95,059	361,281	-0,042	0,060
-94,045	26,400	-0,077	-0,046
-93,030	221,660	-0,019	0,022
-92,016	-200,000	0,013	-0,105
-91,001	-200,000	-0,018	-0,104
-89,986	-119,946	0,026	0,003
-88,972	494,982	0,080	0,132
-87,957	190,284	0,088	0,095
-86,943	-200,000	0,012	0,100
-85,928	480,675	-0,070	-0,115
-84,913	165,749	-0,067	-0,068
-83,899	800,000	-0,038	0,080
-82,884	343,633	0,055	0,078
-81,870	-127,729	0,143	0,015
-80,855	-79,448	0,095	-0,023
-79,840	284,092	-0,008	0,011
-78,826	800,000	-0,012	-0,028
-77,811	126,578	-0,084	-0,076
-76,797	800,000	-0,034	-0,079
-75,782	-119,205	0,072	0,009
-74,767	800,000	-0,016	0,044
-73,753	-200,000	0,016	0,107
-72,738	-32,661	-0,134	-0,053
-71,724	46,976	-0,189	-0,126
-70,709	-55,087	0,022	-0,007
-69,694	-188,696	0,139	-0,001
-68,680	463,440	-0,032	0,051
-67,665	-200,000	0,006	0,187
-66,651	218,955	0,023	-0,027
-65,636	43,948	-0,121	0,080
-64,622	-200,000	-0,003	-0,036
-63,607	-200,000	-0,001	-0,114
-62,592	-53,372	0,065	-0,021
-61,578	435,526	0,020	0,031
-60,563	-45,406	0,060	0,021
-59,549	800,000	-0,047	0,095
-58,534	1,446	-2,051	-1,056
-57,519	800,000	-0,304	-0,927
-56,505	-200,000	-1,251	-4,975
-55,490	-16,340	0,791	0,359
-54,476	800,000	5,211	12,129
-53,461	-200,000	17,583	288,112
-52,446	800,000	723,419	2230,503
-51,432	540,261	1636,386	2807,797
-50,417	111,096	1627,851	1407,319
-49,403	74,466	1283,954	967,956
-48,388	32,262	1027,861	635,392
-47,373	20,054	989,920	571,657
-46,359	18,532	977,893	559,695
-45,344	15,959	974,240	549,151
-44,330	16,149	972,568	548,812
-43,315	15,753	970,648	546,411
-42,300	15,628	969,817	545,513
-41,286	15,658	968,913	545,079
-40,271	15,655	967,734	544,387
-39,257	15,688	966,889	543,998
-38,242	15,701	966,007	543,521
-37,227	15,712	965,045	542,994
-36,213	15,682	964,395	542,509
-35,198	15,648	963,437	541,839
-34,184	15,661	962,655	541,418
-33,169	15,656	961,607	540,793
-32,154	15,733	960,718	540,521
-31,140	15,681	959,773	539,798
-30,125	15,694	959,166	539,480
-29,111	15,692	958,409	539,024
-28,096	15,687	957,827	538,659
-27,082	15,683	957,097	538,214
-26,067	15,696	956,312	537,795
-25,052	15,685	955,414	537,231
-24,038	15,695	954,813	536,906
-23,023	15,634	954,076	536,274
-22,009	15,720	953,521	536,215
-20,994	15,683	953,019	535,794
-19,979	15,743	952,241	535,527
-18,965	15,668	951,766	535,000
-17,950	15,669	951,024	534,563
-16,936	15,585	950,482	533,970
-15,921	15,591	949,783	533,573
-14,906	15,553	949,002	532,993
-13,892	15,579	948,348	532,687
-12,877	15,586	947,858	532,415
-11,863	15,480	947,313	531,750
-10,848	15,555	946,711	531,628
-9,833	15,681	946,254	531,754
-8,819	15,618	945,690	531,215
-7,804	15,554	944,887	530,537
-6,790	15,546	944,311	530,168
-5,775	15,604	943,729	530,004
-4,760	15,582	943,164	529,596
-3,746	15,516	942,442	528,961
-2,731	15,433	941,787	528,308
-1,717	15,401	941,225	527,871
-0,702	15,414	940,432	527,447
0,313	15,227	939,667	527,224
1,327	18,484	937,892	536,451
2,342	27,581	791,722	476,869
3,356	24,257	445,435	263,339
4,371	-5,210	295,274	145,127
5,386	-8,900	276,944	132,611
6,400	-10,249	271,246	128,618
7,415	-10,287	268,972	127,494
8,429	-10,139	267,580	126,958
9,444	-10,552	266,779	126,189
10,459	-10,396	266,054	125,977
11,473	-10,473	265,398	125,586
12,488	-10,726	265,094	125,201
13,502	-10,902	264,326	124,668
14,517	-10,829	263,996	124,567
15,531	-10,738	263,670	124,484
16,546	-10,628	263,151	124,326
17,561	-10,686	262,793	124,095
18,575	-10,603	262,508	124,023
19,590	-10,768	262,219	123,728
20,604	-10,710	262,011	123,671
21,619	-10,725	261,491	123,401
22,634	-10,834	261,219	123,164
23,648	-11,003	261,034	122,915
24,663	-10,872	260,721	122,873
25,677	-10,832	260,373	122,734
26,692	-10,819	260,216	122,660
27,707	-10,880	259,888	122,441
28,721	-10,760	259,558	122,381
29,736	-10,898	259,438	122,192
30,750	-10,925	259,109	122,001
31,765	-10,858	258,681	121,848
32,780	-10,889	258,599	121,771
33,794	-10,874	258,501	121,727
34,809	-10,950	258,142	121,481
35,823	-10,883	257,919	121,424
36,838	-10,873	257,555	121,251
37,853	-11,030	257,427	121,041
38,867	-10,855	257,188	121,072
39,882	-10,937	256,956	120,880
40,896	-10,919	256,691	120,760
41,911	-10,977	256,423	120,573
42,926	-11,001	256,156	120,415
43,940	-11,029	256,131	120,368
44,955	-10,878	255,609	120,244
45,969	-10,884	255,458	120,157
46,984	-11,380	255,377	119,676
47,999	-11,408	254,883	119,409
49,013	-11,698	254,687	119,055
50,028	-11,765	254,367	118,836
51,042	-11,720	254,110	118,745
52,057	-11,956	253,891	118,428
53,071	-11,974	253,767	118,343
54,086	-11,671	253,590	118,513
55,101	-11,488	253,432	118,587
56,115	-11,246	253,303	118,724
57,130	-10,933	253,297	118,981
58,144	-10,586	253,123	119,189
59,159	-10,629	252,841	119,008
60,174	-10,615	252,567	118,881
61,188	-10,736	252,448	118,710
62,203	-10,609	252,143	118,666
63,217	-10,713	251,973	118,486
64,232	-10,882	251,807	118,252
65,247	-10,839	251,617	118,188
66,261	-10,861	251,420	118,067
67,276	-11,109	251,147	117,715
68,290	-11,225	250,781	117,435
69,305	-11,303	250,395	117,177
70,320	-11,318	250,345	117,130
71,334	-11,084	250,278	117,287
72,349	-10,601	250,007	117,562
73,363	-10,708	249,955	117,436
74,378	-10,660	249,645	117,320
75,393	-10,740	249,358	117,107
76,407	-10,808	249,272	116,999
77,422	-10,891	248,924	116,754
78,436	-10,724	248,800	116,827
79,451	-10,701	248,658	116,770
80,466	-11,088	248,335	116,281
81,480	-11,060	247,989	116,132
82,495	-11,108	247,780	115,983
83,509	-11,158	247,808	115,943
84,524	-11,136	247,653	115,879
85,539	-11,143	247,365	115,728
86,553	-11,239	247,046	115,489
87,568	-11,303	246,950	115,379
88,582	-11,181	246,820	115,411
89,597	-11,346	246,580	115,150
90,611	-10,982	246,378	115,350
91,626	-10,945	246,324	115,345
92,641	-10,981	246,126	115,213
93,655	-11,264	245,963	114,889
94,670	-10,985	245,609	114,946
95,684	-11,172	245,427	114,695
96,699	-10,897	245,322	114,865
97,714	-11,154	245,045	114,511
98,728	-11,148	244,920	114,448
99,743	-11,353	244,665	114,147
100,757	-11,425	244,404	113,956
101,772	-11,169	244,244	114,083
102,787	-11,126	244,051	114,019
103,801	-11,038	244,054	114,083
104,816	-11,003	243,883	114,022
105,830	-10,986	243,593	113,890
106,845	-10,629	243,431	114,099
107,860	-10,739	243,288	113,931
108,874	-10,907	242,980	113,639
109,889	-11,116	242,880	113,409
110,903	-11,165	242,590	113,223
111,918	-11,122	242,437	113,177
112,933	-11,169	242,420	113,120
113,947	-11,086	242,229	113,090
114,962	-10,919	241,984	113,102
115,976	-10,962	241,923	113,028
116,991	-11,010	241,508	112,785
118,006	-11,027	241,584	112,797
119,020	-11,019	241,409	112,711
120,035	-10,954	241,213	112,663
121,049	-10,866	240,956	112,604
122,064	-11,133	240,925	112,362
123,079	-10,918	240,771	112,455
124,093	-10,988	240,400	112,215
125,108	-11,265	240,177	111,876
126,122	-11,442	239,835	111,563
127,137	-11,581	239,808	111,426
128,151	-11,314	239,594	111,534
129,166	-11,187	239,291	111,487
130,181	-11,386	239,212	111,279
131,195	-11,309	239,034	111,248
132,210	-11,216	238,813	111,211
133,224	-11,016	238,777	111,346
134,239	-10,832	238,570	111,388
135,254	-11,095	238,459	111,114
136,268	-11,015	238,193	111,045
137,283	-11,408	237,852	110,559
138,297	-11,400	237,611	110,443
139,312	-11,448	237,472	110,330
140,327	-10,994	237,442	110,671
141,341	-10,599	237,331	110,927
142,356	-10,709	237,395	110,859
143,370	-10,386	237,102	110,971
144,385	-10,523	236,872	110,744
145,400	-10,639	236,903	110,655
146,414	-10,837	236,770	110,425
147,429	-10,442	236,349	110,535
148,443	-10,698	236,176	110,240
149,458	-10,745	236,150	110,180
150,473	-10,705	235,943	110,106
151,487	-10,905	235,818	109,878
152,502	-10,877	235,594	109,786
153,516	-10,600	235,364	109,889
154,531	-10,769	235,374	109,750
155,546	-10,638	235,131	109,731
156,560	-10,936	234,872	109,363
157,575	-10,963	234,616	109,213
158,589	-10,898	234,487	109,195
159,604	-10,805	234,485	109,258
160,619	-10,368	234,338	109,525
161,633	-10,632	234,185	109,235
162,648	-10,350	233,900	109,316
163,662	-10,703	233,802	108,982
164,677	-10,552	233,490	108,945
165,692	-10,439	233,337	108,953
166,706	-10,450	233,420	108,974
167,721	-10,308	233,236	108,990
168,735	-10,606	233,061	108,664
169,750	-10,476	232,903	108,682
170,764	-10,476	232,675	108,567
171,779	-10,657	232,581	108,371
172,794	-10,545	232,600	108,458
173,808	-10,459	232,112	108,288
174,823	-11,205	231,783	107,542
175,837	-11,370	231,684	107,357
176,852	-10,800	231,655	107,780
177,867	-10,538	231,516	107,910
178,881	-10,363	231,345	107,957
179,896	-10,463	231,204	107,804
180,910	-10,372	231,102	107,818
181,925	-10,363	231,103	107,815
182,940	-10,400	230,814	107,642
183,954	-10,483	230,610	107,473
184,969	-10,415	230,592	107,508
185,983	-10,428	230,398	107,398
186,998	-10,111	230,202	107,542
188,013	-10,276	229,951	107,288
189,027	-10,375	230,007	107,228
190,042	-10,171	229,688	107,227
191,056	-10,446	229,765	107,041
192,071	-10,252	229,360	106,993
193,086	-10,540	229,339	106,750
194,100	-10,186	229,096	106,902
195,115	-10,643	228,885	106,441
196,129	-10,465	228,858	106,556
197,144	-4,978	230,633	111,630
198,159	0,405	232,229	116,586
199,173	3,266	232,926	119,155
200,188	3,484	232,846	119,273
201,202	3,639	232,646	119,280
202,217	3,777	232,660	119,384
203,232	4,067	232,701	119,620
204,246	4,137	232,301	119,458
205,261	4,183	232,401	119,534
206,275	4,222	232,117	119,408
207,290	4,394	232,022	119,482
208,304	4,431	231,805	119,388
209,319	4,357	231,685	119,258
210,334	4,301	231,350	119,032
211,348	3,897	231,252	118,659
212,363	3,460	231,051	118,208
213,377	3,386	230,853	118,039
214,392	3,432	230,676	117,973
215,407	3,328	230,596	117,842
216,421	3,538	230,308	117,846
217,436	3,405	230,127	117,640
218,450	3,273	230,062	117,496
219,465	3,295	229,762	117,349
220,480	3,196	229,682	117,221
221,494	3,049	229,575	117,044
222,509	3,563	229,326	117,300
223,523	3,434	229,335	117,195
224,538	3,394	229,026	116,996
225,553	3,278	228,946	116,856
226,567	3,545	228,773	116,962
227,582	3,802	228,834	117,178
228,596	3,901	228,763	117,207
229,611	3,583	228,396	116,766
230,626	3,299	228,164	116,421
231,640	3,309	227,976	116,322
232,655	3,488	227,989	116,455
233,669	3,995	228,048	116,860
234,684	4,174	227,911	116,915
235,699	3,742	227,657	116,446
236,713	3,832	227,334	116,340
237,728	3,352	227,189	115,892
238,742	3,265	227,122	115,781
239,757	3,199	227,004	115,661
240,772	3,528	226,708	115,748
241,786	3,317	226,599	115,523
242,801	3,549	226,646	115,712
243,815	3,868	226,438	115,836
244,830	3,894	226,335	115,792
245,844	3,400	226,088	115,284
246,859	3,521	225,953	115,296
247,874	3,736	225,714	115,324
248,888	3,686	225,706	115,272
249,903	3,535	225,476	115,032
250,917	3,244	225,365	114,747
251,932	3,327	225,281	114,756
252,947	3,440	225,004	114,689
253,961	2,940	224,901	114,252
254,976	2,945	224,845	114,218
255,990	3,596	224,679	114,610
257,005	3,741	224,714	114,726
258,020	3,670	224,302	114,452
259,034	3,882	224,290	114,594
260,049	3,560	224,258	114,327
261,063	3,688	224,017	114,289
262,078	3,787	223,774	114,229
263,093	3,770	223,770	114,204
264,107	3,818	223,481	114,081
265,122	3,765	223,339	113,959
266,136	3,810	223,217	113,920
267,151	3,697	223,146	113,790
268,166	3,513	222,902	113,520
269,180	3,112	222,710	113,115
270,195	3,459	222,517	113,264
271,209	3,428	222,389	113,166
272,224	3,346	222,329	113,065
273,239	3,533	222,104	113,078
274,253	3,493	221,847	112,907
275,268	3,351	221,673	112,705
276,282	3,147	221,551	112,482
277,297	3,211	221,509	112,498
278,312	3,248	221,328	112,423
279,326	3,340	221,369	112,502
280,341	3,569	221,138	112,542
281,355	3,657	220,772	112,411
282,370	3,451	220,875	112,302
283,384	3,356	220,595	112,079
284,399	3,014	220,376	111,708
285,414	3,217	220,384	111,851
286,428	3,486	220,344	112,017
287,443	3,631	220,198	112,039
288,457	3,665	220,004	111,955
289,472	3,382	219,726	111,598
290,487	2,977	219,635	111,246
291,501	2,872	219,497	111,090
292,516	3,181	219,232	111,171
293,530	3,232	219,138	111,151
294,545	3,025	219,225	111,034
295,560	3,341	219,048	111,164
296,574	3,455	218,777	111,099
297,589	3,361	218,644	110,953
298,603	3,323	218,645	110,917
299,618	3,442	218,514	110,926
300,633	3,576	218,357	110,933
301,647	3,771	218,189	110,979
302,662	3,747	218,163	110,939
303,676	3,430	218,025	110,630
304,691	3,645	217,831	110,677
305,706	3,512	217,731	110,520
306,720	3,705	217,583	110,574
307,735	3,374	217,361	110,214
308,749	3,170	217,305	110,028
309,764	3,675	217,069	110,262
310,779	3,647	217,048	110,221
311,793	3,506	216,917	110,044
312,808	3,349	216,749	109,836
313,822	3,552	216,482	109,836
314,837	3,370	216,493	109,702
315,852	3,152	216,208	109,391
316,866	3,532	216,027	109,562
317,881	3,505	216,104	109,572
318,895	3,678	215,793	109,527
319,910	3,387	215,626	109,226
320,925	3,185	215,498	109,008
321,939	2,881	215,267	108,664
322,954	2,685	215,210	108,486
323,968	3,437	215,154	108,984
324,983	3,645	215,259	109,175
325,997	3,661	215,041	109,066
327,012	3,738	214,704	108,940
328,027	3,515	214,692	108,766
329,041	3,842	214,660	108,971
330,056	4,009	214,449	108,973
331,070	3,430	214,234	108,445
332,085	3,319	213,956	108,216
333,100	3,392	213,910	108,235
334,114	3,439	213,800	108,203
335,129	3,488	213,679	108,166
336,143	3,261	213,613	107,963
337,158	3,518	213,346	107,999
338,173	3,613	213,277	108,021
339,187	3,155	213,033	107,566
340,202	3,221	212,760	107,466
341,216	3,046	212,768	107,337
342,231	3,118	212,752	107,370
343,246	3,261	212,462	107,314
344,260	3,246	212,429	107,277
345,275	3,440	212,254	107,315
346,289	3,376	212,287	107,278
347,304	3,494	212,134	107,273
348,319	3,398	211,872	107,064
349,333	3,301	211,901	107,001
350,348	3,577	211,640	107,053
351,362	3,515	211,667	107,014
352,377	3,691	211,380	106,981
353,392	3,451	211,315	106,772
354,406	3,499	211,107	106,690
355,421	196,739	1341,035	1423,306
356,435	157,192	1478,678	1423,292
