DTS Sentinel unit serial number:	SN410029Multiplexer serial number:	ORYXHardware model number:	OX2-SRSoftware version number:	ORYX F/W v4,00 Oryx Data Collector v3.7.2.0data status	okinstallation	B6 Nyhavnadifferential loss correction	single-endedforward channel	channel 2reverse channel	N/Adate	2023/12/08time	20:35:08forward acquisition time	300,00reverse acquisition time	0,00gamma	499,1914k internal	0,3158k external	0,3158temperature offset calibration	1,0000default loss term (dB/km)	0,3820temperature slope calibration	1,0000multiplexer offset coefficient	1,0000multiplexer slope coefficient	1,0000fibre end	0,00T internal ref (°C)	15,20T ext. ref 1 (°C)	-1,39T ext. ref 2 (°C)	-1,39length (m)	temperature (°C)	Stokes	anti-Stokes-744,400	-200,000	-0,004	0,134
-743,385	-39,785	-0,280	0,107
-742,371	-72,159	0,128	0,035
-741,356	-134,125	-0,401	-0,036
-740,342	800,000	0,041	0,132
-739,327	-11,013	-0,316	-0,153
-738,312	16,169	0,080	0,046
-737,298	-122,390	-0,309	-0,037
-736,283	-200,000	-0,016	0,061
-735,269	-138,283	-0,263	0,021
-734,254	-200,000	0,013	0,089
-733,239	-88,514	-0,567	-0,123
-732,225	-105,810	0,259	0,043
-731,210	-36,420	0,109	0,043
-730,196	800,000	-0,059	-0,160
-729,181	38,845	-0,062	0,041
-728,167	-200,000	0,019	0,171
-727,152	-200,000	-0,005	0,061
-726,137	-112,664	-0,093	-0,013
-725,123	255,318	-0,062	-0,078
-724,108	-128,700	-0,057	-0,006
-723,094	800,000	-0,045	-0,120
-722,079	-139,942	-0,164	-0,013
-721,064	141,724	-0,051	0,050
-720,050	309,597	-0,054	0,074
-719,035	461,061	0,075	-0,124
-718,021	-98,915	-0,056	-0,010
-717,006	-87,184	-0,074	-0,016
-715,991	664,531	-0,088	-0,169
-714,977	76,059	-0,100	-0,078
-713,962	341,268	-0,036	0,052
-712,948	36,672	0,058	0,038
-711,933	-132,684	-0,060	0,006
-710,918	111,163	-0,097	-0,086
-709,904	-200,000	0,007	-0,112
-708,889	46,723	0,038	-0,026
-707,875	-200,000	-0,033	-0,123
-706,860	323,042	-0,050	0,070
-705,845	286,524	-0,042	0,056
-704,831	-200,000	-0,008	0,031
-703,816	-62,853	-0,095	-0,029
-702,802	800,000	-0,029	-0,081
-701,787	-200,000	-0,014	-0,119
-700,772	-137,765	0,045	-0,004
-699,758	75,779	0,092	-0,072
-698,743	92,722	-0,043	-0,036
-697,729	691,542	-0,045	-0,087
-696,714	-200,000	-0,028	-0,119
-695,699	172,087	-0,011	0,011
-694,685	800,000	0,057	-0,129
-693,670	800,000	-0,030	0,073
-692,656	41,907	0,089	0,059
-691,641	800,000	0,008	0,022
-690,627	-172,956	0,080	0,002
-689,612	-200,000	-0,019	-0,180
-688,597	8,003	0,019	0,010
-687,583	4,829	-0,090	-0,048
-686,568	-21,020	0,080	0,036
-685,554	106,007	-0,038	-0,033
-684,539	-144,986	0,073	-0,005
-683,524	-38,168	-0,057	-0,022
-682,510	-200,000	-0,012	0,059
-681,495	682,448	-0,056	-0,107
-680,481	158,329	-0,076	-0,078
-679,466	-200,000	-0,010	-0,135
-678,451	-143,391	-0,052	0,004
-677,437	-200,000	0,029	0,095
-676,422	800,000	-0,054	-0,132
-675,408	23,101	-0,081	-0,049
-674,393	44,499	0,066	-0,044
-673,378	-154,711	-0,109	-0,005
-672,364	641,140	0,006	0,010
-671,349	25,303	0,094	-0,058
-670,335	-200,000	0,023	0,134
-669,320	157,434	-0,021	-0,022
-668,305	41,656	0,095	0,063
-667,291	354,210	-0,119	0,174
-666,276	800,000	-0,039	0,098
-665,262	61,424	-0,071	-0,052
-664,247	-58,437	0,121	-0,038
-663,232	-30,147	-0,130	-0,054
-662,218	-50,393	0,056	-0,019
-661,203	800,000	-0,070	0,171
-660,189	313,507	-0,040	0,055
-659,174	-200,000	-0,006	0,078
-658,159	37,895	0,039	0,026
-657,145	-109,457	-0,096	0,015
-656,130	307,100	0,099	-0,136
-655,116	505,866	0,045	0,077
-654,101	-47,654	0,169	-0,060
-653,086	-200,000	0,045	-0,174
-652,072	-200,000	-0,041	-0,179
-651,057	-79,432	-0,142	-0,035
-650,043	178,671	0,053	0,056
-649,028	146,039	-0,026	-0,026
-648,014	-190,593	0,161	0,001
-646,999	20,105	-0,117	0,069
-645,984	34,641	0,033	-0,021
-644,970	238,982	-0,048	-0,059
-643,955	-133,789	0,087	-0,008
-642,941	231,342	0,031	-0,038
-641,926	-45,378	0,037	0,014
-640,911	-49,966	0,100	-0,035
-639,897	800,000	0,012	0,039
-638,882	294,067	-0,070	0,093
-637,868	-200,000	-0,040	-0,159
-636,853	-130,744	-0,171	-0,017
-635,838	3,590	-0,071	0,038
-634,824	800,000	-0,033	0,091
-633,809	712,035	0,021	0,041
-632,795	17,553	0,045	-0,026
-631,780	52,229	0,024	-0,016
-630,765	-1,039	-0,071	-0,037
-629,751	-200,000	0,004	-0,065
-628,736	-200,000	0,013	0,053
-627,722	-37,086	-0,064	-0,025
-626,707	-200,000	-0,008	0,106
-625,692	176,233	0,149	0,159
-624,678	623,736	0,045	0,084
-623,663	-34,176	-0,052	0,021
-622,649	-2,908	-0,060	-0,030
-621,634	-200,000	-0,009	0,076
-620,619	410,363	0,021	-0,032
-619,605	800,000	-0,021	-0,064
-618,590	800,000	0,048	-0,098
-617,576	800,000	0,077	0,199
-616,561	-32,310	0,169	0,069
-615,546	108,339	-0,125	0,109
-614,532	-152,659	-0,156	-0,008
-613,517	711,823	0,031	0,061
-612,503	403,996	0,061	-0,095
-611,488	-31,261	0,061	0,025
-610,474	218,240	0,094	0,110
-609,459	-170,908	-0,104	-0,003
-608,444	800,000	-0,010	0,028
-607,430	-125,571	0,139	-0,015
-606,415	800,000	0,041	-0,128
-605,401	-200,000	0,002	0,032
-604,386	800,000	-0,045	0,098
-603,371	-76,273	0,107	0,027
-602,357	-67,184	-0,101	-0,029
-601,342	800,000	0,061	-0,175
-600,328	14,562	0,084	0,048
-599,313	-53,581	-0,018	-0,006
-598,298	316,247	0,023	-0,033
-597,284	-103,254	0,061	-0,010
-596,269	459,011	-0,047	0,077
-595,255	-47,233	0,076	-0,027
-594,240	-200,000	0,009	0,094
-593,225	672,302	-0,032	-0,061
-592,211	35,097	-0,035	-0,023
-591,196	164,438	-0,019	-0,019
-590,182	-80,740	0,135	0,033
-589,167	-83,534	-0,046	-0,011
-588,152	-200,000	-0,009	0,063
-587,138	800,000	0,040	0,120
-586,123	-200,000	-0,024	-0,162
-585,109	-200,000	0,011	-0,261
-584,094	543,248	-0,138	-0,242
-583,079	138,994	0,126	-0,122
-582,065	632,130	0,032	-0,059
-581,050	-200,000	-0,004	-0,047
-580,036	355,659	-0,072	-0,106
-579,021	-65,791	0,077	0,022
-578,006	416,635	-0,107	-0,168
-576,992	117,067	-0,049	-0,044
-575,977	-200,000	0,002	-0,091
-574,963	800,000	0,027	0,076
-573,948	-101,131	-0,082	-0,015
-572,934	-69,978	-0,022	-0,006
-571,919	157,554	-0,108	-0,110
-570,904	800,000	-0,040	0,086
-569,890	-6,883	-0,140	0,069
-568,875	-200,000	0,021	0,133
-567,861	-200,000	-0,028	0,162
-566,846	800,000	0,034	0,109
-565,831	-200,000	-0,011	-0,079
-564,817	81,347	-0,039	-0,031
-563,802	651,621	0,075	-0,142
-562,788	800,000	-0,033	-0,097
-561,773	-200,000	0,153	-0,000
-560,758	232,793	-0,086	-0,103
-559,744	-22,255	0,101	0,045
-558,729	17,542	-0,162	-0,094
-557,715	559,385	0,006	0,010
-556,700	-62,351	0,109	-0,033
-555,685	-200,000	-0,011	-0,144
-554,671	258,417	0,057	0,073
-553,656	-15,940	-0,039	-0,018
-552,642	70,264	-0,074	-0,056
-551,627	800,000	0,058	0,171
-550,612	-9,461	-0,051	0,025
-549,598	265,813	-0,002	0,003
-548,583	-200,000	-0,020	0,074
-547,569	-146,368	-0,020	-0,001
-546,554	126,526	0,032	-0,030
-545,539	-200,000	0,026	0,092
-544,525	-200,000	-0,024	0,081
-543,510	311,737	0,063	-0,087
-542,496	536,529	-0,068	-0,119
-541,481	24,280	-0,087	-0,052
-540,466	580,865	-0,032	0,057
-539,452	659,400	0,075	0,142
-538,437	-28,252	0,056	-0,023
-537,423	-200,000	-0,018	0,121
-536,408	-34,715	0,092	-0,036
-535,393	550,998	-0,068	0,120
-534,379	-20,384	-0,081	-0,036
-533,364	21,784	-0,095	-0,056
-532,350	-200,000	0,029	0,094
-531,335	631,224	0,057	-0,105
-530,321	-200,000	-0,006	-0,033
-529,306	-71,816	-0,135	-0,037
-528,291	148,594	0,072	0,071
-527,277	-200,000	-0,011	-0,059
-526,262	366,763	-0,048	0,071
-525,248	-176,515	0,109	0,002
-524,233	62,398	0,116	0,084
-523,218	170,849	0,048	0,050
-522,204	-80,847	0,080	0,019
-521,189	-200,000	-0,028	-0,191
-520,175	120,236	-0,050	0,046
-519,160	-113,486	-0,048	-0,007
-518,145	200,201	0,074	0,083
-517,131	657,942	-0,017	0,033
-516,116	453,349	0,058	0,095
-515,102	-198,635	-0,065	-0,000
-514,087	-200,000	0,011	-0,225
-513,072	800,000	0,024	-0,072
-512,058	-200,000	0,021	-0,072
-511,043	180,556	0,071	-0,076
-510,029	800,000	-0,009	0,026
-509,014	127,163	0,045	-0,042
-507,999	83,131	0,068	-0,054
-506,985	800,000	-0,037	0,086
-505,970	375,117	-0,017	0,026
-504,956	340,271	0,044	-0,063
-503,941	-30,561	0,136	-0,056
-502,926	375,691	-0,024	-0,035
-501,912	114,462	0,092	-0,081
-500,897	-61,293	-0,020	-0,006
-499,883	-200,000	-0,030	-0,120
-498,868	-134,792	0,018	0,002
-497,853	800,000	0,009	-0,024
-496,839	800,000	-0,008	0,022
-495,824	-200,000	0,018	0,079
-494,810	-200,000	0,017	0,072
-493,795	-200,000	-0,034	-0,120
-492,781	42,703	-0,076	-0,050
-491,766	124,332	-0,177	-0,162
-490,751	-43,761	-0,155	-0,057
-489,737	-73,252	-0,120	0,032
-488,722	464,977	0,045	0,074
-487,708	16,465	-0,028	0,016
-486,693	163,719	0,044	0,045
-485,678	-200,000	-0,009	-0,053
-484,664	-200,000	-0,001	-0,041
-483,649	318,105	-0,039	0,053
-482,635	-174,178	0,034	0,001
-481,620	654,398	-0,041	0,077
-480,605	175,067	0,089	0,094
-479,591	435,359	0,029	0,046
-478,576	-98,166	-0,047	0,009
-477,562	57,573	0,120	0,086
-476,547	69,346	0,089	0,067
-475,532	-200,000	-0,060	-0,211
-474,518	490,955	-0,073	0,122
-473,503	-200,000	0,013	0,129
-472,489	-77,512	-0,066	0,017
-471,474	-47,196	-0,158	0,056
-470,459	233,376	-0,033	-0,040
-469,445	48,479	-0,058	0,040
-468,430	-40,330	-0,183	0,069
-467,416	-14,321	-0,015	0,007
-466,401	-92,203	0,063	0,013
-465,386	148,807	0,046	0,046
-464,372	800,000	-0,040	0,123
-463,357	-90,523	-0,150	0,031
-462,343	-200,000	-0,022	-0,140
-461,328	-89,528	-0,011	0,002
-460,313	-23,957	0,155	-0,067
-459,299	-30,668	-0,078	-0,032
-458,284	-85,131	-0,032	-0,007
-457,270	800,000	-0,033	-0,076
-456,255	124,229	-0,020	0,018
-455,241	-200,000	0,014	-0,088
-454,226	78,994	-0,081	0,064
-453,211	-90,608	0,137	-0,029
-452,197	507,484	0,066	0,111
-451,182	-200,000	-0,008	-0,236
-450,168	-163,508	0,135	-0,005
-449,153	-39,336	0,053	-0,020
-448,138	-200,000	0,007	0,083
-447,124	-200,000	0,009	-0,096
-446,109	-37,344	-0,070	-0,027
-445,095	93,960	-0,060	0,050
-444,080	-61,331	-0,072	0,022
-443,065	-200,000	-0,010	-0,042
-442,051	-159,223	-0,170	-0,007
-441,036	54,402	0,125	-0,087
-440,022	18,292	0,045	0,026
-439,007	159,554	-0,065	-0,066
-437,992	80,896	-0,043	-0,034
-436,978	-200,000	-0,036	0,118
-435,963	123,842	-0,046	0,042
-434,949	157,280	-0,086	0,087
-433,934	-41,571	-0,121	-0,045
-432,919	800,000	0,053	-0,131
-431,905	238,447	0,057	-0,069
-430,890	-200,000	-0,019	-0,062
-429,876	-200,000	0,025	0,089
-428,861	-66,110	-0,087	-0,025
-427,846	75,710	0,030	-0,023
-426,832	800,000	0,012	-0,034
-425,817	-200,000	0,014	-0,046
-424,803	-67,570	-0,067	-0,019
-423,788	-200,000	-0,034	0,197
-422,773	695,641	-0,047	0,091
-421,759	-124,432	0,083	0,009
-420,744	352,098	-0,056	0,081
-419,730	12,352	0,080	0,045
-418,715	800,000	0,031	0,079
-417,701	38,189	0,080	0,052
-416,686	-200,000	-0,022	0,093
-415,671	-154,908	0,154	-0,007
-414,657	40,723	0,090	0,059
-413,642	424,179	0,107	0,168
-412,628	380,003	-0,015	-0,022
-411,613	-200,000	0,008	0,037
-410,598	-200,000	0,008	-0,084
-409,584	-34,301	0,087	-0,034
-408,569	0,397	0,071	-0,037
-407,555	-4,458	0,026	-0,013
-406,540	-172,866	0,066	-0,001
-405,525	68,128	0,099	-0,074
-404,511	-186,827	-0,049	0,000
-403,496	5,283	0,148	-0,079
-402,482	18,708	0,053	-0,031
-401,467	635,989	-0,001	0,001
-400,452	-200,000	-0,015	-0,112
-399,438	178,988	0,009	-0,009
-398,423	247,994	0,018	0,022
-397,409	-11,345	0,016	0,008
-396,394	333,721	-0,038	-0,054
-395,379	330,476	0,175	-0,246
-394,365	47,133	-0,120	0,081
-393,350	182,169	0,041	0,044
-392,336	-200,000	0,024	0,081
-391,321	-200,000	0,006	-0,057
-390,306	800,000	-0,051	-0,113
-389,292	237,560	-0,109	-0,132
-388,277	-7,286	0,115	-0,057
-387,263	40,209	-0,043	0,028
-386,248	-200,000	0,052	-0,185
-385,233	506,817	-0,081	0,137
-384,219	800,000	-0,030	-0,079
-383,204	94,118	-0,104	-0,086
-382,190	119,650	-0,065	-0,059
-381,175	800,000	0,047	0,113
-380,160	314,258	-0,066	-0,091
-379,146	-129,055	0,049	0,005
-378,131	518,013	-0,008	-0,014
-377,117	118,734	0,037	-0,033
-376,102	257,974	-0,079	0,099
-375,088	160,381	-0,072	-0,073
-374,073	800,000	0,032	-0,080
-373,058	-178,609	-0,044	0,001
-372,044	-112,048	-0,100	-0,015
-371,029	-114,610	0,080	0,011
-370,015	527,395	-0,061	0,105
-369,000	-18,347	0,035	0,016
-367,985	-200,000	0,038	-0,147
-366,971	282,558	0,032	0,042
-365,956	-200,000	0,002	-0,022
-364,942	-87,292	-0,100	-0,022
-363,927	-200,000	-0,033	0,125
-362,912	102,069	-0,041	0,034
-361,898	-200,000	0,005	-0,056
-360,883	-122,528	-0,026	0,003
-359,869	-49,495	0,120	0,041
-358,854	800,000	0,038	-0,080
-357,839	396,148	0,091	0,138
-356,825	-100,073	-0,185	0,033
-355,810	273,822	0,025	-0,032
-354,796	108,887	-0,083	-0,072
-353,781	-9,145	0,091	-0,044
-352,766	-93,690	0,106	0,021
-351,752	-200,000	0,009	0,065
-350,737	-28,885	0,190	-0,079
-349,723	-82,949	0,054	0,013
-348,708	-51,179	0,044	-0,015
-347,693	800,000	-0,024	0,056
-346,679	-79,957	-0,058	0,014
-345,664	-99,451	0,067	-0,012
-344,650	800,000	0,045	0,107
-343,635	-158,264	0,090	-0,004
-342,620	-200,000	0,026	0,093
-341,606	-70,405	-0,108	0,030
-340,591	25,123	0,051	-0,030
-339,577	178,672	-0,019	-0,020
-338,562	63,729	-0,152	0,111
-337,548	37,428	0,083	-0,054
-336,533	424,855	0,013	0,021
-335,518	70,592	0,010	0,008
-334,504	-123,812	0,116	0,013
-333,489	318,250	-0,065	0,090
-332,475	44,960	-0,036	0,024
-331,460	121,596	0,056	0,051
-330,445	800,000	0,024	0,067
-329,431	553,422	0,058	0,102
-328,416	-200,000	0,030	0,130
-327,402	800,000	-0,045	0,114
-326,387	278,924	-0,047	0,061
-325,372	-200,000	-0,017	0,106
-324,358	800,000	-0,035	-0,101
-323,343	77,064	-0,045	-0,035
-322,329	290,751	0,041	0,054
-321,314	-94,161	0,155	-0,031
-320,299	-84,766	0,162	0,037
-319,285	-132,025	0,157	-0,015
-318,270	83,640	0,054	-0,043
-317,256	-150,196	-0,085	-0,005
-316,241	800,000	0,023	0,048
-315,226	127,956	-0,057	0,053
-314,212	-132,174	-0,118	-0,011
-313,197	58,813	-0,120	-0,085
-312,183	-195,836	0,073	-0,000
-311,168	-160,039	-0,141	-0,005
-310,153	61,738	0,020	0,014
-309,139	-135,799	-0,209	0,018
-308,124	43,425	-0,064	0,043
-307,110	-200,000	0,018	-0,080
-306,095	-12,020	0,075	-0,035
-305,080	-55,511	0,055	0,018
-304,066	-200,000	-0,003	0,054
-303,051	-87,074	-0,095	0,021
-302,037	34,097	-0,076	0,048
-301,022	527,472	0,014	0,024
-300,008	-200,000	-0,003	0,028
-298,993	-200,000	0,039	0,127
-297,978	-59,891	0,010	-0,003
-296,964	-0,546	0,046	0,023
-295,949	-8,366	-0,101	-0,049
-294,935	-177,380	0,047	-0,001
-293,920	32,817	-0,061	-0,038
-292,905	47,728	0,138	0,093
-291,891	110,782	0,038	-0,034
-290,876	699,806	-0,008	0,014
-289,862	800,000	-0,023	0,063
-288,847	800,000	-0,050	-0,118
-287,832	-29,604	-0,065	-0,027
-286,818	-38,195	0,015	0,006
-285,803	720,410	-0,033	-0,064
-284,789	-200,000	0,022	0,116
-283,774	54,010	-0,075	-0,052
-282,759	49,832	-0,068	0,046
-281,745	-134,546	-0,138	0,012
-280,730	-200,000	-0,003	0,023
-279,716	-200,000	0,012	-0,078
-278,701	-171,700	0,220	-0,005
-277,686	-50,297	0,123	0,042
-276,672	-88,540	-0,118	-0,025
-275,657	-104,134	0,096	-0,016
-274,643	-200,000	0,021	-0,155
-273,628	-200,000	-0,016	-0,053
-272,613	125,695	-0,057	-0,052
-271,599	158,195	0,077	-0,077
-270,584	30,376	-0,059	0,036
-269,570	-180,745	-0,177	0,003
-268,555	-70,127	0,037	-0,010
-267,540	-200,000	0,026	-0,136
-266,526	-200,000	0,000	0,093
-265,511	353,617	0,038	0,054
-264,497	-200,000	-0,030	0,139
-263,482	-146,718	0,076	-0,005
-262,467	-200,000	-0,000	-0,138
-261,453	-14,794	-0,048	-0,022
-260,438	157,634	-0,075	0,075
-259,424	33,977	-0,065	0,041
-258,409	800,000	0,023	-0,070
-257,395	-58,746	-0,092	-0,029
-256,380	19,034	-0,028	-0,016
-255,365	123,495	0,098	0,089
-254,351	215,562	0,094	-0,108
-253,336	132,632	-0,106	-0,099
-252,322	82,486	0,062	-0,049
-251,307	-10,874	0,048	-0,023
-250,292	-200,000	-0,043	-0,165
-249,278	-129,494	-0,101	0,010
-248,263	175,146	0,038	-0,040
-247,249	-79,800	-0,108	-0,026
-246,234	-73,057	-0,134	-0,035
-245,219	-200,000	0,005	-0,075
-244,205	800,000	0,004	-0,011
-243,190	280,059	-0,044	-0,057
-242,176	-65,870	0,067	-0,019
-241,161	286,415	0,058	-0,075
-240,146	-92,000	-0,053	-0,011
-239,132	-4,731	-0,071	-0,035
-238,117	-62,487	-0,074	0,022
-237,103	-200,000	-0,025	-0,084
-236,088	1,992	-0,131	-0,068
-235,073	-111,002	0,112	0,016
-234,059	-125,106	0,123	0,013
-233,044	-5,500	-0,209	0,103
-232,030	-140,582	0,055	-0,004
-231,015	-12,775	-0,074	0,035
-230,000	-200,000	0,015	-0,055
-228,986	800,000	-0,050	-0,130
-227,971	-2,706	-0,105	0,053
-226,957	409,296	0,036	-0,055
-225,942	-159,337	0,091	0,004
-224,927	31,570	-0,131	0,081
-223,913	-49,053	-0,058	-0,020
-222,898	177,983	0,066	0,069
-221,884	800,000	-0,018	-0,049
-220,869	-15,818	0,118	0,054
-219,855	460,038	0,068	0,110
-218,840	-200,000	0,024	-0,093
-217,825	531,503	-0,023	0,040
-216,811	4,964	0,230	-0,122
-215,796	374,976	-0,041	-0,060
-214,782	138,680	-0,045	-0,043
-213,767	800,000	0,057	0,124
-212,752	287,049	-0,029	0,038
-211,738	383,653	0,030	0,044
-210,723	-200,000	-0,005	0,038
-209,709	236,291	0,072	0,086
-208,694	-56,481	-0,060	0,019
-207,679	367,513	0,036	-0,052
-206,665	800,000	-0,051	0,105
-205,650	-200,000	0,003	0,012
-204,636	-200,000	-0,033	0,105
-203,621	800,000	-0,024	-0,054
-202,606	-200,000	-0,003	0,021
-201,592	800,000	-0,039	-0,080
-200,577	-180,919	-0,043	0,001
-199,563	143,820	0,086	-0,082
-198,548	-36,788	0,098	0,038
-197,533	72,773	-0,111	0,084
-196,519	-200,000	0,028	-0,136
-195,504	290,029	-0,061	0,080
-194,490	210,171	0,077	0,087
-193,475	-200,000	-0,020	-0,172
-192,460	-72,919	0,090	-0,024
-191,446	665,955	-0,060	0,112
-190,431	-200,000	-0,012	0,125
-189,417	-200,000	-0,012	0,133
-188,402	-200,000	-0,017	-0,120
-187,387	-58,453	-0,132	0,041
-186,373	-200,000	0,004	-0,068
-185,358	-200,000	-0,009	0,033
-184,344	-200,000	0,017	-0,119
-183,329	-200,000	-0,029	0,128
-182,315	144,064	0,031	-0,030
-181,300	-200,000	-0,007	0,060
-180,285	126,988	0,031	-0,029
-179,271	-184,578	-0,042	0,000
-178,256	131,397	-0,104	-0,096
-177,242	-200,000	-0,005	-0,111
-176,227	-200,000	-0,010	0,107
-175,212	800,000	0,086	0,211
-174,198	-110,022	0,116	0,017
-173,183	-200,000	-0,012	0,102
-172,169	165,068	-0,038	-0,038
-171,154	-200,000	0,051	-0,162
-170,139	74,268	0,133	0,100
-169,125	-82,290	-0,053	0,012
-168,110	-10,093	0,125	0,060
-167,096	-200,000	0,019	0,122
-166,081	526,380	-0,071	0,121
-165,066	-22,504	0,063	0,027
-164,052	-200,000	-0,015	0,078
-163,037	-200,000	-0,027	0,089
-162,023	-200,000	-0,024	0,106
-161,008	-67,075	0,115	-0,032
-159,993	-61,768	0,121	-0,036
-158,979	83,144	-0,063	0,049
-157,964	464,874	0,053	-0,086
-156,950	-187,361	-0,041	-0,000
-155,935	73,789	0,106	0,080
-154,920	-200,000	0,012	0,083
-153,906	-200,000	-0,003	0,012
-152,891	-85,230	-0,029	-0,006
-151,877	-200,000	-0,001	0,059
-150,862	-14,191	-0,019	0,009
-149,847	-200,000	-0,056	-0,221
-148,833	-200,000	0,013	0,056
-147,818	178,147	-0,066	0,069
-146,804	-200,000	-0,008	0,056
-145,789	-200,000	-0,002	0,106
-144,775	-184,738	-0,092	-0,001
-143,760	772,054	0,016	-0,031
-142,745	39,881	-0,064	-0,041
-141,731	800,000	-0,076	0,158
-140,716	65,363	0,117	0,085
-139,702	27,114	-0,165	-0,100
-138,687	800,000	0,020	-0,047
-137,672	-1,478	-0,088	-0,045
-136,658	-200,000	-0,018	0,132
-135,643	131,573	-0,063	0,058
-134,629	471,623	-0,071	-0,115
-133,614	-44,244	0,031	-0,011
-132,599	-200,000	-0,018	-0,094
-131,585	800,000	0,037	0,096
-130,570	-108,680	0,112	0,017
-129,556	209,570	-0,053	-0,060
-128,541	-200,000	-0,045	-0,164
-127,526	30,323	0,072	0,044
-126,512	85,073	-0,021	-0,017
-125,497	-192,153	0,119	-0,001
-124,483	122,399	-0,086	0,077
-123,468	-41,304	-0,125	0,046
-122,453	-139,036	0,039	0,003
-121,439	-54,869	-0,030	0,010
-120,424	800,000	0,037	0,116
-119,410	223,045	0,109	-0,127
-118,395	172,951	-0,045	0,047
-117,380	265,684	0,082	0,103
-116,366	800,000	-0,011	0,024
-115,351	82,703	-0,159	-0,125
-114,337	635,564	-0,047	-0,085
-113,322	-8,690	0,116	0,056
-112,307	51,480	-0,024	-0,016
-111,293	800,000	0,044	0,124
-110,278	-92,571	0,106	-0,021
-109,264	737,808	0,043	0,084
-108,249	-109,240	-0,082	0,012
-107,234	367,537	-0,048	-0,070
-106,220	-200,000	0,001	0,098
-105,205	21,692	-0,055	-0,032
-104,191	-200,000	-0,038	0,189
-103,176	489,660	0,033	0,054
-102,162	-200,000	-0,020	0,111
-101,147	800,000	0,019	-0,045
-100,132	-116,652	0,057	0,007
-99,118	800,000	-0,045	0,132
-98,103	83,328	0,036	-0,028
-97,089	397,046	-0,014	0,021
-96,074	505,701	-0,137	0,229
-95,059	-122,599	-0,037	0,004
-94,045	-101,608	0,062	0,011
-93,030	-61,063	-0,061	-0,018
-92,016	69,083	-0,045	0,034
-91,001	-200,000	0,018	-0,111
-89,986	574,996	0,066	0,116
-88,972	-6,428	-0,108	0,053
-87,957	412,549	0,090	0,137
-86,943	800,000	-0,057	0,136
-85,928	350,374	-0,092	0,132
-84,913	45,036	-0,081	-0,054
-83,899	52,010	-0,048	-0,033
-82,884	192,304	0,055	-0,059
-81,870	-200,000	0,047	0,177
-80,855	220,860	-0,032	-0,037
-79,840	-58,034	-0,066	-0,021
-78,826	629,000	0,048	0,087
-77,811	-200,000	-0,005	-0,055
-76,797	120,642	0,060	0,054
-75,782	229,374	-0,050	-0,059
-74,767	-90,010	0,075	-0,016
-73,753	336,010	-0,077	0,107
-72,738	800,000	0,058	-0,143
-71,724	-84,910	0,030	-0,007
-70,709	-1,779	-0,071	-0,036
-69,694	-14,460	0,108	0,050
-68,680	147,385	-0,040	0,039
-67,665	-81,076	0,081	-0,019
-66,651	-200,000	-0,015	-0,053
-65,636	170,352	-0,037	0,038
-64,622	-36,406	0,076	-0,029
-63,607	-171,354	-0,094	0,002
-62,592	325,037	-0,070	-0,097
-61,578	800,000	0,045	0,102
-60,563	216,462	0,059	0,068
-59,549	31,774	-0,154	0,095
-58,534	16,501	-1,949	-1,102
-57,519	-200,000	-0,143	-0,943
-56,505	-200,000	-1,325	-4,989
-55,490	-11,872	0,986	0,462
-54,476	800,000	5,277	12,106
-53,461	-200,000	17,861	289,744
-52,446	800,000	726,578	2228,764
-51,432	536,225	1639,756	2803,618
-50,417	109,472	1629,517	1400,331
-49,403	73,105	1283,532	961,725
-48,388	31,418	1026,487	631,368
-47,373	19,862	988,321	569,819
-46,359	18,235	976,268	557,519
-45,344	15,510	972,321	546,337
-44,330	15,750	971,102	546,413
-43,315	15,264	969,185	543,728
-42,300	15,222	968,119	542,970
-41,286	15,215	967,119	542,367
-40,271	15,219	965,985	541,722
-39,257	15,242	965,231	541,353
-38,242	15,230	964,333	540,787
-37,227	15,245	963,470	540,329
-36,213	15,220	962,722	539,810
-35,198	15,188	961,849	539,194
-34,184	15,224	961,033	538,831
-33,169	15,199	960,018	538,162
-32,154	15,294	959,071	537,913
-31,140	15,205	958,421	537,243
-30,125	15,282	957,427	536,912
-29,111	15,240	956,638	536,314
-28,096	15,211	956,136	535,916
-27,082	15,324	955,310	535,797
-26,067	15,239	954,576	535,089
-25,052	15,245	953,885	534,699
-24,038	15,240	953,107	534,228
-23,023	15,232	952,553	533,871
-22,009	15,301	951,639	533,556
-20,994	15,225	951,085	532,982
-19,979	15,216	950,722	532,729
-18,965	15,211	950,047	532,315
-17,950	15,236	949,467	532,048
-16,936	15,185	948,727	531,449
-15,921	15,154	948,232	531,051
-14,906	15,134	947,329	530,461
-13,892	15,133	946,738	530,104
-12,877	15,095	946,083	529,598
-11,863	15,080	945,515	529,209
-10,848	15,128	944,924	529,010
-9,833	15,235	944,500	529,094
-8,819	15,162	943,812	528,455
-7,804	15,144	943,342	528,112
-6,790	15,078	942,827	527,595
-5,775	15,060	942,240	527,189
-4,760	15,135	941,446	526,959
-3,746	15,151	940,802	526,629
-2,731	14,963	940,166	525,657
-1,717	14,969	939,586	525,332
-0,702	14,951	939,002	524,929
0,313	14,786	938,314	524,814
1,327	18,192	936,025	534,205
2,342	27,381	790,115	475,144
3,356	23,948	445,014	262,504
4,371	-5,721	295,863	144,830
5,386	-9,608	277,288	132,039
6,400	-10,917	271,726	128,162
7,415	-10,921	269,318	127,011
8,429	-11,002	268,049	126,326
9,444	-11,012	266,957	125,792
10,459	-11,154	266,437	125,407
11,473	-11,276	266,059	125,106
12,488	-11,203	265,392	124,848
13,502	-11,424	264,736	124,328
14,517	-11,351	264,308	124,181
15,531	-11,308	263,979	124,055
16,546	-11,019	263,395	124,029
17,561	-11,287	263,328	123,746
18,575	-11,029	262,937	123,783
19,590	-11,208	262,523	123,416
20,604	-11,180	262,365	123,356
21,619	-11,114	261,992	123,228
22,634	-11,260	261,673	122,937
23,648	-11,375	261,235	122,617
24,663	-11,515	261,003	122,372
25,677	-11,336	260,811	122,432
26,692	-11,302	260,513	122,310
27,707	-11,199	260,186	122,238
28,721	-11,411	259,867	121,889
29,736	-11,337	259,767	121,897
30,750	-11,272	259,310	121,730
31,765	-11,361	259,167	121,573
32,780	-11,512	259,066	121,381
33,794	-11,449	258,702	121,255
34,809	-11,457	258,475	121,131
35,823	-11,354	258,152	121,059
36,838	-11,375	258,020	120,968
37,853	-11,484	257,881	120,796
38,867	-11,560	257,508	120,543
39,882	-11,693	257,393	120,362
40,896	-11,378	256,968	120,429
41,911	-11,515	256,826	120,232
42,926	-11,371	256,447	120,170
43,940	-11,365	256,336	120,112
44,955	-11,435	256,112	119,936
45,969	-11,546	255,838	119,699
46,984	-11,794	255,629	119,375
47,999	-12,230	255,502	118,925
49,013	-12,067	255,152	118,893
50,028	-12,288	254,911	118,578
51,042	-12,398	254,567	118,312
52,057	-12,259	254,318	118,306
53,071	-12,218	254,244	118,297
54,086	-12,322	254,011	118,087
55,101	-12,026	253,846	118,257
56,115	-11,762	253,713	118,413
57,130	-11,382	253,704	118,726
58,144	-11,262	253,570	118,757
59,159	-11,265	253,245	118,591
60,174	-11,125	252,975	118,575
61,188	-11,300	252,781	118,323
62,203	-11,224	252,675	118,328
63,217	-11,377	252,464	118,087
64,232	-11,343	252,203	117,984
65,247	-11,397	252,006	117,834
66,261	-11,285	251,876	117,860
67,276	-11,635	251,488	117,367
68,290	-11,807	251,188	117,070
69,305	-11,825	250,963	116,939
70,320	-11,971	250,790	116,723
71,334	-11,705	250,875	116,980
72,349	-11,298	250,544	117,162
73,363	-11,167	250,242	117,122
74,378	-11,212	250,049	116,983
75,393	-11,349	249,882	116,778
76,407	-11,308	249,585	116,664
77,422	-11,272	249,498	116,643
78,436	-11,309	249,251	116,486
79,451	-11,346	249,069	116,359
80,466	-11,455	248,855	116,157
81,480	-11,509	248,454	115,913
82,495	-11,642	248,289	115,714
83,509	-11,597	248,233	115,715
84,524	-11,610	248,056	115,612
85,539	-11,669	247,714	115,392
86,553	-11,870	247,607	115,163
87,568	-11,728	247,349	115,151
88,582	-11,537	247,196	115,231
89,597	-11,784	247,174	115,003
90,611	-11,478	246,962	115,151
91,626	-11,490	246,846	115,077
92,641	-11,416	246,670	115,046
93,655	-11,487	246,286	114,798
94,670	-11,514	246,136	114,695
95,684	-11,550	245,910	114,549
96,699	-11,374	245,748	114,610
97,714	-11,489	245,613	114,441
98,728	-11,627	245,261	114,152
99,743	-11,779	245,009	113,898
100,757	-11,584	244,773	113,940
101,772	-11,737	244,676	113,758
102,787	-11,796	244,713	113,715
103,801	-11,625	244,339	113,674
104,816	-11,640	244,192	113,583
105,830	-11,380	244,086	113,739
106,845	-11,313	243,915	113,704
107,860	-11,565	243,894	113,475
108,874	-11,456	243,486	113,366
109,889	-11,716	243,416	113,108
110,903	-11,554	242,986	113,033
111,918	-11,771	242,939	112,822
112,933	-11,540	242,772	112,924
113,947	-11,248	242,495	113,026
114,962	-11,321	242,503	112,959
115,976	-11,332	242,230	112,813
116,991	-11,500	242,028	112,571
118,006	-11,376	241,821	112,566
119,020	-11,501	241,807	112,447
120,035	-11,319	241,655	112,515
121,049	-11,221	241,451	112,490
122,064	-11,357	241,331	112,313
123,079	-11,407	240,982	112,100
124,093	-11,373	240,728	112,000
125,108	-11,817	240,588	111,562
126,122	-11,933	240,469	111,403
127,137	-12,059	240,239	111,184
128,151	-11,899	239,962	111,176
129,166	-11,527	239,683	111,339
130,181	-11,714	239,711	111,190
131,195	-11,772	239,496	111,033
132,210	-11,647	239,214	110,994
133,224	-11,527	239,192	111,071
134,239	-11,530	239,058	110,996
135,254	-11,488	238,921	110,957
136,268	-11,520	238,682	110,811
137,283	-11,887	238,271	110,313
138,297	-11,997	238,143	110,156
139,312	-11,915	238,005	110,148
140,327	-11,748	237,883	110,217
141,341	-11,163	237,788	110,633
142,356	-11,015	237,656	110,681
143,370	-11,039	237,620	110,635
144,385	-11,177	237,482	110,450
145,400	-10,921	237,311	110,566
146,414	-11,092	237,163	110,351
147,429	-11,043	236,872	110,244
148,443	-11,340	236,586	109,864
149,458	-11,069	236,497	110,029
150,473	-11,074	236,419	109,979
151,487	-11,240	236,106	109,691
152,502	-11,020	235,996	109,806
153,516	-11,277	235,942	109,566
154,531	-11,180	235,717	109,529
155,546	-11,081	235,484	109,489
156,560	-11,266	235,219	109,210
157,575	-11,277	234,919	109,051
158,589	-11,518	235,096	108,933
159,604	-11,238	234,857	109,035
160,619	-11,149	234,671	109,009
161,633	-11,231	234,727	108,960
162,648	-11,115	234,414	108,897
163,662	-11,169	234,207	108,749
164,677	-11,229	233,994	108,593
165,692	-11,253	233,752	108,451
166,706	-11,041	233,712	108,591
167,721	-10,851	233,584	108,672
168,735	-10,859	233,427	108,582
169,750	-10,959	233,182	108,380
170,764	-11,233	233,232	108,178
171,779	-11,056	233,036	108,216
172,794	-11,082	233,049	108,192
173,808	-11,167	232,641	107,926
174,823	-11,819	232,415	107,301
175,837	-12,006	232,188	107,040
176,852	-11,207	231,999	107,569
177,867	-11,206	232,086	107,600
178,881	-11,267	231,963	107,486
179,896	-11,026	231,742	107,563
180,910	-10,921	231,516	107,530
181,925	-10,929	231,500	107,506
182,940	-11,019	231,382	107,371
183,954	-11,053	231,207	107,254
184,969	-10,946	230,907	107,189
185,983	-10,840	230,825	107,224
186,998	-10,910	230,712	107,107
188,013	-10,739	230,646	107,200
189,027	-10,736	230,421	107,088
190,042	-10,831	230,138	106,874
191,056	-10,885	230,030	106,772
192,071	-10,893	229,870	106,682
193,086	-10,951	229,664	106,532
194,100	-10,894	229,657	106,563
195,115	-11,289	229,141	106,010
196,129	-11,754	229,041	105,596
197,144	-5,990	231,017	110,976
198,159	0,450	232,793	116,847
199,173	2,920	233,332	119,035
200,188	3,182	233,457	119,292
201,202	3,375	233,230	119,316
202,217	3,541	233,026	119,330
203,232	3,762	233,047	119,503
204,246	3,824	232,947	119,488
205,261	3,804	232,921	119,449
206,275	3,940	232,784	119,474
207,290	4,046	232,574	119,437
208,304	4,113	232,250	119,312
209,319	3,936	232,209	119,144
210,334	3,868	232,156	119,053
211,348	3,722	231,725	118,709
212,363	3,409	231,450	118,315
213,377	3,003	231,335	117,933
214,392	2,941	231,197	117,804
215,407	2,875	231,210	117,749
216,421	3,176	231,042	117,885
217,436	3,138	230,794	117,719
218,450	2,939	230,476	117,393
219,465	2,994	230,271	117,321
220,480	3,215	230,252	117,470
221,494	3,103	230,211	117,353
222,509	3,122	229,940	117,219
223,523	3,131	229,885	117,187
224,538	3,124	229,675	117,064
225,553	3,079	229,532	116,946
226,567	3,384	229,354	117,079
227,582	3,597	229,229	117,167
228,596	3,649	229,246	117,205
229,611	3,317	228,937	116,783
230,626	2,930	228,693	116,354
231,640	3,082	228,465	116,343
232,655	3,406	228,632	116,664
233,669	3,760	228,494	116,853
234,684	3,974	228,404	116,959
235,699	3,546	228,091	116,463
236,713	3,304	227,932	116,188
237,728	3,103	227,780	115,948
238,742	3,205	227,523	115,884
239,757	3,231	227,484	115,874
240,772	3,002	227,444	115,669
241,786	3,106	227,172	115,600
242,801	3,244	227,039	115,626
243,815	3,696	226,999	115,936
244,830	3,796	226,666	115,831
245,844	3,484	226,517	115,510
246,859	3,443	226,414	115,416
247,874	3,581	226,299	115,451
248,888	3,508	226,080	115,274
249,903	3,418	226,142	115,228
250,917	3,312	225,860	114,994
251,932	3,144	225,743	114,798
252,947	3,135	225,559	114,687
253,961	3,222	225,396	114,660
254,976	3,120	225,303	114,526
255,990	3,371	225,208	114,655
257,005	3,486	225,099	114,675
258,020	3,409	225,012	114,563
259,034	3,599	224,980	114,679
260,049	3,565	224,689	114,495
261,063	3,529	224,446	114,334
262,078	3,591	224,306	114,298
263,093	3,630	224,225	114,276
264,107	3,454	224,188	114,116
265,122	3,548	223,915	114,037
266,136	3,602	224,015	114,118
267,151	3,803	223,545	114,018
268,166	3,429	223,376	113,644
269,180	3,215	223,121	113,345
270,195	3,100	223,123	113,251
271,209	3,144	222,935	113,178
272,224	3,200	222,866	113,175
273,239	3,528	222,772	113,359
274,253	3,330	222,518	113,073
275,268	2,846	222,295	112,593
276,282	3,020	222,128	112,626
277,297	2,858	221,991	112,428
278,312	2,970	222,008	112,509
279,326	3,368	221,778	112,675
280,341	3,169	221,736	112,497
281,355	3,242	221,523	112,433
282,370	3,307	221,322	112,369
283,384	2,995	221,120	112,028
284,399	3,020	220,885	111,917
285,414	2,935	220,879	111,841
286,428	3,062	220,786	111,877
287,443	3,218	220,758	111,967
288,457	3,353	220,599	111,976
289,472	3,063	220,231	111,567
290,487	2,680	220,121	111,222
291,501	2,698	219,962	111,145
292,516	2,809	219,868	111,168
293,530	2,883	219,862	111,209
294,545	2,901	219,699	111,130
295,560	3,095	219,442	111,131
296,574	2,997	219,533	111,096
297,589	3,087	219,414	111,091
298,603	3,399	219,189	111,194
299,618	3,451	218,901	111,075
300,633	3,151	218,938	110,866
301,647	3,581	218,786	111,091
302,662	3,425	218,693	110,921
303,676	3,412	218,500	110,804
304,691	3,415	218,414	110,753
305,706	3,396	218,294	110,668
306,720	3,535	217,964	110,591
307,735	3,014	217,832	110,140
308,749	3,143	217,770	110,191
309,764	3,200	217,660	110,166
310,779	3,296	217,655	110,223
311,793	3,490	217,317	110,181
312,808	3,404	217,214	110,058
313,822	3,372	217,099	109,967
314,837	3,126	216,865	109,662
315,852	3,015	216,740	109,509
316,866	3,134	216,630	109,530
317,881	3,335	216,636	109,667
318,895	3,463	216,384	109,620
319,910	3,084	216,296	109,295
320,925	2,873	215,973	108,972
321,939	2,617	215,823	108,703
322,954	2,829	215,773	108,820
323,968	3,099	215,767	109,000
324,983	3,404	215,574	109,110
325,997	3,058	215,400	108,766
327,012	3,228	215,128	108,739
328,027	3,430	215,249	108,935
329,041	3,688	215,098	109,032
330,056	3,515	215,107	108,904
331,070	3,160	214,739	108,456
332,085	2,921	214,566	108,189
333,100	2,968	214,411	108,135
334,114	2,992	214,417	108,145
335,129	3,200	214,155	108,151
336,143	2,904	214,100	107,905
337,158	3,030	213,942	107,903
338,173	3,237	213,832	107,985
339,187	2,964	213,618	107,675
340,202	3,049	213,443	107,637
341,216	2,775	213,284	107,354
342,231	2,954	213,252	107,454
343,246	3,025	213,086	107,411
344,260	3,316	212,973	107,549
345,275	3,143	212,776	107,319
346,289	3,269	212,760	107,389
347,304	3,440	212,550	107,393
348,319	3,155	212,388	107,103
349,333	3,152	212,274	107,033
350,348	3,255	212,161	107,039
351,362	3,529	212,091	107,186
352,377	3,551	211,877	107,084
353,392	3,160	211,798	106,761
354,406	3,605	211,692	107,008
355,421	196,388	1340,032	1420,423
356,435	156,918	1477,480	1420,400
