DTS Sentinel unit serial number:	SN410029Multiplexer serial number:	ORYXHardware model number:	OX2-SRSoftware version number:	ORYX F/W v4,00 Oryx Data Collector v3.7.2.0data status	okinstallation	B6 Nyhavnadifferential loss correction	single-endedforward channel	channel 2reverse channel	N/Adate	2023/12/09time	03:35:08forward acquisition time	300,00reverse acquisition time	0,00gamma	499,1914k internal	0,3153k external	0,3153temperature offset calibration	1,0000default loss term (dB/km)	0,3820temperature slope calibration	1,0000multiplexer offset coefficient	1,0000multiplexer slope coefficient	1,0000fibre end	0,00T internal ref (°C)	16,39T ext. ref 1 (°C)	0,57T ext. ref 2 (°C)	0,57length (m)	temperature (°C)	Stokes	anti-Stokes-744,400	534,069	0,056	0,098
-743,385	-132,055	-0,362	-0,034
-742,371	-0,421	0,171	-0,089
-741,356	-174,543	-0,273	-0,006
-740,342	27,173	0,125	0,077
-739,327	-53,728	-0,243	0,081
-738,312	-200,000	-0,012	0,094
-737,298	-4,888	-0,203	-0,103
-736,283	-24,247	0,058	0,025
-735,269	-11,950	-0,178	0,086
-734,254	526,802	0,057	-0,100
-733,239	-87,397	-0,516	-0,114
-732,225	-91,500	0,133	0,028
-731,210	542,088	0,038	0,067
-730,196	-200,000	-0,006	-0,023
-729,181	-54,379	-0,123	0,041
-728,167	97,479	0,119	-0,101
-727,152	800,000	-0,020	-0,064
-726,137	475,979	0,028	0,047
-725,123	-152,761	-0,069	-0,004
-724,108	-200,000	0,024	-0,158
-723,094	798,784	-0,078	-0,159
-722,079	365,687	-0,064	0,095
-721,064	58,201	-0,083	-0,060
-720,050	-54,390	-0,119	-0,039
-719,035	590,501	0,051	0,094
-718,021	800,000	0,010	0,029
-717,006	379,606	-0,049	-0,074
-715,991	-200,000	-0,000	-0,235
-714,977	564,806	-0,013	-0,023
-713,962	-39,138	-0,071	-0,027
-712,948	35,320	-0,104	0,067
-711,933	3,097	-0,053	-0,028
-710,918	-0,151	-0,089	-0,047
-709,904	-135,846	-0,164	0,014
-708,889	-0,407	-0,066	0,034
-707,875	-28,714	-0,162	0,069
-706,860	177,357	-0,061	-0,065
-705,845	68,536	-0,069	-0,052
-704,831	66,752	-0,065	0,049
-703,816	51,267	0,104	-0,073
-702,802	-12,736	0,058	-0,028
-701,787	65,995	-0,057	-0,043
-700,772	-200,000	-0,005	0,028
-699,758	800,000	-0,049	0,109
-698,743	128,031	0,061	-0,057
-697,729	800,000	-0,035	0,105
-696,714	-10,238	0,078	0,038
-695,699	-199,460	-0,189	-0,001
-694,685	-50,231	0,106	-0,037
-693,670	422,708	-0,032	-0,050
-692,656	-52,962	-0,079	-0,027
-691,641	-14,915	-0,098	-0,046
-690,627	800,000	0,046	-0,101
-689,612	559,061	0,020	-0,036
-688,597	49,227	-0,074	0,051
-687,583	187,878	-0,112	-0,123
-686,568	-200,000	-0,015	0,074
-685,554	-200,000	-0,001	-0,088
-684,539	-44,550	-0,077	0,028
-683,524	674,218	-0,043	-0,083
-682,510	520,687	-0,059	-0,102
-681,495	-200,000	0,012	0,077
-680,481	-28,736	0,020	0,009
-679,466	-52,828	-0,074	0,025
-678,451	800,000	-0,031	-0,066
-677,437	655,679	-0,040	0,075
-676,422	-200,000	0,040	0,131
-675,408	800,000	-0,026	0,073
-674,393	-106,477	0,066	-0,011
-673,378	-66,896	-0,080	0,023
-672,364	-37,377	-0,133	0,052
-671,349	800,000	-0,074	-0,181
-670,335	-7,569	-0,011	-0,006
-669,320	-3,993	0,068	0,035
-668,305	800,000	-0,067	0,145
-667,291	-6,221	-0,051	0,026
-666,276	-40,987	-0,059	0,022
-665,262	278,723	0,042	0,056
-664,247	696,318	-0,067	-0,130
-663,232	-41,152	0,117	-0,044
-662,218	-132,280	-0,075	0,007
-661,203	-200,000	0,002	-0,028
-660,189	800,000	0,043	-0,100
-659,174	-37,958	-0,067	0,026
-658,159	-200,000	-0,014	-0,083
-657,145	148,254	0,006	0,006
-656,130	218,695	-0,049	-0,058
-655,116	-78,213	-0,080	0,020
-654,101	800,000	0,028	0,068
-653,086	58,346	-0,087	-0,063
-652,072	-174,096	-0,067	-0,001
-651,057	800,000	-0,099	-0,210
-650,043	-200,000	-0,008	0,033
-649,028	-200,000	0,009	-0,031
-648,014	-134,135	0,081	-0,007
-646,999	-89,661	0,028	0,006
-645,984	800,000	0,061	0,192
-644,970	-34,964	0,078	-0,031
-643,955	79,248	0,024	0,019
-642,941	-25,218	-0,122	0,053
-641,926	139,602	0,073	0,071
-640,911	-200,000	0,002	0,008
-639,897	-160,948	0,077	0,003
-638,882	800,000	0,024	-0,060
-637,868	187,437	-0,090	0,099
-636,853	-57,398	-0,066	0,021
-635,838	679,864	0,112	-0,215
-634,824	-200,000	0,014	-0,099
-633,809	-197,817	-0,103	-0,000
-632,795	-200,000	-0,021	0,111
-631,780	562,539	-0,071	-0,126
-630,765	-200,000	-0,014	-0,070
-629,751	263,684	-0,025	0,032
-628,736	719,030	-0,011	0,021
-627,722	301,379	-0,017	-0,024
-626,707	347,619	-0,049	-0,071
-625,692	800,000	0,046	-0,149
-624,678	-12,377	-0,141	-0,067
-623,663	696,886	0,031	0,060
-622,649	82,360	0,076	-0,060
-621,634	-91,898	-0,130	-0,027
-620,619	-83,718	0,123	-0,029
-619,605	229,924	0,046	-0,056
-618,590	800,000	-0,027	0,086
-617,576	5,676	-0,081	0,044
-616,561	-164,894	0,092	0,003
-615,546	91,402	-0,081	-0,067
-614,532	-78,250	-0,053	0,013
-613,517	-200,000	0,021	0,076
-612,503	-200,000	0,003	0,074
-611,488	-24,467	0,012	-0,005
-610,474	800,000	0,021	0,066
-609,459	86,844	-0,090	0,073
-608,444	-122,843	-0,081	-0,009
-607,430	101,395	-0,051	-0,043
-606,415	366,938	-0,067	-0,099
-605,401	-124,273	0,115	0,013
-604,386	694,818	0,061	-0,119
-603,371	10,509	-0,093	0,052
-602,357	-192,796	-0,075	-0,000
-601,342	-200,000	-0,002	-0,096
-600,328	-200,000	-0,004	0,069
-599,313	37,615	-0,080	0,052
-598,298	605,507	0,034	0,062
-597,284	-200,000	-0,006	0,159
-596,269	167,104	0,064	-0,067
-595,255	-143,520	-0,102	0,007
-594,240	-12,295	0,198	0,095
-593,225	26,775	-0,066	-0,041
-592,211	383,972	-0,075	-0,114
-591,196	-75,711	0,073	-0,019
-590,182	-2,401	-0,164	0,084
-589,167	-10,287	-0,061	-0,030
-588,152	-72,746	-0,180	-0,048
-587,138	81,277	0,019	0,015
-586,123	690,612	-0,111	-0,215
-585,109	429,307	-0,041	-0,065
-584,094	800,000	0,032	0,092
-583,079	-90,803	0,124	0,026
-582,065	-97,807	0,006	0,001
-581,050	79,577	-0,074	0,058
-580,036	794,826	-0,019	0,038
-579,021	33,898	-0,110	-0,070
-578,006	568,922	-0,063	-0,113
-576,992	126,899	0,034	-0,032
-575,977	111,387	0,094	-0,083
-574,963	-179,704	0,076	0,001
-573,948	-200,000	-0,022	0,164
-572,934	-57,728	-0,039	0,012
-571,919	-116,489	-0,110	0,015
-570,904	-110,664	-0,142	-0,021
-569,890	-200,000	0,008	-0,199
-568,875	40,110	-0,019	-0,013
-567,861	524,244	0,033	-0,058
-566,846	-13,184	0,100	0,048
-565,831	31,265	0,084	0,053
-564,817	-200,000	0,003	-0,064
-563,802	116,067	-0,090	0,081
-562,788	800,000	0,035	0,099
-561,773	571,754	-0,039	-0,070
-560,758	-24,639	0,136	0,059
-559,744	33,427	0,089	0,056
-558,729	-200,000	-0,038	0,126
-557,715	225,391	-0,088	0,105
-556,700	106,672	0,060	0,052
-555,685	577,955	-0,024	-0,044
-554,671	-200,000	-0,002	0,067
-553,656	-200,000	-0,011	0,043
-552,642	-62,340	0,093	0,028
-551,627	800,000	0,059	0,148
-550,612	14,239	-0,108	0,061
-549,598	169,187	0,075	-0,079
-548,583	-133,246	0,078	-0,007
-547,569	94,095	0,079	-0,066
-546,554	-141,410	-0,075	0,005
-545,539	-200,000	0,010	-0,076
-544,525	-200,000	-0,002	-0,076
-543,510	47,641	-0,085	0,058
-542,496	-200,000	-0,002	0,051
-541,481	72,777	-0,049	-0,038
-540,466	800,000	-0,057	-0,133
-539,452	322,751	0,114	-0,159
-538,437	-200,000	-0,015	0,141
-537,423	60,305	0,049	-0,035
-536,408	-121,334	-0,057	-0,007
-535,393	-111,816	-0,064	0,009
-534,379	-34,787	-0,041	0,017
-533,364	800,000	-0,037	-0,104
-532,350	-165,980	0,081	0,002
-531,335	-200,000	-0,003	0,078
-530,321	221,786	0,037	-0,044
-529,306	622,765	-0,033	-0,062
-528,291	-200,000	0,007	0,046
-527,277	-100,083	-0,136	-0,025
-526,262	553,996	0,071	-0,125
-525,248	-200,000	-0,014	0,112
-524,233	170,797	0,112	0,118
-523,218	-75,589	-0,061	-0,016
-522,204	-103,879	-0,173	-0,029
-521,189	-200,000	-0,040	-0,130
-520,175	6,835	-0,027	0,015
-519,160	800,000	0,037	-0,094
-518,145	-8,867	0,197	-0,096
-517,131	-200,000	-0,031	0,152
-516,116	-200,000	-0,023	0,089
-515,102	51,886	0,116	0,081
-514,087	87,246	0,060	-0,048
-513,072	117,028	-0,118	-0,106
-512,058	-200,000	0,011	-0,063
-511,043	130,242	0,032	0,030
-510,029	-200,000	0,003	-0,064
-509,014	-200,000	0,029	0,127
-507,999	54,501	0,028	-0,020
-506,985	24,228	-0,039	0,023
-505,970	-79,494	-0,128	0,032
-504,956	-200,000	-0,000	0,080
-503,941	14,860	-0,095	-0,054
-502,926	-88,142	0,101	-0,022
-501,912	800,000	0,052	0,150
-500,897	-200,000	0,009	-0,038
-499,883	-75,236	-0,068	-0,018
-498,868	800,000	0,059	-0,150
-497,853	-200,000	-0,013	-0,062
-496,839	800,000	-0,047	-0,115
-495,824	-200,000	-0,005	-0,061
-494,810	162,910	0,034	0,035
-493,795	-200,000	0,031	-0,129
-492,781	96,291	-0,071	-0,060
-491,766	274,233	-0,065	-0,084
-490,751	197,433	-0,060	-0,067
-489,737	148,492	0,019	0,019
-488,722	800,000	0,022	0,055
-487,708	-92,525	0,003	0,001
-486,693	483,526	0,056	0,093
-485,678	-200,000	-0,030	0,000
-484,664	5,949	0,075	0,041
-483,649	-93,417	-0,106	0,021
-482,635	-66,256	0,096	-0,028
-481,620	800,000	0,014	0,030
-480,605	-200,000	0,005	-0,032
-479,591	-95,280	-0,032	0,006
-478,576	-71,225	0,053	-0,015
-477,562	415,422	0,055	-0,086
-476,547	19,298	-0,045	0,027
-475,532	-200,000	-0,019	0,108
-474,518	800,000	0,032	-0,095
-473,503	34,903	0,087	0,056
-472,489	800,000	-0,034	-0,091
-471,474	-200,000	0,005	-0,031
-470,459	-102,442	0,096	0,017
-469,445	-200,000	-0,001	-0,017
-468,430	60,737	0,052	-0,038
-467,416	-200,000	0,004	0,063
-466,401	71,986	0,059	0,045
-465,386	-200,000	0,021	0,103
-464,372	-200,000	-0,012	0,065
-463,357	-200,000	-0,019	-0,160
-462,343	146,850	-0,078	0,076
-461,328	-200,000	-0,005	-0,090
-460,313	-30,911	0,066	-0,027
-459,299	166,247	0,101	0,104
-458,284	800,000	0,010	0,029
-457,270	-200,000	0,031	0,119
-456,255	-200,000	0,011	-0,143
-455,241	-95,914	-0,049	0,009
-454,226	-167,411	-0,073	-0,002
-453,211	-200,000	-0,000	0,026
-452,197	42,264	0,186	-0,123
-451,182	-3,194	-0,009	-0,005
-450,168	229,668	-0,084	0,100
-449,153	-200,000	0,018	-0,100
-448,138	167,805	-0,068	0,070
-447,124	-200,000	0,001	0,037
-446,109	-200,000	0,022	0,125
-445,095	-200,000	0,018	0,139
-444,080	-105,454	-0,015	0,003
-443,065	-200,000	-0,031	0,285
-442,051	62,985	-0,050	0,036
-441,036	91,423	0,082	0,067
-440,022	798,360	0,023	-0,047
-439,007	344,635	-0,050	0,071
-437,992	-200,000	0,010	-0,124
-436,978	-27,814	0,134	0,056
-435,963	95,110	0,059	-0,049
-434,949	212,834	-0,107	-0,124
-433,934	-118,711	0,128	-0,016
-432,919	264,038	-0,093	-0,118
-431,905	256,340	0,056	-0,071
-430,890	98,623	0,090	-0,075
-429,876	142,107	0,042	-0,040
-428,861	-200,000	-0,018	0,124
-427,846	-183,681	-0,075	-0,001
-426,832	-1,966	0,028	0,014
-425,817	-200,000	-0,022	-0,073
-424,803	-200,000	0,001	-0,020
-423,788	-22,616	0,035	0,015
-422,773	800,000	0,040	-0,083
-421,759	-84,828	-0,074	-0,017
-420,744	549,320	0,066	0,116
-419,730	271,797	-0,056	-0,072
-418,715	-200,000	-0,014	-0,235
-417,701	482,303	-0,010	-0,016
-416,686	-200,000	-0,013	-0,160
-415,671	-28,858	-0,113	0,047
-414,657	13,272	-0,040	-0,023
-413,642	278,458	-0,145	0,189
-412,628	-83,915	0,119	-0,027
-411,613	800,000	-0,018	-0,050
-410,598	99,872	-0,136	-0,115
-409,584	-127,732	0,031	0,003
-408,569	129,873	0,046	-0,043
-407,555	-200,000	0,005	-0,084
-406,540	31,489	-0,144	-0,090
-405,525	800,000	-0,016	-0,038
-404,511	678,509	-0,037	-0,070
-403,496	157,687	-0,069	-0,070
-402,482	466,255	0,042	0,068
-401,467	800,000	0,013	0,029
-400,452	663,389	-0,060	0,113
-399,438	800,000	-0,031	0,078
-398,423	-11,112	-0,063	-0,030
-397,409	-29,811	-0,084	-0,035
-396,394	800,000	0,043	-0,127
-395,379	108,536	0,068	0,059
-394,365	400,117	-0,025	0,039
-393,350	800,000	-0,025	0,069
-392,336	-90,034	0,089	-0,019
-391,321	800,000	-0,052	0,157
-390,306	107,787	-0,038	-0,033
-389,292	55,953	-0,065	-0,046
-388,277	-78,882	0,151	0,037
-387,263	-200,000	-0,006	0,115
-386,248	67,167	0,126	0,094
-385,233	141,239	-0,169	0,163
-384,219	160,319	0,119	0,120
-383,204	506,184	0,060	-0,102
-382,190	70,613	-0,073	-0,055
-381,175	-200,000	0,007	0,067
-380,160	-25,225	0,057	0,024
-379,146	175,256	0,036	-0,038
-378,131	65,050	0,090	0,066
-377,117	-200,000	0,008	-0,061
-376,102	175,937	-0,100	-0,106
-375,088	46,816	0,113	-0,076
-374,073	196,517	-0,065	0,072
-373,058	-200,000	-0,019	0,085
-372,044	145,727	0,108	0,105
-371,029	-200,000	0,041	0,145
-370,015	179,107	-0,026	0,028
-369,000	406,207	-0,034	-0,052
-367,985	-200,000	0,008	-0,082
-366,971	-200,000	-0,023	0,074
-365,956	380,681	-0,094	0,141
-364,942	800,000	0,041	0,105
-363,927	-173,990	0,083	-0,002
-362,912	41,876	-0,075	-0,049
-361,898	-134,615	-0,148	0,013
-360,883	32,058	-0,108	-0,068
-359,869	-200,000	-0,011	-0,124
-358,854	33,776	0,136	-0,086
-357,839	-15,326	0,137	0,063
-356,825	18,189	0,050	-0,029
-355,810	101,471	-0,065	-0,055
-354,796	800,000	-0,022	0,057
-353,781	519,383	-0,039	0,066
-352,766	104,259	-0,048	-0,041
-351,752	-200,000	-0,013	0,124
-350,737	-8,289	0,082	0,040
-349,723	180,216	0,072	-0,077
-348,708	31,820	0,147	0,092
-347,693	318,893	0,093	0,129
-346,679	39,151	-0,041	0,026
-345,664	800,000	-0,046	-0,121
-344,650	247,542	-0,029	-0,035
-343,635	-200,000	-0,004	-0,065
-342,620	-147,396	0,088	0,005
-341,606	-200,000	0,006	-0,059
-340,591	54,230	-0,103	-0,072
-339,577	-200,000	-0,005	-0,018
-338,562	122,265	0,112	0,102
-337,548	800,000	-0,032	-0,085
-336,533	800,000	0,008	0,022
-335,518	190,161	-0,036	-0,040
-334,504	800,000	0,044	0,124
-333,489	755,899	0,071	0,139
-332,475	-200,000	0,003	0,160
-331,460	482,814	0,042	0,069
-330,445	-41,862	-0,151	0,056
-329,431	282,638	0,055	0,071
-328,416	-200,000	0,010	-0,124
-327,402	-31,746	0,140	-0,057
-326,387	513,436	0,034	0,058
-325,372	-125,092	-0,070	0,008
-324,358	-16,675	-0,031	-0,014
-323,343	-79,472	-0,100	-0,024
-322,329	-100,602	0,062	0,011
-321,314	-97,751	0,131	0,024
-320,299	-14,593	-0,138	0,064
-319,285	-178,643	-0,039	0,001
-318,270	91,440	0,059	-0,048
-317,256	12,536	-0,075	0,042
-316,241	39,853	0,142	-0,093
-315,226	-200,000	0,008	0,031
-314,212	800,000	-0,050	0,143
-313,197	-59,306	0,106	0,033
-312,183	-143,629	0,055	0,004
-311,168	-52,934	0,059	-0,019
-310,153	-188,098	0,101	0,001
-309,139	-25,245	0,061	-0,026
-308,124	-109,809	0,171	0,026
-307,110	86,049	0,039	0,031
-306,095	82,628	-0,087	0,069
-305,080	800,000	-0,043	-0,110
-304,066	-71,788	-0,129	-0,035
-303,051	99,578	-0,070	0,059
-302,037	-27,409	-0,063	-0,027
-301,022	-200,000	-0,004	0,032
-300,008	386,917	0,085	-0,127
-298,993	-71,568	0,118	-0,032
-297,978	-200,000	-0,057	0,195
-296,964	222,047	0,073	0,086
-295,949	-200,000	0,031	0,153
-294,935	-200,000	0,029	0,100
-293,920	-38,252	0,147	-0,056
-292,905	-200,000	0,013	-0,079
-291,891	5,235	0,111	-0,059
-290,876	428,824	-0,032	-0,050
-289,862	-200,000	-0,014	0,113
-288,847	-148,876	-0,047	0,003
-287,832	-121,135	-0,014	0,002
-286,818	-200,000	-0,013	0,196
-285,803	-37,612	0,059	-0,023
-284,789	277,032	-0,096	0,124
-283,774	800,000	0,017	0,045
-282,759	-121,107	0,086	-0,010
-281,745	800,000	0,058	-0,176
-280,730	-130,466	-0,108	0,010
-279,716	479,569	0,029	0,048
-278,701	67,963	-0,043	-0,032
-277,686	-200,000	0,015	0,077
-276,672	-90,202	0,120	-0,025
-275,657	800,000	-0,052	-0,115
-274,643	-11,319	-0,078	0,037
-273,628	27,176	0,032	0,020
-272,613	34,609	-0,043	-0,027
-271,599	-200,000	0,007	0,120
-270,584	22,766	0,011	-0,006
-269,570	-112,408	-0,040	-0,006
-268,555	710,772	0,006	-0,011
-267,540	-133,706	-0,050	-0,004
-266,526	-200,000	-0,002	-0,014
-265,511	-200,000	-0,021	0,083
-264,497	800,000	-0,030	0,074
-263,482	51,514	0,025	-0,017
-262,467	53,309	0,109	-0,076
-261,453	762,669	-0,057	0,113
-260,438	-200,000	-0,020	-0,142
-259,424	529,641	-0,061	0,105
-258,409	-200,000	0,006	-0,074
-257,395	-157,423	0,032	-0,001
-256,380	-160,724	0,106	-0,004
-255,365	231,586	0,100	-0,119
-254,351	-120,669	0,129	-0,016
-253,336	187,370	-0,016	-0,018
-252,322	5,723	-0,159	-0,085
-251,307	13,154	-0,034	-0,019
-250,292	119,733	-0,166	-0,149
-249,278	-112,674	0,112	-0,016
-248,263	800,000	0,035	-0,071
-247,249	-200,000	-0,002	0,189
-246,234	-51,686	-0,090	0,030
-245,219	229,952	-0,060	-0,071
-244,205	800,000	-0,038	-0,108
-243,190	-36,169	0,059	-0,023
-242,176	778,714	0,039	-0,078
-241,161	298,784	0,033	0,044
-240,146	535,264	0,027	-0,047
-239,132	474,019	0,040	0,065
-238,117	-53,282	0,042	-0,014
-237,103	-200,000	0,008	-0,080
-236,088	30,594	0,075	0,047
-235,073	-108,661	0,061	0,009
-234,059	-200,000	0,010	0,035
-233,044	-80,263	-0,069	-0,017
-232,030	76,100	0,053	-0,041
-231,015	305,807	0,045	-0,061
-230,000	-140,723	-0,290	-0,021
-228,986	-65,327	0,085	0,025
-227,971	-60,379	0,065	-0,020
-226,957	800,000	0,026	0,060
-225,942	14,746	0,117	0,066
-224,927	19,880	-0,091	-0,053
-223,913	800,000	-0,048	-0,119
-222,898	67,574	-0,105	-0,078
-221,884	-200,000	0,003	-0,047
-220,869	196,354	0,078	0,086
-219,855	-200,000	-0,013	0,115
-218,840	-46,687	0,124	-0,044
-217,825	-200,000	-0,000	-0,060
-216,811	102,669	0,039	-0,033
-215,796	800,000	0,036	-0,074
-214,782	235,114	-0,125	-0,150
-213,767	-87,326	0,104	-0,023
-212,752	71,977	0,037	0,028
-211,738	-200,000	0,001	0,060
-210,723	-32,430	0,058	0,023
-209,709	207,801	-0,101	0,114
-208,694	6,813	-0,022	-0,012
-207,679	168,490	0,062	0,064
-206,665	218,171	-0,058	-0,067
-205,650	25,408	0,064	-0,038
-204,636	358,829	0,022	-0,032
-203,621	592,507	-0,042	-0,075
-202,606	-175,181	0,047	0,001
-201,592	-200,000	-0,082	-0,000
-200,577	800,000	-0,057	-0,119
-199,563	36,107	0,014	-0,009
-198,548	800,000	0,046	0,138
-197,533	92,341	-0,081	-0,066
-196,519	59,761	-0,026	0,019
-195,504	-200,000	0,020	-0,088
-194,490	-200,000	0,012	-0,149
-193,475	49,941	-0,107	-0,073
-192,460	21,218	-0,059	0,034
-191,446	-200,000	0,013	0,070
-190,431	-200,000	0,000	0,070
-189,417	-200,000	0,011	0,091
-188,402	-200,000	0,004	-0,102
-187,387	-200,000	-0,007	-0,120
-186,373	800,000	0,044	-0,119
-185,358	116,872	0,054	-0,048
-184,344	-111,475	0,174	0,025
-183,329	593,913	-0,073	0,130
-182,315	-61,723	-0,047	0,014
-181,300	-200,000	0,009	0,144
-180,285	-200,000	-0,025	-0,241
-179,271	-52,285	-0,071	0,024
-178,256	43,889	-0,062	-0,041
-177,242	581,386	-0,065	0,115
-176,227	-200,000	0,002	-0,066
-175,212	-200,000	0,021	-0,096
-174,198	-25,327	-0,033	-0,014
-173,183	74,292	-0,122	-0,093
-172,169	20,479	-0,113	0,066
-171,154	497,011	-0,028	-0,046
-170,139	-6,789	0,030	-0,015
-169,125	86,480	0,066	0,053
-168,110	-200,000	-0,052	0,213
-167,096	-15,436	-0,035	0,016
-166,081	412,788	-0,023	-0,035
-165,066	-200,000	0,005	-0,072
-164,052	436,148	-0,070	0,111
-163,037	800,000	-0,035	0,108
-162,023	-200,000	0,008	0,158
-161,008	302,413	0,090	0,121
-159,993	408,452	-0,020	-0,030
-158,979	112,484	-0,072	0,063
-157,964	-200,000	0,009	0,075
-156,950	-200,000	-0,005	-0,126
-155,935	-22,545	-0,086	0,037
-154,920	-12,834	0,175	0,082
-153,906	800,000	0,026	-0,060
-152,891	313,025	-0,048	-0,065
-151,877	244,254	0,016	0,019
-150,862	379,228	-0,032	-0,048
-149,847	800,000	-0,052	-0,154
-148,833	-130,688	0,134	-0,013
-147,818	124,997	-0,105	0,096
-146,804	800,000	-0,053	0,153
-145,789	-90,425	-0,034	0,007
-144,775	-200,000	0,025	0,085
-143,760	126,715	-0,043	-0,040
-142,745	800,000	-0,041	0,108
-141,731	-141,340	0,044	0,003
-140,716	110,237	-0,097	0,084
-139,702	69,518	0,068	-0,051
-138,687	-200,000	-0,001	0,012
-137,672	560,876	0,031	-0,054
-136,658	-197,885	-0,131	-0,001
-135,643	-55,471	-0,056	0,018
-134,629	74,072	-0,125	0,094
-133,614	800,000	0,040	0,101
-132,599	239,215	0,156	0,188
-131,585	83,845	-0,049	-0,038
-130,570	91,557	-0,052	0,042
-129,556	-88,250	0,013	0,003
-128,541	-153,521	-0,148	-0,007
-127,526	125,032	-0,029	0,026
-126,512	167,119	0,143	-0,147
-125,497	-165,559	0,086	-0,003
-124,483	252,758	0,054	0,067
-123,468	-103,985	0,126	-0,021
-122,453	193,643	-0,121	-0,132
-121,439	-200,000	0,031	0,113
-120,424	-37,622	-0,096	0,037
-119,410	-64,372	0,105	-0,031
-118,395	-36,517	0,156	-0,060
-117,380	-53,814	0,116	0,038
-116,366	800,000	-0,029	-0,066
-115,351	401,712	-0,064	-0,097
-114,337	-104,776	-0,058	-0,010
-113,322	110,239	0,092	-0,079
-112,307	-200,000	-0,008	0,082
-111,293	499,416	0,036	0,060
-110,278	-151,103	0,053	-0,003
-109,264	43,438	-0,048	0,032
-108,249	-200,000	-0,014	-0,045
-107,234	234,634	0,027	-0,032
-106,220	-8,611	-0,039	0,019
-105,205	800,000	0,017	-0,054
-104,191	178,425	0,051	-0,054
-103,176	800,000	0,027	-0,086
-102,162	201,300	0,086	0,096
-101,147	223,079	0,054	-0,063
-100,132	55,074	-0,070	0,049
-99,118	150,146	-0,099	-0,097
-98,103	281,467	0,083	-0,108
-97,089	-105,460	-0,050	-0,008
-96,074	273,715	0,044	0,056
-95,059	-200,000	-0,008	-0,039
-94,045	342,201	-0,095	-0,134
-93,030	-200,000	-0,027	-0,111
-92,016	800,000	-0,024	0,074
-91,001	-65,081	-0,170	0,049
-89,986	800,000	0,021	-0,055
-88,972	-60,741	0,130	-0,039
-87,957	56,473	-0,033	0,023
-86,943	-200,000	-0,022	-0,092
-85,928	52,140	-0,021	-0,014
-84,913	202,487	0,045	-0,050
-83,899	227,130	-0,034	0,040
-82,884	-200,000	-0,007	0,162
-81,870	-66,825	0,115	0,032
-80,855	47,242	-0,119	-0,080
-79,840	-44,133	-0,079	0,028
-78,826	-3,121	0,048	-0,024
-77,811	-58,633	-0,158	-0,049
-76,797	782,932	0,039	-0,077
-75,782	-200,000	-0,024	-0,087
-74,767	-200,000	-0,006	0,061
-73,753	395,303	0,054	-0,081
-72,738	94,475	-0,092	-0,075
-71,724	-78,177	-0,108	0,026
-70,709	121,721	-0,044	0,039
-69,694	593,138	0,039	0,070
-68,680	6,806	0,128	0,068
-67,665	800,000	-0,024	0,062
-66,651	87,786	0,077	0,061
-65,636	800,000	-0,056	0,155
-64,622	800,000	-0,028	-0,083
-63,607	48,158	-0,133	-0,089
-62,592	52,751	-0,076	-0,052
-61,578	-98,224	-0,097	-0,018
-60,563	305,778	0,032	0,042
-59,549	-200,000	-0,038	0,133
-58,534	17,638	-1,886	-1,075
-57,519	800,000	-0,387	-0,968
-56,505	-200,000	-1,196	-4,871
-55,490	-77,021	0,708	0,176
-54,476	800,000	5,408	12,244
-53,461	-200,000	17,108	273,557
-52,446	800,000	718,142	2183,161
-51,432	528,384	1631,740	2777,574
-50,417	112,154	1626,284	1412,561
-49,403	75,741	1286,773	976,275
-48,388	33,186	1032,425	642,081
-47,373	20,206	994,558	575,481
-46,359	18,866	983,051	564,375
-45,344	16,717	978,743	554,804
-44,330	16,834	977,498	554,461
-43,315	16,466	975,632	552,171
-42,300	16,468	974,508	551,520
-41,286	16,441	973,510	550,845
-40,271	16,452	972,586	550,339
-39,257	16,438	971,753	549,797
-38,242	16,456	971,006	549,413
-37,227	16,458	970,239	548,965
-36,213	16,473	969,288	548,453
-35,198	16,381	968,584	547,731
-34,184	16,465	967,698	547,483
-33,169	16,373	966,875	546,697
-32,154	16,400	965,866	546,192
-31,140	16,449	964,721	545,681
-30,125	16,466	964,071	545,348
-29,111	16,418	963,346	544,760
-28,096	16,474	962,572	544,483
-27,082	16,446	962,042	544,070
-26,067	16,452	961,215	543,600
-25,052	16,448	960,268	543,030
-24,038	16,420	959,805	542,658
-23,023	16,414	959,055	542,192
-22,009	16,477	958,378	541,989
-20,994	16,439	957,779	541,507
-19,979	16,386	957,169	540,972
-18,965	16,433	956,487	540,715
-17,950	16,460	955,880	540,438
-16,936	16,369	955,345	539,821
-15,921	16,385	954,490	539,367
-14,906	16,329	953,721	538,731
-13,892	16,213	953,227	538,059
-12,877	16,264	952,573	537,834
-11,863	16,254	951,967	537,438
-10,848	16,289	951,528	537,280
-9,833	16,393	951,112	537,355
-8,819	16,404	950,175	536,842
-7,804	16,318	949,517	536,173
-6,790	16,346	948,856	535,868
-5,775	16,355	948,361	535,597
-4,760	16,360	947,732	535,235
-3,746	16,299	947,155	534,695
-2,731	16,231	946,277	533,959
-1,717	16,120	945,845	533,342
-0,702	16,141	945,132	532,987
0,313	15,968	944,571	532,925
1,327	19,371	942,472	542,481
2,342	28,663	797,241	483,599
3,356	25,774	449,238	268,157
4,371	-3,732	297,206	147,743
5,386	-7,713	278,722	134,744
6,400	-8,922	272,955	130,814
7,415	-9,312	270,620	129,322
8,429	-9,344	269,183	128,594
9,444	-9,282	268,213	128,176
10,459	-9,220	267,526	127,893
11,473	-9,586	267,111	127,348
12,488	-9,629	266,585	127,047
13,502	-9,767	265,889	126,579
14,517	-9,930	265,478	126,223
15,531	-9,916	264,938	125,968
16,546	-9,942	264,583	125,765
17,561	-10,086	264,338	125,506
18,575	-9,900	263,973	125,490
19,590	-10,119	263,645	125,125
20,604	-10,000	263,353	125,083
21,619	-9,990	262,997	124,912
22,634	-10,112	262,593	124,599
23,648	-10,200	262,295	124,367
24,663	-10,073	262,113	124,384
25,677	-10,045	261,822	124,259
26,692	-10,362	261,697	123,905
27,707	-10,164	261,315	123,890
28,721	-10,256	261,072	123,682
29,736	-10,089	260,789	123,686
30,750	-10,233	260,492	123,406
31,765	-10,037	260,325	123,490
32,780	-10,135	259,949	123,214
33,794	-10,014	259,613	123,151
34,809	-10,089	259,433	122,988
35,823	-10,192	259,378	122,860
36,838	-10,231	258,957	122,615
37,853	-10,343	258,833	122,446
38,867	-10,251	258,603	122,408
39,882	-10,363	258,223	122,118
40,896	-10,216	257,968	122,116
41,911	-10,353	257,806	121,909
42,926	-10,376	257,474	121,720
43,940	-10,265	257,400	121,772
44,955	-10,386	256,931	121,433
45,969	-10,415	256,801	121,335
46,984	-10,588	256,493	121,027
47,999	-10,871	256,181	120,621
49,013	-11,073	256,099	120,396
50,028	-11,103	255,786	120,211
51,042	-11,328	255,624	119,928
52,057	-11,403	255,327	119,712
53,071	-11,104	255,231	119,917
54,086	-11,032	255,059	119,888
55,101	-10,959	254,680	119,763
56,115	-10,683	254,701	120,002
57,130	-10,120	254,482	120,378
58,144	-9,823	254,461	120,614
59,159	-9,924	254,229	120,406
60,174	-9,981	254,073	120,273
61,188	-10,048	253,823	120,086
62,203	-10,081	253,703	119,989
63,217	-9,904	253,275	119,929
64,232	-10,107	253,198	119,706
65,247	-10,008	252,888	119,635
66,261	-9,804	252,710	119,715
67,276	-10,226	252,306	119,151
68,290	-10,701	252,238	118,699
69,305	-10,644	251,738	118,502
70,320	-10,765	251,709	118,375
71,334	-10,403	251,600	118,623
72,349	-10,006	251,482	118,897
73,363	-9,938	251,261	118,840
74,378	-9,929	250,987	118,707
75,393	-10,152	250,894	118,463
76,407	-10,085	250,625	118,382
77,422	-10,131	250,353	118,204
78,436	-10,113	250,143	118,109
79,451	-10,027	249,902	118,059
80,466	-10,032	249,669	117,934
81,480	-10,466	249,464	117,457
82,495	-10,447	249,235	117,355
83,509	-10,480	249,105	117,255
84,524	-10,499	248,882	117,125
85,539	-10,657	248,520	116,810
86,553	-10,814	248,406	116,613
87,568	-10,626	248,277	116,701
88,582	-10,306	247,983	116,822
89,597	-10,489	247,847	116,593
90,611	-10,273	247,703	116,697
91,626	-10,239	247,708	116,718
92,641	-10,195	247,314	116,559
93,655	-10,480	247,212	116,261
94,670	-10,323	246,923	116,246
95,684	-10,414	246,689	116,050
96,699	-10,412	246,734	116,062
97,714	-10,523	246,551	115,872
98,728	-10,595	246,215	115,644
99,743	-10,710	245,997	115,435
100,757	-10,735	245,656	115,243
101,772	-10,709	245,622	115,239
102,787	-10,370	245,448	115,430
103,801	-10,621	245,450	115,211
104,816	-10,545	245,236	115,163
105,830	-10,288	245,058	115,284
106,845	-10,229	244,962	115,278
107,860	-10,262	244,652	115,095
108,874	-10,124	244,215	114,994
109,889	-10,164	244,081	114,886
110,903	-10,377	243,950	114,639
111,918	-10,309	243,865	114,644
112,933	-10,411	243,630	114,439
113,947	-10,220	243,481	114,517
114,962	-10,169	243,251	114,441
115,976	-10,233	243,099	114,306
116,991	-10,303	243,006	114,194
118,006	-10,468	242,815	113,959
119,020	-10,376	242,710	113,975
120,035	-10,152	242,605	114,100
121,049	-10,050	242,490	114,119
122,064	-9,989	242,149	113,999
123,079	-10,179	241,906	113,718
124,093	-10,252	241,761	113,580
125,108	-10,327	241,458	113,367
126,122	-10,727	241,293	112,951
127,137	-10,872	241,053	112,710
128,151	-10,746	240,914	112,738
129,166	-10,452	240,794	112,912
130,181	-10,504	240,436	112,692
131,195	-10,714	240,388	112,488
132,210	-10,457	240,351	112,671
133,224	-10,296	240,173	112,708
134,239	-10,246	240,043	112,677
135,254	-10,169	239,866	112,647
136,268	-10,379	239,503	112,296
137,283	-10,843	239,367	111,846
138,297	-11,013	239,127	111,585
139,312	-10,648	238,731	111,686
140,327	-10,405	238,896	111,950
141,341	-9,793	238,814	112,397
142,356	-9,856	238,650	112,258
143,370	-9,843	238,636	112,253
144,385	-9,721	238,291	112,179
145,400	-9,703	238,161	112,122
146,414	-9,942	238,022	111,855
147,429	-9,649	237,638	111,900
148,443	-9,763	237,568	111,764
149,458	-9,779	237,335	111,632
150,473	-9,987	237,199	111,392
151,487	-9,970	236,991	111,298
152,502	-9,949	236,946	111,283
153,516	-9,747	236,604	111,275
154,531	-9,848	236,431	111,103
155,546	-9,732	236,433	111,186
156,560	-10,016	236,171	110,826
157,575	-9,883	236,052	110,867
158,589	-10,074	235,967	110,664
159,604	-9,583	235,762	110,950
160,619	-9,620	235,564	110,818
161,633	-9,674	235,403	110,688
162,648	-9,433	235,149	110,751
163,662	-9,784	235,213	110,492
164,677	-9,867	235,119	110,372
165,692	-9,759	234,866	110,329
166,706	-9,860	234,767	110,193
167,721	-9,853	234,572	110,097
168,735	-9,652	234,404	110,168
169,750	-9,839	234,185	109,907
170,764	-9,800	234,103	109,890
171,779	-9,661	233,891	109,890
172,794	-9,651	233,771	109,832
173,808	-9,879	233,382	109,459
174,823	-10,478	233,193	108,889
175,837	-10,519	233,002	108,758
176,852	-10,168	233,139	109,089
177,867	-9,801	232,928	109,269
178,881	-9,836	232,789	109,166
179,896	-9,634	232,729	109,287
180,910	-9,579	232,454	109,192
181,925	-9,422	232,218	109,194
182,940	-9,498	232,102	109,070
183,954	-9,666	232,015	108,888
184,969	-9,580	232,022	108,949
185,983	-9,370	231,754	108,978
186,998	-9,464	231,605	108,824
188,013	-9,515	231,443	108,698
189,027	-9,641	231,389	108,565
190,042	-9,562	231,224	108,540
191,056	-9,294	230,979	108,624
192,071	-9,475	230,777	108,378
193,086	-9,470	230,778	108,373
194,100	-9,301	230,604	108,413
195,115	-9,168	230,363	108,394
196,129	-9,026	230,381	108,502
197,144	-4,458	231,957	112,802
198,159	0,322	233,269	117,173
199,173	3,179	234,244	119,894
200,188	3,556	234,029	120,069
201,202	3,727	233,875	120,113
202,217	3,654	233,738	119,975
203,232	4,129	233,513	120,219
204,246	4,108	233,580	120,227
205,261	3,965	233,369	119,996
206,275	4,107	233,323	120,072
207,290	4,168	233,229	120,061
208,304	4,398	232,969	120,095
209,319	4,180	232,772	119,813
210,334	3,985	232,605	119,565
211,348	4,180	232,161	119,477
212,363	3,685	232,073	119,038
213,377	3,182	231,966	118,582
214,392	3,435	231,623	118,592
215,407	3,583	231,536	118,652
216,421	3,734	231,448	118,713
217,436	3,353	231,376	118,371
218,450	3,194	231,120	118,107
219,465	3,129	230,711	117,837
220,480	3,135	230,768	117,861
221,494	3,227	230,441	117,753
222,509	3,452	230,483	117,937
223,523	3,363	230,364	117,798
224,538	3,161	230,324	117,611
225,553	3,227	230,108	117,541
226,567	3,353	230,036	117,591
227,582	3,666	229,796	117,698
228,596	3,763	229,770	117,748
229,611	3,570	229,611	117,508
230,626	3,203	229,160	116,986
231,640	3,370	229,044	117,045
232,655	3,614	229,055	117,226
233,669	3,954	229,108	117,503
234,684	3,952	228,893	117,380
235,699	3,609	228,720	117,020
236,713	3,778	228,419	116,984
237,728	3,478	228,273	116,670
238,742	3,562	227,948	116,558
239,757	3,336	227,886	116,344
240,772	3,482	227,771	116,386
241,786	3,226	227,627	116,107
242,801	3,614	227,594	116,375
243,815	3,782	227,543	116,465
244,830	3,662	227,427	116,305
245,844	3,483	227,248	116,068
246,859	3,158	227,062	115,716
247,874	3,607	226,857	115,941
248,888	3,577	226,795	115,876
249,903	3,489	226,593	115,696
250,917	3,565	226,405	115,647
251,932	3,378	226,253	115,418
252,947	3,186	226,098	115,184
253,961	3,494	225,839	115,273
254,976	3,227	225,570	114,926
255,990	3,578	225,702	115,246
257,005	3,649	225,678	115,277
258,020	3,480	225,589	115,095
259,034	4,013	225,216	115,293
260,049	3,473	225,125	114,832
261,063	3,504	224,969	114,765
262,078	3,641	224,940	114,843
263,093	3,794	224,725	114,837
264,107	3,864	224,517	114,773
265,122	3,834	224,471	114,717
266,136	3,896	224,463	114,749
267,151	3,844	224,287	114,609
268,166	3,449	223,991	114,154
269,180	3,359	223,589	113,872
270,195	3,365	223,536	113,839
271,209	3,217	223,518	113,710
272,224	3,388	223,432	113,784
273,239	3,436	223,144	113,662
274,253	3,374	222,967	113,516
275,268	3,387	222,696	113,377
276,282	3,059	222,670	113,111
277,297	3,077	222,525	113,041
278,312	3,241	222,484	113,131
279,326	3,262	222,438	113,113
280,341	3,261	222,207	112,985
281,355	3,432	222,150	113,072
282,370	3,246	221,968	112,832
283,384	3,100	221,673	112,565
284,399	3,001	221,578	112,433
285,414	2,900	221,537	112,328
286,428	3,379	221,406	112,604
287,443	3,438	221,428	112,649
288,457	3,405	221,168	112,482
289,472	3,402	220,831	112,298
290,487	2,899	220,502	111,753
291,501	2,716	220,577	111,647
292,516	3,006	220,352	111,735
293,530	3,274	220,324	111,907
294,545	3,213	220,110	111,744
295,560	2,997	220,146	111,594
296,574	3,299	219,948	111,705
297,589	3,313	219,797	111,627
298,603	3,346	219,583	111,534
299,618	3,359	219,554	111,518
300,633	3,520	219,338	111,516
301,647	3,604	219,355	111,576
302,662	3,502	219,338	111,483
303,676	3,500	219,078	111,339
304,691	3,722	218,886	111,393
305,706	3,723	218,806	111,343
306,720	3,655	218,717	111,238
307,735	3,234	218,423	110,774
308,749	3,227	218,337	110,715
309,764	3,520	218,183	110,839
310,779	3,656	218,058	110,864
311,793	3,533	217,885	110,678
312,808	3,529	217,784	110,613
313,822	3,343	217,579	110,366
314,837	3,164	217,487	110,180
315,852	3,411	217,190	110,198
316,866	3,292	217,206	110,110
317,881	3,623	217,089	110,279
318,895	3,456	216,840	110,022
319,910	3,246	216,472	109,675
320,925	3,136	216,415	109,558
321,939	3,084	216,451	109,529
322,954	3,413	216,265	109,661
323,968	3,549	216,341	109,787
324,983	3,684	216,093	109,748
325,997	3,702	215,983	109,695
327,012	3,625	215,753	109,514
328,027	3,304	215,797	109,297
329,041	3,752	215,658	109,536
330,056	3,723	215,577	109,465
331,070	3,576	215,211	109,164
332,085	3,148	214,980	108,734
333,100	3,203	214,821	108,682
334,114	3,377	214,780	108,775
335,129	3,696	214,708	108,956
336,143	3,565	214,550	108,773
337,158	3,432	214,476	108,632
338,173	3,399	214,240	108,479
339,187	3,269	213,995	108,254
340,202	2,873	213,962	107,947
341,216	2,922	213,762	107,871
342,231	3,048	213,788	107,963
343,246	2,989	213,562	107,798
344,260	2,998	213,282	107,654
345,275	3,548	213,185	107,982
346,289	3,688	213,202	108,079
347,304	3,542	213,038	107,885
348,319	3,262	213,041	107,679
349,333	3,276	212,842	107,579
350,348	3,450	212,704	107,621
351,362	3,503	212,684	107,639
352,377	3,654	212,392	107,587
353,392	3,262	212,328	107,271
354,406	3,273	212,231	107,220
355,421	195,629	1341,944	1422,276
356,435	156,295	1479,580	1422,297
