DTS Sentinel unit serial number:	SN410029Multiplexer serial number:	ORYXHardware model number:	OX2-SRSoftware version number:	ORYX F/W v4,00 Oryx Data Collector v3.7.2.0data status	okinstallation	B6 Nyhavnadifferential loss correction	single-endedforward channel	channel 2reverse channel	N/Adate	2023/12/11time	01:35:08forward acquisition time	300,00reverse acquisition time	0,00gamma	499,1914k internal	0,3122k external	0,3122temperature offset calibration	1,0000default loss term (dB/km)	0,3820temperature slope calibration	1,0000multiplexer offset coefficient	1,0000multiplexer slope coefficient	1,0000fibre end	0,00T internal ref (°C)	22,07T ext. ref 1 (°C)	5,32T ext. ref 2 (°C)	5,35length (m)	temperature (°C)	Stokes	anti-Stokes-744,400	-127,552	-0,096	-0,010
-743,385	-44,060	-0,268	0,100
-742,371	302,353	0,062	0,086
-741,356	662,124	-0,142	0,273
-740,342	-37,048	0,098	0,039
-739,327	-57,351	-0,257	0,084
-738,312	-200,000	-0,001	-0,043
-737,298	158,178	-0,124	0,128
-736,283	-200,000	0,014	-0,053
-735,269	-177,590	-0,216	0,004
-734,254	393,203	0,044	-0,068
-733,239	-111,413	-0,429	0,064
-732,225	800,000	0,045	0,107
-731,210	-42,544	-0,052	0,019
-730,196	-40,672	0,142	0,055
-729,181	-147,477	-0,121	0,008
-728,167	-200,000	-0,000	0,051
-727,152	67,358	0,029	-0,022
-726,137	-143,902	-0,051	-0,004
-725,123	-200,000	-0,004	0,068
-724,108	-129,059	-0,180	0,019
-723,094	-52,136	-0,120	-0,041
-722,079	-118,485	0,027	-0,004
-721,064	312,920	0,044	0,061
-720,050	-97,714	0,099	-0,019
-719,035	-200,000	0,023	-0,189
-718,021	800,000	0,040	-0,092
-717,006	-200,000	-0,000	-0,047
-715,991	674,987	-0,031	-0,060
-714,977	800,000	0,025	-0,076
-713,962	-200,000	-0,006	-0,024
-712,948	119,701	0,078	0,072
-711,933	-162,307	0,061	-0,002
-710,918	668,664	-0,073	-0,142
-709,904	-146,053	-0,133	-0,009
-708,889	-170,605	-0,023	0,001
-707,875	31,754	-0,068	-0,044
-706,860	-99,986	0,085	0,016
-705,845	-200,000	-0,001	-0,091
-704,831	289,721	0,040	-0,055
-703,816	-200,000	0,021	-0,077
-702,802	-174,055	-0,063	0,001
-701,787	800,000	-0,088	-0,198
-700,772	800,000	0,029	-0,069
-699,758	-121,313	-0,172	0,021
-698,743	283,424	0,087	0,117
-697,729	114,971	0,040	0,036
-696,714	205,804	0,067	0,077
-695,699	800,000	-0,025	-0,072
-694,685	-200,000	-0,041	-0,197
-693,670	-51,884	0,031	-0,011
-692,656	800,000	0,017	0,035
-691,641	28,257	-0,054	-0,034
-690,627	273,244	-0,034	0,044
-689,612	358,393	-0,106	-0,158
-688,597	-200,000	0,005	-0,019
-687,583	-129,280	0,100	-0,010
-686,568	-70,880	-0,077	0,021
-685,554	-27,792	0,070	0,030
-684,539	-104,283	0,062	0,011
-683,524	501,595	0,039	-0,067
-682,510	730,878	0,053	-0,105
-681,495	131,911	-0,050	-0,047
-680,481	-90,097	-0,155	0,033
-679,466	-200,000	-0,015	-0,088
-678,451	-200,000	0,031	-0,123
-677,437	133,845	0,066	0,064
-676,422	-200,000	-0,016	0,122
-675,408	-200,000	0,017	-0,131
-674,393	-129,669	0,115	0,012
-673,378	194,363	-0,050	-0,056
-672,364	-200,000	-0,011	-0,054
-671,349	800,000	-0,071	-0,191
-670,335	127,704	0,039	-0,037
-669,320	576,679	0,145	0,264
-668,305	-200,000	-0,008	0,057
-667,291	137,075	0,111	0,108
-666,276	800,000	-0,029	0,064
-665,262	134,500	-0,062	0,060
-664,247	191,828	-0,026	-0,029
-663,232	-25,531	-0,102	0,045
-662,218	800,000	-0,016	0,042
-661,203	394,750	0,030	-0,047
-660,189	157,197	0,091	-0,093
-659,174	-200,000	0,011	-0,073
-658,159	-200,000	-0,017	-0,077
-657,145	-200,000	-0,020	-0,128
-656,130	800,000	-0,039	-0,107
-655,116	-62,169	0,102	-0,031
-654,101	-146,791	0,042	0,003
-653,086	125,123	-0,060	0,057
-652,072	79,974	-0,057	-0,045
-651,057	800,000	-0,050	-0,134
-650,043	199,017	-0,061	0,069
-649,028	-200,000	0,001	-0,102
-648,014	717,779	0,042	-0,084
-646,999	349,281	0,053	0,077
-645,984	38,268	0,039	-0,026
-644,970	800,000	-0,019	-0,043
-643,955	-200,000	-0,019	-0,106
-642,941	-200,000	0,029	0,133
-641,926	-30,516	-0,101	0,042
-640,911	-200,000	0,012	0,078
-639,897	183,354	0,006	0,006
-638,882	81,441	-0,093	0,074
-637,868	-19,083	0,057	0,026
-636,853	-75,001	-0,027	-0,007
-635,838	-200,000	0,003	0,016
-634,824	-95,001	-0,090	0,018
-633,809	125,052	0,055	0,052
-632,795	800,000	-0,036	-0,105
-631,780	-200,000	-0,019	0,078
-630,765	65,510	-0,014	0,011
-629,751	-119,010	-0,094	0,012
-628,736	-69,455	-0,122	0,035
-627,722	800,000	0,046	-0,113
-626,707	643,587	0,006	0,012
-625,692	191,816	-0,033	-0,037
-624,678	-200,000	-0,010	-0,040
-623,663	2,472	-0,069	-0,037
-622,649	425,792	-0,067	0,107
-621,634	800,000	0,016	-0,033
-620,619	413,152	0,030	-0,048
-619,605	-51,971	0,050	-0,017
-618,590	800,000	-0,020	-0,061
-617,576	35,027	0,064	0,041
-616,561	54,408	-0,024	0,017
-615,546	800,000	0,031	0,084
-614,532	-49,333	-0,101	-0,035
-613,517	-41,643	-0,053	0,020
-612,503	-200,000	-0,008	-0,076
-611,488	-200,000	0,018	-0,098
-610,474	800,000	-0,017	0,040
-609,459	114,226	-0,150	-0,136
-608,444	-84,057	0,073	0,017
-607,430	-45,790	-0,060	0,022
-606,415	800,000	-0,077	-0,195
-605,401	-90,127	0,149	-0,032
-604,386	79,395	0,098	0,078
-603,371	-176,374	-0,106	-0,002
-602,357	-81,053	0,025	0,006
-601,342	-129,127	-0,042	0,004
-600,328	645,096	-0,043	-0,081
-599,313	-200,000	-0,002	-0,051
-598,298	-41,643	0,237	0,090
-597,284	43,451	-0,085	-0,057
-596,269	136,325	-0,034	-0,033
-595,255	92,219	-0,133	-0,111
-594,240	-200,000	-0,008	0,122
-593,225	800,000	-0,044	-0,101
-592,211	800,000	-0,025	-0,061
-591,196	800,000	0,037	-0,089
-590,182	-135,006	0,097	-0,009
-589,167	87,919	0,046	0,038
-588,152	-200,000	-0,023	-0,146
-587,138	64,599	-0,093	0,069
-586,123	20,165	0,051	0,030
-585,109	145,082	0,050	-0,050
-584,094	-40,324	0,070	-0,027
-583,079	666,427	-0,041	-0,078
-582,065	-200,000	0,020	-0,076
-581,050	-200,000	0,002	0,012
-580,036	303,043	0,060	-0,082
-579,021	-200,000	-0,019	0,122
-578,006	-200,000	-0,032	-0,107
-576,992	-200,000	0,028	-0,119
-575,977	-79,651	-0,076	0,019
-574,963	577,194	-0,027	0,049
-573,948	-42,142	0,216	-0,081
-572,934	361,856	-0,049	-0,073
-571,919	130,342	0,044	-0,042
-570,904	-94,749	-0,084	-0,017
-569,890	82,753	-0,070	0,056
-568,875	800,000	-0,004	-0,012
-567,861	800,000	-0,037	0,086
-566,846	58,856	0,085	-0,062
-565,831	800,000	-0,028	-0,065
-564,817	800,000	-0,009	-0,020
-563,802	800,000	0,032	-0,067
-562,788	-200,000	-0,012	-0,067
-561,773	800,000	0,022	-0,065
-560,758	800,000	0,011	-0,032
-559,744	-12,218	-0,074	-0,036
-558,729	33,729	-0,049	-0,031
-557,715	24,059	-0,071	0,043
-556,700	-150,652	-0,236	-0,013
-555,685	638,565	0,036	-0,068
-554,671	-110,813	0,108	0,016
-553,656	105,975	0,119	0,104
-552,642	97,531	0,027	0,023
-551,627	-200,000	0,028	0,207
-550,612	-200,000	-0,004	0,040
-549,598	-20,043	-0,173	0,078
-548,583	572,512	-0,037	-0,067
-547,569	-200,000	0,099	0,000
-546,554	417,201	-0,035	0,055
-545,539	-200,000	0,030	-0,116
-544,525	800,000	0,011	-0,025
-543,510	-200,000	0,005	0,121
-542,496	-200,000	-0,004	-0,043
-541,481	85,160	0,127	0,103
-540,466	-50,795	-0,031	-0,011
-539,452	-200,000	0,001	0,144
-538,437	-49,301	-0,046	0,016
-537,423	178,050	0,081	0,088
-536,408	-26,133	0,156	0,067
-535,393	81,731	0,063	-0,050
-534,379	800,000	-0,039	0,081
-533,364	207,526	-0,029	-0,033
-532,350	92,147	0,057	-0,048
-531,335	12,235	0,065	0,037
-530,321	800,000	0,013	0,039
-529,306	56,212	-0,090	-0,064
-528,291	-200,000	0,007	0,119
-527,277	107,144	0,031	-0,027
-526,262	-13,148	-0,045	0,022
-525,248	41,844	0,089	0,059
-524,233	-38,807	-0,088	-0,034
-523,218	188,989	-0,057	0,064
-522,204	-104,574	-0,143	0,024
-521,189	716,247	-0,038	-0,075
-520,175	-200,000	-0,009	-0,033
-519,160	37,684	-0,100	-0,065
-518,145	-174,626	-0,150	-0,003
-517,131	-33,105	-0,016	0,006
-516,116	-200,000	0,002	0,170
-515,102	-200,000	-0,048	0,161
-514,087	494,680	0,038	0,065
-513,072	2,294	-0,069	0,037
-512,058	201,733	0,118	-0,134
-511,043	800,000	0,013	-0,042
-510,029	-200,000	0,002	0,008
-509,014	6,900	0,055	-0,030
-507,999	-200,000	0,000	0,052
-506,985	-7,822	0,039	0,019
-505,970	576,838	0,039	0,070
-504,956	-105,002	-0,023	0,004
-503,941	-60,359	-0,120	-0,038
-502,926	-43,117	0,094	0,035
-501,912	194,323	0,088	0,098
-500,897	-200,000	-0,036	-0,128
-499,883	-138,106	-0,075	0,006
-498,868	-118,488	0,037	-0,005
-497,853	412,469	0,043	-0,068
-496,839	136,658	0,045	0,043
-495,824	800,000	-0,026	0,053
-494,810	-47,747	0,059	0,021
-493,795	-200,000	-0,011	-0,052
-492,781	-110,073	-0,060	-0,009
-491,766	-140,974	0,077	-0,006
-490,751	409,289	-0,087	0,137
-489,737	800,000	-0,068	0,151
-488,722	-40,471	0,085	-0,032
-487,708	-200,000	0,005	0,023
-486,693	-11,949	0,061	-0,029
-485,678	306,669	0,064	-0,088
-484,664	261,094	-0,065	-0,083
-483,649	-65,053	-0,083	-0,025
-482,635	-200,000	0,003	-0,060
-481,620	800,000	0,050	0,104
-480,605	800,000	0,050	0,111
-479,591	-30,085	-0,092	-0,038
-478,576	-124,420	-0,099	-0,011
-477,562	-129,547	-0,152	-0,015
-476,547	-200,000	-0,030	-0,116
-475,532	25,994	0,087	-0,053
-474,518	550,235	0,058	0,104
-473,503	91,729	0,091	0,076
-472,489	197,374	0,138	0,156
-471,474	-67,235	0,126	-0,036
-470,459	800,000	-0,060	-0,167
-469,445	-161,123	-0,144	-0,005
-468,430	78,634	-0,131	-0,103
-467,416	-200,000	0,007	-0,028
-466,401	-104,296	0,052	-0,009
-465,386	34,943	-0,092	0,059
-464,372	-200,000	0,009	0,074
-463,357	124,537	-0,104	-0,096
-462,343	39,815	-0,105	0,069
-461,328	92,033	0,058	0,048
-460,313	-32,547	0,037	-0,015
-459,299	128,097	-0,050	0,046
-458,284	320,313	0,041	0,058
-457,270	-56,824	-0,101	0,033
-456,255	165,899	0,086	-0,090
-455,241	-81,220	-0,053	-0,013
-454,226	-148,470	0,092	-0,005
-453,211	286,152	0,059	0,079
-452,197	-200,000	-0,001	0,205
-451,182	58,578	0,082	-0,059
-450,168	757,615	0,045	-0,089
-449,153	-200,000	-0,020	0,153
-448,138	-118,823	-0,103	-0,013
-447,124	127,990	-0,007	-0,007
-446,109	-27,574	-0,054	0,023
-445,095	283,391	0,061	-0,081
-444,080	122,944	0,026	0,024
-443,065	-200,000	-0,010	-0,051
-442,051	-136,716	-0,020	-0,002
-441,036	81,543	-0,098	-0,078
-440,022	-200,000	-0,002	-0,044
-439,007	-200,000	0,044	0,255
-437,992	228,405	0,033	0,039
-436,978	-132,145	-0,035	-0,003
-435,963	574,712	-0,037	-0,067
-434,949	227,570	-0,029	-0,035
-433,934	695,188	-0,064	-0,125
-432,919	297,443	0,040	0,054
-431,905	-18,767	-0,124	-0,057
-430,890	75,453	0,026	-0,021
-429,876	483,502	0,029	0,049
-428,861	29,927	-0,106	0,066
-427,846	-200,000	-0,001	-0,047
-426,832	134,443	0,072	0,069
-425,817	-200,000	-0,014	0,046
-424,803	108,781	0,083	0,073
-423,788	-0,555	-0,101	-0,053
-422,773	102,742	0,100	-0,086
-421,759	0,088	0,030	-0,016
-420,744	800,000	0,057	-0,138
-419,730	-64,512	-0,197	-0,059
-418,715	-90,102	-0,115	-0,024
-417,701	265,472	0,067	0,086
-416,686	193,374	0,127	-0,142
-415,671	-18,507	-0,062	-0,029
-414,657	-146,001	0,158	-0,010
-413,642	-200,000	-0,004	0,058
-412,628	-121,331	-0,071	-0,009
-411,613	577,682	0,062	-0,111
-410,598	-200,000	-0,003	-0,009
-409,584	-200,000	0,006	0,038
-408,569	351,212	0,081	0,119
-407,555	800,000	0,038	-0,112
-406,540	-200,000	0,020	0,080
-405,525	50,749	-0,115	-0,080
-404,511	93,391	0,058	-0,048
-403,496	69,901	-0,044	-0,033
-402,482	139,846	0,060	-0,059
-401,467	-31,390	0,056	0,023
-400,452	205,579	0,068	0,078
-399,438	800,000	0,039	0,080
-398,423	40,730	0,095	-0,063
-397,409	-200,000	0,004	-0,111
-396,394	147,092	-0,090	-0,089
-395,379	0,765	0,058	-0,031
-394,365	-1,390	0,092	-0,048
-393,350	800,000	0,031	0,068
-392,336	-134,448	-0,116	-0,010
-391,321	-200,000	-0,013	0,046
-390,306	-67,744	0,098	0,028
-389,292	550,505	-0,033	-0,058
-388,277	-200,000	0,005	0,043
-387,263	101,940	0,121	-0,104
-386,248	142,870	0,083	0,081
-385,233	-25,414	0,062	0,027
-384,219	-29,216	-0,074	0,031
-383,204	-154,368	-0,108	0,005
-382,190	800,000	0,011	-0,023
-381,175	528,079	0,053	0,093
-380,160	-19,037	0,098	-0,045
-379,146	-128,478	-0,156	0,016
-378,131	-200,000	0,013	0,170
-377,117	800,000	-0,055	0,148
-376,102	723,817	-0,006	-0,012
-375,088	232,551	0,080	0,097
-374,073	-25,903	-0,090	-0,039
-373,058	34,431	0,009	0,006
-372,044	800,000	0,024	0,055
-371,029	-51,273	-0,139	0,047
-370,015	800,000	0,053	-0,149
-369,000	-85,881	0,116	0,026
-367,985	800,000	-0,034	-0,109
-366,971	-200,000	0,017	0,112
-365,956	-140,884	0,066	0,005
-364,942	624,447	0,060	0,112
-363,927	482,665	-0,046	0,078
-362,912	-200,000	0,005	0,053
-361,898	-27,513	-0,048	0,020
-360,883	-200,000	0,023	0,087
-359,869	-98,275	-0,095	-0,018
-358,854	65,771	-0,028	-0,021
-357,839	757,420	0,007	0,015
-356,825	800,000	-0,019	-0,052
-355,810	800,000	-0,062	-0,149
-354,796	89,927	-0,057	0,047
-353,781	786,432	0,004	-0,009
-352,766	-200,000	-0,008	-0,067
-351,752	-200,000	0,020	0,136
-350,737	-52,968	0,033	0,011
-349,723	139,635	0,009	0,009
-348,708	-200,000	-0,020	0,144
-347,693	-200,000	0,020	0,094
-346,679	-93,097	-0,136	-0,028
-345,664	64,548	-0,070	-0,052
-344,650	312,858	-0,031	-0,043
-343,635	-22,811	0,057	0,025
-342,620	-200,000	-0,022	0,117
-341,606	551,813	0,023	-0,042
-340,591	68,635	0,043	0,033
-339,577	-82,394	-0,044	-0,010
-338,562	171,570	-0,066	0,070
-337,548	800,000	-0,010	-0,025
-336,533	223,047	0,038	-0,045
-335,518	800,000	0,018	0,049
-334,504	207,306	0,119	-0,136
-333,489	310,176	0,065	-0,089
-332,475	-200,000	0,022	-0,247
-331,460	51,509	-0,050	-0,035
-330,445	-62,705	-0,094	0,028
-329,431	800,000	-0,011	-0,030
-328,416	-158,025	0,024	0,001
-327,402	218,275	-0,014	0,016
-326,387	-128,975	-0,111	-0,011
-325,372	-73,137	-0,052	-0,014
-324,358	-200,000	-0,006	-0,060
-323,343	-200,000	0,014	0,143
-322,329	66,132	0,031	-0,023
-321,314	-94,624	0,075	0,015
-320,299	-19,642	-0,186	0,084
-319,285	-75,220	-0,060	0,015
-318,270	349,551	-0,084	-0,122
-317,256	-200,000	0,000	-0,060
-316,241	-200,000	0,042	0,198
-315,226	94,516	-0,034	0,028
-314,212	-151,057	0,043	-0,002
-313,197	229,111	0,052	-0,062
-312,183	194,816	0,033	0,037
-311,168	-15,856	0,093	-0,043
-310,153	292,207	0,073	-0,098
-309,139	-106,975	0,160	0,026
-308,124	-200,000	0,037	-0,192
-307,110	-200,000	-0,006	0,163
-306,095	-56,758	0,009	-0,003
-305,080	-26,241	-0,075	0,032
-304,066	-109,925	-0,155	-0,023
-303,051	800,000	-0,033	0,074
-302,037	-77,975	-0,148	0,037
-301,022	420,794	-0,020	-0,031
-300,008	129,086	0,130	0,121
-298,993	23,917	-0,039	0,024
-297,978	800,000	-0,047	0,097
-296,964	-200,000	0,007	-0,088
-295,949	165,617	0,088	0,092
-294,935	-200,000	0,011	-0,139
-293,920	15,973	0,034	0,020
-292,905	-74,314	0,127	-0,033
-291,891	-10,049	-0,163	0,079
-290,876	-47,140	-0,076	0,027
-289,862	44,357	-0,043	-0,029
-288,847	-185,949	-0,046	0,000
-287,832	555,424	-0,013	-0,023
-286,818	300,521	0,010	0,014
-285,803	-200,000	-0,007	0,025
-284,789	-200,000	-0,018	0,116
-283,774	293,739	0,040	0,054
-282,759	-23,160	-0,028	0,012
-281,745	382,075	-0,071	0,107
-280,730	52,037	0,033	0,023
-279,716	800,000	0,008	0,020
-278,701	157,458	-0,044	-0,045
-277,686	-122,273	0,146	-0,017
-276,672	69,247	0,022	0,017
-275,657	498,792	-0,051	-0,087
-274,643	152,483	0,057	-0,057
-273,628	135,524	-0,056	-0,053
-272,613	115,394	0,070	-0,063
-271,599	720,318	0,077	0,151
-270,584	122,659	-0,098	0,089
-269,570	-140,863	-0,088	-0,007
-268,555	185,347	0,062	-0,067
-267,540	239,910	-0,083	0,101
-266,526	-152,185	-0,074	-0,004
-265,511	-157,140	0,068	0,003
-264,497	-141,633	-0,030	0,002
-263,482	800,000	0,035	0,076
-262,467	655,592	-0,077	0,145
-261,453	800,000	0,042	-0,125
-260,438	240,021	-0,024	0,030
-259,424	141,927	0,108	-0,105
-258,409	150,272	-0,056	0,056
-257,395	544,829	-0,016	0,028
-256,380	-14,094	0,113	-0,053
-255,365	285,679	0,061	-0,081
-254,351	-200,000	-0,024	0,202
-253,336	-200,000	0,005	0,058
-252,322	35,109	-0,080	0,051
-251,307	538,574	-0,050	-0,088
-250,292	54,943	0,099	-0,070
-249,278	-200,000	-0,028	-0,110
-248,263	192,324	0,053	0,058
-247,249	-140,228	0,122	0,009
-246,234	-200,000	-0,016	-0,085
-245,219	800,000	0,082	-0,170
-244,205	800,000	0,039	-0,118
-243,190	39,579	0,133	-0,087
-242,176	171,036	0,079	0,083
-241,161	-96,488	0,041	-0,008
-240,146	-146,557	-0,089	-0,006
-239,132	171,538	-0,070	0,073
-238,117	2,585	0,028	0,015
-237,103	271,042	-0,028	-0,036
-236,088	-200,000	0,008	0,073
-235,073	-200,000	-0,001	0,054
-234,059	469,214	-0,066	0,109
-233,044	293,528	-0,096	-0,128
-232,030	95,514	0,041	-0,034
-231,015	-101,461	0,049	0,009
-230,000	800,000	0,058	-0,179
-228,986	-200,000	-0,009	-0,070
-227,971	667,312	-0,053	0,100
-226,957	33,894	0,229	0,146
-225,942	-200,000	-0,019	0,110
-224,927	602,193	-0,025	-0,045
-223,913	273,281	0,093	-0,120
-222,898	-42,367	-0,098	-0,036
-221,884	800,000	-0,057	0,173
-220,869	192,074	0,122	0,134
-219,855	307,250	-0,066	0,090
-218,840	-99,317	-0,138	0,025
-217,825	-104,101	-0,098	0,016
-216,811	-200,000	-0,005	0,042
-215,796	71,808	-0,115	-0,087
-214,782	-200,000	0,013	0,071
-213,767	136,538	0,016	-0,015
-212,752	29,986	-0,038	0,024
-211,738	-200,000	0,030	0,105
-210,723	-127,387	0,058	-0,006
-209,709	-68,924	-0,016	0,005
-208,694	192,351	-0,024	0,026
-207,679	-200,000	-0,018	-0,105
-206,665	-6,335	0,078	-0,039
-205,650	800,000	0,025	0,066
-204,636	-75,261	0,223	0,058
-203,621	800,000	0,025	-0,069
-202,606	-200,000	-0,008	-0,046
-201,592	-24,038	-0,013	0,006
-200,577	-128,202	-0,165	-0,017
-199,563	549,860	0,048	-0,085
-198,548	631,212	0,013	-0,023
-197,533	168,448	0,033	-0,034
-196,519	240,773	0,027	0,033
-195,504	22,441	0,035	0,021
-194,490	-200,000	0,009	-0,084
-193,475	-200,000	-0,007	0,066
-192,460	194,473	-0,025	-0,027
-191,446	-200,000	0,026	0,098
-190,431	65,806	0,078	0,058
-189,417	420,676	0,049	-0,076
-188,402	47,425	-0,102	0,069
-187,387	-79,921	-0,066	-0,016
-186,373	475,992	-0,032	-0,053
-185,358	-200,000	0,005	-0,058
-184,344	23,688	-0,037	0,022
-183,329	136,210	0,037	-0,035
-182,315	-80,368	-0,105	-0,025
-181,300	99,208	0,069	0,058
-180,285	-83,237	0,170	-0,039
-179,271	-200,000	0,036	-0,168
-178,256	-200,000	0,040	-0,151
-177,242	-200,000	0,001	-0,091
-176,227	-200,000	-0,003	0,036
-175,212	83,423	0,038	-0,030
-174,198	-118,036	-0,046	0,006
-173,183	-61,231	0,094	0,029
-172,169	116,248	-0,077	-0,069
-171,154	-74,234	0,150	0,039
-170,139	34,078	0,197	0,125
-169,125	-28,199	0,064	0,027
-168,110	-94,925	0,135	0,026
-167,096	-182,276	0,070	-0,001
-166,081	800,000	-0,048	-0,146
-165,066	-200,000	-0,081	0,000
-164,052	-200,000	0,020	-0,095
-163,037	432,764	-0,025	0,040
-162,023	-103,151	0,096	0,016
-161,008	-79,126	0,031	-0,008
-159,993	-200,000	-0,002	-0,086
-158,979	1,207	0,064	-0,034
-157,964	-200,000	-0,009	-0,038
-156,950	-200,000	0,019	0,124
-155,935	23,099	-0,202	0,121
-154,920	-163,492	0,049	-0,002
-153,906	-44,822	-0,111	-0,040
-152,891	-200,000	-0,003	-0,099
-151,877	409,254	0,097	-0,151
-150,862	-200,000	-0,024	-0,168
-149,847	251,842	0,088	-0,109
-148,833	-4,186	-0,085	-0,043
-147,818	-35,170	0,062	-0,024
-146,804	-200,000	0,026	-0,084
-145,789	-200,000	-0,009	0,120
-144,775	83,318	-0,069	-0,055
-143,760	122,040	0,077	-0,070
-142,745	128,702	-0,068	0,064
-141,731	15,871	-0,100	0,057
-140,716	79,405	0,089	0,070
-139,702	203,759	0,082	-0,092
-138,687	-54,793	0,032	-0,010
-137,672	-200,000	-0,000	-0,077
-136,658	-200,000	0,009	-0,045
-135,643	-46,412	0,118	-0,042
-134,629	800,000	0,044	0,092
-133,614	63,760	0,005	0,003
-132,599	-200,000	-0,006	-0,051
-131,585	603,810	-0,033	0,060
-130,570	-200,000	-0,028	0,103
-129,556	-200,000	-0,033	-0,162
-128,541	-189,158	-0,070	0,001
-127,526	-200,000	0,025	-0,085
-126,512	-200,000	-0,023	-0,074
-125,497	57,662	-0,111	0,079
-124,483	186,595	0,066	0,072
-123,468	-200,000	-0,002	0,040
-122,453	48,437	0,072	0,049
-121,439	20,393	-0,042	-0,025
-120,424	234,111	-0,032	-0,038
-119,410	107,585	0,042	0,036
-118,395	800,000	-0,038	0,119
-117,380	777,456	-0,059	0,119
-116,366	-80,824	0,042	-0,010
-115,351	187,271	0,095	-0,104
-114,337	533,267	-0,092	-0,159
-113,322	800,000	-0,029	-0,060
-112,307	-8,381	0,075	0,037
-111,293	11,959	-0,068	0,038
-110,278	-200,000	-0,031	-0,215
-109,264	581,830	-0,041	-0,073
-108,249	-15,098	0,069	-0,032
-107,234	-102,742	0,032	-0,006
-106,220	751,955	0,020	-0,040
-105,205	-41,246	0,109	0,041
-104,191	167,064	0,040	0,041
-103,176	124,182	0,133	0,121
-102,162	-27,176	0,002	0,001
-101,147	-118,048	-0,032	0,004
-100,132	-200,000	0,005	0,077
-99,118	-71,782	0,035	-0,009
-98,103	-200,000	0,003	0,047
-97,089	800,000	-0,025	0,066
-96,074	367,450	0,020	0,029
-95,059	-200,000	0,043	0,161
-94,045	296,263	-0,094	0,126
-93,030	82,660	-0,088	-0,069
-92,016	-6,516	0,012	0,006
-91,001	-200,000	-0,006	0,033
-89,986	155,843	-0,081	-0,082
-88,972	604,615	0,031	-0,056
-87,957	50,127	0,010	-0,007
-86,943	-200,000	0,034	-0,111
-85,928	-117,841	-0,177	0,023
-84,913	-200,000	0,010	-0,051
-83,899	128,217	-0,032	-0,030
-82,884	549,820	0,032	0,056
-81,870	30,426	0,075	0,047
-80,855	80,924	0,021	0,016
-79,840	-200,000	0,003	-0,088
-78,826	-72,908	-0,078	-0,021
-77,811	-67,611	-0,056	-0,016
-76,797	102,114	0,009	-0,008
-75,782	-71,859	0,050	0,013
-74,767	380,368	0,060	-0,089
-73,753	-200,000	0,011	0,059
-72,738	139,506	0,099	0,094
-71,724	-200,000	-0,017	0,121
-70,709	-42,639	-0,130	0,048
-69,694	584,433	0,014	0,025
-68,680	-200,000	-0,005	0,133
-67,665	-200,000	-0,024	0,078
-66,651	-200,000	-0,012	-0,085
-65,636	800,000	0,069	0,154
-64,622	-22,985	0,116	0,051
-63,607	-100,366	0,013	0,002
-62,592	776,365	-0,018	0,036
-61,578	800,000	-0,007	-0,017
-60,563	0,677	-0,064	-0,033
-59,549	-200,000	-0,009	-0,068
-58,534	-73,740	-1,311	-0,344
-57,519	513,939	-0,829	-1,410
-56,505	-200,000	-0,999	-4,454
-55,490	78,422	0,507	-0,393
-54,476	800,000	4,886	11,820
-53,461	-200,000	13,955	253,672
-52,446	-200,000	692,601	2253,093
-51,432	584,531	1623,855	2907,643
-50,417	118,198	1633,897	1462,175
-49,403	73,116	1288,011	976,229
-48,388	37,643	1024,213	658,482
-47,373	24,104	981,990	586,775
-46,359	23,292	971,514	577,828
-45,344	22,229	967,438	571,906
-44,330	22,278	965,739	571,038
-43,315	22,141	964,363	569,755
-42,300	22,159	963,414	569,232
-41,286	22,089	962,541	568,464
-40,271	22,074	961,390	567,714
-39,257	22,056	960,560	567,142
-38,242	22,054	959,546	566,514
-37,227	22,022	958,812	565,957
-36,213	22,039	957,959	565,483
-35,198	22,044	956,933	564,873
-34,184	22,157	956,248	564,811
-33,169	22,087	955,408	564,065
-32,154	22,091	954,446	563,489
-31,140	22,101	953,758	563,092
-30,125	22,142	952,741	562,602
-29,111	22,124	951,941	562,049
-28,096	22,099	951,384	561,617
-27,082	22,103	950,635	561,165
-26,067	22,119	949,920	560,772
-25,052	22,099	949,167	560,241
-24,038	22,078	948,556	559,791
-23,023	22,094	947,843	559,399
-22,009	22,133	947,163	559,100
-20,994	22,164	946,499	558,787
-19,979	22,069	945,956	558,140
-18,965	22,129	945,262	557,901
-17,950	22,118	944,800	557,570
-16,936	22,068	943,981	556,906
-15,921	22,006	943,286	556,277
-14,906	21,977	942,534	555,718
-13,892	22,092	941,717	555,582
-12,877	21,958	941,321	554,898
-11,863	21,934	940,647	554,401
-10,848	21,958	940,266	554,233
-9,833	22,070	939,808	554,295
-8,819	22,105	939,011	553,915
-7,804	22,023	938,415	553,280
-6,790	22,034	937,612	552,820
-5,775	22,042	937,223	552,593
-4,760	22,007	936,560	552,073
-3,746	21,879	936,140	551,395
-2,731	21,801	935,468	550,732
-1,717	21,814	934,703	550,303
-0,702	21,808	934,025	549,862
0,313	21,581	933,392	549,602
1,327	24,658	931,389	558,055
2,342	34,314	795,521	502,369
3,356	32,070	451,336	281,609
4,371	0,820	294,162	152,292
5,386	-3,415	275,082	138,385
6,400	-5,049	269,236	133,914
7,415	-5,677	266,921	132,170
8,429	-5,139	265,588	131,992
9,444	-5,168	264,838	131,581
10,459	-5,139	264,248	131,303
11,473	-5,417	263,703	130,767
12,488	-5,309	263,113	130,561
13,502	-5,165	262,643	130,447
14,517	-5,323	262,226	130,085
15,531	-5,190	261,716	129,941
16,546	-5,238	261,468	129,763
17,561	-4,954	260,990	129,770
18,575	-5,170	260,781	129,460
19,590	-4,992	260,330	129,384
20,604	-4,909	260,090	129,328
21,619	-5,020	259,782	129,063
22,634	-4,893	259,393	128,972
23,648	-5,119	259,160	128,644
24,663	-5,063	258,861	128,533
25,677	-5,286	258,750	128,268
26,692	-5,111	258,444	128,260
27,707	-5,142	258,196	128,099
28,721	-5,144	257,860	127,919
29,736	-5,239	257,592	127,690
30,750	-5,316	257,452	127,541
31,765	-5,283	257,243	127,455
32,780	-5,053	256,778	127,417
33,794	-5,052	256,634	127,335
34,809	-5,251	256,490	127,076
35,823	-5,226	256,261	126,973
36,838	-5,177	255,958	126,855
37,853	-5,136	255,770	126,787
38,867	-5,144	255,462	126,616
39,882	-5,251	255,323	126,442
40,896	-5,196	255,179	126,408
41,911	-5,270	254,916	126,201
42,926	-5,222	254,643	126,097
43,940	-5,556	254,507	125,726
44,955	-5,427	254,221	125,686
45,969	-5,349	253,929	125,598
46,984	-5,613	253,713	125,249
47,999	-5,640	253,427	125,074
49,013	-5,875	253,277	124,784
50,028	-5,945	252,972	124,562
51,042	-5,827	252,699	124,519
52,057	-6,111	252,574	124,199
53,071	-5,915	252,318	124,232
54,086	-5,860	251,982	124,103
55,101	-5,693	251,895	124,194
56,115	-5,594	251,869	124,256
57,130	-5,231	251,797	124,523
58,144	-5,042	251,657	124,607
59,159	-4,991	251,258	124,442
60,174	-4,989	251,056	124,333
61,188	-5,227	250,993	124,085
62,203	-5,139	250,904	124,106
63,217	-4,999	250,442	123,988
64,232	-5,120	250,278	123,791
65,247	-5,092	249,943	123,639
66,261	-5,259	249,790	123,408
67,276	-5,172	249,484	123,320
68,290	-5,469	249,325	122,976
69,305	-5,641	249,164	122,739
70,320	-5,604	248,982	122,670
71,334	-5,160	248,846	122,972
72,349	-5,016	248,698	123,010
73,363	-4,896	248,444	122,976
74,378	-4,923	248,251	122,847
75,393	-4,998	248,033	122,664
76,407	-4,973	247,909	122,613
77,422	-5,082	247,587	122,350
78,436	-5,026	247,422	122,305
79,451	-5,126	247,196	122,098
80,466	-5,118	247,001	121,997
81,480	-5,381	246,912	121,719
82,495	-5,319	246,628	121,621
83,509	-5,283	246,406	121,531
84,524	-5,200	246,089	121,434
85,539	-5,622	246,029	121,038
86,553	-5,515	245,785	120,997
87,568	-5,424	245,648	120,995
88,582	-5,470	245,636	120,940
89,597	-5,392	245,230	120,795
90,611	-5,343	245,286	120,853
91,626	-5,088	245,058	120,945
92,641	-5,120	244,755	120,757
93,655	-5,385	244,698	120,496
94,670	-5,264	244,426	120,453
95,684	-5,346	244,365	120,342
96,699	-5,328	244,101	120,217
97,714	-5,448	243,875	119,995
98,728	-5,269	243,571	119,985
99,743	-5,666	243,467	119,591
100,757	-5,394	243,195	119,673
101,772	-5,382	243,213	119,682
102,787	-5,524	242,976	119,436
103,801	-5,379	242,727	119,423
104,816	-5,249	242,695	119,505
105,830	-5,172	242,443	119,434
106,845	-5,066	242,277	119,430
107,860	-5,380	242,198	119,120
108,874	-5,241	241,877	119,067
109,889	-5,291	241,630	118,893
110,903	-5,230	241,321	118,781
111,918	-5,485	241,343	118,570
112,933	-5,261	241,108	118,629
113,947	-5,275	241,075	118,591
114,962	-5,190	240,911	118,570
115,976	-5,102	240,605	118,481
116,991	-5,371	240,587	118,240
118,006	-5,403	240,330	118,077
119,020	-5,165	240,213	118,204
120,035	-5,166	240,034	118,105
121,049	-5,264	240,068	118,031
122,064	-5,210	239,840	117,952
123,079	-5,271	239,521	117,735
124,093	-5,214	239,243	117,634
125,108	-5,409	239,103	117,395
126,122	-5,623	238,843	117,083
127,137	-5,670	238,628	116,929
128,151	-5,654	238,492	116,865
129,166	-5,317	238,288	117,028
130,181	-5,606	238,219	116,749
131,195	-5,638	238,038	116,624
132,210	-5,501	237,989	116,701
133,224	-5,327	237,718	116,699
134,239	-5,241	237,503	116,653
135,254	-5,180	237,521	116,700
136,268	-5,268	237,168	116,445
137,283	-5,487	236,785	116,070
138,297	-5,868	236,866	115,792
139,312	-5,584	236,568	115,865
140,327	-5,429	236,489	115,941
141,341	-5,109	236,534	116,211
142,356	-4,660	236,221	116,409
143,370	-4,839	236,194	116,241
144,385	-4,904	235,959	116,063
145,400	-4,833	235,781	116,022
146,414	-4,917	235,640	115,874
147,429	-4,911	235,366	115,734
148,443	-4,926	235,206	115,633
149,458	-4,865	235,065	115,602
150,473	-4,953	234,912	115,446
151,487	-5,073	234,763	115,267
152,502	-4,851	234,620	115,364
153,516	-4,762	234,486	115,359
154,531	-4,914	234,125	115,050
155,546	-5,074	234,104	114,901
156,560	-4,993	233,962	114,887
157,575	-4,981	233,526	114,671
158,589	-5,227	233,520	114,462
159,604	-5,011	233,356	114,544
160,619	-4,883	233,205	114,561
161,633	-4,878	233,051	114,479
162,648	-4,934	233,023	114,411
163,662	-4,909	232,698	114,261
164,677	-5,139	232,528	113,985
165,692	-4,979	232,529	114,102
166,706	-4,872	232,417	114,121
167,721	-4,803	232,148	114,034
168,735	-4,765	232,052	114,006
169,750	-4,838	231,944	113,885
170,764	-5,126	231,876	113,614
171,779	-5,280	231,748	113,420
172,794	-4,895	231,449	113,567
173,808	-4,987	231,384	113,453
174,823	-5,352	230,984	112,960
175,837	-5,450	230,732	112,749
176,852	-5,206	230,655	112,892
177,867	-4,891	230,484	113,046
178,881	-4,719	230,467	113,163
179,896	-4,549	230,300	113,204
180,910	-4,877	230,222	112,899
181,925	-4,932	230,136	112,803
182,940	-4,916	229,853	112,667
183,954	-4,709	229,683	112,735
184,969	-4,654	229,677	112,765
185,983	-4,877	229,516	112,502
186,998	-4,683	229,467	112,620
188,013	-4,917	229,292	112,342
189,027	-4,676	228,904	112,328
190,042	-4,593	228,838	112,351
191,056	-4,810	228,715	112,111
192,071	-4,572	228,466	112,164
193,086	-4,901	228,298	111,817
194,100	-4,883	228,168	111,757
195,115	-5,340	227,732	111,180
196,129	-6,332	227,313	110,199
197,144	-3,008	228,574	113,381
198,159	1,777	229,869	117,740
199,173	4,135	230,413	119,843
200,188	4,272	230,367	119,916
201,202	4,375	230,131	119,862
202,217	4,526	230,054	119,928
203,232	4,767	229,929	120,040
204,246	4,752	229,834	119,968
205,261	5,031	229,603	120,052
206,275	4,917	229,565	119,934
207,290	5,091	229,396	119,970
208,304	5,039	229,212	119,822
209,319	5,030	229,177	119,786
210,334	4,964	228,993	119,629
211,348	4,612	228,720	119,204
212,363	4,432	228,433	118,905
213,377	4,181	228,072	118,513
214,392	3,962	228,131	118,365
215,407	4,135	227,930	118,383
216,421	4,306	227,722	118,396
217,436	4,056	227,670	118,166
218,450	4,112	227,353	118,034
219,465	3,958	227,148	117,799
220,480	3,931	227,072	117,729
221,494	3,861	227,056	117,657
222,509	3,858	226,978	117,603
223,523	4,022	226,765	117,608
224,538	3,929	226,515	117,397
225,553	4,086	226,437	117,465
226,567	3,975	226,435	117,370
227,582	4,315	226,208	117,501
228,596	4,446	226,086	117,526
229,611	4,117	225,814	117,124
230,626	3,964	225,718	116,948
231,640	3,918	225,637	116,860
232,655	4,181	225,540	116,999
233,669	4,346	225,526	117,106
234,684	4,586	225,362	117,193
235,699	4,386	225,107	116,899
236,713	4,148	224,936	116,619
237,728	4,020	224,700	116,390
238,742	4,046	224,484	116,287
239,757	3,945	224,327	116,119
240,772	3,936	224,182	116,027
241,786	4,054	224,077	116,051
242,801	4,082	224,054	116,050
243,815	4,515	223,877	116,274
244,830	4,422	223,609	116,054
245,844	4,067	223,511	115,726
246,859	4,401	223,343	115,880
247,874	4,370	223,307	115,828
248,888	4,527	223,166	115,862
249,903	4,262	222,915	115,523
250,917	4,120	222,800	115,347
251,932	4,138	222,625	115,259
252,947	3,774	222,629	114,979
253,961	4,167	222,278	115,080
254,976	4,023	222,240	114,943
255,990	4,121	222,144	114,956
257,005	4,266	221,971	114,965
258,020	4,124	221,940	114,832
259,034	4,395	221,806	114,955
260,049	4,275	221,593	114,745
261,063	4,395	221,408	114,728
262,078	4,430	221,363	114,721
263,093	4,474	221,157	114,637
264,107	4,292	221,055	114,439
265,122	4,422	220,937	114,463
266,136	4,653	220,900	114,605
267,151	4,712	220,582	114,473
268,166	4,348	220,319	114,058
269,180	3,805	220,107	113,536
270,195	3,918	220,135	113,624
271,209	3,932	219,910	113,508
272,224	4,063	219,810	113,543
273,239	4,068	219,704	113,482
274,253	3,986	219,561	113,338
275,268	3,998	219,272	113,187
276,282	3,890	219,112	113,015
277,297	3,845	218,998	112,913
278,312	3,887	218,797	112,830
279,326	3,932	218,801	112,856
280,341	3,947	218,590	112,748
281,355	3,946	218,609	112,747
282,370	3,923	218,420	112,623
283,384	4,033	218,182	112,570
284,399	3,790	217,989	112,283
285,414	3,781	217,891	112,215
286,428	3,969	217,896	112,346
287,443	4,102	217,817	112,392
288,457	4,147	217,590	112,297
289,472	4,113	217,385	112,157
290,487	3,460	217,194	111,573
291,501	3,511	217,033	111,518
292,516	3,908	216,911	111,734
293,530	4,059	216,706	111,727
294,545	3,848	216,648	111,535
295,560	4,079	216,549	111,641
296,574	4,272	216,369	111,678
297,589	4,054	216,331	111,491
298,603	4,079	216,300	111,483
299,618	4,132	215,942	111,327
300,633	4,237	215,883	111,363
301,647	4,291	215,963	111,432
302,662	4,576	215,648	111,465
303,676	4,322	215,448	111,170
304,691	4,340	215,313	111,102
305,706	4,504	215,287	111,198
306,720	4,511	215,027	111,058
307,735	4,066	214,939	110,683
308,749	3,774	214,754	110,368
309,764	3,946	214,789	110,500
310,779	4,212	214,509	110,537
311,793	4,155	214,406	110,433
312,808	4,143	214,360	110,391
313,822	4,166	214,119	110,273
314,837	3,943	213,999	110,043
315,852	4,144	213,898	110,124
316,866	4,151	213,746	110,041
317,881	4,279	213,662	110,080
318,895	4,549	213,510	110,185
319,910	4,161	213,243	109,760
320,925	3,980	213,135	109,566
321,939	3,633	212,854	109,165
322,954	3,604	212,748	109,080
323,968	4,165	212,822	109,507
324,983	4,130	212,758	109,439
325,997	4,633	212,546	109,678
327,012	4,247	212,465	109,352
328,027	4,279	212,122	109,188
329,041	4,559	212,198	109,416
330,056	4,701	212,037	109,424
331,070	4,169	211,786	108,909
332,085	4,024	211,612	108,707
333,100	3,898	211,429	108,514
334,114	4,223	211,396	108,718
335,129	4,051	211,310	108,542
336,143	3,927	211,058	108,316
337,158	3,808	211,008	108,197
338,173	3,946	210,736	108,144
339,187	3,996	210,623	108,112
340,202	3,616	210,596	107,822
341,216	3,522	210,387	107,638
342,231	3,765	210,222	107,715
343,246	3,828	210,178	107,727
344,260	3,910	210,015	107,692
345,275	4,095	209,907	107,756
346,289	3,981	209,857	107,641
347,304	4,091	209,724	107,640
348,319	4,172	209,479	107,561
349,333	4,001	209,335	107,358
350,348	4,310	209,289	107,541
351,362	4,339	209,120	107,465
352,377	4,304	209,096	107,419
353,392	4,189	208,803	107,178
354,406	4,015	208,863	107,079
355,421	193,758	1343,460	1431,839
356,435	154,617	1481,792	1431,962
