DTS Sentinel unit serial number:	SN410029Multiplexer serial number:	ORYXHardware model number:	OX2-SRSoftware version number:	ORYX F/W v4,00 Oryx Data Collector v3.7.2.0data status	okinstallation	B6 Nyhavnadifferential loss correction	single-endedforward channel	channel 2reverse channel	N/Adate	2023/12/08time	18:40:08forward acquisition time	300,00reverse acquisition time	0,00gamma	499,1914k internal	0,3158k external	0,3158temperature offset calibration	1,0000default loss term (dB/km)	0,3820temperature slope calibration	1,0000multiplexer offset coefficient	1,0000multiplexer slope coefficient	1,0000fibre end	0,00T internal ref (°C)	15,26T ext. ref 1 (°C)	-1,31T ext. ref 2 (°C)	-1,31length (m)	temperature (°C)	Stokes	anti-Stokes-744,400	48,466	-0,026	-0,018
-743,385	-82,151	-0,166	0,040
-742,371	132,968	0,175	0,166
-741,356	-118,569	-0,282	0,036
-740,342	248,914	0,107	0,134
-739,327	-124,590	-0,219	-0,025
-738,312	197,448	0,039	-0,044
-737,298	-127,522	-0,380	-0,040
-736,283	158,066	0,142	0,145
-735,269	-71,682	-0,245	0,067
-734,254	1,103	0,136	0,072
-733,239	-72,590	-0,562	-0,152
-732,225	16,446	0,133	0,077
-731,210	-200,000	0,010	0,062
-730,196	-200,000	0,000	-0,019
-729,181	800,000	0,011	-0,024
-728,167	800,000	0,013	-0,031
-727,152	-45,364	-0,109	-0,040
-726,137	-15,412	-0,108	0,050
-725,123	118,674	0,069	-0,063
-724,108	267,702	-0,080	-0,103
-723,094	-48,686	-0,098	0,035
-722,079	218,087	0,071	0,084
-721,064	-18,672	0,116	-0,053
-720,050	132,188	0,026	-0,025
-719,035	-142,982	-0,083	0,006
-718,021	307,465	-0,053	-0,072
-717,006	-31,644	-0,195	0,080
-715,991	24,301	-0,137	-0,083
-714,977	800,000	-0,025	-0,054
-713,962	168,874	0,111	0,117
-712,948	-50,540	-0,080	0,028
-711,933	-115,015	0,036	-0,005
-710,918	-200,000	-0,006	-0,029
-709,904	800,000	0,025	0,064
-708,889	-200,000	0,041	-0,139
-707,875	84,429	-0,129	-0,103
-706,860	800,000	-0,013	0,037
-705,845	-17,997	0,117	-0,054
-704,831	-157,854	-0,124	-0,005
-703,816	-200,000	-0,008	0,080
-702,802	154,359	0,022	-0,023
-701,787	-187,400	-0,133	0,001
-700,772	-200,000	-0,024	-0,093
-699,758	22,626	-0,018	-0,011
-698,743	582,601	0,047	0,086
-697,729	0,142	-0,104	0,054
-696,714	275,820	-0,066	0,086
-695,699	-200,000	-0,022	-0,119
-694,685	338,971	0,003	0,005
-693,670	316,968	-0,026	0,036
-692,656	10,731	-0,078	-0,044
-691,641	628,965	-0,027	-0,051
-690,627	-72,320	0,063	-0,017
-689,612	78,198	0,088	0,069
-688,597	22,652	0,026	0,016
-687,583	-8,691	-0,108	-0,053
-686,568	-200,000	-0,003	0,076
-685,554	-88,753	-0,041	-0,009
-684,539	-65,409	-0,114	-0,034
-683,524	-200,000	0,017	-0,142
-682,510	-200,000	-0,010	-0,054
-681,495	-200,000	0,012	0,046
-680,481	800,000	-0,029	-0,071
-679,466	64,772	-0,041	-0,030
-678,451	166,956	-0,053	0,055
-677,437	-129,822	0,068	0,007
-676,422	-58,966	0,047	0,015
-675,408	-2,654	-0,115	0,059
-674,393	120,326	-0,066	0,060
-673,378	-115,919	-0,079	-0,011
-672,364	-150,108	-0,069	0,004
-671,349	-138,537	-0,041	-0,003
-670,335	69,362	0,081	0,061
-669,320	175,046	-0,051	0,055
-668,305	-2,173	-0,089	0,046
-667,291	-45,912	0,136	0,049
-666,276	10,012	-0,109	-0,060
-665,262	-76,966	-0,203	-0,052
-664,247	-200,000	0,008	-0,111
-663,232	-5,541	0,008	0,004
-662,218	25,513	-0,024	0,015
-661,203	-200,000	0,011	-0,102
-660,189	-25,527	0,170	-0,073
-659,174	-26,977	-0,069	-0,029
-658,159	-104,794	-0,067	0,011
-657,145	-68,040	-0,182	0,052
-656,130	105,510	0,004	-0,003
-655,116	16,372	0,038	-0,022
-654,101	-123,414	0,101	0,012
-653,086	800,000	-0,028	0,063
-652,072	-9,146	0,045	-0,022
-651,057	425,671	-0,067	-0,106
-650,043	-200,000	-0,020	-0,089
-649,028	31,403	0,064	0,040
-648,014	800,000	-0,009	0,026
-646,999	-200,000	-0,002	0,128
-645,984	-56,124	-0,145	0,047
-644,970	-135,968	-0,071	0,006
-643,955	136,178	-0,049	0,047
-642,941	-163,234	-0,119	-0,004
-641,926	-19,906	0,025	0,011
-640,911	800,000	0,017	-0,035
-639,897	85,702	0,128	0,104
-638,882	422,990	-0,037	0,058
-637,868	-200,000	0,005	-0,132
-636,853	-200,000	-0,030	-0,116
-635,838	-200,000	-0,024	0,201
-634,824	-50,956	-0,034	0,012
-633,809	-200,000	0,012	0,047
-632,795	800,000	0,008	0,025
-631,780	-200,000	0,001	-0,011
-630,765	167,676	0,072	-0,076
-629,751	47,877	-0,142	-0,097
-628,736	-200,000	-0,004	-0,068
-627,722	19,496	-0,117	-0,069
-626,707	-200,000	0,028	-0,096
-625,692	800,000	0,042	-0,110
-624,678	-72,132	-0,158	0,043
-623,663	-200,000	-0,031	0,108
-622,649	258,268	-0,055	-0,070
-621,634	353,749	0,039	-0,057
-620,619	-200,000	0,000	0,112
-619,605	42,119	0,146	0,097
-618,590	800,000	-0,007	0,014
-617,576	65,113	0,161	0,119
-616,561	-200,000	-0,023	-0,091
-615,546	86,362	-0,019	0,015
-614,532	550,551	0,078	-0,137
-613,517	-142,600	-0,143	0,010
-612,503	-200,000	-0,007	-0,031
-611,488	-200,000	-0,026	0,139
-610,474	800,000	0,006	-0,019
-609,459	389,823	0,057	0,087
-608,444	-200,000	0,007	0,041
-607,430	-30,180	0,049	0,020
-606,415	751,991	-0,052	-0,104
-605,401	96,888	0,136	0,115
-604,386	553,839	0,051	-0,090
-603,371	-200,000	0,007	-0,211
-602,357	-50,455	0,051	0,018
-601,342	800,000	0,074	-0,176
-600,328	420,004	-0,094	-0,147
-599,313	-200,000	-0,004	0,034
-598,298	-200,000	-0,002	0,043
-597,284	-114,042	-0,031	0,004
-596,269	344,746	0,077	0,111
-595,255	-55,154	0,029	-0,010
-594,240	-71,192	-0,110	0,030
-593,225	-68,991	0,042	-0,012
-592,211	253,263	-0,072	-0,090
-591,196	20,099	-0,036	0,021
-590,182	195,415	0,082	-0,092
-589,167	-200,000	-0,002	0,056
-588,152	-97,461	-0,112	0,021
-587,138	-96,875	-0,255	-0,049
-586,123	-200,000	0,000	-0,091
-585,109	-11,661	0,036	-0,017
-584,094	-200,000	0,006	0,086
-583,079	-0,549	-0,046	0,024
-582,065	-90,168	-0,131	0,028
-581,050	52,279	-0,058	-0,041
-580,036	53,091	-0,111	0,078
-579,021	-125,904	-0,080	-0,009
-578,006	-24,164	0,039	-0,017
-576,992	-61,288	0,047	0,014
-575,977	585,865	0,020	0,037
-574,963	-7,211	0,074	0,037
-573,948	122,782	0,028	0,025
-572,934	-200,000	0,045	0,175
-571,919	243,943	-0,041	-0,051
-570,904	-200,000	0,030	-0,148
-569,890	106,314	-0,033	-0,029
-568,875	196,330	-0,045	-0,050
-567,861	174,059	-0,030	0,032
-566,846	260,483	0,090	0,114
-565,831	-115,378	-0,066	-0,009
-564,817	-106,806	-0,082	0,013
-563,802	467,666	-0,041	0,067
-562,788	57,947	-0,068	-0,049
-561,773	594,479	-0,041	0,074
-560,758	800,000	-0,004	0,011
-559,744	-195,116	-0,138	0,001
-558,729	731,579	0,072	-0,142
-557,715	660,755	0,074	-0,139
-556,700	390,125	-0,093	0,141
-555,685	-200,000	0,011	-0,036
-554,671	15,852	-0,064	-0,037
-553,656	68,190	0,083	0,062
-552,642	-200,000	0,014	0,127
-551,627	-200,000	-0,016	0,138
-550,612	346,399	-0,021	0,030
-549,598	11,107	-0,110	0,061
-548,583	140,414	0,067	0,064
-547,569	-130,935	0,082	-0,008
-546,554	13,345	0,103	0,058
-545,539	-67,411	-0,102	0,029
-544,525	-31,642	-0,045	0,018
-543,510	660,335	-0,060	0,114
-542,496	251,609	0,027	0,034
-541,481	498,927	-0,091	-0,154
-540,466	-96,452	0,082	0,016
-539,452	451,355	0,032	0,052
-538,437	746,105	-0,037	0,074
-537,423	-158,114	0,115	0,005
-536,408	170,576	-0,060	-0,063
-535,393	83,429	-0,073	-0,058
-534,379	-200,000	-0,043	-0,158
-533,364	58,182	-0,095	0,068
-532,350	-72,773	0,104	-0,028
-531,335	800,000	0,015	-0,032
-530,321	281,332	0,025	-0,033
-529,306	4,159	0,097	-0,052
-528,291	-200,000	-0,040	0,144
-527,277	-133,454	0,055	-0,005
-526,262	800,000	-0,043	-0,125
-525,248	800,000	0,024	0,065
-524,233	305,296	0,013	0,018
-523,218	-95,296	0,030	0,006
-522,204	-55,611	0,156	0,051
-521,189	-3,676	-0,120	-0,061
-520,175	-118,378	-0,175	0,022
-519,160	-200,000	0,005	-0,139
-518,145	-200,000	0,009	0,103
-517,131	-84,261	0,123	-0,028
-516,116	354,919	0,018	-0,026
-515,102	-200,000	-0,006	0,039
-514,087	256,097	0,072	-0,091
-513,072	800,000	0,004	-0,012
-512,058	800,000	-0,031	-0,076
-511,043	-90,451	-0,035	-0,007
-510,029	62,581	0,067	0,049
-509,014	278,913	0,043	0,056
-507,999	-2,846	-0,053	0,027
-506,985	-22,768	0,072	0,032
-505,970	-200,000	-0,003	-0,037
-504,956	105,974	0,051	-0,044
-503,941	800,000	-0,032	-0,069
-502,926	786,442	-0,007	-0,015
-501,912	-93,807	0,145	0,029
-500,897	211,258	0,067	0,077
-499,883	800,000	0,014	-0,033
-498,868	-200,000	0,018	0,122
-497,853	-200,000	0,008	-0,137
-496,839	32,355	0,037	-0,023
-495,824	800,000	0,092	0,245
-494,810	50,926	0,061	0,042
-493,795	800,000	-0,069	-0,144
-492,781	417,487	-0,049	-0,076
-491,766	800,000	0,033	-0,089
-490,751	25,940	0,111	-0,068
-489,737	562,274	0,039	0,070
-488,722	773,580	0,042	0,084
-487,708	611,073	0,073	0,134
-486,693	-20,168	0,128	0,057
-485,678	800,000	-0,036	-0,079
-484,664	291,623	-0,020	-0,026
-483,649	-129,138	-0,051	-0,005
-482,635	111,656	0,067	0,059
-481,620	-42,543	0,197	-0,073
-480,605	-153,152	0,077	0,004
-479,591	800,000	0,040	0,110
-478,576	122,368	0,103	-0,094
-477,562	104,993	0,065	-0,056
-476,547	-15,579	-0,004	-0,002
-475,532	75,033	0,104	0,080
-474,518	-200,000	-0,055	0,220
-473,503	-200,000	-0,006	-0,025
-472,489	-200,000	0,219	-0,000
-471,474	364,769	0,013	0,020
-470,459	800,000	0,032	-0,068
-469,445	-200,000	0,004	-0,158
-468,430	41,310	-0,029	0,019
-467,416	-92,545	-0,074	0,015
-466,401	800,000	-0,068	0,191
-465,386	-96,810	-0,048	0,009
-464,372	20,423	-0,104	-0,061
-463,357	222,103	-0,023	-0,027
-462,343	308,976	0,023	-0,032
-461,328	383,276	0,037	0,055
-460,313	17,469	0,123	0,071
-459,299	370,614	0,085	0,126
-458,284	35,002	-0,047	0,030
-457,270	52,922	-0,042	0,029
-456,255	472,333	0,008	-0,014
-455,241	-0,964	-0,088	-0,045
-454,226	-13,238	0,079	0,037
-453,211	-200,000	-0,011	-0,173
-452,197	450,926	0,028	-0,046
-451,182	224,381	0,049	-0,058
-450,168	-200,000	0,020	-0,102
-449,153	374,169	-0,065	-0,096
-448,138	-200,000	0,001	-0,123
-447,124	258,511	-0,082	-0,103
-446,109	19,661	0,062	-0,036
-445,095	-125,395	0,228	0,025
-444,080	61,515	-0,079	0,057
-443,065	157,936	0,062	0,063
-442,051	-180,568	0,067	-0,001
-441,036	-200,000	0,000	0,094
-440,022	91,064	-0,074	0,061
-439,007	13,870	0,149	0,084
-437,992	-96,949	-0,048	-0,009
-436,978	-200,000	0,011	-0,090
-435,963	-200,000	-0,014	0,193
-434,949	37,239	0,043	-0,028
-433,934	332,383	0,053	-0,075
-432,919	34,207	-0,101	-0,064
-431,905	178,195	-0,081	0,087
-430,890	27,904	0,090	0,055
-429,876	-200,000	0,000	0,057
-428,861	-200,000	0,019	-0,079
-427,846	60,809	0,088	0,064
-426,832	-141,478	-0,098	-0,007
-425,817	89,458	-0,123	-0,100
-424,803	-200,000	-0,004	-0,098
-423,788	178,123	-0,084	0,089
-422,773	-200,000	-0,008	0,158
-421,759	92,625	0,117	0,096
-420,744	434,799	0,016	-0,026
-419,730	168,586	-0,083	0,086
-418,715	370,767	0,075	-0,111
-417,701	-200,000	-0,008	-0,071
-416,686	18,224	-0,117	-0,068
-415,671	-200,000	0,003	-0,226
-414,657	33,340	0,014	-0,009
-413,642	226,229	-0,019	-0,022
-412,628	58,070	-0,013	-0,009
-411,613	-200,000	-0,012	-0,080
-410,598	10,865	-0,047	0,026
-409,584	72,956	0,096	-0,073
-408,569	458,366	0,008	0,013
-407,555	-200,000	0,000	-0,029
-406,540	-142,239	0,186	-0,013
-405,525	75,674	-0,040	-0,031
-404,511	30,525	-0,115	0,071
-403,496	3,650	0,024	-0,013
-402,482	-22,112	0,112	0,049
-401,467	445,460	0,059	0,095
-400,452	101,378	0,024	0,020
-399,438	-94,574	0,051	0,010
-398,423	-36,408	-0,145	0,056
-397,409	-122,820	0,041	-0,005
-396,394	6,904	-0,139	-0,075
-395,379	434,329	-0,058	0,092
-394,365	-25,650	0,165	0,070
-393,350	-200,000	-0,014	0,065
-392,336	800,000	0,034	0,070
-391,321	-62,874	-0,076	-0,023
-390,306	209,671	-0,069	-0,078
-389,292	142,320	0,101	-0,097
-388,277	-161,135	-0,055	0,002
-387,263	156,094	0,016	0,016
-386,248	410,101	0,070	-0,109
-385,233	-28,134	-0,118	0,050
-384,219	729,938	0,063	-0,123
-383,204	341,657	0,050	-0,072
-382,190	-29,715	0,119	-0,049
-381,175	-72,626	-0,153	-0,041
-380,160	-108,118	0,107	-0,017
-379,146	127,300	-0,061	0,056
-378,131	141,915	0,090	0,086
-377,117	2,250	0,095	-0,050
-376,102	-183,420	-0,080	-0,001
-375,088	-149,097	0,066	-0,004
-374,073	-200,000	0,002	0,009
-373,058	-200,000	0,009	-0,077
-372,044	42,695	-0,021	0,014
-371,029	-200,000	-0,002	-0,016
-370,015	-81,927	0,145	-0,034
-369,000	45,466	-0,015	-0,010
-367,985	412,493	0,045	-0,070
-366,971	800,000	-0,043	0,127
-365,956	-200,000	0,004	-0,078
-364,942	-88,929	0,076	-0,016
-363,927	319,095	-0,033	0,045
-362,912	-36,919	0,122	0,047
-361,898	-200,000	-0,022	-0,123
-360,883	-200,000	0,012	-0,139
-359,869	21,356	-0,118	0,070
-358,854	385,047	-0,011	-0,017
-357,839	272,802	0,048	0,062
-356,825	-72,748	0,212	0,056
-355,810	-200,000	0,020	-0,078
-354,796	8,693	-0,083	-0,045
-353,781	17,750	-0,127	-0,073
-352,766	455,693	-0,084	-0,136
-351,752	800,000	-0,012	0,032
-350,737	65,209	0,160	0,118
-349,723	-63,682	-0,036	-0,011
-348,708	-56,949	0,075	0,024
-347,693	595,737	-0,046	-0,083
-346,679	238,577	-0,037	-0,044
-345,664	-62,608	-0,099	0,030
-344,650	39,068	-0,080	-0,052
-343,635	103,338	-0,079	0,067
-342,620	-200,000	0,017	0,080
-341,606	442,899	0,031	-0,049
-340,591	86,591	-0,045	0,036
-339,577	-38,580	-0,051	-0,019
-338,562	84,392	0,044	0,035
-337,548	-79,186	-0,117	-0,029
-336,533	-80,460	0,088	0,021
-335,518	-147,165	0,112	-0,007
-334,504	-57,529	0,034	-0,011
-333,489	84,116	0,016	0,013
-332,475	54,264	0,083	0,058
-331,460	-31,246	-0,023	-0,009
-330,445	-164,015	-0,033	-0,001
-329,431	-88,521	-0,111	-0,024
-328,416	42,117	-0,038	-0,025
-327,402	179,276	-0,159	0,169
-326,387	79,180	0,091	0,071
-325,372	88,212	-0,053	-0,043
-324,358	-82,893	0,071	-0,017
-323,343	64,676	0,150	-0,110
-322,329	-87,174	0,105	-0,023
-321,314	14,574	0,102	0,058
-320,299	-159,109	-0,147	0,006
-319,285	-140,551	-0,090	-0,007
-318,270	-200,000	0,002	-0,022
-317,256	800,000	0,047	0,117
-316,241	-8,395	-0,119	-0,058
-315,226	147,090	-0,082	0,080
-314,212	-200,000	-0,001	-0,029
-313,197	-29,615	-0,089	0,037
-312,183	473,479	-0,066	0,107
-311,168	-200,000	0,003	0,012
-310,153	166,260	0,077	-0,080
-309,139	-200,000	0,001	0,012
-308,124	-66,831	0,100	0,028
-307,110	573,265	-0,032	-0,056
-306,095	282,550	0,072	0,094
-305,080	145,312	0,099	0,096
-304,066	280,600	-0,075	-0,098
-303,051	800,000	-0,053	-0,120
-302,037	-1,014	-0,055	0,028
-301,022	-200,000	0,029	0,096
-300,008	-129,143	0,218	-0,022
-298,993	224,157	-0,068	0,079
-297,978	246,002	0,134	-0,163
-296,964	-5,049	-0,149	0,074
-295,949	-200,000	0,015	0,089
-294,935	71,858	-0,052	-0,039
-293,920	398,723	-0,106	0,161
-292,905	170,689	-0,038	0,040
-291,891	-86,890	0,056	0,012
-290,876	426,271	-0,074	0,116
-289,862	-169,453	-0,083	0,002
-288,847	-200,000	0,002	0,026
-287,832	-200,000	-0,053	-0,316
-286,818	-100,072	0,071	-0,013
-285,803	167,067	0,070	0,072
-284,789	-146,283	-0,157	0,010
-283,774	33,085	0,155	0,097
-282,759	-32,581	-0,114	0,046
-281,745	-38,114	-0,081	-0,031
-280,730	54,887	0,086	-0,060
-279,716	-58,623	-0,064	0,020
-278,701	-41,310	0,103	0,038
-277,686	-200,000	0,029	0,178
-276,672	-89,643	-0,061	-0,013
-275,657	-200,000	-0,028	-0,115
-274,643	-33,165	0,086	-0,034
-273,628	-200,000	0,005	-0,115
-272,613	-200,000	0,001	-0,042
-271,599	-105,090	0,094	-0,015
-270,584	-200,000	0,020	0,170
-269,570	639,104	-0,040	-0,074
-268,555	65,329	0,054	0,040
-267,540	800,000	0,018	-0,047
-266,526	209,875	-0,073	-0,083
-265,511	-49,408	-0,044	0,015
-264,497	-200,000	-0,031	-0,111
-263,482	-132,782	0,075	-0,007
-262,467	-77,895	0,100	0,025
-261,453	-200,000	0,011	-0,088
-260,438	424,951	-0,060	-0,093
-259,424	-200,000	-0,010	0,077
-258,409	20,486	-0,121	-0,071
-257,395	22,041	-0,061	-0,036
-256,380	-14,980	0,109	-0,050
-255,365	-8,860	0,038	-0,019
-254,351	408,809	-0,080	-0,122
-253,336	-156,577	0,027	-0,001
-252,322	-200,000	0,003	-0,074
-251,307	-200,000	0,008	-0,141
-250,292	229,021	0,024	-0,028
-249,278	296,676	0,048	-0,064
-248,263	-200,000	0,013	-0,113
-247,249	236,316	-0,044	0,052
-246,234	-113,186	-0,108	0,015
-245,219	-36,621	-0,118	0,046
-244,205	-200,000	0,016	0,146
-243,190	-200,000	0,018	0,178
-242,176	-38,854	-0,084	-0,032
-241,161	-64,766	0,079	0,023
-240,146	800,000	0,039	0,095
-239,132	-177,373	-0,231	-0,004
-238,117	45,153	-0,111	-0,074
-237,103	781,222	0,040	-0,080
-236,088	312,430	-0,052	0,070
-235,073	54,069	-0,043	0,030
-234,059	-200,000	0,028	-0,098
-233,044	-120,176	-0,123	-0,015
-232,030	558,355	-0,035	0,062
-231,015	-94,469	-0,073	0,014
-230,000	498,957	0,088	-0,147
-228,986	-106,626	0,081	-0,013
-227,971	12,386	-0,036	0,020
-226,957	-71,098	0,110	0,030
-225,942	237,729	-0,023	-0,027
-224,927	-65,951	-0,108	0,031
-223,913	683,648	0,050	-0,095
-222,898	69,284	0,076	-0,056
-221,884	-129,684	-0,178	-0,018
-220,869	-200,000	0,024	0,101
-219,855	-135,125	-0,088	-0,008
-218,840	105,180	0,016	0,014
-217,825	-200,000	0,001	0,109
-216,811	-122,624	0,019	0,002
-215,796	-149,700	-0,101	-0,006
-214,782	-131,152	0,094	-0,009
-213,767	800,000	-0,043	0,090
-212,752	800,000	-0,026	0,069
-211,738	-31,231	-0,089	-0,036
-210,723	-200,000	0,002	0,075
-209,709	800,000	0,068	-0,145
-208,694	711,436	0,045	-0,087
-207,679	800,000	0,042	0,116
-206,665	800,000	-0,019	0,054
-205,650	225,581	0,040	0,047
-204,636	-65,273	-0,071	0,021
-203,621	298,957	-0,022	0,029
-202,606	10,486	-0,121	0,066
-201,592	-188,325	-0,099	-0,001
-200,577	-200,000	0,003	0,047
-199,563	465,602	0,024	0,039
-198,548	800,000	0,029	-0,062
-197,533	425,846	0,044	0,069
-196,519	-86,047	-0,109	0,024
-195,504	-21,773	-0,013	-0,006
-194,490	-200,000	0,000	-0,021
-193,475	359,918	0,042	-0,060
-192,460	-151,050	-0,109	0,006
-191,446	-57,017	0,100	0,032
-190,431	-108,897	0,062	-0,009
-189,417	-81,430	0,029	0,007
-188,402	-45,662	-0,169	0,060
-187,387	-200,000	0,010	-0,133
-186,373	7,946	-0,043	-0,023
-185,358	648,729	-0,033	0,062
-184,344	718,541	0,021	0,041
-183,329	608,619	0,049	0,089
-182,315	110,006	-0,044	0,038
-181,300	800,000	0,015	0,032
-180,285	60,553	-0,086	-0,061
-179,271	200,484	-0,058	-0,064
-178,256	-63,691	-0,075	-0,022
-177,242	-200,000	0,018	-0,158
-176,227	-200,000	0,007	-0,087
-175,212	255,570	0,036	0,045
-174,198	-87,677	-0,021	-0,004
-173,183	58,280	0,124	-0,087
-172,169	56,228	-0,073	-0,051
-171,154	79,654	-0,027	0,021
-170,139	131,818	0,041	-0,038
-169,125	-200,000	-0,006	0,057
-168,110	-59,625	0,038	0,012
-167,096	307,663	0,015	-0,021
-166,081	43,352	-0,115	-0,075
-165,066	-200,000	-0,006	-0,105
-164,052	-45,394	-0,060	0,021
-163,037	-200,000	0,003	0,023
-162,023	-51,714	0,015	0,005
-161,008	-169,328	0,074	0,002
-159,993	501,348	0,084	0,141
-158,979	-200,000	-0,012	0,097
-157,964	-23,317	0,049	-0,021
-156,950	38,383	0,044	-0,028
-155,935	-57,444	0,082	-0,026
-154,920	234,800	0,099	0,118
-153,906	800,000	-0,032	0,076
-152,891	171,629	0,086	0,089
-151,877	-92,386	-0,177	-0,036
-150,862	434,069	-0,103	-0,162
-149,847	-200,000	-0,016	-0,112
-148,833	-47,421	0,088	0,031
-147,818	611,383	-0,056	-0,101
-146,804	-62,859	0,085	-0,025
-145,789	263,810	0,063	0,079
-144,775	-200,000	0,001	0,033
-143,760	-69,737	-0,070	0,019
-142,745	-117,523	-0,149	0,019
-141,731	-200,000	0,018	0,063
-140,716	-106,760	0,037	0,006
-139,702	-200,000	0,023	0,076
-138,687	791,115	-0,042	0,084
-137,672	272,759	-0,007	0,009
-136,658	550,152	-0,043	-0,075
-135,643	-200,000	0,016	-0,097
-134,629	-50,258	0,101	-0,034
-133,614	-200,000	0,007	0,035
-132,599	800,000	0,022	0,064
-131,585	160,308	-0,123	0,124
-130,570	-200,000	-0,009	0,031
-129,556	253,925	-0,070	-0,087
-128,541	87,232	-0,051	-0,040
-127,526	82,472	0,078	-0,061
-126,512	75,925	-0,097	0,074
-125,497	-33,584	0,078	0,031
-124,483	-71,350	-0,025	0,007
-123,468	-125,296	-0,021	-0,002
-122,453	60,876	-0,077	0,055
-121,439	56,549	-0,059	-0,041
-120,424	-108,814	0,103	0,016
-119,410	800,000	0,023	0,059
-118,395	52,627	0,026	0,018
-117,380	-136,661	0,077	-0,006
-116,366	800,000	0,032	0,064
-115,351	-200,000	-0,016	-0,093
-114,337	-191,304	-0,195	0,001
-113,322	-125,656	0,035	-0,004
-112,307	800,000	0,019	0,039
-111,293	-200,000	0,025	0,083
-110,278	-76,003	0,086	0,022
-109,264	62,026	-0,042	-0,030
-108,249	40,857	-0,157	-0,102
-107,234	4,829	-0,131	-0,069
-106,220	-200,000	0,010	0,071
-105,205	-42,145	-0,051	0,019
-104,191	-129,461	0,152	0,015
-103,176	-200,000	0,000	0,024
-102,162	-200,000	-0,018	-0,094
-101,147	-200,000	0,003	-0,035
-100,132	-97,094	0,060	-0,011
-99,118	-40,502	-0,164	0,061
-98,103	160,049	-0,082	-0,082
-97,089	340,007	0,061	-0,086
-96,074	690,268	0,016	0,029
-95,059	274,635	-0,022	0,029
-94,045	519,135	-0,032	-0,054
-93,030	-114,824	-0,137	-0,019
-92,016	58,507	-0,159	-0,112
-91,001	622,361	-0,009	-0,016
-89,986	209,391	0,054	-0,060
-88,972	-120,995	0,105	0,013
-87,957	-125,077	0,139	-0,015
-86,943	800,000	0,025	0,051
-85,928	-93,840	-0,117	-0,023
-84,913	64,651	-0,106	-0,077
-83,899	310,010	-0,035	0,048
-82,884	-200,000	0,003	0,107
-81,870	-200,000	-0,003	0,062
-80,855	-200,000	-0,001	-0,070
-79,840	-66,432	0,096	-0,027
-78,826	150,813	-0,096	-0,094
-77,811	574,516	-0,059	-0,103
-76,797	-98,669	0,082	-0,015
-75,782	224,869	0,064	-0,075
-74,767	427,544	-0,088	0,137
-73,753	50,303	0,093	0,063
-72,738	387,682	0,049	0,073
-71,724	45,717	0,053	0,035
-70,709	800,000	0,039	-0,087
-69,694	241,202	-0,030	-0,036
-68,680	305,123	0,020	0,027
-67,665	-17,161	0,073	0,033
-66,651	-92,177	0,090	0,018
-65,636	-200,000	0,012	-0,177
-64,622	43,177	-0,060	-0,039
-63,607	153,975	-0,052	0,051
-62,592	800,000	0,019	-0,054
-61,578	-142,968	0,093	0,006
-60,563	245,695	0,015	-0,018
-59,549	-200,000	-0,018	0,060
-58,534	31,232	-1,962	-1,206
-57,519	-200,000	-0,216	-0,864
-56,505	-200,000	-1,221	-4,914
-55,490	57,636	0,964	0,675
-54,476	800,000	5,302	11,812
-53,461	-200,000	17,765	290,059
-52,446	800,000	726,084	2231,607
-51,432	537,984	1638,721	2805,494
-50,417	109,994	1629,078	1402,395
-49,403	73,538	1283,339	963,277
-48,388	31,642	1026,228	631,946
-47,373	19,940	988,226	570,002
-46,359	18,322	976,292	557,796
-45,344	15,563	972,399	546,530
-44,330	15,838	970,841	546,533
-43,315	15,334	969,133	543,906
-42,300	15,307	967,808	543,053
-41,286	15,276	967,024	542,489
-40,271	15,267	965,993	541,860
-39,257	15,285	965,028	541,359
-38,242	15,324	964,328	541,070
-37,227	15,365	963,366	540,641
-36,213	15,334	962,620	540,100
-35,198	15,192	961,891	539,209
-34,184	15,330	960,982	539,126
-33,169	15,256	960,001	538,314
-32,154	15,328	959,117	538,031
-31,140	15,284	958,497	537,519
-30,125	15,323	957,516	537,073
-29,111	15,325	956,783	536,649
-28,096	15,334	956,076	536,259
-27,082	15,349	955,265	535,832
-26,067	15,326	954,631	535,381
-25,052	15,256	953,867	534,706
-24,038	15,325	953,131	534,493
-23,023	15,255	952,638	533,971
-22,009	15,352	951,860	533,825
-20,994	15,265	951,094	533,095
-19,979	15,263	950,681	532,835
-18,965	15,310	949,883	532,517
-17,950	15,281	949,421	532,145
-16,936	15,216	948,897	531,624
-15,921	15,234	948,094	531,210
-14,906	15,199	947,280	530,621
-13,892	15,152	946,692	530,121
-12,877	15,140	946,219	529,798
-11,863	15,167	945,563	529,493
-10,848	15,166	945,143	529,235
-9,833	15,255	944,533	529,155
-8,819	15,242	943,932	528,756
-7,804	15,216	943,209	528,248
-6,790	15,182	942,717	527,844
-5,775	15,248	942,114	527,694
-4,760	15,220	941,463	527,219
-3,746	15,164	940,845	526,676
-2,731	15,077	940,139	525,986
-1,717	15,027	939,526	525,463
-0,702	15,025	938,801	525,030
0,313	14,804	938,234	524,808
1,327	18,221	936,281	534,423
2,342	27,465	789,722	475,111
3,356	24,006	444,196	262,097
4,371	-5,712	294,627	144,229
5,386	-9,677	276,445	131,568
6,400	-10,913	270,542	127,602
7,415	-11,084	268,395	126,421
8,429	-10,944	266,796	125,785
9,444	-11,042	266,064	125,339
10,459	-10,851	265,289	125,136
11,473	-11,066	264,718	124,661
12,488	-11,304	264,262	124,220
13,502	-11,272	263,704	123,975
14,517	-11,250	263,156	123,726
15,531	-11,187	262,936	123,669
16,546	-11,092	262,512	123,544
17,561	-11,243	262,108	123,207
18,575	-11,014	261,750	123,232
19,590	-11,243	261,519	122,908
20,604	-10,989	261,271	123,007
21,619	-11,106	260,817	122,678
22,634	-11,158	260,507	122,475
23,648	-11,278	260,244	122,234
24,663	-11,138	259,911	122,191
25,677	-11,094	259,685	122,113
26,692	-11,085	259,262	121,911
27,707	-11,263	259,126	121,679
28,721	-11,231	258,811	121,548
29,736	-11,381	258,584	121,298
30,750	-11,288	258,290	121,232
31,765	-11,252	258,048	121,139
32,780	-11,429	257,813	120,862
33,794	-11,274	257,630	120,902
34,809	-11,380	257,525	120,749
35,823	-11,249	257,220	120,710
36,838	-11,323	256,887	120,478
37,853	-11,274	256,624	120,387
38,867	-11,255	256,371	120,274
39,882	-11,391	256,205	120,066
40,896	-11,324	255,801	119,925
41,911	-11,290	255,670	119,883
42,926	-11,357	255,401	119,687
43,940	-11,335	255,152	119,579
44,955	-11,654	254,843	119,146
45,969	-11,609	254,912	119,207
46,984	-11,547	254,628	119,117
47,999	-11,964	254,127	118,510
49,013	-12,106	254,018	118,326
50,028	-11,914	253,663	118,316
51,042	-12,172	253,478	117,997
52,057	-12,270	253,215	117,779
53,071	-12,187	252,914	117,700
54,086	-12,275	252,863	117,590
55,101	-11,942	252,697	117,790
56,115	-11,854	252,765	117,886
57,130	-11,380	252,517	118,168
58,144	-11,114	252,350	118,308
59,159	-11,079	252,035	118,180
60,174	-11,248	251,836	117,931
61,188	-11,121	251,651	117,943
62,203	-11,126	251,486	117,851
63,217	-11,188	251,266	117,685
64,232	-11,248	251,136	117,562
65,247	-11,245	250,960	117,471
66,261	-11,194	250,609	117,340
67,276	-11,679	250,477	116,854
68,290	-11,853	250,053	116,497
69,305	-11,731	249,817	116,481
70,320	-11,603	249,554	116,457
71,334	-11,516	249,524	116,506
72,349	-11,092	249,347	116,774
73,363	-11,013	249,101	116,715
74,378	-11,207	249,036	116,509
75,393	-11,166	248,640	116,348
76,407	-11,259	248,579	116,231
77,422	-11,296	248,402	116,106
78,436	-11,254	248,183	116,029
79,451	-11,149	247,886	115,969
80,466	-11,284	247,605	115,712
81,480	-11,540	247,435	115,408
82,495	-11,443	247,238	115,387
83,509	-11,623	247,224	115,219
84,524	-11,451	246,932	115,216
85,539	-11,773	246,778	114,864
86,553	-11,705	246,351	114,713
87,568	-11,772	246,429	114,683
88,582	-11,493	246,006	114,709
89,597	-11,385	245,714	114,652
90,611	-11,508	245,758	114,561
91,626	-11,390	245,692	114,617
92,641	-11,324	245,412	114,532
93,655	-11,444	245,237	114,340
94,670	-11,387	244,997	114,265
95,684	-11,411	244,827	114,156
96,699	-11,339	244,633	114,115
97,714	-11,584	244,427	113,805
98,728	-11,557	244,297	113,757
99,743	-11,594	244,052	113,602
100,757	-11,728	243,891	113,406
101,772	-11,720	243,682	113,305
102,787	-11,563	243,493	113,337
103,801	-11,659	243,210	113,117
104,816	-11,696	243,218	113,080
105,830	-11,285	242,948	113,283
106,845	-11,304	242,873	113,222
107,860	-11,190	242,550	113,155
108,874	-11,384	242,446	112,937
109,889	-11,591	242,178	112,632
110,903	-11,570	242,033	112,572
111,918	-11,537	241,858	112,507
112,933	-11,732	241,744	112,285
113,947	-11,292	241,615	112,575
114,962	-11,433	241,242	112,276
115,976	-11,410	241,171	112,251
116,991	-11,345	241,052	112,240
118,006	-11,465	240,800	112,014
119,020	-11,492	240,675	111,924
120,035	-11,329	240,679	112,049
121,049	-11,347	240,552	111,965
122,064	-11,366	240,183	111,767
123,079	-11,421	239,918	111,590
124,093	-11,472	239,690	111,432
125,108	-11,513	239,401	111,254
126,122	-11,613	239,334	111,133
127,137	-11,761	239,160	110,922
128,151	-11,625	238,966	110,932
129,166	-11,593	238,854	110,896
130,181	-11,636	238,524	110,699
131,195	-11,774	238,370	110,505
132,210	-11,615	238,193	110,542
133,224	-11,453	238,212	110,671
134,239	-11,404	238,015	110,610
135,254	-11,355	237,860	110,568
136,268	-11,499	237,555	110,299
137,283	-11,820	237,254	109,893
138,297	-11,810	237,026	109,785
139,312	-11,878	236,964	109,692
140,327	-11,604	236,988	109,913
141,341	-11,146	236,924	110,241
142,356	-11,240	236,745	110,072
143,370	-10,879	236,497	110,236
144,385	-10,785	236,333	110,225
145,400	-11,060	236,342	109,999
146,414	-10,994	235,914	109,843
147,429	-11,104	235,850	109,716
148,443	-11,043	235,589	109,633
149,458	-10,838	235,400	109,698
150,473	-11,120	235,252	109,395
151,487	-11,016	234,957	109,331
152,502	-10,994	234,971	109,345
153,516	-10,972	234,775	109,262
154,531	-11,116	234,640	109,075
155,546	-11,031	234,445	109,042
156,560	-11,104	234,292	108,903
157,575	-11,430	233,995	108,498
158,589	-11,305	233,900	108,543
159,604	-10,872	233,813	108,835
160,619	-10,935	233,669	108,709
161,633	-10,731	233,459	108,762
162,648	-10,945	233,524	108,614
163,662	-11,035	233,151	108,360
164,677	-11,130	232,910	108,163
165,692	-10,983	232,749	108,195
166,706	-10,884	232,741	108,259
167,721	-10,774	232,526	108,236
168,735	-10,861	232,540	108,164
169,750	-10,856	232,282	108,038
170,764	-11,061	232,059	107,764
171,779	-11,000	232,077	107,811
172,794	-10,937	231,917	107,776
173,808	-11,234	231,660	107,415
174,823	-11,655	231,180	106,855
175,837	-11,523	230,920	106,828
176,852	-11,415	231,136	107,002
177,867	-11,075	230,993	107,191
178,881	-10,828	230,762	107,267
179,896	-10,938	230,653	107,121
180,910	-11,125	230,629	106,955
181,925	-11,082	230,467	106,904
182,940	-11,055	230,283	106,830
183,954	-10,818	230,026	106,885
184,969	-10,795	230,022	106,891
185,983	-10,737	229,808	106,827
186,998	-10,973	229,631	106,553
188,013	-10,793	229,605	106,670
189,027	-10,767	229,303	106,541
190,042	-10,731	229,131	106,479
191,056	-10,722	229,060	106,444
192,071	-10,947	228,899	106,186
193,086	-10,881	228,638	106,106
194,100	-10,917	228,587	106,045
195,115	-11,322	228,143	105,519
196,129	-11,366	228,156	105,481
197,144	-5,895	229,935	110,525
198,159	0,069	231,636	115,967
199,173	3,007	232,515	118,682
200,188	3,349	232,436	118,896
201,202	3,296	232,301	118,775
202,217	3,355	232,205	118,761
203,232	3,720	231,933	118,894
204,246	3,653	231,946	118,838
205,261	3,868	231,691	118,864
206,275	4,025	231,699	118,978
207,290	4,003	231,591	118,894
208,304	4,024	231,296	118,749
209,319	4,078	231,163	118,712
210,334	3,886	231,076	118,509
211,348	3,538	230,722	118,049
212,363	3,279	230,472	117,711
213,377	3,105	230,231	117,444
214,392	3,194	230,100	117,435
215,407	3,181	229,971	117,349
216,421	3,274	229,827	117,336
217,436	3,055	229,591	117,037
218,450	2,726	229,443	116,700
219,465	3,016	229,241	116,809
220,480	2,797	229,164	116,591
221,494	2,913	229,190	116,683
222,509	3,220	229,065	116,843
223,523	3,226	228,930	116,768
224,538	3,269	228,538	116,591
225,553	3,097	228,482	116,421
226,567	3,166	228,348	116,395
227,582	3,290	228,331	116,470
228,596	3,338	228,195	116,427
229,611	3,326	227,790	116,201
230,626	2,980	227,689	115,876
231,640	2,996	227,448	115,755
232,655	3,218	227,560	115,970
233,669	3,680	227,444	116,251
234,684	3,695	227,392	116,225
235,699	3,719	227,106	116,086
236,713	3,235	226,929	115,621
237,728	3,212	226,708	115,480
238,742	3,062	226,488	115,244
239,757	3,072	226,407	115,200
240,772	2,907	226,289	115,006
241,786	3,137	226,198	115,123
242,801	3,265	226,025	115,121
243,815	3,658	225,880	115,331
244,830	3,478	225,758	115,125
245,844	3,238	225,561	114,833
246,859	3,268	225,299	114,712
247,874	3,307	225,240	114,701
248,888	3,420	225,240	114,776
249,903	3,290	225,001	114,546
250,917	3,213	224,818	114,385
251,932	3,228	224,663	114,307
252,947	3,011	224,474	114,039
253,961	3,024	224,407	114,004
254,976	3,265	224,159	114,048
255,990	3,309	224,055	114,018
257,005	3,368	224,119	114,084
258,020	3,343	223,854	113,920
259,034	3,542	223,860	114,061
260,049	3,349	223,584	113,767
261,063	3,409	223,382	113,699
262,078	3,561	223,388	113,805
263,093	3,758	223,132	113,810
264,107	3,661	223,004	113,663
265,122	3,496	222,874	113,464
266,136	3,849	222,765	113,659
267,151	3,707	222,570	113,445
268,166	3,267	222,335	112,990
269,180	2,962	222,161	112,667
270,195	2,917	221,952	112,518
271,209	2,947	221,929	112,518
272,224	3,230	221,843	112,673
273,239	3,416	221,614	112,683
274,253	3,230	221,394	112,425
275,268	2,744	221,383	112,052
276,282	2,808	221,107	111,949
277,297	2,897	220,937	111,918
278,312	3,257	220,937	112,173
279,326	3,092	220,944	112,045
280,341	3,063	220,628	111,854
281,355	3,266	220,591	111,973
282,370	3,111	220,268	111,686
283,384	2,887	220,090	111,422
284,399	2,692	219,989	111,219
285,414	2,643	219,864	111,111
286,428	3,098	219,895	111,447
287,443	3,414	219,649	111,543
288,457	3,536	219,457	111,525
289,472	3,019	219,276	111,047
290,487	2,730	219,045	110,710
291,501	2,633	218,950	110,582
292,516	2,925	218,890	110,754
293,530	2,957	218,670	110,655
294,545	2,911	218,625	110,589
295,560	2,994	218,553	110,603
296,574	3,302	218,399	110,738
297,589	3,102	218,196	110,481
298,603	3,204	218,155	110,524
299,618	3,407	217,956	110,560
300,633	3,194	217,933	110,385
301,647	3,149	218,057	110,405
302,662	3,242	217,797	110,330
303,676	3,189	217,477	110,121
304,691	3,297	217,374	110,136
305,706	3,334	217,281	110,106
306,720	3,294	217,048	109,950
307,735	3,231	216,950	109,845
308,749	3,120	216,754	109,656
309,764	3,263	216,783	109,764
310,779	3,520	216,463	109,776
311,793	3,276	216,339	109,529
312,808	3,467	216,187	109,579
313,822	3,191	216,093	109,324
314,837	2,932	215,959	109,061
315,852	2,912	215,677	108,895
316,866	3,262	215,724	109,158
317,881	3,445	215,520	109,176
318,895	3,529	215,458	109,194
319,910	3,060	215,196	108,719
320,925	2,737	215,002	108,381
321,939	2,834	214,876	108,377
322,954	3,001	214,751	108,423
323,968	3,399	214,779	108,710
324,983	3,387	214,581	108,591
325,997	3,409	214,447	108,529
327,012	3,270	214,307	108,351
328,027	3,326	214,112	108,282
329,041	3,431	213,942	108,260
330,056	3,408	213,935	108,230
331,070	3,295	213,717	108,031
332,085	3,230	213,395	107,813
333,100	3,275	213,349	107,812
334,114	3,265	213,265	107,753
335,129	3,400	213,186	107,798
336,143	3,386	212,957	107,663
337,158	3,102	213,082	107,517
338,173	3,365	212,789	107,544
339,187	3,191	212,524	107,279
340,202	2,967	212,391	107,045
341,216	2,939	212,238	106,938
342,231	2,992	212,178	106,936
343,246	3,055	211,928	106,844
344,260	3,138	212,008	106,933
345,275	3,023	211,833	106,755
346,289	3,390	211,669	106,919
347,304	3,427	211,541	106,870
348,319	3,123	211,334	106,545
349,333	3,067	211,319	106,488
350,348	3,381	211,084	106,579
351,362	3,364	211,046	106,539
352,377	3,280	210,968	106,431
353,392	3,169	210,879	106,300
354,406	3,112	210,681	106,151
355,421	196,068	1339,647	1418,934
356,435	156,617	1477,178	1418,902
