DTS Sentinel unit serial number:	SN410029Multiplexer serial number:	ORYXHardware model number:	OX2-SRSoftware version number:	ORYX F/W v4,00 Oryx Data Collector v3.7.2.0data status	okinstallation	B6 Nyhavnadifferential loss correction	single-endedforward channel	channel 2reverse channel	N/Adate	2023/12/07time	18:15:08forward acquisition time	300,00reverse acquisition time	0,00gamma	499,1914k internal	0,3164k external	0,3164temperature offset calibration	1,0000default loss term (dB/km)	0,3820temperature slope calibration	1,0000multiplexer offset coefficient	1,0000multiplexer slope coefficient	1,0000fibre end	0,00T internal ref (°C)	14,31T ext. ref 1 (°C)	-2,69T ext. ref 2 (°C)	-2,70length (m)	temperature (°C)	Stokes	anti-Stokes-744,400	-64,525	0,099	0,029
-743,385	-35,474	-0,361	-0,143
-742,371	-57,165	0,303	-0,098
-741,356	-100,978	-0,275	0,049
-740,342	423,391	0,028	-0,044
-739,327	-81,638	-0,332	0,079
-738,312	-200,000	-0,003	0,065
-737,298	-98,662	-0,245	-0,046
-736,283	270,300	0,091	0,118
-735,269	-84,470	-0,238	0,055
-734,254	155,876	-0,057	0,058
-733,239	-31,321	-0,468	-0,193
-732,225	95,767	0,068	0,057
-731,210	326,060	-0,019	0,027
-730,196	-110,106	-0,037	-0,006
-729,181	156,887	-0,107	-0,109
-728,167	160,030	-0,100	0,102
-727,152	-20,083	-0,136	0,061
-726,137	627,773	-0,044	0,082
-725,123	686,490	-0,028	-0,054
-724,108	14,182	0,005	0,003
-723,094	51,614	-0,232	-0,162
-722,079	-92,605	-0,116	-0,024
-721,064	400,069	-0,036	0,056
-720,050	-139,646	-0,078	0,006
-719,035	481,196	0,061	0,102
-718,021	800,000	0,028	0,077
-717,006	438,505	-0,046	-0,074
-715,991	267,364	0,044	-0,057
-714,977	-200,000	0,017	0,126
-713,962	-160,903	0,054	-0,002
-712,948	-71,387	-0,083	0,023
-711,933	-45,601	-0,088	0,032
-710,918	-200,000	-0,005	0,083
-709,904	534,554	-0,029	0,050
-708,889	-161,079	-0,097	0,004
-707,875	-95,174	-0,225	-0,044
-706,860	4,943	0,030	-0,016
-705,845	198,885	0,045	-0,051
-704,831	320,723	-0,052	-0,073
-703,816	58,685	-0,091	-0,066
-702,802	461,267	-0,010	-0,017
-701,787	368,596	0,109	-0,163
-700,772	-200,000	-0,003	-0,032
-699,758	800,000	0,049	-0,099
-698,743	218,670	0,071	0,084
-697,729	107,944	-0,059	0,052
-696,714	800,000	0,029	0,084
-695,699	-185,027	-0,048	0,001
-694,685	-27,180	-0,096	0,041
-693,670	-164,590	-0,043	0,001
-692,656	-193,669	-0,105	0,001
-691,641	-200,000	0,011	0,107
-690,627	93,895	-0,039	0,032
-689,612	140,899	-0,061	0,059
-688,597	800,000	0,035	0,083
-687,583	-200,000	0,014	-0,065
-686,568	394,237	-0,037	-0,057
-685,554	-58,746	0,012	-0,004
-684,539	-200,000	-0,028	0,143
-683,524	-15,451	-0,066	-0,031
-682,510	-157,017	-0,068	0,003
-681,495	-127,046	-0,046	-0,005
-680,481	-11,014	-0,050	-0,024
-679,466	-200,000	-0,008	-0,077
-678,451	424,187	-0,054	-0,085
-677,437	65,968	-0,142	-0,106
-676,422	25,775	0,078	-0,047
-675,408	448,771	0,025	-0,041
-674,393	26,014	0,038	-0,023
-673,378	-32,898	-0,123	0,050
-672,364	-200,000	-0,003	-0,057
-671,349	310,260	0,139	0,191
-670,335	-200,000	-0,009	-0,052
-669,320	158,363	-0,068	-0,069
-668,305	-200,000	0,023	0,096
-667,291	145,219	-0,118	0,116
-666,276	-200,000	-0,013	-0,063
-665,262	-20,158	-0,034	0,015
-664,247	149,180	-0,101	0,100
-663,232	800,000	0,049	0,107
-662,218	-200,000	0,036	0,182
-661,203	-200,000	-0,013	0,072
-660,189	800,000	-0,025	0,057
-659,174	256,361	0,039	-0,049
-658,159	310,750	-0,049	0,068
-657,145	-144,412	-0,082	-0,006
-656,130	-47,978	0,089	0,031
-655,116	27,499	-0,033	-0,020
-654,101	800,000	-0,018	-0,044
-653,086	-105,943	0,063	0,010
-652,072	-25,027	0,089	-0,039
-651,057	-129,176	-0,079	0,008
-650,043	-145,034	-0,076	-0,005
-649,028	-66,231	-0,096	-0,028
-648,014	-161,886	0,154	-0,006
-646,999	-153,368	-0,088	-0,004
-645,984	800,000	0,012	0,028
-644,970	800,000	-0,057	0,139
-643,955	44,284	-0,103	-0,069
-642,941	-38,840	-0,042	-0,016
-641,926	285,780	0,032	0,042
-640,911	800,000	0,031	-0,063
-639,897	800,000	0,018	-0,050
-638,882	-200,000	0,023	0,086
-637,868	-32,312	-0,085	-0,035
-636,853	38,845	-0,082	-0,053
-635,838	800,000	0,053	-0,135
-634,824	800,000	0,022	-0,052
-633,809	34,167	-0,023	0,015
-632,795	-200,000	0,012	0,100
-631,780	-24,292	0,083	0,036
-630,765	54,613	-0,080	-0,056
-629,751	-200,000	-0,013	-0,051
-628,736	-200,000	-0,008	-0,048
-627,722	23,666	-0,127	0,076
-626,707	587,904	-0,022	-0,040
-625,692	-200,000	-0,010	-0,062
-624,678	-124,959	-0,159	0,018
-623,663	163,613	-0,083	-0,085
-622,649	-69,746	-0,064	-0,018
-621,634	-197,440	0,046	0,000
-620,619	-5,865	-0,151	0,076
-619,605	-200,000	0,024	0,155
-618,590	2,874	0,105	0,056
-617,576	-200,000	-0,016	0,100
-616,561	144,961	-0,113	-0,111
-615,546	94,887	-0,099	-0,082
-614,532	-34,485	-0,065	-0,026
-613,517	-200,000	0,004	-0,109
-612,503	-200,000	0,026	0,097
-611,488	800,000	0,005	0,015
-610,474	94,391	-0,108	0,089
-609,459	-200,000	-0,001	-0,087
-608,444	-78,212	0,138	0,035
-607,430	800,000	-0,050	0,154
-606,415	120,140	-0,061	-0,056
-605,401	-61,588	0,186	0,057
-604,386	-200,000	-0,005	0,030
-603,371	1,055	0,060	0,032
-602,357	279,052	-0,065	0,086
-601,342	-200,000	0,001	-0,049
-600,328	68,827	-0,116	-0,087
-599,313	800,000	-0,035	-0,081
-598,298	-200,000	-0,006	0,055
-597,284	-200,000	-0,020	-0,130
-596,269	-56,219	0,061	0,020
-595,255	-118,374	0,117	0,015
-594,240	-200,000	-0,018	0,098
-593,225	-146,166	0,123	-0,008
-592,211	-119,925	-0,153	0,019
-591,196	-143,941	0,037	-0,002
-590,182	204,914	0,080	0,091
-589,167	-37,921	-0,032	-0,013
-588,152	-79,017	-0,086	-0,021
-587,138	-200,000	-0,033	0,118
-586,123	33,542	0,065	-0,041
-585,109	-85,309	-0,105	0,024
-584,094	-10,658	-0,139	-0,067
-583,079	450,884	0,041	0,067
-582,065	76,149	-0,100	0,077
-581,050	-200,000	0,008	0,029
-580,036	181,458	-0,056	-0,060
-579,021	546,491	-0,043	-0,076
-578,006	7,130	0,094	-0,051
-576,992	-25,456	-0,035	0,015
-575,977	198,518	0,060	0,067
-574,963	66,030	0,108	0,080
-573,948	800,000	-0,034	0,104
-572,934	132,703	-0,099	-0,094
-571,919	384,970	-0,062	-0,093
-570,904	-163,523	-0,159	0,005
-569,890	-59,791	0,052	-0,016
-568,875	571,423	0,056	0,099
-567,861	148,864	0,102	0,101
-566,846	800,000	0,006	0,016
-565,831	299,359	0,058	-0,078
-564,817	-200,000	-0,007	0,117
-563,802	220,985	-0,042	-0,050
-562,788	628,296	0,053	-0,098
-561,773	433,629	-0,046	-0,073
-560,758	0,021	-0,046	-0,024
-559,744	143,768	0,049	-0,048
-558,729	789,910	0,009	-0,019
-557,715	180,463	-0,163	0,175
-556,700	-200,000	0,000	0,013
-555,685	374,951	-0,106	-0,158
-554,671	800,000	-0,024	-0,075
-553,656	387,278	0,052	0,078
-552,642	-125,425	0,047	0,005
-551,627	-200,000	0,027	-0,143
-550,612	800,000	-0,011	0,032
-549,598	-6,127	-0,160	-0,080
-548,583	50,933	0,063	-0,044
-547,569	-121,157	0,047	-0,006
-546,554	57,090	0,011	-0,008
-545,539	12,576	0,156	-0,087
-544,525	-77,836	-0,041	0,010
-543,510	800,000	-0,041	-0,127
-542,496	236,601	-0,068	-0,082
-541,481	-69,706	0,009	-0,003
-540,466	344,204	-0,031	-0,045
-539,452	-14,186	0,043	-0,020
-538,437	169,152	0,026	-0,027
-537,423	-126,765	-0,056	0,006
-536,408	-200,000	0,010	-0,061
-535,393	77,045	-0,103	0,080
-534,379	-200,000	-0,006	0,033
-533,364	86,289	0,087	-0,070
-532,350	800,000	0,016	0,035
-531,335	-76,226	-0,049	-0,013
-530,321	630,913	-0,063	0,117
-529,306	-200,000	-0,005	-0,023
-528,291	800,000	-0,075	-0,184
-527,277	526,750	-0,048	-0,083
-526,262	-200,000	0,006	-0,079
-525,248	-69,536	0,070	-0,019
-524,233	-127,660	0,085	0,009
-523,218	-164,545	-0,159	0,005
-522,204	27,123	-0,065	-0,040
-521,189	-63,599	-0,103	-0,031
-520,175	800,000	0,027	-0,085
-519,160	6,670	-0,064	-0,035
-518,145	-200,000	-0,021	0,119
-517,131	-133,707	0,113	0,010
-516,116	-35,872	-0,117	-0,046
-515,102	-200,000	-0,024	-0,128
-514,087	-149,557	0,042	-0,002
-513,072	-168,857	0,100	0,003
-512,058	-200,000	0,011	0,070
-511,043	800,000	0,051	0,135
-510,029	-82,395	0,080	-0,019
-509,014	194,507	-0,057	0,063
-507,999	-95,626	0,014	-0,003
-506,985	29,210	-0,087	0,054
-505,970	-200,000	-0,001	0,036
-504,956	68,807	-0,127	0,095
-503,941	-200,000	-0,009	-0,074
-502,926	362,391	0,095	0,139
-501,912	-200,000	-0,027	-0,183
-500,897	87,979	0,070	0,056
-499,883	-200,000	0,023	-0,122
-498,868	-200,000	-0,018	-0,148
-497,853	97,988	-0,052	0,043
-496,839	-200,000	-0,012	0,093
-495,824	295,584	0,125	-0,168
-494,810	-57,382	0,126	0,040
-493,795	102,922	0,062	-0,053
-492,781	-188,645	-0,111	0,001
-491,766	415,354	-0,088	-0,137
-490,751	-200,000	0,008	-0,123
-489,737	22,315	-0,091	-0,054
-488,722	-40,143	0,146	0,055
-487,708	15,780	0,121	0,069
-486,693	800,000	-0,017	-0,046
-485,678	-88,965	0,229	0,049
-484,664	141,996	-0,062	-0,060
-483,649	161,270	-0,060	0,061
-482,635	-66,903	-0,062	-0,018
-481,620	-34,245	0,011	-0,005
-480,605	-65,726	0,134	0,039
-479,591	800,000	-0,053	-0,157
-478,576	-200,000	-0,003	-0,013
-477,562	-107,472	0,032	-0,005
-476,547	-86,298	-0,097	-0,021
-475,532	799,202	-0,073	0,148
-474,518	-150,170	0,136	-0,008
-473,503	173,818	0,095	0,100
-472,489	157,438	0,094	-0,094
-471,474	800,000	0,047	-0,100
-470,459	800,000	0,025	-0,074
-469,445	211,701	0,098	0,112
-468,430	-200,000	-0,034	-0,157
-467,416	311,393	-0,032	0,044
-466,401	-170,305	-0,108	0,003
-465,386	170,479	0,078	0,081
-464,372	-200,000	-0,038	0,163
-463,357	30,830	-0,067	0,041
-462,343	-33,917	-0,098	-0,039
-461,328	-200,000	-0,077	0,278
-460,313	-200,000	-0,006	0,096
-459,299	259,430	-0,037	0,047
-458,284	-32,473	0,079	-0,032
-457,270	-117,417	0,178	0,023
-456,255	-80,049	-0,157	0,038
-455,241	-200,000	-0,006	0,154
-454,226	549,312	-0,036	-0,063
-453,211	800,000	-0,015	-0,032
-452,197	800,000	0,025	-0,078
-451,182	-200,000	0,006	0,024
-450,168	78,705	0,032	0,025
-449,153	263,958	-0,072	0,091
-448,138	-200,000	0,010	-0,113
-447,124	-200,000	0,022	0,000
-446,109	-200,000	0,028	0,112
-445,095	800,000	-0,012	0,035
-444,080	-128,502	0,116	-0,012
-443,065	-164,155	-0,017	-0,001
-442,051	342,200	-0,017	0,024
-441,036	800,000	-0,027	-0,087
-440,022	467,709	0,053	-0,087
-439,007	-11,155	0,033	-0,016
-437,992	110,598	0,096	-0,084
-436,978	207,491	0,040	0,046
-435,963	-200,000	-0,000	-0,033
-434,949	323,574	-0,034	-0,047
-433,934	-200,000	-0,011	0,087
-432,919	-200,000	0,001	0,098
-431,905	329,198	0,037	-0,051
-430,890	796,880	0,052	0,105
-429,876	-161,611	0,183	-0,007
-428,861	699,937	0,061	0,118
-427,846	68,790	-0,103	-0,077
-426,832	614,620	0,041	-0,074
-425,817	30,849	-0,104	0,065
-424,803	80,249	-0,046	0,036
-423,788	-200,000	-0,021	0,072
-422,773	-200,000	-0,013	-0,080
-421,759	-27,456	0,120	-0,051
-420,744	-23,612	-0,107	0,047
-419,730	-1,166	0,084	-0,043
-418,715	487,764	0,030	-0,051
-417,701	152,070	0,048	0,048
-416,686	138,479	0,028	0,027
-415,671	800,000	-0,012	-0,034
-414,657	-200,000	0,040	0,171
-413,642	7,689	0,090	0,049
-412,628	214,854	-0,071	-0,082
-411,613	122,083	-0,042	0,038
-410,598	-143,122	0,089	-0,006
-409,584	137,276	0,060	0,057
-408,569	-200,000	0,000	0,006
-407,555	-200,000	0,023	-0,083
-406,540	342,712	-0,031	-0,045
-405,525	278,421	0,074	0,096
-404,511	475,750	0,047	-0,078
-403,496	641,130	-0,034	0,063
-402,482	291,162	-0,056	0,074
-401,467	26,252	0,117	0,071
-400,452	338,986	-0,020	0,029
-399,438	21,421	0,056	-0,033
-398,423	364,717	0,047	-0,069
-397,409	-200,000	-0,025	-0,106
-396,394	239,081	0,010	0,013
-395,379	800,000	0,011	-0,034
-394,365	-82,301	-0,039	-0,009
-393,350	-95,249	0,082	0,016
-392,336	-200,000	-0,009	0,086
-391,321	553,039	0,004	-0,006
-390,306	-37,276	0,037	-0,014
-389,292	-195,257	0,103	-0,001
-388,277	-168,962	0,129	0,003
-387,263	-66,009	0,102	-0,029
-386,248	-200,000	0,015	-0,051
-385,233	-64,209	-0,019	0,006
-384,219	-200,000	0,013	0,069
-383,204	-200,000	-0,003	-0,040
-382,190	416,219	-0,016	0,024
-381,175	293,046	-0,012	0,016
-380,160	390,346	0,082	0,124
-379,146	-58,316	0,131	-0,041
-378,131	-200,000	0,000	-0,060
-377,117	121,174	-0,074	0,067
-376,102	800,000	0,013	-0,034
-375,088	-200,000	-0,016	-0,083
-374,073	-24,080	-0,060	0,026
-373,058	689,752	0,039	0,074
-372,044	761,629	-0,025	0,050
-371,029	800,000	-0,038	-0,088
-370,015	9,626	0,170	0,093
-369,000	-59,318	0,136	-0,042
-367,985	124,096	-0,014	0,013
-366,971	-143,857	0,067	-0,005
-365,956	488,823	-0,041	-0,069
-364,942	-200,000	0,005	0,072
-363,927	-200,000	0,005	0,039
-362,912	-81,127	-0,151	-0,036
-361,898	40,461	-0,033	-0,022
-360,883	-200,000	0,010	-0,085
-359,869	18,272	-0,089	-0,051
-358,854	-35,655	0,102	0,040
-357,839	800,000	0,029	0,078
-356,825	-134,074	0,064	-0,006
-355,810	-200,000	-0,007	-0,139
-354,796	-61,998	-0,041	-0,012
-353,781	800,000	-0,049	-0,144
-352,766	-200,000	0,005	0,087
-351,752	341,245	0,036	-0,051
-350,737	-140,649	0,156	0,012
-349,723	-200,000	0,017	-0,071
-348,708	-189,140	0,154	0,001
-347,693	260,734	-0,017	0,021
-346,679	5,481	0,095	-0,051
-345,664	62,250	-0,073	-0,052
-344,650	409,751	0,025	0,039
-343,635	800,000	-0,053	0,161
-342,620	-200,000	-0,001	0,008
-341,606	-200,000	0,025	-0,167
-340,591	-32,835	0,091	-0,037
-339,577	-26,727	0,134	-0,056
-338,562	574,794	0,019	0,034
-337,548	-200,000	0,004	0,037
-336,533	800,000	-0,049	0,128
-335,518	237,988	0,034	0,041
-334,504	608,613	-0,045	-0,081
-333,489	208,116	0,080	0,091
-332,475	800,000	0,023	-0,062
-331,460	390,118	-0,046	0,069
-330,445	-157,245	0,145	0,006
-329,431	440,262	0,021	-0,034
-328,416	-19,794	-0,145	0,065
-327,402	673,575	-0,021	0,040
-326,387	389,766	-0,011	0,016
-325,372	-200,000	-0,004	-0,041
-324,358	79,820	-0,020	0,016
-323,343	-121,406	0,080	-0,010
-322,329	-96,753	-0,156	0,029
-321,314	378,542	0,016	-0,024
-320,299	90,794	0,180	0,146
-319,285	623,097	0,097	0,177
-318,270	-107,266	-0,172	0,027
-317,256	58,389	-0,098	-0,069
-316,241	-154,765	-0,071	0,003
-315,226	-49,600	0,078	0,027
-314,212	178,696	0,121	0,128
-313,197	-124,621	-0,158	0,017
-312,183	-200,000	0,002	0,022
-311,168	-18,834	-0,148	-0,067
-310,153	-153,156	-0,139	0,007
-309,139	301,245	-0,074	-0,099
-308,124	800,000	-0,024	-0,050
-307,110	58,660	-0,052	-0,037
-306,095	150,568	0,017	-0,017
-305,080	-200,000	-0,020	0,088
-304,066	-13,560	0,091	0,042
-303,051	-127,504	-0,117	-0,012
-302,037	-200,000	-0,004	-0,058
-301,022	-25,856	0,094	-0,040
-300,008	457,564	0,062	0,100
-298,993	-108,598	0,065	0,010
-297,978	424,191	-0,006	0,010
-296,964	-16,811	-0,014	-0,007
-295,949	-35,764	-0,060	-0,024
-294,935	46,690	-0,127	-0,085
-293,920	-140,453	-0,127	0,009
-292,905	800,000	0,011	0,027
-291,891	-200,000	0,010	0,059
-290,876	51,803	-0,059	-0,040
-289,862	800,000	0,071	-0,157
-288,847	-200,000	0,012	0,109
-287,832	-200,000	-0,021	-0,106
-286,818	695,321	0,049	0,094
-285,803	-6,727	-0,067	0,033
-284,789	27,346	0,079	0,048
-283,774	-200,000	0,021	0,071
-282,759	-200,000	0,003	-0,061
-281,745	-125,274	-0,135	0,015
-280,730	-200,000	-0,005	-0,111
-279,716	588,068	-0,043	0,077
-278,701	-139,468	0,028	-0,002
-277,686	-16,157	0,136	-0,062
-276,672	629,346	-0,032	-0,059
-275,657	106,242	0,118	0,101
-274,643	68,908	-0,056	0,041
-273,628	-108,109	-0,112	-0,017
-272,613	-1,245	0,021	-0,011
-271,599	-200,000	0,038	0,182
-270,584	659,854	-0,056	0,105
-269,570	-200,000	-0,023	0,122
-268,555	-115,062	0,079	-0,011
-267,540	162,149	-0,072	-0,073
-266,526	-67,778	-0,015	0,004
-265,511	-180,017	0,130	-0,002
-264,497	-95,696	-0,102	0,020
-263,482	24,919	0,140	-0,084
-262,467	36,667	-0,119	-0,076
-261,453	800,000	-0,037	-0,104
-260,438	-200,000	0,014	0,092
-259,424	-200,000	-0,002	0,145
-258,409	-14,694	-0,121	0,056
-257,395	-35,398	0,121	-0,047
-256,380	-124,915	0,126	0,014
-255,365	-40,056	-0,109	-0,041
-254,351	496,309	-0,014	0,023
-253,336	-200,000	0,026	0,133
-252,322	-200,000	0,020	-0,093
-251,307	-200,000	0,007	-0,086
-250,292	666,594	0,031	-0,058
-249,278	-43,508	-0,084	-0,030
-248,263	-200,000	-0,012	0,179
-247,249	-200,000	0,029	0,104
-246,234	800,000	-0,013	-0,028
-245,219	-152,972	-0,153	0,008
-244,205	-200,000	0,040	-0,177
-243,190	329,358	0,075	0,104
-242,176	-200,000	0,004	0,017
-241,161	-86,600	-0,100	-0,022
-240,146	-113,203	-0,115	-0,016
-239,132	-87,482	0,077	0,017
-238,117	-82,090	-0,141	-0,033
-237,103	800,000	-0,044	-0,128
-236,088	800,000	0,008	-0,020
-235,073	-42,047	0,012	-0,004
-234,059	-96,698	0,122	-0,023
-233,044	-200,000	-0,008	0,033
-232,030	87,247	0,101	-0,081
-231,015	282,614	-0,044	0,057
-230,000	800,000	0,094	-0,190
-228,986	-200,000	-0,008	-0,072
-227,971	-130,362	0,215	0,021
-226,957	540,137	0,072	-0,124
-225,942	692,995	0,045	0,085
-224,927	43,913	-0,027	-0,018
-223,913	120,411	-0,052	0,047
-222,898	-128,866	-0,140	-0,014
-221,884	-61,979	-0,061	-0,018
-220,869	-81,878	-0,111	-0,026
-219,855	800,000	0,052	0,119
-218,840	85,213	-0,054	-0,043
-217,825	147,609	0,094	-0,092
-216,811	332,368	0,082	-0,115
-215,796	-5,564	-0,025	0,012
-214,782	-130,280	-0,064	0,006
-213,767	-50,806	0,141	-0,047
-212,752	-200,000	0,012	0,105
-211,738	-62,706	-0,211	0,063
-210,723	-200,000	0,007	-0,025
-209,709	141,122	-0,037	-0,036
-208,694	800,000	-0,035	-0,088
-207,679	-36,674	0,174	0,067
-206,665	-24,849	0,064	0,027
-205,650	-103,601	-0,123	-0,021
-204,636	526,688	-0,024	-0,040
-203,621	-171,291	-0,137	-0,003
-202,606	511,208	-0,023	-0,039
-201,592	228,167	0,052	0,062
-200,577	800,000	0,040	-0,114
-199,563	233,645	0,078	0,093
-198,548	-5,130	0,068	0,034
-197,533	80,516	0,037	-0,029
-196,519	432,885	0,061	0,095
-195,504	93,782	-0,043	-0,035
-194,490	306,596	0,133	-0,179
-193,475	-200,000	0,009	-0,044
-192,460	512,302	0,050	0,085
-191,446	136,872	0,065	-0,062
-190,431	185,286	0,084	0,089
-189,417	-123,778	-0,097	-0,011
-188,402	-200,000	-0,010	0,068
-187,387	466,081	-0,026	0,042
-186,373	-200,000	0,009	0,058
-185,358	442,561	0,057	-0,090
-184,344	-10,201	-0,073	-0,035
-183,329	-50,971	0,050	0,017
-182,315	8,559	0,084	-0,045
-181,300	208,824	-0,044	0,050
-180,285	17,884	0,095	-0,054
-179,271	-183,005	-0,105	-0,001
-178,256	-200,000	0,027	0,111
-177,242	-129,760	0,119	-0,012
-176,227	-45,383	0,055	-0,020
-175,212	800,000	-0,094	0,233
-174,198	116,090	-0,079	0,070
-173,183	800,000	-0,033	-0,083
-172,169	-60,394	-0,069	-0,021
-171,154	800,000	-0,020	-0,058
-170,139	202,463	0,075	0,084
-169,125	31,486	-0,054	-0,034
-168,110	42,249	0,065	0,042
-167,096	617,593	0,035	-0,064
-166,081	-16,764	-0,169	-0,077
-165,066	733,241	-0,046	-0,090
-164,052	-200,000	0,032	0,112
-163,037	16,044	-0,056	0,032
-162,023	247,111	0,067	-0,082
-161,008	-200,000	0,012	0,061
-159,993	227,738	0,032	0,038
-158,979	92,544	-0,069	0,056
-157,964	800,000	-0,011	0,029
-156,950	86,966	-0,146	0,116
-155,935	-200,000	-0,013	-0,066
-154,920	-38,694	0,126	-0,047
-153,906	-163,335	-0,109	0,004
-152,891	-54,953	-0,121	0,039
-151,877	-200,000	-0,001	0,009
-150,862	228,958	0,043	-0,050
-149,847	-58,933	0,043	-0,013
-148,833	800,000	-0,009	0,021
-147,818	-160,844	-0,081	-0,003
-146,804	-100,079	0,125	-0,022
-145,789	46,192	-0,068	-0,045
-144,775	94,117	0,030	-0,025
-143,760	97,934	-0,056	0,046
-142,745	-200,000	-0,001	-0,128
-141,731	-188,294	-0,085	0,001
-140,716	62,724	0,068	-0,049
-139,702	-200,000	-0,012	-0,056
-138,687	130,609	-0,145	0,134
-137,672	-200,000	0,031	0,137
-136,658	800,000	0,028	-0,075
-135,643	-200,000	0,003	-0,176
-134,629	121,200	0,097	0,087
-133,614	-200,000	-0,007	0,091
-132,599	-200,000	-0,015	0,120
-131,585	570,449	0,127	0,223
-130,570	-200,000	0,032	0,103
-129,556	800,000	-0,019	-0,041
-128,541	-101,839	-0,037	0,006
-127,526	88,366	0,013	-0,010
-126,512	206,879	-0,029	0,033
-125,497	123,379	0,087	0,078
-124,483	800,000	0,039	0,082
-123,468	-200,000	0,006	0,150
-122,453	110,575	-0,060	0,051
-121,439	59,331	-0,051	0,036
-120,424	800,000	-0,033	-0,085
-119,410	385,652	0,075	0,111
-118,395	-200,000	0,001	0,107
-117,380	800,000	0,021	0,053
-116,366	-200,000	-0,003	0,036
-115,351	-200,000	0,001	0,008
-114,337	-22,841	0,063	0,027
-113,322	-187,211	-0,136	0,001
-112,307	61,495	-0,050	0,036
-111,293	-200,000	-0,022	-0,091
-110,278	800,000	0,008	-0,017
-109,264	-60,290	0,057	0,017
-108,249	-200,000	-0,005	0,036
-107,234	23,005	0,118	0,069
-106,220	-200,000	-0,032	0,116
-105,205	-200,000	-0,008	0,039
-104,191	304,662	0,081	-0,108
-103,176	36,260	0,048	0,030
-102,162	-84,427	-0,126	-0,028
-101,147	-57,505	-0,015	-0,005
-100,132	10,751	-0,106	0,058
-99,118	-200,000	0,004	-0,013
-98,103	232,357	-0,057	-0,067
-97,089	619,797	-0,032	-0,058
-96,074	-90,959	-0,073	-0,015
-95,059	16,962	0,104	0,059
-94,045	276,410	-0,052	0,067
-93,030	800,000	0,020	-0,048
-92,016	-200,000	-0,002	0,020
-91,001	-183,363	0,026	0,000
-89,986	190,748	0,060	-0,065
-88,972	-200,000	0,013	0,104
-87,957	-200,000	0,006	-0,098
-86,943	-3,977	0,107	-0,053
-85,928	42,328	-0,054	-0,035
-84,913	-200,000	-0,002	0,026
-83,899	-200,000	-0,013	-0,197
-82,884	236,219	0,196	-0,233
-81,870	171,115	0,031	-0,032
-80,855	159,852	-0,062	-0,062
-79,840	-200,000	0,000	-0,050
-78,826	263,292	-0,056	0,070
-77,811	-15,631	-0,075	0,034
-76,797	34,730	-0,083	0,052
-75,782	27,231	0,034	-0,020
-74,767	108,784	0,052	-0,045
-73,753	-137,312	-0,126	0,010
-72,738	-23,411	0,115	0,049
-71,724	176,583	0,038	0,040
-70,709	172,446	-0,039	0,040
-69,694	-200,000	0,015	-0,146
-68,680	800,000	0,015	-0,038
-67,665	-120,936	0,084	0,010
-66,651	-200,000	-0,018	-0,089
-65,636	800,000	-0,025	-0,057
-64,622	6,580	-0,074	-0,039
-63,607	-200,000	-0,012	-0,218
-62,592	119,523	0,074	0,066
-61,578	-200,000	0,001	-0,024
-60,563	363,612	0,050	0,072
-59,549	-106,268	0,203	-0,032
-58,534	14,114	-2,066	-1,149
-57,519	-200,000	-0,040	-0,865
-56,505	-200,000	-1,278	-5,088
-55,490	108,394	0,902	0,771
-54,476	800,000	5,367	12,157
-53,461	-200,000	18,274	294,991
-52,446	800,000	730,605	2231,817
-51,432	528,179	1643,911	2788,129
-50,417	107,316	1632,631	1390,061
-49,403	71,367	1284,113	953,398
-48,388	30,262	1024,982	625,343
-47,373	19,826	986,720	567,710
-46,359	17,773	974,350	553,870
-45,344	14,675	970,392	541,505
-44,330	14,856	969,143	541,374
-43,315	14,351	967,149	538,598
-42,300	14,313	966,069	537,853
-41,286	14,327	965,299	537,446
-40,271	14,301	964,459	536,873
-39,257	14,335	963,435	536,391
-38,242	14,340	962,409	535,818
-37,227	14,390	961,547	535,479
-36,213	14,312	960,768	534,771
-35,198	14,302	959,821	534,189
-34,184	14,316	959,254	533,896
-33,169	14,309	958,095	533,209
-32,154	14,362	957,144	532,830
-31,140	14,376	956,435	532,458
-30,125	14,407	955,531	532,035
-29,111	14,336	954,813	531,385
-28,096	14,347	954,215	531,065
-27,082	14,364	953,380	530,636
-26,067	14,373	952,725	530,278
-25,052	14,362	951,925	529,776
-24,038	14,326	951,273	529,276
-23,023	14,260	950,808	528,788
-22,009	14,364	950,026	528,662
-20,994	14,372	949,403	528,321
-19,979	14,349	948,773	527,877
-18,965	14,270	948,282	527,329
-17,950	14,328	947,669	527,153
-16,936	14,284	946,924	526,578
-15,921	14,305	946,055	526,140
-14,906	14,264	945,593	525,733
-13,892	14,221	944,723	525,090
-12,877	14,201	944,266	524,751
-11,863	14,205	943,645	524,401
-10,848	14,198	943,193	524,104
-9,833	14,385	942,412	524,243
-8,819	14,326	941,888	523,745
-7,804	14,241	941,287	523,119
-6,790	14,190	940,847	522,693
-5,775	14,235	940,039	522,365
-4,760	14,256	939,583	522,160
-3,746	14,235	939,062	521,781
-2,731	14,078	938,234	520,805
-1,717	14,059	937,586	520,366
-0,702	14,026	936,925	519,876
0,313	13,886	936,221	519,829
1,327	17,396	934,050	529,588
2,342	26,534	786,202	469,693
3,356	22,672	441,757	258,214
4,371	-6,847	294,005	142,521
5,386	-10,776	275,840	130,002
6,400	-12,083	270,144	126,099
7,415	-12,157	267,823	124,937
8,429	-12,199	266,284	124,170
9,444	-12,447	265,621	123,624
10,459	-12,096	264,813	123,555
11,473	-12,562	264,423	122,941
12,488	-12,451	263,642	122,668
13,502	-12,702	263,045	122,153
14,517	-12,618	262,706	122,060
15,531	-12,478	262,204	121,941
16,546	-12,690	262,151	121,715
17,561	-12,539	261,585	121,577
18,575	-12,364	261,218	121,552
19,590	-12,666	260,939	121,142
20,604	-12,541	260,670	121,118
21,619	-12,479	260,264	120,973
22,634	-12,564	260,013	120,770
23,648	-12,555	259,534	120,545
24,663	-12,660	259,364	120,363
25,677	-12,452	259,008	120,371
26,692	-12,588	258,876	120,178
27,707	-12,576	258,591	120,046
28,721	-12,624	258,348	119,880
29,736	-12,494	257,903	119,777
30,750	-12,619	257,773	119,596
31,765	-12,589	257,486	119,479
32,780	-12,610	257,377	119,399
33,794	-12,497	257,094	119,356
34,809	-12,704	256,923	119,084
35,823	-12,630	256,605	118,991
36,838	-12,649	256,332	118,838
37,853	-12,634	256,007	118,689
38,867	-12,660	255,793	118,557
39,882	-12,673	255,525	118,411
40,896	-12,672	255,544	118,410
41,911	-12,704	255,110	118,170
42,926	-12,712	254,909	118,060
43,940	-12,445	254,574	118,126
44,955	-12,620	254,386	117,877
45,969	-12,831	254,227	117,609
46,984	-12,873	253,898	117,411
47,999	-13,076	253,714	117,139
49,013	-13,067	253,369	116,977
50,028	-13,139	253,110	116,785
51,042	-13,349	253,042	116,562
52,057	-13,288	252,619	116,409
53,071	-13,346	252,445	116,269
54,086	-13,166	252,399	116,393
55,101	-13,041	252,203	116,399
56,115	-12,777	251,951	116,499
57,130	-12,564	251,926	116,660
58,144	-12,385	251,790	116,740
59,159	-12,276	251,348	116,618
60,174	-12,444	251,175	116,383
61,188	-12,444	251,030	116,305
62,203	-12,595	250,933	116,122
63,217	-12,416	250,583	116,101
64,232	-12,572	250,354	115,853
65,247	-12,666	250,127	115,657
66,261	-12,728	249,962	115,518
67,276	-12,584	249,695	115,507
68,290	-12,716	249,470	115,280
69,305	-13,046	249,339	114,929
70,320	-12,913	248,989	114,870
71,334	-12,836	248,886	114,878
72,349	-12,486	248,655	115,057
73,363	-12,454	248,445	114,976
74,378	-12,523	248,372	114,875
75,393	-12,478	248,064	114,760
76,407	-12,643	247,785	114,481
77,422	-12,619	247,736	114,468
78,436	-12,664	247,463	114,294
79,451	-12,485	247,212	114,318
80,466	-12,680	247,056	114,073
81,480	-12,767	246,707	113,828
82,495	-12,827	246,682	113,756
83,509	-12,824	246,397	113,617
84,524	-12,516	246,103	113,729
85,539	-12,850	245,837	113,317
86,553	-12,934	245,737	113,191
87,568	-12,859	245,715	113,233
88,582	-12,633	245,328	113,233
89,597	-12,758	245,211	113,065
90,611	-12,528	244,949	113,125
91,626	-12,419	244,898	113,182
92,641	-12,574	244,729	112,965
93,655	-12,456	244,613	112,999
94,670	-12,719	244,422	112,683
95,684	-12,515	244,049	112,669
96,699	-12,640	243,863	112,471
97,714	-12,744	243,831	112,360
98,728	-12,931	243,642	112,108
99,743	-12,882	243,028	111,856
100,757	-12,957	243,129	111,831
101,772	-12,827	242,806	111,779
102,787	-12,801	242,708	111,746
103,801	-12,830	242,664	111,691
104,816	-12,573	242,418	111,780
105,830	-12,559	242,411	111,778
106,845	-12,497	241,988	111,623
107,860	-12,598	241,918	111,499
108,874	-12,527	241,694	111,443
109,889	-12,645	241,422	111,212
110,903	-12,760	241,364	111,080
111,918	-12,517	241,118	111,156
112,933	-12,564	240,854	110,986
113,947	-12,570	240,771	110,933
114,962	-12,560	240,490	110,802
115,976	-12,577	240,351	110,714
116,991	-12,626	240,248	110,617
118,006	-12,657	240,113	110,520
119,020	-12,611	239,920	110,459
120,035	-12,402	239,885	110,603
121,049	-12,559	239,792	110,422
122,064	-12,647	239,599	110,252
123,079	-12,641	239,189	110,058
124,093	-12,809	239,002	109,827
125,108	-13,020	238,909	109,604
126,122	-13,066	238,496	109,367
127,137	-13,055	238,331	109,291
128,151	-12,767	238,120	109,416
129,166	-12,900	237,955	109,224
130,181	-12,800	237,757	109,204
131,195	-13,052	237,721	108,974
132,210	-12,688	237,529	109,169
133,224	-12,600	237,180	109,070
134,239	-12,592	237,252	109,100
135,254	-12,632	237,164	109,017
136,268	-12,648	236,694	108,779
137,283	-12,863	236,521	108,518
138,297	-12,998	236,335	108,314
139,312	-13,045	236,230	108,219
140,327	-12,677	235,994	108,395
141,341	-12,352	236,028	108,660
142,356	-12,405	235,785	108,496
143,370	-12,411	235,695	108,441
144,385	-12,322	235,366	108,350
145,400	-12,449	235,377	108,245
146,414	-12,312	235,165	108,246
147,429	-12,355	234,892	108,077
148,443	-12,619	234,784	107,809
149,458	-12,499	234,580	107,800
150,473	-12,238	234,395	107,912
151,487	-12,558	234,293	107,602
152,502	-12,439	234,171	107,631
153,516	-12,569	233,962	107,422
154,531	-12,416	233,928	107,518
155,546	-12,527	233,653	107,294
156,560	-12,569	233,455	107,161
157,575	-12,547	233,211	107,056
158,589	-12,612	233,097	106,944
159,604	-12,300	232,996	107,133
160,619	-12,137	232,755	107,141
161,633	-12,344	232,618	106,906
162,648	-12,288	232,513	106,892
163,662	-12,311	232,307	106,769
164,677	-12,493	232,164	106,552
165,692	-12,454	232,046	106,519
166,706	-12,256	231,912	106,603
167,721	-12,294	231,799	106,511
168,735	-12,075	231,617	106,589
169,750	-12,417	231,383	106,205
170,764	-12,530	231,322	106,079
171,779	-12,380	231,206	106,134
172,794	-12,287	230,972	106,089
173,808	-12,348	230,761	105,936
174,823	-12,608	230,407	105,562
175,837	-13,083	230,310	105,139
176,852	-12,520	230,138	105,488
177,867	-12,467	230,057	105,483
178,881	-12,142	229,912	105,659
179,896	-12,316	229,705	105,419
180,910	-12,357	229,780	105,413
181,925	-12,331	229,350	105,226
182,940	-12,051	229,279	105,400
183,954	-12,135	229,098	105,242
184,969	-12,381	229,272	105,124
185,983	-12,275	229,091	105,112
186,998	-12,132	228,759	105,061
188,013	-12,207	228,692	104,963
189,027	-12,115	228,435	104,906
190,042	-12,348	228,263	104,639
191,056	-12,313	228,095	104,580
192,071	-12,207	227,998	104,608
193,086	-12,410	227,923	104,408
194,100	-12,103	227,694	104,529
195,115	-12,524	227,253	103,995
196,129	-12,725	227,425	103,911
197,144	-7,588	228,981	108,564
198,159	-2,303	230,692	113,452
199,173	1,456	231,584	116,790
200,188	2,149	231,559	117,303
201,202	1,823	231,305	116,912
202,217	1,705	231,275	116,795
203,232	2,161	231,134	117,065
204,246	2,221	230,990	117,028
205,261	2,156	230,924	116,934
206,275	2,410	230,686	116,998
207,290	2,588	230,580	117,071
208,304	2,228	230,540	116,764
209,319	2,359	230,191	116,678
210,334	2,326	230,021	116,555
211,348	2,192	229,663	116,260
212,363	1,827	229,533	115,906
213,377	1,684	229,335	115,685
214,392	1,669	229,225	115,609
215,407	1,827	229,200	115,706
216,421	1,855	229,129	115,681
217,436	1,787	228,896	115,501
218,450	1,660	228,490	115,190
219,465	1,415	228,480	114,988
220,480	1,602	228,298	115,029
221,494	1,543	228,216	114,932
222,509	1,841	228,266	115,173
223,523	2,016	227,977	115,151
224,538	1,673	227,826	114,803
225,553	1,771	227,623	114,765
226,567	1,850	227,397	114,701
227,582	2,025	227,470	114,859
228,596	2,118	227,369	114,869
229,611	2,046	227,061	114,649
230,626	1,536	226,935	114,189
231,640	1,576	226,719	114,101
232,655	1,831	226,714	114,281
233,669	2,118	226,674	114,467
234,684	2,468	226,452	114,608
235,699	2,202	226,352	114,347
236,713	1,937	226,080	114,001
237,728	1,771	225,842	113,745
238,742	1,696	225,743	113,629
239,757	1,887	225,596	113,688
240,772	1,656	225,402	113,407
241,786	1,578	225,238	113,256
242,801	1,922	225,150	113,459
243,815	2,344	225,106	113,743
244,830	2,315	224,899	113,606
245,844	1,932	224,762	113,241
246,859	1,745	224,520	112,969
247,874	2,138	224,466	113,225
248,888	1,927	224,271	112,959
249,903	1,876	224,080	112,816
250,917	1,934	224,041	112,829
251,932	1,900	223,791	112,667
252,947	1,571	223,587	112,310
253,961	1,710	223,353	112,286
254,976	1,494	223,314	112,096
255,990	1,939	223,260	112,389
257,005	2,164	223,103	112,467
258,020	2,039	222,987	112,305
259,034	2,103	222,925	112,311
260,049	2,007	222,691	112,113
261,063	2,011	222,461	111,990
262,078	2,181	222,437	112,093
263,093	2,343	222,319	112,143
264,107	2,096	222,225	111,904
265,122	2,092	222,007	111,781
266,136	2,218	221,898	111,809
267,151	2,424	221,825	111,914
268,166	1,950	221,521	111,402
269,180	1,647	221,275	111,046
270,195	1,539	221,320	110,980
271,209	1,638	221,067	110,916
272,224	1,843	221,028	111,037
273,239	1,881	220,763	110,921
274,253	1,738	220,762	110,806
275,268	1,645	220,392	110,542
276,282	1,530	220,251	110,378
277,297	1,465	220,205	110,297
278,312	1,834	219,883	110,396
279,326	1,743	219,990	110,373
280,341	1,681	219,798	110,222
281,355	1,942	219,579	110,292
282,370	1,932	219,510	110,240
283,384	1,558	219,231	109,818
284,399	1,392	219,102	109,624
285,414	1,511	218,932	109,615
286,428	1,855	219,014	109,896
287,443	2,049	218,989	110,014
288,457	1,949	218,753	109,813
289,472	1,598	218,587	109,466
290,487	1,449	218,276	109,193
291,501	1,548	218,090	109,161
292,516	1,427	217,974	109,007
293,530	1,513	217,937	109,041
294,545	1,604	217,731	108,993
295,560	1,770	217,643	109,059
296,574	1,726	217,560	108,976
297,589	1,862	217,317	108,943
298,603	1,987	217,348	109,038
299,618	1,941	217,131	108,887
300,633	1,981	217,109	108,895
301,647	1,972	216,963	108,805
302,662	2,301	216,821	108,960
303,676	2,305	216,624	108,854
304,691	2,174	216,539	108,708
305,706	1,761	216,408	108,337
306,720	2,153	216,110	108,459
307,735	1,859	216,041	108,204
308,749	1,826	215,787	108,044
309,764	1,670	215,825	107,942
310,779	2,195	215,642	108,214
311,793	1,717	215,542	107,814
312,808	1,837	215,498	107,868
313,822	1,996	215,287	107,866
314,837	1,867	215,119	107,681
315,852	1,569	214,838	107,319
316,866	1,702	214,739	107,354
317,881	2,015	214,622	107,507
318,895	1,939	214,557	107,412
319,910	1,601	214,228	106,999
320,925	1,520	214,070	106,853
321,939	1,391	213,883	106,659
322,954	1,382	213,954	106,678
323,968	2,005	213,821	107,043
324,983	2,268	213,729	107,172
325,997	2,137	213,541	106,976
327,012	2,021	213,466	106,847
328,027	1,967	213,378	106,755
329,041	2,079	213,258	106,765
330,056	2,127	213,000	106,660
331,070	2,108	212,913	106,593
332,085	1,829	212,809	106,336
333,100	2,005	212,554	106,323
334,114	2,151	212,460	106,368
335,129	2,106	212,186	106,190
336,143	1,932	212,159	106,045
337,158	1,937	211,961	105,940
338,173	1,878	212,035	105,927
339,187	1,797	211,697	105,692
340,202	1,626	211,559	105,494
341,216	1,608	211,285	105,336
342,231	1,669	211,208	105,330
343,246	1,342	211,294	105,136
344,260	1,940	211,162	105,477
345,275	2,417	211,001	105,719
346,289	2,353	211,110	105,720
347,304	2,355	210,725	105,519
348,319	2,104	210,574	105,260
349,333	1,815	210,438	104,982
350,348	2,121	210,343	105,137
351,362	2,114	210,279	105,092
352,377	2,155	210,174	105,058
353,392	1,885	209,962	104,755
354,406	2,041	209,942	104,844
355,421	197,383	1316,830	1396,344
356,435	157,811	1451,653	1396,304
