DTS Sentinel unit serial number:	SN410029Multiplexer serial number:	ORYXHardware model number:	OX2-SRSoftware version number:	ORYX F/W v4,00 Oryx Data Collector v3.7.2.0data status	okinstallation	B6 Nyhavnadifferential loss correction	single-endedforward channel	channel 2reverse channel	N/Adate	2023/12/07time	10:25:08forward acquisition time	300,00reverse acquisition time	0,00gamma	499,1914k internal	0,3206k external	0,3206temperature offset calibration	1,0000default loss term (dB/km)	0,3820temperature slope calibration	1,0000multiplexer offset coefficient	1,0000multiplexer slope coefficient	1,0000fibre end	0,00T internal ref (°C)	6,95T ext. ref 1 (°C)	-7,10T ext. ref 2 (°C)	-7,14length (m)	temperature (°C)	Stokes	anti-Stokes-744,400	200,931	0,163	0,183
-743,385	-0,861	-0,446	-0,229
-742,371	559,015	0,158	0,278
-741,356	-33,125	-0,417	-0,167
-740,342	296,688	0,148	0,197
-739,327	-181,330	-0,399	0,006
-738,312	260,523	0,134	0,169
-737,298	-7,631	-0,414	-0,203
-736,283	28,365	0,146	0,090
-735,269	-18,213	-0,366	-0,165
-734,254	83,736	0,088	-0,069
-733,239	9,862	-0,693	-0,381
-732,225	157,291	0,257	0,258
-731,210	-6,769	0,055	0,027
-730,196	-200,000	-0,028	-0,128
-729,181	514,531	-0,088	-0,150
-728,167	800,000	-0,077	0,185
-727,152	-200,000	0,015	-0,109
-726,137	43,461	-0,131	-0,086
-725,123	-61,113	0,113	0,035
-724,108	-77,531	-0,148	-0,037
-723,094	-200,000	0,021	-0,130
-722,079	800,000	-0,016	-0,036
-721,064	323,910	-0,028	-0,039
-720,050	-16,310	-0,068	0,031
-719,035	-200,000	-0,021	-0,160
-718,021	189,971	0,070	-0,077
-717,006	-60,705	0,051	-0,015
-715,991	-140,236	-0,081	0,006
-714,977	-200,000	-0,005	0,018
-713,962	-53,425	0,015	0,005
-712,948	318,336	-0,058	-0,080
-711,933	-45,500	-0,179	-0,064
-710,918	79,868	-0,067	-0,052
-709,904	-35,839	-0,099	-0,039
-708,889	-200,000	0,003	-0,061
-707,875	-200,000	-0,032	-0,258
-706,860	-152,363	-0,024	0,001
-705,845	528,155	-0,052	0,089
-704,831	-26,855	0,030	0,013
-703,816	800,000	0,011	-0,031
-702,802	800,000	-0,040	-0,086
-701,787	-6,472	0,073	0,036
-700,772	35,641	0,041	-0,026
-699,758	-130,980	-0,087	-0,008
-698,743	-83,992	0,200	0,046
-697,729	14,026	-0,053	-0,030
-696,714	402,611	-0,068	0,104
-695,699	87,935	-0,084	0,068
-694,685	152,592	-0,023	0,023
-693,670	461,882	-0,111	-0,179
-692,656	-200,000	0,026	-0,184
-691,641	800,000	0,017	0,037
-690,627	38,514	-0,051	-0,033
-689,612	-169,589	-0,071	0,002
-688,597	-48,689	0,032	0,011
-687,583	13,693	0,074	-0,041
-686,568	-24,500	-0,058	-0,025
-685,554	189,826	-0,073	-0,079
-684,539	800,000	-0,034	-0,075
-683,524	800,000	-0,028	0,079
-682,510	227,800	-0,041	-0,049
-681,495	-28,793	-0,143	-0,059
-680,481	-200,000	-0,026	-0,113
-679,466	22,807	-0,033	-0,020
-678,451	-138,484	-0,087	-0,007
-677,437	-42,248	0,070	0,026
-676,422	32,991	0,073	-0,046
-675,408	3,077	0,015	0,008
-674,393	391,329	-0,064	-0,096
-673,378	111,161	-0,015	-0,013
-672,364	185,509	-0,083	-0,089
-671,349	-113,441	-0,061	0,009
-670,335	352,761	0,110	-0,159
-669,320	443,227	0,027	-0,043
-668,305	-200,000	0,004	0,076
-667,291	416,502	0,024	0,037
-666,276	145,519	0,047	-0,046
-665,262	76,834	-0,062	0,048
-664,247	-167,071	-0,036	0,001
-663,232	127,944	0,060	-0,055
-662,218	800,000	0,060	-0,141
-661,203	35,306	0,076	0,048
-660,189	26,889	-0,073	0,044
-659,174	-48,814	-0,073	0,025
-658,159	800,000	-0,057	0,174
-657,145	154,874	0,078	0,078
-656,130	-200,000	0,004	0,106
-655,116	-91,139	-0,057	0,012
-654,101	-73,653	0,130	-0,034
-653,086	150,607	0,068	-0,067
-652,072	565,906	0,063	0,111
-651,057	34,841	0,078	-0,049
-650,043	49,089	-0,101	0,069
-649,028	607,469	-0,015	0,028
-648,014	364,759	-0,057	-0,084
-646,999	398,744	-0,008	-0,012
-645,984	304,606	-0,064	-0,086
-644,970	389,756	-0,091	-0,136
-643,955	206,770	-0,064	0,072
-642,941	131,250	0,071	0,066
-641,926	122,007	0,031	0,028
-640,911	248,957	-0,092	0,113
-639,897	219,270	-0,029	0,033
-638,882	115,323	-0,147	0,130
-637,868	-200,000	0,008	-0,074
-636,853	-75,147	-0,169	0,043
-635,838	-165,611	0,048	0,001
-634,824	-35,571	-0,015	0,006
-633,809	49,765	0,064	-0,044
-632,795	307,568	-0,010	0,014
-631,780	-98,586	-0,058	0,011
-630,765	54,255	0,063	-0,044
-629,751	53,601	-0,119	-0,082
-628,736	-77,133	-0,138	0,035
-627,722	230,172	0,046	-0,054
-626,707	148,895	-0,023	-0,023
-625,692	181,933	-0,094	0,100
-624,678	-68,723	-0,060	-0,017
-623,663	-67,248	-0,097	0,027
-622,649	-15,917	-0,154	-0,070
-621,634	19,188	-0,103	-0,060
-620,619	-200,000	0,010	-0,036
-619,605	262,798	0,082	-0,103
-618,590	147,888	0,031	0,031
-617,576	26,489	0,071	-0,043
-616,561	441,402	0,056	0,089
-615,546	-200,000	-0,034	-0,112
-614,532	-200,000	0,011	-0,070
-613,517	-200,000	-0,016	-0,084
-612,503	488,255	-0,045	0,075
-611,488	-200,000	-0,001	0,086
-610,474	800,000	0,019	0,054
-609,459	-200,000	-0,005	0,062
-608,444	800,000	-0,027	0,081
-607,430	-30,177	-0,168	-0,069
-606,415	-104,157	0,100	-0,017
-605,401	-87,024	0,031	0,007
-604,386	800,000	-0,012	0,035
-603,371	-55,362	-0,059	-0,019
-602,357	154,139	0,078	-0,077
-601,342	-7,956	0,091	-0,044
-600,328	-200,000	0,030	-0,112
-599,313	-75,170	-0,167	-0,043
-598,298	374,292	-0,045	-0,066
-597,284	800,000	0,048	0,146
-596,269	800,000	-0,053	0,141
-595,255	-200,000	0,031	0,119
-594,240	-200,000	0,005	-0,106
-593,225	-200,000	0,002	-0,154
-592,211	-81,840	-0,148	-0,035
-591,196	-200,000	-0,013	0,113
-590,182	-44,583	0,094	0,034
-589,167	-57,779	0,095	0,030
-588,152	-200,000	-0,017	-0,113
-587,138	-82,139	0,106	-0,025
-586,123	66,418	-0,076	-0,056
-585,109	127,226	-0,071	-0,065
-584,094	800,000	0,034	-0,107
-583,079	129,845	0,052	0,048
-582,065	-174,281	0,106	0,002
-581,050	362,733	0,019	-0,027
-580,036	-107,686	0,017	0,003
-579,021	-200,000	0,015	-0,091
-578,006	-158,929	-0,185	0,007
-576,992	-56,332	-0,088	0,028
-575,977	-120,034	0,065	0,008
-574,963	-98,520	0,077	0,014
-573,948	58,854	0,109	0,077
-572,934	-106,661	-0,110	-0,018
-571,919	-90,448	-0,216	0,045
-570,904	-200,000	-0,002	-0,085
-569,890	119,737	0,112	-0,100
-568,875	213,630	-0,064	0,073
-567,861	-26,748	-0,087	-0,037
-566,846	-65,761	0,167	-0,048
-565,831	335,601	-0,028	0,040
-564,817	-59,486	-0,068	-0,021
-563,802	-41,587	-0,073	0,027
-562,788	-200,000	-0,006	-0,131
-561,773	-69,738	-0,135	-0,037
-560,758	-158,367	0,162	0,007
-559,744	-56,370	-0,121	-0,039
-558,729	-200,000	-0,007	0,085
-557,715	231,452	0,035	0,042
-556,700	-200,000	-0,037	-0,208
-555,685	93,965	-0,022	0,018
-554,671	-200,000	0,001	-0,177
-553,656	4,244	0,110	-0,058
-552,642	18,471	0,051	-0,029
-551,627	800,000	-0,058	0,173
-550,612	83,045	-0,109	-0,086
-549,598	-200,000	0,019	-0,106
-548,583	714,630	0,090	-0,174
-547,569	-175,253	0,045	-0,001
-546,554	-6,108	-0,060	0,030
-545,539	173,548	-0,025	-0,026
-544,525	96,527	0,023	0,019
-543,510	102,902	-0,203	0,171
-542,496	265,338	-0,053	0,067
-541,481	-200,000	0,018	-0,088
-540,466	-75,767	-0,090	-0,023
-539,452	55,559	-0,057	0,040
-538,437	22,386	0,054	0,031
-537,423	-39,780	-0,184	0,069
-536,408	224,363	-0,047	0,055
-535,393	-73,340	0,086	0,023
-534,379	-173,333	0,093	-0,002
-533,364	800,000	-0,024	0,073
-532,350	-200,000	0,011	0,042
-531,335	551,989	-0,044	0,076
-530,321	-200,000	-0,037	0,138
-529,306	-89,902	-0,101	-0,021
-528,291	800,000	0,037	0,115
-527,277	-38,367	-0,104	-0,040
-526,262	-159,429	0,138	-0,005
-525,248	-72,066	0,130	0,034
-524,233	-91,975	0,057	-0,012
-523,218	18,967	0,026	0,015
-522,204	29,189	0,026	-0,016
-521,189	-2,741	-0,071	-0,036
-520,175	278,593	-0,068	-0,087
-519,160	-200,000	0,017	0,140
-518,145	-200,000	0,030	0,118
-517,131	523,074	-0,005	-0,009
-516,116	172,144	0,058	0,060
-515,102	62,949	-0,086	-0,062
-514,087	-29,829	-0,076	0,031
-513,072	-12,309	0,032	-0,015
-512,058	115,457	-0,039	0,034
-511,043	800,000	0,028	-0,057
-510,029	-105,171	0,086	-0,014
-509,014	58,742	-0,025	0,018
-507,999	180,221	-0,056	0,059
-506,985	337,371	-0,018	-0,026
-505,970	-200,000	-0,007	-0,035
-504,956	-164,424	-0,127	0,004
-503,941	67,251	0,018	-0,013
-502,926	-200,000	-0,034	0,192
-501,912	-200,000	-0,007	0,064
-500,897	-108,365	0,069	-0,011
-499,883	56,502	0,086	-0,060
-498,868	203,041	-0,058	0,064
-497,853	58,628	-0,132	-0,093
-496,839	-62,690	0,223	0,066
-495,824	-200,000	0,011	-0,091
-494,810	471,658	0,037	0,060
-493,795	-92,619	-0,142	-0,028
-492,781	-26,461	0,140	-0,059
-491,766	332,363	0,081	-0,113
-490,751	-200,000	-0,004	0,061
-489,737	-200,000	-0,023	0,107
-488,722	15,225	0,094	-0,053
-487,708	752,452	-0,023	0,046
-486,693	56,505	-0,084	0,059
-485,678	-32,930	0,078	-0,031
-484,664	-36,319	-0,076	0,029
-483,649	88,294	0,086	0,068
-482,635	-95,160	0,110	0,021
-481,620	-200,000	0,013	0,072
-480,605	-97,218	0,117	0,022
-479,591	-7,466	-0,040	0,020
-478,576	-200,000	0,004	0,014
-477,562	-200,000	0,006	-0,133
-476,547	-156,840	-0,109	0,005
-475,532	800,000	-0,047	-0,099
-474,518	108,818	-0,017	-0,015
-473,503	514,721	0,043	-0,073
-472,489	800,000	0,016	0,041
-471,474	265,317	0,090	-0,113
-470,459	-25,941	-0,037	0,016
-469,445	-200,000	-0,016	0,056
-468,430	-50,088	0,069	0,023
-467,416	-200,000	-0,015	0,153
-466,401	-77,596	0,101	-0,025
-465,386	100,018	-0,081	0,068
-464,372	-169,986	0,073	-0,002
-463,357	-38,975	-0,039	-0,015
-462,343	641,889	-0,066	-0,122
-461,328	-179,976	0,148	-0,002
-460,313	-108,149	0,048	0,007
-459,299	-55,251	0,074	0,024
-458,284	716,997	0,071	-0,135
-457,270	98,605	-0,064	0,053
-456,255	185,591	0,093	-0,100
-455,241	-61,644	0,060	-0,018
-454,226	800,000	0,073	-0,147
-453,211	-126,329	-0,096	0,010
-452,197	408,241	-0,018	-0,027
-451,182	-103,393	0,070	-0,012
-450,168	-152,190	-0,030	0,002
-449,153	-200,000	0,015	0,098
-448,138	800,000	-0,038	-0,077
-447,124	-110,860	-0,015	-0,002
-446,109	15,808	0,177	0,099
-445,095	61,409	-0,184	0,131
-444,080	-97,768	-0,035	-0,006
-443,065	-200,000	-0,016	0,055
-442,051	-200,000	-0,019	-0,098
-441,036	-200,000	-0,004	-0,109
-440,022	-200,000	-0,004	-0,167
-439,007	298,803	-0,038	-0,050
-437,992	-84,907	0,045	-0,010
-436,978	-59,189	-0,079	-0,024
-435,963	-200,000	-0,001	-0,021
-434,949	-200,000	0,029	0,119
-433,934	211,859	-0,027	0,031
-432,919	-105,329	0,044	-0,007
-431,905	138,110	-0,074	-0,070
-430,890	-200,000	0,014	-0,089
-429,876	86,213	0,130	0,103
-428,861	-200,000	0,016	0,084
-427,846	-40,783	-0,015	0,006
-426,832	-9,119	-0,109	0,052
-425,817	-200,000	-0,046	-0,174
-424,803	69,219	-0,055	-0,041
-423,788	800,000	-0,030	-0,069
-422,773	38,628	0,035	-0,023
-421,759	-86,631	0,054	0,012
-420,744	-200,000	0,019	-0,131
-419,730	800,000	-0,024	-0,074
-418,715	-200,000	0,007	-0,124
-417,701	99,608	0,064	0,053
-416,686	189,645	-0,096	0,103
-415,671	-200,000	0,002	-0,012
-414,657	800,000	-0,009	-0,023
-413,642	660,707	0,045	-0,083
-412,628	800,000	-0,037	-0,088
-411,613	633,752	-0,063	-0,115
-410,598	800,000	0,034	-0,080
-409,584	-67,283	0,097	0,027
-408,569	-61,227	0,056	0,017
-407,555	-200,000	-0,018	-0,093
-406,540	-138,591	0,123	-0,010
-405,525	-35,065	0,078	-0,030
-404,511	800,000	0,002	0,006
-403,496	100,678	0,042	0,035
-402,482	219,031	-0,075	-0,086
-401,467	-200,000	-0,031	0,114
-400,452	-114,925	-0,077	0,010
-399,438	-94,622	-0,165	-0,032
-398,423	22,107	0,091	0,053
-397,409	-101,958	-0,087	-0,015
-396,394	239,732	-0,051	0,061
-395,379	209,624	0,092	0,104
-394,365	257,688	-0,010	-0,012
-393,350	457,717	0,109	0,175
-392,336	163,226	-0,043	0,044
-391,321	-200,000	0,001	-0,025
-390,306	123,757	-0,069	-0,062
-389,292	-200,000	-0,033	-0,106
-388,277	-18,198	0,135	0,060
-387,263	793,733	0,020	0,039
-386,248	501,689	-0,053	-0,088
-385,233	336,868	0,054	0,075
-384,219	-200,000	-0,014	0,052
-383,204	34,232	0,038	-0,024
-382,190	-200,000	-0,008	0,063
-381,175	17,223	-0,050	-0,028
-380,160	-200,000	0,037	0,156
-379,146	-200,000	-0,024	0,089
-378,131	-139,497	0,090	0,007
-377,117	651,100	-0,055	-0,101
-376,102	107,451	-0,060	0,051
-375,088	-101,492	0,079	-0,014
-374,073	-200,000	-0,031	-0,145
-373,058	-200,000	-0,005	0,061
-372,044	-24,797	0,131	0,056
-371,029	-77,037	-0,084	-0,021
-370,015	-76,698	-0,125	-0,031
-369,000	137,795	-0,045	-0,042
-367,985	56,100	-0,031	-0,021
-366,971	-200,000	-0,030	0,128
-365,956	-200,000	0,009	-0,055
-364,942	-200,000	-0,003	0,097
-363,927	-89,825	0,146	0,030
-362,912	-200,000	-0,014	0,071
-361,898	261,152	-0,069	-0,086
-360,883	-200,000	-0,029	0,108
-359,869	-50,135	0,103	-0,035
-358,854	800,000	0,007	-0,014
-357,839	673,309	0,054	0,101
-356,825	463,747	0,036	0,058
-355,810	372,372	-0,057	-0,083
-354,796	57,612	0,029	0,020
-353,781	-85,034	-0,218	0,049
-352,766	259,852	-0,041	-0,050
-351,752	800,000	0,012	0,032
-350,737	-200,000	0,018	0,150
-349,723	594,107	-0,046	-0,082
-348,708	108,435	-0,042	-0,036
-347,693	-200,000	0,002	-0,017
-346,679	616,376	-0,054	-0,098
-345,664	-84,333	0,079	0,018
-344,650	-200,000	0,013	0,069
-343,635	8,094	0,046	0,025
-342,620	800,000	-0,048	0,149
-341,606	-11,904	-0,081	0,038
-340,591	-200,000	0,024	0,108
-339,577	-87,576	0,136	0,029
-338,562	85,938	-0,141	-0,110
-337,548	-139,586	0,093	0,007
-336,533	281,858	-0,026	0,033
-335,518	-200,000	0,006	0,067
-334,504	29,328	0,061	-0,037
-333,489	71,201	0,126	0,093
-332,475	526,895	-0,069	0,116
-331,460	91,327	-0,049	0,039
-330,445	324,760	0,087	0,119
-329,431	-130,632	0,046	-0,004
-328,416	-62,332	0,094	0,028
-327,402	166,266	-0,092	0,094
-326,387	-200,000	-0,006	0,054
-325,372	605,614	-0,056	-0,100
-324,358	-200,000	0,001	-0,057
-323,343	-200,000	0,008	-0,089
-322,329	-200,000	0,002	-0,098
-321,314	249,672	-0,047	0,058
-320,299	339,776	-0,058	0,081
-319,285	-18,254	0,099	0,044
-318,270	-109,832	-0,043	-0,006
-317,256	-89,133	0,116	-0,024
-316,241	-200,000	0,000	-0,084
-315,226	-200,000	0,022	0,157
-314,212	37,749	0,089	0,056
-313,197	453,853	0,100	0,159
-312,183	106,027	0,117	-0,099
-311,168	-179,471	-0,046	0,001
-310,153	249,874	-0,081	-0,099
-309,139	67,759	0,134	0,098
-308,124	-81,957	-0,008	0,002
-307,110	-200,000	0,026	0,087
-306,095	-16,736	0,118	-0,053
-305,080	-56,462	0,036	0,011
-304,066	-200,000	0,029	-0,108
-303,051	-73,069	0,202	0,053
-302,037	-73,541	-0,157	-0,041
-301,022	-82,588	-0,055	-0,013
-300,008	-200,000	0,035	0,110
-298,993	-200,000	0,030	-0,152
-297,978	800,000	0,068	-0,199
-296,964	-81,583	-0,088	0,020
-295,949	28,816	0,056	-0,034
-294,935	68,453	-0,063	-0,046
-293,920	306,052	-0,063	-0,084
-292,905	138,378	0,018	0,017
-291,891	-200,000	-0,051	-0,165
-290,876	395,005	-0,124	-0,185
-289,862	800,000	0,031	0,080
-288,847	188,618	-0,165	-0,177
-287,832	-200,000	0,049	-0,166
-286,818	-87,107	0,086	-0,019
-285,803	-100,310	0,062	0,011
-284,789	609,217	-0,025	0,045
-283,774	800,000	-0,041	0,129
-282,759	577,295	-0,016	-0,028
-281,745	-200,000	-0,013	-0,131
-280,730	177,782	0,093	0,097
-279,716	457,680	0,029	0,047
-278,701	157,214	-0,077	-0,076
-277,686	-200,000	-0,004	-0,065
-276,672	-200,000	-0,016	0,153
-275,657	146,746	0,142	-0,136
-274,643	-34,287	0,020	-0,008
-273,628	66,001	0,119	0,086
-272,613	-200,000	-0,031	-0,098
-271,599	-118,817	-0,099	0,012
-270,584	471,774	0,039	-0,064
-269,570	-113,882	-0,015	-0,002
-268,555	800,000	0,055	-0,132
-267,540	92,595	0,073	-0,059
-266,526	-200,000	0,021	-0,117
-265,511	-200,000	-0,028	-0,093
-264,497	-124,900	0,100	-0,011
-263,482	438,298	0,118	0,184
-262,467	22,530	0,075	0,044
-261,453	-200,000	-0,021	0,124
-260,438	-178,994	0,106	-0,002
-259,424	37,468	0,135	-0,085
-258,409	628,124	0,047	0,085
-257,395	374,782	-0,070	0,102
-256,380	-200,000	-0,009	0,046
-255,365	-55,088	0,097	0,031
-254,351	-200,000	-0,012	0,204
-253,336	-24,168	-0,154	-0,065
-252,322	-200,000	-0,028	0,121
-251,307	514,711	-0,053	0,089
-250,292	38,607	-0,065	-0,041
-249,278	800,000	-0,002	-0,004
-248,263	207,317	0,034	0,038
-247,249	800,000	-0,053	0,133
-246,234	-38,228	-0,021	0,008
-245,219	278,438	0,051	-0,065
-244,205	800,000	0,022	-0,045
-243,190	139,343	-0,037	0,035
-242,176	-80,655	0,110	0,026
-241,161	-90,843	0,011	-0,002
-240,146	-200,000	-0,002	0,110
-239,132	800,000	-0,021	-0,046
-238,117	37,780	0,065	0,041
-237,103	800,000	0,007	-0,018
-236,088	-200,000	-0,009	-0,099
-235,073	800,000	0,024	-0,067
-234,059	-92,405	0,198	-0,039
-233,044	-200,000	-0,014	0,054
-232,030	800,000	0,028	0,058
-231,015	-57,542	-0,020	-0,006
-230,000	-190,804	-0,127	0,001
-228,986	800,000	0,037	-0,091
-227,971	-92,724	-0,040	-0,008
-226,957	800,000	0,085	-0,188
-225,942	729,966	0,038	0,072
-224,927	-60,180	-0,111	-0,034
-223,913	-121,146	0,021	-0,002
-222,898	-200,000	-0,014	-0,071
-221,884	800,000	-0,026	0,081
-220,869	800,000	-0,051	0,159
-219,855	136,928	0,072	0,067
-218,840	800,000	0,002	0,004
-217,825	105,993	-0,090	-0,075
-216,811	-200,000	0,007	-0,089
-215,796	602,551	0,011	-0,020
-214,782	45,444	0,111	0,073
-213,767	-4,590	0,049	-0,024
-212,752	757,851	0,033	0,063
-211,738	170,830	0,048	-0,049
-210,723	-127,584	-0,051	-0,005
-209,709	800,000	0,034	-0,068
-208,694	-41,824	-0,083	-0,030
-207,679	770,998	0,031	-0,060
-206,665	4,022	0,137	0,071
-205,650	689,724	0,058	0,108
-204,636	377,071	0,024	-0,034
-203,621	800,000	-0,045	-0,095
-202,606	33,122	0,122	0,075
-201,592	800,000	-0,009	-0,029
-200,577	-136,648	-0,161	-0,013
-199,563	384,388	-0,053	0,078
-198,548	15,259	0,082	-0,045
-197,533	-200,000	-0,016	0,137
-196,519	424,337	0,049	-0,076
-195,504	104,012	0,085	-0,071
-194,490	-132,343	-0,080	0,007
-193,475	-119,269	-0,100	-0,012
-192,460	188,957	0,051	0,054
-191,446	800,000	-0,029	-0,083
-190,431	22,753	-0,047	-0,027
-189,417	-175,483	0,071	-0,001
-188,402	239,150	-0,052	-0,061
-187,387	-200,000	0,038	0,156
-186,373	-29,327	-0,051	-0,021
-185,358	800,000	-0,028	-0,064
-184,344	529,704	0,021	0,036
-183,329	-200,000	-0,002	-0,009
-182,315	-66,517	-0,072	-0,020
-181,300	56,340	-0,025	-0,018
-180,285	800,000	0,031	-0,065
-179,271	-3,931	-0,101	-0,050
-178,256	225,498	-0,115	0,132
-177,242	-200,000	0,009	0,068
-176,227	42,539	0,103	0,066
-175,212	-200,000	0,013	0,127
-174,198	586,921	0,039	-0,068
-173,183	-56,069	-0,121	-0,038
-172,169	50,308	0,115	0,077
-171,154	800,000	-0,048	-0,126
-170,139	-91,734	0,186	-0,037
-169,125	185,974	0,040	0,042
-168,110	389,177	0,056	-0,083
-167,096	-150,571	-0,017	-0,001
-166,081	144,053	-0,016	0,015
-165,066	800,000	0,026	0,059
-164,052	-200,000	-0,015	0,120
-163,037	-128,328	-0,078	-0,008
-162,023	253,533	0,072	0,088
-161,008	320,288	-0,067	0,090
-159,993	-14,459	0,118	0,054
-158,979	-79,154	-0,176	0,042
-157,964	688,263	0,016	-0,029
-156,950	-45,572	0,041	0,014
-155,935	-27,622	-0,103	-0,042
-154,920	35,694	-0,032	0,020
-153,906	115,681	0,138	0,120
-152,891	-54,878	-0,123	0,039
-151,877	-149,946	0,036	0,002
-150,862	800,000	-0,025	-0,059
-149,847	82,035	0,034	0,026
-148,833	-200,000	0,003	-0,048
-147,818	-14,753	0,201	0,091
-146,804	-78,252	0,121	-0,029
-145,789	229,064	0,074	0,086
-144,775	-200,000	-0,010	0,067
-143,760	-200,000	-0,005	-0,069
-142,745	182,674	-0,072	-0,076
-141,731	-71,030	0,018	0,005
-140,716	-200,000	-0,011	-0,080
-139,702	-145,646	-0,080	0,005
-138,687	61,011	0,117	0,082
-137,672	142,596	-0,082	0,077
-136,658	640,269	0,037	-0,066
-135,643	-153,977	0,043	-0,002
-134,629	272,944	-0,041	-0,052
-133,614	800,000	-0,013	-0,028
-132,599	400,156	0,057	0,085
-131,585	774,544	0,040	0,077
-130,570	800,000	-0,043	0,093
-129,556	-10,394	-0,078	0,036
-128,541	-200,000	-0,005	-0,021
-127,526	140,991	0,085	0,080
-126,512	41,794	-0,088	-0,057
-125,497	-47,639	-0,046	0,016
-124,483	54,035	0,054	0,037
-123,468	-200,000	-0,004	-0,060
-122,453	800,000	-0,063	-0,129
-121,439	497,774	-0,067	-0,110
-120,424	800,000	-0,044	-0,103
-119,410	-200,000	-0,018	0,174
-118,395	-200,000	0,032	-0,108
-117,380	227,263	-0,053	-0,061
-116,366	33,688	0,187	-0,115
-115,351	97,384	0,057	0,046
-114,337	309,063	-0,050	0,067
-113,322	-11,867	-0,116	-0,054
-112,307	-159,305	0,090	-0,004
-111,293	-110,628	-0,118	0,017
-110,278	-200,000	0,017	0,095
-109,264	539,428	-0,022	0,037
-108,249	267,679	-0,041	-0,051
-107,234	25,855	-0,065	0,038
-106,220	-59,841	-0,050	-0,015
-105,205	-99,686	0,009	-0,002
-104,191	-185,963	0,121	-0,001
-103,176	75,405	0,023	0,017
-102,162	315,011	-0,063	0,085
-101,147	87,193	-0,044	0,034
-100,132	140,686	-0,030	0,028
-99,118	465,785	0,041	0,065
-98,103	0,250	0,133	0,067
-97,089	-43,405	-0,093	0,033
-96,074	-114,447	0,090	-0,012
-95,059	-200,000	-0,009	0,077
-94,045	-200,000	0,002	-0,028
-93,030	86,309	-0,077	0,060
-92,016	201,087	0,036	-0,039
-91,001	16,726	0,150	0,084
-89,986	-27,837	-0,100	-0,041
-88,972	-41,633	0,069	-0,025
-87,957	195,265	0,102	-0,109
-86,943	-36,460	-0,035	0,013
-85,928	340,110	-0,016	0,022
-84,913	-200,000	-0,021	-0,069
-83,899	365,409	-0,089	-0,127
-82,884	-200,000	0,002	-0,038
-81,870	800,000	-0,069	-0,169
-80,855	-200,000	0,006	0,105
-79,840	800,000	-0,025	0,070
-78,826	164,183	-0,077	-0,077
-77,811	-200,000	0,015	-0,082
-76,797	-37,083	-0,131	-0,049
-75,782	295,523	0,036	0,047
-74,767	-200,000	0,021	0,113
-73,753	-97,311	-0,094	0,017
-72,738	-2,369	0,059	-0,029
-71,724	-50,067	-0,126	-0,042
-70,709	-200,000	0,005	-0,063
-69,694	-200,000	-0,008	-0,120
-68,680	-63,239	0,082	-0,024
-67,665	-200,000	0,004	-0,035
-66,651	-200,000	0,006	0,049
-65,636	-182,141	0,053	-0,001
-64,622	-200,000	0,006	-0,106
-63,607	-60,610	0,018	-0,005
-62,592	12,329	-0,135	0,073
-61,578	-92,664	-0,034	0,007
-60,563	-200,000	0,009	-0,066
-59,549	800,000	-0,015	0,041
-58,534	134,468	-2,790	-2,559
-57,519	-60,979	0,760	0,226
-56,505	800,000	-1,903	-5,679
-55,490	391,608	1,244	1,832
-54,476	800,000	5,552	11,951
-53,461	-200,000	23,669	357,877
-52,446	800,000	769,775	2265,244
-51,432	502,452	1646,484	2699,354
-50,417	63,523	1646,117	1166,081
-49,403	13,607	1564,808	856,293
-48,388	8,569	1518,149	805,262
-47,373	18,879	1513,330	854,493
-46,359	12,047	1501,017	813,504
-45,344	7,168	1497,235	787,072
-44,330	7,081	1495,225	785,549
-43,315	6,978	1493,670	784,190
-42,300	6,987	1491,763	783,199
-41,286	6,961	1490,095	782,166
-40,271	6,971	1488,776	781,492
-39,257	7,001	1487,108	780,732
-38,242	7,008	1485,814	780,059
-37,227	6,998	1484,698	779,391
-36,213	6,958	1483,315	778,439
-35,198	6,986	1481,970	777,839
-34,184	7,001	1480,724	777,227
-33,169	6,954	1479,062	776,095
-32,154	7,018	1477,473	775,545
-31,140	6,970	1476,409	774,719
-30,125	7,056	1474,823	774,277
-29,111	6,987	1473,848	773,396
-28,096	6,970	1472,811	772,736
-27,082	6,981	1471,872	772,269
-26,067	6,934	1470,730	771,407
-25,052	6,993	1469,394	770,967
-24,038	6,935	1468,343	770,102
-23,023	6,975	1467,539	769,844
-22,009	6,985	1466,524	769,331
-20,994	6,992	1465,454	768,773
-19,979	6,963	1464,317	768,002
-18,965	6,929	1463,539	767,399
-17,950	6,972	1462,301	766,928
-16,936	6,973	1461,375	766,419
-15,921	6,907	1460,285	765,493
-14,906	6,897	1459,351	764,925
-13,892	6,921	1458,203	764,409
-12,877	6,875	1457,625	763,853
-11,863	6,832	1456,460	763,005
-10,848	6,854	1455,604	762,631
-9,833	6,957	1454,533	762,540
-8,819	6,954	1453,690	762,053
-7,804	6,905	1452,538	761,180
-6,790	6,896	1451,903	760,773
-5,775	6,897	1450,987	760,271
-4,760	6,879	1450,140	759,709
-3,746	6,863	1448,816	758,910
-2,731	6,750	1447,720	757,758
-1,717	6,704	1446,958	757,106
-0,702	6,737	1445,976	756,721
0,313	6,531	1444,874	756,295
1,327	10,023	1441,593	771,299
2,342	18,537	1197,818	674,650
3,356	13,772	668,527	365,954
4,371	-13,531	454,634	207,237
5,386	-16,528	427,865	190,687
6,400	-17,504	419,308	185,474
7,415	-16,756	415,940	185,019
8,429	-18,009	413,232	182,050
9,444	-18,022	412,006	181,475
10,459	-17,948	410,748	181,006
11,473	-18,097	410,019	180,463
12,488	-18,247	409,216	179,887
13,502	-18,397	408,330	179,274
14,517	-18,436	407,428	178,808
15,531	-18,390	406,795	178,579
16,546	-18,363	406,020	178,260
17,561	-18,466	405,665	177,946
18,575	-18,420	405,127	177,757
19,590	-18,485	404,640	177,440
20,604	-18,373	404,252	177,405
21,619	-18,506	403,461	176,861
22,634	-18,393	402,815	176,716
23,648	-18,512	402,479	176,391
24,663	-18,473	402,042	176,237
25,677	-18,498	401,691	176,033
26,692	-18,541	401,376	175,822
27,707	-18,388	400,876	175,794
28,721	-18,489	400,521	175,487
29,736	-18,486	399,895	175,200
30,750	-18,495	399,605	175,045
31,765	-18,380	399,098	174,962
32,780	-18,543	398,747	174,574
33,794	-18,460	398,471	174,549
34,809	-18,514	398,049	174,277
35,823	-18,459	397,645	174,158
36,838	-18,536	397,146	173,821
37,853	-18,524	396,870	173,701
38,867	-18,423	396,522	173,667
39,882	-18,414	396,124	173,490
40,896	-18,538	395,832	173,182
41,911	-18,312	395,281	173,226
42,926	-18,423	394,986	172,933
43,940	-18,498	394,530	172,618
44,955	-18,562	394,249	172,395
45,969	-18,449	393,895	172,375
46,984	-18,527	393,564	172,111
47,999	-18,384	393,304	172,172
49,013	-18,536	392,960	171,804
50,028	-18,318	392,689	171,958
51,042	-18,456	392,373	171,622
52,057	-18,344	391,882	171,541
53,071	-18,352	391,653	171,414
54,086	-18,421	391,306	171,156
55,101	-18,374	390,912	171,030
56,115	-18,312	390,562	170,944
57,130	-18,371	390,347	170,756
58,144	-18,263	389,797	170,643
59,159	-18,257	389,443	170,480
60,174	-18,414	389,121	170,119
61,188	-18,291	388,653	170,060
62,203	-18,387	388,580	169,888
63,217	-18,282	388,002	169,756
64,232	-18,426	387,847	169,486
65,247	-18,308	387,490	169,468
66,261	-18,363	386,877	169,113
67,276	-18,468	386,733	168,898
68,290	-18,238	386,174	168,938
69,305	-18,226	386,112	168,911
70,320	-18,318	385,719	168,605
71,334	-18,234	385,569	168,633
72,349	-18,324	385,005	168,256
73,363	-18,375	384,780	168,076
74,378	-18,453	384,398	167,794
75,393	-18,208	383,945	167,896
76,407	-18,347	383,744	167,615
77,422	-18,202	383,304	167,595
78,436	-18,326	382,917	167,251
79,451	-18,286	382,664	167,177
80,466	-18,245	382,219	167,020
81,480	-18,395	382,010	166,722
82,495	-18,330	381,658	166,636
83,509	-18,412	381,370	166,391
84,524	-18,351	381,210	166,384
85,539	-18,286	380,716	166,237
86,553	-18,346	380,516	166,058
87,568	-18,220	380,110	166,026
88,582	-18,310	379,608	165,677
89,597	-18,442	379,615	165,498
90,611	-18,337	379,190	165,432
91,626	-18,268	378,929	165,390
92,641	-18,230	378,575	165,270
93,655	-18,352	378,386	165,018
94,670	-18,487	378,112	164,713
95,684	-18,312	377,654	164,719
96,699	-18,263	377,419	164,665
97,714	-18,218	377,122	164,577
98,728	-18,323	376,814	164,295
99,743	-18,215	376,498	164,280
100,757	-18,203	376,053	164,085
101,772	-18,202	375,891	164,002
102,787	-18,117	375,476	163,913
103,801	-18,161	375,345	163,785
104,816	-18,255	375,071	163,533
105,830	-18,243	374,825	163,426
106,845	-18,196	374,481	163,321
107,860	-18,173	374,020	163,134
108,874	-18,254	373,794	162,920
109,889	-18,179	373,552	162,893
110,903	-18,260	373,311	162,672
111,918	-18,109	372,958	162,693
112,933	-18,161	372,611	162,463
113,947	-18,166	372,457	162,374
114,962	-18,209	372,023	162,117
115,976	-18,317	371,747	161,847
116,991	-18,211	371,521	161,866
118,006	-18,291	371,288	161,651
119,020	-18,347	371,006	161,444
120,035	-18,251	370,722	161,426
121,049	-18,236	370,620	161,386
122,064	-18,076	370,086	161,336
123,079	-18,158	369,844	161,115
124,093	-18,227	369,692	160,949
125,108	-18,211	369,345	160,803
126,122	-18,294	369,042	160,555
127,137	-18,276	368,578	160,361
128,151	-18,086	368,450	160,525
129,166	-18,031	368,130	160,439
130,181	-18,192	367,754	160,064
131,195	-18,261	367,572	159,885
132,210	-18,234	367,266	159,770
133,224	-18,136	366,838	159,691
134,239	-18,134	366,745	159,638
135,254	-18,203	366,385	159,383
136,268	-18,072	366,140	159,423
137,283	-18,026	365,893	159,357
138,297	-18,193	365,453	158,947
139,312	-18,167	365,140	158,828
140,327	-18,155	364,970	158,755
141,341	-18,177	364,612	158,558
142,356	-18,078	364,332	158,543
143,370	-18,115	364,048	158,360
144,385	-18,050	363,714	158,280
145,400	-18,195	363,453	157,976
146,414	-18,215	363,227	157,839
147,429	-18,221	362,936	157,692
148,443	-18,066	362,709	157,766
149,458	-18,204	362,337	157,424
150,473	-18,101	362,217	157,481
151,487	-18,118	361,950	157,332
152,502	-18,113	361,742	157,233
153,516	-18,045	361,292	157,105
154,531	-18,154	361,087	156,870
155,546	-18,050	360,680	156,805
156,560	-17,990	360,589	156,824
157,575	-18,102	360,337	156,565
158,589	-17,986	359,940	156,518
159,604	-18,059	359,810	156,360
160,619	-18,037	359,417	156,202
161,633	-18,074	359,144	156,026
162,648	-18,121	359,028	155,905
163,662	-17,954	358,663	155,931
164,677	-18,118	358,575	155,683
165,692	-18,043	358,280	155,631
166,706	-18,127	357,958	155,377
167,721	-18,140	357,679	155,227
168,735	-18,109	357,577	155,206
169,750	-17,929	357,235	155,258
170,764	-18,098	357,073	154,973
171,779	-17,961	356,736	154,975
172,794	-17,927	356,592	154,938
173,808	-17,985	356,299	154,728
174,823	-18,083	356,122	154,522
175,837	-18,045	355,696	154,368
176,852	-17,971	355,685	154,437
177,867	-17,998	355,391	154,265
178,881	-18,058	355,119	154,061
179,896	-18,076	354,795	153,886
180,910	-18,122	354,602	153,734
181,925	-18,064	354,339	153,675
182,940	-18,034	354,080	153,584
183,954	-17,992	353,744	153,474
184,969	-18,102	353,749	153,334
185,983	-18,034	353,470	153,278
186,998	-17,844	353,068	153,313
188,013	-17,936	352,825	153,086
189,027	-18,045	352,665	152,876
190,042	-18,158	352,366	152,600
191,056	-17,908	352,069	152,751
192,071	-17,933	351,987	152,672
193,086	-18,094	351,595	152,301
194,100	-17,881	351,222	152,373
195,115	-18,056	351,018	152,068
196,129	-17,365	351,140	152,913
197,144	-14,347	352,627	157,081
198,159	-9,135	355,468	164,478
199,173	-4,666	357,198	170,548
200,188	-3,791	357,350	171,639
201,202	-3,726	357,176	171,617
202,217	-3,364	357,000	171,943
203,232	-3,332	357,000	171,966
204,246	-3,207	356,590	171,900
205,261	-2,997	356,554	172,114
206,275	-2,736	356,144	172,208
207,290	-3,062	356,067	171,772
208,304	-2,878	355,839	171,864
209,319	-2,831	355,626	171,800
210,334	-2,883	355,315	171,573
211,348	-2,835	355,122	171,521
212,363	-2,695	354,852	171,540
213,377	-2,681	354,644	171,441
214,392	-2,574	354,428	171,446
215,407	-2,646	354,363	171,314
216,421	-2,641	353,905	171,084
217,436	-2,699	353,807	170,954
218,450	-2,614	353,359	170,821
219,465	-2,714	353,376	170,697
220,480	-2,687	353,186	170,622
221,494	-2,621	352,854	170,523
222,509	-2,672	352,686	170,367
223,523	-2,611	352,434	170,302
224,538	-2,667	352,189	170,103
225,553	-2,525	351,954	170,139
226,567	-2,770	351,803	169,766
227,582	-2,693	351,596	169,740
228,596	-2,685	351,485	169,681
229,611	-2,536	351,044	169,625
230,626	-2,590	350,714	169,388
231,640	-2,724	350,526	169,128
232,655	-2,648	350,296	169,090
233,669	-2,645	350,037	168,953
234,684	-2,571	349,817	168,917
235,699	-2,627	349,698	168,780
236,713	-2,535	349,435	168,743
237,728	-2,704	349,261	168,451
238,742	-2,542	348,951	168,472
239,757	-2,634	348,653	168,207
240,772	-2,646	348,401	168,057
241,786	-2,602	348,288	168,038
242,801	-2,462	347,961	168,025
243,815	-2,716	347,990	167,734
244,830	-2,603	347,490	167,607
245,844	-2,518	347,499	167,693
246,859	-2,656	347,080	167,319
247,874	-2,480	346,783	167,361
248,888	-2,558	346,550	167,145
249,903	-2,653	346,487	166,991
250,917	-2,600	346,173	166,885
251,932	-2,500	346,030	166,916
252,947	-2,516	345,757	166,751
253,961	-2,543	345,638	166,647
254,976	-2,588	345,351	166,444
255,990	-2,545	345,072	166,343
257,005	-2,591	344,814	166,151
258,020	-2,515	344,672	166,156
259,034	-2,602	344,573	165,994
260,049	-2,505	344,253	165,934
261,063	-2,521	344,003	165,781
262,078	-2,597	343,764	165,566
263,093	-2,474	343,532	165,577
264,107	-2,520	343,381	165,438
265,122	-2,529	343,237	165,344
266,136	-2,527	342,901	165,169
267,151	-2,550	342,651	165,009
268,166	-2,416	342,315	164,983
269,180	-2,476	342,196	164,843
270,195	-2,523	342,012	164,687
271,209	-2,544	341,760	164,528
272,224	-2,444	341,644	164,569
273,239	-2,409	341,411	164,481
274,253	-2,497	341,160	164,248
275,268	-2,520	340,833	164,049
276,282	-2,444	340,675	164,043
277,297	-2,580	340,362	163,727
278,312	-2,453	340,275	163,811
279,326	-2,373	340,095	163,800
280,341	-2,410	339,796	163,600
281,355	-2,381	339,658	163,550
282,370	-2,407	339,286	163,329
283,384	-2,464	339,126	163,173
284,399	-2,404	338,898	163,116
285,414	-2,454	338,730	162,965
286,428	-2,380	338,507	162,925
287,443	-2,249	338,313	162,962
288,457	-2,215	337,939	162,806
289,472	-2,404	337,879	162,553
290,487	-2,414	337,667	162,426
291,501	-2,317	337,511	162,444
292,516	-2,327	337,227	162,281
293,530	-2,325	336,966	162,143
294,545	-2,292	336,768	162,070
295,560	-2,315	336,643	161,970
296,574	-2,240	336,377	161,910
297,589	-2,363	336,293	161,720
298,603	-2,315	335,856	161,548
299,618	-2,300	335,628	161,440
300,633	-2,249	335,504	161,422
301,647	-2,223	335,354	161,364
302,662	-2,307	335,138	161,154
303,676	-2,177	334,716	161,078
304,691	-2,350	334,569	160,805
305,706	-2,358	334,428	160,713
306,720	-2,267	334,202	160,690
307,735	-2,257	333,993	160,586
308,749	-2,238	333,749	160,475
309,764	-2,214	333,609	160,420
310,779	-2,103	333,254	160,356
311,793	-2,107	333,126	160,276
312,808	-2,256	332,977	160,027
313,822	-2,096	332,729	160,068
314,837	-2,166	332,567	159,899
315,852	-2,171	332,356	159,778
316,866	-1,970	332,038	159,829
317,881	-1,957	331,942	159,783
318,895	-2,043	331,839	159,626
319,910	-2,142	331,497	159,340
320,925	-1,983	331,302	159,404
321,939	-2,141	331,028	159,087
322,954	-1,979	330,673	159,077
323,968	-2,224	330,717	158,820
324,983	-1,982	330,515	158,970
325,997	-1,930	330,265	158,891
327,012	-1,967	330,045	158,732
328,027	-2,010	329,621	158,467
329,041	-2,066	329,521	158,345
330,056	-1,985	329,305	158,314
331,070	-1,962	329,258	158,302
332,085	-1,891	329,085	158,281
333,100	-1,850	328,761	158,154
334,114	-1,864	328,572	158,034
335,129	-1,687	328,415	158,135
336,143	-1,861	328,043	157,755
337,158	-2,050	327,887	157,464
338,173	-1,854	327,602	157,523
339,187	-1,775	327,425	157,508
340,202	-1,954	327,280	157,233
341,216	-1,861	327,084	157,224
342,231	-1,941	326,880	157,027
343,246	-2,003	326,736	156,877
344,260	-1,871	326,377	156,831
345,275	-2,128	326,248	156,482
346,289	-1,923	325,839	156,490
347,304	-1,949	325,727	156,394
348,319	-2,016	325,774	156,332
349,333	-1,696	325,405	156,480
350,348	-1,915	325,202	156,137
351,362	-1,958	324,928	155,946
352,377	-1,829	324,789	156,002
353,392	-1,676	324,564	156,042
354,406	-1,765	324,319	155,815
355,421	195,493	1321,860	1377,310
356,435	159,783	1443,164	1377,103
