DTS Sentinel unit serial number:	SN410029Multiplexer serial number:	ORYXHardware model number:	OX2-SRSoftware version number:	ORYX F/W v4,00 Oryx Data Collector v3.7.2.0data status	okinstallation	B6 Nyhavnadifferential loss correction	single-endedforward channel	channel 2reverse channel	N/Adate	2023/12/10time	11:10:08forward acquisition time	300,00reverse acquisition time	0,00gamma	499,1914k internal	0,3123k external	0,3123temperature offset calibration	1,0000default loss term (dB/km)	0,3820temperature slope calibration	1,0000multiplexer offset coefficient	1,0000multiplexer slope coefficient	1,0000fibre end	0,00T internal ref (°C)	22,62T ext. ref 1 (°C)	6,52T ext. ref 2 (°C)	6,52length (m)	temperature (°C)	Stokes	anti-Stokes-744,400	-19,787	-0,061	0,028
-743,385	23,645	-0,244	0,150
-742,371	270,775	0,123	-0,162
-741,356	-84,547	-0,230	0,054
-740,342	331,802	0,011	0,016
-739,327	51,738	-0,182	0,129
-738,312	-103,144	-0,066	0,011
-737,298	65,965	-0,085	-0,064
-736,283	4,897	0,116	-0,064
-735,269	-145,153	-0,165	-0,011
-734,254	642,450	0,059	-0,113
-733,239	-134,147	-0,383	0,035
-732,225	-33,960	0,056	0,023
-731,210	-200,000	-0,000	0,027
-730,196	-161,321	-0,018	0,001
-729,181	93,990	-0,092	0,078
-728,167	50,402	-0,031	0,022
-727,152	401,787	-0,064	0,100
-726,137	68,162	-0,041	-0,031
-725,123	-200,000	0,013	-0,106
-724,108	445,586	-0,045	0,074
-723,094	800,000	-0,038	-0,090
-722,079	437,104	0,031	-0,050
-721,064	36,719	0,069	0,045
-720,050	800,000	-0,056	-0,154
-719,035	110,108	-0,106	-0,095
-718,021	36,290	0,048	-0,031
-717,006	-99,706	-0,117	-0,022
-715,991	202,414	-0,031	0,036
-714,977	800,000	0,062	-0,191
-713,962	-200,000	-0,008	-0,036
-712,948	800,000	-0,051	-0,106
-711,933	-76,010	0,109	-0,028
-710,918	-200,000	-0,022	0,128
-709,904	419,711	0,031	-0,050
-708,889	576,140	-0,101	-0,184
-707,875	-127,434	-0,126	0,013
-706,860	-200,000	-0,010	-0,050
-705,845	274,143	-0,062	-0,081
-704,831	800,000	0,073	0,160
-703,816	-9,492	0,093	-0,046
-702,802	800,000	-0,030	-0,082
-701,787	586,811	-0,051	0,094
-700,772	-200,000	-0,014	0,054
-699,758	532,659	-0,063	0,111
-698,743	86,857	0,054	0,045
-697,729	800,000	0,026	0,060
-696,714	-66,635	0,076	0,022
-695,699	559,413	0,027	-0,049
-694,685	-200,000	0,005	-0,021
-693,670	-21,779	0,085	0,038
-692,656	-160,244	-0,056	0,002
-691,641	90,958	0,064	0,054
-690,627	-101,775	0,161	-0,029
-689,612	-166,638	-0,184	-0,006
-688,597	33,981	0,086	-0,055
-687,583	218,272	-0,075	-0,089
-686,568	192,190	0,067	0,075
-685,554	-159,423	0,039	-0,002
-684,539	-200,000	-0,002	0,099
-683,524	109,222	0,017	0,015
-682,510	-200,000	0,006	0,040
-681,495	133,609	-0,072	-0,070
-680,481	-200,000	-0,011	-0,048
-679,466	125,507	-0,108	-0,101
-678,451	22,480	-0,105	-0,064
-677,437	-53,100	0,135	-0,046
-676,422	769,048	0,016	0,033
-675,408	-61,710	0,180	0,056
-674,393	632,573	-0,027	0,051
-673,378	800,000	-0,021	0,068
-672,364	124,007	-0,016	0,015
-671,349	-144,212	-0,132	0,009
-670,335	30,333	0,038	0,024
-669,320	273,706	-0,062	0,082
-668,305	261,218	0,116	0,150
-667,291	71,733	-0,168	0,129
-666,276	-172,847	0,031	0,001
-665,262	-200,000	0,028	-0,137
-664,247	800,000	0,021	-0,055
-663,232	800,000	-0,029	-0,074
-662,218	-74,273	-0,186	0,050
-661,203	-133,564	-0,050	-0,005
-660,189	61,521	-0,049	0,036
-659,174	-200,000	-0,002	0,129
-658,159	-95,122	0,039	0,008
-657,145	-67,637	-0,114	-0,033
-656,130	-73,451	-0,120	-0,032
-655,116	379,087	-0,104	-0,158
-654,101	-118,507	0,042	-0,005
-653,086	385,289	-0,042	-0,065
-652,072	-10,949	-0,025	-0,012
-651,057	800,000	0,021	-0,063
-650,043	-200,000	-0,001	-0,080
-649,028	-200,000	-0,006	0,034
-648,014	-153,298	0,009	0,000
-646,999	37,047	0,058	-0,038
-645,984	-200,000	-0,003	0,051
-644,970	-200,000	0,009	-0,137
-643,955	-143,802	-0,154	0,011
-642,941	226,022	0,051	-0,061
-641,926	185,672	-0,080	-0,088
-640,911	-200,000	0,012	0,041
-639,897	109,401	-0,067	-0,060
-638,882	-44,290	-0,030	0,011
-637,868	-46,756	-0,108	0,039
-636,853	193,111	-0,054	-0,061
-635,838	800,000	0,040	-0,094
-634,824	-200,000	0,004	-0,030
-633,809	67,926	0,039	-0,029
-632,795	-128,647	0,055	0,006
-631,780	19,441	0,144	0,086
-630,765	520,740	0,037	-0,066
-629,751	-122,658	-0,083	-0,010
-628,736	-200,000	-0,029	-0,169
-627,722	144,656	-0,080	0,080
-626,707	-117,415	0,037	0,005
-625,692	78,126	0,130	0,103
-624,678	122,531	0,064	0,060
-623,663	-119,854	-0,197	-0,025
-622,649	-200,000	-0,030	-0,124
-621,634	800,000	0,063	-0,141
-620,619	-200,000	0,037	-0,161
-619,605	-175,112	-0,110	0,002
-618,590	-101,898	0,099	0,018
-617,576	310,941	-0,025	-0,035
-616,561	-108,157	-0,072	0,011
-615,546	34,152	-0,068	0,044
-614,532	800,000	-0,030	0,077
-613,517	-8,112	-0,174	0,086
-612,503	-25,808	0,033	-0,014
-611,488	-200,000	0,037	0,145
-610,474	-127,912	-0,052	0,005
-609,459	-200,000	0,005	-0,061
-608,444	429,734	-0,074	0,120
-607,430	31,055	0,042	-0,027
-606,415	75,925	-0,206	-0,161
-605,401	95,345	-0,132	0,112
-604,386	798,150	0,071	0,147
-603,371	800,000	0,010	-0,022
-602,357	144,804	-0,079	-0,078
-601,342	24,561	-0,061	0,038
-600,328	-51,892	-0,117	-0,040
-599,313	800,000	0,029	-0,092
-598,298	-200,000	0,011	-0,089
-597,284	94,742	0,061	0,051
-596,269	-200,000	-0,005	0,018
-595,255	-71,898	0,111	-0,030
-594,240	-200,000	-0,006	-0,024
-593,225	-64,615	0,088	0,026
-592,211	328,120	0,029	-0,042
-591,196	-155,257	0,124	0,006
-590,182	296,640	-0,011	-0,015
-589,167	56,831	0,077	-0,055
-588,152	55,419	-0,085	0,061
-587,138	360,035	0,013	-0,019
-586,123	1,133	-0,131	0,069
-585,109	-21,574	-0,073	-0,033
-584,094	-62,503	0,047	0,015
-583,079	116,800	0,036	-0,033
-582,065	119,836	-0,025	-0,023
-581,050	-200,000	-0,053	-0,175
-580,036	62,996	-0,023	-0,017
-579,021	-5,273	-0,035	-0,018
-578,006	390,252	0,034	-0,052
-576,992	361,574	0,067	0,100
-575,977	-200,000	-0,003	-0,041
-574,963	-52,319	0,162	0,055
-573,948	28,869	0,063	-0,039
-572,934	63,342	-0,033	0,024
-571,919	-200,000	0,002	0,015
-570,904	189,544	-0,075	0,083
-569,890	147,960	-0,072	0,072
-568,875	-200,000	0,014	-0,059
-567,861	-16,300	-0,121	0,057
-566,846	154,898	0,069	0,070
-565,831	623,082	0,038	-0,071
-564,817	-77,585	-0,203	0,052
-563,802	-200,000	0,023	0,095
-562,788	265,708	0,073	-0,094
-561,773	-8,816	-0,032	0,016
-560,758	14,240	-0,078	0,045
-559,744	64,992	0,023	-0,017
-558,729	49,546	0,016	-0,011
-557,715	-48,041	-0,010	0,003
-556,700	-200,000	-0,022	0,077
-555,685	800,000	0,019	-0,051
-554,671	189,809	0,036	0,040
-553,656	-200,000	0,013	-0,099
-552,642	551,673	0,030	0,054
-551,627	62,902	-0,190	-0,141
-550,612	800,000	-0,030	0,083
-549,598	489,509	-0,044	0,074
-548,583	243,684	-0,089	-0,111
-547,569	-135,533	0,072	-0,006
-546,554	-200,000	0,001	0,034
-545,539	-24,390	0,037	-0,016
-544,525	498,677	-0,066	0,113
-543,510	-24,257	-0,104	0,046
-542,496	-200,000	0,026	0,094
-541,481	-88,701	0,053	-0,012
-540,466	216,679	-0,074	0,088
-539,452	-200,000	-0,012	0,153
-538,437	313,285	-0,043	0,060
-537,423	154,621	0,073	0,074
-536,408	44,561	-0,142	0,097
-535,393	55,972	0,068	0,049
-534,379	-60,749	-0,045	-0,014
-533,364	233,360	-0,036	-0,044
-532,350	102,866	0,088	-0,076
-531,335	-18,957	-0,145	-0,066
-530,321	-200,000	0,037	-0,205
-529,306	673,339	0,076	-0,146
-528,291	41,622	-0,103	-0,069
-527,277	-200,000	-0,023	-0,079
-526,262	-130,179	-0,035	-0,004
-525,248	800,000	0,040	0,127
-524,233	800,000	0,027	0,055
-523,218	503,304	-0,106	-0,182
-522,204	46,765	-0,138	-0,094
-521,189	800,000	0,060	-0,131
-520,175	-33,158	-0,147	-0,060
-519,160	-200,000	0,007	0,064
-518,145	-3,911	0,165	-0,084
-517,131	466,108	-0,044	-0,073
-516,116	-200,000	-0,012	0,114
-515,102	-200,000	0,014	0,060
-514,087	-200,000	0,013	-0,067
-513,072	-139,745	0,053	-0,004
-512,058	-36,253	0,100	-0,039
-511,043	-200,000	0,002	0,041
-510,029	-34,484	-0,116	-0,047
-509,014	663,786	0,060	-0,115
-507,999	800,000	-0,009	-0,022
-506,985	-24,415	-0,074	0,032
-505,970	-24,148	0,094	0,041
-504,956	64,480	-0,049	-0,036
-503,941	-200,000	-0,015	0,149
-502,926	80,670	0,100	0,079
-501,912	-200,000	-0,052	0,190
-500,897	184,959	0,088	0,097
-499,883	-53,809	0,091	-0,031
-498,868	113,430	-0,078	0,070
-497,853	555,016	0,059	0,105
-496,839	-200,000	-0,008	-0,116
-495,824	444,017	0,070	-0,114
-494,810	604,761	-0,018	0,033
-493,795	278,338	0,088	0,116
-492,781	-64,232	-0,031	0,009
-491,766	-200,000	-0,000	-0,065
-490,751	800,000	0,022	-0,047
-489,737	-100,096	0,149	-0,027
-488,722	-200,000	-0,018	0,077
-487,708	800,000	0,033	0,091
-486,693	-200,000	-0,022	0,137
-485,678	800,000	0,029	-0,092
-484,664	-145,659	-0,075	0,005
-483,649	-114,251	-0,065	-0,009
-482,635	-20,500	0,043	-0,020
-481,620	-11,762	0,111	0,053
-480,605	-200,000	-0,004	-0,129
-479,591	73,008	0,056	-0,043
-478,576	800,000	-0,053	0,112
-477,562	-60,925	0,051	-0,016
-476,547	47,758	0,012	-0,008
-475,532	-133,185	0,047	0,004
-474,518	-98,395	0,145	-0,027
-473,503	14,169	0,110	0,063
-472,489	-55,278	-0,054	0,018
-471,474	92,866	-0,023	0,019
-470,459	164,844	0,106	0,111
-469,445	-83,483	-0,102	-0,024
-468,430	437,408	-0,018	-0,028
-467,416	800,000	0,024	0,061
-466,401	800,000	-0,031	0,082
-465,386	-70,410	0,087	0,024
-464,372	-138,216	0,078	0,006
-463,357	800,000	-0,053	-0,153
-462,343	170,465	-0,106	-0,112
-461,328	-32,656	0,059	-0,024
-460,313	-126,371	0,070	-0,008
-459,299	-69,089	0,074	0,021
-458,284	800,000	-0,021	-0,051
-457,270	-67,138	0,070	0,020
-456,255	488,553	-0,036	0,061
-455,241	453,636	-0,061	0,100
-454,226	-167,512	-0,091	0,003
-453,211	84,588	0,027	-0,022
-452,197	732,369	0,049	-0,097
-451,182	-47,889	-0,031	-0,011
-450,168	-46,707	-0,048	0,017
-449,153	-54,893	0,054	0,018
-448,138	94,782	0,009	0,007
-447,124	-200,000	0,022	0,074
-446,109	620,411	-0,094	-0,175
-445,095	800,000	0,066	0,156
-444,080	237,621	0,081	0,100
-443,065	164,750	-0,003	0,003
-442,051	800,000	0,028	0,072
-441,036	-86,609	0,060	-0,013
-440,022	136,096	-0,028	-0,027
-439,007	104,684	-0,023	-0,020
-437,992	-200,000	0,004	0,038
-436,978	-200,000	-0,002	-0,026
-435,963	-25,030	0,077	0,033
-434,949	800,000	-0,084	0,202
-433,934	60,599	-0,058	0,042
-432,919	-200,000	0,009	-0,066
-431,905	-18,827	0,172	0,078
-430,890	120,102	-0,037	-0,034
-429,876	-178,823	-0,077	-0,001
-428,861	-183,522	-0,091	0,001
-427,846	800,000	-0,022	0,069
-426,832	265,735	0,057	-0,074
-425,817	217,573	0,067	0,078
-424,803	-29,133	-0,056	-0,024
-423,788	-200,000	0,005	0,019
-422,773	-45,085	0,120	0,044
-421,759	795,589	-0,002	0,004
-420,744	-200,000	0,012	0,077
-419,730	-200,000	0,028	0,116
-418,715	800,000	0,041	0,090
-417,701	6,127	0,079	-0,043
-416,686	-200,000	-0,011	0,076
-415,671	72,193	0,094	0,072
-414,657	-200,000	-0,011	-0,141
-413,642	-200,000	0,040	-0,167
-412,628	-200,000	-0,007	-0,101
-411,613	800,000	-0,017	-0,036
-410,598	-200,000	0,019	-0,136
-409,584	29,311	0,044	0,027
-408,569	-200,000	0,043	-0,149
-407,555	1,023	-0,172	0,090
-406,540	189,900	0,123	0,136
-405,525	-200,000	0,007	0,032
-404,511	141,979	0,028	-0,027
-403,496	616,200	-0,065	-0,120
-402,482	-200,000	-0,006	-0,112
-401,467	-88,144	0,058	-0,013
-400,452	247,063	0,057	0,071
-399,438	103,620	0,093	0,080
-398,423	800,000	0,053	-0,112
-397,409	-161,320	-0,053	0,002
-396,394	-200,000	0,005	-0,037
-395,379	306,140	-0,028	0,038
-394,365	-52,008	0,157	-0,053
-393,350	800,000	0,016	-0,037
-392,336	-49,387	0,028	-0,010
-391,321	-200,000	0,010	-0,224
-390,306	-200,000	0,021	-0,074
-389,292	141,977	-0,088	-0,086
-388,277	140,935	-0,011	0,011
-387,263	-105,016	-0,103	-0,017
-386,248	92,859	0,077	0,064
-385,233	-101,232	0,073	0,013
-384,219	134,366	0,079	-0,076
-383,204	-200,000	-0,040	-0,199
-382,190	-81,138	0,018	0,004
-381,175	800,000	-0,021	-0,050
-380,160	281,458	0,045	0,059
-379,146	-200,000	0,012	0,070
-378,131	-200,000	0,003	0,036
-377,117	193,153	-0,024	-0,027
-376,102	-8,414	0,040	-0,019
-375,088	-70,394	-0,090	-0,025
-374,073	-76,734	-0,076	0,019
-373,058	258,631	0,062	0,079
-372,044	566,558	-0,039	0,070
-371,029	-11,859	0,059	0,028
-370,015	-200,000	0,006	0,049
-369,000	-36,194	0,059	0,023
-367,985	26,873	-0,106	-0,065
-366,971	-200,000	-0,009	-0,036
-365,956	-83,085	0,065	0,015
-364,942	-200,000	0,034	0,191
-363,927	-58,212	-0,156	0,050
-362,912	18,610	0,054	-0,032
-361,898	800,000	-0,034	-0,095
-360,883	-50,609	-0,114	-0,039
-359,869	97,373	-0,079	0,067
-358,854	55,821	0,038	-0,027
-357,839	-93,135	0,140	0,028
-356,825	-200,000	0,018	-0,112
-355,810	-200,000	-0,041	0,164
-354,796	153,713	0,040	-0,040
-353,781	-94,210	0,079	-0,016
-352,766	716,792	-0,046	-0,090
-351,752	800,000	0,057	0,142
-350,737	174,943	0,119	-0,127
-349,723	-200,000	-0,007	0,035
-348,708	-200,000	-0,014	0,054
-347,693	5,281	0,067	-0,036
-346,679	19,692	0,029	-0,017
-345,664	-200,000	-0,027	0,096
-344,650	-23,232	0,154	-0,068
-343,635	461,337	-0,043	0,071
-342,620	-46,964	-0,036	0,013
-341,606	-200,000	-0,002	-0,127
-340,591	20,499	0,005	0,003
-339,577	74,072	-0,027	-0,020
-338,562	-200,000	0,007	-0,056
-337,548	358,494	0,020	-0,029
-336,533	-35,810	0,036	0,014
-335,518	698,378	0,019	0,037
-334,504	-200,000	0,001	0,026
-333,489	-167,419	-0,073	-0,002
-332,475	-2,952	-0,094	-0,048
-331,460	-200,000	0,032	-0,169
-330,445	800,000	0,028	0,066
-329,431	-14,686	0,139	0,065
-328,416	-111,203	-0,046	-0,007
-327,402	-20,900	0,087	-0,039
-326,387	162,496	0,019	0,019
-325,372	-63,887	-0,076	-0,023
-324,358	-89,303	0,008	0,002
-323,343	-121,492	0,142	0,017
-322,329	-90,877	-0,069	0,014
-321,314	-87,697	-0,240	0,053
-320,299	-113,912	0,065	-0,009
-319,285	-94,022	-0,071	-0,014
-318,270	-200,000	-0,011	-0,157
-317,256	172,329	0,023	0,024
-316,241	8,229	0,052	-0,028
-315,226	-200,000	0,004	-0,112
-314,212	-27,671	0,068	-0,029
-313,197	-200,000	0,013	-0,047
-312,183	800,000	0,048	0,148
-311,168	-124,615	-0,195	0,022
-310,153	-35,827	-0,082	0,032
-309,139	233,445	0,055	-0,066
-308,124	273,143	-0,086	-0,112
-307,110	763,007	-0,016	0,032
-306,095	-200,000	-0,001	-0,058
-305,080	-66,302	-0,059	-0,017
-304,066	-174,508	0,112	0,002
-303,051	-160,354	-0,093	0,004
-302,037	118,919	-0,046	-0,042
-301,022	358,102	0,076	0,111
-300,008	280,151	-0,044	0,057
-298,993	-73,667	-0,005	-0,001
-297,978	243,599	0,035	0,043
-296,964	-200,000	-0,028	0,145
-295,949	431,700	0,043	-0,069
-294,935	421,948	-0,087	-0,138
-293,920	55,973	-0,162	0,115
-292,905	-58,260	-0,017	-0,005
-291,891	800,000	0,026	0,069
-290,876	-200,000	0,016	-0,150
-289,862	120,229	0,071	0,065
-288,847	141,990	-0,018	-0,018
-287,832	-11,551	0,039	-0,019
-286,818	800,000	0,061	-0,181
-285,803	-120,402	0,163	0,020
-284,789	35,281	0,029	-0,019
-283,774	-200,000	0,023	0,084
-282,759	800,000	0,008	-0,023
-281,745	-200,000	-0,012	-0,052
-280,730	63,546	0,052	-0,038
-279,716	-41,287	-0,059	-0,022
-278,701	39,084	0,113	-0,074
-277,686	-200,000	0,005	-0,076
-276,672	214,472	-0,031	0,036
-275,657	205,272	0,030	-0,034
-274,643	-87,490	0,104	0,023
-273,628	-26,110	-0,028	0,012
-272,613	105,343	-0,182	-0,157
-271,599	-200,000	-0,012	-0,070
-270,584	247,215	0,006	0,007
-269,570	208,096	0,138	0,158
-268,555	-200,000	-0,009	-0,040
-267,540	-200,000	-0,002	0,015
-266,526	-200,000	0,008	-0,044
-265,511	135,571	0,022	0,021
-264,497	-30,771	-0,095	0,039
-263,482	179,895	0,021	0,022
-262,467	-48,863	-0,023	0,008
-261,453	-200,000	0,008	0,166
-260,438	-18,358	0,091	-0,042
-259,424	-200,000	-0,010	0,050
-258,409	189,869	-0,101	-0,111
-257,395	-200,000	0,008	-0,098
-256,380	169,876	0,006	0,007
-255,365	325,459	0,052	0,073
-254,351	800,000	-0,057	0,182
-253,336	4,639	0,097	0,052
-252,322	800,000	-0,035	-0,073
-251,307	-50,525	0,070	0,024
-250,292	240,673	0,043	0,053
-249,278	800,000	0,021	0,058
-248,263	50,076	0,042	0,029
-247,249	-200,000	-0,041	0,205
-246,234	109,619	0,046	0,040
-245,219	282,039	-0,103	-0,135
-244,205	-200,000	0,019	0,066
-243,190	-90,936	0,024	0,005
-242,176	-173,590	-0,038	-0,001
-241,161	456,172	-0,090	0,147
-240,146	98,704	-0,012	-0,010
-239,132	800,000	0,059	-0,126
-238,117	800,000	-0,016	-0,046
-237,103	1,379	0,039	-0,020
-236,088	-100,687	0,061	-0,011
-235,073	665,940	0,073	-0,138
-234,059	-22,487	-0,051	0,023
-233,044	800,000	-0,023	0,067
-232,030	-200,000	0,008	0,091
-231,015	-116,439	-0,073	0,010
-230,000	43,200	0,081	-0,054
-228,986	29,143	-0,174	0,108
-227,971	427,935	-0,030	-0,048
-226,957	360,244	-0,063	0,093
-225,942	479,731	0,048	0,080
-224,927	800,000	0,025	0,059
-223,913	147,639	-0,092	0,090
-222,898	12,709	-0,113	-0,063
-221,884	18,516	-0,059	-0,035
-220,869	-26,785	0,128	0,054
-219,855	-200,000	0,004	-0,089
-218,840	-200,000	-0,019	0,068
-217,825	-200,000	-0,025	0,170
-216,811	287,699	-0,048	-0,064
-215,796	8,879	0,093	0,051
-214,782	-32,168	-0,096	0,039
-213,767	-84,842	-0,010	0,002
-212,752	-67,423	0,169	-0,048
-211,738	219,526	0,111	-0,130
-210,723	-125,410	0,228	0,025
-209,709	327,206	0,039	0,055
-208,694	-102,257	-0,055	-0,009
-207,679	339,045	0,040	-0,057
-206,665	109,096	0,120	0,105
-205,650	-200,000	-0,000	0,054
-204,636	753,762	-0,045	0,089
-203,621	-84,702	0,050	0,011
-202,606	373,185	-0,044	-0,065
-201,592	-200,000	0,007	-0,176
-200,577	-200,000	-0,028	-0,192
-199,563	-22,385	-0,113	0,050
-198,548	-27,234	0,077	-0,033
-197,533	83,100	-0,039	-0,031
-196,519	-89,089	0,131	0,028
-195,504	-110,981	0,142	0,021
-194,490	197,593	0,038	-0,042
-193,475	425,868	-0,089	-0,140
-192,460	-160,062	-0,068	-0,003
-191,446	-200,000	0,012	0,115
-190,431	-162,316	-0,157	-0,006
-189,417	4,501	-0,075	0,040
-188,402	-6,171	0,055	0,027
-187,387	7,650	-0,102	-0,055
-186,373	164,877	-0,094	0,097
-185,358	800,000	0,030	0,071
-184,344	-200,000	0,010	0,138
-183,329	294,276	-0,082	-0,110
-182,315	63,574	-0,121	0,089
-181,300	-200,000	0,008	-0,108
-180,285	800,000	-0,041	0,093
-179,271	55,910	-0,118	-0,083
-178,256	-194,910	-0,204	0,001
-177,242	800,000	-0,066	-0,138
-176,227	301,701	0,056	0,075
-175,212	28,176	0,176	0,108
-174,198	800,000	0,023	0,050
-173,183	-200,000	0,069	0,000
-172,169	800,000	0,030	0,088
-171,154	-28,534	-0,159	0,067
-170,139	-115,164	0,178	-0,024
-169,125	193,095	-0,037	0,041
-168,110	32,592	-0,057	0,036
-167,096	-200,000	0,042	0,179
-166,081	249,551	-0,041	-0,050
-165,066	-151,329	-0,128	0,007
-164,052	29,905	-0,120	-0,074
-163,037	-200,000	0,017	0,065
-162,023	-200,000	0,015	0,085
-161,008	244,231	0,086	-0,105
-159,993	-28,164	0,075	-0,031
-158,979	-200,000	-0,002	-0,022
-157,964	-107,754	-0,176	-0,028
-156,950	523,962	-0,081	-0,139
-155,935	87,883	0,105	-0,085
-154,920	800,000	0,025	0,059
-153,906	436,418	0,062	0,099
-152,891	-15,497	-0,080	-0,037
-151,877	-200,000	0,003	-0,116
-150,862	107,443	-0,151	-0,131
-149,847	-68,659	-0,021	-0,006
-148,833	66,607	-0,048	-0,036
-147,818	-63,143	0,163	0,049
-146,804	72,877	-0,019	0,014
-145,789	-99,814	-0,092	0,017
-144,775	-31,963	-0,161	0,065
-143,760	-200,000	-0,009	0,041
-142,745	-47,388	0,022	0,008
-141,731	411,550	-0,033	0,051
-140,716	86,150	0,092	0,074
-139,702	-200,000	0,030	0,131
-138,687	-102,972	0,120	-0,021
-137,672	-26,172	0,010	-0,004
-136,658	-23,209	-0,052	-0,023
-135,643	69,446	-0,168	0,126
-134,629	-200,000	-0,002	-0,055
-133,614	101,195	-0,031	-0,026
-132,599	334,897	0,065	0,092
-131,585	-79,137	0,101	0,025
-130,570	-200,000	-0,016	0,094
-129,556	69,014	0,011	0,008
-128,541	1,688	-0,181	0,094
-127,526	382,880	0,035	-0,052
-126,512	194,121	0,062	0,069
-125,497	-54,410	0,068	-0,022
-124,483	-200,000	0,024	0,156
-123,468	403,805	0,094	0,144
-122,453	800,000	0,007	0,020
-121,439	572,981	-0,106	-0,190
-120,424	-200,000	0,008	0,093
-119,410	-88,860	0,056	-0,012
-118,395	-200,000	0,014	0,128
-117,380	564,298	0,026	0,046
-116,366	113,002	0,085	-0,075
-115,351	-124,521	-0,064	-0,007
-114,337	-94,968	-0,055	-0,011
-113,322	527,432	-0,063	-0,108
-112,307	-164,323	-0,048	0,002
-111,293	800,000	0,051	0,157
-110,278	80,203	-0,144	0,113
-109,264	504,577	0,060	-0,102
-108,249	84,702	0,180	-0,144
-107,234	-178,938	-0,063	0,001
-106,220	-75,669	0,022	0,006
-105,205	574,568	-0,011	-0,019
-104,191	-76,401	0,098	0,025
-103,176	800,000	-0,017	0,049
-102,162	200,616	-0,007	0,008
-101,147	184,535	0,062	0,067
-100,132	-89,231	-0,123	0,026
-99,118	-200,000	0,002	-0,164
-98,103	207,127	0,045	0,051
-97,089	-104,395	0,120	0,020
-96,074	800,000	0,031	-0,069
-95,059	-131,007	0,174	-0,017
-94,045	21,653	-0,151	0,089
-93,030	355,797	-0,042	-0,061
-92,016	800,000	-0,035	-0,071
-91,001	495,105	0,029	0,049
-89,986	52,144	-0,035	-0,024
-88,972	800,000	0,040	0,081
-87,957	-78,177	0,129	0,032
-86,943	148,665	0,073	0,072
-85,928	-137,920	0,055	-0,004
-84,913	-90,713	0,154	0,032
-83,899	-117,267	-0,184	0,024
-82,884	204,153	0,076	0,085
-81,870	-200,000	-0,002	0,027
-80,855	-200,000	-0,045	0,181
-79,840	800,000	-0,036	-0,096
-78,826	797,159	0,040	-0,081
-77,811	120,933	-0,076	-0,069
-76,797	292,898	-0,079	0,105
-75,782	-3,552	0,069	-0,035
-74,767	94,746	0,174	0,144
-73,753	-200,000	0,025	0,190
-72,738	139,787	0,085	0,082
-71,724	492,199	0,033	-0,056
-70,709	-200,000	0,026	-0,140
-69,694	690,431	0,036	-0,068
-68,680	167,880	0,049	0,050
-67,665	-25,239	0,076	0,033
-66,651	0,370	0,130	0,067
-65,636	278,851	0,052	0,067
-64,622	-200,000	0,008	0,091
-63,607	800,000	-0,025	0,059
-62,592	-76,941	-0,201	-0,051
-61,578	-195,691	-0,096	-0,000
-60,563	-57,731	0,050	0,016
-59,549	91,813	-0,028	0,023
-58,534	-123,769	-1,229	-0,139
-57,519	490,259	-0,893	-1,488
-56,505	-200,000	-0,869	-4,378
-55,490	145,194	0,500	-0,485
-54,476	800,000	4,927	11,821
-53,461	-200,000	13,383	253,883
-52,446	-200,000	688,736	2271,565
-51,432	597,366	1622,909	2930,337
-50,417	120,994	1636,667	1477,631
-49,403	73,593	1290,682	979,976
-48,388	38,454	1025,343	661,824
-47,373	24,559	982,638	588,539
-46,359	23,776	972,466	579,855
-45,344	22,867	968,273	574,358
-44,330	22,818	966,834	573,324
-43,315	22,682	965,262	571,924
-42,300	22,684	964,368	571,378
-41,286	22,661	963,534	570,787
-40,271	22,611	962,619	570,061
-39,257	22,568	961,679	569,341
-38,242	22,638	960,577	568,892
-37,227	22,614	959,612	568,220
-36,213	22,645	958,787	567,811
-35,198	22,639	957,905	567,246
-34,184	22,673	957,357	567,010
-33,169	22,599	956,552	566,271
-32,154	22,664	955,534	565,855
-31,140	22,747	954,389	565,421
-30,125	22,638	953,932	564,777
-29,111	22,700	953,164	564,502
-28,096	22,707	952,460	564,082
-27,082	22,651	951,665	563,411
-26,067	22,695	950,953	563,109
-25,052	22,645	950,287	562,531
-24,038	22,639	949,684	562,132
-23,023	22,670	948,854	561,719
-22,009	22,726	948,221	561,501
-20,994	22,685	947,710	561,044
-19,979	22,710	947,006	560,684
-18,965	22,698	946,503	560,327
-17,950	22,653	945,776	559,731
-16,936	22,572	945,130	559,065
-15,921	22,564	944,591	558,700
-14,906	22,577	943,785	558,242
-13,892	22,582	943,070	557,814
-12,877	22,578	942,409	557,389
-11,863	22,478	941,715	556,639
-10,848	22,538	941,351	556,592
-9,833	22,663	940,884	556,689
-8,819	22,605	940,214	556,089
-7,804	22,516	939,553	555,392
-6,790	22,541	939,116	555,191
-5,775	22,601	938,360	554,912
-4,760	22,592	937,834	554,551
-3,746	22,552	937,262	554,065
-2,731	22,441	936,430	553,198
-1,717	22,408	935,676	552,628
-0,702	22,363	935,153	552,156
0,313	22,197	934,359	551,994
1,327	25,197	932,401	560,230
2,342	34,902	796,875	504,670
3,356	32,956	452,109	283,366
4,371	2,055	293,908	153,375
5,386	-2,557	274,868	139,060
6,400	-3,813	268,983	134,905
7,415	-4,457	266,522	133,066
8,429	-4,085	265,291	132,780
9,444	-4,340	264,453	132,117
10,459	-4,095	263,738	131,970
11,473	-4,181	263,198	131,611
12,488	-4,279	262,776	131,298
13,502	-4,198	261,993	130,969
14,517	-4,438	261,740	130,615
15,531	-4,205	261,253	130,569
16,546	-4,152	260,818	130,388
17,561	-4,276	260,508	130,110
18,575	-4,166	260,221	130,054
19,590	-4,401	260,014	129,728
20,604	-4,212	259,584	129,672
21,619	-4,163	259,187	129,505
22,634	-4,216	258,869	129,287
23,648	-4,410	258,760	129,048
24,663	-4,217	258,367	129,013
25,677	-4,292	258,247	128,875
26,692	-4,332	257,828	128,619
27,707	-4,426	257,630	128,425
28,721	-4,272	257,373	128,422
29,736	-4,474	257,225	128,158
30,750	-4,342	256,860	128,081
31,765	-4,502	256,812	127,904
32,780	-4,441	256,566	127,825
33,794	-4,332	256,180	127,717
34,809	-4,465	256,130	127,563
35,823	-4,299	255,798	127,532
36,838	-4,343	255,518	127,342
37,853	-4,305	255,226	127,219
38,867	-4,493	255,112	126,986
39,882	-4,576	254,930	126,811
40,896	-4,306	254,575	126,860
41,911	-4,445	254,588	126,734
42,926	-4,535	254,251	126,475
43,940	-4,427	253,873	126,371
44,955	-4,518	253,719	126,203
45,969	-4,556	253,355	125,978
46,984	-4,649	253,036	125,726
47,999	-4,766	252,967	125,580
49,013	-5,131	252,751	125,144
50,028	-5,071	252,424	125,023
51,042	-5,219	251,987	124,667
52,057	-5,200	252,033	124,695
53,071	-5,193	251,769	124,560
54,086	-5,093	251,611	124,557
55,101	-4,786	251,454	124,734
56,115	-4,868	251,520	124,684
57,130	-4,331	251,469	125,112
58,144	-4,265	251,053	124,951
59,159	-4,158	250,966	124,989
60,174	-3,914	250,696	125,053
61,188	-4,008	250,476	124,851
62,203	-4,105	250,358	124,698
63,217	-4,369	250,251	124,407
64,232	-4,251	249,814	124,280
65,247	-4,295	249,780	124,214
66,261	-4,120	249,340	124,134
67,276	-4,487	249,041	123,660
68,290	-4,731	248,996	123,417
69,305	-4,885	248,662	123,110
70,320	-4,845	248,500	123,053
71,334	-4,423	248,358	123,331
72,349	-4,254	248,314	123,443
73,363	-4,150	248,086	123,407
74,378	-4,182	247,881	123,266
75,393	-4,423	247,705	122,963
76,407	-4,340	247,476	122,909
77,422	-4,193	247,354	122,962
78,436	-4,276	247,056	122,733
79,451	-4,309	246,983	122,658
80,466	-4,497	246,566	122,281
81,480	-4,598	246,336	122,070
82,495	-4,471	246,121	122,060
83,509	-4,645	246,049	121,867
84,524	-4,450	245,757	121,875
85,539	-4,660	245,635	121,628
86,553	-4,708	245,326	121,423
87,568	-4,694	245,403	121,462
88,582	-4,519	245,075	121,435
89,597	-4,808	244,964	121,128
90,611	-4,519	244,680	121,218
91,626	-4,525	244,593	121,160
92,641	-4,329	244,505	121,269
93,655	-4,435	244,247	121,042
94,670	-4,534	243,994	120,823
95,684	-4,585	243,778	120,663
96,699	-4,554	243,698	120,638
97,714	-4,657	243,514	120,451
98,728	-4,758	243,220	120,210
99,743	-4,801	243,136	120,122
100,757	-4,788	242,796	119,954
101,772	-4,617	242,610	119,994
102,787	-4,510	242,482	120,008
103,801	-4,496	242,274	119,906
104,816	-4,407	242,203	119,934
105,830	-4,325	242,102	119,942
106,845	-4,180	241,896	119,949
107,860	-4,363	241,707	119,693
108,874	-4,582	241,613	119,455
109,889	-4,409	241,258	119,412
110,903	-4,346	241,016	119,333
111,918	-4,578	241,010	119,128
112,933	-4,506	240,834	119,090
113,947	-4,235	240,586	119,180
114,962	-4,421	240,481	118,964
115,976	-4,332	240,287	118,931
116,991	-4,242	240,002	118,853
118,006	-4,481	239,905	118,598
119,020	-4,382	239,745	118,589
120,035	-4,405	239,714	118,545
121,049	-4,171	239,475	118,608
122,064	-4,232	239,233	118,427
123,079	-4,376	239,058	118,212
124,093	-4,330	238,857	118,140
125,108	-4,693	238,739	117,775
126,122	-4,545	238,346	117,691
127,137	-4,808	238,277	117,432
128,151	-4,981	238,043	117,166
129,166	-4,702	237,990	117,356
130,181	-4,739	237,757	117,201
131,195	-4,816	237,758	117,129
132,210	-4,653	237,336	117,042
133,224	-4,563	237,373	117,123
134,239	-4,488	237,311	117,143
135,254	-4,198	236,948	117,188
136,268	-4,478	236,711	116,834
137,283	-4,629	236,463	116,579
138,297	-4,899	236,428	116,333
139,312	-4,865	236,122	116,200
140,327	-4,487	236,036	116,452
141,341	-4,254	236,198	116,709
142,356	-3,904	235,867	116,816
143,370	-4,130	235,896	116,639
144,385	-4,000	235,562	116,568
145,400	-3,978	235,356	116,473
146,414	-3,998	235,174	116,357
147,429	-4,110	235,027	116,183
148,443	-4,163	234,881	116,058
149,458	-4,103	234,663	115,989
150,473	-4,116	234,668	115,970
151,487	-4,230	234,343	115,708
152,502	-4,118	234,293	115,763
153,516	-3,926	234,032	115,777
154,531	-4,115	233,886	115,543
155,546	-4,196	233,654	115,354
156,560	-4,163	233,406	115,248
157,575	-4,263	233,333	115,122
158,589	-4,190	233,140	115,074
159,604	-4,074	233,119	115,145
160,619	-4,072	232,969	115,063
161,633	-4,082	232,757	114,940
162,648	-3,967	232,567	114,927
163,662	-4,112	232,483	114,760
164,677	-4,224	232,343	114,592
165,692	-3,947	232,111	114,687
166,706	-3,852	232,000	114,697
167,721	-3,848	231,681	114,532
168,735	-3,837	231,698	114,539
169,750	-4,066	231,565	114,283
170,764	-4,143	231,391	114,125
171,779	-4,025	231,343	114,185
172,794	-3,848	231,085	114,186
173,808	-4,149	230,902	113,849
174,823	-4,571	230,482	113,301
175,837	-4,867	230,352	112,996
176,852	-4,454	230,393	113,329
177,867	-4,075	230,285	113,563
178,881	-4,018	230,196	113,553
179,896	-4,026	230,023	113,451
180,910	-3,934	229,771	113,389
181,925	-4,016	229,714	113,287
182,940	-3,950	229,527	113,235
183,954	-3,939	229,535	113,238
184,969	-3,901	229,305	113,144
185,983	-3,950	229,145	113,017
186,998	-3,791	228,868	112,993
188,013	-4,061	228,790	112,735
189,027	-3,916	228,606	112,748
190,042	-4,033	228,488	112,588
191,056	-3,844	228,308	112,636
192,071	-3,635	228,078	112,674
193,086	-3,933	228,060	112,424
194,100	-3,960	227,891	112,311
195,115	-4,305	227,587	111,885
196,129	-4,528	227,338	111,580
197,144	-1,021	228,425	114,820
198,159	2,996	229,400	118,418
199,173	3,937	229,753	119,320
200,188	4,163	229,638	119,425
201,202	3,962	229,534	119,205
202,217	4,366	229,377	119,425
203,232	4,488	229,172	119,402
204,246	4,672	229,252	119,576
205,261	4,736	229,024	119,495
206,275	4,869	228,841	119,492
207,290	4,959	228,763	119,510
208,304	5,012	228,527	119,417
209,319	4,870	228,343	119,201
210,334	4,749	228,342	119,096
211,348	4,562	228,058	118,793
212,363	4,396	227,646	118,441
213,377	3,846	227,543	117,955
214,392	3,944	227,506	118,000
215,407	4,251	227,192	118,062
216,421	4,006	227,304	117,923
217,436	3,966	227,009	117,728
218,450	3,894	226,670	117,486
219,465	3,624	226,626	117,247
220,480	3,977	226,459	117,420
221,494	3,936	226,314	117,303
222,509	4,026	226,098	117,249
223,523	3,991	226,044	117,184
224,538	3,964	225,820	117,036
225,553	4,152	225,701	117,108
226,567	4,161	225,780	117,145
227,582	4,165	225,528	117,007
228,596	4,344	225,408	117,070
229,611	4,223	225,145	116,831
230,626	3,836	225,007	116,456
231,640	4,006	224,789	116,461
232,655	4,199	224,656	116,528
233,669	4,501	224,772	116,806
234,684	4,696	224,546	116,826
235,699	4,317	224,563	116,538
236,713	4,280	224,187	116,304
237,728	4,037	223,924	115,974
238,742	3,718	223,805	115,662
239,757	3,927	223,623	115,715
240,772	3,838	223,433	115,540
241,786	3,891	223,425	115,565
242,801	4,197	223,407	115,775
243,815	4,399	223,338	115,881
244,830	4,123	223,146	115,564
245,844	3,998	222,927	115,346
246,859	4,125	222,673	115,300
247,874	4,725	222,432	115,613
248,888	4,359	222,517	115,373
249,903	4,118	222,215	115,026
250,917	4,118	222,193	115,005
251,932	4,065	221,982	114,846
252,947	3,922	221,816	114,643
253,961	3,895	221,726	114,566
254,976	3,908	221,552	114,476
255,990	4,059	221,437	114,519
257,005	4,230	221,348	114,589
258,020	4,244	221,227	114,527
259,034	4,418	221,080	114,570
260,049	4,349	220,909	114,420
261,063	4,161	220,764	114,196
262,078	4,321	220,699	114,270
263,093	4,544	220,514	114,329
264,107	4,316	220,384	114,083
265,122	4,275	220,222	113,959
266,136	4,425	220,188	114,041
267,151	4,552	219,921	113,987
268,166	3,932	219,695	113,402
269,180	3,734	219,494	113,143
270,195	3,857	219,304	113,125
271,209	3,854	219,322	113,122
272,224	3,840	219,265	113,072
273,239	4,178	219,001	113,175
274,253	3,737	218,910	112,794
275,268	3,697	218,738	112,665
276,282	3,647	218,527	112,510
277,297	3,696	218,338	112,438
278,312	3,887	218,157	112,476
279,326	3,891	218,210	112,495
280,341	4,007	218,026	112,475
281,355	3,987	217,911	112,392
282,370	4,110	217,760	112,394
283,384	3,660	217,546	111,944
284,399	3,629	217,338	111,806
285,414	3,523	217,136	111,614
286,428	3,937	217,236	111,956
287,443	4,047	217,036	111,923
288,457	4,225	216,889	111,968
289,472	4,026	216,797	111,765
290,487	3,746	216,309	111,301
291,501	3,572	216,220	111,119
292,516	3,808	216,147	111,242
293,530	3,878	216,095	111,257
294,545	3,659	215,989	111,033
295,560	3,820	215,954	111,122
296,574	3,937	215,843	111,140
297,589	3,944	215,451	110,933
298,603	4,003	215,503	110,992
299,618	3,920	215,429	110,885
300,633	3,898	215,218	110,750
301,647	4,258	215,174	110,977
302,662	4,110	215,019	110,781
303,676	4,105	214,867	110,689
304,691	4,390	214,648	110,771
305,706	4,395	214,539	110,708
306,720	4,114	214,494	110,473
307,735	4,119	214,223	110,328
308,749	3,888	214,009	110,042
309,764	4,082	214,076	110,206
310,779	4,028	214,031	110,134
311,793	4,120	213,804	110,073
312,808	4,156	213,569	109,968
313,822	4,176	213,475	109,925
314,837	4,075	213,430	109,820
315,852	3,628	213,148	109,346
316,866	3,930	212,968	109,459
317,881	4,203	213,012	109,666
318,895	4,221	212,889	109,606
319,910	4,099	212,594	109,358
320,925	3,622	212,432	108,925
321,939	3,588	212,111	108,727
322,954	3,779	212,043	108,818
323,968	4,399	211,986	109,218
324,983	3,926	212,139	108,952
325,997	4,275	211,938	109,086
327,012	4,063	211,716	108,813
328,027	3,819	211,644	108,593
329,041	4,405	211,461	108,903
330,056	4,453	211,387	108,889
331,070	4,075	211,262	108,549
332,085	3,847	210,920	108,203
333,100	3,975	210,972	108,310
334,114	4,228	210,655	108,315
335,129	4,042	210,436	108,063
336,143	3,739	210,282	107,761
337,158	4,010	210,170	107,884
338,173	3,914	210,060	107,751
339,187	3,779	209,945	107,587
340,202	3,731	209,884	107,513
341,216	3,631	209,736	107,358
342,231	3,712	209,562	107,316
343,246	3,748	209,469	107,284
344,260	3,807	209,288	107,223
345,275	3,877	209,214	107,224
346,289	4,064	209,142	107,308
347,304	4,216	208,957	107,309
348,319	4,032	208,819	107,101
349,333	3,824	208,753	106,913
350,348	3,916	208,658	106,919
351,362	4,235	208,472	107,035
352,377	4,375	208,343	107,057
353,392	3,953	208,232	106,697
354,406	4,104	208,058	106,703
355,421	193,826	1347,487	1436,034
356,435	154,626	1486,419	1436,147
