DTS Sentinel unit serial number:	SN410029Multiplexer serial number:	ORYXHardware model number:	OX2-SRSoftware version number:	ORYX F/W v4,00 Oryx Data Collector v3.7.2.0data status	okinstallation	B6 Nyhavnadifferential loss correction	single-endedforward channel	channel 2reverse channel	N/Adate	2023/12/09time	23:35:08forward acquisition time	300,00reverse acquisition time	0,00gamma	499,1914k internal	0,3127k external	0,3127temperature offset calibration	1,0000default loss term (dB/km)	0,3820temperature slope calibration	1,0000multiplexer offset coefficient	1,0000multiplexer slope coefficient	1,0000fibre end	0,00T internal ref (°C)	21,73T ext. ref 1 (°C)	5,57T ext. ref 2 (°C)	5,55length (m)	temperature (°C)	Stokes	anti-Stokes-744,400	323,507	0,042	-0,060
-743,385	-43,244	-0,176	0,066
-742,371	-83,622	0,031	-0,007
-741,356	-119,199	-0,275	0,035
-740,342	-200,000	-0,009	-0,113
-739,327	418,271	-0,099	0,159
-738,312	57,814	-0,056	0,041
-737,298	-132,304	-0,220	-0,021
-736,283	372,574	0,061	-0,093
-735,269	36,995	-0,174	-0,114
-734,254	172,678	0,025	-0,027
-733,239	-65,539	-0,253	-0,075
-732,225	800,000	0,044	-0,116
-731,210	-200,000	-0,030	0,123
-730,196	-48,154	0,083	-0,030
-729,181	111,974	-0,082	-0,074
-728,167	-200,000	0,008	-0,099
-727,152	-200,000	0,009	-0,046
-726,137	800,000	0,035	-0,111
-725,123	166,344	-0,094	-0,099
-724,108	-23,038	-0,106	-0,047
-723,094	-200,000	0,000	-0,058
-722,079	160,347	-0,085	-0,088
-721,064	-193,197	-0,111	-0,001
-720,050	112,397	-0,008	0,007
-719,035	255,428	-0,054	-0,069
-718,021	-7,757	-0,070	0,035
-717,006	311,293	-0,053	-0,074
-715,991	375,140	-0,075	-0,114
-714,977	-200,000	-0,016	-0,081
-713,962	251,199	0,037	-0,046
-712,948	-130,657	0,052	-0,005
-711,933	-200,000	-0,005	-0,042
-710,918	-200,000	0,008	0,088
-709,904	-136,466	-0,105	0,009
-708,889	800,000	-0,038	-0,105
-707,875	-9,650	-0,140	0,069
-706,860	-99,006	-0,029	0,005
-705,845	111,410	-0,039	0,035
-704,831	17,251	0,056	0,033
-703,816	47,613	-0,104	-0,072
-702,802	-200,000	0,001	-0,029
-701,787	800,000	-0,002	-0,007
-700,772	227,908	0,004	-0,005
-699,758	-22,322	0,061	-0,027
-698,743	601,982	-0,044	0,081
-697,729	64,859	-0,062	0,046
-696,714	800,000	-0,017	-0,044
-695,699	-200,000	-0,017	0,078
-694,685	378,529	-0,039	-0,060
-693,670	-200,000	0,022	0,123
-692,656	715,885	0,019	0,038
-691,641	-86,810	-0,008	-0,002
-690,627	-79,224	-0,040	0,010
-689,612	303,784	-0,048	0,067
-688,597	12,673	-0,138	-0,079
-687,583	800,000	-0,026	-0,059
-686,568	-200,000	-0,025	-0,161
-685,554	-7,378	0,081	-0,041
-684,539	12,266	-0,060	0,034
-683,524	434,977	0,112	-0,181
-682,510	-36,681	-0,055	0,022
-681,495	8,507	0,047	-0,026
-680,481	370,800	-0,048	-0,073
-679,466	-200,000	0,001	-0,058
-678,451	-29,736	0,113	0,048
-677,437	49,915	-0,074	-0,052
-676,422	227,239	-0,009	0,011
-675,408	286,584	0,004	0,005
-674,393	800,000	0,027	-0,069
-673,378	101,300	-0,147	-0,127
-672,364	661,253	-0,082	-0,158
-671,349	-173,222	-0,061	-0,001
-670,335	-200,000	-0,005	-0,016
-669,320	-41,486	-0,045	0,017
-668,305	-200,000	-0,009	-0,030
-667,291	39,901	0,059	0,039
-666,276	216,567	0,041	-0,048
-665,262	-200,000	0,000	-0,011
-664,247	194,154	-0,063	-0,071
-663,232	-72,026	0,127	0,035
-662,218	-18,023	-0,041	0,019
-661,203	110,833	-0,067	0,060
-660,189	-148,599	-0,126	-0,008
-659,174	-76,027	-0,051	-0,013
-658,159	-200,000	-0,008	-0,093
-657,145	-200,000	-0,020	-0,101
-656,130	638,137	-0,063	-0,119
-655,116	252,416	-0,033	0,042
-654,101	775,503	0,041	0,084
-653,086	-59,851	-0,052	0,016
-652,072	118,304	-0,026	0,023
-651,057	-100,778	-0,029	0,005
-650,043	800,000	-0,056	-0,122
-649,028	-48,685	0,169	0,060
-648,014	179,378	0,107	0,116
-646,999	-98,261	-0,072	-0,014
-645,984	-200,000	0,027	0,213
-644,970	-200,000	0,007	0,028
-643,955	-9,704	0,037	-0,018
-642,941	6,333	-0,121	-0,067
-641,926	-11,132	-0,078	-0,038
-640,911	-200,000	-0,016	-0,062
-639,897	-88,213	-0,104	0,023
-638,882	-55,783	-0,043	-0,014
-637,868	-102,159	-0,127	0,023
-636,853	80,296	-0,112	-0,089
-635,838	-200,000	-0,003	-0,031
-634,824	-139,199	0,154	0,012
-633,809	800,000	0,040	0,106
-632,795	-150,152	0,016	-0,001
-631,780	-98,547	0,016	0,003
-630,765	-200,000	-0,035	-0,148
-629,751	297,164	-0,126	-0,172
-628,736	-200,000	0,012	-0,067
-627,722	-200,000	0,030	0,124
-626,707	0,114	-0,054	-0,029
-625,692	77,695	-0,078	-0,061
-624,678	69,771	-0,082	-0,063
-623,663	-200,000	0,003	-0,052
-622,649	-200,000	-0,031	-0,156
-621,634	-200,000	-0,007	0,052
-620,619	-200,000	-0,003	-0,127
-619,605	-7,210	-0,098	0,049
-618,590	217,250	0,047	0,055
-617,576	296,656	0,052	0,070
-616,561	52,666	0,018	0,013
-615,546	90,200	-0,076	-0,063
-614,532	800,000	-0,070	-0,176
-613,517	-200,000	-0,054	-0,193
-612,503	77,735	0,075	-0,059
-611,488	-33,830	0,039	0,016
-610,474	-200,000	-0,001	0,120
-609,459	-69,842	0,039	-0,011
-608,444	75,908	0,026	-0,020
-607,430	800,000	0,056	-0,147
-606,415	-83,686	-0,121	-0,028
-605,401	-200,000	0,018	-0,124
-604,386	119,281	0,066	0,061
-603,371	474,948	-0,008	0,013
-602,357	29,421	-0,027	-0,017
-601,342	245,353	-0,121	0,151
-600,328	7,921	-0,083	0,046
-599,313	123,053	0,035	-0,033
-598,298	800,000	0,009	-0,023
-597,284	68,657	0,120	0,091
-596,269	-200,000	0,021	0,157
-595,255	-106,123	-0,035	-0,006
-594,240	77,492	-0,030	0,024
-593,225	119,392	-0,031	-0,028
-592,211	800,000	-0,020	0,049
-591,196	-57,230	0,095	0,031
-590,182	54,758	-0,095	-0,068
-589,167	-169,885	0,014	0,000
-588,152	-200,000	0,021	0,070
-587,138	-76,005	0,038	-0,010
-586,123	701,539	-0,038	-0,074
-585,109	-71,040	-0,045	-0,012
-584,094	-44,753	0,137	0,050
-583,079	412,525	0,046	0,072
-582,065	-116,484	-0,115	0,015
-581,050	272,137	-0,056	0,074
-580,036	-156,275	0,139	0,006
-579,021	-200,000	0,001	-0,063
-578,006	-200,000	-0,017	-0,136
-576,992	-200,000	-0,021	-0,196
-575,977	-200,000	-0,030	0,118
-574,963	157,316	-0,027	-0,027
-573,948	-200,000	0,003	0,011
-572,934	-146,277	0,009	-0,001
-571,919	72,515	-0,053	0,041
-570,904	-87,213	-0,129	0,029
-569,890	800,000	0,062	-0,147
-568,875	-200,000	-0,018	-0,096
-567,861	325,547	-0,064	-0,091
-566,846	30,259	-0,126	-0,079
-565,831	-200,000	0,005	-0,076
-564,817	-70,385	0,072	0,020
-563,802	-200,000	-0,002	0,022
-562,788	408,676	-0,059	-0,093
-561,773	-200,000	-0,001	0,060
-560,758	-45,563	0,173	0,063
-559,744	-90,686	-0,053	0,011
-558,729	-200,000	0,017	0,059
-557,715	190,177	-0,093	0,103
-556,700	30,082	-0,178	-0,112
-555,685	-200,000	0,017	-0,100
-554,671	-54,466	-0,151	-0,050
-553,656	-52,854	0,082	0,028
-552,642	71,328	-0,129	0,099
-551,627	237,217	0,006	0,007
-550,612	-142,016	-0,090	-0,007
-549,598	336,434	0,024	-0,035
-548,583	-8,639	-0,063	0,031
-547,569	18,218	-0,040	-0,024
-546,554	6,961	0,066	-0,036
-545,539	-103,954	0,019	0,003
-544,525	110,255	-0,028	0,025
-543,510	800,000	0,009	-0,024
-542,496	86,946	-0,061	-0,050
-541,481	88,980	-0,049	0,041
-540,466	512,769	-0,031	0,054
-539,452	-102,762	0,158	0,028
-538,437	-200,000	-0,004	0,064
-537,423	-200,000	0,004	-0,196
-536,408	-111,442	-0,145	0,022
-535,393	396,162	-0,026	-0,040
-534,379	-97,857	-0,068	-0,013
-533,364	205,707	0,071	-0,082
-532,350	671,152	-0,044	-0,084
-531,335	136,635	0,110	0,106
-530,321	800,000	-0,060	0,189
-529,306	-200,000	-0,009	0,162
-528,291	-200,000	-0,015	-0,117
-527,277	-200,000	-0,007	0,088
-526,262	95,098	0,131	-0,110
-525,248	221,594	0,059	0,070
-524,233	800,000	0,016	0,039
-523,218	800,000	0,040	-0,098
-522,204	86,213	0,090	-0,073
-521,189	39,885	0,043	0,028
-520,175	115,352	-0,018	-0,016
-519,160	-200,000	-0,021	0,079
-518,145	800,000	0,016	-0,045
-517,131	-200,000	0,003	0,073
-516,116	-200,000	0,027	-0,104
-515,102	-200,000	-0,012	-0,087
-514,087	746,679	-0,027	0,054
-513,072	75,784	-0,151	-0,118
-512,058	-200,000	0,009	-0,056
-511,043	-200,000	0,010	-0,165
-510,029	595,735	-0,008	0,014
-509,014	-200,000	-0,027	0,000
-507,999	297,974	0,096	-0,130
-506,985	4,747	-0,013	-0,007
-505,970	800,000	-0,053	-0,144
-504,956	-200,000	-0,007	0,040
-503,941	-200,000	-0,002	0,022
-502,926	385,714	-0,082	0,125
-501,912	-200,000	0,019	0,073
-500,897	-200,000	0,024	-0,101
-499,883	735,147	-0,068	-0,135
-498,868	800,000	-0,033	-0,088
-497,853	-200,000	0,030	-0,108
-496,839	37,907	0,009	-0,006
-495,824	393,959	0,045	0,069
-494,810	110,441	0,048	0,042
-493,795	-100,507	-0,108	0,019
-492,781	-200,000	-0,024	0,149
-491,766	168,360	-0,091	-0,096
-490,751	375,267	0,082	-0,124
-489,737	242,402	0,098	0,122
-488,722	50,197	0,016	-0,011
-487,708	-200,000	0,020	0,089
-486,693	-24,889	-0,140	0,061
-485,678	-200,000	0,014	-0,121
-484,664	72,389	-0,128	0,098
-483,649	-77,069	0,116	0,030
-482,635	-200,000	0,022	-0,143
-481,620	-151,532	0,138	0,007
-480,605	483,572	0,079	0,132
-479,591	285,035	-0,019	-0,025
-478,576	245,661	-0,061	0,076
-477,562	-200,000	0,008	0,064
-476,547	-21,574	-0,154	-0,069
-475,532	-54,068	0,081	0,027
-474,518	800,000	0,060	0,161
-473,503	1,623	0,104	0,055
-472,489	-200,000	0,003	0,095
-471,474	6,188	-0,037	0,020
-470,459	-200,000	-0,112	-0,000
-469,445	394,742	-0,031	-0,048
-468,430	800,000	-0,027	-0,066
-467,416	-84,810	-0,070	0,016
-466,401	407,689	0,080	0,125
-465,386	98,513	0,091	-0,077
-464,372	800,000	-0,042	-0,114
-463,357	-133,949	-0,038	-0,003
-462,343	-200,000	-0,003	-0,018
-461,328	800,000	0,018	-0,041
-460,313	-200,000	-0,004	-0,087
-459,299	530,320	0,045	0,079
-458,284	-52,458	-0,132	-0,045
-457,270	-200,000	-0,005	-0,020
-456,255	605,564	0,035	0,064
-455,241	312,654	-0,078	0,108
-454,226	465,145	-0,038	0,063
-453,211	800,000	-0,025	0,074
-452,197	-53,371	0,134	-0,045
-451,182	800,000	-0,037	0,083
-450,168	-87,786	-0,109	0,024
-449,153	158,800	-0,088	0,090
-448,138	-40,068	-0,079	-0,030
-447,124	205,113	0,048	-0,055
-446,109	800,000	0,028	0,063
-445,095	-40,482	0,058	-0,022
-444,080	-200,000	-0,002	0,114
-443,065	800,000	0,039	0,086
-442,051	350,433	0,052	-0,076
-441,036	363,925	-0,100	-0,148
-440,022	55,768	-0,108	-0,077
-439,007	426,866	0,065	0,104
-437,992	386,698	0,082	0,126
-436,978	-200,000	0,012	0,186
-435,963	121,610	0,096	0,088
-434,949	-56,063	-0,093	0,030
-433,934	628,097	0,059	-0,109
-432,919	29,247	-0,119	-0,074
-431,905	-14,984	0,064	-0,030
-430,890	-200,000	-0,009	0,127
-429,876	287,735	0,127	-0,169
-428,861	-200,000	-0,007	-0,139
-427,846	-200,000	-0,003	0,047
-426,832	800,000	-0,033	0,074
-425,817	111,091	-0,074	-0,066
-424,803	-200,000	0,004	0,108
-423,788	800,000	0,050	-0,126
-422,773	184,512	0,048	0,052
-421,759	-148,550	0,101	-0,006
-420,744	-59,001	-0,117	-0,037
-419,730	-72,716	0,094	0,025
-418,715	44,275	0,085	0,057
-417,701	-37,117	0,065	-0,026
-416,686	84,633	0,174	-0,140
-415,671	-153,892	0,183	-0,009
-414,657	-112,937	0,065	0,009
-413,642	-168,018	0,155	-0,004
-412,628	97,690	0,045	0,038
-411,613	349,403	-0,101	-0,147
-410,598	-82,387	-0,048	0,011
-409,584	465,351	0,055	0,091
-408,569	375,161	0,078	0,118
-407,555	-200,000	0,008	0,113
-406,540	-171,866	0,163	0,004
-405,525	-200,000	0,006	-0,062
-404,511	800,000	0,065	-0,166
-403,496	-24,871	-0,073	-0,032
-402,482	-48,365	-0,025	-0,009
-401,467	223,707	-0,059	0,070
-400,452	-200,000	-0,010	0,240
-399,438	-148,210	-0,110	0,007
-398,423	-151,060	0,080	0,004
-397,409	-200,000	-0,006	0,119
-396,394	-200,000	0,010	0,056
-395,379	746,901	-0,016	0,032
-394,365	321,638	-0,023	0,032
-393,350	-156,004	0,082	0,004
-392,336	-88,140	0,131	-0,029
-391,321	-91,977	-0,091	-0,019
-390,306	-200,000	-0,010	-0,082
-389,292	-59,140	-0,055	0,017
-388,277	-200,000	-0,005	-0,073
-387,263	-29,787	-0,114	0,048
-386,248	-63,191	0,177	0,053
-385,233	-140,859	-0,059	0,004
-384,219	-78,648	-0,077	0,019
-383,204	198,471	0,032	0,036
-382,190	-94,710	-0,049	0,010
-381,175	44,444	0,077	0,052
-380,160	18,857	0,141	0,083
-379,146	114,548	0,110	0,098
-378,131	-10,930	0,037	0,018
-377,117	188,455	-0,070	0,077
-376,102	30,817	0,076	-0,048
-375,088	-169,720	-0,127	-0,003
-374,073	531,980	-0,010	-0,018
-373,058	77,487	0,013	0,010
-372,044	346,810	0,064	0,093
-371,029	338,919	0,036	0,052
-370,015	-200,000	0,002	-0,056
-369,000	667,511	-0,066	-0,126
-367,985	-155,390	0,181	0,008
-366,971	-200,000	-0,009	0,076
-365,956	240,260	-0,043	0,052
-364,942	-71,866	0,056	-0,015
-363,927	-200,000	0,010	-0,121
-362,912	-200,000	-0,006	-0,085
-361,898	-18,617	-0,126	-0,057
-360,883	-47,342	0,135	-0,048
-359,869	534,500	-0,016	-0,028
-358,854	-200,000	-0,000	0,019
-357,839	-118,891	0,036	-0,005
-356,825	616,830	0,019	0,036
-355,810	190,470	0,086	-0,095
-354,796	101,504	-0,056	0,048
-353,781	-200,000	-0,027	-0,092
-352,766	-95,247	0,021	0,004
-351,752	9,231	-0,084	0,047
-350,737	-200,000	0,010	-0,037
-349,723	260,109	0,032	0,041
-348,708	-74,570	-0,158	-0,041
-347,693	33,437	-0,044	0,028
-346,679	-200,000	-0,022	-0,084
-345,664	26,916	-0,136	0,083
-344,650	-200,000	0,002	-0,013
-343,635	-26,066	-0,058	-0,025
-342,620	-69,247	0,173	-0,048
-341,606	800,000	0,033	-0,069
-340,591	-80,277	0,023	0,006
-339,577	81,525	0,062	0,049
-338,562	800,000	0,022	-0,065
-337,548	393,410	-0,086	0,132
-336,533	45,642	0,108	0,073
-335,518	184,134	-0,019	0,020
-334,504	-200,000	-0,002	-0,027
-333,489	279,397	0,031	0,041
-332,475	-65,920	-0,074	-0,022
-331,460	132,109	0,032	-0,031
-330,445	-200,000	-0,047	0,000
-329,431	460,827	0,020	-0,032
-328,416	-200,000	0,021	-0,098
-327,402	-200,000	0,038	0,150
-326,387	105,891	-0,019	0,017
-325,372	-150,078	-0,119	-0,007
-324,358	8,098	-0,156	-0,085
-323,343	241,619	-0,146	0,179
-322,329	495,160	0,031	-0,053
-321,314	92,884	0,044	-0,036
-320,299	-107,877	0,059	-0,009
-319,285	133,740	0,039	-0,037
-318,270	117,314	-0,065	-0,058
-317,256	-200,000	0,012	-0,139
-316,241	800,000	-0,022	0,047
-315,226	-200,000	0,028	-0,122
-314,212	-200,000	0,028	-0,142
-313,197	-200,000	-0,009	0,051
-312,183	-22,956	0,044	0,019
-311,168	-200,000	0,006	0,110
-310,153	218,429	-0,046	-0,054
-309,139	402,009	-0,068	-0,105
-308,124	46,097	-0,180	-0,122
-307,110	485,194	0,068	-0,113
-306,095	800,000	0,060	0,161
-305,080	-200,000	0,006	0,065
-304,066	-200,000	-0,019	0,134
-303,051	-200,000	0,026	0,106
-302,037	-105,436	-0,150	-0,025
-301,022	152,545	-0,010	-0,010
-300,008	-132,726	0,067	0,006
-298,993	134,790	-0,111	0,106
-297,978	255,081	0,045	-0,057
-296,964	109,043	-0,054	0,047
-295,949	147,207	-0,049	-0,048
-294,935	-200,000	-0,007	-0,028
-293,920	-135,391	-0,063	0,005
-292,905	163,739	0,032	0,033
-291,891	-64,476	0,104	0,031
-290,876	-154,908	0,049	-0,002
-289,862	-200,000	-0,022	0,105
-288,847	307,596	-0,121	-0,166
-287,832	-200,000	0,004	-0,045
-286,818	-130,591	0,011	-0,001
-285,803	-167,463	0,040	0,001
-284,789	-189,675	0,034	-0,000
-283,774	170,810	0,083	0,087
-282,759	800,000	0,031	-0,064
-281,745	697,400	-0,039	-0,074
-280,730	-75,309	0,132	-0,034
-279,716	-22,440	0,185	0,082
-278,701	-88,824	-0,069	0,015
-277,686	-200,000	0,005	0,107
-276,672	-200,000	0,015	0,083
-275,657	-200,000	-0,005	0,032
-274,643	-69,437	-0,091	-0,025
-273,628	-200,000	0,001	-0,181
-272,613	534,388	-0,066	-0,114
-271,599	-95,357	0,124	0,024
-270,584	24,249	-0,094	0,057
-269,570	-200,000	0,020	-0,070
-268,555	-59,007	0,126	-0,039
-267,540	-200,000	-0,029	-0,103
-266,526	800,000	-0,028	-0,077
-265,511	-200,000	-0,018	0,064
-264,497	16,708	-0,057	0,033
-263,482	-75,858	-0,085	0,022
-262,467	624,134	0,049	0,091
-261,453	-65,794	-0,127	0,037
-260,438	60,888	-0,139	-0,100
-259,424	-55,052	-0,016	-0,005
-258,409	-200,000	-0,006	-0,068
-257,395	24,328	-0,057	0,034
-256,380	800,000	-0,021	0,058
-255,365	319,345	-0,063	0,088
-254,351	24,240	0,118	0,071
-253,336	315,004	0,019	-0,027
-252,322	238,100	0,094	-0,114
-251,307	-171,595	0,012	0,000
-250,292	-200,000	0,007	-0,066
-249,278	-119,434	0,131	0,016
-248,263	160,633	0,070	-0,072
-247,249	-89,070	0,010	0,002
-246,234	-200,000	-0,012	-0,056
-245,219	134,799	0,059	0,056
-244,205	-64,302	0,133	0,039
-243,190	-154,717	0,065	-0,003
-242,176	86,005	0,038	0,030
-241,161	50,931	0,108	0,075
-240,146	-61,909	-0,052	0,016
-239,132	-88,031	-0,137	0,030
-238,117	-24,253	0,047	-0,020
-237,103	240,289	-0,071	-0,086
-236,088	142,091	0,096	-0,093
-235,073	142,239	0,092	0,089
-234,059	163,642	0,031	0,032
-233,044	23,201	0,128	-0,077
-232,030	7,838	-0,066	-0,036
-231,015	115,480	-0,040	-0,035
-230,000	-138,490	-0,099	-0,008
-228,986	-23,462	-0,101	0,044
-227,971	111,534	0,057	-0,050
-226,957	-200,000	0,001	-0,024
-225,942	53,664	0,034	0,024
-224,927	111,656	0,101	0,089
-223,913	-194,819	0,146	0,001
-222,898	-200,000	0,024	-0,124
-221,884	800,000	-0,043	0,087
-220,869	-200,000	0,007	0,034
-219,855	54,268	0,090	0,063
-218,840	386,184	0,032	-0,049
-217,825	-66,561	-0,123	0,035
-216,811	137,432	-0,042	-0,040
-215,796	-67,841	-0,030	-0,008
-214,782	800,000	-0,002	-0,006
-213,767	-154,579	0,078	-0,004
-212,752	456,665	0,070	0,114
-211,738	800,000	0,009	-0,022
-210,723	125,578	0,060	0,056
-209,709	115,639	0,062	0,055
-208,694	-27,905	-0,199	0,084
-207,679	-46,273	-0,054	-0,019
-206,665	187,489	0,049	0,054
-205,650	800,000	0,003	0,007
-204,636	800,000	-0,037	0,084
-203,621	-56,974	0,059	0,019
-202,606	55,603	-0,014	-0,010
-201,592	219,038	0,090	-0,105
-200,577	33,794	0,071	-0,045
-199,563	302,406	-0,052	0,070
-198,548	-200,000	0,037	0,157
-197,533	-200,000	0,002	0,018
-196,519	-200,000	0,038	0,207
-195,504	221,872	-0,079	0,092
-194,490	188,199	0,037	0,040
-193,475	10,451	-0,096	-0,053
-192,460	-200,000	0,011	0,071
-191,446	28,046	0,050	0,030
-190,431	53,898	-0,112	-0,078
-189,417	-200,000	0,000	-0,106
-188,402	-200,000	0,013	-0,082
-187,387	-95,808	0,016	0,003
-186,373	560,038	-0,053	0,093
-185,358	323,678	0,021	-0,029
-184,344	115,354	0,045	0,040
-183,329	89,201	0,090	0,073
-182,315	114,968	-0,069	-0,061
-181,300	-124,578	0,075	-0,008
-180,285	-87,675	-0,229	0,050
-179,271	800,000	-0,020	-0,061
-178,256	-200,000	-0,021	-0,077
-177,242	312,583	0,066	-0,091
-176,227	-50,555	-0,037	0,013
-175,212	-68,653	-0,051	0,014
-174,198	-34,058	0,089	0,036
-173,183	3,291	-0,144	-0,076
-172,169	113,144	0,003	-0,003
-171,154	-200,000	-0,002	0,016
-170,139	658,268	0,084	-0,157
-169,125	-200,000	-0,017	0,057
-168,110	-200,000	0,023	0,257
-167,096	85,238	-0,079	0,063
-166,081	-142,662	0,141	0,010
-165,066	-200,000	-0,011	-0,074
-164,052	-200,000	0,010	0,105
-163,037	118,346	0,068	0,061
-162,023	107,507	0,104	-0,090
-161,008	-200,000	-0,001	0,005
-159,993	800,000	0,034	-0,099
-158,979	-64,493	0,004	-0,001
-157,964	123,967	-0,008	0,008
-156,950	-154,293	-0,125	-0,006
-155,935	-18,619	-0,132	0,060
-154,920	110,984	0,098	0,085
-153,906	593,251	0,045	-0,081
-152,891	-200,000	-0,011	0,094
-151,877	214,049	-0,046	0,053
-150,862	76,370	0,126	-0,097
-149,847	-200,000	0,017	0,098
-148,833	176,377	-0,033	0,035
-147,818	-200,000	-0,004	-0,018
-146,804	-105,172	0,049	-0,008
-145,789	429,506	-0,014	0,021
-144,775	78,619	0,042	-0,033
-143,760	116,766	-0,138	0,124
-142,745	59,471	0,036	-0,026
-141,731	-46,741	0,065	0,023
-140,716	-50,381	-0,031	-0,011
-139,702	-38,473	0,051	-0,020
-138,687	320,433	0,031	0,043
-137,672	542,806	-0,060	-0,105
-136,658	-104,197	-0,089	0,015
-135,643	768,463	-0,044	-0,087
-134,629	800,000	-0,040	-0,122
-133,614	128,951	0,075	-0,070
-132,599	-35,134	-0,085	0,034
-131,585	102,396	-0,040	-0,034
-130,570	-56,710	0,128	0,041
-129,556	-130,736	-0,099	0,010
-128,541	-200,000	0,000	-0,088
-127,526	-131,726	-0,028	-0,003
-126,512	299,006	0,057	0,077
-125,497	800,000	0,040	0,082
-124,483	-69,220	0,083	0,023
-123,468	-200,000	0,003	0,146
-122,453	255,480	0,066	-0,083
-121,439	-200,000	0,009	0,077
-120,424	-185,232	-0,212	-0,002
-119,410	365,235	0,093	0,137
-118,395	-91,901	-0,027	-0,006
-117,380	-200,000	0,022	0,190
-116,366	-200,000	-0,005	-0,126
-115,351	800,000	-0,017	-0,053
-114,337	-200,000	0,000	-0,138
-113,322	255,879	0,038	0,047
-112,307	-200,000	0,032	0,109
-111,293	-70,659	-0,044	0,012
-110,278	-200,000	-0,028	0,203
-109,264	-200,000	-0,022	0,085
-108,249	-65,883	0,085	-0,024
-107,234	800,000	-0,036	-0,101
-106,220	143,590	0,080	-0,078
-105,205	149,125	0,022	-0,021
-104,191	20,544	0,048	-0,028
-103,176	77,896	-0,081	0,063
-102,162	-200,000	-0,004	0,051
-101,147	-200,000	0,009	-0,046
-100,132	91,105	0,037	-0,030
-99,118	506,610	0,059	0,100
-98,103	97,468	0,021	0,017
-97,089	169,096	-0,007	-0,007
-96,074	-159,814	0,115	-0,004
-95,059	-116,462	-0,159	-0,021
-94,045	-200,000	0,005	0,088
-93,030	253,231	0,043	-0,053
-92,016	800,000	-0,044	-0,090
-91,001	22,524	0,053	0,032
-89,986	229,529	0,122	0,145
-88,972	633,130	-0,022	0,042
-87,957	-200,000	-0,019	0,088
-86,943	-13,839	-0,149	-0,070
-85,928	-200,000	0,006	0,067
-84,913	-55,362	-0,120	-0,039
-83,899	12,172	0,093	-0,052
-82,884	415,373	-0,003	-0,004
-81,870	800,000	-0,036	0,087
-80,855	-80,268	0,020	-0,005
-79,840	199,364	0,081	-0,090
-78,826	199,830	-0,050	-0,056
-77,811	-108,354	-0,026	0,004
-76,797	-200,000	0,009	0,132
-75,782	-200,000	-0,034	0,159
-74,767	31,758	0,102	0,064
-73,753	-200,000	-0,015	-0,101
-72,738	121,091	0,070	-0,064
-71,724	42,295	-0,093	-0,061
-70,709	800,000	0,028	-0,078
-69,694	-200,000	-0,031	-0,135
-68,680	-15,577	-0,067	0,031
-67,665	-200,000	0,002	-0,122
-66,651	-200,000	0,016	0,053
-65,636	-200,000	-0,008	-0,050
-64,622	328,661	0,042	0,058
-63,607	-67,338	-0,137	-0,039
-62,592	630,053	-0,013	-0,024
-61,578	-72,118	0,083	0,022
-60,563	249,959	0,067	0,083
-59,549	747,184	0,070	0,138
-58,534	-150,299	-1,516	-0,083
-57,519	800,000	-0,712	-1,457
-56,505	-200,000	-0,905	-4,537
-55,490	-88,112	0,642	-0,138
-54,476	800,000	4,833	11,714
-53,461	-200,000	14,286	253,248
-52,446	-200,000	695,083	2235,156
-51,432	570,365	1624,715	2876,651
-50,417	117,149	1632,364	1453,660
-49,403	72,775	1286,107	971,971
-48,388	37,501	1022,949	656,221
-47,373	23,747	981,499	584,440
-46,359	23,015	970,849	575,678
-45,344	21,933	966,743	569,689
-44,330	21,923	965,090	568,660
-43,315	21,837	963,569	567,461
-42,300	21,800	962,659	566,781
-41,286	21,790	961,581	566,093
-40,271	21,768	960,809	565,544
-39,257	21,762	959,822	564,919
-38,242	21,776	958,775	564,328
-37,227	21,743	958,001	563,742
-36,213	21,690	957,116	563,029
-35,198	21,727	956,069	562,509
-34,184	21,824	955,448	562,434
-33,169	21,659	954,805	561,502
-32,154	21,816	953,794	561,390
-31,140	21,763	952,951	560,702
-30,125	21,809	952,104	560,329
-29,111	21,781	951,186	559,677
-28,096	21,797	950,625	559,377
-27,082	21,799	949,977	558,978
-26,067	21,844	949,145	558,611
-25,052	21,768	948,536	557,988
-24,038	21,800	947,750	557,605
-23,023	21,742	947,160	557,050
-22,009	21,786	946,575	556,825
-20,994	21,764	945,840	556,300
-19,979	21,827	945,035	556,006
-18,965	21,788	944,581	555,593
-17,950	21,788	943,962	555,207
-16,936	21,670	943,501	554,538
-15,921	21,694	942,668	554,102
-14,906	21,666	941,840	553,505
-13,892	21,654	941,348	553,155
-12,877	21,671	940,465	552,668
-11,863	21,608	940,063	552,208
-10,848	21,656	939,486	552,000
-9,833	21,721	939,174	552,003
-8,819	21,731	938,491	551,608
-7,804	21,660	937,832	550,976
-6,790	21,649	937,160	550,523
-5,775	21,697	936,421	550,220
-4,760	21,717	935,913	549,964
-3,746	21,625	935,372	549,334
-2,731	21,465	934,580	548,340
-1,717	21,476	933,915	547,964
-0,702	21,492	933,279	547,618
0,313	21,288	932,555	547,378
1,327	24,267	930,724	555,612
2,342	33,542	794,176	498,739
3,356	31,327	450,599	279,618
4,371	1,077	293,991	152,240
5,386	-3,452	275,151	138,180
6,400	-4,677	269,472	134,179
7,415	-5,077	267,064	132,599
8,429	-4,850	265,808	132,172
9,444	-4,929	264,951	131,662
10,459	-4,830	264,310	131,422
11,473	-5,003	263,808	131,003
12,488	-5,105	263,351	130,673
13,502	-5,056	262,684	130,374
14,517	-4,955	262,333	130,279
15,531	-4,901	261,851	130,078
16,546	-5,138	261,480	129,668
17,561	-5,000	261,163	129,623
18,575	-5,111	260,990	129,426
19,590	-5,031	260,543	129,265
20,604	-4,805	260,111	129,241
21,619	-4,946	259,876	128,987
22,634	-4,943	259,487	128,785
23,648	-5,382	259,370	128,324
24,663	-5,293	259,107	128,261
25,677	-5,004	258,772	128,342
26,692	-4,970	258,478	128,215
27,707	-5,248	258,315	127,875
28,721	-5,068	258,134	127,934
29,736	-5,374	257,832	127,501
30,750	-5,236	257,522	127,459
31,765	-5,244	257,221	127,292
32,780	-4,981	256,933	127,370
33,794	-5,136	256,700	127,106
34,809	-5,251	256,511	126,900
35,823	-5,212	256,448	126,892
36,838	-5,331	256,097	126,602
37,853	-5,178	255,723	126,540
38,867	-5,231	255,541	126,392
39,882	-5,333	255,467	126,255
40,896	-5,241	255,118	126,152
41,911	-5,157	254,896	126,105
42,926	-5,382	254,742	125,820
43,940	-5,244	254,520	125,820
44,955	-5,291	254,274	125,646
45,969	-5,237	253,947	125,520
46,984	-5,543	253,795	125,167
47,999	-5,620	253,558	124,972
49,013	-5,823	253,267	124,641
50,028	-5,782	252,985	124,527
51,042	-5,989	252,757	124,224
52,057	-5,865	252,562	124,224
53,071	-5,798	252,307	124,146
54,086	-5,696	252,171	124,156
55,101	-5,663	252,064	124,121
56,115	-5,546	251,920	124,140
57,130	-5,202	251,853	124,394
58,144	-4,905	251,630	124,528
59,159	-5,017	251,347	124,281
60,174	-4,979	251,126	124,194
61,188	-4,936	250,964	124,140
62,203	-5,008	250,749	123,960
63,217	-5,044	250,540	123,814
64,232	-4,958	250,317	123,767
65,247	-5,037	250,123	123,592
66,261	-5,058	249,982	123,493
67,276	-5,211	249,721	123,223
68,290	-5,337	249,252	122,872
69,305	-5,610	249,178	122,592
70,320	-5,472	249,000	122,611
71,334	-5,180	248,843	122,772
72,349	-4,992	248,871	122,936
73,363	-4,996	248,671	122,822
74,378	-5,129	248,399	122,564
75,393	-4,953	248,099	122,555
76,407	-5,202	248,077	122,321
77,422	-5,012	247,621	122,247
78,436	-5,024	247,573	122,201
79,451	-4,969	247,391	122,148
80,466	-5,477	247,165	121,595
81,480	-5,363	246,779	121,490
82,495	-5,441	246,643	121,346
83,509	-5,339	246,479	121,341
84,524	-5,449	246,239	121,120
85,539	-5,391	245,936	121,008
86,553	-5,444	245,836	120,904
87,568	-5,361	245,609	120,852
88,582	-5,234	245,471	120,879
89,597	-5,283	245,233	120,711
90,611	-5,215	245,098	120,690
91,626	-5,133	245,166	120,782
92,641	-5,108	244,829	120,626
93,655	-5,028	244,541	120,540
94,670	-5,368	244,425	120,187
95,684	-5,156	244,201	120,244
96,699	-5,263	244,103	120,096
97,714	-5,267	243,709	119,888
98,728	-5,324	243,648	119,800
99,743	-5,416	243,468	119,624
100,757	-5,420	243,182	119,469
101,772	-5,716	243,227	119,235
102,787	-5,356	242,857	119,342
103,801	-5,299	242,663	119,283
104,816	-5,005	242,533	119,452
105,830	-5,209	242,489	119,251
106,845	-5,241	242,343	119,142
107,860	-5,151	242,117	119,095
108,874	-5,080	241,872	119,022
109,889	-5,191	241,685	118,828
110,903	-5,202	241,471	118,703
111,918	-5,246	241,376	118,609
112,933	-5,295	241,191	118,467
113,947	-5,180	241,081	118,498
114,962	-5,341	240,888	118,260
115,976	-5,154	240,693	118,308
116,991	-5,429	240,528	117,989
118,006	-5,254	240,391	118,055
119,020	-5,197	240,183	117,989
120,035	-5,208	240,103	117,931
121,049	-5,029	239,895	117,965
122,064	-5,091	239,632	117,774
123,079	-5,200	239,647	117,682
124,093	-5,278	239,354	117,464
125,108	-5,105	239,028	117,434
126,122	-5,458	238,918	117,082
127,137	-5,669	238,698	116,791
128,151	-5,518	238,598	116,856
129,166	-5,459	238,479	116,835
130,181	-5,392	238,088	116,687
131,195	-5,574	238,211	116,589
132,210	-5,271	237,769	116,608
133,224	-5,194	237,629	116,591
134,239	-5,107	237,555	116,616
135,254	-5,154	237,324	116,454
136,268	-5,175	237,086	116,309
137,283	-5,689	237,046	115,864
138,297	-5,454	236,626	115,838
139,312	-5,525	236,608	115,762
140,327	-5,354	236,465	115,819
141,341	-4,917	236,459	116,158
142,356	-4,759	236,177	116,136
143,370	-4,972	236,250	115,990
144,385	-4,849	235,981	115,947
145,400	-4,897	235,779	115,799
146,414	-4,892	235,582	115,696
147,429	-4,828	235,324	115,610
148,443	-4,839	235,171	115,516
149,458	-4,838	235,216	115,529
150,473	-5,062	235,072	115,268
151,487	-4,952	234,779	115,202
152,502	-4,813	234,462	115,147
153,516	-4,784	234,481	115,169
154,531	-4,936	234,125	114,863
155,546	-4,967	234,100	114,816
156,560	-4,802	233,750	114,765
157,575	-5,176	233,614	114,391
158,589	-5,018	233,511	114,455
159,604	-4,899	233,424	114,498
160,619	-4,901	233,195	114,374
161,633	-4,703	233,168	114,507
162,648	-4,850	232,964	114,280
163,662	-4,937	232,996	114,217
164,677	-4,881	232,731	114,121
165,692	-4,831	232,477	114,026
166,706	-4,863	232,322	113,914
167,721	-4,722	232,233	113,972
168,735	-4,731	232,034	113,856
169,750	-4,946	231,958	113,639
170,764	-4,674	231,689	113,712
171,779	-4,704	231,625	113,647
172,794	-4,548	231,438	113,668
173,808	-4,931	231,296	113,287
174,823	-5,247	231,011	112,889
175,837	-5,425	230,792	112,632
176,852	-4,981	230,818	112,983
177,867	-4,911	230,630	112,936
178,881	-4,783	230,617	113,020
179,896	-4,867	230,365	112,820
180,910	-4,686	230,164	112,853
181,925	-4,870	230,077	112,657
182,940	-4,751	229,857	112,632
183,954	-4,730	229,895	112,657
184,969	-4,679	229,597	112,541
185,983	-4,573	229,455	112,543
186,998	-4,514	229,231	112,470
188,013	-4,413	229,081	112,464
189,027	-4,477	228,860	112,296
190,042	-4,760	228,893	112,082
191,056	-4,521	228,541	112,085
192,071	-4,731	228,578	111,931
193,086	-4,559	228,216	111,877
194,100	-4,710	228,178	111,731
195,115	-4,861	227,893	111,465
196,129	-5,364	227,746	110,994
197,144	-2,657	228,690	113,544
198,159	1,637	229,671	117,356
199,173	3,713	230,216	119,238
200,188	3,962	230,095	119,358
201,202	3,907	230,080	119,296
202,217	4,040	230,001	119,348
203,232	4,457	229,804	119,558
204,246	4,401	229,703	119,451
205,261	4,274	229,625	119,302
206,275	4,602	229,414	119,435
207,290	4,658	229,322	119,420
208,304	4,711	229,110	119,339
209,319	4,780	228,980	119,314
210,334	4,572	228,760	119,029
211,348	4,334	228,540	118,721
212,363	4,099	228,339	118,425
213,377	3,858	228,131	118,122
214,392	3,787	227,810	117,890
215,407	3,789	227,863	117,909
216,421	4,008	227,588	117,924
217,436	3,804	227,344	117,631
218,450	3,658	227,233	117,451
219,465	3,438	227,065	117,186
220,480	3,641	226,992	117,293
221,494	3,526	226,931	117,163
222,509	3,608	226,736	117,114
223,523	3,933	226,439	117,197
224,538	3,730	226,473	117,051
225,553	3,776	226,285	116,978
226,567	3,897	226,195	117,013
227,582	4,248	226,032	117,185
228,596	4,258	225,925	117,126
229,611	4,148	225,704	116,918
230,626	3,629	225,541	116,430
231,640	3,648	225,401	116,362
232,655	4,134	225,221	116,627
233,669	4,193	225,261	116,681
234,684	4,436	225,197	116,821
235,699	4,217	225,013	116,550
236,713	4,001	224,827	116,281
237,728	4,004	224,577	116,142
238,742	3,767	224,423	115,875
239,757	3,638	224,168	115,635
240,772	3,721	224,054	115,629
241,786	3,758	223,915	115,573
242,801	4,051	223,838	115,744
243,815	4,133	223,750	115,750
244,830	4,247	223,617	115,757
245,844	3,957	223,415	115,424
246,859	3,868	223,394	115,336
247,874	3,754	223,234	115,158
248,888	4,035	223,036	115,256
249,903	3,867	222,860	115,029
250,917	3,854	222,690	114,921
251,932	3,855	222,435	114,780
252,947	3,880	222,312	114,725
253,961	3,771	222,175	114,563
254,976	3,698	222,097	114,458
255,990	3,971	221,921	114,560
257,005	3,797	221,828	114,373
258,020	3,985	221,720	114,446
259,034	4,172	221,769	114,601
260,049	3,938	221,514	114,285
261,063	4,177	221,224	114,302
262,078	4,253	221,166	114,319
263,093	4,308	221,099	114,315
264,107	4,211	220,847	114,102
265,122	4,101	220,738	113,954
266,136	4,387	220,618	114,094
267,151	4,385	220,444	113,992
268,166	3,899	220,212	113,503
269,180	3,607	220,011	113,174
270,195	3,671	220,000	113,205
271,209	3,755	219,631	113,068
272,224	3,927	219,658	113,198
273,239	3,664	219,580	112,954
274,253	3,645	219,416	112,846
275,268	3,611	219,236	112,718
276,282	3,507	219,113	112,569
277,297	3,408	218,991	112,423
278,312	4,000	218,688	112,691
279,326	3,659	218,686	112,430
280,341	3,834	218,516	112,461
281,355	3,665	218,492	112,315
282,370	3,807	218,238	112,278
283,384	3,513	218,147	112,007
284,399	3,409	217,903	111,795
285,414	3,568	217,605	111,748
286,428	3,706	217,620	111,847
287,443	4,125	217,557	112,109
288,457	4,079	217,412	111,991
289,472	3,855	217,215	111,717
290,487	3,735	216,786	111,399
291,501	3,514	216,734	111,202
292,516	3,696	216,775	111,346
293,530	3,521	216,690	111,165
294,545	3,441	216,404	110,951
295,560	3,483	216,333	110,934
296,574	3,665	216,231	111,004
297,589	3,971	216,230	111,215
298,603	4,078	216,070	111,200
299,618	3,985	215,785	110,976
300,633	3,866	215,775	110,876
301,647	4,120	215,612	110,964
302,662	4,261	215,485	110,991
303,676	4,283	215,467	110,988
304,691	4,091	215,124	110,664
305,706	4,221	215,023	110,694
306,720	4,190	215,035	110,669
307,735	3,804	214,891	110,307
308,749	3,630	214,564	110,005
309,764	3,992	214,532	110,238
310,779	4,198	214,387	110,302
311,793	3,981	214,271	110,077
312,808	4,038	214,059	109,999
313,822	3,943	213,822	109,799
314,837	4,016	213,793	109,827
315,852	3,712	213,592	109,497
316,866	3,745	213,529	109,479
317,881	4,031	213,484	109,649
318,895	4,127	213,284	109,605
319,910	3,894	213,100	109,335
320,925	3,767	212,802	109,082
321,939	3,513	212,748	108,865
322,954	3,427	212,831	108,836
323,968	3,816	212,616	108,993
324,983	3,871	212,571	108,999
325,997	4,229	212,428	109,169
327,012	3,925	212,117	108,785
328,027	3,652	212,138	108,593
329,041	4,262	212,065	108,977
330,056	4,229	211,933	108,876
331,070	3,930	211,692	108,532
332,085	3,582	211,455	108,155
333,100	3,944	211,280	108,311
334,114	3,791	211,133	108,118
335,129	3,856	211,053	108,114
336,143	3,569	210,854	107,800
337,158	3,758	210,757	107,873
338,173	3,843	210,617	107,852
339,187	3,767	210,563	107,761
340,202	3,593	210,242	107,466
341,216	3,406	210,162	107,284
342,231	3,654	209,962	107,346
343,246	3,562	209,951	107,267
344,260	3,600	209,847	107,230
345,275	3,687	209,733	107,223
346,289	3,710	209,780	107,253
347,304	3,908	209,562	107,271
348,319	3,851	209,395	107,136
349,333	3,875	209,273	107,081
350,348	4,003	208,991	107,016
351,362	4,001	208,882	106,949
352,377	3,988	208,860	106,919
353,392	3,681	208,724	106,627
354,406	3,880	208,656	106,721
355,421	194,185	1345,006	1432,779
356,435	154,955	1483,556	1432,879
