DTS Sentinel unit serial number:	SN410029Multiplexer serial number:	ORYXHardware model number:	OX2-SRSoftware version number:	ORYX F/W v4,00 Oryx Data Collector v3.7.2.0data status	okinstallation	B6 Nyhavnadifferential loss correction	single-endedforward channel	channel 2reverse channel	N/Adate	2023/12/10time	23:35:08forward acquisition time	300,00reverse acquisition time	0,00gamma	499,1914k internal	0,3122k external	0,3122temperature offset calibration	1,0000default loss term (dB/km)	0,3820temperature slope calibration	1,0000multiplexer offset coefficient	1,0000multiplexer slope coefficient	1,0000fibre end	0,00T internal ref (°C)	22,39T ext. ref 1 (°C)	6,11T ext. ref 2 (°C)	6,12length (m)	temperature (°C)	Stokes	anti-Stokes-744,400	-66,058	0,139	0,041
-743,385	14,082	-0,180	0,104
-742,371	-35,241	0,039	0,016
-741,356	46,117	-0,199	0,137
-740,342	50,831	0,074	-0,052
-739,327	35,833	-0,294	0,192
-738,312	-200,000	0,014	-0,115
-737,298	33,883	-0,226	0,147
-736,283	-21,643	0,038	0,017
-735,269	-39,342	-0,118	0,046
-734,254	800,000	0,051	0,121
-733,239	-125,012	-0,338	-0,038
-732,225	-28,863	0,159	0,068
-731,210	800,000	-0,045	-0,114
-730,196	704,555	-0,083	-0,164
-729,181	-200,000	0,003	0,021
-728,167	800,000	-0,019	-0,051
-727,152	800,000	0,046	-0,111
-726,137	692,385	-0,055	-0,107
-725,123	587,689	0,032	-0,059
-724,108	-200,000	-0,001	0,037
-723,094	171,153	-0,066	-0,071
-722,079	-92,270	-0,197	-0,041
-721,064	80,811	0,047	-0,038
-720,050	-59,065	-0,155	0,050
-719,035	800,000	-0,023	-0,048
-718,021	-200,000	0,038	-0,164
-717,006	217,133	0,026	0,030
-715,991	-38,847	-0,126	-0,049
-714,977	518,621	0,030	-0,053
-713,962	419,187	0,025	0,040
-712,948	-12,209	-0,147	0,071
-711,933	-200,000	0,021	0,117
-710,918	449,368	-0,052	0,086
-709,904	-17,831	-0,039	0,018
-708,889	30,910	0,067	-0,043
-707,875	41,227	-0,057	0,038
-706,860	-200,000	-0,002	0,062
-705,845	686,970	-0,006	-0,011
-704,831	-40,103	-0,066	-0,025
-703,816	800,000	-0,056	0,138
-702,802	800,000	0,037	-0,087
-701,787	159,550	0,030	0,031
-700,772	337,644	0,102	-0,148
-699,758	281,207	-0,079	-0,105
-698,743	-119,063	0,150	-0,019
-697,729	-200,000	0,009	0,100
-696,714	39,803	0,066	-0,044
-695,699	-200,000	-0,057	-0,203
-694,685	-200,000	0,014	-0,229
-693,670	136,828	-0,134	-0,131
-692,656	-17,163	0,132	-0,062
-691,641	24,566	-0,127	-0,078
-690,627	-200,000	0,013	0,072
-689,612	-33,939	0,093	-0,038
-688,597	-68,979	0,054	-0,015
-687,583	50,770	-0,075	0,052
-686,568	800,000	-0,027	-0,071
-685,554	329,149	-0,096	0,138
-684,539	-200,000	-0,038	-0,199
-683,524	31,237	-0,056	0,036
-682,510	-200,000	0,018	-0,087
-681,495	-81,132	0,106	-0,026
-680,481	152,671	-0,073	-0,075
-679,466	264,410	-0,067	-0,087
-678,451	-29,398	0,119	-0,050
-677,437	74,490	-0,048	0,038
-676,422	55,115	-0,061	0,044
-675,408	171,023	-0,033	-0,035
-674,393	111,956	0,146	0,131
-673,378	-200,000	-0,008	0,057
-672,364	126,578	-0,099	-0,093
-671,349	800,000	-0,009	0,026
-670,335	318,030	0,109	0,154
-669,320	-200,000	0,019	0,064
-668,305	-56,586	0,065	0,021
-667,291	-200,000	-0,000	-0,119
-666,276	-200,000	0,001	0,005
-665,262	128,084	-0,077	-0,072
-664,247	800,000	0,052	-0,118
-663,232	-200,000	0,021	-0,085
-662,218	800,000	-0,038	-0,095
-661,203	432,663	-0,028	-0,045
-660,189	-85,575	-0,032	0,007
-659,174	-93,902	-0,236	-0,048
-658,159	331,276	0,039	-0,056
-657,145	-38,334	-0,043	0,017
-656,130	232,351	0,121	0,148
-655,116	-117,566	-0,106	-0,014
-654,101	-76,809	0,121	0,031
-653,086	-200,000	0,036	-0,146
-652,072	92,014	0,064	-0,054
-651,057	-117,009	-0,101	0,014
-650,043	800,000	-0,013	-0,040
-649,028	-119,296	-0,090	0,011
-648,014	-153,303	0,100	-0,005
-646,999	574,509	-0,050	0,090
-645,984	-38,688	0,104	-0,041
-644,970	800,000	0,051	-0,122
-643,955	-200,000	0,004	-0,071
-642,941	87,404	-0,171	-0,140
-641,926	-167,937	-0,099	-0,003
-640,911	800,000	-0,015	0,036
-639,897	-34,573	0,070	0,028
-638,882	-104,361	-0,057	-0,010
-637,868	-36,033	-0,111	0,044
-636,853	-160,125	-0,007	-0,000
-635,838	-200,000	-0,009	-0,105
-634,824	19,560	-0,089	-0,053
-633,809	800,000	0,026	-0,076
-632,795	-147,260	-0,083	-0,005
-631,780	-200,000	0,008	0,122
-630,765	467,159	-0,010	-0,016
-629,751	-65,399	-0,187	0,055
-628,736	800,000	0,027	-0,068
-627,722	547,643	-0,068	-0,121
-626,707	-11,498	0,106	-0,051
-625,692	131,812	0,088	-0,084
-624,678	-160,484	0,151	0,006
-623,663	800,000	-0,071	-0,149
-622,649	-200,000	-0,006	-0,070
-621,634	554,326	-0,016	0,029
-620,619	-200,000	0,033	0,124
-619,605	800,000	0,020	-0,054
-618,590	-94,034	0,082	0,016
-617,576	-200,000	0,007	0,044
-616,561	-94,175	0,064	-0,013
-615,546	58,093	-0,058	-0,042
-614,532	-83,776	-0,161	0,038
-613,517	-200,000	0,016	0,070
-612,503	-200,000	-0,017	0,138
-611,488	-182,335	-0,096	0,001
-610,474	170,716	0,018	0,019
-609,459	-94,894	-0,055	-0,011
-608,444	-119,408	-0,092	0,012
-607,430	-121,599	-0,052	-0,006
-606,415	-112,506	-0,064	0,009
-605,401	-200,000	-0,065	-0,000
-604,386	406,350	0,046	0,072
-603,371	-42,664	-0,090	-0,034
-602,357	-200,000	-0,026	0,134
-601,342	97,891	0,037	-0,032
-600,328	-1,274	-0,087	-0,045
-599,313	201,722	0,091	0,104
-598,298	400,087	-0,134	-0,210
-597,284	-116,489	0,114	-0,015
-596,269	130,333	-0,072	-0,068
-595,255	52,358	0,048	-0,034
-594,240	-200,000	-0,029	-0,177
-593,225	503,237	-0,101	0,174
-592,211	724,328	-0,064	-0,126
-591,196	-135,008	0,061	0,005
-590,182	-200,000	0,021	-0,111
-589,167	-23,224	0,125	0,055
-588,152	-200,000	0,017	-0,091
-587,138	370,625	0,019	0,029
-586,123	-118,422	-0,319	0,041
-585,109	-15,041	0,131	0,062
-584,094	-8,326	0,096	-0,048
-583,079	800,000	0,031	0,080
-582,065	800,000	-0,033	0,082
-581,050	108,681	0,005	-0,005
-580,036	-200,000	0,010	-0,077
-579,021	309,335	-0,036	-0,050
-578,006	284,167	0,029	-0,038
-576,992	-27,599	-0,043	0,019
-575,977	142,584	-0,044	-0,043
-574,963	72,606	0,181	0,140
-573,948	95,512	-0,089	0,075
-572,934	-200,000	-0,008	-0,028
-571,919	74,566	-0,106	-0,082
-570,904	107,297	-0,081	-0,071
-569,890	351,664	0,031	-0,046
-568,875	321,477	0,117	0,165
-567,861	112,626	0,189	0,170
-566,846	192,500	-0,118	0,132
-565,831	-200,000	-0,007	0,173
-564,817	-122,063	0,079	0,009
-563,802	208,516	0,061	0,071
-562,788	800,000	-0,030	-0,073
-561,773	-16,962	-0,061	-0,028
-560,758	379,215	0,035	-0,054
-559,744	-200,000	0,043	0,218
-558,729	-75,195	-0,171	0,045
-557,715	-41,248	-0,166	0,063
-556,700	800,000	-0,063	0,146
-555,685	-44,104	0,031	-0,011
-554,671	697,071	-0,051	-0,100
-553,656	-200,000	-0,018	0,091
-552,642	-151,035	-0,065	0,004
-551,627	-47,234	0,093	0,033
-550,612	-9,425	-0,039	0,019
-549,598	-182,606	-0,110	0,001
-548,583	-200,000	-0,003	0,093
-547,569	137,717	-0,037	-0,035
-546,554	499,946	-0,052	-0,089
-545,539	386,812	0,015	-0,023
-544,525	-37,798	0,120	0,047
-543,510	415,828	0,131	-0,207
-542,496	401,238	-0,085	-0,132
-541,481	330,094	-0,032	-0,046
-540,466	21,693	0,150	-0,090
-539,452	-56,320	0,044	-0,015
-538,437	-200,000	-0,001	0,057
-537,423	-200,000	-0,016	-0,063
-536,408	132,994	-0,057	0,054
-535,393	534,180	0,035	-0,061
-534,379	-143,316	-0,073	0,005
-533,364	584,528	0,040	-0,072
-532,350	29,785	0,015	-0,009
-531,335	-49,618	0,039	0,014
-530,321	800,000	0,036	0,097
-529,306	-200,000	0,015	0,052
-528,291	-200,000	0,042	-0,173
-527,277	-15,424	-0,155	-0,073
-526,262	47,227	0,147	0,101
-525,248	-61,016	-0,076	0,024
-524,233	-137,086	0,099	0,008
-523,218	242,588	0,025	0,031
-522,204	-200,000	-0,017	-0,082
-521,189	-200,000	-0,017	0,061
-520,175	112,550	-0,099	0,088
-519,160	800,000	0,017	-0,036
-518,145	-73,579	0,021	-0,006
-517,131	572,564	0,015	0,027
-516,116	800,000	-0,025	-0,068
-515,102	71,666	-0,035	-0,027
-514,087	-200,000	-0,015	0,089
-513,072	800,000	0,039	-0,091
-512,058	-200,000	-0,002	-0,066
-511,043	800,000	0,032	-0,075
-510,029	-158,093	0,048	0,002
-509,014	582,842	0,053	-0,097
-507,999	216,297	0,077	0,090
-506,985	-49,958	-0,078	-0,027
-505,970	84,527	0,069	-0,056
-504,956	-75,570	-0,125	0,033
-503,941	721,213	0,058	-0,115
-502,926	-200,000	0,003	-0,084
-501,912	800,000	-0,015	0,037
-500,897	65,580	0,150	0,112
-499,883	-42,001	-0,085	-0,032
-498,868	-188,068	-0,066	-0,001
-497,853	800,000	-0,089	-0,238
-496,839	800,000	0,030	0,070
-495,824	247,460	0,087	0,108
-494,810	-200,000	-0,015	0,084
-493,795	800,000	-0,053	0,114
-492,781	137,913	0,093	0,090
-491,766	-66,163	-0,063	0,018
-490,751	-143,080	-0,047	-0,003
-489,737	-55,456	-0,215	-0,071
-488,722	52,252	0,077	0,054
-487,708	208,895	0,088	-0,101
-486,693	-141,890	-0,218	-0,016
-485,678	-200,000	-0,023	0,128
-484,664	62,458	0,094	-0,069
-483,649	130,412	0,033	-0,031
-482,635	-200,000	0,013	0,086
-481,620	800,000	0,032	-0,075
-480,605	306,340	0,020	-0,027
-479,591	625,954	0,027	0,050
-478,576	-147,078	0,060	-0,004
-477,562	-78,145	0,023	-0,006
-476,547	383,293	-0,029	-0,044
-475,532	-114,292	-0,090	0,013
-474,518	6,324	0,122	-0,067
-473,503	598,027	-0,038	0,071
-472,489	350,344	-0,064	0,094
-471,474	800,000	0,064	-0,162
-470,459	-200,000	0,016	-0,070
-469,445	7,362	-0,089	0,049
-468,430	-89,063	-0,036	0,008
-467,416	211,803	0,020	0,023
-466,401	-130,894	0,072	-0,007
-465,386	384,554	-0,030	0,045
-464,372	-200,000	0,004	0,030
-463,357	-43,758	-0,098	0,036
-462,343	100,619	0,070	0,060
-461,328	800,000	-0,022	-0,071
-460,313	-95,702	-0,057	0,011
-459,299	800,000	0,036	0,100
-458,284	192,148	0,071	-0,079
-457,270	-200,000	0,013	0,049
-456,255	1,990	0,094	0,050
-455,241	280,211	-0,085	-0,113
-454,226	-110,801	-0,110	0,017
-453,211	800,000	-0,017	0,051
-452,197	0,508	0,073	-0,039
-451,182	-72,769	0,054	0,015
-450,168	-98,068	0,027	0,005
-449,153	-63,007	0,205	-0,062
-448,138	800,000	-0,029	-0,078
-447,124	-128,437	-0,055	0,006
-446,109	-200,000	-0,005	-0,017
-445,095	117,037	-0,045	0,041
-444,080	-49,282	-0,138	-0,048
-443,065	-100,870	-0,093	0,017
-442,051	240,048	-0,044	-0,054
-441,036	-200,000	-0,024	0,212
-440,022	532,026	-0,100	-0,175
-439,007	185,857	-0,036	0,040
-437,992	-48,211	0,114	0,040
-436,978	-12,939	0,107	-0,051
-435,963	298,619	0,070	0,095
-434,949	51,455	-0,063	0,044
-433,934	158,705	-0,029	0,030
-432,919	-200,000	-0,037	-0,127
-431,905	24,970	-0,029	0,018
-430,890	-200,000	0,028	0,150
-429,876	-136,396	0,118	-0,010
-428,861	96,683	0,126	0,107
-427,846	125,860	0,102	-0,095
-426,832	105,123	-0,080	0,069
-425,817	-69,465	-0,172	-0,048
-424,803	-105,817	0,020	-0,003
-423,788	11,653	0,100	-0,056
-422,773	140,097	0,070	-0,068
-421,759	256,038	0,069	-0,088
-420,744	428,071	0,058	-0,093
-419,730	-162,329	-0,112	0,004
-418,715	-200,000	-0,030	-0,150
-417,701	142,911	0,086	0,085
-416,686	27,091	-0,095	0,059
-415,671	-89,903	-0,025	-0,005
-414,657	327,702	0,054	0,077
-413,642	651,537	0,064	0,121
-412,628	-200,000	-0,037	-0,132
-411,613	800,000	-0,045	-0,115
-410,598	729,315	-0,030	-0,060
-409,584	6,830	0,050	-0,027
-408,569	-106,951	0,088	0,014
-407,555	-30,383	0,043	-0,018
-406,540	800,000	0,088	0,192
-405,525	132,591	0,052	0,050
-404,511	800,000	-0,016	0,039
-403,496	800,000	0,033	0,085
-402,482	-36,876	0,062	-0,024
-401,467	-40,273	0,197	0,075
-400,452	143,846	-0,032	0,031
-399,438	224,282	0,056	-0,066
-398,423	-109,378	-0,134	-0,021
-397,409	-19,536	-0,143	-0,065
-396,394	333,480	-0,040	-0,057
-395,379	-46,432	-0,066	0,024
-394,365	5,724	0,071	-0,039
-393,350	-200,000	0,001	0,013
-392,336	9,651	-0,035	-0,020
-391,321	155,643	0,184	0,187
-390,306	162,371	-0,039	-0,040
-389,292	-107,328	0,075	0,012
-388,277	-200,000	-0,008	-0,088
-387,263	-45,706	-0,079	-0,028
-386,248	800,000	0,024	-0,054
-385,233	-148,027	0,064	0,004
-384,219	800,000	0,055	0,115
-383,204	-200,000	-0,002	-0,122
-382,190	596,039	-0,037	-0,068
-381,175	800,000	-0,008	-0,025
-380,160	-200,000	-0,003	0,064
-379,146	441,686	0,078	0,126
-378,131	800,000	-0,033	-0,103
-377,117	730,584	-0,023	0,045
-376,102	10,723	-0,146	-0,081
-375,088	290,028	-0,113	-0,151
-374,073	77,227	0,108	-0,084
-373,058	-155,198	0,214	0,010
-372,044	306,581	0,038	0,052
-371,029	-47,051	0,080	0,029
-370,015	147,402	-0,081	0,081
-369,000	-84,594	0,044	-0,010
-367,985	102,906	0,077	-0,066
-366,971	335,716	-0,056	-0,080
-365,956	-200,000	-0,024	0,085
-364,942	-200,000	0,014	0,057
-363,927	236,309	0,017	0,021
-362,912	19,156	-0,029	0,017
-361,898	20,246	-0,082	0,049
-360,883	-200,000	-0,012	-0,056
-359,869	0,216	0,030	0,016
-358,854	-200,000	-0,000	0,136
-357,839	-121,544	-0,091	-0,011
-356,825	766,996	-0,026	-0,053
-355,810	86,807	0,024	-0,019
-354,796	160,896	-0,042	0,043
-353,781	66,720	0,048	-0,036
-352,766	1,733	-0,100	0,053
-351,752	297,922	-0,104	0,141
-350,737	298,639	0,050	0,068
-349,723	-89,122	0,109	0,023
-348,708	254,333	-0,093	-0,117
-347,693	-166,637	0,119	0,004
-346,679	91,169	-0,074	0,061
-345,664	53,540	-0,057	0,040
-344,650	567,016	0,024	0,044
-343,635	-15,510	0,126	-0,059
-342,620	255,578	0,071	0,090
-341,606	526,770	-0,036	-0,063
-340,591	151,790	0,039	0,039
-339,577	-200,000	-0,082	0,000
-338,562	-26,499	-0,133	0,057
-337,548	271,766	-0,018	0,023
-336,533	60,200	0,088	-0,064
-335,518	302,844	0,074	0,101
-334,504	-68,687	-0,104	0,029
-333,489	-146,315	0,104	-0,007
-332,475	-6,854	-0,068	-0,034
-331,460	70,534	-0,164	-0,124
-330,445	-45,348	-0,048	0,017
-329,431	-200,000	-0,005	-0,074
-328,416	350,120	0,054	-0,078
-327,402	71,564	0,148	0,113
-326,387	76,957	-0,034	0,026
-325,372	-200,000	0,031	0,128
-324,358	-200,000	0,008	0,043
-323,343	-82,917	-0,059	-0,014
-322,329	76,855	-0,062	0,048
-321,314	-200,000	0,006	-0,076
-320,299	-56,063	-0,063	0,020
-319,285	-124,353	0,032	0,004
-318,270	519,390	0,038	0,065
-317,256	-200,000	0,000	-0,109
-316,241	-68,213	0,025	-0,007
-315,226	-200,000	-0,012	0,076
-314,212	228,257	0,029	0,035
-313,197	-8,295	0,145	0,071
-312,183	10,404	0,081	-0,045
-311,168	-200,000	0,013	-0,145
-310,153	42,581	-0,115	-0,077
-309,139	-112,328	0,100	0,014
-308,124	622,496	0,037	0,069
-307,110	152,121	0,089	-0,089
-306,095	13,398	-0,055	0,031
-305,080	-200,000	-0,012	0,044
-304,066	800,000	0,024	-0,058
-303,051	-157,930	-0,107	0,005
-302,037	692,443	0,024	0,046
-301,022	15,981	0,032	0,019
-300,008	798,389	0,044	0,089
-298,993	-96,327	-0,021	0,004
-297,978	247,553	0,091	0,113
-296,964	-52,770	-0,079	-0,027
-295,949	800,000	0,012	-0,029
-294,935	-43,564	-0,043	-0,016
-293,920	800,000	0,032	0,077
-292,905	-200,000	-0,027	0,094
-291,891	-56,061	0,098	-0,032
-290,876	-200,000	0,044	-0,163
-289,862	-173,423	0,202	-0,004
-288,847	257,215	-0,091	-0,114
-287,832	-96,865	0,098	-0,019
-286,818	-139,326	0,088	-0,007
-285,803	-23,832	0,039	0,017
-284,789	346,475	0,047	0,069
-283,774	-44,588	0,029	0,011
-282,759	18,916	0,156	-0,091
-281,745	-200,000	0,006	0,050
-280,730	800,000	-0,061	-0,155
-279,716	-200,000	0,000	0,007
-278,701	89,483	-0,028	0,023
-277,686	-121,179	0,178	0,022
-276,672	-200,000	0,015	-0,067
-275,657	-200,000	-0,013	0,070
-274,643	-200,000	-0,154	0,000
-273,628	39,746	0,090	0,059
-272,613	-44,216	-0,091	-0,033
-271,599	-179,462	0,023	0,000
-270,584	-200,000	0,012	0,205
-269,570	-200,000	0,021	-0,070
-268,555	-62,573	0,055	-0,017
-267,540	-174,002	-0,100	0,002
-266,526	-141,521	-0,098	-0,007
-265,511	44,755	-0,021	0,014
-264,497	319,116	0,039	0,055
-263,482	111,332	0,079	0,070
-262,467	-9,277	0,078	-0,038
-261,453	29,278	0,039	-0,024
-260,438	2,313	-0,142	-0,075
-259,424	-0,306	-0,089	-0,046
-258,409	-89,185	-0,080	-0,017
-257,395	-30,488	0,060	0,025
-256,380	800,000	0,024	0,050
-255,365	9,234	-0,087	-0,048
-254,351	-200,000	0,021	-0,142
-253,336	-11,695	0,085	-0,041
-252,322	-200,000	-0,011	0,037
-251,307	1,789	-0,040	0,021
-250,292	-133,609	-0,108	-0,010
-249,278	791,925	-0,101	0,203
-248,263	-200,000	0,004	0,092
-247,249	7,264	-0,016	0,008
-246,234	800,000	0,016	-0,042
-245,219	57,319	-0,103	-0,073
-244,205	139,931	-0,098	-0,094
-243,190	55,434	0,063	0,045
-242,176	228,043	-0,043	0,051
-241,161	246,362	0,080	0,098
-240,146	-108,393	0,030	0,005
-239,132	358,691	-0,043	0,063
-238,117	-37,244	0,008	-0,003
-237,103	362,564	-0,067	-0,098
-236,088	-200,000	-0,023	-0,122
-235,073	130,010	0,016	-0,015
-234,059	51,443	0,016	-0,011
-233,044	150,140	0,065	0,064
-232,030	800,000	0,031	0,087
-231,015	-200,000	0,004	-0,099
-230,000	54,443	-0,070	-0,049
-228,986	203,212	-0,086	-0,097
-227,971	-200,000	-0,026	0,151
-226,957	-200,000	-0,035	0,144
-225,942	171,226	0,041	-0,043
-224,927	-75,193	0,135	0,035
-223,913	-166,962	0,077	0,002
-222,898	800,000	-0,046	-0,139
-221,884	-200,000	0,025	-0,083
-220,869	-53,645	-0,052	-0,017
-219,855	-45,029	0,175	0,063
-218,840	800,000	0,007	0,018
-217,825	143,295	0,081	-0,079
-216,811	56,674	-0,095	-0,067
-215,796	529,430	-0,088	-0,152
-214,782	298,519	-0,036	0,048
-213,767	15,915	0,037	0,021
-212,752	-91,379	0,062	0,013
-211,738	800,000	-0,028	0,069
-210,723	-200,000	-0,013	0,079
-209,709	740,879	0,044	0,087
-208,694	611,280	-0,070	0,129
-207,679	-60,229	0,184	-0,057
-206,665	249,162	-0,118	-0,147
-205,650	-70,616	-0,115	0,031
-204,636	-95,802	-0,060	0,012
-203,621	184,567	-0,083	-0,089
-202,606	800,000	0,013	-0,038
-201,592	347,202	-0,092	0,132
-200,577	800,000	0,033	-0,106
-199,563	25,046	0,068	0,041
-198,548	209,366	-0,037	0,042
-197,533	200,114	0,094	0,105
-196,519	-49,501	0,109	-0,038
-195,504	-200,000	0,010	0,081
-194,490	414,822	0,065	-0,102
-193,475	-105,631	0,062	-0,010
-192,460	-200,000	-0,002	-0,026
-191,446	8,730	0,181	0,099
-190,431	800,000	-0,020	0,049
-189,417	335,152	-0,032	-0,045
-188,402	-200,000	0,005	-0,060
-187,387	800,000	0,063	-0,141
-186,373	800,000	0,027	-0,068
-185,358	-200,000	0,021	0,108
-184,344	800,000	0,032	-0,095
-183,329	603,027	-0,049	0,088
-182,315	-200,000	-0,050	0,175
-181,300	392,467	0,039	-0,060
-180,285	10,929	-0,175	-0,097
-179,271	138,091	-0,038	-0,037
-178,256	-143,512	-0,124	-0,008
-177,242	49,206	-0,106	-0,072
-176,227	-89,405	0,076	0,016
-175,212	93,412	-0,072	0,059
-174,198	526,147	0,052	-0,089
-173,183	9,329	-0,104	0,057
-172,169	-8,467	-0,126	0,061
-171,154	-200,000	0,019	-0,081
-170,139	26,342	-0,036	-0,022
-169,125	314,520	0,045	0,062
-168,110	-200,000	-0,003	0,156
-167,096	800,000	0,031	0,084
-166,081	134,103	0,120	-0,113
-165,066	-21,528	-0,035	0,016
-164,052	800,000	-0,009	-0,022
-163,037	-200,000	-0,008	-0,040
-162,023	-30,075	0,096	-0,040
-161,008	224,977	0,077	-0,091
-159,993	224,372	-0,022	0,026
-158,979	80,672	-0,166	-0,130
-157,964	-8,912	0,073	0,035
-156,950	76,429	-0,038	0,029
-155,935	-149,569	0,022	0,001
-154,920	-19,541	0,108	0,049
-153,906	-200,000	-0,017	0,118
-152,891	102,030	0,078	0,066
-151,877	15,511	-0,066	0,038
-150,862	-71,219	-0,058	-0,016
-149,847	93,637	0,044	0,036
-148,833	-200,000	0,007	-0,084
-147,818	-42,338	0,040	0,015
-146,804	229,953	-0,060	0,072
-145,789	-160,671	0,093	-0,004
-144,775	-68,844	-0,026	-0,007
-143,760	45,993	-0,045	-0,030
-142,745	-146,302	0,122	-0,008
-141,731	-200,000	-0,029	-0,132
-140,716	-200,000	-0,003	-0,032
-139,702	99,810	-0,095	0,080
-138,687	115,667	-0,099	-0,088
-137,672	-200,000	-0,050	-0,189
-136,658	-87,089	0,077	-0,017
-135,643	141,728	0,048	-0,046
-134,629	-13,073	0,094	-0,044
-133,614	169,487	0,038	0,040
-132,599	-200,000	-0,004	0,096
-131,585	-6,722	-0,086	0,042
-130,570	-200,000	-0,051	0,165
-129,556	42,534	-0,103	0,068
-128,541	800,000	-0,041	-0,089
-127,526	-123,269	0,098	0,011
-126,512	-122,616	0,109	0,013
-125,497	464,246	0,049	0,080
-124,483	-200,000	0,001	0,009
-123,468	-200,000	-0,007	0,023
-122,453	-200,000	0,012	-0,054
-121,439	53,428	-0,092	-0,064
-120,424	211,034	-0,067	-0,077
-119,410	-127,506	-0,068	-0,007
-118,395	647,650	-0,116	0,217
-117,380	-200,000	0,015	0,063
-116,366	-9,839	-0,026	0,013
-115,351	135,156	-0,109	-0,103
-114,337	52,144	0,039	0,027
-113,322	399,940	0,072	0,110
-112,307	-36,882	0,081	-0,031
-111,293	661,159	-0,019	0,036
-110,278	609,843	0,028	0,052
-109,264	-200,000	0,004	-0,063
-108,249	781,044	-0,033	-0,066
-107,234	-200,000	-0,035	-0,139
-106,220	-200,000	-0,014	0,085
-105,205	-200,000	-0,007	0,091
-104,191	152,037	0,080	0,079
-103,176	800,000	0,063	0,132
-102,162	585,028	0,029	-0,052
-101,147	800,000	0,023	0,055
-100,132	800,000	-0,024	-0,051
-99,118	-200,000	-0,025	0,196
-98,103	800,000	-0,033	0,096
-97,089	-200,000	0,015	0,054
-96,074	336,572	0,052	0,074
-95,059	597,440	0,033	0,060
-94,045	800,000	0,008	0,023
-93,030	800,000	0,020	0,042
-92,016	513,671	-0,068	-0,116
-91,001	227,284	0,055	-0,065
-89,986	-172,852	0,029	-0,001
-88,972	72,036	0,079	-0,060
-87,957	-76,616	-0,082	0,021
-86,943	-200,000	0,004	-0,086
-85,928	800,000	-0,047	-0,132
-84,913	-93,018	0,134	0,027
-83,899	77,805	-0,020	0,015
-82,884	214,362	0,012	-0,014
-81,870	800,000	-0,024	0,075
-80,855	46,818	0,158	0,106
-79,840	-200,000	-0,004	-0,031
-78,826	-96,974	-0,061	0,011
-77,811	-200,000	-0,008	0,031
-76,797	543,794	0,067	-0,117
-75,782	-200,000	0,044	0,151
-74,767	-196,107	0,101	-0,000
-73,753	800,000	0,041	-0,097
-72,738	-131,837	-0,124	-0,012
-71,724	800,000	0,054	-0,151
-70,709	-51,260	-0,067	-0,023
-69,694	-58,635	-0,086	0,027
-68,680	-200,000	-0,014	-0,117
-67,665	-36,407	-0,046	-0,018
-66,651	-200,000	-0,001	-0,037
-65,636	800,000	0,042	0,125
-64,622	-200,000	-0,016	-0,066
-63,607	136,249	-0,050	-0,047
-62,592	800,000	-0,042	-0,102
-61,578	-60,780	0,047	0,014
-60,563	-156,014	0,065	0,003
-59,549	81,253	-0,130	-0,102
-58,534	-132,057	-1,248	-0,116
-57,519	728,745	-0,840	-1,637
-56,505	-200,000	-0,846	-4,371
-55,490	19,210	0,657	-0,382
-54,476	800,000	4,962	11,788
-53,461	-200,000	13,541	253,716
-52,446	-200,000	689,712	2261,719
-51,432	592,301	1622,526	2920,197
-50,417	119,497	1635,243	1469,419
-49,403	73,287	1289,281	977,791
-48,388	38,139	1024,327	660,177
-47,373	24,379	981,941	587,601
-46,359	23,643	971,515	578,926
-45,344	22,632	967,342	573,111
-44,330	22,553	965,881	571,966
-43,315	22,441	964,486	570,750
-42,300	22,452	963,380	570,110
-41,286	22,394	962,507	569,380
-40,271	22,388	961,509	568,749
-39,257	22,381	960,663	568,202
-38,242	22,414	959,592	567,655
-37,227	22,414	958,564	567,024
-36,213	22,420	957,871	566,609
-35,198	22,445	956,887	566,086
-34,184	22,447	956,456	565,817
-33,169	22,351	955,758	565,072
-32,154	22,432	954,505	564,568
-31,140	22,463	953,724	564,185
-30,125	22,463	952,820	563,627
-29,111	22,422	952,145	563,072
-28,096	22,470	951,266	562,685
-27,082	22,405	950,761	562,157
-26,067	22,412	949,990	561,700
-25,052	22,395	949,448	561,301
-24,038	22,453	948,537	560,927
-23,023	22,388	948,086	560,431
-22,009	22,436	947,391	560,151
-20,994	22,491	946,571	559,821
-19,979	22,451	946,180	559,440
-18,965	22,438	945,514	558,980
-17,950	22,455	944,771	558,574
-16,936	22,354	944,177	557,877
-15,921	22,375	943,377	557,449
-14,906	22,297	942,770	556,821
-13,892	22,305	942,198	556,487
-12,877	22,293	941,602	556,075
-11,863	22,232	941,060	555,539
-10,848	22,279	940,431	555,295
-9,833	22,469	939,881	555,551
-8,819	22,399	939,289	554,957
-7,804	22,342	938,608	554,350
-6,790	22,317	937,962	553,868
-5,775	22,338	937,348	553,551
-4,760	22,329	936,836	553,198
-3,746	22,341	936,312	552,904
-2,731	22,170	935,528	551,879
-1,717	22,171	934,778	551,420
-0,702	22,094	934,130	550,770
0,313	21,937	933,431	550,695
1,327	25,027	931,627	559,302
2,342	34,611	796,208	503,541
3,356	32,687	451,475	282,598
4,371	1,709	293,546	152,856
5,386	-2,801	274,453	138,636
6,400	-4,208	268,665	134,396
7,415	-4,670	266,273	132,763
8,429	-4,560	265,044	132,239
9,444	-4,411	264,185	131,935
10,459	-4,380	263,447	131,582
11,473	-4,572	262,839	131,093
12,488	-4,686	262,340	130,729
13,502	-4,748	261,906	130,445
14,517	-4,626	261,411	130,297
15,531	-4,588	261,087	130,158
16,546	-4,589	260,648	129,926
17,561	-4,729	260,328	129,630
18,575	-4,630	260,001	129,544
19,590	-4,709	259,705	129,315
20,604	-4,654	259,506	129,253
21,619	-4,779	259,193	128,974
22,634	-4,694	258,632	128,759
23,648	-4,590	258,463	128,757
24,663	-4,758	258,119	128,424
25,677	-4,577	257,860	128,445
26,692	-4,672	257,611	128,224
27,707	-4,781	257,417	128,020
28,721	-4,790	257,196	127,890
29,736	-4,808	256,976	127,754
30,750	-4,867	256,755	127,580
31,765	-4,867	256,491	127,438
32,780	-4,604	256,029	127,429
33,794	-4,749	255,898	127,224
34,809	-4,857	255,728	127,033
35,823	-4,726	255,392	126,971
36,838	-4,860	255,236	126,764
37,853	-4,791	255,019	126,705
38,867	-4,699	254,699	126,616
39,882	-4,749	254,625	126,523
40,896	-4,669	254,389	126,465
41,911	-4,945	254,131	126,084
42,926	-4,840	253,887	126,044
43,940	-4,881	253,655	125,882
44,955	-5,008	253,577	125,720
45,969	-5,046	253,388	125,583
46,984	-5,240	253,049	125,235
47,999	-5,379	252,692	124,926
49,013	-5,718	252,478	124,514
50,028	-5,614	252,335	124,523
51,042	-5,591	251,872	124,304
52,057	-5,854	251,707	123,983
53,071	-5,817	251,620	123,961
54,086	-5,581	251,372	124,032
55,101	-5,673	251,320	123,916
56,115	-5,261	251,085	124,144
57,130	-4,695	251,008	124,584
58,144	-4,380	250,810	124,746
59,159	-4,564	250,595	124,469
60,174	-4,538	250,417	124,392
61,188	-4,659	250,292	124,215
62,203	-4,691	250,014	124,038
63,217	-4,700	249,633	123,831
64,232	-4,753	249,632	123,774
65,247	-4,641	249,414	123,751
66,261	-4,682	249,253	123,625
67,276	-4,702	248,860	123,402
68,290	-4,860	248,508	123,082
69,305	-5,265	248,452	122,697
70,320	-5,237	248,268	122,620
71,334	-4,811	248,121	122,899
72,349	-4,673	248,077	122,983
73,363	-4,495	247,780	122,977
74,378	-4,651	247,595	122,741
75,393	-4,776	247,329	122,492
76,407	-4,694	247,257	122,515
77,422	-4,813	247,008	122,280
78,436	-4,629	246,792	122,317
79,451	-4,774	246,608	122,093
80,466	-4,868	246,343	121,872
81,480	-5,088	246,069	121,540
82,495	-5,107	246,027	121,492
83,509	-4,922	245,688	121,470
84,524	-4,865	245,504	121,416
85,539	-5,113	245,424	121,157
86,553	-5,115	245,115	120,992
87,568	-5,089	244,962	120,927
88,582	-5,150	244,737	120,754
89,597	-5,071	244,693	120,788
90,611	-4,951	244,371	120,719
91,626	-4,732	244,399	120,905
92,641	-4,747	244,108	120,738
93,655	-4,886	243,912	120,514
94,670	-4,635	243,642	120,579
95,684	-4,837	243,571	120,365
96,699	-4,752	243,414	120,348
97,714	-4,997	243,044	119,950
98,728	-5,087	242,885	119,786
99,743	-5,018	242,538	119,662
100,757	-5,097	242,484	119,558
101,772	-4,979	242,353	119,581
102,787	-5,051	242,230	119,450
103,801	-4,868	242,059	119,507
104,816	-4,915	241,915	119,387
105,830	-4,859	241,753	119,342
106,845	-4,893	241,822	119,337
107,860	-4,759	241,421	119,239
108,874	-4,990	241,168	118,913
109,889	-4,921	240,918	118,836
110,903	-5,069	240,782	118,636
111,918	-5,026	240,605	118,574
112,933	-5,003	240,524	118,543
113,947	-4,817	240,307	118,578
114,962	-4,898	240,196	118,446
115,976	-4,757	240,030	118,469
116,991	-4,982	239,858	118,189
118,006	-4,854	239,552	118,133
119,020	-4,879	239,654	118,152
120,035	-4,836	239,537	118,119
121,049	-4,787	239,358	118,061
122,064	-4,776	239,097	117,930
123,079	-4,806	238,792	117,745
124,093	-4,928	238,562	117,521
125,108	-5,222	238,455	117,219
126,122	-5,205	238,173	117,083
127,137	-5,402	237,989	116,822
128,151	-5,035	237,915	117,074
129,166	-5,201	237,651	116,799
130,181	-5,047	237,565	116,871
131,195	-5,168	237,265	116,614
132,210	-5,059	237,150	116,636
133,224	-4,878	237,018	116,708
134,239	-4,776	236,928	116,735
135,254	-4,878	236,860	116,609
136,268	-5,100	236,606	116,294
137,283	-5,265	236,229	115,965
138,297	-5,406	236,089	115,772
139,312	-5,162	235,810	115,822
140,327	-5,103	235,870	115,889
141,341	-4,511	235,780	116,310
142,356	-4,613	235,754	116,205
143,370	-4,351	235,510	116,285
144,385	-4,507	235,368	116,079
145,400	-4,405	235,097	116,017
146,414	-4,392	235,051	115,994
147,429	-4,323	234,843	115,936
148,443	-4,530	234,574	115,628
149,458	-4,490	234,396	115,562
150,473	-4,564	234,262	115,426
151,487	-4,657	234,099	115,262
152,502	-4,436	233,930	115,345
153,516	-4,535	233,842	115,212
154,531	-4,425	233,606	115,173
155,546	-4,548	233,466	114,996
156,560	-4,428	233,330	115,014
157,575	-4,658	233,048	114,682
158,589	-4,867	232,945	114,456
159,604	-4,397	232,843	114,767
160,619	-4,328	232,536	114,661
161,633	-4,527	232,494	114,472
162,648	-4,503	232,335	114,403
163,662	-4,419	232,158	114,371
164,677	-4,676	232,054	114,108
165,692	-4,542	231,820	114,088
166,706	-4,429	231,791	114,153
167,721	-4,412	231,632	114,077
168,735	-4,306	231,558	114,114
169,750	-4,201	231,174	113,997
170,764	-4,450	231,130	113,770
171,779	-4,407	231,043	113,750
172,794	-4,414	230,926	113,677
173,808	-4,384	230,634	113,547
174,823	-5,107	230,319	112,815
175,837	-5,138	230,062	112,655
176,852	-4,842	230,202	112,946
177,867	-4,421	229,948	113,140
178,881	-4,467	229,838	113,040
179,896	-4,233	229,670	113,130
180,910	-4,333	229,574	112,995
181,925	-3,997	229,398	113,160
182,940	-4,294	229,269	112,855
183,954	-4,235	229,009	112,763
184,969	-4,262	228,955	112,705
185,983	-4,327	228,899	112,616
186,998	-4,209	228,727	112,614
188,013	-4,117	228,563	112,594
189,027	-4,056	228,362	112,532
190,042	-4,328	228,210	112,237
191,056	-4,140	228,174	112,354
192,071	-4,250	227,981	112,164
193,086	-4,207	227,744	112,071
194,100	-4,285	227,629	111,944
195,115	-4,511	227,206	111,552
196,129	-5,304	226,912	110,786
197,144	-1,722	228,207	114,182
198,159	2,549	229,407	118,091
199,173	4,154	229,704	119,478
200,188	4,238	229,657	119,508
201,202	4,578	229,333	119,592
202,217	4,541	229,294	119,532
203,232	4,611	229,143	119,497
204,246	4,872	229,128	119,680
205,261	4,965	228,969	119,659
206,275	4,961	228,951	119,635
207,290	4,870	228,678	119,411
208,304	5,108	228,565	119,526
209,319	5,099	228,386	119,415
210,334	5,027	228,091	119,194
211,348	4,633	227,972	118,818
212,363	4,371	227,703	118,466
213,377	4,010	227,597	118,123
214,392	3,891	227,324	117,881
215,407	4,287	227,101	118,057
216,421	4,268	227,003	117,981
217,436	4,245	226,845	117,871
218,450	3,888	226,639	117,481
219,465	3,953	226,411	117,402
220,480	4,034	226,432	117,464
221,494	3,964	226,335	117,349
222,509	3,992	226,156	117,268
223,523	4,071	225,890	117,179
224,538	4,176	225,710	117,156
225,553	3,947	225,752	116,993
226,567	3,988	225,638	116,955
227,582	4,386	225,534	117,193
228,596	4,446	225,402	117,158
229,611	4,200	225,081	116,795
230,626	4,028	225,022	116,624
231,640	4,090	224,804	116,547
232,655	4,166	224,710	116,546
233,669	4,667	224,683	116,900
234,684	4,931	224,526	117,007
235,699	4,688	224,278	116,684
236,713	4,326	224,139	116,329
237,728	4,368	223,874	116,213
238,742	4,011	223,887	115,940
239,757	3,984	223,686	115,805
240,772	4,083	223,455	115,749
241,786	3,964	223,391	115,617
242,801	4,264	223,196	115,731
243,815	4,417	223,160	115,816
244,830	4,350	223,019	115,682
245,844	4,049	222,883	115,376
246,859	4,156	222,710	115,357
247,874	4,474	222,587	115,521
248,888	4,277	222,506	115,320
249,903	4,293	222,183	115,155
250,917	3,905	222,197	114,863
251,932	4,076	221,995	114,875
252,947	4,046	221,807	114,745
253,961	3,947	221,579	114,543
254,976	4,097	221,534	114,622
255,990	4,178	221,403	114,604
257,005	4,492	221,350	114,800
258,020	4,494	221,150	114,687
259,034	4,670	221,011	114,736
260,049	4,310	220,826	114,363
261,063	4,529	220,675	114,437
262,078	4,394	220,643	114,309
263,093	4,489	220,565	114,329
264,107	4,487	220,360	114,212
265,122	4,303	220,333	114,051
266,136	4,531	220,152	114,116
267,151	4,542	219,896	113,980
268,166	4,256	219,694	113,655
269,180	4,066	219,477	113,393
270,195	3,914	219,269	113,163
271,209	4,184	219,029	113,228
272,224	4,113	219,040	113,171
273,239	4,238	218,966	113,215
274,253	3,984	218,726	112,895
275,268	4,068	218,578	112,869
276,282	3,790	218,423	112,576
277,297	3,633	218,248	112,360
278,312	3,846	218,207	112,485
279,326	3,980	218,094	112,515
280,341	4,122	218,078	112,600
281,355	4,031	217,844	112,403
282,370	4,115	217,551	112,303
283,384	4,070	217,446	112,206
284,399	3,833	217,429	112,014
285,414	3,958	217,091	111,922
286,428	4,042	217,075	111,965
287,443	4,198	217,016	112,037
288,457	4,276	216,978	112,064
289,472	4,190	216,689	111,843
290,487	3,717	216,369	111,325
291,501	3,708	216,232	111,238
292,516	3,923	216,286	111,412
293,530	4,001	216,047	111,335
294,545	4,099	215,866	111,302
295,560	4,210	215,824	111,351
296,574	3,939	215,693	111,078
297,589	4,070	215,528	111,078
298,603	4,254	215,454	111,162
299,618	4,180	215,301	111,020
300,633	4,207	215,254	111,005
301,647	4,249	215,124	110,959
302,662	4,342	215,160	111,034
303,676	4,210	214,863	110,776
304,691	4,401	214,678	110,808
305,706	4,405	214,686	110,805
306,720	4,404	214,459	110,678
307,735	4,200	214,344	110,462
308,749	3,976	214,130	110,181
309,764	4,313	214,075	110,384
310,779	4,297	213,974	110,311
311,793	4,341	213,662	110,172
312,808	4,197	213,586	110,021
313,822	4,314	213,395	109,996
314,837	4,185	213,269	109,829
315,852	3,973	213,064	109,562
316,866	4,006	213,057	109,572
317,881	4,216	212,951	109,658
318,895	4,270	212,865	109,642
319,910	4,166	212,465	109,352
320,925	3,941	212,377	109,138
321,939	3,651	212,143	108,802
322,954	3,705	212,100	108,809
323,968	4,075	212,100	109,062
324,983	4,349	211,929	109,157
325,997	4,322	211,977	109,153
327,012	4,182	211,643	108,873
328,027	4,188	211,470	108,778
329,041	4,393	211,566	108,962
330,056	4,572	211,358	108,972
331,070	4,125	211,163	108,547
332,085	3,852	210,933	108,226
333,100	3,961	210,758	108,204
334,114	4,195	210,621	108,288
335,129	4,044	210,455	108,088
336,143	3,803	210,264	107,811
337,158	3,764	210,313	107,799
338,173	4,039	210,097	107,871
339,187	3,757	209,966	107,597
340,202	3,911	209,760	107,589
341,216	3,857	209,700	107,511
342,231	3,922	209,579	107,485
343,246	3,792	209,559	107,374
344,260	3,877	209,419	107,352
345,275	4,004	209,150	107,293
346,289	4,035	209,168	107,314
347,304	4,059	208,970	107,220
348,319	4,256	208,748	107,234
349,333	3,934	208,732	106,992
350,348	4,009	208,602	106,968
351,362	4,200	208,476	107,026
352,377	4,487	208,189	107,069
353,392	3,985	208,123	106,677
354,406	4,267	208,019	106,810
355,421	193,969	1346,577	1435,712
356,435	154,747	1485,410	1435,828
