DTS Sentinel unit serial number:	SN410029Multiplexer serial number:	ORYXHardware model number:	OX2-SRSoftware version number:	ORYX F/W v4,00 Oryx Data Collector v3.7.2.0data status	okinstallation	B6 Nyhavnadifferential loss correction	single-endedforward channel	channel 2reverse channel	N/Adate	2023/12/08time	17:05:09forward acquisition time	300,00reverse acquisition time	0,00gamma	499,1914k internal	0,3159k external	0,3159temperature offset calibration	1,0000default loss term (dB/km)	0,3820temperature slope calibration	1,0000multiplexer offset coefficient	1,0000multiplexer slope coefficient	1,0000fibre end	0,00T internal ref (°C)	15,15T ext. ref 1 (°C)	-1,38T ext. ref 2 (°C)	-1,39length (m)	temperature (°C)	Stokes	anti-Stokes-744,400	255,259	0,065	-0,082
-743,385	-80,780	-0,334	0,081
-742,371	97,609	0,129	0,109
-741,356	-10,082	-0,135	0,066
-740,342	-93,105	0,040	-0,008
-739,327	-153,109	-0,393	-0,020
-738,312	506,130	0,050	0,086
-737,298	-131,488	-0,389	0,037
-736,283	-200,000	-0,006	0,149
-735,269	-97,943	-0,287	-0,054
-734,254	-20,107	0,092	0,042
-733,239	-81,743	-0,461	-0,110
-732,225	-140,389	0,213	-0,016
-731,210	-72,561	-0,103	0,028
-730,196	-200,000	0,005	-0,022
-729,181	308,970	-0,135	0,186
-728,167	-49,578	-0,179	0,063
-727,152	145,678	0,085	0,084
-726,137	-200,000	-0,023	-0,088
-725,123	285,264	-0,077	-0,103
-724,108	333,926	-0,084	-0,120
-723,094	319,249	-0,178	-0,249
-722,079	128,970	-0,040	0,037
-721,064	-200,000	-0,009	0,067
-720,050	-200,000	-0,013	-0,052
-719,035	-99,527	-0,081	-0,015
-718,021	65,733	0,037	-0,027
-717,006	56,529	-0,080	0,058
-715,991	186,059	-0,059	-0,065
-714,977	-30,375	-0,041	0,017
-713,962	-200,000	0,010	-0,036
-712,948	54,848	0,085	0,060
-711,933	12,012	0,028	0,016
-710,918	-51,842	0,056	-0,019
-709,904	800,000	-0,009	-0,022
-708,889	800,000	-0,021	-0,067
-707,875	-0,374	-0,132	-0,069
-706,860	800,000	0,022	-0,063
-705,845	72,188	0,052	0,040
-704,831	-45,290	0,097	0,035
-703,816	-91,085	-0,130	0,027
-702,802	-17,487	0,136	0,063
-701,787	30,151	-0,067	-0,042
-700,772	145,139	0,092	-0,090
-699,758	74,354	0,067	-0,052
-698,743	402,054	0,071	-0,110
-697,729	-155,351	-0,090	-0,004
-696,714	-200,000	0,007	0,047
-695,699	6,440	-0,081	-0,044
-694,685	-140,845	0,038	-0,003
-693,670	399,014	0,046	-0,070
-692,656	571,678	0,058	0,105
-691,641	-0,113	0,045	-0,023
-690,627	-87,754	0,102	0,022
-689,612	624,417	-0,035	0,065
-688,597	107,979	-0,098	0,086
-687,583	-200,000	0,016	0,087
-686,568	800,000	0,040	0,115
-685,554	2,050	-0,081	-0,043
-684,539	-200,000	0,004	-0,013
-683,524	800,000	0,015	-0,033
-682,510	-91,562	0,185	-0,038
-681,495	800,000	0,021	0,058
-680,481	95,639	-0,040	0,034
-679,466	584,656	0,026	0,047
-678,451	-200,000	0,014	0,063
-677,437	800,000	-0,030	-0,075
-676,422	-200,000	-0,008	-0,053
-675,408	233,268	-0,130	-0,158
-674,393	-64,455	0,132	-0,039
-673,378	372,066	-0,100	-0,150
-672,364	-200,000	-0,021	-0,171
-671,349	800,000	0,056	0,155
-670,335	27,596	-0,206	-0,127
-669,320	-68,519	-0,087	0,025
-668,305	-200,000	-0,048	0,169
-667,291	-27,315	0,060	-0,025
-666,276	-200,000	0,000	0,027
-665,262	800,000	0,034	0,072
-664,247	275,308	-0,066	0,087
-663,232	303,456	0,025	0,035
-662,218	-200,000	0,027	0,124
-661,203	135,573	0,062	-0,059
-660,189	-77,429	-0,229	0,058
-659,174	184,752	-0,033	0,036
-658,159	-87,574	-0,112	-0,025
-657,145	-200,000	0,004	0,016
-656,130	-21,038	0,127	-0,057
-655,116	193,761	-0,050	0,056
-654,101	328,843	-0,019	0,027
-653,086	-69,814	0,048	-0,013
-652,072	-200,000	0,037	0,124
-651,057	7,951	-0,150	0,083
-650,043	-200,000	0,012	-0,104
-649,028	-200,000	0,058	0,203
-648,014	411,295	0,055	-0,086
-646,999	-200,000	0,031	-0,141
-645,984	64,077	0,047	-0,035
-644,970	-191,313	-0,207	0,002
-643,955	800,000	0,011	-0,034
-642,941	-60,367	-0,102	-0,032
-641,926	800,000	0,024	-0,048
-640,911	-200,000	0,017	0,056
-639,897	-126,217	0,073	0,008
-638,882	-200,000	0,001	0,021
-637,868	73,342	-0,182	-0,139
-636,853	-107,254	-0,097	0,015
-635,838	30,550	-0,116	-0,073
-634,824	538,929	-0,102	-0,178
-633,809	-200,000	0,022	0,079
-632,795	-200,000	-0,059	0,000
-631,780	-200,000	0,010	-0,039
-630,765	-146,400	0,096	-0,006
-629,751	-51,192	-0,118	0,040
-628,736	24,598	0,046	-0,028
-627,722	-200,000	0,008	-0,139
-626,707	-125,931	0,069	-0,008
-625,692	-200,000	-0,006	-0,112
-624,678	383,082	-0,034	-0,052
-623,663	102,028	0,007	-0,006
-622,649	-200,000	-0,022	-0,106
-621,634	574,092	-0,094	-0,168
-620,619	190,968	-0,182	-0,202
-619,605	-50,485	-0,143	-0,049
-618,590	45,068	0,023	0,016
-617,576	-145,551	0,092	0,006
-616,561	-200,000	0,025	-0,161
-615,546	-113,822	-0,035	-0,005
-614,532	-200,000	-0,015	0,112
-613,517	-52,023	-0,031	0,011
-612,503	-200,000	0,002	0,027
-611,488	-132,864	0,064	-0,006
-610,474	-178,276	-0,038	0,001
-609,459	-200,000	-0,039	-0,146
-608,444	257,406	0,069	0,088
-607,430	333,337	-0,033	0,047
-606,415	23,496	0,061	-0,037
-605,401	-143,990	-0,146	0,010
-604,386	60,443	-0,025	0,018
-603,371	-8,708	0,124	0,061
-602,357	76,273	0,057	0,044
-601,342	-200,000	0,013	0,059
-600,328	800,000	-0,023	-0,054
-599,313	-200,000	0,023	-0,110
-598,298	800,000	0,014	-0,042
-597,284	511,085	0,040	0,069
-596,269	462,547	0,081	0,133
-595,255	540,887	0,077	-0,134
-594,240	-27,701	0,057	-0,024
-593,225	800,000	0,042	-0,095
-592,211	800,000	-0,019	-0,040
-591,196	-200,000	0,016	-0,068
-590,182	175,757	-0,120	0,127
-589,167	-28,416	0,068	0,029
-588,152	-139,847	0,134	0,010
-587,138	-65,150	-0,014	-0,004
-586,123	800,000	-0,049	-0,111
-585,109	-200,000	0,000	-0,051
-584,094	800,000	0,054	-0,167
-583,079	-109,341	0,117	-0,018
-582,065	245,899	0,032	0,040
-581,050	-116,858	0,200	-0,026
-580,036	-116,517	-0,084	-0,011
-579,021	274,421	-0,080	-0,104
-578,006	800,000	-0,005	-0,011
-576,992	-200,000	-0,019	-0,147
-575,977	-85,474	0,100	0,023
-574,963	493,322	0,034	0,058
-573,948	33,208	0,010	0,006
-572,934	49,028	-0,054	-0,037
-571,919	-134,719	-0,094	-0,008
-570,904	-124,393	0,021	0,002
-569,890	-200,000	0,027	-0,125
-568,875	-200,000	0,011	-0,133
-567,861	-200,000	0,002	-0,014
-566,846	-200,000	-0,002	0,023
-565,831	356,176	-0,022	0,032
-564,817	-37,112	0,136	0,053
-563,802	190,019	-0,149	-0,164
-562,788	87,229	0,054	0,043
-561,773	-155,547	-0,009	-0,000
-560,758	224,603	-0,077	0,091
-559,744	-142,024	0,146	-0,010
-558,729	22,328	0,065	0,039
-557,715	-200,000	0,010	0,074
-556,700	175,159	-0,102	0,109
-555,685	-161,663	-0,109	-0,004
-554,671	800,000	-0,017	0,038
-553,656	-200,000	-0,025	0,082
-552,642	-197,652	0,026	-0,000
-551,627	800,000	-0,035	0,077
-550,612	655,455	0,045	-0,086
-549,598	-200,000	-0,017	-0,068
-548,583	-60,323	-0,042	-0,013
-547,569	162,943	0,047	-0,048
-546,554	-100,672	0,137	-0,024
-545,539	-94,504	-0,094	-0,019
-544,525	-200,000	-0,032	-0,151
-543,510	-15,788	0,089	-0,041
-542,496	-85,824	-0,223	0,050
-541,481	-200,000	-0,002	-0,010
-540,466	-200,000	-0,005	0,116
-539,452	-200,000	-0,007	0,106
-538,437	696,017	0,048	0,092
-537,423	-140,654	0,048	-0,004
-536,408	74,778	-0,099	0,076
-535,393	51,584	-0,125	-0,087
-534,379	800,000	-0,018	0,053
-533,364	122,967	-0,033	-0,030
-532,350	268,773	0,135	0,174
-531,335	800,000	-0,034	0,072
-530,321	-200,000	-0,007	0,060
-529,306	28,506	-0,051	0,031
-528,291	-200,000	0,002	-0,030
-527,277	455,562	-0,082	-0,134
-526,262	244,449	0,023	0,028
-525,248	-200,000	0,015	0,078
-524,233	-200,000	-0,010	0,142
-523,218	800,000	-0,042	0,111
-522,204	-200,000	-0,028	-0,164
-521,189	10,424	-0,150	0,083
-520,175	-200,000	0,001	0,077
-519,160	-200,000	-0,004	-0,108
-518,145	-200,000	-0,004	0,020
-517,131	800,000	0,021	0,052
-516,116	-200,000	0,012	0,120
-515,102	800,000	0,037	0,096
-514,087	-135,782	-0,104	0,009
-513,072	-113,542	0,118	-0,017
-512,058	800,000	-0,048	0,119
-511,043	131,517	-0,057	0,054
-510,029	269,461	0,117	0,150
-509,014	-200,000	-0,015	0,051
-507,999	166,723	-0,035	-0,036
-506,985	160,794	-0,063	-0,064
-505,970	270,598	-0,098	0,126
-504,956	800,000	-0,041	-0,096
-503,941	63,837	0,072	0,053
-502,926	25,537	0,140	-0,085
-501,912	160,643	-0,064	0,065
-500,897	-1,501	0,070	0,036
-499,883	-84,320	-0,112	0,026
-498,868	-200,000	-0,038	-0,125
-497,853	33,668	-0,040	-0,026
-496,839	-200,000	0,008	-0,145
-495,824	-83,737	0,128	-0,029
-494,810	-12,853	0,063	0,030
-493,795	-200,000	-0,032	0,111
-492,781	45,287	0,041	0,028
-491,766	-8,406	0,111	-0,054
-490,751	-200,000	0,042	-0,168
-489,737	117,952	-0,083	-0,074
-488,722	-37,910	0,088	0,034
-487,708	301,605	0,116	0,157
-486,693	800,000	-0,089	0,234
-485,678	125,212	-0,054	-0,050
-484,664	48,437	-0,088	-0,060
-483,649	800,000	-0,025	-0,051
-482,635	-200,000	0,007	-0,048
-481,620	-200,000	-0,039	0,144
-480,605	21,467	0,109	0,065
-479,591	-200,000	0,010	-0,060
-478,576	800,000	-0,018	-0,037
-477,562	-200,000	0,001	0,009
-476,547	-56,287	-0,163	-0,052
-475,532	-0,119	0,075	-0,039
-474,518	309,978	-0,062	0,084
-473,503	-200,000	0,033	0,121
-472,489	580,500	-0,056	-0,101
-471,474	-200,000	0,007	0,064
-470,459	-200,000	-0,007	0,098
-469,445	-89,170	-0,092	0,020
-468,430	-200,000	-0,030	0,150
-467,416	800,000	0,050	0,113
-466,401	800,000	0,033	0,072
-465,386	85,336	0,034	0,027
-464,372	100,598	0,037	0,032
-463,357	730,893	0,027	-0,053
-462,343	-56,785	0,011	0,004
-461,328	-200,000	-0,013	-0,149
-460,313	81,882	0,043	-0,034
-459,299	-50,188	0,075	0,026
-458,284	-145,382	0,089	-0,006
-457,270	800,000	0,043	0,125
-456,255	44,785	-0,143	-0,096
-455,241	-105,028	-0,105	0,017
-454,226	201,310	-0,065	-0,074
-453,211	800,000	-0,026	-0,054
-452,197	-134,868	0,077	0,007
-451,182	396,461	0,163	0,250
-450,168	334,568	0,054	0,077
-449,153	-79,941	-0,091	-0,022
-448,138	-200,000	0,031	0,106
-447,124	74,731	0,065	-0,050
-446,109	-192,040	-0,032	-0,000
-445,095	-115,315	0,164	0,022
-444,080	-143,785	-0,064	-0,004
-443,065	800,000	-0,036	-0,074
-442,051	421,258	-0,085	-0,133
-441,036	-39,699	0,020	-0,008
-440,022	-200,000	0,024	0,104
-439,007	-55,692	-0,096	0,031
-437,992	-200,000	0,021	0,067
-436,978	-107,036	0,055	-0,009
-435,963	182,770	-0,102	-0,110
-434,949	-200,000	0,001	-0,049
-433,934	-94,552	-0,098	-0,019
-432,919	-163,029	0,122	-0,004
-431,905	-46,230	-0,036	-0,013
-430,890	-77,405	0,030	0,008
-429,876	202,511	0,035	-0,040
-428,861	-136,407	0,089	-0,007
-427,846	203,695	0,046	-0,051
-426,832	800,000	0,023	-0,055
-425,817	-200,000	-0,011	-0,075
-424,803	-200,000	0,003	-0,015
-423,788	34,531	0,077	-0,049
-422,773	-95,789	0,044	0,008
-421,759	-200,000	-0,011	0,042
-420,744	-8,427	0,138	0,067
-419,730	36,368	0,143	0,092
-418,715	800,000	0,026	-0,076
-417,701	-55,447	0,027	-0,009
-416,686	-6,793	-0,080	-0,039
-415,671	103,416	0,040	0,034
-414,657	-200,000	-0,005	0,030
-413,642	-200,000	-0,015	-0,145
-412,628	-200,000	0,004	0,125
-411,613	-138,040	-0,141	0,011
-410,598	-122,152	0,053	-0,006
-409,584	-200,000	0,003	0,059
-408,569	111,218	0,066	0,058
-407,555	-200,000	-0,010	0,077
-406,540	800,000	-0,006	0,015
-405,525	-200,000	-0,011	-0,111
-404,511	280,100	0,053	-0,069
-403,496	-200,000	-0,016	0,095
-402,482	637,430	0,060	0,112
-401,467	-106,289	-0,031	0,005
-400,452	246,380	0,035	0,043
-399,438	255,371	-0,072	0,089
-398,423	-111,960	0,156	-0,023
-397,409	800,000	0,041	-0,115
-396,394	-78,690	-0,048	0,012
-395,379	800,000	0,048	0,114
-394,365	800,000	-0,016	-0,047
-393,350	471,160	0,084	0,137
-392,336	-35,330	0,061	-0,024
-391,321	482,546	-0,040	-0,066
-390,306	-128,938	-0,110	0,011
-389,292	-139,175	-0,177	-0,014
-388,277	-100,883	0,112	0,020
-387,263	-157,304	-0,033	-0,001
-386,248	-200,000	-0,012	0,117
-385,233	255,106	-0,055	-0,068
-384,219	-46,781	-0,100	0,035
-383,204	-200,000	-0,028	0,106
-382,190	-89,304	-0,166	-0,035
-381,175	62,335	-0,173	0,125
-380,160	-200,000	-0,028	0,157
-379,146	95,259	0,046	0,038
-378,131	800,000	0,037	-0,106
-377,117	-23,811	-0,072	-0,031
-376,102	213,460	-0,133	-0,153
-375,088	-2,542	-0,144	0,073
-374,073	521,838	-0,015	-0,026
-373,058	200,719	0,108	0,120
-372,044	-200,000	0,025	-0,085
-371,029	-64,485	0,076	0,022
-370,015	-87,638	-0,124	0,027
-369,000	-167,302	-0,098	-0,003
-367,985	-200,000	0,022	-0,200
-366,971	162,066	-0,052	-0,053
-365,956	17,920	-0,083	-0,048
-364,942	-134,317	0,078	0,007
-363,927	-11,613	-0,143	-0,068
-362,912	62,722	0,097	0,070
-361,898	121,451	0,061	-0,055
-360,883	800,000	0,015	0,042
-359,869	-200,000	0,004	0,055
-358,854	800,000	-0,028	-0,067
-357,839	-200,000	-0,035	0,157
-356,825	-200,000	0,022	0,078
-355,810	343,001	0,048	0,069
-354,796	557,391	0,045	-0,079
-353,781	309,779	-0,073	-0,099
-352,766	512,894	0,085	0,144
-351,752	-124,643	-0,026	-0,003
-350,737	-200,000	-0,032	0,222
-349,723	15,214	0,029	0,016
-348,708	464,130	0,052	0,085
-347,693	203,464	-0,085	-0,096
-346,679	-200,000	-0,022	-0,128
-345,664	474,929	0,038	-0,062
-344,650	800,000	0,036	0,099
-343,635	-200,000	-0,013	0,050
-342,620	-193,167	0,122	-0,001
-341,606	213,018	-0,075	0,086
-340,591	118,905	0,056	0,051
-339,577	-157,950	-0,116	-0,005
-338,562	-41,407	0,147	0,055
-337,548	372,108	-0,082	0,121
-336,533	38,409	0,087	0,056
-335,518	-200,000	0,001	-0,050
-334,504	56,150	0,082	-0,058
-333,489	-63,862	-0,105	0,031
-332,475	41,586	-0,088	-0,058
-331,460	-74,579	-0,057	0,015
-330,445	-200,000	-0,097	-0,000
-329,431	-26,355	0,080	0,034
-328,416	378,459	0,054	0,081
-327,402	246,472	-0,079	-0,097
-326,387	153,150	0,086	-0,086
-325,372	-200,000	0,007	-0,086
-324,358	103,453	-0,067	0,057
-323,343	-200,000	-0,014	0,080
-322,329	-200,000	-0,006	0,085
-321,314	-1,705	0,081	-0,041
-320,299	-200,000	0,029	-0,154
-319,285	-94,780	0,058	-0,011
-318,270	-93,483	-0,018	-0,004
-317,256	7,614	0,060	-0,032
-316,241	800,000	-0,049	-0,136
-315,226	800,000	-0,042	-0,089
-314,212	800,000	0,025	-0,056
-313,197	-200,000	0,017	0,076
-312,183	-200,000	-0,014	0,127
-311,168	-54,152	-0,123	-0,040
-310,153	800,000	-0,017	0,051
-309,139	800,000	0,025	-0,061
-308,124	341,740	0,076	0,108
-307,110	577,443	0,062	0,110
-306,095	-200,000	0,024	0,098
-305,080	92,522	0,084	0,069
-304,066	-102,922	0,096	0,016
-303,051	-25,221	-0,084	0,036
-302,037	109,617	0,030	0,026
-301,022	102,268	-0,034	-0,029
-300,008	36,510	0,135	0,086
-298,993	-200,000	0,010	0,072
-297,978	-102,583	-0,068	0,012
-296,964	-200,000	-0,024	-0,125
-295,949	-200,000	-0,004	-0,084
-294,935	800,000	-0,058	-0,134
-293,920	800,000	-0,016	-0,033
-292,905	175,085	0,093	0,098
-291,891	466,396	0,056	0,092
-290,876	800,000	-0,024	-0,075
-289,862	295,677	0,039	-0,052
-288,847	741,466	-0,037	-0,072
-287,832	-200,000	0,004	0,064
-286,818	159,023	-0,027	0,027
-285,803	800,000	0,048	-0,119
-284,789	41,278	0,048	0,031
-283,774	196,358	0,019	-0,021
-282,759	800,000	0,048	-0,104
-281,745	785,514	-0,063	-0,125
-280,730	-173,355	-0,126	-0,003
-279,716	28,272	-0,069	-0,042
-278,701	-200,000	-0,016	0,081
-277,686	1,818	0,017	-0,009
-276,672	-127,696	-0,037	-0,004
-275,657	-200,000	-0,006	0,112
-274,643	-189,993	0,136	0,001
-273,628	687,177	0,009	0,018
-272,613	800,000	0,043	0,094
-271,599	-133,158	0,075	-0,007
-270,584	800,000	0,025	-0,070
-269,570	38,231	0,056	0,036
-268,555	100,615	0,072	-0,061
-267,540	49,666	-0,088	0,060
-266,526	144,041	-0,057	0,055
-265,511	216,938	0,013	0,015
-264,497	77,321	-0,098	-0,075
-263,482	210,566	0,018	-0,021
-262,467	-133,934	0,095	0,008
-261,453	-133,439	0,111	0,010
-260,438	-32,636	-0,138	-0,055
-259,424	-88,588	0,102	0,022
-258,409	-200,000	-0,007	-0,080
-257,395	-200,000	0,025	-0,090
-256,380	73,277	0,051	-0,038
-255,365	-126,195	-0,035	0,004
-254,351	-103,185	-0,038	0,006
-253,336	-200,000	0,009	0,044
-252,322	-200,000	0,021	0,089
-251,307	153,360	-0,057	-0,056
-250,292	-200,000	-0,010	0,092
-249,278	-100,651	-0,053	0,009
-248,263	359,531	0,065	0,095
-247,249	18,393	0,094	-0,054
-246,234	66,700	0,091	0,067
-245,219	-128,308	-0,137	-0,014
-244,205	214,545	-0,103	-0,118
-243,190	-200,000	0,006	0,043
-242,176	-82,435	-0,046	-0,011
-241,161	800,000	-0,022	0,053
-240,146	-67,704	-0,158	0,044
-239,132	-130,965	-0,108	-0,010
-238,117	800,000	0,021	-0,054
-237,103	180,479	-0,045	-0,048
-236,088	800,000	0,027	-0,075
-235,073	-200,000	-0,014	-0,074
-234,059	-200,000	-0,000	0,081
-233,044	-32,139	0,139	0,056
-232,030	-131,011	0,066	-0,006
-231,015	-118,028	-0,141	-0,018
-230,000	134,487	0,050	-0,046
-228,986	-46,023	0,090	-0,032
-227,971	118,572	0,031	0,027
-226,957	515,259	0,039	-0,066
-225,942	-27,084	-0,034	-0,014
-224,927	-18,635	-0,064	0,029
-223,913	-105,127	-0,069	0,011
-222,898	-29,136	-0,073	0,030
-221,884	-82,004	-0,114	0,027
-220,869	-20,906	0,118	-0,052
-219,855	-200,000	0,010	0,070
-218,840	80,798	-0,069	0,053
-217,825	-47,837	-0,101	0,035
-216,811	-58,908	-0,020	-0,006
-215,796	-57,019	-0,031	0,010
-214,782	746,972	0,025	-0,049
-213,767	-31,285	-0,066	0,027
-212,752	-100,844	-0,033	0,006
-211,738	116,620	0,063	0,056
-210,723	-200,000	0,001	-0,138
-209,709	800,000	0,039	0,096
-208,694	-96,741	-0,044	0,008
-207,679	-19,763	-0,041	0,018
-206,665	-200,000	0,005	0,104
-205,650	295,682	-0,042	-0,055
-204,636	-98,534	0,043	0,008
-203,621	800,000	-0,056	0,160
-202,606	-67,505	0,077	-0,022
-201,592	-126,816	-0,032	-0,003
-200,577	-200,000	0,044	-0,144
-199,563	80,893	0,074	0,058
-198,548	-53,720	-0,088	0,029
-197,533	178,665	0,047	0,050
-196,519	7,877	0,193	0,104
-195,504	-142,404	0,119	-0,008
-194,490	-200,000	-0,042	-0,225
-193,475	-200,000	-0,019	-0,108
-192,460	19,667	0,146	0,085
-191,446	-157,118	-0,040	0,002
-190,431	18,185	0,037	0,021
-189,417	70,263	0,054	0,040
-188,402	-148,127	-0,041	-0,002
-187,387	56,642	-0,064	0,045
-186,373	718,419	0,018	0,035
-185,358	87,817	-0,067	0,053
-184,344	174,081	0,063	0,066
-183,329	232,298	0,130	-0,155
-182,315	130,623	-0,113	-0,105
-181,300	-135,527	0,182	-0,015
-180,285	-200,000	0,016	0,109
-179,271	-200,000	-0,006	-0,109
-178,256	246,362	0,060	-0,073
-177,242	98,383	-0,056	-0,046
-176,227	678,927	-0,024	0,044
-175,212	-50,071	-0,080	-0,027
-174,198	-200,000	0,006	0,043
-173,183	800,000	-0,025	0,059
-172,169	384,898	-0,047	0,071
-171,154	-200,000	0,027	-0,134
-170,139	-200,000	-0,007	-0,063
-169,125	40,789	0,046	0,030
-168,110	-200,000	0,006	0,076
-167,096	445,283	0,071	-0,113
-166,081	-200,000	0,009	-0,143
-165,066	800,000	0,018	-0,057
-164,052	800,000	-0,018	-0,040
-163,037	62,321	0,056	0,040
-162,023	800,000	0,050	-0,121
-161,008	-200,000	-0,012	-0,064
-159,993	-200,000	0,044	0,148
-158,979	-200,000	-0,020	0,066
-157,964	140,845	0,088	-0,084
-156,950	-28,100	-0,106	-0,044
-155,935	-200,000	-0,004	-0,136
-154,920	-142,164	0,060	-0,004
-153,906	-200,000	0,000	0,035
-152,891	-53,450	0,110	0,036
-151,877	-200,000	-0,002	-0,030
-150,862	800,000	0,068	-0,149
-149,847	-138,714	0,135	0,010
-148,833	103,273	-0,111	0,094
-147,818	-32,028	0,001	0,000
-146,804	74,077	0,046	0,035
-145,789	-55,979	-0,089	-0,028
-144,775	-200,000	-0,014	0,082
-143,760	-38,946	0,083	-0,031
-142,745	202,846	-0,078	-0,087
-141,731	800,000	-0,057	-0,149
-140,716	46,378	-0,042	-0,028
-139,702	800,000	0,034	0,092
-138,687	800,000	-0,041	0,084
-137,672	78,818	0,081	-0,062
-136,658	45,191	-0,115	0,076
-135,643	305,627	0,033	0,044
-134,629	-131,394	-0,131	-0,012
-133,614	-109,835	0,233	-0,035
-132,599	129,240	0,081	-0,074
-131,585	68,528	-0,123	0,091
-130,570	122,419	0,014	-0,012
-129,556	-135,050	-0,173	0,015
-128,541	138,354	-0,008	-0,008
-127,526	-200,000	-0,013	-0,053
-126,512	800,000	0,018	0,044
-125,497	160,978	-0,015	0,015
-124,483	128,146	-0,132	0,121
-123,468	-18,579	-0,104	0,047
-122,453	132,262	0,080	0,074
-121,439	-117,830	-0,140	0,018
-120,424	290,563	0,071	0,094
-119,410	-176,223	0,170	-0,003
-118,395	11,517	0,077	-0,042
-117,380	-200,000	-0,006	0,033
-116,366	-6,676	0,021	-0,010
-115,351	234,995	-0,015	0,018
-114,337	31,256	-0,025	0,015
-113,322	-100,414	-0,038	0,007
-112,307	12,614	0,100	-0,056
-111,293	275,637	-0,053	0,068
-110,278	-200,000	0,005	0,213
-109,264	-73,166	-0,055	0,014
-108,249	800,000	0,019	-0,060
-107,234	232,654	-0,091	0,107
-106,220	217,137	-0,062	-0,072
-105,205	115,679	-0,042	0,037
-104,191	-200,000	-0,006	0,117
-103,176	683,134	-0,048	0,091
-102,162	40,417	-0,072	0,047
-101,147	95,199	0,026	0,021
-100,132	800,000	0,021	-0,050
-99,118	-68,897	0,010	-0,003
-98,103	125,161	0,068	0,061
-97,089	800,000	0,071	0,170
-96,074	-200,000	-0,000	0,114
-95,059	-186,627	-0,076	0,001
-94,045	-55,944	-0,123	0,039
-93,030	-200,000	-0,018	-0,109
-92,016	-200,000	-0,020	0,067
-91,001	203,862	-0,073	0,081
-89,986	-142,430	0,036	-0,002
-88,972	800,000	0,022	0,063
-87,957	800,000	-0,010	-0,028
-86,943	-81,452	-0,087	0,020
-85,928	284,194	-0,062	0,080
-84,913	-84,691	0,071	-0,016
-83,899	-142,898	-0,058	0,004
-82,884	800,000	0,023	0,057
-81,870	-110,144	0,130	0,019
-80,855	-200,000	0,014	-0,045
-79,840	800,000	-0,030	0,077
-78,826	-42,875	-0,098	-0,035
-77,811	-67,697	0,091	-0,025
-76,797	-118,955	-0,049	-0,006
-75,782	111,016	0,060	-0,052
-74,767	739,398	-0,031	0,060
-73,753	187,315	0,104	0,111
-72,738	-149,013	0,091	0,005
-71,724	-73,406	-0,067	-0,017
-70,709	214,630	-0,044	-0,050
-69,694	800,000	0,016	0,050
-68,680	287,545	-0,120	0,157
-67,665	477,677	-0,034	0,055
-66,651	-200,000	-0,019	0,097
-65,636	33,600	0,053	-0,033
-64,622	23,329	0,098	-0,058
-63,607	-32,129	0,123	-0,049
-62,592	-85,456	-0,138	0,031
-61,578	380,632	-0,061	-0,091
-60,563	-200,000	0,029	0,137
-59,549	-200,000	-0,169	0,000
-58,534	27,828	-1,933	-1,166
-57,519	-200,000	-0,225	-0,768
-56,505	-200,000	-1,229	-5,004
-55,490	68,733	1,017	0,748
-54,476	800,000	5,188	11,514
-53,461	-200,000	17,813	289,147
-52,446	800,000	727,011	2226,143
-51,432	534,848	1639,920	2800,322
-50,417	109,154	1629,741	1398,690
-49,403	72,810	1283,269	960,129
-48,388	31,380	1025,867	630,716
-47,373	19,952	987,809	569,692
-46,359	18,236	975,867	557,168
-45,344	15,468	972,256	546,038
-44,330	15,673	970,663	545,790
-43,315	15,228	968,815	543,280
-42,300	15,157	967,787	542,450
-41,286	15,168	966,846	541,937
-40,271	15,139	965,719	541,189
-39,257	15,191	964,847	540,848
-38,242	15,165	964,244	540,406
-37,227	15,159	963,238	539,799
-36,213	15,180	962,432	539,393
-35,198	15,158	961,445	538,749
-34,184	15,214	960,777	538,534
-33,169	15,142	960,009	537,849
-32,154	15,204	958,951	537,437
-31,140	15,201	957,950	536,842
-30,125	15,275	957,145	536,609
-29,111	15,230	956,494	536,080
-28,096	15,221	955,889	535,690
-27,082	15,172	955,182	535,113
-26,067	15,196	954,344	534,699
-25,052	15,165	953,459	534,083
-24,038	15,205	952,792	533,816
-23,023	15,141	952,353	533,344
-22,009	15,184	951,521	532,996
-20,994	15,189	951,002	532,699
-19,979	15,184	950,360	532,303
-18,965	15,200	949,794	532,016
-17,950	15,156	949,055	531,442
-16,936	15,066	948,584	530,870
-15,921	15,124	947,921	530,663
-14,906	15,124	947,095	530,177
-13,892	15,112	946,424	529,742
-12,877	15,120	945,804	529,402
-11,863	15,006	945,226	528,693
-10,848	15,048	944,640	528,479
-9,833	15,186	944,177	528,638
-8,819	15,138	943,591	528,134
-7,804	15,081	943,069	527,640
-6,790	15,042	942,297	527,064
-5,775	15,076	941,755	526,849
-4,760	15,063	941,246	526,502
-3,746	15,035	940,617	526,040
-2,731	14,980	939,713	525,340
-1,717	14,979	939,027	524,934
-0,702	14,934	938,431	524,438
0,313	14,761	937,987	524,435
1,327	18,083	935,859	533,650
2,342	27,378	789,681	474,770
3,356	23,807	444,905	262,170
4,371	-5,699	296,083	144,927
5,386	-9,526	277,813	132,337
6,400	-11,151	272,259	128,165
7,415	-10,950	269,762	127,165
8,429	-10,895	268,375	126,550
9,444	-11,097	267,629	126,002
10,459	-11,061	267,019	125,736
11,473	-11,275	266,386	125,232
12,488	-11,243	265,768	124,959
13,502	-11,371	265,267	124,597
14,517	-11,360	264,826	124,388
15,531	-11,399	264,518	124,198
16,546	-11,261	263,872	124,007
17,561	-11,238	263,669	123,922
18,575	-11,060	263,285	123,891
19,590	-11,339	262,957	123,474
20,604	-11,069	262,597	123,537
21,619	-11,334	262,278	123,138
22,634	-11,262	261,911	123,019
23,648	-11,434	261,612	122,714
24,663	-11,382	261,482	122,689
25,677	-11,394	261,244	122,555
26,692	-11,373	260,967	122,433
27,707	-11,264	260,611	122,352
28,721	-11,483	260,394	122,044
29,736	-11,396	260,098	121,972
30,750	-11,341	259,751	121,848
31,765	-11,316	259,495	121,739
32,780	-11,407	259,355	121,582
33,794	-11,559	259,170	121,350
34,809	-11,388	258,982	121,402
35,823	-11,517	258,588	121,092
36,838	-11,576	258,363	120,924
37,853	-11,296	258,082	121,029
38,867	-11,463	257,757	120,719
39,882	-11,433	257,574	120,649
40,896	-11,602	257,420	120,417
41,911	-11,549	257,081	120,294
42,926	-11,524	256,904	120,222
43,940	-11,653	256,835	120,067
44,955	-11,573	256,495	119,967
45,969	-11,862	256,444	119,679
46,984	-11,814	255,887	119,451
47,999	-12,128	255,705	119,081
49,013	-12,113	255,422	118,952
50,028	-12,180	255,201	118,780
51,042	-12,093	254,852	118,683
52,057	-12,332	254,773	118,428
53,071	-12,288	254,548	118,350
54,086	-12,097	254,201	118,344
55,101	-11,994	254,192	118,418
56,115	-11,898	254,028	118,415
57,130	-11,472	253,992	118,756
58,144	-11,230	253,870	118,899
59,159	-10,978	253,518	118,940
60,174	-11,321	253,353	118,556
61,188	-11,155	253,024	118,535
62,203	-11,193	252,981	118,471
63,217	-11,301	252,770	118,269
64,232	-11,425	252,547	118,047
65,247	-11,248	252,381	118,112
66,261	-11,290	252,046	117,908
67,276	-11,535	251,770	117,558
68,290	-11,783	251,439	117,181
69,305	-11,939	251,209	116,930
70,320	-11,764	251,109	117,023
71,334	-11,500	250,915	117,148
72,349	-11,233	250,752	117,289
73,363	-11,263	250,703	117,229
74,378	-11,365	250,585	117,078
75,393	-11,256	250,171	116,966
76,407	-11,292	249,967	116,829
77,422	-11,425	249,845	116,649
78,436	-11,186	249,696	116,772
79,451	-11,304	249,382	116,514
80,466	-11,597	249,126	116,137
81,480	-11,726	248,798	115,864
82,495	-11,579	248,590	115,881
83,509	-11,636	248,599	115,827
84,524	-11,547	248,395	115,797
85,539	-11,894	248,007	115,313
86,553	-11,797	247,853	115,313
87,568	-11,605	247,595	115,344
88,582	-11,618	247,484	115,271
89,597	-11,622	247,189	115,120
90,611	-11,534	247,302	115,237
91,626	-11,416	247,067	115,215
92,641	-11,529	247,011	115,084
93,655	-11,476	246,618	114,935
94,670	-11,703	246,580	114,718
95,684	-11,620	246,330	114,661
96,699	-11,683	246,052	114,468
97,714	-11,674	245,753	114,326
98,728	-11,736	245,552	114,171
99,743	-11,838	245,430	114,018
100,757	-11,836	245,181	113,895
101,772	-11,844	245,075	113,828
102,787	-11,701	244,736	113,780
103,801	-11,603	244,727	113,847
104,816	-11,560	244,495	113,764
105,830	-11,369	244,375	113,857
106,845	-11,322	244,189	113,799
107,860	-11,520	244,052	113,561
108,874	-11,639	243,816	113,343
109,889	-11,645	243,532	113,196
110,903	-11,493	243,231	113,171
111,918	-11,683	243,258	113,016
112,933	-11,510	242,916	112,991
113,947	-11,509	242,841	112,946
114,962	-11,575	242,869	112,895
115,976	-11,572	242,505	112,718
116,991	-11,266	242,459	112,938
118,006	-11,431	242,123	112,636
119,020	-11,501	242,146	112,579
120,035	-11,250	241,991	112,703
121,049	-11,302	241,826	112,573
122,064	-11,449	241,652	112,362
123,079	-11,352	241,295	112,266
124,093	-11,650	241,200	111,967
125,108	-11,921	240,903	111,598
126,122	-11,770	240,661	111,600
127,137	-11,952	240,578	111,403
128,151	-11,823	240,247	111,345
129,166	-11,789	240,031	111,262
130,181	-11,810	240,003	111,222
131,195	-11,887	239,698	111,008
132,210	-11,706	239,613	111,106
133,224	-11,477	239,499	111,229
134,239	-11,873	239,476	110,887
135,254	-11,671	239,163	110,896
136,268	-11,540	238,807	110,827
137,283	-11,964	238,703	110,426
138,297	-11,987	238,344	110,232
139,312	-12,099	238,279	110,101
140,327	-11,850	238,312	110,308
141,341	-11,108	238,144	110,818
142,356	-11,194	238,047	110,694
143,370	-11,030	237,814	110,708
144,385	-10,976	237,700	110,688
145,400	-11,210	237,736	110,507
146,414	-11,026	237,406	110,491
147,429	-11,237	237,233	110,231
148,443	-11,098	236,966	110,209
149,458	-11,082	236,820	110,144
150,473	-11,260	236,626	109,902
151,487	-11,136	236,435	109,902
152,502	-11,208	236,348	109,795
153,516	-11,096	236,150	109,782
154,531	-11,108	235,944	109,667
155,546	-11,259	235,783	109,462
156,560	-11,154	235,564	109,434
157,575	-11,385	235,487	109,205
158,589	-11,325	235,170	109,096
159,604	-11,038	235,016	109,243
160,619	-10,829	235,019	109,400
161,633	-10,949	234,824	109,204
162,648	-11,077	234,640	109,008
163,662	-11,159	234,459	108,849
164,677	-11,441	234,323	108,553
165,692	-11,306	234,184	108,586
166,706	-10,932	233,979	108,776
167,721	-11,097	233,957	108,626
168,735	-10,904	233,858	108,722
169,750	-11,133	233,653	108,437
170,764	-11,219	233,434	108,258
171,779	-11,109	233,384	108,312
172,794	-11,063	233,172	108,240
173,808	-11,214	232,836	107,956
174,823	-11,706	232,427	107,371
175,837	-11,844	232,394	107,238
176,852	-11,153	232,348	107,748
177,867	-11,007	232,333	107,847
178,881	-10,915	231,939	107,726
179,896	-11,152	232,004	107,560
180,910	-11,071	231,953	107,591
181,925	-10,936	231,573	107,511
182,940	-10,870	231,541	107,537
183,954	-10,951	231,405	107,402
184,969	-10,960	231,252	107,314
185,983	-10,721	231,054	107,399
186,998	-10,907	230,994	107,216
188,013	-10,759	230,731	107,200
189,027	-10,799	230,568	107,083
190,042	-11,013	230,563	106,905
191,056	-10,754	230,310	106,980
192,071	-11,088	230,213	106,666
193,086	-10,930	230,045	106,701
194,100	-10,853	229,745	106,612
195,115	-11,167	229,486	106,240
196,129	-11,704	229,465	105,806
197,144	-6,570	231,113	110,547
198,159	-0,390	232,669	116,104
199,173	2,879	233,634	119,130
200,188	3,515	233,628	119,613
201,202	3,554	233,556	119,595
202,217	3,591	233,381	119,524
203,232	3,658	233,325	119,537
204,246	3,603	233,301	119,471
205,261	3,813	233,194	119,569
206,275	3,895	233,069	119,558
207,290	3,879	232,679	119,335
208,304	3,980	232,676	119,401
209,319	4,031	232,452	119,315
210,334	3,797	232,225	119,006
211,348	3,567	232,000	118,702
212,363	3,256	231,692	118,294
213,377	3,040	231,519	118,028
214,392	3,139	231,460	118,064
215,407	3,384	231,218	118,119
216,421	3,393	231,211	118,111
217,436	3,112	230,974	117,763
218,450	2,957	230,756	117,524
219,465	2,650	230,638	117,216
220,480	2,818	230,530	117,280
221,494	3,180	230,226	117,393
222,509	3,050	230,242	117,291
223,523	3,186	230,060	117,292
224,538	2,834	230,002	116,982
225,553	3,055	229,841	117,059
226,567	3,150	229,637	117,017
227,582	3,511	229,582	117,255
228,596	3,508	229,434	117,166
229,611	3,311	229,149	116,861
230,626	2,835	229,009	116,416
231,640	2,871	228,911	116,382
232,655	3,216	228,788	116,572
233,669	3,714	228,762	116,928
234,684	3,789	228,595	116,889
235,699	3,603	228,494	116,686
236,713	3,178	228,260	116,233
237,728	3,073	228,069	116,046
238,742	2,907	227,813	115,779
239,757	3,191	227,744	115,949
240,772	3,001	227,442	115,641
241,786	2,841	227,492	115,535
242,801	3,275	227,348	115,780
243,815	3,497	227,270	115,898
244,830	3,508	227,162	115,841
245,844	3,055	226,947	115,379
246,859	3,122	226,654	115,270
247,874	3,308	226,546	115,346
248,888	3,344	226,578	115,378
249,903	3,166	226,272	115,078
250,917	3,158	226,046	114,947
251,932	3,080	226,009	114,859
252,947	3,309	225,609	114,817
253,961	2,971	225,631	114,565
254,976	3,194	225,389	114,599
255,990	3,148	225,431	114,576
257,005	3,330	225,389	114,680
258,020	3,231	225,265	114,533
259,034	3,535	224,934	114,581
260,049	3,407	224,828	114,422
261,063	3,290	224,761	114,290
262,078	3,282	224,638	114,211
263,093	3,386	224,475	114,196
264,107	3,535	224,201	114,158
265,122	3,466	224,103	114,046
266,136	3,616	224,248	114,221
267,151	3,657	223,881	114,055
268,166	3,118	223,716	113,560
269,180	2,991	223,515	113,353
270,195	3,052	223,344	113,302
271,209	3,043	223,173	113,199
272,224	3,083	223,105	113,184
273,239	3,116	222,923	113,105
274,253	3,049	222,781	112,974
275,268	2,899	222,574	112,748
276,282	2,891	222,434	112,661
277,297	2,897	222,201	112,538
278,312	3,120	222,139	112,660
279,326	2,944	222,226	112,565
280,341	3,088	221,983	112,538
281,355	3,130	221,950	112,542
282,370	3,271	221,611	112,463
283,384	3,058	221,442	112,212
284,399	2,905	221,223	111,978
285,414	2,825	221,197	111,896
286,428	2,903	221,063	111,875
287,443	3,321	220,868	112,073
288,457	3,212	220,924	112,012
289,472	3,101	220,688	111,801
290,487	2,552	220,390	111,239
291,501	2,731	220,098	111,212
292,516	2,990	220,097	111,390
293,530	2,672	220,132	111,167
294,545	2,832	219,926	111,169
295,560	2,847	219,878	111,146
296,574	2,951	219,756	111,150
297,589	3,088	219,565	111,144
298,603	3,182	219,378	111,107
299,618	3,127	219,280	111,007
300,633	3,254	219,249	111,074
301,647	3,360	219,031	111,030
302,662	3,289	218,939	110,923
303,676	3,411	218,756	110,908
304,691	3,483	218,699	110,922
305,706	3,254	218,610	110,701
306,720	3,358	218,250	110,584
307,735	3,088	218,142	110,324
308,749	3,002	218,119	110,241
309,764	3,228	217,862	110,264
310,779	3,380	217,695	110,279
311,793	3,133	217,649	110,068
312,808	3,189	217,450	109,998
313,822	3,255	217,278	109,949
314,837	3,033	217,130	109,705
315,852	3,015	217,044	109,639
316,866	3,058	216,969	109,622
317,881	3,398	216,757	109,748
318,895	3,277	216,717	109,631
319,910	3,192	216,425	109,413
320,925	2,824	216,298	109,076
321,939	2,708	216,162	108,915
322,954	3,017	216,068	109,078
323,968	3,057	216,005	109,066
324,983	3,183	215,870	109,078
325,997	3,315	215,796	109,125
327,012	3,190	215,602	108,927
328,027	3,193	215,436	108,836
329,041	3,459	215,413	109,004
330,056	3,319	215,138	108,756
331,070	2,638	214,751	108,067
332,085	2,679	214,704	108,063
333,100	2,939	214,698	108,235
334,114	3,524	214,583	108,581
335,129	3,319	214,547	108,409
336,143	3,349	214,377	108,334
337,158	3,262	214,156	108,151
338,173	3,159	214,021	108,001
339,187	3,297	213,811	107,983
340,202	2,986	213,610	107,652
341,216	2,712	213,602	107,446
342,231	2,959	213,435	107,526
343,246	2,890	213,312	107,406
344,260	3,134	213,148	107,485
345,275	3,026	213,138	107,395
346,289	3,190	213,061	107,461
347,304	3,251	212,807	107,367
348,319	3,151	212,646	107,206
349,333	3,092	212,489	107,076
350,348	3,264	212,342	107,112
351,362	3,172	212,347	107,041
352,377	3,413	212,252	107,152
353,392	2,979	212,006	106,715
354,406	3,074	211,821	106,679
355,421	195,660	1339,738	1417,448
356,435	156,310	1477,138	1417,417
