DTS Sentinel unit serial number:	SN410029Multiplexer serial number:	ORYXHardware model number:	OX2-SRSoftware version number:	ORYX F/W v4,00 Oryx Data Collector v3.7.2.0data status	okinstallation	B6 Nyhavnadifferential loss correction	single-endedforward channel	channel 2reverse channel	N/Adate	2023/12/09time	08:00:08forward acquisition time	300,00reverse acquisition time	0,00gamma	499,1914k internal	0,3138k external	0,3138temperature offset calibration	1,0000default loss term (dB/km)	0,3820temperature slope calibration	1,0000multiplexer offset coefficient	1,0000multiplexer slope coefficient	1,0000fibre end	0,00T internal ref (°C)	18,51T ext. ref 1 (°C)	1,91T ext. ref 2 (°C)	1,89length (m)	temperature (°C)	Stokes	anti-Stokes-744,400	800,000	-0,047	-0,133
-743,385	-164,628	-0,225	0,007
-742,371	110,769	0,207	0,185
-741,356	312,728	-0,147	0,206
-740,342	-200,000	-0,006	-0,054
-739,327	-44,557	-0,169	0,062
-738,312	283,431	0,038	0,050
-737,298	-123,822	-0,375	-0,043
-736,283	800,000	0,035	-0,072
-735,269	14,152	-0,161	-0,093
-734,254	800,000	0,014	0,041
-733,239	-101,586	-0,458	-0,082
-732,225	-122,160	0,182	-0,022
-731,210	-200,000	0,009	0,066
-730,196	29,468	-0,043	0,027
-729,181	502,964	0,050	0,086
-728,167	-200,000	-0,014	0,064
-727,152	21,249	-0,135	0,081
-726,137	302,021	-0,070	-0,097
-725,123	56,061	0,043	-0,031
-724,108	270,414	0,052	-0,068
-723,094	35,554	-0,140	-0,091
-722,079	-55,470	-0,097	-0,032
-721,064	663,576	-0,049	0,094
-720,050	213,976	-0,067	-0,079
-719,035	-200,000	0,010	0,098
-718,021	-70,227	-0,013	0,004
-717,006	-200,000	-0,022	-0,075
-715,991	24,209	-0,092	0,056
-714,977	369,457	-0,080	0,121
-713,962	2,399	-0,014	-0,008
-712,948	29,795	0,062	0,039
-711,933	135,138	-0,075	-0,073
-710,918	84,194	-0,036	-0,030
-709,904	212,032	0,060	0,071
-708,889	489,194	-0,082	-0,140
-707,875	-200,000	0,001	-0,021
-706,860	-125,804	0,026	0,003
-705,845	97,021	-0,111	0,094
-704,831	78,796	0,085	0,068
-703,816	731,128	-0,082	-0,162
-702,802	800,000	0,048	-0,099
-701,787	-200,000	-0,014	-0,049
-700,772	100,089	-0,117	-0,100
-699,758	-113,044	-0,009	-0,001
-698,743	-34,707	0,122	0,049
-697,729	118,368	-0,046	0,042
-696,714	105,416	-0,093	-0,081
-695,699	800,000	0,009	0,026
-694,685	800,000	0,028	-0,066
-693,670	-146,838	-0,217	0,014
-692,656	549,584	-0,079	0,141
-691,641	800,000	0,027	0,069
-690,627	95,294	-0,062	-0,052
-689,612	210,760	-0,039	0,046
-688,597	-200,000	-0,044	-0,171
-687,583	31,824	-0,111	-0,070
-686,568	107,565	-0,049	-0,043
-685,554	268,566	-0,040	-0,052
-684,539	-66,925	0,155	0,045
-683,524	800,000	0,027	-0,070
-682,510	219,166	-0,052	-0,062
-681,495	-107,522	0,093	0,015
-680,481	264,795	0,066	0,086
-679,466	11,651	-0,159	-0,090
-678,451	-200,000	0,026	-0,170
-677,437	-200,000	0,003	-0,131
-676,422	33,371	0,051	0,033
-675,408	-200,000	0,007	0,052
-674,393	-147,716	0,051	0,003
-673,378	-111,714	0,093	0,014
-672,364	800,000	0,030	-0,065
-671,349	98,666	-0,097	-0,083
-670,335	11,811	-0,069	-0,039
-669,320	269,320	0,040	0,052
-668,305	-200,000	0,002	0,204
-667,291	-200,000	0,025	0,191
-666,276	-200,000	-0,006	-0,108
-665,262	-200,000	-0,004	0,026
-664,247	393,764	0,011	-0,017
-663,232	130,788	0,115	0,109
-662,218	230,468	-0,088	-0,107
-661,203	-70,326	-0,066	-0,018
-660,189	-200,000	-0,002	-0,046
-659,174	800,000	-0,034	-0,103
-658,159	-200,000	0,008	-0,040
-657,145	54,016	0,074	0,052
-656,130	114,769	-0,133	0,120
-655,116	-58,180	-0,114	-0,037
-654,101	63,846	0,156	-0,116
-653,086	-200,000	-0,010	-0,069
-652,072	-63,858	-0,086	-0,026
-651,057	330,604	0,103	-0,147
-650,043	800,000	-0,015	-0,042
-649,028	401,618	0,040	-0,063
-648,014	-41,506	0,056	-0,021
-646,999	-32,237	-0,074	0,030
-645,984	44,787	0,058	0,040
-644,970	232,183	-0,034	0,041
-643,955	115,224	-0,089	-0,080
-642,941	800,000	-0,059	-0,167
-641,926	20,835	-0,094	0,056
-640,911	458,412	0,072	-0,118
-639,897	409,807	-0,050	0,078
-638,882	32,101	0,116	0,074
-637,868	264,045	0,069	-0,089
-636,853	-200,000	-0,004	-0,015
-635,838	-17,712	-0,099	0,046
-634,824	-200,000	-0,022	-0,095
-633,809	-200,000	0,003	0,057
-632,795	800,000	-0,034	0,073
-631,780	-158,508	-0,087	0,004
-630,765	779,473	-0,042	0,085
-629,751	286,196	0,079	-0,106
-628,736	82,553	-0,020	-0,016
-627,722	247,342	0,027	-0,034
-626,707	800,000	0,009	0,028
-625,692	8,723	0,095	0,053
-624,678	117,647	-0,100	-0,091
-623,663	-54,273	0,031	-0,010
-622,649	431,998	-0,045	-0,072
-621,634	-200,000	0,028	0,093
-620,619	-200,000	-0,111	-0,000
-619,605	250,596	-0,002	0,002
-618,590	9,185	0,070	0,039
-617,576	136,814	-0,061	0,059
-616,561	59,850	0,076	0,055
-615,546	-36,486	-0,098	-0,039
-614,532	-200,000	-0,025	-0,127
-613,517	800,000	-0,080	-0,205
-612,503	195,580	0,082	-0,093
-611,488	-10,329	0,120	-0,059
-610,474	80,919	-0,014	-0,011
-609,459	-75,367	0,204	-0,053
-608,444	-65,502	-0,113	0,033
-607,430	-200,000	-0,031	-0,126
-606,415	-200,000	-0,035	-0,118
-605,401	0,763	-0,121	0,064
-604,386	88,290	0,025	0,021
-603,371	-121,213	0,062	-0,008
-602,357	-7,735	-0,112	0,056
-601,342	561,276	0,012	0,022
-600,328	49,947	0,128	-0,089
-599,313	348,170	-0,065	-0,094
-598,298	252,165	-0,071	-0,089
-597,284	216,428	0,046	0,054
-596,269	405,074	0,027	0,042
-595,255	173,400	-0,078	0,083
-594,240	-1,552	-0,175	0,091
-593,225	800,000	-0,044	-0,102
-592,211	562,271	0,084	-0,150
-591,196	-200,000	0,011	-0,037
-590,182	-130,052	0,087	0,009
-589,167	-200,000	-0,011	0,150
-588,152	599,455	-0,036	0,065
-587,138	800,000	-0,036	0,108
-586,123	-200,000	0,004	-0,147
-585,109	-200,000	0,001	0,028
-584,094	-30,496	0,046	0,019
-583,079	800,000	-0,032	0,077
-582,065	7,906	0,081	-0,045
-581,050	-34,851	0,100	0,040
-580,036	-124,617	0,042	-0,005
-579,021	-10,502	-0,084	-0,041
-578,006	55,632	-0,099	-0,071
-576,992	12,585	0,051	-0,029
-575,977	-81,939	0,054	0,013
-574,963	-200,000	0,036	0,180
-573,948	118,393	-0,091	-0,083
-572,934	311,086	0,033	0,046
-571,919	-200,000	0,016	-0,080
-570,904	130,378	0,065	-0,062
-569,890	-60,873	-0,021	0,007
-568,875	-200,000	0,013	0,092
-567,861	136,757	0,074	-0,071
-566,846	-200,000	0,025	-0,117
-565,831	-200,000	0,021	0,082
-564,817	31,490	-0,097	-0,061
-563,802	312,640	-0,059	-0,081
-562,788	436,302	-0,050	-0,080
-561,773	644,535	-0,030	-0,056
-560,758	-200,000	0,018	-0,090
-559,744	260,215	0,022	0,028
-558,729	-165,548	0,085	0,003
-557,715	177,954	0,030	-0,033
-556,700	-126,108	0,041	-0,004
-555,685	234,439	-0,095	-0,115
-554,671	143,893	-0,074	0,073
-553,656	-125,316	0,134	0,015
-552,642	-4,272	0,093	-0,047
-551,627	371,033	-0,041	-0,062
-550,612	769,747	0,061	-0,123
-549,598	70,977	-0,078	0,059
-548,583	-200,000	-0,007	-0,026
-547,569	-200,000	-0,005	-0,121
-546,554	-183,723	-0,074	-0,001
-545,539	-97,429	-0,146	0,028
-544,525	-108,475	0,088	-0,014
-543,510	800,000	-0,067	-0,141
-542,496	-73,358	-0,061	-0,016
-541,481	-32,652	-0,140	-0,057
-540,466	-100,986	-0,096	-0,017
-539,452	743,288	-0,024	0,048
-538,437	87,983	-0,066	-0,054
-537,423	323,057	0,053	0,075
-536,408	-6,425	-0,160	-0,080
-535,393	78,172	0,030	0,023
-534,379	287,496	-0,088	0,118
-533,364	189,832	0,032	-0,035
-532,350	83,956	0,048	-0,039
-531,335	-200,000	0,016	0,097
-530,321	364,395	0,013	-0,020
-529,306	603,399	-0,094	-0,173
-528,291	-200,000	0,031	-0,132
-527,277	58,271	-0,072	-0,052
-526,262	307,058	0,018	0,025
-525,248	-200,000	-0,016	0,124
-524,233	800,000	-0,055	0,129
-523,218	502,243	-0,071	0,122
-522,204	-200,000	0,008	-0,063
-521,189	800,000	-0,075	-0,195
-520,175	-32,278	0,082	0,033
-519,160	-146,410	0,111	-0,007
-518,145	-76,374	0,053	0,014
-517,131	-91,176	-0,031	0,006
-516,116	-34,470	0,066	0,027
-515,102	-101,356	-0,082	0,015
-514,087	-116,425	-0,042	-0,006
-513,072	504,921	-0,053	0,090
-512,058	-200,000	0,016	-0,063
-511,043	-27,389	0,106	0,045
-510,029	-64,696	-0,105	-0,031
-509,014	-69,685	-0,050	0,014
-507,999	220,046	-0,037	0,043
-506,985	110,320	-0,090	-0,079
-505,970	-59,486	0,087	-0,027
-504,956	37,391	0,105	-0,068
-503,941	244,086	0,094	0,116
-502,926	223,293	-0,051	0,060
-501,912	-200,000	0,033	0,156
-500,897	-76,744	-0,106	0,027
-499,883	-101,213	0,099	0,018
-498,868	800,000	-0,005	-0,015
-497,853	-200,000	0,006	-0,088
-496,839	13,805	0,049	0,028
-495,824	-66,792	0,098	-0,028
-494,810	379,641	0,043	-0,065
-493,795	-56,235	-0,092	0,030
-492,781	269,454	-0,020	-0,025
-491,766	2,423	0,050	-0,026
-490,751	45,430	-0,059	-0,040
-489,737	30,697	0,068	0,043
-488,722	724,166	0,023	-0,046
-487,708	-29,592	-0,113	-0,047
-486,693	-200,000	-0,012	0,110
-485,678	606,254	-0,019	-0,035
-484,664	800,000	-0,005	0,013
-483,649	287,954	-0,032	-0,043
-482,635	800,000	-0,054	-0,125
-481,620	517,880	0,064	0,110
-480,605	-40,000	-0,007	-0,003
-479,591	-111,080	0,034	-0,005
-478,576	-118,453	0,116	0,015
-477,562	-97,839	-0,111	0,021
-476,547	800,000	-0,036	-0,110
-475,532	70,399	0,034	0,026
-474,518	22,368	0,042	-0,025
-473,503	108,950	-0,095	0,084
-472,489	27,419	0,083	0,051
-471,474	189,812	-0,072	-0,080
-470,459	800,000	-0,018	-0,053
-469,445	-133,253	-0,046	0,004
-468,430	800,000	0,016	0,042
-467,416	800,000	0,055	0,146
-466,401	-8,564	-0,078	-0,038
-465,386	-100,776	0,067	0,012
-464,372	403,415	0,034	-0,052
-463,357	31,100	-0,067	-0,042
-462,343	-200,000	0,004	0,085
-461,328	800,000	-0,050	-0,124
-460,313	10,953	-0,078	0,044
-459,299	-116,225	0,055	0,007
-458,284	-72,611	0,038	0,010
-457,270	142,723	0,102	0,100
-456,255	180,815	0,099	0,106
-455,241	-17,267	-0,060	-0,028
-454,226	52,952	0,063	0,044
-453,211	36,622	-0,100	-0,065
-452,197	154,242	0,010	0,010
-451,182	800,000	0,036	0,113
-450,168	164,594	0,057	0,059
-449,153	800,000	-0,045	-0,103
-448,138	-97,082	-0,077	0,015
-447,124	456,766	-0,055	-0,090
-446,109	185,229	0,019	0,021
-445,095	83,453	0,103	0,082
-444,080	87,370	0,095	0,077
-443,065	216,632	0,056	0,065
-442,051	154,975	-0,054	-0,055
-441,036	193,830	-0,120	-0,133
-440,022	430,249	0,047	-0,075
-439,007	-200,000	-0,001	-0,018
-437,992	90,165	0,084	0,069
-436,978	-6,573	0,062	0,031
-435,963	374,080	-0,041	-0,062
-434,949	-200,000	0,003	-0,034
-433,934	85,617	-0,069	0,055
-432,919	-85,470	-0,121	0,027
-431,905	-119,712	0,062	0,008
-430,890	-200,000	-0,030	0,145
-429,876	203,826	0,135	0,153
-428,861	23,148	0,057	-0,034
-427,846	-200,000	0,003	-0,038
-426,832	800,000	-0,015	-0,037
-425,817	-19,914	-0,075	-0,034
-424,803	-82,922	-0,084	-0,020
-423,788	800,000	0,063	0,137
-422,773	102,881	0,091	0,078
-421,759	76,588	-0,035	0,027
-420,744	655,028	-0,024	-0,045
-419,730	172,640	-0,050	0,053
-418,715	800,000	0,017	-0,049
-417,701	-142,403	0,158	-0,011
-416,686	309,385	0,054	0,075
-415,671	-109,985	0,145	0,022
-414,657	-34,181	0,172	0,069
-413,642	81,441	0,042	0,033
-412,628	-14,595	0,048	0,023
-411,613	800,000	0,018	-0,044
-410,598	-116,534	-0,094	-0,013
-409,584	-146,390	0,108	0,007
-408,569	-13,688	0,071	0,034
-407,555	261,675	0,110	0,140
-406,540	-200,000	0,002	0,103
-405,525	-200,000	0,013	-0,154
-404,511	-200,000	-0,011	-0,039
-403,496	800,000	-0,028	-0,061
-402,482	-117,854	-0,075	-0,010
-401,467	800,000	-0,023	-0,051
-400,452	-52,228	0,062	-0,021
-399,438	-33,505	-0,105	-0,042
-398,423	-200,000	0,025	0,087
-397,409	-200,000	0,007	0,049
-396,394	742,356	0,041	-0,081
-395,379	-200,000	-0,013	-0,064
-394,365	800,000	-0,016	0,048
-393,350	17,733	0,198	0,115
-392,336	36,304	0,144	0,092
-391,321	800,000	0,054	-0,130
-390,306	-35,415	-0,082	0,032
-389,292	-200,000	0,010	-0,041
-388,277	31,354	0,097	0,061
-387,263	800,000	0,008	0,023
-386,248	-20,930	0,097	0,043
-385,233	800,000	0,056	0,121
-384,219	571,852	-0,012	0,022
-383,204	-75,292	-0,082	-0,021
-382,190	107,746	-0,080	0,070
-381,175	800,000	0,056	-0,119
-380,160	-25,932	-0,130	-0,056
-379,146	800,000	0,018	0,052
-378,131	-99,514	-0,012	0,002
-377,117	-48,220	0,109	0,038
-376,102	-200,000	0,008	-0,050
-375,088	-89,730	-0,080	0,017
-374,073	202,480	0,027	-0,030
-373,058	380,707	0,068	0,102
-372,044	-87,604	0,006	0,001
-371,029	87,108	-0,021	0,017
-370,015	800,000	0,015	-0,042
-369,000	-200,000	-0,001	0,067
-367,985	-33,164	-0,136	-0,055
-366,971	47,305	-0,103	-0,070
-365,956	800,000	0,015	-0,038
-364,942	269,890	-0,021	0,027
-363,927	-132,780	0,097	0,009
-362,912	-85,980	-0,095	-0,021
-361,898	-200,000	0,008	-0,088
-360,883	-95,159	0,113	0,022
-359,869	-200,000	-0,002	-0,015
-358,854	239,604	0,043	-0,052
-357,839	361,758	0,077	0,113
-356,825	109,806	0,049	-0,043
-355,810	800,000	0,040	0,106
-354,796	-95,920	-0,041	-0,008
-353,781	45,213	-0,040	-0,027
-352,766	94,585	-0,036	0,030
-351,752	-77,000	0,088	-0,022
-350,737	800,000	-0,089	0,193
-349,723	-200,000	0,004	0,080
-348,708	800,000	-0,017	0,050
-347,693	800,000	-0,014	-0,032
-346,679	192,503	-0,040	0,045
-345,664	800,000	-0,007	-0,022
-344,650	449,766	-0,003	-0,005
-343,635	-14,435	-0,062	0,029
-342,620	-1,208	-0,026	0,014
-341,606	-52,642	-0,041	0,014
-340,591	30,955	-0,110	0,069
-339,577	-102,140	-0,174	-0,030
-338,562	271,715	-0,015	0,019
-337,548	-72,333	0,062	0,017
-336,533	-200,000	-0,003	0,022
-335,518	584,458	0,015	0,027
-334,504	23,255	-0,151	0,090
-333,489	9,644	-0,038	0,021
-332,475	91,455	-0,094	0,077
-331,460	66,862	0,068	-0,050
-330,445	-200,000	-0,008	0,046
-329,431	-54,453	0,152	0,050
-328,416	219,130	-0,050	0,058
-327,402	173,353	0,108	0,114
-326,387	-200,000	-0,023	0,077
-325,372	464,237	-0,076	-0,125
-324,358	266,778	-0,126	0,161
-323,343	270,454	-0,031	-0,040
-322,329	-16,603	-0,011	0,005
-321,314	800,000	0,011	0,035
-320,299	6,808	0,064	-0,034
-319,285	-40,804	0,039	-0,015
-318,270	800,000	-0,035	0,072
-317,256	-16,673	0,109	0,050
-316,241	131,759	-0,073	-0,069
-315,226	800,000	0,008	0,027
-314,212	-200,000	0,042	0,140
-313,197	63,746	-0,037	0,027
-312,183	132,682	0,044	-0,041
-311,168	-85,905	-0,138	-0,031
-310,153	-173,858	-0,083	0,002
-309,139	800,000	-0,018	-0,038
-308,124	181,611	0,048	-0,052
-307,110	800,000	0,029	-0,074
-306,095	-200,000	0,033	0,146
-305,080	92,200	0,062	0,051
-304,066	8,622	0,095	0,052
-303,051	-67,910	0,121	0,034
-302,037	-148,357	0,008	0,000
-301,022	-141,523	0,060	-0,004
-300,008	800,000	0,029	-0,084
-298,993	695,690	0,053	0,101
-297,978	395,924	-0,072	-0,110
-296,964	-123,128	-0,082	0,009
-295,949	-200,000	-0,021	0,071
-294,935	793,581	0,063	-0,126
-293,920	800,000	-0,032	-0,098
-292,905	-106,776	-0,050	0,008
-291,891	378,610	0,032	0,048
-290,876	98,545	0,064	0,054
-289,862	0,044	-0,034	0,018
-288,847	-200,000	-0,002	0,058
-287,832	800,000	0,031	-0,071
-286,818	-200,000	-0,023	0,140
-285,803	236,281	0,070	0,085
-284,789	124,930	0,138	0,126
-283,774	4,608	0,081	-0,043
-282,759	-50,779	0,091	0,031
-281,745	89,639	-0,101	0,082
-280,730	-0,019	0,011	-0,006
-279,716	8,512	0,111	-0,061
-278,701	716,429	0,050	-0,098
-277,686	-200,000	-0,003	0,062
-276,672	-200,000	-0,007	0,036
-275,657	-89,033	-0,042	0,009
-274,643	-137,108	-0,077	-0,006
-273,628	-151,182	-0,129	0,007
-272,613	164,712	0,031	-0,032
-271,599	-200,000	0,043	0,171
-270,584	-200,000	-0,005	0,119
-269,570	120,066	0,009	0,008
-268,555	105,335	-0,061	-0,053
-267,540	800,000	0,018	-0,055
-266,526	426,162	-0,082	-0,129
-265,511	-154,920	0,057	-0,003
-264,497	-99,275	-0,046	-0,008
-263,482	-90,984	-0,068	0,014
-262,467	-200,000	0,006	0,183
-261,453	-200,000	0,038	0,151
-260,438	143,813	0,033	-0,032
-259,424	800,000	0,041	-0,083
-258,409	800,000	-0,036	0,074
-257,395	61,509	0,073	-0,053
-256,380	340,624	-0,086	-0,123
-255,365	-140,552	0,100	-0,007
-254,351	-56,617	-0,075	0,024
-253,336	800,000	-0,046	-0,147
-252,322	-53,810	-0,062	-0,021
-251,307	-104,750	-0,062	0,010
-250,292	618,630	0,035	-0,064
-249,278	8,537	0,082	0,045
-248,263	-200,000	-0,011	0,165
-247,249	-200,000	-0,002	-0,066
-246,234	40,860	-0,024	-0,016
-245,219	-136,181	0,164	0,014
-244,205	252,433	-0,028	-0,035
-243,190	-200,000	-0,010	-0,065
-242,176	132,444	-0,108	0,102
-241,161	-196,026	0,039	-0,000
-240,146	800,000	-0,040	-0,102
-239,132	800,000	0,056	-0,118
-238,117	-3,230	-0,123	-0,062
-237,103	-200,000	-0,000	-0,042
-236,088	435,681	0,086	-0,136
-235,073	800,000	-0,017	-0,047
-234,059	-58,829	0,134	-0,042
-233,044	250,606	-0,058	0,072
-232,030	-65,448	0,024	-0,007
-231,015	-200,000	-0,024	-0,132
-230,000	800,000	-0,057	-0,176
-228,986	-161,727	-0,051	0,002
-227,971	-136,397	0,203	0,017
-226,957	-200,000	0,003	0,148
-225,942	231,553	-0,108	-0,129
-224,927	306,283	0,053	0,071
-223,913	-200,000	0,011	-0,093
-222,898	800,000	0,017	0,043
-221,884	-200,000	0,031	0,116
-220,869	138,825	-0,131	0,125
-219,855	-200,000	-0,030	0,166
-218,840	424,689	-0,014	-0,022
-217,825	517,446	-0,039	-0,066
-216,811	-96,397	0,103	0,020
-215,796	-200,000	-0,027	-0,087
-214,782	800,000	0,030	-0,065
-213,767	-200,000	-0,020	-0,126
-212,752	249,142	0,011	-0,014
-211,738	5,876	-0,164	0,088
-210,723	800,000	0,035	0,091
-209,709	502,109	-0,030	-0,050
-208,694	800,000	0,028	-0,080
-207,679	151,070	0,046	-0,046
-206,665	-200,000	0,003	-0,068
-205,650	108,411	-0,034	0,030
-204,636	800,000	-0,060	0,155
-203,621	-200,000	0,006	0,116
-202,606	800,000	-0,025	0,063
-201,592	-32,012	0,172	-0,070
-200,577	-200,000	-0,004	0,040
-199,563	800,000	-0,033	0,080
-198,548	-152,694	0,174	-0,009
-197,533	-77,836	-0,055	0,014
-196,519	800,000	-0,023	-0,054
-195,504	-186,249	-0,123	0,001
-194,490	-85,479	-0,090	0,020
-193,475	-148,502	-0,014	0,001
-192,460	800,000	0,015	0,040
-191,446	130,023	-0,119	0,111
-190,431	800,000	0,030	-0,070
-189,417	-176,402	-0,109	0,002
-188,402	-19,975	-0,037	-0,016
-187,387	-136,241	-0,124	0,010
-186,373	800,000	-0,061	-0,129
-185,358	56,765	0,132	-0,093
-184,344	400,577	0,068	-0,104
-183,329	29,601	-0,034	-0,021
-182,315	800,000	-0,063	0,184
-181,300	-156,295	-0,163	0,007
-180,285	67,494	-0,036	-0,026
-179,271	6,945	-0,023	-0,013
-178,256	800,000	-0,027	0,084
-177,242	-114,184	-0,034	0,005
-176,227	54,903	-0,073	0,051
-175,212	800,000	-0,023	0,056
-174,198	30,545	0,028	0,017
-173,183	-131,413	-0,093	0,009
-172,169	800,000	0,074	-0,170
-171,154	-76,410	0,159	-0,040
-170,139	-175,022	-0,072	0,001
-169,125	-59,476	0,219	-0,068
-168,110	58,129	0,075	0,053
-167,096	-1,743	-0,084	-0,043
-166,081	-91,402	0,057	-0,012
-165,066	-53,547	0,102	-0,034
-164,052	685,790	-0,053	0,100
-163,037	184,419	0,022	0,024
-162,023	-200,000	0,007	-0,046
-161,008	-200,000	0,035	-0,147
-159,993	800,000	0,008	0,017
-158,979	-117,911	-0,095	0,012
-157,964	800,000	0,033	-0,085
-156,950	-200,000	0,031	-0,116
-155,935	-27,913	0,028	-0,012
-154,920	80,547	0,101	-0,079
-153,906	-59,538	0,089	-0,027
-152,891	800,000	0,064	0,149
-151,877	-10,521	-0,109	-0,052
-150,862	263,276	-0,060	0,075
-149,847	96,052	0,042	0,034
-148,833	38,492	0,017	0,011
-147,818	-105,829	-0,072	-0,012
-146,804	42,645	-0,052	0,034
-145,789	-200,000	-0,001	-0,018
-144,775	157,143	-0,019	-0,019
-143,760	72,928	0,080	-0,061
-142,745	148,821	-0,176	-0,173
-141,731	-200,000	-0,025	-0,178
-140,716	-200,000	-0,022	0,090
-139,702	36,327	0,082	-0,053
-138,687	171,962	0,063	0,065
-137,672	-8,875	-0,066	0,032
-136,658	-171,230	-0,047	-0,001
-135,643	-109,702	0,125	0,019
-134,629	-129,954	0,098	0,010
-133,614	695,073	0,044	0,084
-132,599	800,000	0,017	-0,038
-131,585	-117,735	0,185	0,024
-130,570	-62,381	0,054	0,016
-129,556	-200,000	-0,012	0,169
-128,541	-39,240	-0,010	0,004
-127,526	104,333	0,085	0,072
-126,512	36,626	-0,022	-0,014
-125,497	40,245	0,084	0,054
-124,483	210,447	-0,084	0,096
-123,468	-200,000	0,002	0,056
-122,453	-200,000	-0,009	-0,160
-121,439	-200,000	0,008	0,089
-120,424	-200,000	-0,014	-0,111
-119,410	-161,102	0,180	-0,007
-118,395	114,283	-0,149	0,131
-117,380	76,879	0,098	-0,075
-116,366	-181,357	0,091	0,001
-115,351	-83,404	-0,100	0,023
-114,337	-200,000	-0,022	-0,084
-113,322	52,185	0,048	0,033
-112,307	-200,000	-0,010	-0,056
-111,293	800,000	-0,039	-0,078
-110,278	-176,899	0,117	-0,002
-109,264	59,040	-0,054	-0,038
-108,249	288,242	-0,081	0,106
-107,234	-123,863	0,068	-0,008
-106,220	243,534	0,049	-0,060
-105,205	-31,676	-0,062	-0,025
-104,191	543,505	0,060	0,104
-103,176	145,755	0,059	0,057
-102,162	153,232	0,133	0,131
-101,147	800,000	-0,042	-0,105
-100,132	-121,976	0,025	0,003
-99,118	-27,994	-0,060	-0,025
-98,103	140,418	0,081	-0,078
-97,089	-90,015	0,064	-0,013
-96,074	-46,902	-0,028	-0,010
-95,059	70,966	-0,044	0,033
-94,045	133,663	0,019	0,018
-93,030	-128,497	-0,092	0,009
-92,016	-200,000	0,019	-0,068
-91,001	492,857	0,031	0,051
-89,986	30,226	0,094	-0,058
-88,972	124,065	0,080	0,072
-87,957	243,252	0,092	-0,112
-86,943	70,538	-0,164	0,122
-85,928	61,155	0,048	0,034
-84,913	8,202	-0,094	-0,051
-83,899	-200,000	-0,001	-0,142
-82,884	-37,649	-0,030	-0,011
-81,870	226,879	0,093	0,109
-80,855	115,272	0,029	0,026
-79,840	-91,422	-0,164	0,034
-78,826	-165,054	-0,035	0,001
-77,811	-200,000	-0,002	0,025
-76,797	-200,000	-0,011	-0,063
-75,782	-75,605	0,117	0,030
-74,767	-109,650	0,099	0,015
-73,753	800,000	0,030	0,074
-72,738	-7,453	-0,043	0,021
-71,724	263,231	0,063	-0,080
-70,709	-200,000	0,001	-0,043
-69,694	-97,368	0,057	0,011
-68,680	-180,056	0,114	-0,002
-67,665	139,411	0,030	0,028
-66,651	626,019	0,020	-0,037
-65,636	800,000	-0,025	0,065
-64,622	-19,941	0,136	0,061
-63,607	166,592	0,061	-0,063
-62,592	693,030	-0,076	-0,145
-61,578	-200,000	-0,023	0,073
-60,563	58,256	-0,049	-0,034
-59,549	800,000	0,013	0,028
-58,534	-12,925	-1,775	-0,831
-57,519	800,000	-0,437	-1,063
-56,505	-200,000	-1,073	-4,692
-55,490	-174,361	0,596	-0,012
-54,476	800,000	5,281	12,347
-53,461	-200,000	15,993	280,394
-52,446	-200,000	703,467	2250,799
-51,432	563,609	1619,576	2843,202
-50,417	121,585	1623,690	1461,381
-49,403	82,127	1284,087	1004,244
-48,388	36,805	1028,324	654,833
-47,373	21,604	990,341	580,359
-46,359	20,525	979,034	570,152
-45,344	18,873	974,737	562,194
-44,330	18,868	973,490	561,436
-43,315	18,597	971,740	559,516
-42,300	18,628	970,853	559,084
-41,286	18,512	969,923	558,147
-40,271	18,547	968,760	557,570
-39,257	18,555	968,103	557,195
-38,242	18,599	967,162	556,776
-37,227	18,534	966,552	556,190
-36,213	18,491	965,648	555,508
-35,198	18,533	964,692	555,074
-34,184	18,600	964,118	554,937
-33,169	18,467	963,281	554,003
-32,154	18,603	962,260	553,833
-31,140	18,595	961,321	553,246
-30,125	18,671	960,497	552,998
-29,111	18,595	959,881	552,374
-28,096	18,629	958,968	551,936
-27,082	18,541	958,577	551,405
-26,067	18,506	957,704	550,769
-25,052	18,534	957,032	550,448
-24,038	18,576	956,028	549,986
-23,023	18,507	955,450	549,409
-22,009	18,546	954,910	549,202
-20,994	18,549	954,250	548,811
-19,979	18,523	953,815	548,456
-18,965	18,592	952,933	548,148
-17,950	18,556	952,549	547,789
-16,936	18,472	951,855	547,099
-15,921	18,456	951,123	546,604
-14,906	18,449	950,353	546,119
-13,892	18,457	949,603	545,693
-12,877	18,388	949,079	545,147
-11,863	18,377	948,448	544,729
-10,848	18,374	948,116	544,507
-9,833	18,523	947,456	544,584
-8,819	18,487	946,754	544,043
-7,804	18,454	946,094	543,536
-6,790	18,379	945,619	543,002
-5,775	18,466	944,848	542,816
-4,760	18,466	944,395	542,534
-3,746	18,401	943,960	542,055
-2,731	18,220	943,162	541,000
-1,717	18,266	942,262	540,609
-0,702	18,281	941,530	540,214
0,313	18,091	941,013	540,130
1,327	21,186	939,370	548,945
2,342	30,205	796,498	489,481
3,356	27,003	449,263	271,262
4,371	-2,792	294,959	148,256
5,386	-6,786	276,278	135,062
6,400	-8,245	270,688	130,959
7,415	-8,338	268,056	129,588
8,429	-8,289	266,894	129,060
9,444	-8,182	265,935	128,683
10,459	-8,215	265,385	128,375
11,473	-8,341	264,757	127,945
12,488	-8,548	264,331	127,539
13,502	-8,574	263,851	127,272
14,517	-8,502	263,266	127,045
15,531	-8,230	262,878	127,091
16,546	-8,136	262,579	127,021
17,561	-8,426	262,181	126,556
18,575	-8,180	261,841	126,602
19,590	-8,342	261,410	126,237
20,604	-8,227	261,217	126,235
21,619	-8,193	260,729	126,019
22,634	-8,379	260,548	125,754
23,648	-8,334	260,139	125,585
24,663	-8,447	260,066	125,437
25,677	-8,389	259,821	125,360
26,692	-8,318	259,606	125,308
27,707	-8,347	259,153	125,052
28,721	-8,444	259,020	124,891
29,736	-8,418	258,751	124,773
30,750	-8,448	258,529	124,628
31,765	-8,433	258,292	124,516
32,780	-8,474	257,998	124,327
33,794	-8,466	257,818	124,237
34,809	-8,387	257,374	124,081
35,823	-8,640	257,383	123,851
36,838	-8,600	256,986	123,684
37,853	-8,514	256,734	123,627
38,867	-8,367	256,535	123,650
39,882	-8,565	256,242	123,324
40,896	-8,585	256,197	123,274
41,911	-8,314	255,789	123,304
42,926	-8,597	255,625	122,966
43,940	-8,483	255,423	122,958
44,955	-8,616	255,088	122,669
45,969	-8,574	254,925	122,616
46,984	-8,987	254,679	122,126
47,999	-8,946	254,398	122,016
49,013	-9,243	254,181	121,643
50,028	-9,549	254,016	121,286
51,042	-9,315	253,537	121,250
52,057	-9,117	253,346	121,320
53,071	-9,429	253,280	121,006
54,086	-9,285	253,045	121,009
55,101	-9,191	252,921	121,020
56,115	-8,950	252,796	121,158
57,130	-8,518	252,752	121,500
58,144	-8,257	252,574	121,630
59,159	-8,231	252,349	121,534
60,174	-8,172	252,055	121,432
61,188	-8,431	251,807	121,078
62,203	-8,209	251,627	121,172
63,217	-8,410	251,499	120,927
64,232	-8,370	251,219	120,816
65,247	-8,236	250,908	120,770
66,261	-8,541	250,860	120,474
67,276	-8,630	250,465	120,198
68,290	-8,977	250,349	119,834
69,305	-9,032	250,078	119,646
70,320	-8,929	249,763	119,573
71,334	-8,630	249,733	119,803
72,349	-8,399	249,645	119,948
73,363	-8,285	249,307	119,873
74,378	-8,297	249,081	119,743
75,393	-8,384	248,883	119,562
76,407	-8,489	248,780	119,413
77,422	-8,497	248,568	119,294
78,436	-8,500	248,369	119,185
79,451	-8,630	248,197	118,982
80,466	-8,600	247,749	118,782
81,480	-8,718	247,646	118,622
82,495	-8,721	247,403	118,493
83,509	-8,829	247,406	118,392
84,524	-8,719	247,066	118,312
85,539	-8,829	246,841	118,100
86,553	-9,059	246,769	117,862
87,568	-8,902	246,637	117,920
88,582	-8,697	246,389	117,964
89,597	-8,652	246,078	117,842
90,611	-8,578	246,028	117,870
91,626	-8,470	245,923	117,900
92,641	-8,340	245,770	117,925
93,655	-8,540	245,365	117,553
94,670	-8,776	245,250	117,289
95,684	-8,570	245,033	117,347
96,699	-8,615	244,765	117,171
97,714	-8,546	244,646	117,161
98,728	-8,847	244,434	116,799
99,743	-8,805	244,218	116,719
100,757	-8,950	244,056	116,511
101,772	-8,780	243,851	116,544
102,787	-8,885	243,581	116,318
103,801	-8,747	243,415	116,342
104,816	-8,694	243,413	116,375
105,830	-8,518	243,355	116,483
106,845	-8,578	243,153	116,326
107,860	-8,671	243,032	116,182
108,874	-8,464	242,663	116,166
109,889	-8,760	242,435	115,802
110,903	-8,777	242,285	115,705
111,918	-8,753	242,038	115,597
112,933	-8,750	242,044	115,592
113,947	-8,524	241,706	115,607
114,962	-8,562	241,639	115,533
115,976	-8,654	241,507	115,383
116,991	-8,621	241,274	115,290
118,006	-8,615	241,069	115,186
119,020	-8,702	240,942	115,044
120,035	-8,612	240,934	115,103
121,049	-8,470	240,630	115,064
122,064	-8,551	240,344	114,851
123,079	-8,465	240,200	114,842
124,093	-8,788	240,113	114,526
125,108	-8,813	239,784	114,339
126,122	-8,833	239,491	114,172
127,137	-9,051	239,440	113,960
128,151	-8,966	239,262	113,935
129,166	-8,711	239,122	114,066
130,181	-8,986	238,910	113,730
131,195	-8,992	238,789	113,657
132,210	-8,914	238,646	113,642
133,224	-8,657	238,358	113,704
134,239	-8,565	238,196	113,691
135,254	-8,527	238,057	113,646
136,268	-8,738	237,772	113,328
137,283	-9,123	237,647	112,948
138,297	-9,316	237,373	112,651
139,312	-9,053	237,146	112,746
140,327	-8,891	237,207	112,896
141,341	-8,152	237,105	113,433
142,356	-8,296	236,974	113,244
143,370	-8,360	236,864	113,130
144,385	-8,087	236,602	113,214
145,400	-8,260	236,566	113,048
146,414	-8,215	236,402	112,995
147,429	-8,369	236,010	112,675
148,443	-8,189	235,956	112,783
149,458	-8,315	235,775	112,586
150,473	-8,334	235,678	112,514
151,487	-8,366	235,431	112,360
152,502	-8,377	235,349	112,303
153,516	-8,257	235,236	112,335
154,531	-8,276	234,939	112,167
155,546	-8,269	234,746	112,071
156,560	-8,399	234,534	111,857
157,575	-8,692	234,410	111,554
158,589	-8,606	234,197	111,511
159,604	-8,280	234,164	111,745
160,619	-8,139	234,008	111,771
161,633	-8,047	233,831	111,750
162,648	-8,124	233,762	111,647
163,662	-8,277	233,523	111,401
164,677	-8,333	233,311	111,246
165,692	-8,446	233,205	111,095
166,706	-8,207	233,045	111,198
167,721	-7,854	232,932	111,414
168,735	-8,135	232,855	111,145
169,750	-8,251	232,586	110,915
170,764	-8,036	232,476	111,023
171,779	-8,327	232,353	110,724
172,794	-8,257	232,216	110,704
173,808	-8,356	231,952	110,491
174,823	-8,869	231,706	109,961
175,837	-8,965	231,416	109,738
176,852	-8,463	231,367	110,099
177,867	-8,348	231,290	110,142
178,881	-8,272	231,185	110,142
179,896	-8,060	231,067	110,241
180,910	-8,026	230,923	110,190
181,925	-8,127	230,761	110,024
182,940	-8,048	230,538	109,969
183,954	-8,282	230,474	109,747
184,969	-8,213	230,343	109,728
185,983	-8,074	230,154	109,737
186,998	-8,090	229,947	109,615
188,013	-8,141	229,948	109,567
189,027	-7,803	229,590	109,649
190,042	-8,046	229,517	109,416
191,056	-7,788	229,380	109,541
192,071	-8,059	229,198	109,234
193,086	-7,984	228,979	109,179
194,100	-8,163	228,866	108,976
195,115	-8,340	228,464	108,638
196,129	-9,298	228,326	107,822
197,144	-5,142	229,809	111,743
198,159	1,010	231,272	117,245
199,173	3,265	231,943	119,333
200,188	3,234	231,997	119,327
201,202	3,568	231,781	119,465
202,217	3,573	231,737	119,436
203,232	4,108	231,539	119,739
204,246	4,073	231,281	119,567
205,261	4,151	231,269	119,611
206,275	4,215	231,188	119,609
207,290	4,274	231,045	119,569
208,304	4,178	230,873	119,395
209,319	4,266	230,533	119,277
210,334	4,117	230,359	119,061
211,348	4,028	230,123	118,859
212,363	3,354	230,030	118,281
213,377	3,303	229,872	118,149
214,392	3,378	229,735	118,127
215,407	3,547	229,427	118,087
216,421	3,378	229,484	117,976
217,436	3,336	229,221	117,798
218,450	3,414	228,800	117,631
219,465	3,165	228,797	117,428
220,480	3,208	228,737	117,419
221,494	3,300	228,521	117,369
222,509	3,377	228,551	117,432
223,523	3,516	228,231	117,364
224,538	3,199	228,212	117,101
225,553	3,507	228,014	117,225
226,567	3,558	227,928	117,209
227,582	3,734	227,883	117,310
228,596	3,664	227,920	117,265
229,611	3,584	227,479	116,967
230,626	3,198	227,302	116,571
231,640	3,387	227,092	116,597
232,655	3,783	226,977	116,829
233,669	3,968	227,039	116,991
234,684	4,198	226,911	117,089
235,699	3,703	226,778	116,634
236,713	3,333	226,551	116,227
237,728	3,513	226,270	116,209
238,742	3,298	226,089	115,942
239,757	3,309	225,983	115,886
240,772	3,253	225,730	115,703
241,786	3,092	225,739	115,576
242,801	3,366	225,596	115,699
243,815	3,754	225,531	115,949
244,830	3,766	225,377	115,869
245,844	3,563	225,067	115,545
246,859	3,414	224,955	115,365
247,874	3,645	225,003	115,554
248,888	3,682	224,788	115,461
249,903	3,651	224,560	115,310
250,917	3,476	224,342	115,057
251,932	3,460	224,233	114,978
252,947	3,277	224,072	114,749
253,961	3,242	223,882	114,615
254,976	3,392	223,893	114,723
255,990	3,767	223,633	114,860
257,005	3,512	223,638	114,661
258,020	3,466	223,504	114,548
259,034	3,697	223,388	114,651
260,049	3,758	223,169	114,573
261,063	3,573	223,046	114,363
262,078	3,929	222,833	114,508
263,093	3,885	222,685	114,389
264,107	3,637	222,615	114,159
265,122	3,672	222,502	114,117
266,136	3,977	222,291	114,224
267,151	3,748	222,250	114,023
268,166	3,520	221,931	113,680
269,180	3,242	221,761	113,377
270,195	3,260	221,643	113,320
271,209	3,123	221,426	113,097
272,224	3,249	221,381	113,158
273,239	3,548	221,269	113,311
274,253	3,395	221,035	113,069
275,268	3,067	220,744	112,668
276,282	3,179	220,579	112,656
277,297	3,115	220,427	112,521
278,312	3,029	220,527	112,499
279,326	3,630	220,336	112,833
280,341	3,486	220,184	112,640
281,355	3,462	220,053	112,545
282,370	3,387	219,948	112,426
283,384	3,147	219,679	112,103
284,399	3,085	219,508	111,960
285,414	3,197	219,428	111,991
286,428	3,305	219,469	112,081
287,443	3,568	219,253	112,154
288,457	3,293	219,305	111,969
289,472	3,388	218,878	111,810
290,487	3,122	218,658	111,494
291,501	2,852	218,539	111,226
292,516	3,117	218,323	111,300
293,530	3,092	218,291	111,255
294,545	3,134	218,148	111,203
295,560	3,361	217,966	111,265
296,574	3,395	217,972	111,283
297,589	3,222	217,900	111,111
298,603	3,212	217,819	111,052
299,618	3,432	217,545	111,062
300,633	3,616	217,547	111,186
301,647	3,508	217,379	111,012
302,662	3,717	217,228	111,077
303,676	3,438	217,087	110,793
304,691	3,608	216,919	110,821
305,706	3,591	216,775	110,725
306,720	3,865	216,614	110,830
307,735	3,309	216,452	110,336
308,749	3,212	216,310	110,185
309,764	3,587	216,178	110,378
310,779	3,444	216,133	110,241
311,793	3,378	215,987	110,110
312,808	3,299	215,714	109,904
313,822	3,090	215,501	109,636
314,837	3,279	215,454	109,738
315,852	3,408	215,490	109,839
316,866	3,494	215,269	109,778
317,881	3,922	215,069	109,973
318,895	3,707	215,050	109,799
319,910	3,316	214,787	109,375
320,925	3,455	214,517	109,327
321,939	2,810	214,361	108,778
322,954	3,209	214,290	109,018
323,968	3,191	214,411	109,056
324,983	3,566	214,223	109,218
325,997	3,496	214,100	109,096
327,012	3,486	213,889	108,971
328,027	3,467	213,779	108,892
329,041	3,698	213,737	109,025
330,056	3,983	213,628	109,162
331,070	3,552	213,302	108,680
332,085	3,193	213,207	108,368
333,100	3,292	212,998	108,321
334,114	3,492	212,960	108,434
335,129	3,416	212,736	108,257
336,143	3,334	212,574	108,107
337,158	3,254	212,503	108,005
338,173	3,273	212,458	107,986
339,187	3,160	212,303	107,817
340,202	3,192	212,019	107,686
341,216	3,164	211,918	107,606
342,231	3,232	211,649	107,507
343,246	3,277	211,561	107,485
344,260	3,090	211,605	107,366
345,275	3,253	211,317	107,324
346,289	3,500	211,278	107,469
347,304	3,805	211,132	107,598
348,319	3,735	210,956	107,450
349,333	3,338	210,811	107,089
350,348	3,590	210,776	107,237
351,362	3,589	210,675	107,176
352,377	3,708	210,544	107,183
353,392	3,404	210,367	106,871
354,406	3,504	210,204	106,849
355,421	194,249	1343,252	1425,764
356,435	155,062	1481,334	1425,794
