DTS Sentinel unit serial number:	SN410029Multiplexer serial number:	ORYXHardware model number:	OX2-SRSoftware version number:	ORYX F/W v4,00 Oryx Data Collector v3.7.2.0data status	okinstallation	B6 Nyhavnadifferential loss correction	single-endedforward channel	channel 2reverse channel	N/Adate	2023/12/09time	20:35:08forward acquisition time	300,00reverse acquisition time	0,00gamma	499,1914k internal	0,3129k external	0,3129temperature offset calibration	1,0000default loss term (dB/km)	0,3820temperature slope calibration	1,0000multiplexer offset coefficient	1,0000multiplexer slope coefficient	1,0000fibre end	0,00T internal ref (°C)	21,35T ext. ref 1 (°C)	5,41T ext. ref 2 (°C)	5,40length (m)	temperature (°C)	Stokes	anti-Stokes-744,400	-200,000	-0,013	-0,248
-743,385	-11,331	-0,247	0,120
-742,371	129,425	0,098	0,093
-741,356	22,699	-0,173	0,105
-740,342	-105,779	0,083	-0,014
-739,327	107,656	-0,237	0,210
-738,312	800,000	0,058	-0,156
-737,298	-80,591	-0,263	0,065
-736,283	131,225	0,059	-0,057
-735,269	110,201	-0,225	0,201
-734,254	-200,000	-0,013	0,057
-733,239	-86,919	-0,390	-0,088
-732,225	422,481	0,092	0,147
-731,210	66,917	-0,041	0,031
-730,196	-30,008	0,072	0,030
-729,181	-200,000	0,009	0,040
-728,167	-200,000	0,014	-0,114
-727,152	94,288	0,088	-0,074
-726,137	-200,000	0,007	0,030
-725,123	-200,000	-0,018	-0,180
-724,108	-4,101	-0,074	-0,038
-723,094	214,988	-0,073	-0,086
-722,079	24,022	-0,072	-0,044
-721,064	198,371	0,047	0,054
-720,050	-191,113	-0,020	0,000
-719,035	-85,402	-0,044	-0,010
-718,021	238,910	-0,039	0,049
-717,006	-200,000	-0,032	-0,230
-715,991	800,000	-0,076	-0,158
-714,977	-146,314	-0,192	0,012
-713,962	800,000	-0,041	-0,100
-712,948	74,339	-0,034	0,027
-711,933	-172,980	-0,109	-0,002
-710,918	81,695	0,100	-0,081
-709,904	-15,304	-0,107	-0,051
-708,889	800,000	-0,058	0,171
-707,875	2,296	-0,122	0,066
-706,860	41,242	0,057	-0,038
-705,845	-5,883	0,107	-0,054
-704,831	480,600	0,024	0,041
-703,816	-94,255	0,108	0,022
-702,802	5,026	0,112	-0,061
-701,787	-97,710	-0,037	0,007
-700,772	-200,000	-0,015	-0,089
-699,758	-41,695	-0,064	0,024
-698,743	-134,910	0,092	0,008
-697,729	78,003	0,082	-0,065
-696,714	-200,000	-0,019	-0,075
-695,699	709,981	0,066	-0,131
-694,685	-90,189	0,012	0,003
-693,670	364,708	-0,037	-0,055
-692,656	-57,172	0,148	-0,048
-691,641	47,601	-0,010	0,007
-690,627	-111,330	-0,104	-0,016
-689,612	-200,000	0,015	0,049
-688,597	-200,000	0,020	-0,175
-687,583	-79,498	-0,137	-0,034
-686,568	-200,000	-0,013	-0,081
-685,554	-92,281	0,092	0,019
-684,539	-200,000	0,011	-0,141
-683,524	13,518	-0,029	0,017
-682,510	-132,702	0,016	-0,002
-681,495	-200,000	0,003	-0,098
-680,481	2,276	-0,106	0,057
-679,466	800,000	0,023	-0,051
-678,451	-200,000	-0,013	-0,058
-677,437	-200,000	0,022	0,196
-676,422	-133,352	0,089	0,008
-675,408	-86,539	-0,028	0,006
-674,393	369,565	0,054	0,081
-673,378	486,680	-0,020	0,033
-672,364	355,809	-0,034	-0,050
-671,349	-113,770	0,136	-0,019
-670,335	-93,255	0,073	-0,015
-669,320	41,542	0,104	-0,070
-668,305	-67,067	0,069	-0,020
-667,291	46,163	-0,086	0,059
-666,276	53,170	-0,049	-0,034
-665,262	800,000	-0,034	-0,097
-664,247	-200,000	-0,022	-0,157
-663,232	30,464	-0,093	-0,059
-662,218	-163,207	0,149	-0,005
-661,203	-200,000	-0,014	-0,160
-660,189	-200,000	0,002	-0,026
-659,174	203,589	0,021	-0,024
-658,159	-200,000	-0,010	0,075
-657,145	-200,000	-0,023	0,137
-656,130	284,290	0,055	0,073
-655,116	54,783	-0,094	-0,067
-654,101	800,000	0,068	-0,164
-653,086	-200,000	-0,001	-0,042
-652,072	-122,133	-0,134	-0,016
-651,057	57,813	-0,151	-0,109
-650,043	94,069	0,114	-0,096
-649,028	108,623	0,016	0,014
-648,014	-171,685	-0,096	-0,002
-646,999	139,945	0,083	-0,081
-645,984	-200,000	0,008	-0,054
-644,970	161,520	-0,110	0,114
-643,955	-66,022	0,015	-0,004
-642,941	322,162	-0,085	-0,120
-641,926	800,000	-0,038	-0,108
-640,911	15,394	0,005	0,003
-639,897	178,591	0,123	0,133
-638,882	-22,579	0,147	-0,066
-637,868	359,811	-0,052	-0,077
-636,853	13,209	-0,098	0,056
-635,838	123,677	-0,005	0,005
-634,824	-69,334	0,113	-0,032
-633,809	-102,637	0,112	-0,020
-632,795	41,076	-0,057	-0,038
-631,780	-200,000	-0,014	0,056
-630,765	-200,000	0,012	0,159
-629,751	-200,000	-0,024	-0,091
-628,736	271,928	-0,095	-0,124
-627,722	-200,000	0,032	-0,131
-626,707	800,000	-0,016	-0,039
-625,692	84,431	0,101	-0,082
-624,678	35,351	-0,111	0,072
-623,663	-200,000	0,002	-0,044
-622,649	800,000	-0,011	0,025
-621,634	-200,000	0,031	-0,113
-620,619	76,514	0,072	-0,057
-619,605	33,778	-0,123	0,079
-618,590	397,855	0,034	0,053
-617,576	800,000	-0,034	0,083
-616,561	-200,000	0,028	-0,106
-615,546	-200,000	-0,010	-0,079
-614,532	259,881	0,073	0,094
-613,517	-165,015	0,088	-0,003
-612,503	-200,000	-0,005	-0,152
-611,488	-8,143	-0,078	-0,039
-610,474	207,361	-0,028	-0,032
-609,459	-143,682	0,089	0,006
-608,444	800,000	-0,042	-0,126
-607,430	337,126	0,025	-0,035
-606,415	800,000	-0,032	-0,102
-605,401	456,374	-0,025	-0,040
-604,386	-18,242	0,150	0,069
-603,371	-200,000	-0,013	0,106
-602,357	-105,109	0,017	-0,003
-601,342	448,299	0,021	-0,034
-600,328	204,236	-0,100	0,115
-599,313	54,460	0,123	0,088
-598,298	-200,000	-0,012	-0,097
-597,284	12,849	0,067	0,038
-596,269	371,223	-0,029	0,044
-595,255	800,000	0,021	0,050
-594,240	666,012	-0,091	-0,176
-593,225	-139,615	-0,096	-0,007
-592,211	83,211	-0,118	-0,095
-591,196	800,000	-0,071	-0,175
-590,182	82,258	0,044	-0,035
-589,167	800,000	0,054	-0,136
-588,152	-48,553	0,096	0,034
-587,138	285,241	-0,070	0,093
-586,123	-200,000	0,013	-0,080
-585,109	89,144	0,016	0,013
-584,094	-97,073	-0,081	0,015
-583,079	800,000	0,036	0,097
-582,065	142,421	-0,052	0,051
-581,050	112,759	0,034	0,031
-580,036	-84,368	-0,020	0,005
-579,021	207,345	-0,058	-0,067
-578,006	84,640	-0,049	0,040
-576,992	800,000	-0,045	-0,111
-575,977	-122,642	-0,055	0,007
-574,963	-116,963	-0,052	-0,007
-573,948	800,000	-0,056	0,159
-572,934	-8,523	-0,068	-0,033
-571,919	-200,000	0,035	-0,122
-570,904	276,159	-0,029	0,039
-569,890	-73,979	-0,138	-0,037
-568,875	-200,000	-0,046	0,201
-567,861	36,575	0,094	0,061
-566,846	392,986	-0,064	0,098
-565,831	800,000	-0,009	0,019
-564,817	479,408	-0,096	-0,161
-563,802	564,897	-0,092	-0,165
-562,788	482,234	0,018	-0,031
-561,773	552,675	0,016	-0,028
-560,758	800,000	0,031	-0,088
-559,744	116,167	0,087	-0,078
-558,729	-200,000	-0,010	-0,037
-557,715	-7,752	0,128	-0,064
-556,700	346,834	-0,085	0,124
-555,685	292,454	-0,133	0,180
-554,671	450,192	0,085	-0,139
-553,656	269,180	0,014	0,018
-552,642	-55,012	-0,024	0,008
-551,627	800,000	-0,021	-0,048
-550,612	-59,548	0,037	0,012
-549,598	24,842	-0,097	-0,059
-548,583	-200,000	0,009	-0,042
-547,569	-71,233	0,132	-0,036
-546,554	102,979	-0,100	0,086
-545,539	15,936	-0,096	0,056
-544,525	800,000	-0,034	0,106
-543,510	24,929	0,010	-0,006
-542,496	47,545	-0,089	-0,061
-541,481	-118,968	-0,166	-0,021
-540,466	153,276	0,053	-0,054
-539,452	246,303	-0,019	-0,023
-538,437	800,000	0,042	0,088
-537,423	325,020	-0,033	-0,047
-536,408	-200,000	-0,011	0,038
-535,393	-72,192	0,081	-0,022
-534,379	-18,632	0,043	0,020
-533,364	-195,122	-0,112	-0,001
-532,350	-200,000	-0,012	-0,082
-531,335	-51,649	0,114	-0,039
-530,321	800,000	-0,035	-0,097
-529,306	-10,151	-0,076	-0,037
-528,291	-155,986	-0,072	0,003
-527,277	800,000	0,057	-0,180
-526,262	800,000	-0,036	-0,105
-525,248	-200,000	-0,009	0,044
-524,233	-60,212	0,082	0,026
-523,218	-200,000	0,001	0,035
-522,204	71,058	-0,069	0,052
-521,189	-39,292	-0,115	-0,044
-520,175	364,102	0,067	-0,100
-519,160	317,811	-0,076	0,106
-518,145	183,027	-0,039	0,043
-517,131	297,727	0,085	0,115
-516,116	560,561	0,042	-0,075
-515,102	227,252	0,064	0,077
-514,087	0,244	-0,103	-0,054
-513,072	800,000	-0,020	-0,058
-512,058	-93,319	0,103	-0,021
-511,043	211,917	0,063	-0,073
-510,029	-29,000	0,140	-0,059
-509,014	-200,000	-0,008	-0,033
-507,999	-4,182	-0,058	-0,030
-506,985	114,452	-0,032	-0,029
-505,970	-67,439	0,112	-0,032
-504,956	-147,454	-0,041	0,003
-503,941	500,773	0,030	-0,051
-502,926	-200,000	0,018	0,077
-501,912	686,991	0,094	0,183
-500,897	713,913	-0,102	0,200
-499,883	68,028	0,026	-0,020
-498,868	-40,702	-0,118	-0,045
-497,853	34,420	0,025	-0,016
-496,839	-141,114	-0,031	0,002
-495,824	800,000	-0,014	0,037
-494,810	-13,024	0,057	-0,027
-493,795	56,715	0,040	-0,029
-492,781	-200,000	0,012	-0,076
-491,766	-200,000	-0,020	0,131
-490,751	214,510	0,072	-0,084
-489,737	-138,424	-0,089	0,007
-488,722	-200,000	0,007	0,140
-487,708	-200,000	-0,001	0,136
-486,693	-123,127	0,052	0,006
-485,678	740,532	-0,029	0,057
-484,664	173,811	-0,004	0,004
-483,649	392,056	-0,029	-0,045
-482,635	111,061	-0,015	0,013
-481,620	-23,682	0,044	0,019
-480,605	-158,619	0,061	-0,003
-479,591	502,497	0,060	0,103
-478,576	-200,000	0,001	-0,054
-477,562	18,717	-0,038	0,022
-476,547	475,200	-0,046	0,077
-475,532	463,311	-0,040	0,066
-474,518	44,318	0,036	-0,024
-473,503	800,000	-0,029	0,072
-472,489	-200,000	-0,021	0,134
-471,474	19,129	0,045	-0,026
-470,459	800,000	0,061	-0,137
-469,445	-64,871	-0,140	-0,041
-468,430	0,680	0,072	-0,038
-467,416	-34,405	0,068	0,027
-466,401	27,526	-0,090	-0,056
-465,386	423,673	0,023	-0,036
-464,372	-90,737	0,043	0,009
-463,357	-20,659	0,038	-0,017
-462,343	-200,000	0,019	-0,108
-461,328	357,230	-0,032	-0,047
-460,313	800,000	0,008	-0,027
-459,299	-142,079	0,169	0,012
-458,284	-74,229	-0,106	-0,028
-457,270	63,695	-0,122	0,090
-456,255	-121,912	-0,033	-0,004
-455,241	-113,828	-0,051	-0,007
-454,226	34,232	0,108	-0,069
-453,211	42,302	-0,063	0,042
-452,197	-200,000	0,008	-0,032
-451,182	571,974	-0,072	-0,129
-450,168	-121,404	0,238	0,029
-449,153	209,136	-0,045	0,052
-448,138	-97,471	-0,080	0,015
-447,124	392,022	-0,082	0,126
-446,109	800,000	-0,043	0,119
-445,095	50,234	-0,038	-0,027
-444,080	72,864	0,028	-0,021
-443,065	-49,150	0,018	0,006
-442,051	43,673	-0,139	0,094
-441,036	-200,000	0,003	-0,075
-440,022	182,049	-0,073	-0,079
-439,007	-129,607	0,067	-0,007
-437,992	553,592	-0,046	-0,081
-436,978	800,000	0,009	-0,026
-435,963	113,720	0,103	0,092
-434,949	-151,147	-0,108	-0,006
-433,934	-78,903	-0,076	-0,019
-432,919	-62,531	-0,092	0,028
-431,905	800,000	-0,052	0,159
-430,890	211,980	0,087	0,101
-429,876	-52,726	0,155	-0,052
-428,861	-200,000	0,009	-0,075
-427,846	44,554	-0,092	0,062
-426,832	-101,538	0,057	-0,010
-425,817	153,555	0,036	0,036
-424,803	26,482	-0,077	0,047
-423,788	553,884	0,022	0,039
-422,773	800,000	-0,015	-0,047
-421,759	499,249	0,057	0,096
-420,744	141,694	-0,026	0,025
-419,730	-58,047	0,099	0,032
-418,715	349,657	0,056	0,081
-417,701	10,140	-0,100	0,055
-416,686	-94,216	-0,109	-0,022
-415,671	-22,929	0,103	0,045
-414,657	78,863	0,054	0,043
-413,642	-200,000	0,007	-0,056
-412,628	800,000	-0,060	-0,153
-411,613	800,000	0,055	-0,147
-410,598	146,348	-0,046	-0,046
-409,584	415,938	0,049	-0,077
-408,569	-151,615	0,125	0,007
-407,555	211,780	-0,035	0,041
-406,540	-200,000	-0,014	0,056
-405,525	-200,000	0,006	-0,046
-404,511	-73,806	-0,088	-0,023
-403,496	577,909	0,043	-0,078
-402,482	-24,418	0,067	-0,029
-401,467	800,000	-0,055	0,138
-400,452	-200,000	-0,011	0,038
-399,438	-105,999	-0,099	-0,016
-398,423	-200,000	-0,020	-0,073
-397,409	-200,000	-0,003	-0,079
-396,394	-53,056	-0,148	-0,050
-395,379	-38,530	0,131	0,051
-394,365	396,773	0,038	0,058
-393,350	-49,412	0,108	0,038
-392,336	-38,508	0,109	-0,042
-391,321	340,160	0,012	-0,017
-390,306	800,000	-0,054	-0,149
-389,292	-3,909	0,057	0,029
-388,277	19,174	-0,044	-0,026
-387,263	-58,314	-0,024	0,008
-386,248	42,451	0,069	-0,046
-385,233	379,872	0,025	0,037
-384,219	-200,000	-0,011	-0,075
-383,204	-19,794	-0,072	0,032
-382,190	588,526	-0,090	-0,163
-381,175	156,668	-0,021	-0,021
-380,160	-200,000	-0,004	0,020
-379,146	-94,379	-0,067	-0,013
-378,131	800,000	0,033	-0,077
-377,117	-200,000	0,005	-0,077
-376,102	91,307	-0,054	0,044
-375,088	-88,234	0,099	-0,022
-374,073	-200,000	0,010	-0,035
-373,058	-200,000	-0,012	0,050
-372,044	-67,641	0,129	0,037
-371,029	283,598	-0,062	0,082
-370,015	-200,000	-0,020	0,145
-369,000	-200,000	-0,002	-0,065
-367,985	800,000	-0,060	-0,171
-366,971	632,750	0,076	0,142
-365,956	759,214	-0,060	0,120
-364,942	800,000	0,033	0,092
-363,927	151,415	0,015	0,015
-362,912	23,005	0,101	-0,061
-361,898	98,268	-0,098	-0,083
-360,883	-200,000	0,008	0,066
-359,869	40,584	-0,066	0,044
-358,854	227,023	0,080	-0,095
-357,839	-38,383	0,083	0,032
-356,825	-200,000	0,011	-0,075
-355,810	308,858	-0,038	-0,053
-354,796	-200,000	-0,013	-0,070
-353,781	-200,000	-0,006	-0,036
-352,766	147,884	-0,043	0,043
-351,752	-197,429	0,079	-0,000
-350,737	-200,000	0,017	0,110
-349,723	-51,619	0,208	0,071
-348,708	183,646	0,108	-0,117
-347,693	-117,396	-0,008	-0,001
-346,679	-32,985	-0,032	0,013
-345,664	-200,000	-0,011	0,088
-344,650	-200,000	0,001	-0,008
-343,635	-54,957	0,075	0,024
-342,620	-200,000	0,008	-0,064
-341,606	-200,000	0,022	-0,084
-340,591	-200,000	0,004	0,036
-339,577	-200,000	-0,004	-0,024
-338,562	-102,040	-0,044	-0,008
-337,548	800,000	-0,054	0,129
-336,533	639,615	0,025	0,046
-335,518	-200,000	0,016	0,105
-334,504	150,334	0,053	0,052
-333,489	41,632	-0,037	0,025
-332,475	281,197	-0,091	-0,120
-331,460	800,000	0,048	0,122
-330,445	342,409	0,096	-0,138
-329,431	-17,431	-0,076	-0,035
-328,416	601,693	0,017	-0,031
-327,402	258,948	0,123	0,156
-326,387	-117,856	-0,129	-0,017
-325,372	800,000	-0,013	-0,035
-324,358	-200,000	0,023	-0,189
-323,343	-83,731	0,094	0,022
-322,329	800,000	0,062	0,147
-321,314	-200,000	-0,027	0,154
-320,299	800,000	-0,043	0,098
-319,285	800,000	-0,028	0,085
-318,270	108,853	-0,052	-0,045
-317,256	800,000	-0,017	-0,039
-316,241	800,000	-0,035	0,087
-315,226	702,263	0,022	0,043
-314,212	800,000	0,022	-0,070
-313,197	-200,000	-0,005	0,023
-312,183	-107,520	0,122	0,019
-311,168	103,430	0,013	0,011
-310,153	28,274	-0,090	0,056
-309,139	-200,000	0,007	-0,086
-308,124	-22,080	0,004	0,002
-307,110	-200,000	0,013	0,084
-306,095	-135,588	0,040	-0,003
-305,080	703,986	0,067	0,131
-304,066	342,491	-0,046	0,066
-303,051	46,603	-0,028	-0,019
-302,037	286,755	0,113	0,149
-301,022	-200,000	0,002	0,045
-300,008	86,739	0,077	-0,062
-298,993	-173,929	0,104	-0,002
-297,978	-36,291	-0,030	-0,012
-296,964	-15,345	-0,141	0,065
-295,949	-200,000	-0,018	-0,096
-294,935	711,351	-0,087	-0,168
-293,920	-66,036	0,088	0,026
-292,905	213,374	-0,042	0,048
-291,891	-9,619	0,090	0,044
-290,876	800,000	0,016	-0,035
-289,862	125,766	0,039	-0,036
-288,847	54,862	-0,123	-0,087
-287,832	324,708	0,019	-0,027
-286,818	800,000	0,030	0,097
-285,803	-5,112	0,085	0,043
-284,789	-200,000	-0,010	-0,058
-283,774	800,000	0,052	0,126
-282,759	257,167	-0,052	-0,066
-281,745	-200,000	0,046	-0,153
-280,730	87,710	0,133	-0,107
-279,716	44,965	0,064	-0,043
-278,701	296,957	0,055	-0,074
-277,686	-200,000	0,006	-0,070
-276,672	39,900	0,089	0,058
-275,657	332,264	0,089	-0,126
-274,643	19,698	-0,081	-0,048
-273,628	-46,353	-0,124	0,044
-272,613	800,000	0,029	0,067
-271,599	-116,306	-0,080	0,011
-270,584	34,147	0,067	0,043
-269,570	-25,269	0,047	0,020
-268,555	-200,000	-0,004	0,048
-267,540	-200,000	0,020	-0,097
-266,526	-174,737	0,063	0,001
-265,511	-48,874	0,068	-0,024
-264,497	60,845	0,056	0,041
-263,482	123,580	-0,045	-0,042
-262,467	108,493	-0,041	-0,036
-261,453	228,994	0,099	-0,119
-260,438	30,278	0,072	-0,045
-259,424	112,651	-0,160	0,141
-258,409	-89,377	0,055	-0,012
-257,395	117,364	0,052	0,047
-256,380	-200,000	0,003	-0,030
-255,365	82,160	-0,057	0,045
-254,351	-62,099	-0,034	0,010
-253,336	-56,216	-0,139	0,045
-252,322	-200,000	0,021	-0,130
-251,307	-59,459	0,053	-0,017
-250,292	800,000	-0,055	-0,124
-249,278	-30,056	0,047	-0,020
-248,263	-200,000	0,110	-0,000
-247,249	249,879	-0,098	0,121
-246,234	800,000	0,056	0,156
-245,219	800,000	-0,036	-0,078
-244,205	47,051	0,018	0,012
-243,190	90,402	0,091	-0,074
-242,176	292,459	0,023	0,031
-241,161	32,809	0,058	0,037
-240,146	488,034	-0,028	0,047
-239,132	396,492	-0,027	-0,042
-238,117	76,396	0,123	0,095
-237,103	-200,000	-0,028	0,094
-236,088	-70,219	-0,034	-0,009
-235,073	348,585	-0,060	0,086
-234,059	-200,000	0,012	-0,211
-233,044	-171,589	-0,047	0,001
-232,030	-57,732	0,077	-0,024
-231,015	621,671	0,047	0,086
-230,000	-114,910	-0,069	0,009
-228,986	800,000	-0,055	0,128
-227,971	51,369	0,055	-0,038
-226,957	432,085	0,033	0,052
-225,942	-200,000	-0,008	-0,124
-224,927	-80,735	-0,241	0,058
-223,913	184,425	0,047	-0,051
-222,898	-60,049	-0,133	-0,041
-221,884	0,445	-0,038	-0,020
-220,869	-77,290	-0,041	0,010
-219,855	177,054	0,040	0,042
-218,840	-7,941	0,039	0,019
-217,825	181,049	-0,075	-0,080
-216,811	-200,000	-0,017	0,091
-215,796	160,035	0,028	-0,029
-214,782	-144,895	-0,165	0,011
-213,767	800,000	-0,043	-0,126
-212,752	-62,437	0,120	0,036
-211,738	-200,000	-0,007	-0,170
-210,723	573,201	-0,018	-0,032
-209,709	-200,000	-0,016	0,146
-208,694	-114,593	-0,043	0,006
-207,679	-72,814	0,133	-0,035
-206,665	800,000	-0,035	0,082
-205,650	147,814	-0,033	0,032
-204,636	177,653	0,089	-0,094
-203,621	403,130	0,066	0,102
-202,606	29,379	-0,109	-0,068
-201,592	122,328	-0,070	0,064
-200,577	800,000	-0,044	0,110
-199,563	-200,000	0,023	0,102
-198,548	65,804	0,069	0,051
-197,533	-116,935	-0,132	0,017
-196,519	303,516	0,031	0,042
-195,504	221,736	-0,046	-0,054
-194,490	355,254	-0,048	0,070
-193,475	458,718	-0,041	-0,066
-192,460	-200,000	-0,013	-0,094
-191,446	-200,000	-0,005	0,141
-190,431	184,782	0,022	-0,024
-189,417	-200,000	-0,017	0,135
-188,402	-160,972	0,119	0,004
-187,387	800,000	-0,041	-0,127
-186,373	-73,114	0,076	0,020
-185,358	76,473	0,129	0,099
-184,344	-200,000	-0,007	0,105
-183,329	-57,196	-0,076	-0,024
-182,315	299,883	-0,070	0,094
-181,300	-152,610	0,065	0,003
-180,285	800,000	-0,036	0,075
-179,271	17,952	0,046	0,027
-178,256	203,914	-0,047	0,053
-177,242	10,219	0,029	0,016
-176,227	28,034	-0,048	0,030
-175,212	-88,071	0,103	0,022
-174,198	-200,000	0,004	-0,080
-173,183	-68,877	-0,063	0,018
-172,169	-200,000	-0,020	-0,171
-171,154	-184,457	0,143	-0,002
-170,139	-56,445	-0,073	-0,023
-169,125	-31,829	0,075	-0,030
-168,110	91,102	0,114	0,093
-167,096	467,467	0,033	0,054
-166,081	136,007	-0,074	-0,070
-165,066	117,768	-0,057	-0,051
-164,052	-67,273	0,057	-0,016
-163,037	342,727	0,037	0,053
-162,023	-13,608	0,107	0,050
-161,008	299,997	0,050	0,067
-159,993	-122,505	0,074	0,009
-158,979	123,619	-0,100	0,091
-157,964	299,091	0,034	0,046
-156,950	-89,842	-0,172	0,036
-155,935	152,423	0,039	-0,039
-154,920	800,000	-0,087	0,182
-153,906	-200,000	0,025	0,115
-152,891	124,388	-0,091	-0,083
-151,877	764,474	0,063	-0,125
-150,862	367,043	-0,062	-0,092
-149,847	-24,857	0,054	-0,023
-148,833	559,743	0,040	0,071
-147,818	-87,868	0,117	0,025
-146,804	-54,017	0,038	0,012
-145,789	-25,537	-0,072	-0,031
-144,775	-105,663	-0,069	0,011
-143,760	489,448	-0,096	-0,159
-142,745	800,000	0,050	-0,107
-141,731	237,391	0,082	-0,099
-140,716	56,140	-0,088	-0,062
-139,702	-200,000	-0,018	0,110
-138,687	20,694	0,091	0,054
-137,672	-200,000	-0,016	-0,155
-136,658	422,947	-0,078	-0,122
-135,643	-28,097	-0,068	0,029
-134,629	800,000	-0,018	-0,055
-133,614	-147,900	-0,100	0,006
-132,599	23,606	0,037	0,022
-131,585	64,762	0,156	0,114
-130,570	527,152	-0,095	0,164
-129,556	-200,000	-0,026	-0,119
-128,541	602,861	-0,038	0,069
-127,526	-51,284	-0,030	-0,010
-126,512	800,000	0,011	0,030
-125,497	-54,120	0,079	-0,026
-124,483	-93,927	0,088	-0,017
-123,468	-22,077	-0,048	0,021
-122,453	-67,115	-0,116	0,033
-121,439	-200,000	-0,018	-0,066
-120,424	-133,759	0,009	0,001
-119,410	800,000	0,030	0,076
-118,395	-125,358	-0,093	0,010
-117,380	212,300	0,065	0,075
-116,366	19,213	0,103	0,060
-115,351	162,952	-0,078	-0,080
-114,337	40,147	-0,106	0,069
-113,322	-125,646	0,067	0,007
-112,307	219,353	0,095	0,110
-111,293	373,082	0,061	0,090
-110,278	-200,000	0,039	0,246
-109,264	424,699	0,044	0,069
-108,249	800,000	0,026	-0,055
-107,234	-141,821	-0,039	-0,003
-106,220	800,000	-0,048	-0,149
-105,205	-200,000	0,038	-0,157
-104,191	800,000	0,025	0,063
-103,176	-89,221	0,038	0,008
-102,162	18,575	0,068	-0,039
-101,147	259,990	-0,044	-0,055
-100,132	800,000	-0,010	-0,031
-99,118	626,599	0,039	-0,072
-98,103	-132,177	0,044	-0,004
-97,089	502,445	-0,014	0,023
-96,074	-200,000	0,034	-0,113
-95,059	135,772	0,073	-0,069
-94,045	335,215	-0,060	-0,084
-93,030	-200,000	0,007	0,085
-92,016	92,915	0,104	-0,085
-91,001	591,563	0,074	-0,134
-89,986	-19,083	0,050	-0,022
-88,972	7,510	-0,037	0,020
-87,957	-76,143	-0,099	-0,025
-86,943	-49,544	-0,011	0,004
-85,928	3,141	-0,052	0,027
-84,913	-139,378	-0,163	-0,012
-83,899	-122,442	0,043	0,005
-82,884	646,701	0,068	-0,126
-81,870	-133,085	-0,057	-0,005
-80,855	7,257	0,078	-0,042
-79,840	-200,000	0,041	0,155
-78,826	31,226	-0,080	-0,050
-77,811	-21,435	0,114	-0,050
-76,797	800,000	0,030	-0,083
-75,782	44,357	-0,143	-0,095
-74,767	130,935	0,052	0,049
-73,753	581,333	-0,043	0,077
-72,738	-200,000	-0,015	0,134
-71,724	132,604	0,011	-0,010
-70,709	-200,000	0,040	0,000
-69,694	435,926	0,066	0,104
-68,680	-28,828	0,043	-0,018
-67,665	366,935	0,036	-0,053
-66,651	14,022	0,152	0,085
-65,636	-105,189	-0,059	0,010
-64,622	441,648	0,017	-0,027
-63,607	302,994	-0,055	-0,073
-62,592	-200,000	0,008	-0,119
-61,578	-43,021	0,164	-0,060
-60,563	-132,893	0,074	-0,007
-59,549	-32,512	-0,045	0,018
-58,534	-88,165	-1,470	-0,316
-57,519	800,000	-0,684	-1,417
-56,505	-200,000	-0,943	-4,461
-55,490	-44,729	0,636	-0,229
-54,476	800,000	5,114	11,650
-53,461	-200,000	14,418	255,468
-52,446	-200,000	696,947	2228,535
-51,432	564,178	1624,279	2860,908
-50,417	116,838	1630,791	1449,552
-49,403	73,605	1284,530	973,314
-48,388	37,516	1022,374	655,348
-47,373	23,504	981,168	582,944
-46,359	22,635	970,734	573,879
-45,344	21,611	966,280	567,884
-44,330	21,585	964,805	566,911
-43,315	21,369	963,439	565,382
-42,300	21,397	962,305	564,786
-41,286	21,431	961,265	564,263
-40,271	21,455	960,166	563,671
-39,257	21,388	959,374	562,967
-38,242	21,401	958,400	562,415
-37,227	21,374	957,621	561,848
-36,213	21,397	956,622	561,314
-35,198	21,307	955,899	560,577
-34,184	21,318	955,263	560,220
-33,169	21,358	954,403	559,820
-32,154	21,417	953,482	559,449
-31,140	21,412	952,489	558,827
-30,125	21,463	951,734	558,526
-29,111	21,432	950,895	557,911
-28,096	21,397	950,356	557,460
-27,082	21,365	949,625	556,907
-26,067	21,368	948,834	556,433
-25,052	21,312	948,312	555,924
-24,038	21,352	947,529	555,570
-23,023	21,393	946,910	555,316
-22,009	21,442	946,170	555,019
-20,994	21,400	945,514	554,477
-19,979	21,387	944,983	554,101
-18,965	21,400	944,435	553,800
-17,950	21,412	943,585	553,318
-16,936	21,385	943,135	552,945
-15,921	21,309	942,352	552,223
-14,906	21,254	941,674	551,629
-13,892	21,295	940,836	551,248
-12,877	21,285	940,465	550,977
-11,863	21,226	939,785	550,367
-10,848	21,240	939,293	550,104
-9,833	21,356	938,792	550,154
-8,819	21,312	938,318	549,717
-7,804	21,303	937,400	549,129
-6,790	21,278	936,990	548,788
-5,775	21,324	936,204	548,451
-4,760	21,313	935,631	548,059
-3,746	21,264	935,194	547,627
-2,731	21,115	934,425	546,684
-1,717	21,123	933,527	546,163
-0,702	21,097	933,013	545,757
0,313	20,946	932,312	545,698
1,327	23,925	930,396	553,874
2,342	32,958	793,874	496,584
3,356	30,588	450,714	278,341
4,371	0,839	294,531	152,148
5,386	-3,644	275,731	138,173
6,400	-5,035	269,880	133,935
7,415	-5,372	267,335	132,350
8,429	-5,097	266,172	132,015
9,444	-4,998	265,332	131,677
10,459	-5,237	264,730	131,149
11,473	-5,295	264,206	130,825
12,488	-5,367	263,725	130,509
13,502	-5,348	263,051	130,181
14,517	-5,357	262,607	129,942
15,531	-5,240	262,151	129,811
16,546	-5,180	261,823	129,691
17,561	-5,484	261,556	129,273
18,575	-5,308	261,293	129,289
19,590	-5,364	260,914	129,040
20,604	-5,477	260,655	128,800
21,619	-5,565	260,310	128,538
22,634	-5,391	259,814	128,438
23,648	-5,405	259,611	128,314
24,663	-5,609	259,480	128,055
25,677	-5,430	259,170	128,050
26,692	-5,412	258,934	127,938
27,707	-5,357	258,712	127,866
28,721	-5,206	258,304	127,787
29,736	-5,494	258,002	127,371
30,750	-5,448	257,647	127,225
31,765	-5,395	257,556	127,216
32,780	-5,466	257,270	127,001
33,794	-5,260	256,976	127,026
34,809	-5,456	256,856	126,783
35,823	-5,554	256,690	126,602
36,838	-5,559	256,288	126,388
37,853	-5,671	256,164	126,217
38,867	-5,322	255,739	126,304
39,882	-5,505	255,750	126,136
40,896	-5,449	255,340	125,973
41,911	-5,479	255,266	125,898
42,926	-5,525	254,972	125,702
43,940	-5,439	254,578	125,572
44,955	-5,523	254,434	125,416
45,969	-5,511	254,251	125,325
46,984	-5,802	254,006	124,940
47,999	-5,899	253,681	124,684
49,013	-5,990	253,454	124,482
50,028	-6,212	253,363	124,233
51,042	-6,085	252,980	124,144
52,057	-6,220	252,875	123,964
53,071	-6,165	252,641	123,886
54,086	-6,326	252,475	123,654
55,101	-6,053	252,343	123,815
56,115	-5,960	252,311	123,869
57,130	-5,418	251,998	124,173
58,144	-5,185	251,952	124,341
59,159	-5,171	251,755	124,245
60,174	-5,181	251,481	124,090
61,188	-5,334	251,230	123,823
62,203	-5,403	251,220	123,747
63,217	-5,421	250,753	123,491
64,232	-5,430	250,552	123,373
65,247	-5,274	250,478	123,459
66,261	-5,280	250,126	123,270
67,276	-5,540	250,046	122,996
68,290	-5,753	249,633	122,600
69,305	-5,821	249,453	122,443
70,320	-5,728	249,243	122,408
71,334	-5,396	249,120	122,620
72,349	-5,128	249,042	122,800
73,363	-5,327	248,913	122,556
74,378	-5,207	248,627	122,506
75,393	-5,370	248,369	122,229
76,407	-5,527	248,150	121,978
77,422	-5,244	247,981	122,124
78,436	-5,366	247,820	121,930
79,451	-5,300	247,503	121,818
80,466	-5,394	247,255	121,606
81,480	-5,681	247,118	121,285
82,495	-5,614	246,976	121,261
83,509	-5,456	246,830	121,313
84,524	-5,792	246,609	120,909
85,539	-5,719	246,246	120,782
86,553	-5,786	246,236	120,710
87,568	-5,771	245,985	120,589
88,582	-5,480	245,764	120,714
89,597	-5,731	245,610	120,417
90,611	-5,465	245,409	120,532
91,626	-5,408	245,287	120,508
92,641	-5,404	245,107	120,413
93,655	-5,683	245,065	120,147
94,670	-5,490	244,601	120,070
95,684	-5,692	244,618	119,900
96,699	-5,437	244,372	119,982
97,714	-5,538	244,173	119,789
98,728	-5,659	243,977	119,580
99,743	-5,750	243,609	119,313
100,757	-5,903	243,484	119,114
101,772	-5,594	243,196	119,220
102,787	-5,807	243,254	119,061
103,801	-5,397	243,057	119,294
104,816	-5,467	242,804	119,101
105,830	-5,508	242,779	119,045
106,845	-5,211	242,542	119,164
107,860	-5,455	242,325	118,845
108,874	-5,615	242,173	118,627
109,889	-5,420	241,866	118,627
110,903	-5,532	241,626	118,406
111,918	-5,566	241,539	118,325
112,933	-5,341	241,410	118,437
113,947	-5,398	241,283	118,317
114,962	-5,363	241,048	118,220
115,976	-5,410	241,041	118,167
116,991	-5,381	240,570	117,950
118,006	-5,350	240,456	117,909
119,020	-5,329	240,461	117,917
120,035	-5,316	240,370	117,873
121,049	-5,408	240,105	117,658
122,064	-5,234	239,887	117,682
123,079	-5,545	239,884	117,416
124,093	-5,611	239,602	117,213
125,108	-5,482	239,223	117,123
126,122	-5,748	239,080	116,825
127,137	-5,796	238,805	116,642
128,151	-5,734	238,686	116,624
129,166	-5,392	238,443	116,773
130,181	-5,558	238,350	116,582
131,195	-5,609	238,286	116,498
132,210	-5,570	238,025	116,393
133,224	-5,506	237,967	116,405
134,239	-5,377	237,678	116,359
135,254	-5,468	237,585	116,229
136,268	-5,447	237,382	116,136
137,283	-5,815	237,278	115,777
138,297	-5,581	236,804	115,725
139,312	-5,891	236,855	115,489
140,327	-5,621	236,765	115,652
141,341	-5,221	236,627	115,897
142,356	-4,900	236,346	116,008
143,370	-5,075	236,243	115,806
144,385	-5,089	236,257	115,791
145,400	-5,142	236,011	115,617
146,414	-5,169	235,872	115,518
147,429	-5,268	235,796	115,390
148,443	-5,236	235,427	115,225
149,458	-5,304	235,308	115,103
150,473	-5,059	235,107	115,190
151,487	-5,199	234,932	114,982
152,502	-5,089	234,788	114,989
153,516	-5,017	234,584	114,937
154,531	-5,097	234,462	114,803
155,546	-5,204	234,249	114,603
156,560	-5,223	234,075	114,492
157,575	-5,469	233,963	114,231
158,589	-5,312	233,799	114,266
159,604	-5,087	233,609	114,342
160,619	-5,075	233,388	114,233
161,633	-4,875	233,380	114,377
162,648	-4,841	233,086	114,250
163,662	-5,242	233,024	113,892
164,677	-5,101	232,774	113,871
165,692	-5,049	232,753	113,892
166,706	-5,087	232,521	113,739
167,721	-5,033	232,520	113,770
168,735	-4,851	232,262	113,777
169,750	-5,020	232,140	113,574
170,764	-5,068	231,910	113,414
171,779	-5,179	231,740	113,234
172,794	-5,077	231,720	113,293
173,808	-5,122	231,378	113,081
174,823	-5,590	231,057	112,547
175,837	-5,710	231,065	112,447
176,852	-5,418	230,900	112,585
177,867	-5,101	230,801	112,775
178,881	-5,274	230,739	112,599
179,896	-4,989	230,456	112,674
180,910	-4,974	230,206	112,554
181,925	-4,879	230,154	112,592
182,940	-4,983	230,140	112,494
183,954	-5,145	229,959	112,269
184,969	-5,031	229,756	112,250
185,983	-4,839	229,702	112,362
186,998	-5,024	229,439	112,080
188,013	-4,869	229,248	112,097
189,027	-4,954	229,187	111,991
190,042	-4,979	229,073	111,905
191,056	-4,954	228,991	111,875
192,071	-4,851	228,806	111,855
193,086	-4,991	228,610	111,640
194,100	-4,758	228,346	111,682
195,115	-4,865	228,048	111,444
196,129	-5,408	227,957	110,970
197,144	-2,407	228,841	113,716
198,159	1,827	230,148	117,648
199,173	3,855	230,383	119,333
200,188	3,901	230,415	119,374
201,202	3,929	230,283	119,318
202,217	4,109	230,143	119,374
203,232	4,286	229,965	119,408
204,246	4,461	229,885	119,491
205,261	4,537	229,715	119,451
206,275	4,528	229,809	119,482
207,290	4,599	229,477	119,354
208,304	4,597	229,349	119,275
209,319	4,687	229,202	119,257
210,334	4,523	229,055	119,044
211,348	4,287	228,766	118,702
212,363	3,941	228,394	118,232
213,377	3,593	228,383	117,948
214,392	3,701	228,092	117,870
215,407	3,761	228,072	117,896
216,421	3,847	227,945	117,886
217,436	3,639	227,641	117,558
218,450	3,529	227,322	117,299
219,465	3,356	227,346	117,169
220,480	3,610	227,211	117,282
221,494	3,373	227,063	117,015
222,509	3,721	227,060	117,268
223,523	3,786	226,777	117,161
224,538	3,645	226,662	116,985
225,553	3,645	226,584	116,933
226,567	3,875	226,383	116,994
227,582	3,862	226,334	116,949
228,596	4,131	226,282	117,116
229,611	3,743	226,036	116,683
230,626	3,333	225,735	116,207
231,640	3,528	225,638	116,294
232,655	3,997	225,538	116,588
233,669	4,242	225,603	116,797
234,684	4,353	225,397	116,763
235,699	3,939	225,262	116,371
236,713	3,900	224,988	116,188
237,728	3,603	224,872	115,894
238,742	3,744	224,640	115,871
239,757	3,805	224,343	115,753
240,772	3,913	224,278	115,790
241,786	3,680	224,066	115,496
242,801	3,822	224,120	115,619
243,815	4,077	223,938	115,707
244,830	4,066	224,017	115,730
245,844	3,704	223,657	115,261
246,859	3,683	223,550	115,180
247,874	4,173	223,346	115,432
248,888	4,018	223,297	115,280
249,903	3,742	223,115	114,970
250,917	3,733	222,934	114,859
251,932	3,828	222,806	114,854
252,947	3,738	222,556	114,648
253,961	3,627	222,387	114,468
254,976	3,570	222,293	114,366
255,990	4,000	222,295	114,678
257,005	3,758	222,153	114,414
258,020	3,827	222,036	114,395
259,034	4,263	221,758	114,566
260,049	4,083	221,607	114,344
261,063	3,883	221,567	114,164
262,078	4,233	221,354	114,304
263,093	4,227	221,324	114,274
264,107	4,072	221,038	114,001
265,122	4,114	220,967	113,986
266,136	4,177	221,039	114,059
267,151	4,282	220,698	113,951
268,166	3,839	220,533	113,528
269,180	3,430	220,098	112,992
270,195	3,588	220,217	113,160
271,209	3,549	220,067	113,044
272,224	3,750	219,888	113,091
273,239	3,758	219,771	113,026
274,253	3,832	219,536	112,949
275,268	3,584	219,357	112,665
276,282	3,450	219,276	112,515
277,297	3,322	219,206	112,376
278,312	3,388	219,054	112,336
279,326	3,665	218,920	112,460
280,341	3,816	218,720	112,458
281,355	3,837	218,770	112,489
282,370	3,793	218,460	112,288
283,384	3,300	218,253	111,810
284,399	3,396	218,007	111,745
285,414	3,465	218,011	111,787
286,428	3,436	218,012	111,757
287,443	3,864	217,810	111,955
288,457	3,974	217,566	111,899
289,472	3,692	217,461	111,630
290,487	3,285	217,187	111,184
291,501	3,422	217,035	111,196
292,516	3,431	217,009	111,180
293,530	3,230	217,025	111,031
294,545	3,660	216,402	111,014
295,560	3,482	216,618	110,986
296,574	3,619	216,519	111,025
297,589	3,700	216,273	110,947
298,603	3,791	216,245	110,988
299,618	3,459	216,041	110,634
300,633	3,890	215,952	110,890
301,647	3,914	215,985	110,915
302,662	3,828	215,896	110,796
303,676	4,166	215,593	110,874
304,691	4,150	215,529	110,820
305,706	3,984	215,455	110,653
306,720	3,992	215,162	110,498
307,735	3,712	214,957	110,182
308,749	3,542	214,845	109,993
309,764	4,004	214,566	110,172
310,779	4,132	214,527	110,233
311,793	4,038	214,440	110,111
312,808	3,971	214,308	109,986
313,822	3,787	214,270	109,825
314,837	3,721	214,015	109,637
315,852	3,719	213,762	109,497
316,866	3,908	213,810	109,646
317,881	3,678	213,738	109,436
318,895	3,913	213,612	109,529
319,910	3,934	213,360	109,405
320,925	3,474	213,177	108,974
321,939	3,166	212,847	108,577
322,954	3,170	212,884	108,589
323,968	3,500	212,843	108,793
324,983	4,012	212,730	109,088
325,997	4,054	212,601	109,042
327,012	3,743	212,410	108,714
328,027	4,046	212,321	108,874
329,041	4,310	212,197	108,987
330,056	4,216	212,168	108,895
331,070	3,616	211,931	108,341
332,085	3,397	211,792	108,106
333,100	3,756	211,548	108,225
334,114	3,675	211,579	108,173
335,129	3,696	211,272	108,022
336,143	3,824	211,108	108,018
337,158	3,759	210,966	107,890
338,173	3,619	210,921	107,759
339,187	3,424	210,746	107,523
340,202	3,482	210,452	107,405
341,216	3,335	210,496	107,314
342,231	3,777	210,266	107,497
343,246	3,502	210,112	107,216
344,260	3,711	210,076	107,334
345,275	3,538	209,977	107,153
346,289	3,680	209,830	107,168
347,304	3,928	209,692	107,261
348,319	3,841	209,579	107,133
349,333	3,505	209,429	106,812
350,348	3,727	209,293	106,888
351,362	3,695	209,334	106,877
352,377	3,911	209,116	106,907
353,392	3,853	208,874	106,733
354,406	3,817	208,819	106,671
355,421	195,726	1342,040	1433,432
356,435	156,267	1480,205	1433,533
