DTS Sentinel unit serial number:	SN410029Multiplexer serial number:	ORYXHardware model number:	OX2-SRSoftware version number:	ORYX F/W v4,00 Oryx Data Collector v3.7.2.0data status	okinstallation	B6 Nyhavnadifferential loss correction	single-endedforward channel	channel 2reverse channel	N/Adate	2023/12/08time	07:25:08forward acquisition time	300,00reverse acquisition time	0,00gamma	499,1914k internal	0,3165k external	0,3165temperature offset calibration	1,0000default loss term (dB/km)	0,3820temperature slope calibration	1,0000multiplexer offset coefficient	1,0000multiplexer slope coefficient	1,0000fibre end	0,00T internal ref (°C)	13,17T ext. ref 1 (°C)	-3,30T ext. ref 2 (°C)	-3,29length (m)	temperature (°C)	Stokes	anti-Stokes-744,400	-73,009	0,269	0,072
-743,385	44,620	-0,335	0,226
-742,371	210,008	0,075	0,086
-741,356	-27,154	-0,238	-0,101
-740,342	10,761	0,102	0,057
-739,327	-171,209	-0,382	-0,009
-738,312	-200,000	0,006	-0,068
-737,298	-127,378	-0,319	-0,034
-736,283	-28,126	0,152	-0,064
-735,269	-24,224	-0,294	-0,128
-734,254	-200,000	0,007	0,128
-733,239	4,950	-0,544	-0,294
-732,225	-101,368	0,170	0,030
-731,210	334,079	0,072	0,103
-730,196	-200,000	-0,016	-0,097
-729,181	273,710	-0,052	-0,068
-728,167	-157,336	0,169	-0,007
-727,152	107,584	-0,030	0,026
-726,137	-117,243	-0,049	-0,007
-725,123	-89,867	-0,152	-0,032
-724,108	-200,000	-0,008	0,032
-723,094	239,574	-0,079	0,096
-722,079	116,210	-0,138	-0,125
-721,064	800,000	-0,008	-0,023
-720,050	-6,694	-0,114	-0,057
-719,035	-114,668	-0,038	0,005
-718,021	-51,175	-0,179	-0,061
-717,006	-200,000	-0,008	-0,082
-715,991	-100,270	-0,138	0,025
-714,977	169,923	-0,025	0,027
-713,962	-170,246	0,069	-0,002
-712,948	-200,000	-0,006	0,045
-711,933	195,083	-0,080	-0,089
-710,918	672,151	0,013	0,025
-709,904	-200,000	0,003	0,106
-708,889	-200,000	0,021	-0,114
-707,875	230,611	-0,102	-0,123
-706,860	-104,504	-0,044	-0,007
-705,845	-200,000	0,002	-0,055
-704,831	11,363	0,037	0,021
-703,816	-200,000	-0,017	-0,111
-702,802	-47,634	-0,030	-0,011
-701,787	-200,000	-0,018	-0,137
-700,772	-66,465	0,168	0,049
-699,758	-34,562	0,029	-0,012
-698,743	800,000	-0,037	-0,109
-697,729	273,549	-0,026	0,034
-696,714	548,166	-0,034	-0,060
-695,699	-38,140	-0,043	-0,017
-694,685	-200,000	0,014	0,056
-693,670	-21,288	0,101	-0,045
-692,656	-116,825	0,072	0,010
-691,641	-200,000	-0,004	0,032
-690,627	-23,856	0,191	-0,084
-689,612	35,893	0,096	-0,062
-688,597	-91,067	-0,142	0,030
-687,583	247,101	-0,064	0,080
-686,568	800,000	-0,008	-0,018
-685,554	-200,000	-0,008	-0,034
-684,539	800,000	0,027	0,076
-683,524	800,000	-0,055	0,156
-682,510	109,841	0,065	0,057
-681,495	-92,645	-0,160	0,033
-680,481	-167,924	-0,031	0,001
-679,466	-6,576	-0,041	-0,021
-678,451	45,797	-0,088	-0,059
-677,437	-200,000	0,008	0,032
-676,422	-139,503	0,105	-0,008
-675,408	-22,855	-0,032	0,014
-674,393	18,573	0,097	-0,057
-673,378	-167,537	-0,048	0,001
-672,364	112,017	-0,031	-0,028
-671,349	800,000	-0,036	-0,076
-670,335	-75,570	-0,197	-0,051
-669,320	800,000	0,069	0,164
-668,305	800,000	0,035	-0,076
-667,291	210,456	-0,036	-0,042
-666,276	-200,000	-0,013	-0,219
-665,262	395,072	0,007	-0,011
-664,247	-200,000	-0,006	-0,068
-663,232	800,000	0,059	0,154
-662,218	-100,302	0,043	-0,008
-661,203	377,944	0,007	-0,010
-660,189	-200,000	0,030	-0,109
-659,174	263,530	-0,084	-0,108
-658,159	-200,000	0,008	0,091
-657,145	-200,000	0,002	0,066
-656,130	-152,206	0,134	-0,007
-655,116	-200,000	-0,003	-0,013
-654,101	237,321	-0,032	-0,039
-653,086	-12,348	-0,063	0,030
-652,072	-127,751	-0,056	-0,006
-651,057	-60,611	-0,093	0,029
-650,043	-200,000	0,005	0,053
-649,028	61,412	0,076	0,055
-648,014	-200,000	0,023	-0,093
-646,999	-200,000	-0,032	0,150
-645,984	701,495	0,066	0,128
-644,970	-85,840	-0,120	0,027
-643,955	28,014	-0,111	0,069
-642,941	800,000	-0,013	-0,036
-641,926	-200,000	0,016	-0,064
-640,911	800,000	0,047	0,104
-639,897	-200,000	-0,005	0,174
-638,882	78,105	-0,147	0,115
-637,868	30,016	-0,012	0,008
-636,853	-200,000	-0,010	-0,083
-635,838	-158,286	0,044	0,002
-634,824	270,365	-0,061	-0,079
-633,809	-157,656	0,056	0,002
-632,795	-16,919	0,148	0,068
-631,780	-200,000	0,009	0,111
-630,765	-111,585	0,077	-0,011
-629,751	-105,959	-0,103	0,017
-628,736	-101,747	-0,166	-0,029
-627,722	-121,734	0,126	0,015
-626,707	-144,525	-0,039	-0,003
-625,692	800,000	-0,031	0,075
-624,678	38,878	0,022	0,014
-623,663	-200,000	0,014	-0,103
-622,649	-200,000	0,001	0,029
-621,634	-200,000	-0,002	0,072
-620,619	113,586	-0,045	0,040
-619,605	107,294	0,043	0,037
-618,590	19,355	-0,045	-0,026
-617,576	756,761	0,054	-0,107
-616,561	97,633	-0,064	-0,053
-615,546	-105,010	0,037	-0,006
-614,532	77,833	-0,032	-0,025
-613,517	-6,642	-0,044	0,022
-612,503	-200,000	-0,006	0,059
-611,488	-1,017	0,038	0,020
-610,474	-200,000	-0,015	-0,086
-609,459	-16,392	-0,108	-0,050
-608,444	800,000	-0,048	-0,109
-607,430	-124,916	-0,039	0,004
-606,415	800,000	-0,022	-0,050
-605,401	-200,000	0,016	-0,082
-604,386	86,745	-0,092	0,074
-603,371	546,695	0,016	0,028
-602,357	-200,000	0,010	-0,040
-601,342	161,748	0,061	-0,063
-600,328	327,505	-0,079	0,111
-599,313	39,010	0,037	0,024
-598,298	-87,290	0,130	-0,029
-597,284	28,892	0,055	0,034
-596,269	-200,000	-0,044	-0,206
-595,255	-143,038	0,174	0,012
-594,240	15,687	-0,125	-0,072
-593,225	-134,409	-0,098	-0,009
-592,211	-200,000	0,007	-0,075
-591,196	-88,851	0,213	-0,046
-590,182	-152,509	-0,096	0,005
-589,167	800,000	0,077	-0,163
-588,152	-200,000	0,008	-0,047
-587,138	20,994	-0,047	-0,028
-586,123	800,000	0,035	-0,080
-585,109	175,813	-0,035	0,037
-584,094	-31,441	0,062	-0,025
-583,079	188,719	0,060	-0,066
-582,065	88,232	0,155	0,126
-581,050	-10,699	-0,092	-0,044
-580,036	-46,043	0,159	-0,057
-579,021	-106,402	-0,149	0,024
-578,006	141,080	0,045	-0,043
-576,992	-133,872	0,233	-0,021
-575,977	-141,301	0,140	-0,010
-574,963	-129,456	-0,084	0,008
-573,948	-200,000	0,001	0,011
-572,934	-93,463	-0,105	0,021
-571,919	140,501	-0,015	-0,014
-570,904	8,834	0,058	0,032
-569,890	368,344	-0,016	0,023
-568,875	-200,000	0,021	0,113
-567,861	31,942	0,049	-0,031
-566,846	193,701	-0,020	0,022
-565,831	107,347	-0,155	0,135
-564,817	202,063	-0,086	-0,097
-563,802	-22,920	0,027	-0,012
-562,788	-200,000	0,011	-0,047
-561,773	664,294	0,087	0,165
-560,758	800,000	0,035	0,106
-559,744	-55,598	-0,119	0,039
-558,729	-200,000	-0,001	0,101
-557,715	-200,000	-0,054	-0,191
-556,700	-3,544	-0,060	-0,030
-555,685	-3,842	-0,047	-0,024
-554,671	70,731	-0,024	-0,018
-553,656	-200,000	0,015	0,174
-552,642	124,177	0,090	0,083
-551,627	-200,000	-0,001	0,055
-550,612	329,299	-0,118	-0,167
-549,598	800,000	-0,057	-0,177
-548,583	-27,732	-0,085	0,036
-547,569	-57,998	-0,203	-0,064
-546,554	800,000	-0,026	0,083
-545,539	352,468	0,109	0,158
-544,525	-28,976	-0,074	0,031
-543,510	800,000	-0,039	-0,083
-542,496	-118,202	-0,008	-0,001
-541,481	38,547	-0,139	-0,090
-540,466	-39,507	-0,090	0,034
-539,452	800,000	0,052	0,117
-538,437	55,510	0,054	-0,038
-537,423	-200,000	-0,016	0,127
-536,408	-200,000	-0,042	-0,158
-535,393	-200,000	0,038	-0,126
-534,379	-62,331	-0,080	-0,024
-533,364	312,298	-0,029	-0,039
-532,350	291,030	0,031	0,041
-531,335	-27,872	0,113	0,048
-530,321	-10,558	-0,084	-0,040
-529,306	445,429	0,037	-0,060
-528,291	-200,000	0,010	-0,036
-527,277	-200,000	-0,016	-0,054
-526,262	146,414	-0,038	-0,037
-525,248	199,769	-0,073	0,082
-524,233	336,675	-0,034	0,049
-523,218	-200,000	-0,001	0,058
-522,204	800,000	0,056	0,153
-521,189	136,496	-0,099	0,094
-520,175	-22,997	-0,144	0,063
-519,160	138,717	-0,025	-0,024
-518,145	106,219	0,101	0,087
-517,131	-200,000	-0,019	0,120
-516,116	43,488	0,114	0,076
-515,102	-129,736	0,036	0,004
-514,087	-200,000	0,004	-0,024
-513,072	105,994	0,039	0,033
-512,058	800,000	0,051	-0,126
-511,043	-72,212	0,075	-0,020
-510,029	-200,000	-0,011	0,046
-509,014	529,694	-0,055	-0,095
-507,999	331,603	-0,007	-0,010
-506,985	-29,432	-0,188	-0,078
-505,970	592,138	-0,028	-0,050
-504,956	220,109	-0,048	-0,056
-503,941	800,000	-0,026	-0,074
-502,926	228,594	-0,025	-0,029
-501,912	53,092	0,056	0,039
-500,897	-200,000	0,011	0,038
-499,883	-78,375	-0,084	-0,021
-498,868	260,515	-0,095	-0,120
-497,853	359,749	-0,070	0,103
-496,839	800,000	0,049	0,142
-495,824	132,699	0,077	-0,073
-494,810	150,533	-0,088	0,087
-493,795	-99,164	0,105	-0,019
-492,781	797,421	0,033	-0,066
-491,766	-200,000	-0,009	0,039
-490,751	-154,083	0,020	0,001
-489,737	-143,335	0,089	-0,006
-488,722	-88,727	0,074	0,016
-487,708	182,089	-0,070	0,075
-486,693	-104,539	0,124	0,021
-485,678	284,777	0,040	0,052
-484,664	-50,666	-0,069	-0,024
-483,649	-200,000	-0,010	-0,125
-482,635	391,372	-0,027	-0,042
-481,620	-159,259	0,014	0,001
-480,605	-200,000	-0,007	0,041
-479,591	-66,201	-0,094	-0,027
-478,576	62,104	-0,100	-0,072
-477,562	-56,325	-0,074	-0,024
-476,547	-42,325	0,151	-0,056
-475,532	154,018	-0,184	-0,183
-474,518	22,163	0,068	0,040
-473,503	5,458	0,069	0,037
-472,489	-189,819	0,043	-0,000
-471,474	427,314	0,006	0,010
-470,459	-163,324	0,089	-0,003
-469,445	-200,000	0,004	-0,274
-468,430	43,066	-0,068	0,045
-467,416	535,918	0,037	-0,064
-466,401	245,955	-0,069	-0,084
-465,386	67,790	0,096	0,071
-464,372	-200,000	0,003	0,099
-463,357	447,526	-0,080	-0,129
-462,343	-11,743	-0,046	-0,022
-461,328	-97,206	-0,023	0,004
-460,313	-200,000	0,003	0,090
-459,299	480,415	-0,089	0,148
-458,284	-97,300	0,203	0,038
-457,270	-174,321	-0,095	0,002
-456,255	-200,000	0,006	-0,061
-455,241	144,791	0,054	0,053
-454,226	-178,074	-0,046	-0,001
-453,211	246,888	0,012	-0,014
-452,197	-70,205	-0,104	-0,029
-451,182	95,459	-0,042	0,035
-450,168	-36,551	0,022	0,009
-449,153	324,510	0,020	0,028
-448,138	-107,122	-0,079	-0,013
-447,124	-87,300	-0,125	-0,027
-446,109	92,421	-0,068	0,056
-445,095	-200,000	0,014	0,080
-444,080	710,079	0,073	0,141
-443,065	-176,323	-0,034	-0,001
-442,051	58,516	0,045	-0,032
-441,036	-200,000	-0,007	-0,120
-440,022	258,150	0,073	-0,091
-439,007	800,000	-0,035	0,077
-437,992	95,524	0,168	0,139
-436,978	-116,988	0,008	0,001
-435,963	43,002	0,031	-0,020
-434,949	800,000	0,060	-0,152
-433,934	-22,970	-0,086	0,037
-432,919	-200,000	-0,026	-0,106
-431,905	-200,000	0,019	-0,072
-430,890	25,556	0,053	0,032
-429,876	592,990	-0,041	0,074
-428,861	708,562	0,044	0,084
-427,846	-25,972	-0,061	-0,026
-426,832	-1,208	-0,124	-0,064
-425,817	-38,216	0,139	-0,053
-424,803	-110,432	-0,142	-0,021
-423,788	-81,687	-0,159	0,038
-422,773	-39,438	-0,028	-0,011
-421,759	800,000	0,040	0,100
-420,744	-200,000	0,004	-0,035
-419,730	-200,000	-0,040	-0,201
-418,715	-19,666	-0,083	-0,037
-417,701	31,060	0,042	-0,026
-416,686	15,423	-0,092	0,052
-415,671	-200,000	-0,002	-0,021
-414,657	-200,000	0,013	-0,082
-413,642	-200,000	-0,009	0,044
-412,628	95,887	-0,031	0,026
-411,613	800,000	0,015	0,038
-410,598	-200,000	0,019	0,138
-409,584	37,445	-0,077	0,049
-408,569	-200,000	0,003	0,051
-407,555	-100,503	-0,043	0,008
-406,540	800,000	0,034	0,077
-405,525	-96,333	-0,097	0,018
-404,511	800,000	0,014	0,041
-403,496	-120,478	-0,033	0,004
-402,482	-200,000	0,004	0,028
-401,467	130,922	0,093	0,087
-400,452	-12,991	-0,048	-0,022
-399,438	-200,000	0,010	-0,100
-398,423	61,279	0,074	0,054
-397,409	473,043	-0,042	0,068
-396,394	-13,437	0,032	0,015
-395,379	-58,157	-0,054	0,017
-394,365	-200,000	-0,025	0,103
-393,350	-200,000	0,015	0,084
-392,336	-200,000	-0,006	0,145
-391,321	80,089	0,016	0,012
-390,306	-200,000	-0,009	0,144
-389,292	53,397	-0,075	-0,052
-388,277	-77,387	-0,140	0,035
-387,263	49,760	0,150	-0,102
-386,248	-200,000	-0,001	-0,065
-385,233	-200,000	0,008	-0,050
-384,219	-142,269	0,015	0,001
-383,204	-121,883	-0,094	-0,011
-382,190	24,146	-0,123	-0,074
-381,175	-50,365	0,053	-0,018
-380,160	111,706	0,125	0,109
-379,146	-156,489	0,150	0,007
-378,131	-75,526	0,136	0,035
-377,117	-200,000	0,015	0,120
-376,102	-33,845	-0,049	-0,019
-375,088	90,589	-0,091	-0,074
-374,073	-146,253	0,081	-0,005
-373,058	555,518	0,047	-0,082
-372,044	35,119	0,093	0,059
-371,029	155,640	-0,025	0,025
-370,015	59,844	0,104	-0,074
-369,000	75,228	0,030	0,023
-367,985	-56,136	-0,034	0,011
-366,971	-200,000	0,013	0,051
-365,956	248,661	0,048	-0,059
-364,942	800,000	0,053	-0,136
-363,927	208,676	-0,094	0,107
-362,912	-200,000	-0,002	-0,021
-361,898	800,000	0,080	-0,164
-360,883	800,000	-0,039	-0,091
-359,869	-200,000	0,012	-0,062
-358,854	114,695	-0,038	-0,033
-357,839	35,028	-0,023	-0,015
-356,825	-133,042	0,013	0,001
-355,810	-200,000	-0,016	-0,067
-354,796	-130,750	-0,017	0,002
-353,781	-200,000	-0,015	-0,062
-352,766	87,100	-0,015	-0,012
-351,752	107,415	0,033	0,029
-350,737	800,000	0,006	0,014
-349,723	-200,000	-0,013	0,109
-348,708	-200,000	0,005	-0,020
-347,693	-200,000	-0,003	-0,055
-346,679	75,996	0,059	0,045
-345,664	16,992	0,020	0,011
-344,650	-200,000	-0,009	0,067
-343,635	-200,000	0,002	-0,124
-342,620	298,183	-0,098	-0,130
-341,606	-200,000	-0,009	0,224
-340,591	-200,000	-0,114	0,000
-339,577	-200,000	0,031	-0,105
-338,562	-200,000	-0,036	-0,123
-337,548	325,859	0,025	-0,035
-336,533	75,846	0,093	0,071
-335,518	800,000	0,032	-0,074
-334,504	-200,000	0,010	0,118
-333,489	-200,000	0,004	-0,076
-332,475	94,682	0,139	-0,114
-331,460	-200,000	-0,000	-0,077
-330,445	800,000	-0,066	0,137
-329,431	-173,269	-0,111	0,002
-328,416	-200,000	0,015	0,089
-327,402	-89,988	-0,040	0,008
-326,387	-200,000	0,007	-0,026
-325,372	130,077	-0,056	-0,052
-324,358	-200,000	0,003	-0,042
-323,343	380,109	-0,083	0,124
-322,329	800,000	-0,043	-0,123
-321,314	-200,000	0,002	0,077
-320,299	-200,000	0,034	0,137
-319,285	180,895	-0,034	-0,036
-318,270	740,419	-0,055	-0,108
-317,256	40,602	0,096	-0,063
-316,241	-87,890	-0,030	-0,007
-315,226	800,000	-0,013	0,031
-314,212	6,599	0,107	-0,057
-313,197	-50,701	0,075	-0,025
-312,183	68,974	-0,059	-0,044
-311,168	-150,340	-0,044	0,002
-310,153	800,000	-0,041	-0,101
-309,139	216,923	0,021	0,024
-308,124	-66,224	0,023	-0,007
-307,110	800,000	-0,032	-0,092
-306,095	147,266	0,112	0,109
-305,080	-135,642	0,044	0,004
-304,066	-200,000	-0,006	-0,123
-303,051	-31,458	-0,109	-0,044
-302,037	289,994	-0,043	-0,056
-301,022	-23,358	0,117	-0,051
-300,008	-6,647	-0,092	0,045
-298,993	393,453	0,050	0,075
-297,978	-200,000	0,050	0,162
-296,964	800,000	-0,032	-0,099
-295,949	26,781	-0,058	-0,035
-294,935	800,000	0,046	-0,127
-293,920	800,000	0,024	-0,051
-292,905	-200,000	0,012	0,156
-291,891	800,000	0,043	-0,109
-290,876	144,168	0,070	0,067
-289,862	800,000	-0,019	0,057
-288,847	-200,000	-0,001	-0,196
-287,832	-200,000	0,030	-0,127
-286,818	277,980	-0,023	-0,030
-285,803	303,159	-0,091	0,122
-284,789	-200,000	0,001	-0,007
-283,774	2,672	-0,094	0,049
-282,759	-200,000	0,013	-0,048
-281,745	-36,571	-0,094	-0,036
-280,730	98,625	0,093	0,078
-279,716	472,524	0,038	-0,063
-278,701	-200,000	0,006	0,070
-277,686	113,247	0,074	-0,065
-276,672	-200,000	-0,014	0,098
-275,657	9,227	0,035	0,019
-274,643	-104,206	-0,203	-0,034
-273,628	800,000	-0,025	-0,062
-272,613	-77,910	-0,024	-0,006
-271,599	451,302	0,051	0,081
-270,584	-200,000	-0,020	0,079
-269,570	334,408	0,014	0,020
-268,555	-200,000	0,010	-0,043
-267,540	-49,996	-0,096	-0,033
-266,526	-131,519	-0,016	0,002
-265,511	-104,552	-0,085	-0,014
-264,497	-20,582	-0,102	0,045
-263,482	-91,962	0,049	-0,010
-262,467	53,142	0,068	0,047
-261,453	71,231	-0,048	0,036
-260,438	800,000	-0,043	0,112
-259,424	4,602	0,047	0,025
-258,409	-200,000	-0,011	-0,049
-257,395	800,000	-0,008	-0,018
-256,380	-127,626	0,151	0,016
-255,365	-200,000	-0,030	-0,176
-254,351	468,187	0,048	0,078
-253,336	77,136	-0,006	-0,005
-252,322	-25,094	-0,027	-0,012
-251,307	188,769	0,074	-0,080
-250,292	-200,000	0,008	-0,048
-249,278	-29,841	0,069	0,028
-248,263	-44,868	0,143	0,051
-247,249	81,567	0,038	-0,030
-246,234	63,838	-0,074	0,053
-245,219	40,581	-0,057	-0,037
-244,205	-96,029	-0,062	-0,012
-243,190	-152,916	0,043	0,002
-242,176	-34,428	0,148	-0,058
-241,161	-154,441	0,102	0,005
-240,146	800,000	0,003	0,008
-239,132	89,306	0,075	0,060
-238,117	-40,207	-0,053	-0,020
-237,103	-84,099	0,079	-0,018
-236,088	-200,000	-0,003	0,058
-235,073	-200,000	-0,015	0,095
-234,059	44,087	0,213	-0,141
-233,044	349,446	0,109	0,155
-232,030	-189,979	-0,012	0,000
-231,015	-23,059	-0,077	-0,033
-230,000	171,993	-0,046	-0,048
-228,986	-8,215	-0,143	0,069
-227,971	167,178	0,068	0,069
-226,957	733,473	0,013	0,024
-225,942	-15,602	0,007	-0,003
-224,927	-200,000	0,016	-0,058
-223,913	-200,000	0,012	-0,056
-222,898	800,000	0,027	0,081
-221,884	-200,000	-0,007	-0,148
-220,869	-94,220	0,113	-0,022
-219,855	692,264	-0,026	-0,050
-218,840	90,445	0,097	0,078
-217,825	-50,939	0,039	0,013
-216,811	235,600	0,028	-0,034
-215,796	-56,561	0,058	0,018
-214,782	-26,544	-0,032	0,013
-213,767	800,000	0,067	0,178
-212,752	34,797	0,123	0,077
-211,738	-31,788	0,102	0,041
-210,723	800,000	-0,014	0,035
-209,709	-100,255	0,107	-0,019
-208,694	650,619	0,050	-0,093
-207,679	800,000	0,023	0,071
-206,665	-200,000	0,010	0,097
-205,650	123,860	-0,038	0,035
-204,636	121,452	0,040	-0,036
-203,621	237,575	-0,059	-0,070
-202,606	116,473	-0,040	0,035
-201,592	108,029	-0,107	-0,092
-200,577	-140,119	-0,137	0,010
-199,563	-200,000	0,007	-0,112
-198,548	-200,000	0,009	-0,084
-197,533	800,000	0,037	0,081
-196,519	-200,000	-0,006	0,060
-195,504	78,456	-0,038	0,029
-194,490	272,840	0,066	-0,083
-193,475	-200,000	-0,032	-0,126
-192,460	-200,000	0,003	0,012
-191,446	313,977	-0,045	0,061
-190,431	800,000	-0,035	0,074
-189,417	800,000	0,010	0,027
-188,402	211,187	-0,048	-0,054
-187,387	466,680	0,019	-0,031
-186,373	92,334	-0,070	0,057
-185,358	800,000	0,020	0,047
-184,344	-200,000	0,012	0,093
-183,329	-200,000	-0,013	0,065
-182,315	-101,040	0,089	0,016
-181,300	-199,846	-0,059	-0,000
-180,285	102,427	0,013	-0,011
-179,271	42,402	0,109	0,071
-178,256	-3,670	-0,043	0,021
-177,242	-200,000	-0,002	0,058
-176,227	800,000	0,051	0,140
-175,212	406,330	0,026	0,040
-174,198	-36,124	0,058	0,022
-173,183	30,151	-0,074	0,045
-172,169	264,225	0,027	0,034
-171,154	-1,157	0,064	-0,032
-170,139	-1,666	0,060	-0,030
-169,125	243,485	0,074	-0,090
-168,110	48,031	0,127	0,085
-167,096	-78,467	-0,066	0,016
-166,081	-140,852	0,147	-0,011
-165,066	800,000	-0,035	0,073
-164,052	208,176	0,040	-0,045
-163,037	-45,729	0,060	0,021
-162,023	101,765	0,094	0,079
-161,008	800,000	-0,026	-0,077
-159,993	94,706	0,127	-0,104
-158,979	-41,762	-0,061	-0,022
-157,964	-14,726	-0,203	-0,093
-156,950	-200,000	-0,009	-0,053
-155,935	-130,186	-0,106	0,010
-154,920	-44,653	0,101	0,036
-153,906	-147,323	0,018	-0,001
-152,891	97,827	-0,053	-0,044
-151,877	90,506	0,027	-0,022
-150,862	800,000	-0,007	-0,019
-149,847	-162,363	-0,073	0,003
-148,833	-200,000	-0,011	-0,037
-147,818	-200,000	-0,026	-0,090
-146,804	800,000	0,046	-0,139
-145,789	430,294	-0,097	0,151
-144,775	456,992	-0,036	0,057
-143,760	-200,000	-0,002	0,079
-142,745	800,000	-0,089	-0,200
-141,731	121,994	0,150	0,134
-140,716	-20,600	0,068	0,030
-139,702	800,000	-0,026	-0,066
-138,687	-74,039	-0,046	-0,012
-137,672	-90,377	0,056	-0,012
-136,658	17,522	0,054	-0,031
-135,643	-200,000	0,005	0,031
-134,629	-117,353	-0,071	0,009
-133,614	800,000	0,051	0,122
-132,599	6,167	0,089	-0,047
-131,585	-58,289	0,081	-0,025
-130,570	-200,000	-0,004	-0,075
-129,556	556,411	0,055	-0,096
-128,541	800,000	-0,047	-0,118
-127,526	-200,000	-0,010	-0,057
-126,512	-99,690	0,064	-0,011
-125,497	800,000	-0,034	-0,082
-124,483	800,000	-0,024	0,050
-123,468	64,188	0,016	0,012
-122,453	121,472	0,046	0,041
-121,439	146,043	-0,026	-0,025
-120,424	-62,772	0,107	-0,032
-119,410	132,307	-0,050	-0,046
-118,395	800,000	0,025	-0,056
-117,380	800,000	0,078	0,158
-116,366	800,000	-0,013	0,036
-115,351	800,000	-0,038	-0,118
-114,337	-12,191	0,038	0,018
-113,322	33,536	0,046	0,028
-112,307	-74,436	-0,041	-0,011
-111,293	11,745	0,115	0,063
-110,278	-130,100	0,171	0,017
-109,264	-200,000	0,011	-0,057
-108,249	-200,000	0,006	-0,030
-107,234	-133,155	0,031	0,003
-106,220	-4,050	-0,071	0,035
-105,205	537,192	-0,044	-0,075
-104,191	-7,663	0,036	-0,017
-103,176	40,096	-0,024	0,016
-102,162	800,000	0,024	-0,074
-101,147	800,000	-0,010	-0,032
-100,132	103,020	0,098	0,082
-99,118	5,619	-0,083	0,044
-98,103	-119,884	-0,017	-0,002
-97,089	734,810	0,045	0,086
-96,074	-200,000	-0,015	-0,076
-95,059	-200,000	-0,008	-0,048
-94,045	800,000	0,025	0,068
-93,030	-150,495	-0,063	0,003
-92,016	471,876	-0,009	0,014
-91,001	-8,736	0,095	-0,045
-89,986	-104,940	0,048	-0,008
-88,972	161,401	-0,024	0,024
-87,957	-200,000	-0,009	-0,151
-86,943	-99,065	0,049	-0,009
-85,928	168,344	-0,050	0,051
-84,913	-73,303	-0,028	-0,007
-83,899	575,972	-0,089	-0,157
-82,884	-52,018	0,195	-0,065
-81,870	-200,000	0,010	-0,040
-80,855	-74,882	-0,104	-0,026
-79,840	-62,510	-0,042	0,012
-78,826	-34,074	-0,079	-0,031
-77,811	-59,124	-0,124	0,038
-76,797	-200,000	-0,008	-0,042
-75,782	-106,952	0,101	0,016
-74,767	12,550	-0,053	-0,029
-73,753	-28,733	0,160	-0,066
-72,738	268,356	-0,066	0,083
-71,724	-200,000	0,028	-0,113
-70,709	-25,259	-0,069	0,029
-69,694	-200,000	0,007	0,091
-68,680	800,000	0,037	0,090
-67,665	-200,000	-0,024	0,102
-66,651	-37,687	0,017	-0,006
-65,636	-200,000	-0,017	-0,085
-64,622	-9,840	-0,100	0,047
-63,607	281,691	-0,104	-0,133
-62,592	-11,510	-0,012	-0,005
-61,578	138,188	0,089	0,083
-60,563	-200,000	0,008	0,026
-59,549	-112,858	-0,059	0,008
-58,534	48,259	-2,127	-1,423
-57,519	-200,000	0,023	-0,625
-56,505	-200,000	-1,490	-5,175
-55,490	82,311	0,982	0,762
-54,476	800,000	5,348	12,047
-53,461	-200,000	18,819	318,752
-52,446	800,000	740,833	2322,466
-51,432	549,741	1654,135	2850,154
-50,417	109,967	1637,255	1405,977
-49,403	73,467	1287,733	964,011
-48,388	29,600	1029,217	625,347
-47,373	19,549	992,287	569,696
-46,359	16,943	979,936	554,029
-45,344	13,525	976,217	540,697
-44,330	13,842	974,713	540,883
-43,315	13,227	972,520	537,631
-42,300	13,215	971,588	537,054
-41,286	13,203	970,771	536,544
-40,271	13,103	969,818	535,670
-39,257	13,171	968,916	535,372
-38,242	13,218	968,090	535,047
-37,227	13,258	967,055	534,584
-36,213	13,198	966,173	533,879
-35,198	13,148	965,363	533,247
-34,184	13,181	964,756	533,000
-33,169	13,079	963,752	532,094
-32,154	13,200	962,641	531,851
-31,140	13,213	961,730	531,369
-30,125	13,188	961,359	531,061
-29,111	13,227	960,253	530,554
-28,096	13,240	959,659	530,249
-27,082	13,216	958,945	529,756
-26,067	13,219	958,229	529,347
-25,052	13,203	957,292	528,757
-24,038	13,164	956,788	528,332
-23,023	13,177	955,991	527,914
-22,009	13,224	955,499	527,772
-20,994	13,232	954,829	527,406
-19,979	13,186	954,406	527,003
-18,965	13,208	953,872	526,760
-17,950	13,219	953,200	526,402
-16,936	13,175	952,311	525,750
-15,921	13,226	951,672	525,538
-14,906	13,129	951,029	524,852
-13,892	13,116	950,422	524,455
-12,877	13,113	949,614	523,979
-11,863	13,102	949,050	523,612
-10,848	13,090	948,646	523,330
-9,833	13,172	948,263	523,358
-8,819	13,212	947,209	522,883
-7,804	13,071	946,886	522,236
-6,790	13,128	946,152	521,992
-5,775	13,192	945,542	521,840
-4,760	13,158	945,030	521,426
-3,746	13,145	944,279	520,952
-2,731	13,008	943,786	520,222
-1,717	12,879	943,071	519,399
-0,702	12,904	942,358	519,065
0,313	12,765	941,552	518,966
1,327	16,107	939,483	528,329
2,342	25,257	790,318	468,556
3,356	21,448	444,995	258,157
4,371	-7,411	298,116	143,865
5,386	-11,173	279,943	131,488
6,400	-12,423	274,320	127,663
7,415	-12,576	271,959	126,411
8,429	-12,713	270,319	125,511
9,444	-12,893	269,510	124,958
10,459	-12,767	268,701	124,688
11,473	-12,917	268,156	124,287
12,488	-13,006	267,460	123,872
13,502	-13,279	267,081	123,436
14,517	-13,225	266,679	123,289
15,531	-13,088	266,198	123,180
16,546	-13,270	265,882	122,857
17,561	-13,191	265,312	122,655
18,575	-13,196	265,076	122,530
19,590	-13,263	264,735	122,301
20,604	-13,163	264,382	122,217
21,619	-13,127	264,014	122,068
22,634	-13,206	263,695	121,839
23,648	-13,194	263,466	121,733
24,663	-13,179	263,019	121,530
25,677	-13,276	262,913	121,383
26,692	-13,132	262,382	121,256
27,707	-13,279	262,222	121,039
28,721	-13,134	261,994	121,052
29,736	-13,267	261,810	120,838
30,750	-13,492	261,443	120,457
31,765	-13,196	261,181	120,590
32,780	-13,382	261,131	120,390
33,794	-13,270	260,797	120,324
34,809	-13,236	260,489	120,203
35,823	-13,447	260,272	119,904
36,838	-13,400	260,032	119,825
37,853	-13,502	259,813	119,622
38,867	-13,358	259,458	119,576
39,882	-13,403	259,173	119,394
40,896	-13,401	259,027	119,318
41,911	-13,670	258,867	118,996
42,926	-13,513	258,631	119,016
43,940	-13,657	258,273	118,714
44,955	-13,711	258,205	118,624
45,969	-13,448	257,820	118,668
46,984	-13,784	257,643	118,281
47,999	-13,932	257,296	117,981
49,013	-14,046	257,208	117,831
50,028	-14,316	256,818	117,405
51,042	-14,299	256,595	117,307
52,057	-14,480	256,263	116,987
53,071	-14,462	256,216	116,971
54,086	-14,308	256,103	117,043
55,101	-14,002	255,792	117,157
56,115	-13,793	255,609	117,245
57,130	-13,413	255,471	117,501
58,144	-12,994	255,358	117,803
59,159	-12,959	255,056	117,684
60,174	-13,224	254,984	117,410
61,188	-13,188	254,643	117,274
62,203	-13,206	254,413	117,142
63,217	-13,420	254,311	116,899
64,232	-13,264	254,052	116,905
65,247	-13,032	253,881	117,015
66,261	-13,219	253,598	116,714
67,276	-13,518	253,389	116,350
68,290	-13,726	253,184	116,066
69,305	-13,652	252,705	115,900
70,320	-13,730	252,726	115,832
71,334	-13,712	252,580	115,770
72,349	-13,126	252,307	116,137
73,363	-13,077	252,171	116,106
74,378	-13,050	251,883	115,987
75,393	-13,233	251,603	115,691
76,407	-13,304	251,504	115,574
77,422	-13,251	251,245	115,491
78,436	-13,192	251,003	115,418
79,451	-13,205	251,000	115,396
80,466	-13,542	250,500	114,870
81,480	-13,492	250,348	114,832
82,495	-13,471	250,058	114,707
83,509	-13,561	249,986	114,587
84,524	-13,525	249,661	114,458
85,539	-13,683	249,483	114,232
86,553	-13,619	249,198	114,146
87,568	-13,684	249,127	114,048
88,582	-13,574	248,979	114,063
89,597	-13,722	248,827	113,859
90,611	-13,477	248,646	113,972
91,626	-13,397	248,520	113,971
92,641	-13,177	248,229	114,013
93,655	-13,352	248,133	113,811
94,670	-13,536	247,870	113,526
95,684	-13,435	247,682	113,515
96,699	-13,569	247,531	113,323
97,714	-13,580	247,376	113,233
98,728	-13,832	247,126	112,897
99,743	-13,584	246,841	112,964
100,757	-13,854	246,746	112,685
101,772	-13,731	246,459	112,646
102,787	-13,464	246,220	112,750
103,801	-13,489	246,130	112,678
104,816	-13,614	245,934	112,474
105,830	-13,366	245,888	112,650
106,845	-13,264	245,660	112,620
107,860	-13,419	245,582	112,446
108,874	-13,455	245,160	112,212
109,889	-13,510	245,012	112,089
110,903	-13,585	244,966	111,995
111,918	-13,623	244,607	111,790
112,933	-13,393	244,526	111,933
113,947	-13,363	244,279	111,835
114,962	-13,364	244,169	111,775
115,976	-13,404	244,064	111,683
116,991	-13,334	243,697	111,563
118,006	-13,407	243,741	111,513
119,020	-13,156	243,443	111,573
120,035	-13,207	243,263	111,438
121,049	-13,154	243,082	111,389
122,064	-13,438	242,955	111,087
123,079	-13,290	242,671	111,070
124,093	-13,432	242,516	110,873
125,108	-13,784	242,345	110,496
126,122	-13,916	241,987	110,215
127,137	-13,882	241,867	110,178
128,151	-13,999	241,694	109,993
129,166	-13,787	241,548	110,090
130,181	-13,612	241,407	110,160
131,195	-13,688	241,072	109,935
132,210	-13,640	240,981	109,923
133,224	-13,496	240,946	110,014
134,239	-13,358	240,616	109,966
135,254	-13,244	240,518	110,004
136,268	-13,640	240,369	109,604
137,283	-13,819	240,099	109,326
138,297	-13,777	239,743	109,188
139,312	-13,747	239,514	109,099
140,327	-13,498	239,538	109,301
141,341	-12,999	239,596	109,722
142,356	-13,104	239,411	109,542
143,370	-12,976	239,193	109,536
144,385	-12,926	239,048	109,501
145,400	-12,870	238,690	109,372
146,414	-12,951	238,784	109,339
147,429	-13,064	238,441	109,082
148,443	-13,152	238,304	108,938
149,458	-13,016	238,182	108,982
150,473	-12,949	237,865	108,882
151,487	-13,123	237,768	108,688
152,502	-13,087	237,650	108,653
153,516	-12,972	237,478	108,657
154,531	-12,903	237,278	108,611
155,546	-13,086	237,080	108,364
156,560	-12,975	236,826	108,328
157,575	-13,187	236,692	108,087
158,589	-13,266	236,522	107,937
159,604	-13,034	236,538	108,119
160,619	-12,837	236,332	108,173
161,633	-13,049	236,137	107,905
162,648	-12,829	236,006	108,011
163,662	-12,956	235,734	107,775
164,677	-13,126	235,577	107,559
165,692	-13,012	235,513	107,611
166,706	-12,822	235,313	107,661
167,721	-12,709	235,229	107,703
168,735	-12,758	235,103	107,596
169,750	-12,859	234,810	107,372
170,764	-13,149	234,828	107,142
171,779	-12,897	234,582	107,219
172,794	-13,079	234,505	107,031
173,808	-13,034	234,083	106,864
174,823	-13,499	233,800	106,359
175,837	-13,515	233,738	106,309
176,852	-13,283	233,620	106,429
177,867	-12,869	233,541	106,708
178,881	-12,905	233,354	106,585
179,896	-12,754	233,182	106,616
180,910	-12,862	233,103	106,485
181,925	-12,771	232,968	106,485
182,940	-12,783	232,787	106,383
183,954	-12,940	232,712	106,216
184,969	-12,854	232,418	106,140
185,983	-12,692	232,420	106,259
186,998	-12,865	232,379	106,095
188,013	-12,827	232,132	106,003
189,027	-12,714	231,824	105,940
190,042	-12,709	231,618	105,841
191,056	-12,796	231,692	105,797
192,071	-12,736	231,474	105,735
193,086	-12,854	231,338	105,571
194,100	-12,536	231,222	105,757
195,115	-12,761	230,895	105,423
196,129	-12,203	231,059	105,921
197,144	-6,299	232,998	111,418
198,159	-0,451	234,912	116,921
199,173	2,587	235,399	119,540
200,188	2,944	235,366	119,793
201,202	2,928	235,440	119,807
202,217	3,028	235,200	119,752
203,232	3,292	235,192	119,944
204,246	3,528	234,977	120,009
205,261	3,435	234,933	119,903
206,275	3,666	234,783	119,997
207,290	3,627	234,543	119,833
208,304	3,374	234,453	119,579
209,319	3,397	234,266	119,491
210,334	3,295	233,955	119,242
211,348	3,172	233,765	119,039
212,363	2,809	233,599	118,661
213,377	2,859	233,254	118,514
214,392	2,466	233,179	118,160
215,407	2,892	232,959	118,369
216,421	2,816	232,911	118,275
217,436	2,689	232,758	118,088
218,450	2,739	232,422	117,946
219,465	2,516	232,327	117,715
220,480	2,600	232,092	117,650
221,494	2,567	232,090	117,613
222,509	2,712	232,095	117,717
223,523	2,720	231,877	117,603
224,538	2,612	231,599	117,368
225,553	2,716	231,621	117,448
226,567	2,823	231,308	117,362
227,582	3,012	231,330	117,507
228,596	3,116	231,158	117,490
229,611	2,996	230,892	117,252
230,626	2,521	230,662	116,761
231,640	2,607	230,571	116,769
232,655	2,855	230,633	116,981
233,669	3,096	230,566	117,121
234,684	3,088	230,359	117,000
235,699	2,891	230,176	116,746
236,713	2,889	229,920	116,603
237,728	2,549	229,713	116,228
238,742	2,599	229,528	116,163
239,757	2,872	229,410	116,301
240,772	2,676	229,241	116,056
241,786	2,575	229,037	115,865
242,801	3,012	229,002	116,169
243,815	3,062	229,047	116,220
244,830	3,025	228,802	116,057
245,844	2,754	228,483	115,680
246,859	2,727	228,443	115,628
247,874	2,866	228,441	115,722
248,888	3,270	228,151	115,871
249,903	2,803	228,074	115,468
250,917	2,835	227,782	115,334
251,932	2,871	227,718	115,318
252,947	2,614	227,564	115,036
253,961	2,822	227,376	115,088
254,976	2,671	227,129	114,839
255,990	3,015	227,003	115,024
257,005	3,051	226,997	115,038
258,020	2,884	226,973	114,890
259,034	3,307	226,682	115,050
260,049	2,875	226,588	114,667
261,063	2,864	226,304	114,506
262,078	3,160	226,130	114,629
263,093	3,221	226,148	114,673
264,107	3,134	225,956	114,501
265,122	2,971	225,806	114,293
266,136	3,190	225,721	114,403
267,151	3,338	225,409	114,346
268,166	2,990	225,398	114,070
269,180	2,672	225,035	113,639
270,195	2,860	224,866	113,684
271,209	2,623	224,888	113,508
272,224	2,804	224,728	113,551
273,239	2,879	224,654	113,560
274,253	2,727	224,408	113,313
275,268	2,542	224,252	113,086
276,282	2,488	224,033	112,926
277,297	2,426	223,899	112,802
278,312	2,873	223,802	113,074
279,326	2,634	223,848	112,910
280,341	2,730	223,641	112,867
281,355	3,171	223,408	113,066
282,370	2,613	223,343	112,610
283,384	2,585	223,052	112,432
284,399	2,655	222,773	112,334
285,414	2,549	222,693	112,205
286,428	2,663	222,736	112,301
287,443	2,798	222,735	112,389
288,457	2,958	222,454	112,356
289,472	2,469	222,333	111,925
290,487	2,376	221,948	111,653
291,501	2,320	221,691	111,472
292,516	2,625	221,668	111,675
293,530	2,349	221,670	111,464
294,545	2,414	221,582	111,457
295,560	2,689	221,482	111,598
296,574	2,917	221,290	111,658
297,589	2,916	221,121	111,562
298,603	2,892	221,084	111,516
299,618	2,731	220,904	111,297
300,633	2,853	220,816	111,333
301,647	3,093	220,764	111,471
302,662	2,806	220,583	111,161
303,676	3,004	220,368	111,187
304,691	3,018	220,248	111,126
305,706	3,045	220,035	111,029
306,720	2,859	220,054	110,893
307,735	2,685	219,754	110,606
308,749	3,002	219,513	110,704
309,764	2,834	219,504	110,568
310,779	3,180	219,403	110,758
311,793	2,729	219,199	110,319
312,808	2,819	218,995	110,272
313,822	2,934	218,857	110,275
314,837	2,838	218,694	110,114
315,852	2,558	218,612	109,861
316,866	2,865	218,371	109,951
317,881	2,819	218,386	109,916
318,895	2,890	218,340	109,934
319,910	2,588	217,933	109,502
320,925	2,384	217,851	109,305
321,939	2,263	217,534	109,049
322,954	2,422	217,585	109,179
323,968	2,974	217,460	109,502
324,983	3,140	217,384	109,574
325,997	2,792	217,404	109,324
327,012	2,699	217,152	109,121
328,027	2,911	217,068	109,221
329,041	3,038	216,978	109,257
330,056	3,199	216,674	109,209
331,070	2,739	216,649	108,858
332,085	2,502	216,316	108,512
333,100	2,403	216,110	108,329
334,114	2,488	216,091	108,370
335,129	2,957	215,976	108,637
336,143	3,029	215,772	108,575
337,158	3,119	215,728	108,607
338,173	2,766	215,764	108,365
339,187	2,720	215,438	108,159
340,202	2,590	215,136	107,905
341,216	2,605	215,000	107,839
342,231	2,741	215,026	107,938
343,246	2,617	214,962	107,808
344,260	2,659	214,775	107,735
345,275	3,056	214,639	107,938
346,289	2,724	214,512	107,630
347,304	2,689	214,560	107,619
348,319	2,829	214,174	107,514
349,333	2,497	214,147	107,258
350,348	2,774	213,868	107,304
351,362	3,020	213,809	107,437
352,377	2,859	213,867	107,343
353,392	2,984	213,491	107,233
354,406	2,776	213,457	107,060
355,421	196,847	1315,067	1392,064
356,435	157,482	1449,219	1392,006
