DTS Sentinel unit serial number:	SN410029Multiplexer serial number:	ORYXHardware model number:	OX2-SRSoftware version number:	ORYX F/W v4,00 Oryx Data Collector v3.7.2.0data status	okinstallation	B6 Nyhavnadifferential loss correction	single-endedforward channel	channel 2reverse channel	N/Adate	2023/12/09time	11:55:08forward acquisition time	300,00reverse acquisition time	0,00gamma	499,1914k internal	0,3140k external	0,3140temperature offset calibration	1,0000default loss term (dB/km)	0,3820temperature slope calibration	1,0000multiplexer offset coefficient	1,0000multiplexer slope coefficient	1,0000fibre end	0,00T internal ref (°C)	19,06T ext. ref 1 (°C)	3,24T ext. ref 2 (°C)	3,22length (m)	temperature (°C)	Stokes	anti-Stokes-744,400	143,183	0,068	-0,067
-743,385	-134,819	-0,119	0,011
-742,371	800,000	0,012	-0,026
-741,356	-136,606	-0,301	0,025
-740,342	-88,567	0,158	-0,035
-739,327	-30,732	-0,137	0,057
-738,312	-51,932	-0,091	-0,031
-737,298	6,890	-0,214	0,118
-736,283	-106,734	0,091	0,015
-735,269	113,782	-0,239	0,215
-734,254	191,890	0,101	0,113
-733,239	51,432	-0,385	-0,271
-732,225	-30,303	0,085	-0,036
-731,210	392,430	-0,043	0,066
-730,196	-90,719	0,065	0,014
-729,181	-66,734	-0,160	-0,047
-728,167	38,905	-0,088	-0,058
-727,152	219,688	0,023	-0,027
-726,137	-200,000	-0,002	0,104
-725,123	258,634	-0,019	-0,024
-724,108	-121,424	-0,018	0,002
-723,094	362,973	-0,059	-0,087
-722,079	-200,000	-0,013	-0,084
-721,064	203,698	-0,054	0,062
-720,050	-46,893	0,108	0,039
-719,035	-3,442	0,053	-0,027
-718,021	-200,000	-0,032	-0,121
-717,006	800,000	0,034	-0,087
-715,991	-174,821	-0,149	0,003
-714,977	-35,703	-0,049	0,020
-713,962	-200,000	0,006	-0,028
-712,948	800,000	0,008	0,023
-711,933	220,629	0,100	0,118
-710,918	288,280	0,037	0,049
-709,904	30,201	-0,057	0,036
-708,889	-65,733	-0,084	-0,025
-707,875	-111,845	-0,078	-0,012
-706,860	-4,133	-0,079	0,041
-705,845	-78,358	0,057	0,014
-704,831	-11,980	0,031	-0,015
-703,816	315,401	-0,013	0,019
-702,802	-200,000	-0,019	-0,080
-701,787	690,997	0,021	0,040
-700,772	-200,000	0,035	-0,171
-699,758	800,000	-0,053	-0,153
-698,743	294,000	0,055	-0,074
-697,729	-200,000	-0,010	0,134
-696,714	270,727	-0,016	-0,021
-695,699	205,006	-0,048	-0,055
-694,685	-156,358	-0,067	0,003
-693,670	437,976	-0,066	-0,108
-692,656	734,239	-0,050	0,099
-691,641	117,159	-0,106	-0,097
-690,627	-200,000	-0,009	0,033
-689,612	-200,000	0,010	-0,057
-688,597	19,380	-0,142	-0,084
-687,583	505,112	-0,068	-0,117
-686,568	20,714	-0,099	-0,059
-685,554	170,858	-0,065	-0,069
-684,539	800,000	0,054	-0,158
-683,524	800,000	-0,056	0,122
-682,510	-181,797	-0,046	-0,001
-681,495	141,129	-0,041	-0,040
-680,481	-154,307	-0,051	-0,002
-679,466	178,608	-0,107	-0,116
-678,451	800,000	0,047	0,132
-677,437	133,036	0,025	-0,024
-676,422	-200,000	0,015	0,073
-675,408	452,093	0,063	0,104
-674,393	-200,000	0,011	-0,043
-673,378	59,105	-0,149	-0,108
-672,364	20,512	0,070	-0,042
-671,349	-200,000	-0,001	-0,160
-670,335	-47,558	-0,067	-0,024
-669,320	60,522	0,021	0,016
-668,305	-200,000	0,005	0,120
-667,291	800,000	-0,024	-0,052
-666,276	-182,985	-0,059	0,001
-665,262	9,293	-0,150	-0,084
-664,247	800,000	-0,020	-0,062
-663,232	-200,000	-0,011	-0,074
-662,218	-200,000	0,009	-0,047
-661,203	-200,000	-0,035	-0,183
-660,189	-24,376	-0,160	-0,070
-659,174	61,065	0,053	0,039
-658,159	28,960	-0,145	-0,090
-657,145	-200,000	0,013	-0,046
-656,130	-122,382	0,047	0,006
-655,116	41,797	-0,061	0,041
-654,101	-85,392	0,038	0,009
-653,086	82,693	0,071	-0,057
-652,072	-162,525	-0,193	0,007
-651,057	-200,000	0,007	-0,035
-650,043	1,732	-0,154	0,082
-649,028	5,809	-0,210	-0,115
-648,014	-116,825	0,127	0,017
-646,999	-200,000	0,012	0,106
-645,984	-200,000	-0,004	-0,121
-644,970	800,000	-0,036	-0,098
-643,955	408,694	-0,053	-0,083
-642,941	-200,000	-0,018	-0,075
-641,926	-0,842	-0,069	-0,036
-640,911	371,168	0,013	-0,020
-639,897	-200,000	-0,011	-0,088
-638,882	-43,870	-0,092	-0,034
-637,868	27,805	0,058	-0,036
-636,853	-162,469	-0,109	0,004
-635,838	367,691	-0,043	-0,064
-634,824	465,069	-0,029	-0,048
-633,809	11,407	-0,043	0,024
-632,795	800,000	0,027	-0,070
-631,780	153,746	-0,020	-0,020
-630,765	51,460	-0,077	-0,054
-629,751	-40,625	-0,114	-0,043
-628,736	-200,000	-0,041	-0,138
-627,722	465,295	0,052	-0,087
-626,707	199,121	0,066	-0,075
-625,692	-98,655	-0,041	0,008
-624,678	-200,000	0,002	0,115
-623,663	-200,000	0,028	-0,109
-622,649	-64,547	0,047	0,014
-621,634	12,139	-0,058	-0,033
-620,619	800,000	0,025	0,058
-619,605	800,000	-0,036	0,101
-618,590	-200,000	0,048	0,191
-617,576	94,443	0,066	0,055
-616,561	-65,727	-0,042	-0,012
-615,546	-200,000	-0,020	-0,129
-614,532	-200,000	0,011	-0,058
-613,517	86,362	0,104	-0,084
-612,503	43,981	-0,072	0,048
-611,488	-61,796	0,047	-0,014
-610,474	658,843	0,036	0,068
-609,459	-61,907	0,188	0,058
-608,444	-200,000	0,015	-0,067
-607,430	38,571	0,077	0,050
-606,415	32,522	-0,096	-0,061
-605,401	-128,877	0,052	0,005
-604,386	-131,647	-0,042	0,004
-603,371	-9,453	0,052	0,025
-602,357	-90,455	0,081	-0,017
-601,342	-200,000	-0,008	0,106
-600,328	-19,990	-0,065	-0,029
-599,313	383,774	-0,066	-0,101
-598,298	-116,992	-0,090	-0,012
-597,284	-200,000	-0,015	-0,209
-596,269	49,541	-0,060	-0,041
-595,255	87,124	-0,060	-0,049
-594,240	-98,601	-0,064	0,012
-593,225	-33,810	-0,045	0,018
-592,211	-200,000	-0,006	0,020
-591,196	-188,746	-0,210	0,002
-590,182	3,560	0,053	0,028
-589,167	105,399	-0,114	0,099
-588,152	-200,000	-0,026	0,086
-587,138	342,715	-0,071	-0,103
-586,123	-69,064	-0,119	0,033
-585,109	188,239	0,059	-0,066
-584,094	-50,620	-0,074	0,025
-583,079	800,000	-0,041	-0,108
-582,065	800,000	0,021	-0,044
-581,050	500,355	0,034	0,058
-580,036	-112,356	-0,058	-0,008
-579,021	326,245	0,072	-0,102
-578,006	115,319	-0,057	0,051
-576,992	-183,521	-0,096	0,001
-575,977	85,790	0,161	-0,130
-574,963	83,035	-0,066	0,053
-573,948	-39,389	0,071	0,027
-572,934	276,284	-0,049	0,064
-571,919	-102,537	-0,111	-0,019
-570,904	-11,502	0,109	0,053
-569,890	800,000	0,018	-0,043
-568,875	-200,000	-0,003	-0,074
-567,861	-99,469	0,094	0,017
-566,846	236,107	0,067	0,082
-565,831	-145,069	-0,026	-0,002
-564,817	702,036	-0,030	0,058
-563,802	386,987	-0,033	-0,050
-562,788	345,547	-0,042	0,060
-561,773	800,000	-0,018	-0,041
-560,758	9,956	0,158	0,088
-559,744	-200,000	0,020	-0,085
-558,729	13,999	-0,213	0,122
-557,715	-200,000	-0,025	0,082
-556,700	35,386	-0,091	0,059
-555,685	33,151	-0,104	-0,067
-554,671	635,446	-0,042	0,079
-553,656	75,828	-0,046	-0,036
-552,642	-96,383	0,113	0,022
-551,627	-170,817	0,082	-0,002
-550,612	151,968	-0,058	-0,058
-549,598	-59,603	-0,079	-0,025
-548,583	-197,936	-0,077	0,000
-547,569	-200,000	0,003	-0,106
-546,554	416,752	0,049	-0,077
-545,539	30,461	0,140	0,088
-544,525	-200,000	0,005	-0,042
-543,510	-94,794	-0,053	-0,010
-542,496	666,387	0,010	0,020
-541,481	156,463	-0,092	-0,094
-540,466	-200,000	0,028	-0,164
-539,452	-116,463	0,125	-0,017
-538,437	775,198	0,039	0,080
-537,423	1,395	0,073	-0,039
-536,408	-200,000	0,001	0,023
-535,393	267,067	-0,056	-0,072
-534,379	-167,386	0,038	0,001
-533,364	-89,253	-0,055	-0,012
-532,350	355,500	0,058	0,086
-531,335	-200,000	-0,002	0,124
-530,321	57,414	-0,022	0,016
-529,306	-102,160	-0,068	-0,012
-528,291	318,000	-0,113	0,158
-527,277	-13,970	-0,082	0,039
-526,262	-200,000	0,003	-0,060
-525,248	-16,793	-0,035	0,016
-524,233	800,000	0,003	0,008
-523,218	-194,174	-0,094	0,001
-522,204	137,147	-0,052	-0,050
-521,189	100,524	-0,152	-0,130
-520,175	800,000	-0,023	-0,075
-519,160	224,794	0,085	-0,102
-518,145	-200,000	0,002	0,015
-517,131	-78,037	0,055	-0,014
-516,116	99,216	0,053	-0,045
-515,102	303,681	-0,061	0,083
-514,087	68,839	-0,034	-0,026
-513,072	-108,723	-0,074	-0,012
-512,058	-2,657	0,102	-0,052
-511,043	-96,793	0,104	-0,020
-510,029	800,000	-0,066	0,135
-509,014	800,000	-0,025	0,079
-507,999	336,720	-0,073	0,104
-506,985	57,570	0,073	-0,053
-505,970	-82,841	-0,065	-0,015
-504,956	800,000	-0,032	-0,099
-503,941	-147,793	-0,055	-0,003
-502,926	-89,606	0,075	-0,016
-501,912	169,396	0,095	0,100
-500,897	-200,000	-0,049	0,196
-499,883	92,338	0,142	-0,118
-498,868	-200,000	-0,006	-0,051
-497,853	800,000	0,022	0,048
-496,839	1,217	-0,067	-0,035
-495,824	211,593	-0,023	0,026
-494,810	-200,000	0,019	0,130
-493,795	-200,000	0,001	0,007
-492,781	-84,500	0,085	-0,020
-491,766	800,000	0,016	-0,044
-490,751	-135,105	-0,034	0,003
-489,737	800,000	-0,036	0,107
-488,722	115,667	0,144	0,129
-487,708	520,138	-0,061	0,105
-486,693	114,120	0,095	0,085
-485,678	360,878	0,048	-0,070
-484,664	33,296	-0,068	-0,043
-483,649	-114,357	0,039	-0,005
-482,635	-28,313	-0,052	-0,022
-481,620	-114,663	0,218	-0,030
-480,605	-36,887	0,125	0,049
-479,591	51,224	-0,104	0,072
-478,576	-49,945	-0,021	0,007
-477,562	113,086	-0,075	0,067
-476,547	-200,000	-0,005	-0,091
-475,532	412,880	-0,050	0,078
-474,518	135,181	-0,033	-0,032
-473,503	-200,000	0,017	0,144
-472,489	-200,000	-0,011	0,123
-471,474	-136,747	-0,116	-0,010
-470,459	20,152	0,075	-0,044
-469,445	2,893	-0,124	-0,066
-468,430	-32,508	-0,086	0,035
-467,416	-200,000	0,057	0,256
-466,401	121,819	0,037	0,034
-465,386	52,450	0,056	0,039
-464,372	-1,378	0,087	-0,045
-463,357	-200,000	-0,017	-0,080
-462,343	-16,225	-0,126	-0,059
-461,328	42,249	0,044	-0,029
-460,313	6,498	-0,084	0,046
-459,299	45,936	0,029	0,019
-458,284	557,545	0,064	-0,114
-457,270	97,653	-0,085	-0,072
-456,255	168,890	-0,047	0,049
-455,241	-200,000	-0,009	-0,068
-454,226	-200,000	-0,057	-0,258
-453,211	60,994	-0,080	-0,058
-452,197	39,683	-0,054	0,036
-451,182	230,144	-0,034	-0,040
-450,168	-37,114	0,022	-0,009
-449,153	402,203	-0,044	-0,068
-448,138	746,259	-0,025	0,049
-447,124	-34,576	-0,033	0,013
-446,109	274,689	0,055	0,071
-445,095	-104,997	0,210	0,035
-444,080	800,000	-0,015	-0,045
-443,065	-115,611	0,087	0,012
-442,051	-181,032	-0,151	0,002
-441,036	643,896	-0,057	-0,106
-440,022	-200,000	-0,003	-0,196
-439,007	-146,177	0,039	0,002
-437,992	483,085	-0,038	0,064
-436,978	137,596	0,100	-0,096
-435,963	800,000	-0,004	0,012
-434,949	-57,369	0,058	-0,019
-433,934	217,141	0,041	0,048
-432,919	-136,631	-0,050	0,004
-431,905	-41,584	0,101	-0,038
-430,890	140,080	-0,054	-0,052
-429,876	159,048	-0,081	0,082
-428,861	30,553	-0,192	-0,120
-427,846	-23,091	0,030	-0,013
-426,832	-66,439	-0,099	0,029
-425,817	-119,191	-0,043	-0,005
-424,803	-200,000	0,039	0,212
-423,788	-200,000	-0,025	-0,116
-422,773	196,834	0,029	-0,032
-421,759	-72,221	0,026	-0,007
-420,744	-130,330	0,135	-0,013
-419,730	-200,000	-0,021	0,121
-418,715	800,000	-0,039	-0,108
-417,701	144,385	0,045	-0,044
-416,686	-18,511	0,127	-0,058
-415,671	-174,517	0,190	0,004
-414,657	501,969	-0,029	-0,049
-413,642	800,000	-0,016	-0,049
-412,628	-88,059	-0,010	0,002
-411,613	-200,000	0,046	-0,180
-410,598	800,000	0,041	0,089
-409,584	755,150	0,040	-0,080
-408,569	41,878	0,121	-0,080
-407,555	-98,050	-0,058	-0,011
-406,540	75,629	0,109	-0,084
-405,525	-93,244	-0,036	-0,007
-404,511	-53,528	0,012	0,004
-403,496	-200,000	-0,020	-0,097
-402,482	800,000	-0,016	0,047
-401,467	303,527	-0,012	0,016
-400,452	-85,566	0,068	-0,015
-399,438	-200,000	0,033	-0,151
-398,423	800,000	-0,076	-0,179
-397,409	800,000	-0,080	-0,180
-396,394	-171,325	0,099	0,002
-395,379	-122,519	0,064	-0,008
-394,365	-200,000	-0,011	0,083
-393,350	141,256	-0,067	0,065
-392,336	93,534	-0,025	0,021
-391,321	-58,591	-0,082	-0,026
-390,306	-40,285	-0,056	-0,021
-389,292	-200,000	0,020	0,073
-388,277	117,144	0,082	0,074
-387,263	14,890	0,069	0,039
-386,248	-200,000	0,004	0,056
-385,233	800,000	-0,060	0,149
-384,219	55,895	0,136	-0,096
-383,204	768,250	0,019	-0,038
-382,190	-28,181	0,040	0,017
-381,175	123,363	0,031	0,028
-380,160	800,000	-0,050	0,135
-379,146	84,008	0,056	0,044
-378,131	-200,000	-0,026	0,119
-377,117	281,501	-0,086	0,113
-376,102	-200,000	0,029	0,148
-375,088	0,519	-0,052	-0,027
-374,073	-200,000	-0,005	0,030
-373,058	-200,000	0,019	0,117
-372,044	-34,227	0,103	-0,041
-371,029	713,304	0,059	0,115
-370,015	-88,051	0,036	-0,008
-369,000	800,000	0,060	-0,165
-367,985	800,000	-0,033	-0,078
-366,971	25,900	0,071	-0,043
-365,956	398,945	-0,066	-0,102
-364,942	109,022	0,101	0,088
-363,927	247,010	0,023	0,029
-362,912	-91,305	0,103	0,021
-361,898	777,643	0,042	-0,085
-360,883	138,312	0,053	-0,051
-359,869	338,278	-0,072	-0,102
-358,854	-54,753	0,144	-0,047
-357,839	208,247	-0,129	0,148
-356,825	613,014	-0,042	0,077
-355,810	339,278	0,059	0,084
-354,796	-96,823	-0,066	-0,013
-353,781	62,143	0,054	-0,040
-352,766	695,014	-0,027	0,052
-351,752	-96,283	-0,097	0,019
-350,737	279,734	0,057	0,075
-349,723	-200,000	0,002	-0,023
-348,708	-200,000	0,018	-0,079
-347,693	173,148	-0,104	0,109
-346,679	-111,174	0,028	-0,004
-345,664	800,000	0,034	0,073
-344,650	-77,982	-0,056	0,014
-343,635	66,468	0,031	-0,023
-342,620	778,087	-0,005	0,009
-341,606	446,185	0,031	0,050
-340,591	-27,343	-0,135	-0,057
-339,577	41,397	0,065	0,043
-338,562	800,000	0,040	0,083
-337,548	-107,253	0,119	-0,019
-336,533	180,610	0,036	-0,038
-335,518	75,474	-0,075	-0,058
-334,504	-28,362	0,030	-0,012
-333,489	-200,000	0,041	0,156
-332,475	210,189	0,020	0,023
-331,460	106,721	0,114	-0,099
-330,445	49,937	0,130	0,090
-329,431	-92,643	-0,052	0,010
-328,416	800,000	0,027	0,083
-327,402	-49,083	0,107	0,037
-326,387	536,893	0,017	0,030
-325,372	-106,141	-0,103	-0,017
-324,358	800,000	-0,032	-0,085
-323,343	102,845	-0,075	-0,064
-322,329	152,368	0,059	0,058
-321,314	-200,000	0,006	-0,036
-320,299	119,553	0,041	0,037
-319,285	-200,000	-0,005	0,063
-318,270	800,000	-0,035	-0,097
-317,256	121,520	-0,072	-0,065
-316,241	29,163	0,079	0,049
-315,226	-79,304	0,148	-0,036
-314,212	-30,022	0,167	-0,069
-313,197	-80,250	0,134	-0,032
-312,183	50,450	-0,040	-0,027
-311,168	230,792	-0,079	0,095
-310,153	298,310	-0,098	0,131
-309,139	278,470	-0,029	-0,037
-308,124	-140,289	0,086	-0,006
-307,110	227,465	0,038	-0,046
-306,095	-56,280	0,084	-0,027
-305,080	-121,129	-0,097	-0,012
-304,066	39,577	-0,044	0,029
-303,051	-200,000	-0,040	-0,151
-302,037	800,000	-0,033	-0,068
-301,022	577,009	-0,052	-0,094
-300,008	-200,000	0,030	0,110
-298,993	477,290	-0,056	0,093
-297,978	-150,416	-0,023	-0,001
-296,964	-200,000	0,004	0,153
-295,949	-117,052	-0,065	0,009
-294,935	79,070	-0,135	0,105
-293,920	7,716	0,100	-0,055
-292,905	-19,638	-0,113	0,051
-291,891	-41,120	-0,033	0,012
-290,876	-23,052	0,070	0,030
-289,862	800,000	0,052	0,163
-288,847	-200,000	-0,000	0,031
-287,832	-171,692	0,074	0,002
-286,818	-200,000	0,000	0,164
-285,803	-200,000	-0,024	-0,081
-284,789	-200,000	0,013	-0,072
-283,774	-193,343	0,068	-0,000
-282,759	-115,859	0,019	0,002
-281,745	78,360	-0,063	-0,049
-280,730	116,784	0,065	-0,059
-279,716	607,169	-0,022	0,040
-278,701	-39,224	-0,069	-0,026
-277,686	800,000	-0,033	0,069
-276,672	-200,000	-0,019	0,096
-275,657	-45,804	-0,023	0,008
-274,643	-200,000	-0,011	-0,112
-273,628	57,517	-0,012	0,008
-272,613	31,037	-0,129	-0,081
-271,599	54,739	-0,037	-0,026
-270,584	89,813	0,167	-0,135
-269,570	800,000	-0,048	-0,109
-268,555	-45,774	-0,120	-0,043
-267,540	381,149	0,034	0,050
-266,526	-62,032	-0,056	0,017
-265,511	-200,000	0,022	0,151
-264,497	149,858	0,053	0,053
-263,482	-50,097	0,117	-0,040
-262,467	-78,511	0,088	0,022
-261,453	-63,082	0,077	0,023
-260,438	-101,916	-0,077	-0,013
-259,424	266,873	0,021	-0,027
-258,409	593,488	0,060	0,108
-257,395	-5,541	-0,127	-0,063
-256,380	764,153	0,056	0,110
-255,365	-55,359	-0,071	-0,023
-254,351	-109,436	-0,062	-0,009
-253,336	800,000	-0,033	-0,095
-252,322	-42,830	-0,141	-0,052
-251,307	800,000	-0,036	-0,102
-250,292	-200,000	0,030	-0,159
-249,278	77,448	-0,015	-0,011
-248,263	-200,000	0,031	-0,150
-247,249	64,999	-0,021	0,015
-246,234	36,830	0,080	0,051
-245,219	-18,421	0,080	-0,036
-244,205	485,491	-0,065	0,109
-243,190	458,049	-0,021	0,035
-242,176	38,951	-0,068	-0,044
-241,161	-61,065	0,084	0,025
-240,146	460,386	0,031	-0,051
-239,132	168,061	-0,046	0,048
-238,117	-22,262	-0,035	0,015
-237,103	-200,000	-0,032	-0,131
-236,088	-96,087	0,108	-0,021
-235,073	-8,146	0,082	-0,040
-234,059	-124,510	0,091	-0,010
-233,044	168,216	0,094	0,097
-232,030	-32,906	-0,048	0,019
-231,015	254,132	0,077	0,095
-230,000	289,115	-0,062	-0,082
-228,986	-200,000	-0,007	0,027
-227,971	-200,000	-0,052	0,226
-226,957	-5,333	0,062	0,031
-225,942	-36,374	0,045	0,017
-224,927	66,268	-0,053	0,039
-223,913	-122,571	-0,181	-0,021
-222,898	-170,823	0,101	-0,002
-221,884	142,445	0,088	-0,085
-220,869	800,000	-0,028	0,069
-219,855	-200,000	0,011	0,075
-218,840	102,870	0,061	0,052
-217,825	142,132	-0,053	0,051
-216,811	0,094	-0,026	-0,014
-215,796	57,839	0,062	-0,044
-214,782	800,000	0,046	-0,115
-213,767	415,750	0,015	0,024
-212,752	-72,023	-0,031	0,008
-211,738	142,283	0,067	0,065
-210,723	800,000	-0,041	0,085
-209,709	16,445	-0,103	0,059
-208,694	354,988	-0,042	0,061
-207,679	-200,000	-0,017	0,145
-206,665	-88,561	0,074	0,016
-205,650	5,884	0,194	0,104
-204,636	-122,931	0,149	0,017
-203,621	645,889	0,044	-0,081
-202,606	-142,183	0,122	0,009
-201,592	736,856	0,043	-0,084
-200,577	800,000	0,056	0,133
-199,563	642,180	-0,027	-0,050
-198,548	420,575	-0,048	0,075
-197,533	-74,067	0,108	-0,028
-196,519	314,550	0,020	0,028
-195,504	140,572	-0,133	-0,128
-194,490	536,291	-0,044	-0,075
-193,475	800,000	0,059	0,137
-192,460	-200,000	-0,032	-0,145
-191,446	-170,751	0,036	0,001
-190,431	-71,303	-0,008	-0,002
-189,417	595,835	0,024	0,043
-188,402	81,699	0,076	0,059
-187,387	-95,029	0,056	-0,011
-186,373	-200,000	0,017	0,102
-185,358	433,496	-0,055	-0,087
-184,344	-200,000	-0,005	-0,023
-183,329	136,471	0,015	-0,014
-182,315	-200,000	-0,021	0,080
-181,300	697,088	-0,028	0,054
-180,285	-22,605	-0,143	-0,062
-179,271	800,000	-0,050	-0,144
-178,256	-32,121	-0,092	-0,037
-177,242	-200,000	0,005	0,018
-176,227	181,618	0,041	0,044
-175,212	5,563	0,052	0,028
-174,198	800,000	-0,005	-0,010
-173,183	39,677	-0,095	0,062
-172,169	261,108	-0,009	0,012
-171,154	800,000	-0,037	-0,080
-170,139	296,789	0,092	0,122
-169,125	-106,898	0,037	-0,006
-168,110	-200,000	-0,068	0,243
-167,096	447,809	-0,031	-0,050
-166,081	800,000	0,038	-0,078
-165,066	-90,553	0,036	-0,008
-164,052	800,000	0,019	-0,045
-163,037	800,000	-0,054	-0,142
-162,023	717,264	-0,043	0,084
-161,008	800,000	-0,010	0,031
-159,993	305,193	-0,113	-0,152
-158,979	-167,550	0,092	0,003
-157,964	-200,000	0,008	0,030
-156,950	-132,485	0,133	-0,012
-155,935	800,000	-0,016	0,048
-154,920	800,000	-0,051	0,130
-153,906	512,207	0,073	0,123
-152,891	800,000	-0,052	0,147
-151,877	-200,000	-0,002	-0,060
-150,862	-26,460	0,042	0,018
-149,847	557,641	-0,052	0,091
-148,833	-49,887	0,171	0,058
-147,818	306,360	0,079	0,107
-146,804	-90,015	0,034	0,007
-145,789	19,759	0,021	-0,012
-144,775	-19,994	0,051	0,023
-143,760	86,529	-0,016	0,013
-142,745	-200,000	-0,041	-0,191
-141,731	219,023	0,033	0,038
-140,716	572,690	0,091	-0,162
-139,702	52,006	0,059	0,041
-138,687	515,540	-0,082	-0,140
-137,672	-176,891	0,164	0,003
-136,658	74,982	0,110	0,083
-135,643	-119,250	-0,063	0,008
-134,629	-200,000	0,001	0,092
-133,614	-200,000	-0,014	0,076
-132,599	600,157	0,047	-0,085
-131,585	54,575	-0,103	0,072
-130,570	104,632	-0,096	0,082
-129,556	456,342	-0,080	-0,129
-128,541	-200,000	0,056	-0,181
-127,526	-186,210	0,104	-0,001
-126,512	217,577	-0,066	0,076
-125,497	25,733	-0,111	-0,067
-124,483	-105,466	0,022	-0,004
-123,468	-200,000	0,007	0,065
-122,453	44,364	0,063	-0,042
-121,439	800,000	-0,022	-0,047
-120,424	117,715	0,028	-0,025
-119,410	186,760	0,025	0,027
-118,395	800,000	0,047	-0,106
-117,380	-128,081	-0,116	-0,012
-116,366	36,652	-0,137	0,087
-115,351	381,942	-0,064	0,095
-114,337	14,891	-0,084	0,047
-113,322	-107,466	-0,138	0,022
-112,307	531,100	0,036	-0,061
-111,293	10,890	-0,033	-0,018
-110,278	-85,819	-0,016	-0,004
-109,264	800,000	0,035	-0,086
-108,249	226,104	-0,058	0,068
-107,234	279,423	-0,031	-0,040
-106,220	233,557	-0,023	-0,028
-105,205	-200,000	0,003	-0,041
-104,191	800,000	0,023	0,065
-103,176	-200,000	0,021	0,118
-102,162	766,637	-0,046	-0,090
-101,147	-163,481	0,009	-0,000
-100,132	145,086	-0,080	-0,077
-99,118	-200,000	0,005	-0,061
-98,103	-88,838	-0,034	-0,007
-97,089	149,044	-0,145	0,142
-96,074	596,572	0,027	-0,048
-95,059	14,952	0,113	0,064
-94,045	-87,003	-0,054	-0,012
-93,030	68,960	-0,051	-0,038
-92,016	-25,160	-0,088	0,038
-91,001	-63,118	0,183	-0,054
-89,986	-200,000	0,027	-0,088
-88,972	-106,250	0,149	-0,024
-87,957	-24,809	-0,138	-0,059
-86,943	602,042	0,050	-0,091
-85,928	12,490	0,133	-0,074
-84,913	-200,000	0,024	-0,104
-83,899	-136,546	0,067	0,006
-82,884	-179,527	-0,139	-0,002
-81,870	-181,034	-0,100	0,001
-80,855	4,942	-0,102	-0,054
-79,840	58,518	-0,111	-0,078
-78,826	-200,000	0,002	-0,125
-77,811	175,108	-0,073	-0,077
-76,797	-200,000	-0,012	0,040
-75,782	245,610	0,059	0,071
-74,767	-133,662	-0,051	0,005
-73,753	-105,618	0,030	-0,005
-72,738	15,359	0,089	0,050
-71,724	3,961	-0,097	0,051
-70,709	87,425	-0,073	-0,058
-69,694	-200,000	-0,004	0,042
-68,680	-200,000	0,008	0,096
-67,665	49,175	0,017	-0,011
-66,651	-59,141	0,103	-0,032
-65,636	56,677	-0,063	0,044
-64,622	-75,308	-0,136	-0,035
-63,607	107,740	-0,149	-0,128
-62,592	-127,873	0,099	-0,010
-61,578	-8,498	-0,099	0,048
-60,563	-60,964	0,087	0,026
-59,549	-84,804	0,028	0,006
-58,534	-42,848	-1,753	-0,640
-57,519	800,000	-0,533	-1,239
-56,505	-200,000	-1,031	-4,765
-55,490	-178,989	0,585	0,009
-54,476	800,000	5,269	12,223
-53,461	-200,000	15,456	271,297
-52,446	800,000	699,922	2223,197
-51,432	556,694	1617,820	2824,881
-50,417	119,962	1624,505	1453,908
-49,403	79,598	1283,691	993,466
-48,388	36,745	1026,712	653,336
-47,373	21,854	988,210	579,705
-46,359	20,881	976,817	569,800
-45,344	19,280	972,843	562,210
-44,330	19,372	971,471	561,695
-43,315	19,061	970,072	559,848
-42,300	19,096	968,745	559,173
-41,286	19,099	967,956	558,705
-40,271	19,087	966,956	558,065
-39,257	19,114	965,960	557,556
-38,242	19,123	965,101	557,070
-37,227	19,113	964,412	556,617
-36,213	19,022	963,691	555,882
-35,198	19,033	962,724	555,339
-34,184	19,159	962,018	555,318
-33,169	19,071	960,979	554,412
-32,154	19,189	960,045	554,232
-31,140	19,129	959,229	553,544
-30,125	19,131	958,406	553,054
-29,111	19,118	957,663	552,561
-28,096	19,220	957,076	552,531
-27,082	19,138	956,254	551,769
-26,067	19,089	955,796	551,325
-25,052	19,057	954,840	550,650
-24,038	19,034	954,261	550,221
-23,023	19,148	953,512	550,131
-22,009	19,094	952,877	549,572
-20,994	19,109	952,053	549,121
-19,979	19,103	951,508	548,765
-18,965	19,034	951,150	548,317
-17,950	19,106	950,401	548,093
-16,936	19,040	949,867	547,551
-15,921	19,059	949,130	547,166
-14,906	18,996	948,332	546,482
-13,892	18,952	947,745	545,985
-12,877	18,907	947,114	545,454
-11,863	18,984	946,506	545,330
-10,848	19,000	945,785	544,943
-9,833	19,061	945,480	544,940
-8,819	19,024	944,848	544,435
-7,804	19,009	944,156	543,966
-6,790	18,947	943,664	543,464
-5,775	18,971	943,023	543,152
-4,760	18,961	942,478	542,783
-3,746	18,947	941,752	542,299
-2,731	18,811	940,964	541,393
-1,717	18,739	940,451	540,850
-0,702	18,768	939,600	540,428
0,313	18,583	939,202	540,430
1,327	21,694	937,295	549,111
2,342	30,672	795,556	489,941
3,356	28,086	449,296	272,798
4,371	-1,332	294,982	149,684
5,386	-5,420	276,571	136,449
6,400	-6,453	270,816	132,636
7,415	-7,047	268,398	130,893
8,429	-6,981	267,166	130,341
9,444	-6,973	266,319	129,922
10,459	-6,843	265,434	129,598
11,473	-6,925	264,947	129,274
12,488	-7,122	264,471	128,851
13,502	-7,554	263,933	128,186
14,517	-7,473	263,418	127,997
15,531	-7,488	263,113	127,824
16,546	-7,463	262,695	127,633
17,561	-7,757	262,325	127,177
18,575	-7,549	261,846	127,120
19,590	-7,711	261,590	126,839
20,604	-7,441	261,320	126,938
21,619	-7,860	261,024	126,408
22,634	-7,675	260,696	126,404
23,648	-7,703	260,329	126,190
24,663	-7,642	260,105	126,124
25,677	-7,768	259,849	125,877
26,692	-7,575	259,509	125,872
27,707	-7,587	259,276	125,737
28,721	-7,781	258,989	125,415
29,736	-7,793	258,776	125,290
30,750	-7,813	258,541	125,147
31,765	-7,485	258,176	125,250
32,780	-7,804	258,145	124,941
33,794	-7,828	257,778	124,731
34,809	-7,778	257,558	124,658
35,823	-7,807	257,412	124,550
36,838	-7,935	257,027	124,240
37,853	-7,688	256,717	124,296
38,867	-7,884	256,597	124,055
39,882	-7,809	256,308	123,970
40,896	-7,862	256,180	123,850
41,911	-7,761	255,862	123,774
42,926	-7,889	255,830	123,636
43,940	-7,912	255,327	123,361
44,955	-7,971	255,170	123,223
45,969	-7,967	254,928	123,099
46,984	-8,152	254,778	122,853
47,999	-8,313	254,342	122,492
49,013	-8,409	254,140	122,300
50,028	-8,562	253,986	122,082
51,042	-8,713	253,707	121,806
52,057	-8,800	253,439	121,590
53,071	-8,525	253,223	121,715
54,086	-8,460	252,986	121,646
55,101	-8,386	252,938	121,676
56,115	-7,986	252,756	121,925
57,130	-7,731	252,711	122,113
58,144	-7,247	252,709	122,519
59,159	-7,338	252,406	122,283
60,174	-7,563	252,181	121,969
61,188	-7,336	251,886	122,011
62,203	-7,483	251,865	121,863
63,217	-7,464	251,583	121,732
64,232	-7,524	251,255	121,511
65,247	-7,391	251,156	121,567
66,261	-7,583	250,894	121,264
67,276	-7,801	250,616	120,932
68,290	-7,910	250,304	120,677
69,305	-8,026	250,168	120,502
70,320	-7,995	249,849	120,364
71,334	-7,970	249,852	120,376
72,349	-7,616	249,718	120,602
73,363	-7,410	249,563	120,693
74,378	-7,366	249,163	120,526
75,393	-7,397	249,029	120,424
76,407	-7,468	248,720	120,204
77,422	-7,720	248,679	119,959
78,436	-7,464	248,455	120,058
79,451	-7,595	248,255	119,839
80,466	-7,633	247,931	119,640
81,480	-7,892	247,705	119,301
82,495	-7,879	247,510	119,208
83,509	-7,945	247,571	119,171
84,524	-8,096	247,213	118,860
85,539	-8,014	246,887	118,762
86,553	-7,944	246,630	118,686
87,568	-8,149	246,635	118,505
88,582	-8,174	246,323	118,324
89,597	-7,908	246,214	118,485
90,611	-7,694	246,030	118,565
91,626	-7,780	246,094	118,513
92,641	-7,975	245,898	118,245
93,655	-7,781	245,469	118,191
94,670	-7,797	245,387	118,127
95,684	-7,985	245,223	117,880
96,699	-7,836	245,100	117,935
97,714	-7,780	244,674	117,767
98,728	-8,000	244,622	117,547
99,743	-8,256	244,315	117,176
100,757	-8,089	244,134	117,218
101,772	-8,143	243,972	117,085
102,787	-7,918	243,778	117,168
103,801	-7,913	243,573	117,063
104,816	-7,803	243,549	117,133
105,830	-7,645	243,401	117,182
106,845	-7,613	243,261	117,131
107,860	-7,673	243,061	116,974
108,874	-7,623	242,760	116,860
109,889	-7,800	242,616	116,635
110,903	-7,771	242,487	116,586
111,918	-7,697	242,278	116,536
112,933	-7,793	242,316	116,465
113,947	-7,748	241,925	116,304
114,962	-7,627	241,775	116,321
115,976	-7,438	241,517	116,342
116,991	-7,868	241,342	115,894
118,006	-7,857	241,234	115,840
119,020	-7,639	241,190	115,988
120,035	-7,460	241,051	116,058
121,049	-7,784	240,888	115,704
122,064	-7,589	240,646	115,736
123,079	-7,493	240,233	115,607
124,093	-7,963	240,301	115,244
125,108	-7,948	239,932	115,069
126,122	-8,071	239,564	114,782
127,137	-8,238	239,549	114,629
128,151	-8,192	239,271	114,522
129,166	-8,009	239,279	114,665
130,181	-8,198	238,995	114,366
131,195	-8,117	238,642	114,252
132,210	-7,792	238,726	114,545
133,224	-7,744	238,701	114,563
134,239	-7,760	238,477	114,432
135,254	-7,447	238,193	114,539
136,268	-7,895	238,180	114,160
137,283	-7,962	237,718	113,874
138,297	-8,231	237,479	113,532
139,312	-8,067	237,358	113,596
140,327	-7,823	237,352	113,780
141,341	-7,287	237,269	114,162
142,356	-7,346	237,231	114,086
143,370	-7,418	236,951	113,884
144,385	-7,347	236,902	113,907
145,400	-7,381	236,689	113,767
146,414	-7,266	236,370	113,696
147,429	-7,280	236,131	113,560
148,443	-7,242	236,204	113,616
149,458	-7,403	236,015	113,385
150,473	-7,304	235,813	113,358
151,487	-7,363	235,549	113,173
152,502	-7,478	235,584	113,087
153,516	-7,377	235,375	113,058
154,531	-7,276	235,098	112,996
155,546	-7,384	234,859	112,785
156,560	-7,407	234,664	112,663
157,575	-7,355	234,415	112,574
158,589	-7,327	234,274	112,519
159,604	-7,371	234,265	112,469
160,619	-7,147	234,135	112,575
161,633	-7,330	233,997	112,353
162,648	-7,344	233,774	112,225
163,662	-7,444	233,737	112,118
164,677	-7,495	233,515	111,962
165,692	-7,419	233,314	111,915
166,706	-7,292	233,251	111,975
167,721	-7,099	233,114	112,052
168,735	-7,054	232,833	111,942
169,750	-7,277	232,725	111,705
170,764	-7,110	232,628	111,780
171,779	-7,058	232,551	111,774
172,794	-7,057	232,268	111,629
173,808	-7,286	232,064	111,340
174,823	-7,947	231,751	110,661
175,837	-7,948	231,478	110,521
176,852	-7,549	231,579	110,872
177,867	-7,148	231,559	111,166
178,881	-7,251	231,461	111,029
179,896	-7,398	231,217	110,787
180,910	-7,313	231,152	110,813
181,925	-7,136	231,030	110,883
182,940	-7,039	230,755	110,817
183,954	-6,996	230,496	110,716
184,969	-7,075	230,565	110,677
185,983	-7,029	230,370	110,610
186,998	-7,058	230,136	110,465
188,013	-6,983	229,929	110,414
189,027	-7,102	229,908	110,302
190,042	-6,885	229,667	110,345
191,056	-6,958	229,564	110,229
192,071	-6,750	229,392	110,298
193,086	-7,217	229,375	109,918
194,100	-6,732	229,167	110,184
195,115	-6,687	229,113	110,183
196,129	-6,434	229,119	110,373
197,144	-2,705	230,101	113,733
198,159	1,680	231,520	117,844
199,173	3,575	231,795	119,450
200,188	3,681	231,746	119,496
201,202	3,858	231,467	119,479
202,217	3,913	231,438	119,497
203,232	4,078	231,321	119,553
204,246	4,017	231,327	119,499
205,261	4,198	231,175	119,550
206,275	4,541	231,096	119,764
207,290	4,436	230,978	119,611
208,304	4,444	230,694	119,459
209,319	4,484	230,585	119,424
210,334	4,157	230,451	119,091
211,348	3,995	230,130	118,789
212,363	3,842	229,868	118,525
213,377	3,521	229,726	118,194
214,392	3,731	229,509	118,233
215,407	3,663	229,404	118,117
216,421	3,799	229,296	118,156
217,436	3,741	228,968	117,931
218,450	3,293	228,760	117,470
219,465	3,245	228,752	117,419
220,480	3,243	228,646	117,352
221,494	3,445	228,370	117,354
222,509	3,525	228,379	117,410
223,523	3,751	227,964	117,359
224,538	3,293	228,042	117,038
225,553	3,554	227,841	117,124
226,567	3,652	227,865	117,201
227,582	3,780	227,741	117,224
228,596	4,065	227,505	117,310
229,611	3,826	227,253	116,987
230,626	3,340	227,163	116,561
231,640	3,341	227,023	116,479
232,655	3,870	226,937	116,827
233,669	4,151	226,810	116,964
234,684	4,320	226,770	117,061
235,699	4,076	226,550	116,753
236,713	3,772	226,368	116,418
237,728	3,688	226,002	116,156
238,742	3,626	225,801	115,995
239,757	3,559	225,837	115,953
240,772	3,702	225,686	115,973
241,786	3,701	225,457	115,844
242,801	3,742	225,280	115,774
243,815	4,228	225,294	116,137
244,830	3,979	225,201	115,891
245,844	3,705	224,942	115,541
246,859	3,694	224,828	115,464
247,874	3,940	224,746	115,596
248,888	4,032	224,586	115,573
249,903	3,687	224,556	115,288
250,917	3,729	224,268	115,162
251,932	3,778	224,079	115,091
252,947	3,418	223,892	114,715
253,961	3,467	223,645	114,615
254,976	3,613	223,545	114,663
255,990	3,933	223,494	114,865
257,005	3,830	223,410	114,735
258,020	3,571	223,357	114,504
259,034	4,024	223,323	114,815
260,049	3,955	223,039	114,607
261,063	3,818	222,830	114,387
262,078	3,927	222,885	114,486
263,093	4,041	222,513	114,370
264,107	3,842	222,499	114,204
265,122	3,957	222,268	114,162
266,136	4,262	222,150	114,316
267,151	3,942	222,087	114,037
268,166	3,551	221,800	113,589
269,180	3,420	221,610	113,385
270,195	3,503	221,417	113,338
271,209	3,507	221,359	113,301
272,224	3,674	221,104	113,284
273,239	3,847	221,006	113,351
274,253	3,249	221,095	112,945
275,268	3,579	220,682	112,967
276,282	3,255	220,514	112,633
277,297	3,167	220,407	112,503
278,312	3,524	220,303	112,703
279,326	3,568	220,207	112,676
280,341	3,537	220,133	112,605
281,355	3,476	220,083	112,524
282,370	3,612	219,711	112,424
283,384	3,506	219,511	112,234
284,399	3,398	219,281	112,028
285,414	3,338	219,304	111,986
286,428	3,567	219,235	112,107
287,443	3,691	219,150	112,145
288,457	3,727	219,104	112,137
289,472	3,527	218,798	111,825
290,487	3,180	218,482	111,401
291,501	3,120	218,373	111,291
292,516	3,285	218,266	111,347
293,530	3,425	218,105	111,357
294,545	3,212	218,098	111,189
295,560	3,460	217,853	111,234
296,574	3,689	217,737	111,331
297,589	3,484	217,711	111,159
298,603	3,825	217,517	111,297
299,618	3,713	217,365	111,128
300,633	3,713	217,273	111,071
301,647	3,742	217,294	111,093
302,662	3,781	217,114	111,019
303,676	3,787	216,965	110,938
304,691	3,724	216,832	110,814
305,706	4,070	216,526	110,897
306,720	3,958	216,512	110,800
307,735	3,630	216,291	110,440
308,749	3,200	216,202	110,076
309,764	3,586	216,050	110,266
310,779	4,041	215,952	110,533
311,793	3,893	215,899	110,390
312,808	3,891	215,753	110,304
313,822	3,370	215,435	109,758
314,837	3,839	215,239	109,985
315,852	3,551	215,143	109,720
316,866	3,461	215,138	109,643
317,881	3,846	215,031	109,854
318,895	3,787	214,753	109,660
319,910	3,589	214,714	109,489
320,925	3,206	214,539	109,116
321,939	3,175	214,249	108,937
322,954	3,312	214,137	108,968
323,968	3,505	214,170	109,112
324,983	3,886	213,988	109,281
325,997	3,904	213,920	109,249
327,012	3,734	213,802	109,058
328,027	3,636	213,615	108,884
329,041	4,129	213,502	109,166
330,056	3,966	213,509	109,045
331,070	3,770	213,174	108,725
332,085	3,420	213,083	108,421
333,100	3,630	212,905	108,469
334,114	3,644	212,625	108,327
335,129	3,590	212,568	108,250
336,143	3,494	212,320	108,046
337,158	3,425	212,356	108,006
338,173	3,594	212,176	108,024
339,187	3,316	212,041	107,750
340,202	3,291	211,677	107,538
341,216	3,134	211,756	107,458
342,231	3,217	211,578	107,417
343,246	3,147	211,500	107,318
344,260	3,243	211,375	107,313
345,275	3,159	211,351	107,232
346,289	3,515	211,171	107,381
347,304	3,676	211,053	107,424
348,319	3,705	210,854	107,333
349,333	3,518	210,808	107,169
350,348	3,533	210,634	107,082
351,362	3,797	210,495	107,186
352,377	3,950	210,404	107,236
353,392	3,407	210,179	106,734
354,406	3,603	210,050	106,796
355,421	195,689	1342,517	1429,081
356,435	156,272	1480,529	1429,127
