DTS Sentinel unit serial number:	SN410029Multiplexer serial number:	ORYXHardware model number:	OX2-SRSoftware version number:	ORYX F/W v4,00 Oryx Data Collector v3.7.2.0data status	okinstallation	B6 Nyhavnadifferential loss correction	single-endedforward channel	channel 2reverse channel	N/Adate	2023/12/08time	01:20:09forward acquisition time	300,00reverse acquisition time	0,00gamma	499,1914k internal	0,3165k external	0,3165temperature offset calibration	1,0000default loss term (dB/km)	0,3820temperature slope calibration	1,0000multiplexer offset coefficient	1,0000multiplexer slope coefficient	1,0000fibre end	0,00T internal ref (°C)	13,26T ext. ref 1 (°C)	-3,63T ext. ref 2 (°C)	-3,63length (m)	temperature (°C)	Stokes	anti-Stokes-744,400	152,443	0,074	0,075
-743,385	-48,235	-0,411	-0,145
-742,371	-93,262	0,082	0,017
-741,356	-24,274	-0,193	0,084
-740,342	456,564	0,059	0,096
-739,327	-169,354	-0,206	-0,005
-738,312	-116,387	0,077	0,010
-737,298	-76,756	-0,462	-0,118
-736,283	-200,000	0,020	0,121
-735,269	-159,522	-0,292	-0,012
-734,254	29,091	0,170	0,106
-733,239	-99,042	-0,565	-0,104
-732,225	-54,302	0,333	0,111
-731,210	-200,000	0,034	0,124
-730,196	-92,325	-0,101	0,021
-729,181	102,706	0,027	0,023
-728,167	47,422	-0,081	-0,055
-727,152	721,725	-0,010	-0,020
-726,137	-47,054	-0,133	0,047
-725,123	-26,498	-0,044	-0,019
-724,108	-94,653	-0,058	-0,012
-723,094	-200,000	0,007	-0,098
-722,079	-125,912	-0,009	-0,001
-721,064	-122,965	0,159	0,019
-720,050	800,000	-0,019	-0,044
-719,035	-200,000	-0,003	0,023
-718,021	-77,305	-0,209	-0,053
-717,006	189,968	-0,109	-0,120
-715,991	440,549	-0,065	-0,105
-714,977	151,657	-0,100	-0,100
-713,962	298,453	-0,044	0,059
-712,948	80,568	-0,098	0,078
-711,933	-123,008	-0,079	0,009
-710,918	-102,615	-0,128	0,022
-709,904	-33,869	-0,043	-0,017
-708,889	334,342	-0,093	-0,133
-707,875	-200,000	0,003	-0,023
-706,860	800,000	0,018	0,041
-705,845	800,000	-0,050	0,141
-704,831	-72,383	0,076	-0,021
-703,816	28,874	-0,148	-0,092
-702,802	800,000	-0,034	-0,099
-701,787	147,584	0,042	-0,042
-700,772	-75,547	-0,085	0,022
-699,758	-103,079	-0,092	-0,016
-698,743	-200,000	0,018	-0,094
-697,729	-18,507	0,014	0,006
-696,714	295,771	0,032	-0,044
-695,699	-17,794	-0,094	-0,043
-694,685	47,743	-0,094	-0,064
-693,670	192,090	0,085	-0,094
-692,656	-57,352	-0,172	-0,055
-691,641	-57,166	0,097	-0,031
-690,627	-200,000	-0,004	-0,016
-689,612	-200,000	0,007	0,050
-688,597	-64,441	-0,197	-0,058
-687,583	60,677	-0,041	-0,030
-686,568	59,391	0,043	0,031
-685,554	353,683	0,058	-0,085
-684,539	71,654	0,082	-0,063
-683,524	-200,000	0,026	-0,157
-682,510	276,555	-0,047	-0,062
-681,495	800,000	0,044	0,099
-680,481	800,000	-0,034	-0,090
-679,466	800,000	-0,022	-0,056
-678,451	198,760	-0,074	-0,083
-677,437	-15,429	0,090	0,042
-676,422	52,077	-0,018	-0,013
-675,408	301,252	0,012	-0,016
-674,393	-136,088	-0,160	0,014
-673,378	-121,036	0,063	-0,008
-672,364	240,988	-0,131	-0,161
-671,349	-98,107	-0,123	-0,023
-670,335	41,757	-0,039	0,026
-669,320	-3,684	0,033	-0,017
-668,305	800,000	-0,047	0,114
-667,291	127,282	-0,149	-0,139
-666,276	67,938	-0,106	-0,079
-665,262	103,769	-0,147	-0,127
-664,247	281,774	-0,044	-0,058
-663,232	277,674	-0,013	0,017
-662,218	-2,553	0,055	-0,028
-661,203	-34,573	0,054	0,022
-660,189	-29,288	-0,113	0,047
-659,174	800,000	-0,065	-0,148
-658,159	98,433	-0,064	-0,054
-657,145	223,870	-0,080	-0,095
-656,130	521,310	0,026	-0,045
-655,116	-200,000	0,013	0,092
-654,101	-200,000	-0,000	0,011
-653,086	89,914	-0,015	0,013
-652,072	216,008	0,021	-0,025
-651,057	237,444	0,037	0,045
-650,043	-156,176	-0,035	-0,002
-649,028	-200,000	0,001	0,065
-648,014	-79,010	-0,029	-0,007
-646,999	-8,302	-0,142	0,070
-645,984	118,058	0,092	-0,083
-644,970	-200,000	0,034	-0,144
-643,955	-200,000	-0,000	-0,223
-642,941	43,939	-0,040	-0,027
-641,926	201,848	0,049	-0,055
-640,911	-200,000	0,009	0,161
-639,897	-200,000	0,030	0,109
-638,882	-30,048	-0,037	-0,015
-637,868	800,000	-0,016	-0,045
-636,853	-150,332	-0,065	0,004
-635,838	-67,354	-0,170	0,049
-634,824	-200,000	-0,010	-0,072
-633,809	-114,331	0,100	0,014
-632,795	-155,638	-0,127	0,006
-631,780	199,113	-0,099	-0,111
-630,765	800,000	0,038	-0,102
-629,751	-200,000	-0,001	-0,049
-628,736	-128,558	0,027	-0,003
-627,722	134,076	-0,009	0,009
-626,707	800,000	-0,031	-0,064
-625,692	-51,112	-0,038	0,013
-624,678	-200,000	-0,001	-0,005
-623,663	51,643	-0,039	0,027
-622,649	167,463	-0,059	-0,062
-621,634	-155,398	-0,031	-0,001
-620,619	38,234	0,009	-0,006
-619,605	-145,437	-0,144	-0,009
-618,590	-25,317	-0,063	0,027
-617,576	-200,000	0,002	0,054
-616,561	-46,754	0,078	0,028
-615,546	21,294	-0,041	-0,024
-614,532	-74,056	-0,132	-0,035
-613,517	42,836	0,024	0,016
-612,503	800,000	0,027	0,078
-611,488	399,090	0,043	-0,066
-610,474	-155,348	0,070	0,003
-609,459	-200,000	-0,034	-0,152
-608,444	25,773	-0,024	-0,015
-607,430	-151,058	-0,133	0,007
-606,415	-200,000	-0,003	-0,053
-605,401	800,000	0,029	-0,073
-604,386	800,000	-0,066	0,142
-603,371	-200,000	-0,031	-0,162
-602,357	131,277	0,009	-0,008
-601,342	260,191	0,029	0,036
-600,328	279,327	-0,059	-0,077
-599,313	-200,000	-0,021	-0,070
-598,298	-64,629	-0,079	0,023
-597,284	-44,855	0,064	-0,023
-596,269	254,398	0,102	0,128
-595,255	-200,000	-0,008	-0,067
-594,240	-200,000	-0,008	0,054
-593,225	173,923	-0,047	-0,049
-592,211	576,548	0,047	-0,084
-591,196	296,491	-0,009	0,012
-590,182	2,103	0,016	-0,008
-589,167	800,000	0,080	0,174
-588,152	-36,888	-0,050	-0,020
-587,138	85,402	0,022	0,017
-586,123	-200,000	-0,011	-0,058
-585,109	800,000	0,026	-0,063
-584,094	-200,000	-0,013	-0,049
-583,079	800,000	-0,046	-0,125
-582,065	-13,964	-0,041	-0,019
-581,050	-20,005	0,031	0,014
-580,036	-156,650	-0,162	-0,007
-579,021	-42,771	0,020	-0,008
-578,006	78,084	0,039	0,030
-576,992	124,090	-0,116	-0,106
-575,977	766,092	0,058	0,115
-574,963	-130,302	-0,095	0,009
-573,948	35,886	-0,028	0,018
-572,934	200,118	0,106	-0,119
-571,919	-154,386	-0,069	-0,003
-570,904	86,333	-0,056	-0,045
-569,890	-200,000	0,002	-0,047
-568,875	-200,000	0,000	0,071
-567,861	-200,000	0,003	-0,043
-566,846	-67,592	-0,017	0,005
-565,831	-72,340	0,013	0,004
-564,817	49,957	-0,148	-0,102
-563,802	-12,319	-0,184	-0,087
-562,788	-14,938	-0,186	0,087
-561,773	106,182	0,125	-0,109
-560,758	-200,000	0,002	0,103
-559,744	800,000	0,056	-0,130
-558,729	-89,176	0,146	-0,031
-557,715	-145,704	-0,066	0,004
-556,700	-63,312	-0,122	-0,036
-555,685	-200,000	-0,023	-0,103
-554,671	-86,799	0,192	0,042
-553,656	-200,000	0,005	0,025
-552,642	800,000	-0,029	0,065
-551,627	395,313	-0,070	0,107
-550,612	-31,336	0,104	-0,042
-549,598	100,404	-0,112	0,095
-548,583	-5,420	-0,095	0,047
-547,569	-75,387	0,197	0,051
-546,554	-200,000	-0,013	0,085
-545,539	800,000	-0,013	-0,042
-544,525	-50,837	-0,048	0,016
-543,510	388,374	0,055	-0,083
-542,496	-11,513	-0,150	-0,072
-541,481	-46,169	0,123	-0,044
-540,466	-200,000	-0,009	-0,040
-539,452	800,000	-0,055	-0,126
-538,437	-200,000	0,007	0,134
-537,423	800,000	-0,026	-0,060
-536,408	60,755	0,033	0,023
-535,393	509,002	0,062	-0,106
-534,379	-36,422	-0,097	-0,038
-533,364	800,000	0,059	0,139
-532,350	-35,891	0,023	0,009
-531,335	-168,324	0,032	0,001
-530,321	548,269	0,038	-0,067
-529,306	151,484	0,017	-0,017
-528,291	-200,000	0,013	-0,063
-527,277	389,290	0,035	0,053
-526,262	-23,826	-0,068	0,030
-525,248	-14,750	0,073	-0,034
-524,233	263,918	0,020	-0,026
-523,218	800,000	0,021	0,060
-522,204	36,301	0,040	0,025
-521,189	165,412	-0,036	-0,037
-520,175	28,116	-0,088	-0,054
-519,160	266,048	-0,095	-0,121
-518,145	-187,470	0,051	-0,000
-517,131	-200,000	0,010	0,068
-516,116	625,431	0,100	0,184
-515,102	39,399	-0,010	-0,007
-514,087	-134,915	0,054	0,005
-513,072	351,506	-0,043	0,063
-512,058	800,000	0,004	-0,011
-511,043	83,176	0,024	-0,019
-510,029	-200,000	-0,016	0,115
-509,014	342,536	0,035	0,050
-507,999	152,446	0,014	-0,014
-506,985	-63,296	-0,015	0,004
-505,970	8,670	-0,035	0,019
-504,956	-200,000	-0,035	-0,169
-503,941	-11,848	0,002	-0,001
-502,926	-86,746	-0,025	-0,006
-501,912	800,000	0,031	-0,088
-500,897	50,173	0,033	-0,023
-499,883	49,030	-0,132	-0,090
-498,868	-135,743	0,092	-0,008
-497,853	-200,000	-0,003	0,017
-496,839	800,000	-0,054	-0,126
-495,824	114,292	0,107	0,095
-494,810	7,232	0,080	0,044
-493,795	16,277	-0,042	0,024
-492,781	-200,000	0,006	0,085
-491,766	116,063	-0,074	-0,066
-490,751	-138,392	-0,133	0,010
-489,737	-200,000	-0,012	0,041
-488,722	443,029	0,032	0,050
-487,708	-200,000	0,000	-0,012
-486,693	-94,898	0,122	-0,024
-485,678	-200,000	-0,004	0,021
-484,664	-127,119	-0,138	0,014
-483,649	-79,247	0,086	-0,021
-482,635	322,463	-0,053	0,074
-481,620	-2,597	0,081	-0,041
-480,605	-76,735	0,089	-0,023
-479,591	139,264	-0,151	-0,144
-478,576	-98,094	-0,034	-0,006
-477,562	127,650	-0,011	-0,010
-476,547	17,122	-0,166	0,096
-475,532	-200,000	0,012	-0,143
-474,518	-81,832	-0,015	0,003
-473,503	454,889	0,024	0,039
-472,489	28,744	0,039	0,024
-471,474	-75,226	-0,115	-0,030
-470,459	89,695	-0,035	0,028
-469,445	124,151	0,025	-0,023
-468,430	-168,927	0,126	0,003
-467,416	-200,000	-0,001	-0,099
-466,401	-200,000	0,004	0,019
-465,386	-70,486	0,093	0,025
-464,372	231,007	-0,097	0,116
-463,357	109,867	0,095	-0,083
-462,343	230,153	-0,087	-0,103
-461,328	192,583	-0,005	-0,005
-460,313	-39,002	0,133	0,051
-459,299	292,564	-0,027	0,036
-458,284	-114,785	0,040	-0,005
-457,270	504,669	0,034	-0,057
-456,255	-51,560	0,034	0,011
-455,241	407,173	-0,092	-0,142
-454,226	-10,342	-0,082	-0,040
-453,211	-200,000	-0,000	0,005
-452,197	-200,000	-0,030	-0,111
-451,182	-76,753	-0,098	0,025
-450,168	-200,000	0,008	0,119
-449,153	800,000	-0,040	0,115
-448,138	-7,133	-0,095	0,047
-447,124	23,434	0,034	-0,020
-446,109	22,073	-0,020	0,012
-445,095	56,906	0,042	-0,030
-444,080	-127,622	-0,082	0,009
-443,065	662,322	0,016	0,031
-442,051	617,326	-0,085	-0,157
-441,036	220,953	-0,079	0,092
-440,022	-200,000	0,011	-0,123
-439,007	-200,000	-0,004	0,132
-437,992	-200,000	0,008	0,152
-436,978	-96,823	0,077	-0,015
-435,963	800,000	0,024	0,065
-434,949	-200,000	-0,013	0,081
-433,934	-34,075	-0,004	0,001
-432,919	41,098	-0,030	0,019
-431,905	-200,000	0,009	-0,079
-430,890	119,208	0,064	-0,057
-429,876	460,460	0,076	0,123
-428,861	-66,763	-0,046	-0,013
-427,846	261,424	0,035	0,045
-426,832	237,536	0,072	0,087
-425,817	800,000	-0,013	-0,029
-424,803	-200,000	-0,000	0,112
-423,788	122,685	-0,057	-0,052
-422,773	-62,524	0,110	-0,033
-421,759	31,037	-0,025	0,015
-420,744	606,803	0,033	0,059
-419,730	-140,043	-0,029	0,002
-418,715	377,922	-0,030	-0,045
-417,701	793,284	0,004	-0,008
-416,686	-178,288	0,133	-0,002
-415,671	-128,021	0,047	0,005
-414,657	20,767	0,135	-0,079
-413,642	-61,279	-0,068	0,021
-412,628	-85,817	0,155	-0,035
-411,613	-200,000	0,013	-0,103
-410,598	93,041	0,065	0,053
-409,584	-183,721	-0,007	0,000
-408,569	-4,040	-0,038	0,019
-407,555	-72,292	-0,095	0,025
-406,540	-200,000	0,017	-0,105
-405,525	-200,000	0,016	0,173
-404,511	-102,488	0,105	0,018
-403,496	-160,322	0,103	-0,004
-402,482	115,817	-0,038	-0,034
-401,467	-35,094	0,032	0,012
-400,452	800,000	0,019	-0,047
-399,438	-151,521	0,091	-0,005
-398,423	234,553	-0,048	-0,058
-397,409	123,146	0,023	-0,020
-396,394	161,590	0,063	-0,064
-395,379	800,000	0,025	-0,078
-394,365	573,424	0,051	0,090
-393,350	50,382	0,012	-0,008
-392,336	8,441	-0,142	0,077
-391,321	120,608	-0,072	-0,065
-390,306	800,000	-0,074	-0,186
-389,292	200,517	-0,064	-0,071
-388,277	72,289	-0,061	0,046
-387,263	481,448	0,047	0,077
-386,248	116,937	-0,080	-0,072
-385,233	144,202	-0,121	-0,117
-384,219	800,000	0,032	0,091
-383,204	135,322	-0,071	0,067
-382,190	200,113	-0,051	-0,057
-381,175	82,209	-0,064	-0,051
-380,160	-200,000	-0,031	0,138
-379,146	214,806	0,077	0,088
-378,131	95,450	0,071	0,059
-377,117	-200,000	-0,002	0,092
-376,102	800,000	0,030	0,080
-375,088	541,702	-0,044	-0,076
-374,073	-2,622	0,066	-0,033
-373,058	-161,382	0,056	0,002
-372,044	-200,000	0,020	0,097
-371,029	2,664	0,058	0,030
-370,015	-14,773	-0,019	0,009
-369,000	-200,000	-0,004	-0,030
-367,985	-200,000	-0,010	-0,033
-366,971	444,363	-0,070	-0,112
-365,956	13,877	-0,040	-0,023
-364,942	99,097	-0,074	0,062
-363,927	800,000	0,047	0,116
-362,912	99,038	0,150	0,125
-361,898	265,419	-0,102	-0,129
-360,883	110,682	-0,037	-0,032
-359,869	79,697	-0,121	0,094
-358,854	-142,126	0,022	0,002
-357,839	-9,391	0,036	-0,017
-356,825	412,593	-0,065	0,100
-355,810	800,000	0,037	-0,095
-354,796	200,778	0,047	-0,052
-353,781	-200,000	0,020	0,121
-352,766	-200,000	0,005	-0,036
-351,752	800,000	0,023	0,051
-350,737	27,855	0,090	0,055
-349,723	-200,000	0,036	-0,133
-348,708	9,156	-0,051	-0,028
-347,693	369,410	0,017	0,025
-346,679	-1,554	-0,032	0,016
-345,664	387,683	-0,005	-0,008
-344,650	-36,386	-0,122	0,047
-343,635	199,009	0,041	0,046
-342,620	-130,531	-0,151	-0,015
-341,606	773,150	0,058	-0,115
-340,591	272,890	-0,028	-0,036
-339,577	-85,613	-0,058	-0,013
-338,562	800,000	-0,045	-0,098
-337,548	-200,000	0,024	0,109
-336,533	427,630	-0,073	0,114
-335,518	-200,000	-0,004	-0,147
-334,504	-144,743	0,118	-0,008
-333,489	-91,177	-0,032	0,007
-332,475	371,673	0,104	-0,153
-331,460	132,750	-0,061	-0,057
-330,445	-30,812	0,155	0,063
-329,431	-200,000	0,008	0,108
-328,416	-26,471	0,061	-0,026
-327,402	773,888	0,057	0,112
-326,387	40,001	0,010	-0,007
-325,372	-200,000	-0,019	0,086
-324,358	28,097	0,042	0,026
-323,343	157,470	0,020	0,020
-322,329	-200,000	0,018	-0,065
-321,314	800,000	0,006	0,015
-320,299	-55,520	0,167	-0,054
-319,285	-18,334	-0,080	0,036
-318,270	746,867	0,015	-0,029
-317,256	800,000	0,031	0,090
-316,241	7,648	0,085	0,046
-315,226	-200,000	-0,008	0,128
-314,212	369,014	-0,019	-0,028
-313,197	-44,373	-0,088	-0,032
-312,183	45,447	-0,031	-0,020
-311,168	10,379	-0,030	0,016
-310,153	-200,000	0,011	0,069
-309,139	121,167	-0,101	-0,091
-308,124	148,772	0,024	-0,024
-307,110	82,388	0,062	0,049
-306,095	-200,000	0,017	-0,055
-305,080	-68,757	0,077	-0,021
-304,066	80,937	0,012	0,010
-303,051	-74,432	-0,024	0,006
-302,037	800,000	0,013	-0,037
-301,022	-81,884	0,078	0,018
-300,008	-200,000	0,003	0,158
-298,993	56,572	0,046	-0,032
-297,978	800,000	-0,112	0,240
-296,964	-81,173	-0,093	0,022
-295,949	-74,499	-0,059	-0,015
-294,935	-39,938	0,045	-0,017
-293,920	-200,000	-0,009	0,071
-292,905	-43,701	-0,103	-0,037
-291,891	-102,019	0,075	0,013
-290,876	-200,000	-0,006	0,099
-289,862	263,894	0,043	0,055
-288,847	-137,033	-0,043	-0,004
-287,832	-26,634	0,041	0,017
-286,818	507,530	-0,030	-0,051
-285,803	64,970	0,074	0,054
-284,789	186,305	0,104	-0,112
-283,774	195,054	0,050	0,055
-282,759	-200,000	-0,028	0,112
-281,745	180,709	0,107	0,114
-280,730	1,909	-0,048	-0,025
-279,716	-200,000	0,005	0,043
-278,701	18,457	0,015	0,009
-277,686	-200,000	-0,012	0,051
-276,672	-200,000	0,005	0,064
-275,657	61,605	-0,023	0,017
-274,643	-14,340	0,168	-0,078
-273,628	-200,000	0,010	-0,071
-272,613	377,600	0,109	-0,161
-271,599	457,728	0,036	0,058
-270,584	16,272	-0,058	0,033
-269,570	558,923	0,097	-0,170
-268,555	136,815	0,030	0,028
-267,540	-200,000	0,010	-0,117
-266,526	-200,000	-0,002	-0,110
-265,511	-200,000	-0,003	-0,091
-264,497	34,357	0,154	-0,097
-263,482	-143,928	0,199	0,013
-262,467	-200,000	-0,018	0,118
-261,453	26,982	0,134	0,081
-260,438	800,000	-0,035	0,072
-259,424	-200,000	-0,021	-0,069
-258,409	692,549	-0,014	-0,027
-257,395	-30,895	0,071	-0,029
-256,380	31,626	-0,095	0,059
-255,365	800,000	-0,011	-0,022
-254,351	61,698	-0,105	0,076
-253,336	217,916	-0,047	0,055
-252,322	-76,022	0,016	0,004
-251,307	248,876	-0,052	-0,063
-250,292	-36,830	0,073	0,028
-249,278	-200,000	-0,011	-0,085
-248,263	15,813	0,092	0,052
-247,249	-16,077	0,024	0,011
-246,234	-127,281	-0,090	0,009
-245,219	197,755	0,012	-0,013
-244,205	148,091	0,039	0,038
-243,190	-200,000	0,015	-0,110
-242,176	10,908	-0,081	-0,045
-241,161	144,972	0,060	0,058
-240,146	13,287	-0,118	0,066
-239,132	-93,127	0,140	-0,028
-238,117	102,144	-0,059	-0,050
-237,103	-200,000	0,029	-0,124
-236,088	39,620	0,128	0,082
-235,073	422,004	0,022	0,034
-234,059	-45,092	0,055	-0,019
-233,044	-151,690	0,144	-0,008
-232,030	-200,000	0,024	0,079
-231,015	74,911	-0,187	-0,142
-230,000	-82,883	0,098	-0,023
-228,986	53,702	-0,092	0,063
-227,971	-200,000	-0,030	0,112
-226,957	766,555	-0,018	0,036
-225,942	-148,329	0,186	-0,011
-224,927	-200,000	0,006	-0,039
-223,913	-200,000	-0,025	-0,108
-222,898	-200,000	0,005	-0,100
-221,884	-1,321	0,157	0,080
-220,869	757,669	0,061	0,119
-219,855	-36,037	-0,056	-0,022
-218,840	27,854	0,090	-0,055
-217,825	800,000	0,018	-0,049
-216,811	-200,000	0,004	-0,022
-215,796	26,434	0,086	-0,052
-214,782	120,331	-0,101	0,091
-213,767	-200,000	0,015	-0,115
-212,752	-87,201	0,062	-0,013
-211,738	-200,000	-0,000	0,141
-210,723	-141,606	-0,051	-0,004
-209,709	6,627	-0,057	0,031
-208,694	103,108	0,074	0,063
-207,679	47,875	0,125	0,084
-206,665	-200,000	-0,006	0,030
-205,650	224,735	-0,064	0,075
-204,636	168,167	-0,025	0,025
-203,621	-200,000	0,003	-0,031
-202,606	-200,000	-0,005	0,085
-201,592	800,000	0,013	-0,038
-200,577	32,724	0,035	-0,021
-199,563	-14,300	0,003	-0,001
-198,548	-46,730	0,021	0,007
-197,533	57,589	-0,139	0,098
-196,519	189,010	-0,110	-0,118
-195,504	-200,000	-0,009	0,030
-194,490	-53,797	0,174	0,057
-193,475	-0,988	-0,091	0,046
-192,460	-121,916	0,120	0,014
-191,446	537,860	-0,017	-0,029
-190,431	44,852	-0,053	0,035
-189,417	232,914	0,043	0,051
-188,402	800,000	0,034	0,082
-187,387	800,000	0,016	0,046
-186,373	-63,698	-0,154	0,045
-185,358	-99,152	-0,075	-0,014
-184,344	194,222	0,005	0,006
-183,329	-115,407	0,124	-0,017
-182,315	20,709	-0,139	0,081
-181,300	-200,000	0,020	0,073
-180,285	-200,000	-0,015	-0,151
-179,271	314,600	-0,031	0,042
-178,256	-22,543	-0,092	0,040
-177,242	-200,000	-0,006	0,187
-176,227	481,259	0,058	0,096
-175,212	800,000	-0,030	0,082
-174,198	6,840	-0,102	0,054
-173,183	305,607	0,101	-0,135
-172,169	48,298	0,105	-0,071
-171,154	-43,850	-0,105	-0,038
-170,139	36,795	-0,017	0,010
-169,125	121,291	0,052	0,047
-168,110	12,004	-0,092	-0,051
-167,096	-200,000	0,014	-0,053
-166,081	-21,736	0,165	-0,072
-165,066	-200,000	0,005	-0,072
-164,052	3,797	-0,106	-0,056
-163,037	-200,000	0,034	0,153
-162,023	337,489	0,076	0,106
-161,008	387,845	-0,031	0,047
-159,993	800,000	0,022	0,066
-158,979	-200,000	-0,036	-0,206
-157,964	-66,053	-0,083	-0,024
-156,950	-200,000	-0,008	-0,194
-155,935	26,345	-0,094	0,056
-154,920	136,295	0,114	0,107
-153,906	324,884	-0,035	0,048
-152,891	239,558	-0,049	0,059
-151,877	-200,000	-0,015	-0,049
-150,862	494,387	0,040	0,066
-149,847	-200,000	-0,011	-0,057
-148,833	-75,544	-0,189	0,048
-147,818	-200,000	0,008	0,051
-146,804	372,206	0,018	0,027
-145,789	-33,186	-0,106	0,042
-144,775	-60,797	-0,071	-0,022
-143,760	800,000	0,007	0,023
-142,745	-200,000	0,001	0,015
-141,731	800,000	0,060	-0,129
-140,716	-200,000	-0,003	0,049
-139,702	2,387	-0,093	0,048
-138,687	163,454	-0,094	0,095
-137,672	800,000	0,026	0,069
-136,658	72,059	-0,102	0,076
-135,643	779,706	-0,044	-0,088
-134,629	121,409	0,024	-0,022
-133,614	13,937	-0,027	0,015
-132,599	-200,000	-0,038	0,175
-131,585	117,497	0,049	0,043
-130,570	800,000	0,037	-0,074
-129,556	55,221	-0,134	-0,093
-128,541	35,349	0,048	-0,030
-127,526	51,170	0,022	0,015
-126,512	-81,650	0,065	-0,015
-125,497	-200,000	0,035	0,142
-124,483	-200,000	-0,005	0,167
-123,468	266,567	-0,030	-0,038
-122,453	189,454	-0,025	0,026
-121,439	366,499	-0,012	0,017
-120,424	394,637	-0,012	0,019
-119,410	49,590	0,065	-0,044
-118,395	-98,986	0,058	-0,010
-117,380	-200,000	0,016	0,067
-116,366	182,551	-0,081	0,085
-115,351	-200,000	0,042	0,219
-114,337	-200,000	-0,015	-0,140
-113,322	574,183	0,082	-0,143
-112,307	395,250	0,070	0,105
-111,293	41,121	0,070	0,045
-110,278	-200,000	0,001	0,050
-109,264	-47,483	0,064	0,022
-108,249	-200,000	-0,005	0,016
-107,234	800,000	0,049	-0,153
-106,220	148,963	-0,064	-0,063
-105,205	188,359	-0,034	-0,037
-104,191	-147,139	0,062	0,004
-103,176	-109,810	0,069	-0,010
-102,162	535,098	0,034	0,058
-101,147	800,000	-0,055	0,126
-100,132	-23,441	-0,100	0,043
-99,118	-52,506	0,050	0,016
-98,103	-3,612	0,053	-0,026
-97,089	467,046	-0,059	0,095
-96,074	-200,000	-0,014	-0,086
-95,059	584,647	-0,097	-0,171
-94,045	84,132	-0,021	0,016
-93,030	-135,716	-0,085	-0,007
-92,016	134,887	-0,050	0,046
-91,001	-93,875	0,052	-0,010
-89,986	-35,729	0,077	0,030
-88,972	-23,054	-0,048	0,021
-87,957	-58,913	0,067	0,021
-86,943	274,841	-0,060	-0,076
-85,928	-200,000	-0,012	0,121
-84,913	-3,806	0,070	-0,035
-83,899	305,620	-0,010	0,014
-82,884	242,941	0,077	0,092
-81,870	132,538	0,054	0,050
-80,855	57,864	0,052	0,037
-79,840	119,322	-0,118	0,105
-78,826	35,048	0,020	0,013
-77,811	-3,814	0,065	-0,032
-76,797	-71,619	0,148	0,039
-75,782	648,340	-0,034	0,063
-74,767	-59,058	0,130	0,040
-73,753	139,408	0,102	-0,096
-72,738	-200,000	0,023	0,078
-71,724	-200,000	0,023	-0,097
-70,709	-150,454	0,139	-0,008
-69,694	-54,786	-0,182	0,059
-68,680	177,615	-0,087	-0,091
-67,665	-200,000	-0,013	-0,101
-66,651	-28,738	0,081	0,033
-65,636	800,000	-0,028	0,059
-64,622	178,726	-0,002	0,002
-63,607	138,475	-0,019	-0,018
-62,592	-85,796	0,110	0,024
-61,578	-20,027	-0,058	-0,025
-60,563	800,000	-0,010	-0,026
-59,549	-119,076	-0,091	-0,011
-58,534	40,954	-2,285	-1,474
-57,519	-200,000	0,049	-0,743
-56,505	-200,000	-1,454	-5,210
-55,490	137,391	0,834	0,782
-54,476	800,000	5,372	12,107
-53,461	-200,000	18,985	318,301
-52,446	800,000	741,084	2322,422
-51,432	549,770	1654,586	2851,315
-50,417	110,005	1637,538	1406,562
-49,403	73,637	1287,944	964,961
-48,388	29,716	1029,643	626,069
-47,373	19,634	992,457	570,141
-46,359	17,029	980,212	554,532
-45,344	13,663	976,130	541,162
-44,330	13,977	974,643	541,345
-43,315	13,348	972,784	538,235
-42,300	13,262	971,736	537,351
-41,286	13,249	970,833	536,790
-40,271	13,256	970,047	536,354
-39,257	13,286	969,118	535,917
-38,242	13,276	968,261	535,391
-37,227	13,312	967,275	534,942
-36,213	13,317	966,300	534,397
-35,198	13,271	965,481	533,772
-34,184	13,323	964,805	533,546
-33,169	13,220	964,025	532,761
-32,154	13,294	962,926	532,371
-31,140	13,275	962,023	531,789
-30,125	13,270	961,342	531,377
-29,111	13,245	960,509	530,815
-28,096	13,307	959,777	530,590
-27,082	13,251	959,189	530,063
-26,067	13,297	958,316	529,705
-25,052	13,252	957,660	529,179
-24,038	13,233	957,055	528,763
-23,023	13,231	956,333	528,336
-22,009	13,334	955,695	528,293
-20,994	13,341	955,171	528,005
-19,979	13,310	954,292	527,398
-18,965	13,288	953,935	527,110
-17,950	13,322	953,265	526,828
-16,936	13,243	952,878	526,339
-15,921	13,268	951,927	525,874
-14,906	13,207	951,233	525,276
-13,892	13,161	950,464	524,682
-12,877	13,219	949,899	524,535
-11,863	13,140	949,276	523,917
-10,848	13,164	948,733	523,673
-9,833	13,304	948,153	523,780
-8,819	13,256	947,506	523,248
-7,804	13,216	946,910	522,770
-6,790	13,205	946,344	522,401
-5,775	13,231	945,894	522,216
-4,760	13,203	945,221	521,736
-3,746	13,181	944,558	521,278
-2,731	13,064	943,702	520,413
-1,717	13,052	943,149	520,050
-0,702	13,034	942,581	519,659
0,313	12,823	941,905	519,402
1,327	16,296	939,660	529,086
2,342	25,457	790,285	469,113
3,356	21,491	444,708	258,082
4,371	-7,776	297,705	143,313
5,386	-11,579	279,621	130,964
6,400	-13,022	273,813	126,882
7,415	-12,911	271,478	125,891
8,429	-13,136	270,115	125,040
9,444	-13,161	269,069	124,522
10,459	-13,195	268,447	124,192
11,473	-13,306	267,860	123,808
12,488	-13,304	267,289	123,534
13,502	-13,636	266,595	122,901
14,517	-13,597	266,360	122,816
15,531	-13,525	266,005	122,707
16,546	-13,433	265,596	122,591
17,561	-13,227	264,963	122,474
18,575	-12,995	264,752	122,576
19,590	-13,231	264,473	122,222
20,604	-13,127	264,225	122,191
21,619	-13,373	263,906	121,811
22,634	-13,443	263,530	121,563
23,648	-13,349	263,113	121,445
24,663	-13,307	262,884	121,365
25,677	-13,199	262,579	121,311
26,692	-13,363	262,325	121,035
27,707	-13,238	262,068	121,019
28,721	-13,213	261,796	120,904
29,736	-13,448	261,466	120,532
30,750	-13,321	261,037	120,436
31,765	-13,592	261,137	120,230
32,780	-13,287	260,815	120,343
33,794	-13,557	260,678	120,029
34,809	-13,537	260,307	119,865
35,823	-13,535	260,004	119,717
36,838	-13,473	259,737	119,637
37,853	-13,618	259,551	119,413
38,867	-13,511	259,361	119,410
39,882	-13,469	259,066	119,300
40,896	-13,462	258,844	119,194
41,911	-13,505	258,623	119,043
42,926	-13,559	258,458	118,909
43,940	-13,287	257,955	118,906
44,955	-13,585	257,799	118,562
45,969	-13,700	257,668	118,390
46,984	-13,973	257,485	118,056
47,999	-14,028	257,030	117,789
49,013	-14,149	256,848	117,588
50,028	-14,032	256,494	117,518
51,042	-14,233	256,386	117,283
52,057	-14,420	256,019	116,942
53,071	-14,252	255,975	117,057
54,086	-14,427	255,821	116,824
55,101	-14,089	255,576	116,996
56,115	-13,929	255,500	117,090
57,130	-13,396	255,331	117,465
58,144	-13,179	255,157	117,563
59,159	-13,136	254,867	117,457
60,174	-13,189	254,565	117,261
61,188	-13,300	254,422	117,088
62,203	-13,468	254,215	116,837
63,217	-13,337	254,074	116,875
64,232	-13,290	253,676	116,722
65,247	-13,313	253,564	116,641
66,261	-13,312	253,296	116,507
67,276	-13,560	253,016	116,155
68,290	-13,656	252,784	115,956
69,305	-14,016	252,626	115,564
70,320	-13,716	252,385	115,700
71,334	-13,601	252,168	115,689
72,349	-13,254	251,994	115,896
73,363	-13,116	251,842	115,934
74,378	-13,275	251,626	115,688
75,393	-13,313	251,435	115,559
76,407	-13,446	251,262	115,355
77,422	-13,550	251,099	115,181
78,436	-13,294	250,799	115,251
79,451	-13,342	250,487	115,057
80,466	-13,684	250,406	114,718
81,480	-13,567	250,027	114,634
82,495	-13,552	249,832	114,547
83,509	-13,466	249,875	114,629
84,524	-13,690	249,476	114,246
85,539	-13,693	249,242	114,127
86,553	-13,671	249,019	114,033
87,568	-13,608	248,871	114,008
88,582	-13,670	248,670	113,853
89,597	-13,592	248,389	113,780
90,611	-13,640	248,389	113,730
91,626	-13,379	248,415	113,952
92,641	-13,482	248,086	113,704
93,655	-13,644	247,962	113,501
94,670	-13,556	247,511	113,358
95,684	-13,406	247,374	113,411
96,699	-13,492	247,235	113,265
97,714	-13,414	246,975	113,201
98,728	-13,574	246,704	112,933
99,743	-13,748	246,534	112,699
100,757	-13,854	246,302	112,494
101,772	-13,808	246,268	112,508
102,787	-13,687	245,992	112,473
103,801	-13,704	245,946	112,428
104,816	-13,598	245,774	112,427
105,830	-13,368	245,489	112,478
106,845	-13,228	245,246	112,473
107,860	-13,534	245,326	112,245
108,874	-13,382	244,968	112,197
109,889	-13,480	244,748	112,006
110,903	-13,651	244,577	111,775
111,918	-13,669	244,406	111,673
112,933	-13,837	244,240	111,448
113,947	-13,316	244,037	111,776
114,962	-13,431	243,806	111,565
115,976	-13,664	243,747	111,336
116,991	-13,360	243,477	111,453
118,006	-13,371	243,313	111,359
119,020	-13,566	243,266	111,167
120,035	-13,435	243,072	111,177
121,049	-13,327	242,947	111,198
122,064	-13,350	242,711	111,062
123,079	-13,332	242,433	110,939
124,093	-13,504	242,223	110,692
125,108	-13,605	242,061	110,526
126,122	-13,755	241,599	110,182
127,137	-13,904	241,537	110,022
128,151	-13,814	241,373	110,011
129,166	-13,738	241,247	110,006
130,181	-13,855	241,037	109,805
131,195	-14,009	240,979	109,643
132,210	-13,693	240,665	109,748
133,224	-13,474	240,619	109,895
134,239	-13,405	240,351	109,819
135,254	-13,450	240,122	109,668
136,268	-13,559	240,016	109,522
137,283	-13,899	239,697	109,091
138,297	-13,969	239,460	108,916
139,312	-13,921	239,230	108,841
140,327	-13,490	239,244	109,186
141,341	-13,138	239,297	109,485
142,356	-13,088	239,062	109,409
143,370	-13,257	238,963	109,217
144,385	-13,132	238,688	109,182
145,400	-13,246	238,658	109,067
146,414	-13,134	238,355	109,008
147,429	-13,247	238,182	108,829
148,443	-13,213	238,101	108,809
149,458	-13,257	237,836	108,643
150,473	-12,953	237,538	108,741
151,487	-13,085	237,342	108,536
152,502	-12,992	237,133	108,505
153,516	-13,187	237,201	108,371
154,531	-13,207	236,981	108,244
155,546	-13,147	236,705	108,157
156,560	-13,188	236,465	108,005
157,575	-13,352	236,386	107,828
158,589	-13,244	236,142	107,794
159,604	-13,065	236,134	107,923
160,619	-12,970	235,972	107,914
161,633	-13,101	235,734	107,692
162,648	-13,029	235,549	107,655
163,662	-13,236	235,338	107,384
164,677	-13,153	235,231	107,392
165,692	-13,191	235,222	107,348
166,706	-13,053	235,020	107,356
167,721	-12,965	234,810	107,320
168,735	-12,947	234,536	107,200
169,750	-12,984	234,567	107,174
170,764	-13,205	234,535	106,976
171,779	-13,159	234,373	106,929
172,794	-12,971	234,109	106,947
173,808	-13,305	233,865	106,563
174,823	-13,705	233,620	106,127
175,837	-13,765	233,335	105,941
176,852	-13,406	233,369	106,230
177,867	-13,157	233,239	106,356
178,881	-13,061	233,125	106,370
179,896	-13,112	232,822	106,182
180,910	-13,003	232,690	106,198
181,925	-13,098	232,602	106,074
182,940	-13,273	232,510	105,886
183,954	-13,148	232,451	105,947
184,969	-13,122	232,130	105,811
185,983	-13,193	232,131	105,747
186,998	-12,942	231,898	105,827
188,013	-12,930	231,756	105,763
189,027	-12,920	231,504	105,646
190,042	-12,916	231,373	105,580
191,056	-12,949	231,328	105,524
192,071	-13,105	231,073	105,277
193,086	-12,944	230,758	105,249
194,100	-13,061	230,730	105,136
195,115	-13,427	230,243	104,622
196,129	-13,398	230,426	104,718
197,144	-7,747	232,201	109,922
198,159	-2,557	233,855	114,762
199,173	1,810	235,028	118,756
200,188	2,842	235,133	119,608
201,202	2,661	235,061	119,419
202,217	2,801	234,796	119,383
203,232	2,808	234,658	119,308
204,246	2,833	234,659	119,317
205,261	2,826	234,585	119,264
206,275	3,265	234,418	119,511
207,290	3,212	234,172	119,333
208,304	2,932	234,060	119,047
209,319	3,184	233,766	119,083
210,334	3,121	233,586	118,932
211,348	2,745	233,350	118,509
212,363	2,750	232,980	118,314
213,377	2,366	233,034	118,033
214,392	2,127	232,779	117,708
215,407	2,282	232,843	117,850
216,421	2,412	232,598	117,816
217,436	2,270	232,507	117,650
218,450	1,972	232,258	117,283
219,465	2,209	231,979	117,315
220,480	2,405	231,741	117,335
221,494	2,198	231,640	117,114
222,509	2,293	231,633	117,173
223,523	2,454	231,537	117,238
224,538	2,326	231,339	117,029
225,553	2,472	231,055	116,987
226,567	2,390	231,061	116,916
227,582	2,568	230,904	116,964
228,596	2,611	230,844	116,956
229,611	2,424	230,593	116,675
230,626	2,158	230,342	116,334
231,640	2,470	230,191	116,485
232,655	2,441	230,216	116,466
233,669	2,657	230,095	116,559
234,684	2,865	230,004	116,662
235,699	2,881	229,819	116,570
236,713	2,532	229,600	116,182
237,728	2,367	229,287	115,888
238,742	2,309	229,192	115,785
239,757	2,418	229,040	115,781
240,772	2,458	228,672	115,615
241,786	2,255	228,742	115,486
242,801	2,515	228,691	115,647
243,815	2,816	228,713	115,877
244,830	2,951	228,329	115,774
245,844	2,490	228,184	115,341
246,859	2,344	228,022	115,138
247,874	2,372	228,013	115,145
248,888	2,657	227,857	115,271
249,903	2,580	227,657	115,102
250,917	2,587	227,455	114,995
251,932	2,264	227,400	114,713
252,947	2,138	227,130	114,471
253,961	2,256	226,980	114,474
254,976	2,066	226,950	114,306
255,990	2,649	226,718	114,617
257,005	2,587	226,567	114,484
258,020	2,745	226,457	114,537
259,034	2,763	226,371	114,497
260,049	2,604	226,227	114,295
261,063	2,380	226,010	114,007
262,078	2,786	225,928	114,259
263,093	3,148	225,733	114,421
264,107	2,516	225,609	113,876
265,122	2,626	225,482	113,883
266,136	2,988	225,370	114,088
267,151	3,004	225,227	114,017
268,166	2,456	225,010	113,488
269,180	2,218	224,674	113,131
270,195	2,330	224,434	113,084
271,209	2,200	224,504	113,013
272,224	2,362	224,563	113,153
273,239	2,275	224,215	112,902
274,253	2,538	224,021	112,989
275,268	2,281	223,933	112,744
276,282	2,191	223,572	112,486
277,297	2,184	223,439	112,404
278,312	2,215	223,510	112,453
279,326	2,249	223,392	112,408
280,341	2,597	223,224	112,571
281,355	2,517	223,067	112,423
282,370	2,521	223,062	112,413
283,384	2,238	222,622	111,973
284,399	2,146	222,491	111,829
285,414	2,182	222,437	111,819
286,428	2,464	222,332	111,964
287,443	2,663	222,374	112,121
288,457	2,478	222,209	111,892
289,472	2,259	221,997	111,615
290,487	1,854	221,610	111,113
291,501	1,968	221,479	111,121
292,516	2,188	221,359	111,212
293,530	2,117	221,163	111,052
294,545	1,907	221,208	110,910
295,560	2,247	221,177	111,134
296,574	2,506	220,900	111,174
297,589	2,285	220,810	110,957
298,603	2,599	220,654	111,098
299,618	2,197	220,529	110,732
300,633	2,545	220,451	110,937
301,647	2,555	220,460	110,938
302,662	2,810	220,228	110,997
303,676	2,650	220,104	110,809
304,691	2,705	219,984	110,779
305,706	2,608	219,701	110,555
306,720	2,830	219,598	110,655
307,735	2,609	219,282	110,326
308,749	2,304	219,292	110,100
309,764	2,433	219,161	110,118
310,779	2,749	219,012	110,262
311,793	2,685	218,750	110,074
312,808	2,613	218,825	110,050
313,822	2,527	218,470	109,799
314,837	2,275	218,420	109,583
315,852	2,126	218,459	109,484
316,866	2,233	218,181	109,413
317,881	2,637	218,050	109,628
318,895	2,458	217,819	109,374
319,910	2,496	217,502	109,232
320,925	2,141	217,394	108,913
321,939	1,663	217,259	108,494
322,954	1,763	217,229	108,541
323,968	2,191	217,330	108,888
324,983	2,781	217,071	109,171
325,997	2,769	216,955	109,094
327,012	2,620	216,802	108,901
328,027	2,743	216,507	108,831
329,041	2,812	216,582	108,908
330,056	2,924	216,464	108,920
331,070	2,558	216,228	108,530
332,085	2,161	216,014	108,130
333,100	2,462	215,920	108,288
334,114	2,468	215,905	108,275
335,129	2,493	215,764	108,212
336,143	2,346	215,427	107,929
337,158	2,417	215,339	107,926
338,173	2,248	215,096	107,674
339,187	1,948	214,996	107,402
340,202	1,967	214,945	107,380
341,216	2,664	214,823	107,803
342,231	2,602	214,744	107,710
343,246	2,492	214,540	107,521
344,260	2,523	214,434	107,480
345,275	2,696	214,386	107,568
346,289	2,941	214,294	107,685
347,304	2,677	214,124	107,404
348,319	2,554	213,820	107,156
349,333	2,382	213,709	106,970
350,348	2,510	213,619	107,005
351,362	2,819	213,553	107,180
352,377	2,458	213,503	106,891
353,392	2,557	213,334	106,866
354,406	2,546	213,150	106,757
355,421	197,354	1313,224	1391,864
356,435	157,905	1447,196	1391,801
