DTS Sentinel unit serial number:	SN410029Multiplexer serial number:	ORYXHardware model number:	OX2-SRSoftware version number:	ORYX F/W v4,00 Oryx Data Collector v3.7.2.0data status	okinstallation	B6 Nyhavnadifferential loss correction	single-endedforward channel	channel 2reverse channel	N/Adate	2023/12/08time	15:15:08forward acquisition time	300,00reverse acquisition time	0,00gamma	499,1914k internal	0,3159k external	0,3159temperature offset calibration	1,0000default loss term (dB/km)	0,3820temperature slope calibration	1,0000multiplexer offset coefficient	1,0000multiplexer slope coefficient	1,0000fibre end	0,00T internal ref (°C)	15,07T ext. ref 1 (°C)	-1,47T ext. ref 2 (°C)	-1,47length (m)	temperature (°C)	Stokes	anti-Stokes-744,400	-105,654	0,182	0,030
-743,385	-23,799	-0,169	0,074
-742,371	188,345	0,097	0,107
-741,356	-57,781	-0,295	0,094
-740,342	-137,312	0,121	-0,010
-739,327	-137,814	-0,466	-0,038
-738,312	-21,411	0,078	0,035
-737,298	-56,362	-0,353	-0,115
-736,283	-96,425	0,058	-0,011
-735,269	-149,168	-0,351	0,020
-734,254	-65,260	0,198	-0,058
-733,239	-0,056	-0,676	-0,354
-732,225	-16,166	0,244	-0,114
-731,210	-54,894	0,041	0,013
-730,196	23,789	-0,101	-0,061
-729,181	197,261	-0,057	0,065
-728,167	355,115	0,047	-0,068
-727,152	81,228	-0,046	-0,037
-726,137	-200,000	0,011	-0,036
-725,123	-200,000	-0,006	-0,099
-724,108	-200,000	-0,038	-0,179
-723,094	-43,495	-0,117	-0,043
-722,079	-131,467	-0,198	-0,019
-721,064	115,776	-0,102	-0,092
-720,050	-74,800	-0,049	-0,013
-719,035	331,983	-0,081	0,115
-718,021	194,387	0,086	-0,097
-717,006	2,876	-0,169	-0,090
-715,991	787,123	0,066	-0,135
-714,977	-200,000	-0,011	-0,044
-713,962	-200,000	0,005	0,036
-712,948	398,317	-0,038	-0,059
-711,933	220,639	0,067	-0,080
-710,918	174,298	0,035	-0,038
-709,904	-62,854	-0,055	-0,017
-708,889	-69,229	-0,079	0,022
-707,875	-200,000	0,004	0,092
-706,860	-200,000	0,018	0,065
-705,845	124,477	-0,091	-0,085
-704,831	178,717	-0,076	0,081
-703,816	-129,151	-0,040	-0,004
-702,802	-21,866	0,056	0,025
-701,787	-31,895	-0,094	-0,039
-700,772	41,819	-0,122	-0,081
-699,758	411,625	-0,078	-0,123
-698,743	-112,636	0,023	-0,003
-697,729	-64,550	-0,046	0,014
-696,714	19,069	0,057	0,034
-695,699	113,900	-0,037	-0,033
-694,685	227,094	0,045	-0,053
-693,670	-81,921	-0,104	0,025
-692,656	54,657	0,081	-0,058
-691,641	-200,000	0,035	-0,128
-690,627	26,992	0,145	0,089
-689,612	214,365	-0,057	-0,067
-688,597	722,849	-0,070	0,138
-687,583	-34,815	0,054	-0,022
-686,568	-59,575	-0,134	0,042
-685,554	215,101	0,028	-0,033
-684,539	-109,200	0,116	0,018
-683,524	-5,717	0,047	0,023
-682,510	33,897	0,083	0,053
-681,495	42,199	0,046	-0,030
-680,481	18,730	-0,029	-0,017
-679,466	-200,000	-0,003	0,049
-678,451	71,697	-0,096	-0,073
-677,437	-200,000	0,011	-0,040
-676,422	382,409	0,072	0,109
-675,408	800,000	-0,064	0,183
-674,393	224,754	0,053	-0,063
-673,378	77,268	0,060	-0,047
-672,364	41,125	0,074	-0,049
-671,349	-94,766	0,071	-0,014
-670,335	-34,094	0,058	0,023
-669,320	103,504	-0,040	-0,035
-668,305	-200,000	0,004	0,018
-667,291	281,025	-0,042	0,055
-666,276	7,040	-0,056	0,031
-665,262	-81,183	-0,170	0,041
-664,247	105,216	-0,047	-0,041
-663,232	278,574	-0,119	-0,156
-662,218	252,343	-0,044	0,056
-661,203	-200,000	0,000	-0,003
-660,189	800,000	-0,031	0,064
-659,174	-59,546	-0,058	-0,018
-658,159	-200,000	-0,004	-0,056
-657,145	169,466	0,079	0,083
-656,130	81,848	-0,058	0,046
-655,116	-70,902	-0,082	0,023
-654,101	148,980	0,045	0,045
-653,086	800,000	0,039	0,084
-652,072	-30,304	-0,104	0,043
-651,057	-200,000	-0,006	-0,169
-650,043	-85,849	-0,173	-0,039
-649,028	148,984	-0,020	0,019
-648,014	-40,900	0,048	-0,018
-646,999	187,213	0,050	-0,054
-645,984	244,660	-0,089	0,111
-644,970	97,739	-0,064	0,054
-643,955	-108,963	-0,032	0,005
-642,941	96,833	0,061	0,052
-641,926	-127,706	0,017	0,002
-640,911	-200,000	-0,005	0,060
-639,897	-90,826	0,056	-0,012
-638,882	609,380	0,042	-0,077
-637,868	-200,000	0,005	-0,073
-636,853	225,468	-0,034	-0,040
-635,838	457,805	0,072	-0,117
-634,824	-22,794	-0,128	-0,057
-633,809	-112,059	0,061	-0,009
-632,795	9,959	0,083	-0,046
-631,780	195,254	0,077	0,086
-630,765	800,000	0,036	-0,077
-629,751	800,000	-0,065	-0,134
-628,736	-200,000	0,007	-0,111
-627,722	55,749	0,053	-0,038
-626,707	-149,584	0,035	0,002
-625,692	167,309	-0,087	0,091
-624,678	-200,000	-0,016	0,130
-623,663	800,000	0,035	-0,094
-622,649	-200,000	0,011	0,092
-621,634	800,000	-0,034	-0,085
-620,619	-200,000	-0,034	0,122
-619,605	-154,005	0,157	-0,008
-618,590	-48,787	0,093	0,033
-617,576	-200,000	-0,004	-0,065
-616,561	322,723	-0,046	-0,065
-615,546	-200,000	-0,004	-0,082
-614,532	800,000	0,043	-0,091
-613,517	-74,302	-0,052	-0,014
-612,503	573,628	0,019	-0,035
-611,488	800,000	0,027	-0,072
-610,474	-84,657	0,034	-0,008
-609,459	73,965	-0,074	0,057
-608,444	391,462	0,105	-0,161
-607,430	-200,000	0,009	0,063
-606,415	69,135	0,029	-0,022
-605,401	-80,328	-0,079	-0,019
-604,386	-200,000	-0,011	0,048
-603,371	800,000	0,027	0,086
-602,357	11,996	0,050	-0,028
-601,342	-55,715	0,080	-0,026
-600,328	-200,000	0,013	-0,188
-599,313	800,000	-0,038	0,094
-598,298	-85,961	0,174	0,039
-597,284	-57,513	0,093	0,030
-596,269	306,235	0,008	-0,011
-595,255	-63,057	-0,028	-0,008
-594,240	4,421	0,163	-0,088
-593,225	206,691	-0,086	0,098
-592,211	443,413	-0,020	-0,032
-591,196	168,831	-0,091	-0,095
-590,182	800,000	-0,009	0,018
-589,167	-27,993	-0,164	0,069
-588,152	-140,380	0,165	0,012
-587,138	800,000	-0,051	0,131
-586,123	-18,749	0,107	-0,049
-585,109	133,868	-0,081	-0,077
-584,094	23,213	-0,011	0,007
-583,079	800,000	0,028	0,089
-582,065	264,684	-0,070	0,089
-581,050	377,173	-0,023	0,035
-580,036	-200,000	-0,007	-0,049
-579,021	70,623	-0,069	0,052
-578,006	-147,195	-0,082	-0,005
-576,992	-200,000	-0,021	0,081
-575,977	86,460	0,152	0,122
-574,963	-72,503	0,060	0,016
-573,948	800,000	0,021	-0,044
-572,934	118,810	0,119	0,108
-571,919	78,396	-0,059	-0,046
-570,904	800,000	0,058	-0,121
-569,890	158,178	-0,053	0,054
-568,875	457,884	-0,032	-0,053
-567,861	-25,170	0,081	0,035
-566,846	800,000	0,044	-0,138
-565,831	-112,961	-0,130	0,019
-564,817	198,470	0,060	-0,067
-563,802	800,000	-0,012	-0,037
-562,788	-200,000	0,000	0,044
-561,773	800,000	0,023	0,047
-560,758	263,671	-0,030	-0,039
-559,744	-11,370	-0,040	0,019
-558,729	320,034	0,029	0,040
-557,715	734,015	-0,088	-0,173
-556,700	294,168	-0,042	0,057
-555,685	-124,937	-0,161	0,018
-554,671	467,757	0,020	-0,033
-553,656	-179,851	0,160	-0,002
-552,642	17,950	-0,015	-0,008
-551,627	103,157	-0,104	0,090
-550,612	-200,000	0,024	-0,108
-549,598	800,000	-0,036	-0,093
-548,583	217,326	-0,078	-0,091
-547,569	100,441	-0,059	0,050
-546,554	-51,697	0,040	-0,014
-545,539	-200,000	-0,008	0,178
-544,525	-19,443	0,098	0,044
-543,510	-192,137	-0,099	0,001
-542,496	157,710	0,059	0,060
-541,481	-200,000	0,025	0,094
-540,466	108,020	0,065	0,057
-539,452	-84,767	-0,226	0,052
-538,437	159,911	0,035	-0,036
-537,423	168,406	0,057	-0,059
-536,408	-43,188	-0,047	-0,017
-535,393	3,909	-0,116	-0,062
-534,379	-200,000	0,004	-0,125
-533,364	-113,160	0,091	0,013
-532,350	-78,775	-0,029	0,007
-531,335	-77,693	0,034	0,008
-530,321	384,683	0,062	-0,093
-529,306	800,000	-0,015	-0,031
-528,291	522,016	-0,034	0,058
-527,277	28,352	-0,062	-0,038
-526,262	349,190	0,055	-0,080
-525,248	167,597	-0,053	-0,055
-524,233	-17,767	0,064	-0,029
-523,218	-118,028	-0,096	0,012
-522,204	34,602	-0,054	-0,035
-521,189	544,438	-0,048	0,084
-520,175	-200,000	-0,006	0,094
-519,160	-68,399	-0,098	-0,028
-518,145	800,000	0,045	-0,095
-517,131	-24,755	-0,063	-0,027
-516,116	43,055	-0,038	-0,025
-515,102	75,717	0,123	-0,095
-514,087	127,975	-0,077	0,071
-513,072	7,110	0,037	0,020
-512,058	800,000	-0,061	-0,156
-511,043	337,515	-0,070	0,100
-510,029	-200,000	0,009	0,081
-509,014	-200,000	0,014	0,081
-507,999	12,620	-0,021	-0,012
-506,985	76,187	-0,108	-0,084
-505,970	-200,000	-0,002	-0,127
-504,956	309,498	-0,081	-0,111
-503,941	-200,000	-0,006	-0,023
-502,926	201,207	-0,028	-0,031
-501,912	-120,121	0,050	0,006
-500,897	74,223	0,130	-0,100
-499,883	523,270	0,044	0,076
-498,868	-147,973	-0,074	-0,004
-497,853	800,000	-0,028	0,073
-496,839	-124,671	-0,032	-0,004
-495,824	546,929	0,029	0,050
-494,810	-200,000	0,013	0,188
-493,795	-76,268	0,085	-0,022
-492,781	16,605	-0,143	-0,082
-491,766	-172,907	-0,027	0,001
-490,751	10,753	-0,039	-0,022
-489,737	-49,545	-0,092	-0,032
-488,722	620,430	-0,059	0,108
-487,708	-200,000	0,002	0,018
-486,693	-200,000	-0,011	-0,040
-485,678	-200,000	-0,004	-0,165
-484,664	176,073	-0,097	-0,103
-483,649	84,426	0,054	-0,043
-482,635	325,528	0,078	-0,110
-481,620	784,179	-0,045	0,090
-480,605	180,108	0,051	0,055
-479,591	800,000	0,012	-0,027
-478,576	-200,000	-0,011	-0,104
-477,562	800,000	-0,009	0,024
-476,547	-200,000	-0,016	-0,065
-475,532	-200,000	-0,001	-0,070
-474,518	-200,000	-0,014	0,057
-473,503	-52,183	0,075	-0,025
-472,489	-200,000	0,009	0,129
-471,474	-200,000	-0,020	-0,070
-470,459	293,782	-0,047	-0,062
-469,445	117,590	-0,036	-0,033
-468,430	440,024	-0,031	0,050
-467,416	395,369	-0,137	-0,209
-466,401	302,762	0,060	0,082
-465,386	-200,000	-0,011	0,060
-464,372	-178,540	-0,058	-0,001
-463,357	500,208	-0,045	-0,076
-462,343	-200,000	-0,005	-0,019
-461,328	95,753	-0,045	-0,037
-460,313	-200,000	0,022	0,085
-459,299	6,995	0,070	-0,038
-458,284	290,947	0,009	-0,012
-457,270	-151,522	-0,068	0,004
-456,255	333,946	-0,076	-0,107
-455,241	-148,020	0,081	-0,005
-454,226	-76,224	-0,132	-0,034
-453,211	-105,858	-0,128	0,021
-452,197	-96,530	0,008	0,002
-451,182	-147,367	0,088	0,005
-450,168	800,000	-0,031	0,094
-449,153	38,037	-0,070	-0,045
-448,138	-7,134	-0,064	-0,032
-447,124	443,505	0,085	-0,137
-446,109	-27,788	0,068	0,029
-445,095	-200,000	0,004	0,015
-444,080	-120,492	0,161	0,020
-443,065	228,667	0,040	0,048
-442,051	-16,924	0,049	-0,023
-441,036	-200,000	-0,009	-0,129
-440,022	-55,918	-0,115	0,037
-439,007	-70,785	0,102	-0,028
-437,992	-11,583	0,063	-0,030
-436,978	-42,566	-0,019	-0,007
-435,963	193,951	-0,038	0,042
-434,949	-105,787	0,075	0,012
-433,934	-200,000	-0,015	0,050
-432,919	-24,808	0,120	-0,052
-431,905	-145,248	0,129	-0,008
-430,890	-166,001	-0,091	0,003
-429,876	-140,266	0,080	-0,006
-428,861	-200,000	0,018	-0,085
-427,846	144,210	-0,052	-0,051
-426,832	63,007	0,015	-0,011
-425,817	-86,941	-0,105	0,023
-424,803	-119,059	-0,140	-0,018
-423,788	89,569	0,058	-0,047
-422,773	-200,000	0,034	0,144
-421,759	568,361	-0,027	0,047
-420,744	1,928	-0,083	0,044
-419,730	-200,000	0,002	0,023
-418,715	800,000	-0,010	0,023
-417,701	155,671	-0,083	-0,084
-416,686	193,230	0,067	-0,074
-415,671	800,000	-0,016	-0,041
-414,657	473,060	0,090	0,149
-413,642	269,697	-0,106	-0,136
-412,628	-129,307	-0,072	-0,007
-411,613	198,873	-0,086	0,096
-410,598	-81,296	-0,029	0,007
-409,584	506,265	0,026	-0,044
-408,569	-93,740	-0,084	-0,017
-407,555	800,000	-0,061	0,145
-406,540	800,000	-0,054	0,152
-405,525	-200,000	0,015	-0,051
-404,511	150,073	0,072	0,072
-403,496	-98,126	-0,143	0,027
-402,482	-77,351	0,179	-0,045
-401,467	-200,000	0,008	-0,048
-400,452	-70,420	-0,011	-0,003
-399,438	112,733	0,132	0,117
-398,423	-200,000	-0,011	0,043
-397,409	520,872	0,060	-0,103
-396,394	51,554	-0,113	-0,078
-395,379	121,735	0,035	-0,031
-394,365	-200,000	0,006	0,113
-393,350	595,823	-0,038	0,069
-392,336	210,381	-0,114	-0,131
-391,321	293,380	0,044	-0,058
-390,306	-73,175	-0,053	0,014
-389,292	90,773	-0,043	-0,035
-388,277	148,198	-0,090	-0,089
-387,263	-200,000	-0,008	0,115
-386,248	-200,000	0,002	-0,040
-385,233	-32,515	-0,051	0,021
-384,219	-200,000	0,022	0,096
-383,204	-104,221	0,083	-0,014
-382,190	44,211	0,082	0,055
-381,175	800,000	0,049	-0,100
-380,160	785,685	-0,033	0,067
-379,146	800,000	-0,038	0,110
-378,131	622,271	0,037	-0,068
-377,117	-200,000	-0,019	-0,156
-376,102	-200,000	0,020	-0,157
-375,088	-58,203	-0,067	-0,021
-374,073	616,422	-0,010	0,018
-373,058	-136,196	-0,106	0,009
-372,044	-117,089	0,145	0,019
-371,029	-48,506	-0,098	-0,034
-370,015	-200,000	-0,009	0,032
-369,000	49,097	0,062	-0,042
-367,985	-55,934	0,056	0,018
-366,971	800,000	0,030	-0,061
-365,956	527,019	0,027	-0,047
-364,942	-200,000	0,005	0,051
-363,927	-200,000	-0,004	0,034
-362,912	369,796	0,085	0,126
-361,898	-76,093	-0,035	-0,009
-360,883	800,000	0,010	0,032
-359,869	800,000	-0,040	0,102
-358,854	-72,343	0,178	-0,048
-357,839	800,000	0,013	-0,028
-356,825	145,375	0,102	-0,099
-355,810	116,719	0,033	0,030
-354,796	-61,231	-0,059	-0,018
-353,781	-45,503	0,020	0,007
-352,766	-200,000	-0,004	-0,108
-351,752	78,888	0,027	-0,021
-350,737	158,188	-0,042	0,043
-349,723	-85,806	0,156	-0,035
-348,708	252,774	-0,074	-0,092
-347,693	-91,095	-0,081	-0,017
-346,679	161,532	-0,019	0,019
-345,664	-200,000	-0,015	-0,109
-344,650	-96,683	0,032	-0,006
-343,635	176,603	0,041	0,044
-342,620	800,000	-0,016	-0,046
-341,606	800,000	-0,045	0,135
-340,591	340,960	-0,067	-0,096
-339,577	-140,168	0,066	0,005
-338,562	-80,243	-0,042	-0,010
-337,548	18,528	-0,018	0,010
-336,533	-119,851	0,097	-0,012
-335,518	-63,850	0,174	0,051
-334,504	-125,066	-0,059	0,007
-333,489	-200,000	0,020	-0,097
-332,475	-64,732	-0,084	0,025
-331,460	-200,000	-0,002	-0,015
-330,445	-72,144	0,219	-0,058
-329,431	-200,000	0,023	0,095
-328,416	-114,271	0,174	0,024
-327,402	132,236	0,037	0,035
-326,387	110,515	0,084	-0,073
-325,372	-177,819	-0,047	-0,001
-324,358	-102,400	-0,044	-0,008
-323,343	190,141	-0,039	-0,043
-322,329	-138,268	0,153	-0,012
-321,314	501,752	-0,046	0,077
-320,299	800,000	-0,044	0,130
-319,285	99,975	-0,052	0,043
-318,270	-140,187	-0,098	-0,007
-317,256	396,222	-0,048	0,074
-316,241	-200,000	-0,036	0,197
-315,226	-159,079	0,052	0,002
-314,212	43,415	-0,042	-0,028
-313,197	16,287	0,061	0,035
-312,183	184,056	0,033	0,035
-311,168	-200,000	0,001	0,035
-310,153	800,000	0,020	0,059
-309,139	88,552	-0,011	-0,009
-308,124	19,388	0,096	0,056
-307,110	-200,000	0,034	0,119
-306,095	-200,000	0,004	0,095
-305,080	-104,691	0,134	0,022
-304,066	92,818	-0,119	-0,097
-303,051	-200,000	0,019	0,114
-302,037	-200,000	0,018	-0,109
-301,022	-39,493	-0,070	0,026
-300,008	70,409	0,051	-0,038
-298,993	-121,988	0,060	-0,007
-297,978	-100,636	-0,042	-0,007
-296,964	-102,466	0,149	-0,026
-295,949	46,162	-0,101	-0,068
-294,935	97,378	-0,034	-0,028
-293,920	-198,781	0,117	0,000
-292,905	-200,000	-0,030	-0,149
-291,891	800,000	-0,018	0,053
-290,876	343,113	-0,032	0,046
-289,862	-200,000	-0,029	0,106
-288,847	246,753	-0,093	0,114
-287,832	-200,000	0,054	-0,191
-286,818	18,177	0,025	-0,015
-285,803	-140,665	-0,030	-0,002
-284,789	-200,000	-0,005	0,058
-283,774	551,351	0,022	-0,039
-282,759	-60,850	-0,117	0,036
-281,745	-200,000	-0,004	-0,019
-280,730	254,278	0,029	0,035
-279,716	-200,000	0,026	-0,094
-278,701	-200,000	0,027	-0,232
-277,686	150,286	0,168	0,165
-276,672	67,877	-0,069	0,051
-275,657	-200,000	0,044	-0,157
-274,643	254,262	0,056	-0,069
-273,628	385,707	-0,059	-0,089
-272,613	31,778	-0,020	0,012
-271,599	60,307	0,008	0,006
-270,584	800,000	-0,036	-0,076
-269,570	265,946	0,060	0,076
-268,555	-91,478	-0,043	-0,009
-267,540	102,873	0,009	0,008
-266,526	317,629	0,030	-0,041
-265,511	-200,000	-0,009	-0,064
-264,497	114,792	-0,123	0,108
-263,482	649,779	0,033	-0,061
-262,467	-200,000	-0,017	-0,069
-261,453	24,027	0,073	0,043
-260,438	-200,000	-0,014	0,251
-259,424	429,510	0,076	-0,119
-258,409	-83,340	-0,089	0,021
-257,395	800,000	-0,041	0,097
-256,380	-200,000	-0,001	-0,028
-255,365	564,490	0,056	0,099
-254,351	-137,021	-0,121	-0,010
-253,336	592,041	-0,034	-0,062
-252,322	172,663	-0,097	-0,101
-251,307	-200,000	-0,009	0,114
-250,292	-200,000	0,025	-0,125
-249,278	30,201	0,139	0,086
-248,263	259,928	0,038	0,048
-247,249	340,389	0,080	0,113
-246,234	-138,209	0,117	-0,009
-245,219	36,706	-0,130	0,083
-244,205	47,335	0,075	0,050
-243,190	329,777	-0,051	0,072
-242,176	174,172	0,063	0,066
-241,161	348,696	0,062	0,089
-240,146	-176,839	0,238	-0,004
-239,132	162,457	0,079	0,081
-238,117	800,000	-0,042	-0,100
-237,103	145,445	-0,107	-0,104
-236,088	-200,000	0,004	-0,035
-235,073	800,000	0,020	0,049
-234,059	-200,000	-0,023	0,136
-233,044	149,144	-0,072	-0,070
-232,030	619,536	0,015	-0,028
-231,015	-119,466	-0,130	0,016
-230,000	-200,000	0,008	-0,082
-228,986	-72,012	-0,092	-0,025
-227,971	-81,457	0,074	0,018
-226,957	-64,162	0,079	0,023
-225,942	446,427	0,030	0,048
-224,927	97,042	-0,048	0,040
-223,913	373,158	-0,066	-0,097
-222,898	-200,000	0,018	-0,104
-221,884	-112,245	-0,180	-0,026
-220,869	-154,690	0,108	0,005
-219,855	800,000	0,037	0,081
-218,840	302,811	0,036	-0,048
-217,825	-103,531	-0,045	0,008
-216,811	87,484	-0,057	-0,045
-215,796	33,080	-0,031	0,019
-214,782	-79,624	-0,076	0,018
-213,767	-200,000	-0,005	0,075
-212,752	-49,955	0,111	0,038
-211,738	800,000	-0,038	-0,082
-210,723	46,242	-0,129	0,086
-209,709	-200,000	0,032	-0,175
-208,694	24,924	-0,128	-0,076
-207,679	-3,696	-0,009	-0,004
-206,665	800,000	0,034	0,076
-205,650	-200,000	-0,002	0,041
-204,636	67,003	0,113	0,083
-203,621	-53,795	-0,117	-0,038
-202,606	2,092	0,071	0,037
-201,592	-200,000	0,047	0,153
-200,577	-17,542	-0,099	-0,045
-199,563	-54,243	0,098	-0,032
-198,548	800,000	0,054	0,133
-197,533	-200,000	-0,015	-0,053
-196,519	149,240	-0,050	-0,049
-195,504	280,981	0,010	0,013
-194,490	-200,000	0,055	0,251
-193,475	800,000	0,017	0,047
-192,460	62,242	0,034	-0,024
-191,446	-80,506	-0,246	0,059
-190,431	-124,019	0,123	0,014
-189,417	-4,228	-0,108	0,054
-188,402	-200,000	-0,003	-0,075
-187,387	105,573	0,020	-0,017
-186,373	-7,054	0,138	-0,067
-185,358	106,678	-0,143	0,122
-184,344	242,400	0,087	0,105
-183,329	469,630	-0,027	-0,043
-182,315	-200,000	-0,012	0,127
-181,300	69,700	0,025	0,018
-180,285	-199,058	-0,064	0,000
-179,271	698,657	0,021	-0,040
-178,256	299,897	-0,050	0,067
-177,242	143,948	0,047	-0,045
-176,227	-50,846	0,106	-0,036
-175,212	-200,000	0,018	0,167
-174,198	-200,000	0,028	0,115
-173,183	-39,526	0,107	0,040
-172,169	258,042	-0,032	0,040
-171,154	467,060	-0,045	-0,072
-170,139	-200,000	-0,002	0,049
-169,125	129,818	0,114	0,105
-168,110	61,374	0,068	0,049
-167,096	-200,000	0,014	0,098
-166,081	156,036	-0,124	-0,124
-165,066	-200,000	0,003	0,042
-164,052	800,000	-0,003	-0,010
-163,037	128,951	0,052	0,047
-162,023	-200,000	-0,027	0,102
-161,008	449,051	-0,014	-0,022
-159,993	-68,582	-0,089	-0,025
-158,979	145,600	-0,080	-0,077
-157,964	-91,587	0,047	0,010
-156,950	800,000	-0,013	0,035
-155,935	-124,560	0,034	-0,004
-154,920	-200,000	0,002	0,117
-153,906	-200,000	0,011	-0,122
-152,891	-200,000	-0,033	0,115
-151,877	757,639	-0,049	0,096
-150,862	-92,359	-0,091	-0,018
-149,847	-28,847	-0,036	-0,015
-148,833	723,760	-0,020	0,038
-147,818	-31,971	0,048	0,019
-146,804	53,714	0,069	0,048
-145,789	-197,128	-0,054	0,000
-144,775	38,813	-0,044	0,028
-143,760	-200,000	0,018	-0,090
-142,745	84,118	0,057	-0,045
-141,731	-200,000	0,026	-0,159
-140,716	800,000	0,069	-0,195
-139,702	224,335	0,128	0,149
-138,687	-200,000	-0,005	0,166
-137,672	-200,000	-0,021	0,070
-136,658	335,756	-0,063	-0,088
-135,643	-200,000	-0,043	0,200
-134,629	-200,000	-0,007	-0,117
-133,614	135,732	-0,130	-0,122
-132,599	-136,828	0,201	0,016
-131,585	800,000	-0,008	-0,021
-130,570	60,831	-0,066	0,047
-129,556	-200,000	0,003	-0,055
-128,541	79,036	-0,106	-0,081
-127,526	-10,064	-0,080	-0,038
-126,512	-200,000	0,023	0,083
-125,497	-200,000	-0,015	0,077
-124,483	-200,000	0,014	0,048
-123,468	57,554	0,020	0,014
-122,453	800,000	0,024	-0,058
-121,439	-10,112	-0,013	-0,006
-120,424	-200,000	0,014	0,062
-119,410	-140,683	0,177	0,013
-118,395	151,277	0,077	0,075
-117,380	-200,000	0,020	0,076
-116,366	-77,338	0,062	-0,015
-115,351	800,000	-0,053	0,117
-114,337	-200,000	0,001	-0,072
-113,322	-11,092	0,051	-0,024
-112,307	800,000	-0,031	-0,080
-111,293	800,000	0,045	-0,127
-110,278	-200,000	0,007	-0,060
-109,264	-125,040	0,197	0,022
-108,249	-11,828	-0,107	0,050
-107,234	-200,000	-0,002	0,094
-106,220	-200,000	-0,022	-0,077
-105,205	-69,663	-0,111	0,030
-104,191	800,000	-0,047	0,119
-103,176	-8,063	0,095	0,046
-102,162	-138,663	0,116	-0,009
-101,147	416,731	-0,023	-0,035
-100,132	-25,701	-0,099	-0,042
-99,118	127,360	-0,050	0,045
-98,103	487,659	0,046	-0,076
-97,089	800,000	-0,018	0,058
-96,074	-124,681	0,053	-0,006
-95,059	-61,061	-0,115	-0,035
-94,045	199,172	0,019	0,021
-93,030	701,048	-0,088	-0,167
-92,016	407,650	-0,039	0,060
-91,001	-20,525	0,012	-0,005
-89,986	-33,811	0,080	-0,031
-88,972	653,564	-0,047	0,088
-87,957	-200,000	-0,008	-0,071
-86,943	334,708	0,043	0,059
-85,928	94,874	-0,076	-0,062
-84,913	800,000	0,052	-0,109
-83,899	-104,550	0,035	0,006
-82,884	800,000	0,036	-0,105
-81,870	-200,000	0,047	0,209
-80,855	-97,753	-0,088	0,016
-79,840	296,395	-0,079	-0,104
-78,826	-95,315	-0,122	0,023
-77,811	800,000	0,020	-0,040
-76,797	38,666	-0,037	0,024
-75,782	63,976	0,057	0,041
-74,767	288,954	0,055	-0,072
-73,753	-200,000	-0,010	-0,110
-72,738	-200,000	0,040	-0,163
-71,724	-200,000	-0,016	-0,116
-70,709	-200,000	-0,001	-0,108
-69,694	65,296	0,030	0,022
-68,680	127,546	0,165	-0,151
-67,665	1,113	0,044	0,023
-66,651	-200,000	0,019	0,183
-65,636	800,000	-0,044	-0,116
-64,622	-140,690	-0,129	0,009
-63,607	-129,890	-0,152	-0,015
-62,592	96,194	-0,085	-0,070
-61,578	-200,000	0,003	0,071
-60,563	302,795	-0,041	0,054
-59,549	-78,309	-0,044	-0,011
-58,534	6,137	-2,062	-1,094
-57,519	-200,000	-0,066	-0,783
-56,505	-200,000	-1,413	-4,961
-55,490	167,618	0,873	0,891
-54,476	800,000	5,306	11,608
-53,461	-200,000	17,821	289,686
-52,446	800,000	728,163	2223,927
-51,432	532,574	1640,468	2796,372
-50,417	108,754	1629,492	1396,563
-49,403	72,581	1283,025	959,029
-48,388	31,203	1025,713	630,020
-47,373	19,861	987,876	569,429
-46,359	18,173	975,673	556,851
-45,344	15,429	971,749	545,623
-44,330	15,555	970,610	545,374
-43,315	15,105	968,749	542,839
-42,300	15,113	967,448	542,116
-41,286	15,105	966,519	541,548
-40,271	15,061	965,317	540,709
-39,257	15,074	964,646	540,353
-38,242	15,081	963,833	539,899
-37,227	15,088	963,132	539,509
-36,213	15,054	962,198	538,855
-35,198	15,084	961,236	538,390
-34,184	15,145	960,518	538,164
-33,169	15,032	959,577	537,252
-32,154	15,118	958,600	536,961
-31,140	15,130	957,740	536,495
-30,125	15,119	957,073	536,067
-29,111	15,131	956,068	535,521
-28,096	15,171	955,609	535,370
-27,082	15,124	954,878	534,789
-26,067	15,163	954,070	534,440
-25,052	15,070	953,427	533,760
-24,038	15,102	952,712	533,443
-23,023	15,053	952,240	533,000
-22,009	15,120	951,418	532,733
-20,994	15,090	950,874	532,312
-19,979	15,103	950,113	531,904
-18,965	15,052	949,641	531,458
-17,950	15,105	949,020	531,256
-16,936	15,074	948,364	530,771
-15,921	15,076	947,725	530,397
-14,906	14,983	946,976	529,663
-13,892	15,001	946,384	529,366
-12,877	14,959	945,680	528,817
-11,863	14,964	944,950	528,406
-10,848	14,981	944,601	528,243
-9,833	15,079	944,071	528,238
-8,819	15,095	943,437	527,910
-7,804	15,016	942,841	527,306
-6,790	14,982	942,258	526,853
-5,775	15,065	941,485	526,661
-4,760	15,043	940,969	526,282
-3,746	15,068	940,188	525,903
-2,731	14,903	939,748	525,116
-1,717	14,877	938,801	524,482
-0,702	14,798	938,538	524,066
0,313	14,662	937,683	523,952
1,327	18,173	935,716	533,849
2,342	27,561	789,178	474,944
3,356	24,234	443,842	262,175
4,371	-5,670	295,107	144,478
5,386	-9,581	276,968	131,882
6,400	-10,749	271,188	128,034
7,415	-11,051	269,101	126,760
8,429	-11,103	267,609	125,998
9,444	-11,050	266,802	125,656
10,459	-11,031	266,022	125,294
11,473	-10,988	265,324	124,994
12,488	-11,271	264,881	124,516
13,502	-11,587	264,352	123,971
14,517	-11,568	264,010	123,817
15,531	-11,318	263,535	123,809
16,546	-11,200	263,214	123,753
17,561	-11,217	262,817	123,540
18,575	-11,346	262,447	123,240
19,590	-11,349	262,153	123,087
20,604	-11,271	261,726	122,946
21,619	-11,415	261,506	122,703
22,634	-11,471	261,225	122,510
23,648	-11,425	260,932	122,402
24,663	-11,356	260,643	122,318
25,677	-11,233	260,337	122,272
26,692	-11,511	260,099	121,903
27,707	-11,446	259,857	121,836
28,721	-11,619	259,432	121,473
29,736	-11,410	259,366	121,617
30,750	-11,637	258,942	121,206
31,765	-11,417	258,718	121,284
32,780	-11,506	258,619	121,149
33,794	-11,455	258,396	121,079
34,809	-11,502	258,044	120,862
35,823	-11,337	257,822	120,891
36,838	-11,630	257,519	120,481
37,853	-11,612	257,323	120,395
38,867	-11,476	256,986	120,345
39,882	-11,451	256,783	120,262
40,896	-11,430	256,491	120,133
41,911	-11,509	256,329	119,977
42,926	-11,565	256,095	119,808
43,940	-11,631	255,913	119,655
44,955	-11,676	255,668	119,490
45,969	-11,683	255,402	119,349
46,984	-11,854	255,077	119,037
47,999	-12,007	254,786	118,759
49,013	-12,038	254,477	118,577
50,028	-12,269	254,518	118,385
51,042	-12,348	253,890	118,014
52,057	-12,654	253,967	117,774
53,071	-12,220	253,683	118,008
54,086	-12,395	253,542	117,780
55,101	-12,354	253,376	117,727
56,115	-11,862	253,184	118,052
57,130	-11,425	253,100	118,380
58,144	-11,325	252,963	118,391
59,159	-11,154	252,802	118,453
60,174	-11,208	252,481	118,245
61,188	-11,377	252,425	118,063
62,203	-11,304	252,061	117,945
63,217	-11,404	252,016	117,827
64,232	-11,386	251,727	117,697
65,247	-11,203	251,480	117,728
66,261	-11,420	251,363	117,477
67,276	-11,577	251,055	117,188
68,290	-11,753	250,686	116,855
69,305	-12,021	250,512	116,536
70,320	-12,036	250,305	116,416
71,334	-11,614	250,177	116,706
72,349	-11,298	249,895	116,833
73,363	-11,273	249,805	116,801
74,378	-11,381	249,637	116,621
75,393	-11,309	249,451	116,585
76,407	-11,583	249,180	116,214
77,422	-11,432	249,035	116,265
78,436	-11,361	248,762	116,187
79,451	-11,295	248,553	116,134
80,466	-11,482	248,333	115,863
81,480	-11,708	248,134	115,570
82,495	-11,726	247,869	115,421
83,509	-11,713	247,731	115,357
84,524	-11,560	247,405	115,323
85,539	-11,902	247,242	114,950
86,553	-11,811	247,157	114,977
87,568	-11,949	246,934	114,747
88,582	-11,787	246,691	114,760
89,597	-11,843	246,527	114,626
90,611	-11,695	246,345	114,655
91,626	-11,527	246,204	114,720
92,641	-11,349	245,950	114,741
93,655	-11,571	245,867	114,506
94,670	-11,419	245,722	114,555
95,684	-11,668	245,307	114,144
96,699	-11,432	245,099	114,233
97,714	-11,770	245,105	113,945
98,728	-11,770	244,786	113,786
99,743	-12,091	244,574	113,411
100,757	-11,915	244,219	113,382
101,772	-11,610	244,102	113,571
102,787	-11,719	244,128	113,482
103,801	-11,613	243,869	113,439
104,816	-11,709	243,817	113,326
105,830	-11,515	243,662	113,404
106,845	-11,312	243,566	113,516
107,860	-11,476	243,286	113,241
108,874	-11,752	242,880	112,814
109,889	-11,892	242,849	112,674
110,903	-11,906	242,663	112,567
111,918	-11,893	242,301	112,399
112,933	-11,739	242,221	112,479
113,947	-11,456	242,074	112,633
114,962	-11,283	241,873	112,671
115,976	-11,535	241,734	112,390
116,991	-11,529	241,369	112,215
118,006	-11,655	241,371	112,103
119,020	-11,623	241,348	112,109
120,035	-11,387	241,238	112,241
121,049	-11,572	241,051	111,991
122,064	-11,507	240,819	111,927
123,079	-11,543	240,550	111,763
124,093	-11,677	240,469	111,606
125,108	-11,803	240,076	111,311
126,122	-12,017	239,858	111,026
127,137	-12,045	239,599	110,874
128,151	-11,727	239,412	111,035
129,166	-11,688	239,261	110,987
130,181	-11,942	239,176	110,732
131,195	-11,638	238,815	110,801
132,210	-11,889	238,810	110,585
133,224	-11,497	238,759	110,869
134,239	-11,407	238,504	110,813
135,254	-11,354	238,276	110,740
136,268	-11,683	238,205	110,432
137,283	-11,951	237,798	110,018
138,297	-11,939	237,647	109,948
139,312	-12,052	237,418	109,741
140,327	-11,743	237,421	109,981
141,341	-11,221	237,342	110,354
142,356	-11,168	237,178	110,311
143,370	-11,207	237,035	110,203
144,385	-11,208	236,893	110,126
145,400	-11,063	236,699	110,143
146,414	-10,941	236,503	110,139
147,429	-11,041	236,360	109,982
148,443	-11,319	236,101	109,630
149,458	-11,151	235,955	109,686
150,473	-11,218	235,867	109,582
151,487	-11,339	235,692	109,395
152,502	-11,237	235,493	109,374
153,516	-11,090	235,278	109,381
154,531	-11,104	235,065	109,262
155,546	-11,416	234,923	108,938
156,560	-11,213	234,672	108,973
157,575	-11,426	234,539	108,733
158,589	-11,310	234,367	108,735
159,604	-11,097	234,199	108,815
160,619	-11,040	234,150	108,828
161,633	-10,941	233,946	108,802
162,648	-11,010	233,868	108,702
163,662	-11,154	233,678	108,490
164,677	-11,464	233,476	108,142
165,692	-11,117	233,326	108,336
166,706	-11,137	233,323	108,310
167,721	-10,800	232,955	108,394
168,735	-10,853	232,903	108,319
169,750	-11,003	232,725	108,109
170,764	-11,109	232,586	107,951
171,779	-11,200	232,510	107,835
172,794	-10,942	232,299	107,929
173,808	-11,150	232,104	107,666
174,823	-11,799	231,809	107,012
175,837	-11,946	231,646	106,813
176,852	-11,517	231,636	107,134
177,867	-11,117	231,423	107,338
178,881	-10,885	231,368	107,484
179,896	-11,013	231,252	107,321
180,910	-10,861	230,884	107,258
181,925	-11,038	230,921	107,128
182,940	-11,045	230,822	107,067
183,954	-11,082	230,543	106,900
184,969	-11,224	230,552	106,784
185,983	-10,902	230,372	106,941
186,998	-10,978	230,251	106,817
188,013	-11,102	230,152	106,665
189,027	-10,872	229,847	106,692
190,042	-10,879	229,629	106,576
191,056	-11,024	229,553	106,419
192,071	-10,924	229,210	106,328
193,086	-10,912	229,250	106,346
194,100	-10,985	229,055	106,190
195,115	-11,181	228,629	105,832
196,129	-11,349	228,639	105,698
197,144	-6,201	230,292	110,440
198,159	-0,738	231,891	115,446
199,173	2,817	232,973	118,745
200,188	3,177	233,075	119,066
201,202	3,363	232,757	119,037
202,217	3,297	232,628	118,909
203,232	3,510	232,471	118,984
204,246	3,655	232,459	119,080
205,261	3,827	232,266	119,104
206,275	3,973	232,292	119,219
207,290	3,901	232,085	119,047
208,304	3,941	231,931	118,988
209,319	3,994	231,627	118,862
210,334	3,664	231,519	118,542
211,348	3,541	231,298	118,323
212,363	3,341	231,106	118,060
213,377	3,006	230,736	117,603
214,392	2,919	230,807	117,562
215,407	3,095	230,535	117,548
216,421	3,055	230,430	117,454
217,436	3,144	230,131	117,359
218,450	2,842	229,947	117,023
219,465	2,796	229,804	116,904
220,480	3,006	229,699	117,001
221,494	2,940	229,609	116,894
222,509	3,284	229,435	117,058
223,523	3,138	229,392	116,915
224,538	2,861	229,165	116,577
225,553	3,121	228,905	116,632
226,567	3,218	228,880	116,683
227,582	3,290	228,785	116,680
228,596	3,633	228,744	116,909
229,611	3,075	228,514	116,357
230,626	2,852	228,240	116,037
231,640	2,768	228,062	115,872
232,655	3,203	227,937	116,129
233,669	3,676	227,950	116,485
234,684	3,372	227,896	116,215
235,699	3,326	227,699	116,070
236,713	3,203	227,482	115,855
237,728	3,091	227,316	115,676
238,742	2,870	227,058	115,367
239,757	3,134	226,920	115,486
240,772	3,117	226,690	115,346
241,786	3,029	226,581	115,214
242,801	3,213	226,652	115,379
243,815	3,476	226,552	115,516
244,830	3,456	226,391	115,408
245,844	3,020	226,111	114,927
246,859	2,968	226,077	114,861
247,874	3,270	225,851	114,963
248,888	3,371	225,609	114,905
249,903	3,245	225,406	114,697
250,917	3,448	225,236	114,753
251,932	3,047	225,182	114,414
252,947	2,976	225,145	114,332
253,961	2,945	224,772	114,110
254,976	2,944	224,745	114,085
255,990	3,186	224,711	114,238
257,005	3,229	224,682	114,245
258,020	3,040	224,462	113,982
259,034	3,337	224,243	114,082
260,049	3,239	224,095	113,923
261,063	3,375	223,961	113,946
262,078	3,291	223,857	113,821
263,093	3,519	223,580	113,839
264,107	3,359	223,643	113,742
265,122	3,232	223,472	113,551
266,136	3,544	223,285	113,677
267,151	3,789	223,180	113,795
268,166	3,324	222,854	113,274
269,180	2,807	222,756	112,833
270,195	2,899	222,486	112,754
271,209	2,901	222,414	112,708
272,224	3,282	222,229	112,885
273,239	3,140	222,233	112,773
274,253	3,056	222,065	112,616
275,268	2,899	221,802	112,357
276,282	2,764	221,561	112,125
277,297	2,684	221,485	112,018
278,312	2,812	221,398	112,059
279,326	3,012	221,340	112,166
280,341	3,198	221,086	112,163
281,355	3,120	221,041	112,073
282,370	3,156	220,856	111,996
283,384	2,813	220,670	111,641
284,399	2,781	220,429	111,485
285,414	2,649	220,374	111,351
286,428	2,872	220,236	111,435
287,443	3,246	220,207	111,683
288,457	3,080	220,068	111,481
289,472	3,069	219,816	111,336
290,487	2,523	219,680	110,859
291,501	2,562	219,427	110,750
292,516	2,512	219,550	110,765
293,530	2,871	219,214	110,847
294,545	2,808	219,140	110,754
295,560	2,892	219,178	110,825
296,574	3,148	218,933	110,877
297,589	2,873	218,738	110,568
298,603	3,016	218,606	110,595
299,618	3,225	218,473	110,670
300,633	3,098	218,442	110,552
301,647	3,308	218,468	110,708
302,662	2,957	218,307	110,362
303,676	3,227	218,040	110,412
304,691	3,212	217,847	110,294
305,706	3,209	217,733	110,224
306,720	3,340	217,397	110,139
307,735	3,231	217,399	110,051
308,749	2,997	217,174	109,760
309,764	3,147	217,149	109,844
310,779	3,490	216,972	109,992
311,793	3,294	216,906	109,807
312,808	3,221	216,695	109,639
313,822	3,367	216,536	109,653
314,837	3,053	216,394	109,347
315,852	3,067	216,084	109,190
316,866	3,083	216,123	109,212
317,881	3,336	215,957	109,299
318,895	3,337	215,818	109,220
319,910	3,110	215,572	108,923
320,925	2,941	215,335	108,674
321,939	2,413	215,352	108,296
322,954	2,620	215,245	108,381
323,968	3,281	215,060	108,748
324,983	3,058	215,073	108,586
325,997	3,347	214,996	108,743
327,012	3,230	214,713	108,506
328,027	3,162	214,673	108,429
329,041	3,220	214,629	108,438
330,056	3,448	214,386	108,467
331,070	3,326	214,106	108,229
332,085	2,838	213,875	107,758
333,100	2,733	213,950	107,712
334,114	3,126	213,919	107,965
335,129	3,254	213,736	107,953
336,143	3,039	213,542	107,694
337,158	3,156	213,463	107,727
338,173	3,129	213,356	107,644
339,187	2,951	213,134	107,397
340,202	2,771	213,062	107,224
341,216	3,173	212,660	107,295
342,231	3,010	212,542	107,111
343,246	2,956	212,480	107,032
344,260	2,990	212,391	107,002
345,275	3,240	212,322	107,133
346,289	3,250	212,331	107,135
347,304	3,058	212,090	106,870
348,319	3,271	211,802	106,864
349,333	3,313	211,743	106,854
350,348	3,329	211,695	106,831
351,362	3,318	211,589	106,761
352,377	3,423	211,497	106,778
353,392	3,125	211,287	106,455
354,406	3,213	211,294	106,510
355,421	196,059	1339,751	1418,742
356,435	156,631	1477,212	1418,716
