DTS Sentinel unit serial number:	SN410029Multiplexer serial number:	ORYXHardware model number:	OX2-SRSoftware version number:	ORYX F/W v4,00 Oryx Data Collector v3.7.2.0data status	okinstallation	B6 Nyhavnadifferential loss correction	single-endedforward channel	channel 2reverse channel	N/Adate	2023/12/08time	19:15:08forward acquisition time	300,00reverse acquisition time	0,00gamma	499,1914k internal	0,3158k external	0,3158temperature offset calibration	1,0000default loss term (dB/km)	0,3820temperature slope calibration	1,0000multiplexer offset coefficient	1,0000multiplexer slope coefficient	1,0000fibre end	0,00T internal ref (°C)	15,25T ext. ref 1 (°C)	-1,41T ext. ref 2 (°C)	-1,42length (m)	temperature (°C)	Stokes	anti-Stokes-744,400	-73,449	0,192	0,051
-743,385	-57,404	-0,256	0,082
-742,371	-41,793	0,221	0,083
-741,356	-90,140	-0,233	-0,050
-740,342	432,810	0,056	0,089
-739,327	-75,027	-0,234	0,061
-738,312	72,151	0,184	-0,141
-737,298	-115,818	-0,397	-0,054
-736,283	740,468	0,066	-0,131
-735,269	-101,614	-0,205	-0,036
-734,254	254,091	0,024	-0,031
-733,239	-125,655	-0,510	-0,056
-732,225	-102,178	0,160	-0,028
-731,210	-37,176	0,147	0,058
-730,196	-200,000	-0,025	0,095
-729,181	-200,000	0,028	0,114
-728,167	42,602	-0,071	0,048
-727,152	-200,000	-0,003	0,107
-726,137	-21,641	-0,108	-0,048
-725,123	-23,800	-0,112	-0,049
-724,108	-200,000	-0,014	0,084
-723,094	165,114	0,072	-0,075
-722,079	110,108	0,029	-0,025
-721,064	-46,733	-0,108	-0,039
-720,050	800,000	-0,010	-0,030
-719,035	361,210	-0,053	-0,078
-718,021	-200,000	0,006	-0,047
-717,006	161,972	-0,121	-0,125
-715,991	296,950	-0,115	-0,155
-714,977	-200,000	-0,018	-0,087
-713,962	-64,020	0,153	0,046
-712,948	-92,590	0,063	-0,013
-711,933	-182,089	0,114	0,002
-710,918	150,910	-0,136	-0,136
-709,904	-9,575	0,085	-0,041
-708,889	-161,558	-0,096	-0,004
-707,875	800,000	0,046	-0,125
-706,860	260,604	0,063	-0,081
-705,845	-84,865	0,048	-0,011
-704,831	3,943	-0,122	0,066
-703,816	-200,000	-0,023	0,091
-702,802	-200,000	0,012	0,106
-701,787	-99,496	-0,081	0,015
-700,772	-180,728	0,082	0,001
-699,758	800,000	0,030	-0,095
-698,743	-144,330	0,069	0,005
-697,729	366,231	0,094	0,140
-696,714	-200,000	0,001	-0,004
-695,699	47,529	-0,083	-0,057
-694,685	-200,000	0,036	-0,181
-693,670	251,841	-0,060	-0,075
-692,656	-66,183	-0,050	-0,015
-691,641	173,901	0,056	0,060
-690,627	-6,888	0,068	0,034
-689,612	-112,323	-0,077	0,011
-688,597	-200,000	-0,021	0,140
-687,583	-3,256	-0,038	-0,019
-686,568	-200,000	0,022	0,080
-685,554	207,643	-0,034	0,039
-684,539	-52,271	0,155	0,052
-683,524	800,000	0,033	0,089
-682,510	268,923	-0,058	0,075
-681,495	-200,000	0,013	0,000
-680,481	248,858	0,034	0,043
-679,466	167,420	0,076	0,079
-678,451	-50,831	-0,123	0,042
-677,437	767,208	-0,037	-0,074
-676,422	421,744	0,093	-0,148
-675,408	-75,880	0,156	0,040
-674,393	122,872	-0,026	0,024
-673,378	-140,890	0,078	-0,006
-672,364	-200,000	-0,037	-0,126
-671,349	6,134	-0,093	0,051
-670,335	-200,000	0,002	0,053
-669,320	497,814	0,028	0,047
-668,305	-85,262	-0,078	-0,018
-667,291	76,637	-0,030	0,023
-666,276	-200,000	-0,012	-0,046
-665,262	268,748	0,072	-0,093
-664,247	15,258	-0,075	0,043
-663,232	107,249	0,021	0,019
-662,218	-200,000	-0,010	0,052
-661,203	-6,919	0,170	0,085
-660,189	412,732	0,066	0,103
-659,174	-200,000	0,006	-0,049
-658,159	-200,000	0,013	0,052
-657,145	606,331	-0,034	-0,063
-656,130	189,992	0,031	0,034
-655,116	-130,424	-0,162	-0,016
-654,101	533,643	0,023	-0,040
-653,086	120,179	-0,078	-0,071
-652,072	588,906	-0,011	0,021
-651,057	-47,119	-0,187	-0,066
-650,043	407,745	-0,023	0,035
-649,028	60,112	-0,058	0,042
-648,014	293,662	0,099	-0,133
-646,999	-200,000	-0,013	0,073
-645,984	273,339	-0,085	0,111
-644,970	-200,000	0,017	-0,060
-643,955	80,650	0,046	-0,036
-642,941	698,749	-0,032	-0,062
-641,926	8,198	0,058	-0,032
-640,911	800,000	0,018	-0,040
-639,897	-146,018	0,128	-0,008
-638,882	-99,365	0,075	-0,014
-637,868	-200,000	-0,018	-0,153
-636,853	599,573	-0,044	-0,080
-635,838	-67,242	-0,072	-0,021
-634,824	39,350	-0,049	0,032
-633,809	40,402	-0,014	0,010
-632,795	203,086	-0,024	-0,027
-631,780	-200,000	0,013	-0,144
-630,765	68,317	-0,099	-0,074
-629,751	800,000	-0,022	0,066
-628,736	249,221	-0,079	-0,099
-627,722	-19,056	0,074	-0,034
-626,707	-200,000	-0,018	-0,088
-625,692	238,387	0,016	0,020
-624,678	499,823	0,046	-0,078
-623,663	-115,493	-0,013	-0,002
-622,649	-25,452	-0,063	0,027
-621,634	-33,305	0,127	0,051
-620,619	184,725	-0,036	0,039
-619,605	800,000	0,033	-0,090
-618,590	-73,330	0,052	-0,014
-617,576	-200,000	0,006	0,084
-616,561	-39,634	0,085	0,032
-615,546	-200,000	0,008	-0,049
-614,532	35,351	-0,149	-0,096
-613,517	-109,516	-0,024	0,004
-612,503	-200,000	-0,001	-0,025
-611,488	800,000	0,025	0,055
-610,474	-129,967	-0,100	-0,010
-609,459	800,000	-0,026	-0,056
-608,444	21,797	0,051	-0,031
-607,430	-136,006	0,075	0,006
-606,415	696,582	-0,025	-0,048
-605,401	-19,334	-0,046	-0,021
-604,386	497,562	0,056	-0,095
-603,371	-32,968	-0,082	0,033
-602,357	-57,121	0,107	0,034
-601,342	-200,000	-0,005	-0,029
-600,328	162,596	-0,047	-0,049
-599,313	800,000	0,028	-0,079
-598,298	-200,000	0,003	-0,030
-597,284	-200,000	0,043	0,149
-596,269	301,712	-0,103	0,140
-595,255	-200,000	-0,014	-0,068
-594,240	-200,000	-0,038	-0,165
-593,225	-200,000	0,013	-0,107
-592,211	-200,000	0,024	-0,089
-591,196	172,647	0,049	-0,052
-590,182	357,812	-0,040	-0,059
-589,167	-200,000	0,007	0,048
-588,152	800,000	-0,041	0,092
-587,138	-200,000	-0,018	-0,095
-586,123	637,396	0,041	-0,077
-585,109	-74,952	-0,048	-0,013
-584,094	800,000	0,022	0,053
-583,079	-38,824	0,068	-0,026
-582,065	386,896	0,031	-0,047
-581,050	788,520	-0,025	0,051
-580,036	-38,893	-0,088	0,034
-579,021	-200,000	-0,008	0,040
-578,006	19,878	-0,076	-0,045
-576,992	800,000	0,030	-0,093
-575,977	-80,346	0,135	0,033
-574,963	-34,469	0,051	-0,021
-573,948	113,513	0,028	0,025
-572,934	39,761	-0,062	-0,041
-571,919	255,453	-0,031	0,039
-570,904	224,614	0,093	-0,110
-569,890	-37,142	0,067	0,026
-568,875	-200,000	-0,003	-0,022
-567,861	33,735	-0,079	0,050
-566,846	73,254	-0,035	-0,027
-565,831	-200,000	-0,006	-0,022
-564,817	-47,497	-0,096	0,034
-563,802	142,652	-0,052	-0,051
-562,788	-38,243	0,109	-0,042
-561,773	800,000	-0,024	-0,056
-560,758	-200,000	-0,017	0,073
-559,744	257,168	0,149	0,188
-558,729	96,475	-0,028	-0,024
-557,715	273,221	-0,050	0,065
-556,700	143,332	-0,058	-0,057
-555,685	-31,610	-0,050	-0,020
-554,671	800,000	0,036	0,103
-553,656	800,000	0,053	-0,120
-552,642	-82,237	-0,096	-0,023
-551,627	228,175	0,044	0,053
-550,612	6,611	-0,142	0,077
-549,598	-200,000	0,030	-0,199
-548,583	-99,162	-0,137	0,025
-547,569	800,000	0,004	0,011
-546,554	44,367	0,088	0,059
-545,539	468,174	0,053	0,087
-544,525	18,167	-0,070	-0,041
-543,510	48,082	0,106	0,072
-542,496	166,032	-0,042	-0,044
-541,481	-64,899	0,116	-0,034
-540,466	800,000	0,021	-0,056
-539,452	-200,000	-0,001	-0,033
-538,437	208,537	0,026	0,029
-537,423	-116,404	-0,081	-0,011
-536,408	-200,000	-0,005	0,017
-535,393	18,182	-0,053	0,031
-534,379	-80,416	-0,173	-0,042
-533,364	-60,389	0,052	-0,016
-532,350	-200,000	0,010	-0,080
-531,335	800,000	-0,052	0,114
-530,321	-153,438	0,098	0,005
-529,306	308,970	0,032	0,044
-528,291	448,800	-0,032	-0,052
-527,277	-200,000	0,015	-0,181
-526,262	117,392	0,088	-0,079
-525,248	-15,794	0,079	-0,037
-524,233	-98,016	-0,084	0,016
-523,218	800,000	-0,024	0,075
-522,204	-200,000	0,036	0,237
-521,189	64,697	-0,057	-0,042
-520,175	162,564	-0,071	-0,073
-519,160	55,907	-0,022	0,016
-518,145	45,119	0,048	0,032
-517,131	-200,000	-0,023	-0,078
-516,116	195,562	-0,090	0,100
-515,102	22,696	0,119	0,071
-514,087	84,766	-0,089	-0,071
-513,072	-200,000	-0,026	-0,118
-512,058	-200,000	-0,014	-0,051
-511,043	-200,000	-0,003	0,119
-510,029	362,495	0,053	-0,077
-509,014	-200,000	-0,013	0,083
-507,999	-45,439	-0,091	0,033
-506,985	-154,065	-0,109	0,005
-505,970	-200,000	0,019	0,076
-504,956	-200,000	-0,024	0,127
-503,941	685,884	-0,025	0,047
-502,926	154,887	0,025	0,025
-501,912	779,285	0,053	0,106
-500,897	800,000	-0,028	0,063
-499,883	181,256	-0,035	-0,038
-498,868	401,928	0,011	0,017
-497,853	-177,937	-0,151	-0,003
-496,839	-128,853	0,094	0,010
-495,824	800,000	-0,002	-0,005
-494,810	7,436	-0,057	0,031
-493,795	-134,981	0,100	0,009
-492,781	-8,772	-0,082	-0,040
-491,766	-46,665	0,116	-0,041
-490,751	-200,000	0,033	-0,217
-489,737	-24,173	-0,035	-0,015
-488,722	251,423	-0,011	0,014
-487,708	12,178	0,033	-0,018
-486,693	800,000	-0,047	0,123
-485,678	-80,495	-0,080	0,019
-484,664	38,243	-0,142	-0,092
-483,649	-102,299	0,075	0,013
-482,635	423,289	-0,043	-0,067
-481,620	-14,180	0,072	-0,034
-480,605	-200,000	0,016	-0,087
-479,591	-3,423	0,051	0,026
-478,576	-119,031	-0,162	-0,020
-477,562	141,657	-0,038	-0,037
-476,547	-200,000	-0,005	0,030
-475,532	-55,313	0,142	0,046
-474,518	-200,000	0,007	0,066
-473,503	-200,000	0,014	-0,100
-472,489	-119,491	0,023	-0,003
-471,474	-81,769	0,050	-0,012
-470,459	800,000	0,051	-0,120
-469,445	-151,885	-0,078	-0,004
-468,430	-200,000	-0,008	0,189
-467,416	-126,158	0,125	-0,013
-466,401	177,098	0,047	0,050
-465,386	37,757	0,061	-0,039
-464,372	-106,098	-0,027	-0,004
-463,357	-200,000	-0,043	0,150
-462,343	-200,000	-0,014	0,049
-461,328	800,000	-0,033	-0,073
-460,313	19,727	0,070	0,041
-459,299	84,945	0,079	0,063
-458,284	214,179	-0,010	0,012
-457,270	-68,328	0,172	-0,048
-456,255	341,346	0,012	-0,017
-455,241	800,000	-0,056	0,161
-454,226	247,525	0,025	-0,030
-453,211	-88,100	-0,038	-0,008
-452,197	203,833	-0,048	0,054
-451,182	800,000	-0,025	0,072
-450,168	8,059	0,074	0,041
-449,153	-46,154	-0,065	0,023
-448,138	4,173	0,020	-0,011
-447,124	90,539	0,071	-0,058
-446,109	305,421	0,080	-0,108
-445,095	157,927	0,017	0,018
-444,080	-57,903	0,075	0,024
-443,065	16,511	-0,084	-0,048
-442,051	-34,601	0,041	0,016
-441,036	333,887	-0,050	-0,071
-440,022	-31,999	0,040	-0,016
-439,007	459,126	-0,053	0,086
-437,992	-109,420	0,094	0,014
-436,978	49,509	-0,053	-0,036
-435,963	-200,000	0,005	0,076
-434,949	-200,000	0,002	0,059
-433,934	-200,000	0,009	-0,048
-432,919	-200,000	0,024	0,095
-431,905	196,677	0,017	-0,019
-430,890	508,821	-0,012	0,020
-429,876	99,462	0,099	0,083
-428,861	-200,000	0,018	-0,066
-427,846	-17,612	-0,125	-0,057
-426,832	366,641	-0,108	-0,159
-425,817	-77,271	-0,075	-0,019
-424,803	-106,645	0,096	0,015
-423,788	355,028	0,070	0,102
-422,773	-25,145	-0,106	-0,045
-421,759	25,978	-0,054	0,032
-420,744	-200,000	-0,019	-0,103
-419,730	-51,503	-0,132	-0,045
-418,715	719,527	-0,018	-0,035
-417,701	-200,000	0,001	0,185
-416,686	27,294	-0,027	0,017
-415,671	-142,166	0,157	0,011
-414,657	131,758	0,104	0,098
-413,642	-85,053	-0,102	0,023
-412,628	-150,743	-0,056	0,003
-411,613	-19,408	-0,151	-0,068
-410,598	800,000	0,032	-0,067
-409,584	59,746	0,064	-0,046
-408,569	-74,279	-0,005	0,001
-407,555	0,755	0,073	-0,038
-406,540	284,089	-0,024	-0,032
-405,525	-69,531	0,026	0,007
-404,511	-157,265	0,087	-0,004
-403,496	77,990	-0,065	-0,050
-402,482	-200,000	-0,016	-0,065
-401,467	241,408	0,115	0,140
-400,452	-102,436	-0,019	0,003
-399,438	344,781	0,061	-0,088
-398,423	324,781	-0,019	-0,027
-397,409	-200,000	0,000	-0,074
-396,394	-122,138	-0,139	0,016
-395,379	800,000	0,039	0,088
-394,365	631,100	0,073	0,136
-393,350	62,358	0,065	-0,047
-392,336	-12,980	0,014	-0,007
-391,321	-15,440	-0,142	0,066
-390,306	-96,369	-0,125	0,024
-389,292	159,063	0,069	-0,070
-388,277	-106,229	0,017	-0,003
-387,263	-5,087	0,063	0,032
-386,248	-200,000	-0,004	0,194
-385,233	-200,000	-0,033	0,150
-384,219	454,446	0,027	0,044
-383,204	800,000	0,016	0,039
-382,190	-200,000	0,004	0,103
-381,175	42,290	-0,052	0,034
-380,160	217,715	-0,006	-0,006
-379,146	-62,624	0,015	0,005
-378,131	-0,920	-0,175	0,090
-377,117	800,000	-0,059	0,130
-376,102	-67,247	-0,235	-0,067
-375,088	-200,000	-0,029	0,154
-374,073	-80,142	0,086	0,021
-373,058	482,244	0,060	-0,100
-372,044	-200,000	-0,004	0,020
-371,029	321,639	0,118	0,163
-370,015	119,270	0,051	0,045
-369,000	534,421	-0,029	0,050
-367,985	-200,000	0,041	-0,162
-366,971	800,000	-0,013	-0,028
-365,956	-200,000	0,019	0,066
-364,942	-200,000	0,014	-0,050
-363,927	-87,824	0,147	0,032
-362,912	800,000	-0,039	-0,081
-361,898	-48,138	0,061	-0,021
-360,883	-128,784	-0,171	-0,017
-359,869	71,445	0,128	-0,096
-358,854	420,610	0,119	-0,186
-357,839	133,032	-0,090	0,084
-356,825	438,430	0,058	0,093
-355,810	-200,000	0,012	0,065
-354,796	-200,000	0,023	0,117
-353,781	-200,000	-0,011	-0,100
-352,766	800,000	-0,044	0,121
-351,752	800,000	0,061	0,124
-350,737	489,754	0,030	0,049
-349,723	284,519	0,011	0,014
-348,708	800,000	-0,064	-0,130
-347,693	389,165	0,112	-0,169
-346,679	746,461	-0,060	-0,118
-345,664	-17,526	-0,051	-0,023
-344,650	-76,585	0,061	-0,015
-343,635	-200,000	-0,003	0,068
-342,620	-200,000	-0,019	-0,099
-341,606	262,120	0,035	-0,045
-340,591	90,354	-0,009	0,007
-339,577	-72,709	-0,179	-0,048
-338,562	301,088	0,050	-0,068
-337,548	187,858	0,062	-0,067
-336,533	-60,068	0,157	-0,048
-335,518	-200,000	0,011	0,069
-334,504	-96,531	0,042	-0,008
-333,489	345,160	0,057	-0,082
-332,475	126,163	-0,046	-0,042
-331,460	-109,479	-0,208	0,032
-330,445	800,000	-0,020	-0,049
-329,431	-72,303	0,179	-0,048
-328,416	126,116	0,103	0,095
-327,402	-200,000	0,004	0,053
-326,387	-109,874	-0,060	-0,009
-325,372	72,821	-0,032	0,024
-324,358	-200,000	0,002	-0,139
-323,343	-200,000	0,019	-0,064
-322,329	-200,000	0,001	0,098
-321,314	141,734	0,129	0,124
-320,299	800,000	0,047	0,115
-319,285	31,876	-0,074	-0,046
-318,270	-140,086	-0,107	0,008
-317,256	800,000	-0,040	0,113
-316,241	-85,327	0,068	-0,015
-315,226	800,000	0,014	0,044
-314,212	-89,381	-0,100	0,021
-313,197	-200,000	-0,006	0,080
-312,183	158,841	0,083	0,084
-311,168	147,915	-0,043	-0,042
-310,153	338,074	-0,020	-0,028
-309,139	-97,236	-0,069	0,013
-308,124	394,541	-0,041	0,061
-307,110	-62,434	-0,076	-0,023
-306,095	67,463	0,183	0,135
-305,080	608,344	-0,071	0,128
-304,066	-200,000	-0,018	0,087
-303,051	651,678	-0,023	-0,042
-302,037	800,000	-0,022	0,061
-301,022	-72,931	0,145	-0,038
-300,008	789,245	0,101	0,203
-298,993	345,191	0,081	0,115
-297,978	-200,000	-0,028	0,137
-296,964	341,331	-0,029	-0,041
-295,949	338,413	-0,029	-0,042
-294,935	-70,895	0,023	0,006
-293,920	466,423	-0,038	0,063
-292,905	-119,572	-0,033	-0,004
-291,891	-53,211	0,042	0,014
-290,876	-61,163	-0,066	0,020
-289,862	800,000	-0,043	-0,098
-288,847	800,000	0,058	-0,136
-287,832	273,173	-0,066	0,084
-286,818	188,459	0,011	-0,012
-285,803	92,135	-0,035	-0,028
-284,789	-200,000	0,019	0,107
-283,774	-56,113	0,077	-0,025
-282,759	-138,299	-0,016	-0,001
-281,745	800,000	0,026	0,068
-280,730	148,281	0,076	-0,074
-279,716	-200,000	0,011	-0,061
-278,701	653,744	-0,028	0,052
-277,686	-200,000	-0,021	0,195
-276,672	-44,670	-0,044	0,016
-275,657	-200,000	-0,005	-0,034
-274,643	265,074	-0,058	-0,074
-273,628	-87,413	-0,067	0,015
-272,613	-84,317	0,082	0,019
-271,599	470,642	0,050	0,082
-270,584	800,000	-0,026	0,056
-269,570	-200,000	-0,017	0,099
-268,555	800,000	0,029	0,084
-267,540	-154,865	-0,144	-0,007
-266,526	227,245	-0,063	-0,074
-265,511	800,000	-0,048	-0,134
-264,497	160,420	0,124	0,125
-263,482	800,000	-0,016	0,046
-262,467	-49,550	0,096	0,033
-261,453	800,000	-0,054	0,158
-260,438	800,000	0,011	0,028
-259,424	-85,970	0,092	0,020
-258,409	518,052	-0,004	-0,007
-257,395	-200,000	-0,026	-0,115
-256,380	255,883	0,053	0,066
-255,365	253,708	0,122	0,150
-254,351	-200,000	0,018	0,198
-253,336	-200,000	0,010	-0,060
-252,322	800,000	0,032	-0,096
-251,307	233,010	0,065	-0,078
-250,292	800,000	0,012	0,030
-249,278	220,176	0,024	-0,028
-248,263	-200,000	0,003	0,075
-247,249	719,717	0,056	-0,108
-246,234	285,886	-0,054	0,070
-245,219	78,075	-0,073	-0,056
-244,205	-93,247	0,113	0,022
-243,190	77,535	-0,041	-0,031
-242,176	800,000	0,032	0,076
-241,161	-95,464	-0,040	-0,008
-240,146	48,511	-0,073	0,049
-239,132	-31,750	0,101	-0,041
-238,117	-200,000	-0,004	-0,036
-237,103	-15,112	-0,176	0,081
-236,088	370,297	0,066	0,097
-235,073	-200,000	-0,012	0,115
-234,059	-145,347	0,074	-0,005
-233,044	23,610	0,109	0,065
-232,030	5,075	-0,063	0,033
-231,015	-93,930	0,062	-0,012
-230,000	-161,947	-0,088	0,003
-228,986	-200,000	-0,003	-0,031
-227,971	-79,408	0,083	0,020
-226,957	227,709	0,077	0,090
-225,942	-39,850	0,054	0,020
-224,927	-112,499	-0,079	-0,011
-223,913	86,856	-0,090	0,072
-222,898	-27,295	-0,054	-0,023
-221,884	-99,618	-0,115	-0,021
-220,869	180,508	-0,022	0,024
-219,855	0,148	0,125	0,064
-218,840	-200,000	-0,002	0,142
-217,825	212,631	0,039	-0,044
-216,811	202,996	-0,102	-0,114
-215,796	356,051	-0,071	-0,103
-214,782	11,758	0,047	-0,026
-213,767	155,063	0,075	0,074
-212,752	800,000	-0,027	-0,070
-211,738	132,627	0,013	0,012
-210,723	-200,000	-0,028	-0,115
-209,709	-84,632	-0,100	0,023
-208,694	-200,000	-0,019	-0,092
-207,679	-159,964	-0,128	-0,005
-206,665	-200,000	0,005	0,186
-205,650	-107,331	-0,063	0,010
-204,636	62,517	0,086	0,062
-203,621	-79,009	0,084	-0,021
-202,606	-200,000	-0,024	-0,120
-201,592	73,649	-0,063	-0,047
-200,577	800,000	0,019	0,049
-199,563	-200,000	0,009	0,158
-198,548	-125,191	-0,146	-0,016
-197,533	800,000	0,056	0,126
-196,519	-200,000	0,008	0,123
-195,504	471,782	0,054	-0,088
-194,490	308,483	-0,009	0,011
-193,475	-200,000	-0,002	0,020
-192,460	800,000	0,033	-0,100
-191,446	-65,388	0,093	0,027
-190,431	68,587	0,158	-0,117
-189,417	800,000	-0,037	0,093
-188,402	728,656	0,049	0,094
-187,387	500,057	0,100	-0,167
-186,373	-200,000	0,005	-0,072
-185,358	219,973	-0,042	-0,049
-184,344	-200,000	0,003	0,015
-183,329	103,089	-0,077	0,065
-182,315	634,483	-0,045	-0,083
-181,300	223,436	-0,093	-0,108
-180,285	183,593	-0,130	-0,138
-179,271	800,000	-0,104	-0,221
-178,256	-200,000	0,054	-0,206
-177,242	475,082	0,050	-0,081
-176,227	177,421	0,055	-0,058
-175,212	-53,496	-0,020	-0,007
-174,198	-3,223	0,085	0,042
-173,183	-23,060	-0,148	0,064
-172,169	-75,631	-0,139	-0,035
-171,154	172,254	-0,012	-0,013
-170,139	-28,186	-0,037	0,015
-169,125	-200,000	-0,008	-0,123
-168,110	-200,000	-0,012	-0,051
-167,096	-81,618	0,059	-0,014
-166,081	-200,000	-0,053	-0,170
-165,066	-200,000	-0,021	-0,091
-164,052	181,150	-0,068	-0,072
-163,037	-107,497	0,066	-0,010
-162,023	-11,521	0,117	0,055
-161,008	-200,000	-0,008	0,041
-159,993	-30,632	0,059	-0,024
-158,979	287,216	-0,095	-0,124
-157,964	800,000	0,072	-0,163
-156,950	345,690	0,077	-0,110
-155,935	114,558	-0,064	0,056
-154,920	-83,432	0,084	0,019
-153,906	800,000	0,014	0,035
-152,891	162,874	-0,029	-0,029
-151,877	150,787	-0,070	-0,068
-150,862	-200,000	-0,019	0,141
-149,847	-127,959	0,085	0,009
-148,833	800,000	0,023	0,070
-147,818	396,872	-0,030	0,046
-146,804	800,000	0,057	-0,143
-145,789	-200,000	-0,003	0,069
-144,775	315,018	0,086	-0,117
-143,760	147,840	0,053	0,051
-142,745	328,298	-0,039	-0,055
-141,731	5,280	0,070	-0,037
-140,716	74,342	-0,013	-0,010
-139,702	-200,000	0,009	-0,040
-138,687	35,319	0,070	0,044
-137,672	-64,065	0,168	0,049
-136,658	-75,905	0,045	0,011
-135,643	93,768	0,090	-0,073
-134,629	206,622	0,116	-0,131
-133,614	74,742	0,088	0,067
-132,599	500,238	0,090	0,150
-131,585	-16,761	-0,087	0,040
-130,570	-200,000	0,004	0,108
-129,556	170,802	0,034	0,035
-128,541	-102,735	0,051	-0,009
-127,526	162,983	-0,092	-0,093
-126,512	14,360	0,090	-0,050
-125,497	-115,495	0,040	0,005
-124,483	145,789	0,091	0,087
-123,468	6,541	0,008	-0,004
-122,453	-200,000	-0,010	0,076
-121,439	272,265	0,085	-0,108
-120,424	-200,000	-0,001	-0,091
-119,410	-200,000	-0,027	0,119
-118,395	37,558	0,090	-0,058
-117,380	-200,000	0,032	0,124
-116,366	800,000	0,044	0,108
-115,351	-200,000	-0,018	0,116
-114,337	-95,381	0,069	-0,013
-113,322	159,093	0,060	-0,060
-112,307	-150,833	0,127	-0,007
-111,293	800,000	0,034	0,101
-110,278	800,000	-0,012	0,032
-109,264	460,421	-0,078	-0,125
-108,249	29,355	-0,122	-0,074
-107,234	132,178	-0,015	0,014
-106,220	-26,607	0,145	-0,061
-105,205	-200,000	0,020	0,119
-104,191	341,535	0,066	-0,093
-103,176	329,065	-0,022	0,030
-102,162	-54,477	-0,031	0,010
-101,147	110,974	-0,096	-0,083
-100,132	800,000	0,043	-0,099
-99,118	-200,000	0,005	-0,047
-98,103	5,349	0,039	0,021
-97,089	800,000	-0,032	-0,096
-96,074	325,303	0,048	0,066
-95,059	-94,435	-0,069	0,013
-94,045	18,588	-0,055	-0,031
-93,030	-200,000	0,013	-0,076
-92,016	800,000	-0,035	0,101
-91,001	-103,106	-0,072	0,012
-89,986	746,284	0,058	0,112
-88,972	-200,000	0,006	0,099
-87,957	-200,000	0,028	0,123
-86,943	129,077	-0,037	0,034
-85,928	230,687	-0,054	0,063
-84,913	-200,000	0,005	0,062
-83,899	-9,022	-0,123	0,059
-82,884	-92,940	0,238	0,047
-81,870	-54,770	-0,053	-0,017
-80,855	-13,908	0,117	0,054
-79,840	218,698	-0,049	0,056
-78,826	-200,000	0,005	0,080
-77,811	-95,905	0,035	0,007
-76,797	488,196	0,126	0,207
-75,782	148,904	-0,055	0,054
-74,767	-24,106	0,037	-0,016
-73,753	-51,078	-0,024	-0,008
-72,738	299,473	-0,059	0,079
-71,724	43,865	-0,160	0,105
-70,709	-200,000	0,000	-0,022
-69,694	-43,177	0,015	-0,006
-68,680	-133,211	-0,066	-0,006
-67,665	-200,000	0,016	0,096
-66,651	127,960	-0,029	0,027
-65,636	-200,000	-0,031	0,115
-64,622	-78,327	-0,046	0,011
-63,607	-200,000	-0,010	-0,053
-62,592	78,101	-0,108	0,083
-61,578	-200,000	0,032	-0,112
-60,563	-22,893	0,138	0,059
-59,549	-93,176	-0,182	0,036
-58,534	27,408	-1,987	-1,196
-57,519	-200,000	-0,096	-0,907
-56,505	-200,000	-1,228	-4,903
-55,490	80,765	0,796	0,615
-54,476	800,000	5,248	11,948
-53,461	-200,000	17,847	290,213
-52,446	800,000	726,037	2231,184
-51,432	537,577	1639,008	2805,378
-50,417	109,914	1628,994	1402,067
-49,403	73,447	1283,392	963,041
-48,388	31,585	1026,158	631,767
-47,373	19,929	988,192	569,997
-46,359	18,272	976,308	557,693
-45,344	15,601	972,319	546,662
-44,330	15,778	970,908	546,425
-43,315	15,383	968,948	544,012
-42,300	15,270	968,116	543,156
-41,286	15,270	967,134	542,584
-40,271	15,266	965,847	541,825
-39,257	15,241	965,115	541,314
-38,242	15,268	964,432	540,995
-37,227	15,289	963,519	540,530
-36,213	15,260	962,603	539,899
-35,198	15,269	961,607	539,348
-34,184	15,253	961,052	538,966
-33,169	15,258	959,985	538,363
-32,154	15,331	959,049	538,051
-31,140	15,346	958,147	537,571
-30,125	15,325	957,493	537,116
-29,111	15,274	956,707	536,489
-28,096	15,384	955,932	536,387
-27,082	15,319	955,344	535,827
-26,067	15,344	954,572	535,454
-25,052	15,285	953,831	534,826
-24,038	15,246	953,146	534,298
-23,023	15,320	952,467	534,133
-22,009	15,318	951,887	533,779
-20,994	15,266	951,425	533,334
-19,979	15,192	950,745	532,693
-18,965	15,304	949,893	532,553
-17,950	15,300	949,459	532,278
-16,936	15,255	948,868	531,780
-15,921	15,185	948,045	531,076
-14,906	15,148	947,465	530,610
-13,892	15,183	946,788	530,322
-12,877	15,094	946,358	529,778
-11,863	15,188	945,350	529,491
-10,848	15,191	945,025	529,298
-9,833	15,257	944,479	529,178
-8,819	15,175	944,003	528,633
-7,804	15,207	943,343	528,343
-6,790	15,189	942,837	527,980
-5,775	15,194	942,038	527,529
-4,760	15,199	941,487	527,216
-3,746	15,168	940,890	526,762
-2,731	15,094	940,040	526,032
-1,717	15,062	939,626	525,677
-0,702	15,071	938,790	525,215
0,313	14,810	938,207	524,860
1,327	18,231	936,198	534,458
2,342	27,430	789,612	474,997
3,356	24,003	444,177	262,105
4,371	-5,649	294,887	144,432
5,386	-9,514	276,334	131,681
6,400	-10,997	270,728	127,624
7,415	-10,991	268,366	126,505
8,429	-10,868	267,055	125,988
9,444	-11,196	266,177	125,263
10,459	-11,039	265,391	125,025
11,473	-11,196	264,888	124,635
12,488	-11,159	264,357	124,407
13,502	-11,551	263,865	123,810
14,517	-11,315	263,463	123,824
15,531	-11,082	262,996	123,802
16,546	-11,270	262,624	123,447
17,561	-11,216	262,329	123,346
18,575	-11,258	261,954	123,122
19,590	-11,265	261,573	122,925
20,604	-11,048	261,198	122,931
21,619	-11,368	261,019	122,551
22,634	-11,245	260,757	122,527
23,648	-11,223	260,302	122,322
24,663	-11,238	260,177	122,239
25,677	-11,253	259,857	122,064
26,692	-11,118	259,486	121,998
27,707	-11,179	259,269	121,831
28,721	-11,237	258,998	121,642
29,736	-11,201	258,702	121,524
30,750	-11,442	258,555	121,231
31,765	-11,389	258,321	121,158
32,780	-11,409	258,122	121,035
33,794	-11,419	257,796	120,863
34,809	-11,059	257,385	120,976
35,823	-11,266	257,290	120,739
36,838	-11,368	257,013	120,508
37,853	-11,401	256,780	120,359
38,867	-11,405	256,721	120,318
39,882	-11,408	256,420	120,163
40,896	-11,286	256,178	120,146
41,911	-11,288	255,862	119,985
42,926	-11,498	255,710	119,720
43,940	-11,309	255,354	119,707
44,955	-11,532	255,114	119,390
45,969	-11,476	254,795	119,279
46,984	-11,740	254,806	119,043
47,999	-11,925	254,276	118,625
49,013	-12,041	254,134	118,447
50,028	-12,132	253,961	118,278
51,042	-12,082	253,539	118,114
52,057	-12,186	253,240	117,874
53,071	-11,881	253,151	118,085
54,086	-12,119	253,083	117,838
55,101	-11,953	252,944	117,905
56,115	-11,868	252,825	117,913
57,130	-11,312	252,606	118,279
58,144	-11,069	252,394	118,379
59,159	-10,902	252,233	118,436
60,174	-11,059	251,984	118,173
61,188	-11,157	251,754	117,971
62,203	-11,196	251,740	117,921
63,217	-11,232	251,497	117,766
64,232	-11,289	251,317	117,622
65,247	-11,027	250,865	117,623
66,261	-11,296	250,732	117,321
67,276	-11,633	250,535	116,931
68,290	-11,675	250,202	116,729
69,305	-11,862	249,960	116,447
70,320	-11,938	249,867	116,328
71,334	-11,441	249,670	116,649
72,349	-11,206	249,494	116,756
73,363	-11,247	249,434	116,682
74,378	-11,207	249,112	116,555
75,393	-11,189	249,034	116,524
76,407	-11,333	248,693	116,232
77,422	-11,254	248,557	116,225
78,436	-11,114	248,261	116,194
79,451	-11,171	248,122	116,071
80,466	-11,310	247,983	115,878
81,480	-11,451	247,681	115,608
82,495	-11,488	247,309	115,393
83,509	-11,492	247,452	115,446
84,524	-11,659	247,088	115,125
85,539	-11,653	246,758	114,966
86,553	-11,721	246,588	114,820
87,568	-11,585	246,389	114,831
88,582	-11,507	246,271	114,831
89,597	-11,595	246,024	114,632
90,611	-11,531	246,145	114,732
91,626	-11,294	245,892	114,802
92,641	-11,386	245,641	114,598
93,655	-11,456	245,387	114,411
94,670	-11,471	245,164	114,283
95,684	-11,495	245,077	114,213
96,699	-11,360	244,845	114,207
97,714	-11,570	244,554	113,886
98,728	-11,844	244,426	113,589
99,743	-11,750	244,064	113,489
100,757	-11,867	243,957	113,333
101,772	-11,616	243,740	113,429
102,787	-11,553	243,737	113,470
103,801	-11,590	243,513	113,324
104,816	-11,540	243,451	113,327
105,830	-11,349	243,068	113,296
106,845	-11,245	243,015	113,347
107,860	-11,384	242,875	113,158
108,874	-11,308	242,620	113,090
109,889	-11,506	242,370	112,801
110,903	-11,471	242,174	112,729
111,918	-11,733	241,922	112,387
112,933	-11,526	241,836	112,506
113,947	-11,504	241,716	112,459
114,962	-11,334	241,597	112,532
115,976	-11,281	241,282	112,419
116,991	-11,596	241,173	112,101
118,006	-11,503	241,006	112,089
119,020	-11,080	240,656	112,262
120,035	-11,245	240,808	112,188
121,049	-11,197	240,603	112,121
122,064	-11,429	240,270	111,767
123,079	-11,426	240,137	111,697
124,093	-11,252	239,918	111,728
125,108	-11,508	239,611	111,367
126,122	-11,813	239,356	110,991
127,137	-11,917	239,319	110,879
128,151	-11,740	239,082	110,903
129,166	-11,736	238,927	110,825
130,181	-11,562	238,715	110,857
131,195	-11,790	238,465	110,547
132,210	-11,497	238,445	110,765
133,224	-11,339	238,165	110,752
134,239	-11,510	238,144	110,594
135,254	-11,453	237,973	110,551
136,268	-11,597	237,776	110,333
137,283	-11,763	237,414	110,022
138,297	-11,941	237,200	109,771
139,312	-11,890	237,026	109,721
140,327	-11,447	236,995	110,052
141,341	-11,249	237,104	110,252
142,356	-11,134	236,951	110,263
143,370	-11,112	236,681	110,146
144,385	-11,164	236,464	109,993
145,400	-11,148	236,396	109,964
146,414	-11,125	236,221	109,891
147,429	-11,051	236,023	109,849
148,443	-11,034	235,768	109,734
149,458	-11,008	235,600	109,666
150,473	-11,008	235,363	109,546
151,487	-11,010	235,185	109,452
152,502	-11,096	235,071	109,321
153,516	-10,937	234,953	109,382
154,531	-10,994	234,902	109,304
155,546	-11,120	234,579	109,044
156,560	-11,065	234,332	108,963
157,575	-11,324	234,313	108,740
158,589	-11,216	234,080	108,707
159,604	-11,101	233,915	108,712
160,619	-11,003	233,886	108,766
161,633	-10,903	233,700	108,749
162,648	-11,003	233,577	108,602
163,662	-11,088	233,224	108,362
164,677	-11,079	233,172	108,335
165,692	-11,115	233,050	108,240
166,706	-10,973	232,935	108,289
167,721	-10,672	232,723	108,417
168,735	-10,858	232,618	108,213
169,750	-11,095	232,375	107,904
170,764	-10,973	232,224	107,920
171,779	-10,799	232,060	107,970
172,794	-10,904	231,941	107,823
173,808	-10,938	231,603	107,630
174,823	-11,642	231,352	106,954
175,837	-11,720	231,289	106,855
176,852	-11,349	231,330	107,154
177,867	-11,049	231,116	107,278
178,881	-11,188	231,061	107,135
179,896	-10,870	230,815	107,259
180,910	-10,893	230,782	107,216
181,925	-10,886	230,335	107,005
182,940	-11,085	230,506	106,920
183,954	-10,938	230,254	106,907
184,969	-10,883	230,060	106,850
185,983	-10,713	229,980	106,936
186,998	-10,908	229,919	106,747
188,013	-10,715	229,616	106,745
189,027	-10,787	229,443	106,600
190,042	-10,777	229,354	106,557
191,056	-10,795	229,145	106,437
192,071	-10,996	229,089	106,246
193,086	-10,865	228,805	106,206
194,100	-10,918	228,623	106,071
195,115	-11,189	228,205	105,659
196,129	-11,346	228,265	105,557
197,144	-6,174	230,021	110,362
198,159	0,173	231,746	116,113
199,173	3,103	232,575	118,797
200,188	3,268	232,571	118,912
201,202	3,293	232,352	118,809
202,217	3,367	232,357	118,859
203,232	3,518	232,347	118,960
204,246	3,806	231,944	118,967
205,261	3,774	231,929	118,923
206,275	3,996	231,703	118,969
207,290	4,106	231,759	119,071
208,304	4,248	231,489	119,032
209,319	3,862	231,286	118,619
210,334	3,960	230,888	118,480
211,348	3,613	230,941	118,230
212,363	3,212	230,643	117,757
213,377	3,005	230,346	117,437
214,392	3,190	230,384	117,587
215,407	3,328	230,149	117,563
216,421	3,318	230,057	117,498
217,436	3,168	229,803	117,242
218,450	3,075	229,725	117,121
219,465	2,981	229,439	116,893
220,480	3,138	229,308	116,936
221,494	2,999	229,065	116,695
222,509	3,293	229,156	116,956
223,523	3,119	228,969	116,717
224,538	3,045	228,747	116,537
225,553	3,047	228,839	116,575
226,567	3,269	228,510	116,566
227,582	3,442	228,434	116,649
228,596	3,437	228,424	116,629
229,611	3,421	228,093	116,438
230,626	2,995	227,811	115,960
231,640	3,126	227,648	115,967
232,655	3,394	227,574	116,122
233,669	3,702	227,677	116,397
234,684	3,927	227,345	116,387
235,699	3,676	227,192	116,109
236,713	3,189	227,189	115,729
237,728	2,974	226,945	115,431
238,742	2,996	226,769	115,349
239,757	3,208	226,582	115,402
240,772	3,347	226,380	115,394
241,786	3,232	226,186	115,199
242,801	3,405	226,215	115,333
243,815	3,584	226,181	115,441
244,830	3,510	225,919	115,241
245,844	3,300	225,767	114,995
246,859	3,039	225,690	114,750
247,874	3,142	225,474	114,707
248,888	3,401	225,376	114,841
249,903	3,377	225,176	114,711
250,917	2,899	225,011	114,259
251,932	2,991	224,964	114,294
252,947	2,850	224,740	114,064
253,961	3,077	224,523	114,114
254,976	3,161	224,331	114,068
255,990	3,284	224,359	114,164
257,005	3,373	224,089	114,083
258,020	3,235	224,007	113,929
259,034	3,575	223,857	114,095
260,049	3,522	223,677	113,953
261,063	3,082	223,695	113,625
262,078	3,729	223,412	113,952
263,093	3,643	223,291	113,816
264,107	3,637	223,133	113,721
265,122	3,654	222,987	113,649
266,136	3,587	222,965	113,579
267,151	3,800	222,825	113,654
268,166	3,269	222,554	113,113
269,180	3,001	222,286	112,769
270,195	3,089	222,160	112,761
271,209	3,052	222,035	112,659
272,224	3,161	221,972	112,698
273,239	3,234	221,722	112,614
274,253	3,195	221,601	112,514
275,268	3,161	221,397	112,376
276,282	2,792	221,322	112,057
277,297	2,836	221,165	112,000
278,312	2,903	221,149	112,031
279,326	3,329	220,888	112,201
280,341	3,279	220,919	112,169
281,355	3,184	220,697	111,977
282,370	3,172	220,596	111,907
283,384	2,781	220,314	111,469
284,399	2,814	220,170	111,410
285,414	2,912	220,010	111,391
286,428	3,020	220,045	111,477
287,443	3,354	219,804	111,588
288,457	3,285	219,778	111,515
289,472	3,112	219,402	111,189
290,487	2,622	219,333	110,788
291,501	2,603	219,101	110,647
292,516	2,765	218,922	110,664
293,530	2,953	218,910	110,784
294,545	2,688	218,850	110,552
295,560	3,238	218,586	110,807
296,574	3,210	218,535	110,751
297,589	3,013	218,356	110,507
298,603	3,217	218,297	110,616
299,618	3,149	218,086	110,450
300,633	3,182	218,101	110,472
301,647	3,007	218,046	110,307
302,662	3,320	217,853	110,425
303,676	3,365	217,640	110,340
304,691	3,526	217,517	110,384
305,706	3,284	217,369	110,125
306,720	3,399	217,237	110,131
307,735	3,249	217,036	109,912
308,749	2,951	216,873	109,605
309,764	3,199	216,782	109,728
310,779	3,160	216,817	109,707
311,793	3,441	216,563	109,770
312,808	3,266	216,292	109,498
313,822	3,054	216,246	109,313
314,837	3,164	215,979	109,247
315,852	3,234	215,791	109,192
316,866	3,142	215,820	109,132
317,881	3,521	215,686	109,324
318,895	3,407	215,495	109,136
319,910	2,940	215,393	108,743
320,925	2,851	215,205	108,574
321,939	2,639	214,874	108,247
322,954	2,638	215,067	108,334
323,968	3,028	214,840	108,487
324,983	3,280	214,826	108,649
325,997	3,408	214,557	108,595
327,012	3,134	214,386	108,304
328,027	3,171	214,415	108,335
329,041	3,342	214,218	108,347
330,056	3,648	214,114	108,501
331,070	3,632	213,861	108,352
332,085	3,129	213,729	107,920
333,100	3,068	213,741	107,873
334,114	3,427	213,417	107,953
335,129	3,352	213,421	107,893
336,143	3,317	213,228	107,761
337,158	3,125	213,112	107,558
338,173	3,245	213,011	107,582
339,187	3,011	212,751	107,276
340,202	2,915	212,542	107,094
341,216	2,815	212,435	106,961
342,231	3,016	212,302	107,025
343,246	3,026	212,233	106,987
344,260	3,261	211,980	107,015
345,275	3,277	211,944	106,999
346,289	3,368	211,858	107,009
347,304	3,452	211,711	106,984
348,319	3,303	211,541	106,784
349,333	2,972	211,352	106,449
350,348	3,274	211,304	106,626
351,362	3,516	211,248	106,756
352,377	3,484	211,135	106,668
353,392	3,096	211,061	106,351
354,406	3,382	210,843	106,430
355,421	195,757	1341,564	1420,090
356,435	156,353	1479,306	1420,061
