DTS Sentinel unit serial number:	SN410029Multiplexer serial number:	ORYXHardware model number:	OX2-SRSoftware version number:	ORYX F/W v4,00 Oryx Data Collector v3.7.2.0data status	okinstallation	B6 Nyhavnadifferential loss correction	single-endedforward channel	channel 2reverse channel	N/Adate	2023/12/08time	17:25:08forward acquisition time	300,00reverse acquisition time	0,00gamma	499,1914k internal	0,3158k external	0,3158temperature offset calibration	1,0000default loss term (dB/km)	0,3820temperature slope calibration	1,0000multiplexer offset coefficient	1,0000multiplexer slope coefficient	1,0000fibre end	0,00T internal ref (°C)	15,17T ext. ref 1 (°C)	-1,36T ext. ref 2 (°C)	-1,36length (m)	temperature (°C)	Stokes	anti-Stokes-744,400	-200,000	0,008	0,041
-743,385	-138,152	-0,311	0,025
-742,371	69,821	0,049	0,037
-741,356	-111,397	-0,290	-0,043
-740,342	65,500	0,159	0,118
-739,327	-155,715	-0,314	0,015
-738,312	-200,000	-0,009	0,134
-737,298	-156,116	-0,442	-0,020
-736,283	357,214	0,086	0,127
-735,269	-67,076	-0,259	-0,075
-734,254	220,680	0,076	0,090
-733,239	-37,645	-0,560	-0,219
-732,225	55,437	0,248	0,176
-731,210	-50,232	-0,120	0,042
-730,196	800,000	-0,018	-0,055
-729,181	-200,000	0,002	0,016
-728,167	726,784	-0,098	-0,194
-727,152	-200,000	0,002	0,035
-726,137	-200,000	0,028	-0,111
-725,123	339,201	-0,057	-0,082
-724,108	-94,783	-0,228	-0,045
-723,094	104,068	-0,069	0,060
-722,079	-200,000	-0,003	0,021
-721,064	236,568	0,069	-0,085
-720,050	66,607	0,044	-0,033
-719,035	-200,000	0,026	0,087
-718,021	338,676	-0,018	-0,027
-717,006	132,207	-0,055	0,052
-715,991	-108,557	-0,208	0,033
-714,977	423,626	-0,042	-0,067
-713,962	-84,932	0,126	-0,029
-712,948	726,018	-0,008	0,016
-711,933	-52,500	0,065	-0,022
-710,918	-95,355	-0,180	-0,035
-709,904	-200,000	-0,036	-0,141
-708,889	-107,940	0,154	-0,024
-707,875	-129,006	-0,104	-0,011
-706,860	148,066	0,067	-0,066
-705,845	800,000	0,050	0,112
-704,831	-141,240	0,061	0,005
-703,816	10,468	-0,024	0,013
-702,802	-75,293	-0,220	-0,057
-701,787	-126,371	0,091	-0,010
-700,772	224,884	-0,070	-0,084
-699,758	31,327	-0,112	0,071
-698,743	-45,689	0,058	-0,021
-697,729	105,791	-0,026	0,023
-696,714	66,058	0,037	0,028
-695,699	-200,000	-0,013	-0,096
-694,685	49,262	-0,110	0,076
-693,670	-46,155	-0,089	-0,032
-692,656	-26,537	0,006	0,003
-691,641	-200,000	0,055	-0,197
-690,627	-128,639	-0,007	-0,001
-689,612	-87,871	-0,108	0,024
-688,597	-18,229	-0,118	-0,054
-687,583	15,095	-0,175	-0,101
-686,568	-200,000	-0,046	-0,174
-685,554	-200,000	-0,021	-0,088
-684,539	40,940	0,027	-0,018
-683,524	70,387	0,066	0,050
-682,510	-6,562	0,124	0,062
-681,495	90,448	-0,097	-0,080
-680,481	625,482	0,020	-0,037
-679,466	-112,913	-0,089	-0,013
-678,451	384,077	-0,143	-0,216
-677,437	-38,124	0,051	-0,020
-676,422	-200,000	-0,001	-0,056
-675,408	-11,332	0,089	-0,043
-674,393	556,938	-0,122	-0,217
-673,378	-19,995	-0,228	-0,103
-672,364	-29,971	0,053	-0,022
-671,349	105,502	-0,110	-0,095
-670,335	800,000	0,027	0,064
-669,320	707,251	-0,030	0,059
-668,305	630,289	0,046	0,085
-667,291	-19,276	-0,048	0,022
-666,276	-21,964	-0,115	-0,051
-665,262	-70,928	-0,062	-0,017
-664,247	59,887	0,019	-0,014
-663,232	-200,000	0,015	0,130
-662,218	74,203	0,087	-0,067
-661,203	85,485	-0,071	0,057
-660,189	63,964	-0,027	0,020
-659,174	136,460	-0,054	0,052
-658,159	-140,056	-0,058	0,004
-657,145	139,725	-0,098	-0,095
-656,130	518,018	0,044	-0,077
-655,116	-200,000	0,009	0,031
-654,101	800,000	-0,020	-0,061
-653,086	120,516	0,099	0,090
-652,072	-29,362	-0,125	0,052
-651,057	800,000	-0,018	-0,051
-650,043	800,000	-0,019	0,060
-649,028	14,829	-0,103	0,059
-648,014	427,306	0,021	-0,033
-646,999	-36,009	-0,044	-0,017
-645,984	-81,825	0,145	-0,035
-644,970	800,000	0,043	-0,092
-643,955	45,255	-0,120	0,081
-642,941	-165,470	-0,056	-0,002
-641,926	-129,479	-0,073	-0,007
-640,911	-97,572	-0,096	0,018
-639,897	-141,524	-0,089	-0,006
-638,882	-200,000	-0,001	0,023
-637,868	-200,000	-0,165	-0,000
-636,853	236,635	-0,041	-0,050
-635,838	458,180	-0,020	0,033
-634,824	-11,980	0,052	-0,025
-633,809	800,000	-0,018	-0,044
-632,795	-200,000	0,014	0,047
-631,780	-77,582	-0,068	0,017
-630,765	-16,247	-0,164	0,076
-629,751	-75,636	0,061	-0,016
-628,736	800,000	-0,066	-0,169
-627,722	54,470	-0,140	-0,099
-626,707	-126,354	0,114	-0,012
-625,692	-200,000	-0,012	0,082
-624,678	-200,000	0,005	0,123
-623,663	-21,917	0,113	0,050
-622,649	-82,283	-0,171	-0,041
-621,634	-200,000	-0,022	-0,082
-620,619	-169,612	0,096	-0,003
-619,605	-200,000	-0,007	-0,083
-618,590	28,316	0,077	0,048
-617,576	-25,176	0,070	0,030
-616,561	17,914	-0,073	0,043
-615,546	800,000	-0,051	0,109
-614,532	-168,771	-0,081	-0,002
-613,517	-200,000	-0,015	0,102
-612,503	282,824	-0,095	-0,126
-611,488	-200,000	0,009	0,084
-610,474	-115,217	-0,080	-0,011
-609,459	-200,000	-0,001	-0,034
-608,444	132,279	0,030	-0,029
-607,430	103,423	-0,053	-0,046
-606,415	146,463	-0,044	-0,043
-605,401	290,430	0,025	0,034
-604,386	-22,656	0,153	-0,068
-603,371	-112,619	-0,040	0,006
-602,357	-93,644	0,029	0,006
-601,342	-186,019	-0,062	0,001
-600,328	-140,866	-0,161	0,012
-599,313	-200,000	-0,005	-0,043
-598,298	574,729	0,072	-0,129
-597,284	800,000	-0,030	0,083
-596,269	-200,000	-0,005	0,068
-595,255	-96,596	-0,081	0,015
-594,240	800,000	-0,035	-0,083
-593,225	-200,000	-0,025	-0,089
-592,211	-11,373	-0,047	0,023
-591,196	-104,771	-0,098	0,016
-590,182	27,736	0,067	0,041
-589,167	-200,000	0,006	0,062
-588,152	136,906	0,053	0,051
-587,138	800,000	-0,048	-0,150
-586,123	487,478	-0,046	-0,077
-585,109	-103,751	-0,074	0,013
-584,094	-83,510	-0,146	-0,034
-583,079	800,000	0,036	0,078
-582,065	10,147	0,048	0,026
-581,050	-166,214	-0,075	-0,002
-580,036	474,447	-0,046	0,076
-579,021	217,659	-0,096	0,112
-578,006	-200,000	-0,001	-0,061
-576,992	247,884	0,022	0,027
-575,977	-75,331	-0,041	-0,011
-574,963	-163,374	0,057	-0,002
-573,948	191,519	-0,064	0,070
-572,934	800,000	-0,011	0,029
-571,919	-200,000	-0,025	0,084
-570,904	127,434	0,037	0,034
-569,890	589,704	-0,034	-0,062
-568,875	-65,216	0,036	-0,010
-567,861	-71,491	0,090	0,024
-566,846	-53,664	0,038	0,013
-565,831	-78,068	-0,109	0,027
-564,817	629,294	0,033	0,061
-563,802	87,933	-0,161	-0,131
-562,788	72,422	0,071	-0,054
-561,773	-162,097	0,203	0,007
-560,758	800,000	0,085	0,201
-559,744	-37,673	-0,116	0,045
-558,729	-200,000	0,012	0,071
-557,715	-15,311	0,184	0,086
-556,700	-87,003	-0,124	-0,028
-555,685	292,982	-0,022	-0,030
-554,671	-200,000	0,020	-0,117
-553,656	800,000	-0,020	0,042
-552,642	111,838	-0,095	0,084
-551,627	-188,292	-0,164	0,001
-550,612	-200,000	-0,022	-0,100
-549,598	211,560	-0,037	-0,042
-548,583	52,092	0,040	-0,028
-547,569	800,000	-0,062	0,142
-546,554	-200,000	-0,013	0,139
-545,539	94,406	0,054	-0,045
-544,525	-64,476	0,047	0,014
-543,510	-200,000	-0,014	-0,093
-542,496	345,641	-0,016	0,023
-541,481	17,777	-0,094	0,054
-540,466	800,000	-0,044	0,102
-539,452	800,000	0,029	0,091
-538,437	-125,951	0,148	0,016
-537,423	800,000	-0,001	0,005
-536,408	-200,000	-0,003	0,063
-535,393	56,997	-0,092	0,066
-534,379	38,413	-0,018	0,011
-533,364	86,207	-0,025	0,020
-532,350	800,000	-0,023	0,062
-531,335	800,000	0,022	0,069
-530,321	157,609	0,050	0,051
-529,306	-152,135	0,113	0,006
-528,291	223,083	-0,070	-0,083
-527,277	-93,184	-0,063	0,013
-526,262	8,943	-0,083	-0,046
-525,248	110,456	0,060	0,053
-524,233	-145,395	0,050	0,003
-523,218	-60,698	0,145	0,045
-522,204	380,931	-0,039	0,058
-521,189	623,723	-0,054	0,100
-520,175	-24,201	0,139	0,060
-519,160	213,019	0,098	-0,114
-518,145	-200,000	0,007	-0,085
-517,131	-200,000	0,005	-0,037
-516,116	800,000	-0,042	0,091
-515,102	-68,256	0,059	0,017
-514,087	-125,814	0,049	0,005
-513,072	800,000	0,034	-0,085
-512,058	-200,000	0,013	-0,053
-511,043	286,128	0,043	0,057
-510,029	-180,440	-0,110	0,002
-509,014	212,795	-0,093	0,107
-507,999	-154,686	-0,045	-0,002
-506,985	-3,301	-0,138	0,070
-505,970	-113,150	0,061	0,009
-504,956	48,610	0,188	-0,129
-503,941	321,939	-0,031	-0,043
-502,926	-4,668	0,113	0,057
-501,912	-200,000	-0,011	0,069
-500,897	36,737	0,116	-0,075
-499,883	-103,667	-0,064	0,011
-498,868	-19,493	0,111	-0,050
-497,853	3,858	-0,128	-0,068
-496,839	-17,286	0,040	-0,018
-495,824	-147,934	0,141	0,008
-494,810	453,872	-0,024	0,038
-493,795	103,503	0,095	0,082
-492,781	-93,716	-0,174	0,035
-491,766	-1,536	-0,025	-0,013
-490,751	-104,906	0,147	-0,024
-489,737	496,125	0,019	-0,032
-488,722	796,414	0,031	-0,062
-487,708	193,951	0,054	-0,059
-486,693	388,597	0,012	0,017
-485,678	-200,000	0,006	-0,028
-484,664	383,060	-0,016	-0,025
-483,649	38,038	0,106	0,069
-482,635	-200,000	-0,026	-0,104
-481,620	800,000	-0,030	0,075
-480,605	-16,447	0,033	0,015
-479,591	147,348	0,062	0,061
-478,576	-200,000	0,033	0,158
-477,562	289,373	-0,066	-0,087
-476,547	7,125	-0,117	-0,064
-475,532	273,632	-0,044	-0,057
-474,518	800,000	0,040	-0,129
-473,503	-99,182	-0,136	0,025
-472,489	74,486	-0,156	0,120
-471,474	-30,376	0,132	0,054
-470,459	800,000	-0,045	-0,127
-469,445	-200,000	0,017	0,082
-468,430	800,000	0,029	-0,076
-467,416	570,687	-0,065	-0,116
-466,401	-121,711	0,168	-0,020
-465,386	14,403	-0,076	-0,043
-464,372	756,952	0,023	0,046
-463,357	-200,000	-0,009	0,111
-462,343	-85,235	-0,048	-0,011
-461,328	800,000	-0,070	-0,172
-460,313	105,460	0,045	0,039
-459,299	612,589	-0,043	-0,079
-458,284	310,642	0,075	0,102
-457,270	-200,000	-0,001	0,015
-456,255	587,880	0,048	-0,086
-455,241	-200,000	0,014	-0,082
-454,226	-200,000	0,007	-0,069
-453,211	-200,000	0,012	0,047
-452,197	800,000	0,036	0,108
-451,182	395,507	0,056	0,086
-450,168	-13,390	-0,037	-0,017
-449,153	34,025	-0,055	-0,035
-448,138	-200,000	-0,005	0,052
-447,124	-200,000	0,012	-0,042
-446,109	-86,403	0,071	-0,016
-445,095	-175,816	0,074	0,001
-444,080	-200,000	-0,034	-0,114
-443,065	146,073	0,082	0,081
-442,051	-11,439	-0,047	-0,023
-441,036	-88,184	0,101	-0,022
-440,022	28,886	-0,093	-0,057
-439,007	-200,000	0,032	-0,136
-437,992	-40,829	0,083	0,031
-436,978	-200,000	0,000	0,174
-435,963	42,271	0,127	0,084
-434,949	-178,393	-0,020	0,000
-433,934	800,000	-0,003	-0,006
-432,919	-43,045	-0,088	0,032
-431,905	293,789	0,063	0,083
-430,890	-200,000	-0,027	0,138
-429,876	800,000	-0,025	-0,077
-428,861	423,695	0,143	0,224
-427,846	291,902	-0,024	0,032
-426,832	-107,421	-0,057	0,009
-425,817	436,823	-0,034	0,054
-424,803	12,574	0,075	-0,042
-423,788	-200,000	-0,000	0,030
-422,773	-89,159	0,036	-0,008
-421,759	5,244	-0,064	-0,034
-420,744	529,234	-0,008	-0,014
-419,730	-200,000	0,000	-0,011
-418,715	14,777	0,083	0,047
-417,701	698,650	-0,037	-0,070
-416,686	-200,000	0,016	-0,158
-415,671	-148,332	0,028	-0,002
-414,657	-4,812	-0,011	0,006
-413,642	-200,000	0,028	-0,090
-412,628	-200,000	-0,012	-0,074
-411,613	-5,710	-0,049	0,024
-410,598	225,122	0,075	-0,089
-409,584	-173,044	0,033	0,001
-408,569	-56,108	0,035	0,011
-407,555	783,495	-0,045	0,091
-406,540	388,155	0,033	0,051
-405,525	-200,000	0,023	-0,209
-404,511	800,000	0,013	0,036
-403,496	67,604	-0,052	0,038
-402,482	-73,406	0,099	-0,026
-401,467	463,101	0,069	0,113
-400,452	-44,252	0,032	-0,012
-399,438	-200,000	0,002	0,083
-398,423	-200,000	-0,018	0,097
-397,409	-24,106	-0,020	-0,009
-396,394	-137,630	0,071	0,006
-395,379	-54,901	-0,027	-0,009
-394,365	-200,000	-0,004	-0,096
-393,350	-146,717	-0,065	-0,004
-392,336	154,801	-0,033	-0,033
-391,321	57,034	0,061	-0,043
-390,306	-34,425	-0,089	0,035
-389,292	800,000	-0,026	0,061
-388,277	8,630	0,033	0,018
-387,263	-75,087	-0,025	0,006
-386,248	660,937	0,005	-0,010
-385,233	800,000	-0,039	-0,099
-384,219	16,589	-0,050	0,028
-383,204	30,828	0,067	-0,041
-382,190	-200,000	-0,000	0,007
-381,175	-200,000	0,010	-0,086
-380,160	-200,000	0,001	-0,008
-379,146	-137,106	0,130	-0,011
-378,131	84,288	0,119	0,095
-377,117	-5,868	-0,097	0,048
-376,102	-99,894	-0,120	0,022
-375,088	-86,048	0,092	0,021
-374,073	-133,319	-0,037	-0,003
-373,058	-50,909	0,072	-0,025
-372,044	-100,536	0,025	-0,005
-371,029	-200,000	-0,011	0,040
-370,015	-40,987	-0,048	-0,018
-369,000	800,000	-0,002	-0,005
-367,985	800,000	0,042	-0,113
-366,971	-32,425	-0,121	-0,049
-365,956	165,540	0,078	-0,080
-364,942	-117,423	0,062	0,008
-363,927	-156,353	0,077	0,003
-362,912	-75,767	0,077	0,020
-361,898	-0,134	-0,032	-0,016
-360,883	-145,628	0,046	-0,003
-359,869	-200,000	-0,014	-0,080
-358,854	0,221	0,053	-0,027
-357,839	800,000	0,023	0,048
-356,825	101,064	0,058	0,049
-355,810	800,000	-0,033	-0,072
-354,796	-56,086	-0,080	-0,026
-353,781	-200,000	0,013	-0,176
-352,766	-158,907	-0,099	-0,004
-351,752	-116,209	0,105	-0,014
-350,737	-200,000	0,029	0,094
-349,723	-200,000	0,008	0,103
-348,708	-138,825	0,101	0,008
-347,693	-200,000	0,008	0,042
-346,679	-15,233	-0,064	-0,030
-345,664	796,873	0,045	0,091
-344,650	-102,159	-0,089	0,015
-343,635	-89,539	0,038	0,008
-342,620	-44,990	-0,090	0,032
-341,606	404,212	0,007	0,010
-340,591	-200,000	-0,010	-0,079
-339,577	144,376	0,045	0,044
-338,562	140,354	0,024	-0,023
-337,548	88,321	0,035	0,028
-336,533	-200,000	0,007	-0,021
-335,518	-111,969	0,207	-0,030
-334,504	121,050	0,006	-0,005
-333,489	51,485	0,059	-0,040
-332,475	-148,834	-0,079	-0,005
-331,460	-25,975	0,042	0,018
-330,445	42,030	0,066	-0,043
-329,431	-200,000	-0,025	-0,086
-328,416	-9,811	0,103	-0,049
-327,402	52,748	-0,024	-0,017
-326,387	800,000	0,043	-0,106
-325,372	454,903	-0,011	0,018
-324,358	47,950	-0,079	-0,053
-323,343	-200,000	-0,028	-0,150
-322,329	-100,309	-0,111	-0,020
-321,314	800,000	-0,025	0,077
-320,299	147,697	-0,027	0,026
-319,285	800,000	0,023	-0,058
-318,270	80,301	0,056	-0,043
-317,256	-200,000	-0,032	-0,124
-316,241	202,247	0,062	-0,069
-315,226	236,603	-0,040	-0,048
-314,212	800,000	0,017	0,046
-313,197	-200,000	0,013	0,152
-312,183	-200,000	-0,017	-0,158
-311,168	92,131	-0,080	-0,065
-310,153	-8,081	-0,162	0,079
-309,139	-41,292	0,106	0,040
-308,124	208,327	0,114	-0,130
-307,110	800,000	0,060	-0,121
-306,095	-30,332	0,166	-0,068
-305,080	375,159	-0,081	0,120
-304,066	-76,331	0,037	-0,009
-303,051	800,000	0,039	-0,100
-302,037	-29,469	0,150	0,062
-301,022	-86,675	0,043	-0,009
-300,008	-26,771	0,160	-0,068
-298,993	222,117	-0,049	0,057
-297,978	-200,000	-0,007	-0,119
-296,964	-200,000	0,011	-0,086
-295,949	754,420	-0,021	-0,041
-294,935	666,943	-0,051	-0,095
-293,920	53,611	-0,051	0,035
-292,905	-85,262	0,096	0,021
-291,891	-164,504	0,088	-0,003
-290,876	314,069	0,053	0,073
-289,862	-38,989	-0,058	-0,022
-288,847	-89,257	0,030	0,006
-287,832	0,448	-0,063	-0,033
-286,818	0,306	0,061	-0,031
-285,803	-71,881	0,077	-0,021
-284,789	-106,771	-0,017	-0,003
-283,774	162,613	-0,007	-0,007
-282,759	-90,434	0,038	0,008
-281,745	267,384	-0,051	-0,065
-280,730	800,000	0,057	0,167
-279,716	-5,476	0,122	-0,061
-278,701	166,401	0,045	-0,046
-277,686	800,000	-0,038	0,093
-276,672	-200,000	0,004	-0,108
-275,657	-200,000	0,021	-0,068
-274,643	-110,012	-0,058	0,009
-273,628	381,521	0,043	-0,064
-272,613	-75,559	-0,045	0,011
-271,599	-128,945	0,101	0,010
-270,584	19,601	-0,107	0,062
-269,570	-200,000	-0,002	-0,133
-268,555	-5,171	0,039	0,019
-267,540	-200,000	-0,002	-0,053
-266,526	-80,682	-0,140	-0,033
-265,511	-200,000	0,009	0,227
-264,497	86,570	0,115	0,091
-263,482	486,130	0,076	0,125
-262,467	-200,000	-0,001	-0,006
-261,453	588,297	0,107	0,191
-260,438	127,930	-0,067	-0,062
-259,424	232,208	-0,065	0,077
-258,409	-200,000	-0,021	-0,073
-257,395	800,000	-0,012	-0,030
-256,380	1,225	0,073	0,038
-255,365	-200,000	0,026	0,200
-254,351	-200,000	-0,011	0,079
-253,336	-66,098	-0,049	-0,014
-252,322	-74,293	-0,075	0,019
-251,307	-41,082	-0,029	-0,011
-250,292	45,118	0,169	-0,113
-249,278	-200,000	0,051	0,260
-248,263	250,111	0,024	0,029
-247,249	300,287	-0,088	0,118
-246,234	-30,553	-0,131	-0,053
-245,219	-150,235	0,067	-0,004
-244,205	-59,766	0,080	0,025
-243,190	800,000	0,026	0,076
-242,176	-200,000	-0,007	0,126
-241,161	800,000	0,037	0,077
-240,146	-103,917	0,096	0,016
-239,132	563,984	0,057	-0,100
-238,117	-200,000	-0,032	-0,109
-237,103	800,000	0,048	0,104
-236,088	-200,000	-0,029	0,095
-235,073	226,653	-0,095	-0,112
-234,059	548,209	0,051	-0,089
-233,044	207,126	0,009	0,010
-232,030	-80,018	0,072	-0,017
-231,015	-75,891	-0,088	-0,022
-230,000	88,003	-0,059	0,047
-228,986	-11,387	0,003	0,001
-227,971	-200,000	0,008	0,039
-226,957	60,520	0,116	0,083
-225,942	-169,877	-0,059	-0,002
-224,927	-117,361	0,044	-0,006
-223,913	32,768	-0,066	-0,041
-222,898	-135,155	-0,232	-0,020
-221,884	52,295	-0,092	-0,063
-220,869	800,000	-0,016	0,050
-219,855	73,228	-0,029	-0,022
-218,840	407,631	-0,028	0,043
-217,825	-82,077	0,054	-0,013
-216,811	24,767	-0,070	-0,042
-215,796	800,000	0,045	-0,141
-214,782	800,000	-0,058	-0,149
-213,767	705,760	0,049	-0,094
-212,752	279,041	-0,037	0,048
-211,738	-13,173	0,079	0,037
-210,723	-103,533	0,075	0,013
-209,709	800,000	-0,041	-0,097
-208,694	-170,261	-0,059	0,001
-207,679	-127,570	-0,078	0,008
-206,665	-200,000	-0,000	0,042
-205,650	11,601	0,021	-0,011
-204,636	-200,000	-0,013	0,109
-203,621	-200,000	-0,037	-0,177
-202,606	555,994	0,110	-0,192
-201,592	-148,124	-0,053	-0,003
-200,577	-200,000	-0,037	0,158
-199,563	-33,532	-0,139	0,055
-198,548	-96,695	0,117	0,022
-197,533	136,450	0,093	-0,087
-196,519	268,088	-0,122	0,155
-195,504	-200,000	-0,018	0,072
-194,490	800,000	0,038	-0,081
-193,475	-111,385	-0,074	-0,011
-192,460	-189,828	0,037	0,000
-191,446	-160,735	0,152	0,006
-190,431	-159,350	0,074	-0,003
-189,417	573,606	-0,066	-0,117
-188,402	-22,366	-0,102	-0,044
-187,387	-65,624	-0,182	0,052
-186,373	195,932	-0,129	-0,142
-185,358	451,708	0,050	0,080
-184,344	-19,723	0,091	-0,040
-183,329	-194,282	-0,019	0,000
-182,315	-25,974	-0,089	-0,038
-181,300	800,000	0,044	-0,124
-180,285	389,573	-0,129	0,194
-179,271	-66,685	-0,070	-0,020
-178,256	-200,000	-0,019	-0,080
-177,242	-200,000	-0,037	0,120
-176,227	-200,000	0,050	0,175
-175,212	-108,135	-0,045	-0,007
-174,198	-200,000	-0,008	0,032
-173,183	-26,113	-0,014	0,006
-172,169	338,647	0,016	0,023
-171,154	-122,891	-0,140	0,016
-170,139	800,000	0,012	0,034
-169,125	264,396	-0,033	0,042
-168,110	403,872	-0,014	-0,021
-167,096	257,892	0,011	0,013
-166,081	-8,161	-0,039	-0,019
-165,066	800,000	0,035	-0,087
-164,052	-200,000	-0,039	-0,178
-163,037	-72,196	-0,107	0,029
-162,023	83,127	-0,042	0,033
-161,008	-200,000	-0,012	-0,043
-159,993	-86,964	0,077	0,017
-158,979	-200,000	-0,004	0,042
-157,964	-200,000	-0,002	0,105
-156,950	71,570	0,087	-0,065
-155,935	53,741	-0,044	0,031
-154,920	-168,662	0,129	0,003
-153,906	340,228	0,075	-0,105
-152,891	401,576	-0,037	0,056
-151,877	-200,000	0,010	0,060
-150,862	800,000	-0,050	0,130
-149,847	53,684	0,074	0,051
-148,833	-73,739	0,112	0,029
-147,818	-179,730	0,137	-0,002
-146,804	-200,000	-0,027	-0,096
-145,789	-64,592	-0,062	-0,018
-144,775	17,226	-0,012	-0,007
-143,760	800,000	0,035	-0,087
-142,745	-200,000	0,016	-0,107
-141,731	-130,935	0,014	0,001
-140,716	-124,797	0,098	-0,011
-139,702	800,000	0,022	-0,052
-138,687	-48,713	-0,038	-0,013
-137,672	38,866	-0,046	-0,029
-136,658	4,801	-0,088	0,047
-135,643	210,363	-0,061	-0,069
-134,629	440,495	-0,036	-0,057
-133,614	-64,682	-0,139	0,040
-132,599	800,000	-0,005	-0,014
-131,585	-58,923	0,138	0,043
-130,570	-38,529	-0,108	-0,041
-129,556	-65,186	-0,111	0,032
-128,541	-152,101	-0,113	-0,006
-127,526	82,181	0,002	0,002
-126,512	-200,000	0,006	0,153
-125,497	484,180	0,056	0,092
-124,483	92,355	-0,059	0,048
-123,468	-116,958	0,069	-0,009
-122,453	-141,762	0,076	-0,005
-121,439	-38,539	-0,108	-0,041
-120,424	-78,159	-0,163	-0,040
-119,410	91,647	-0,053	0,043
-118,395	-71,658	0,031	-0,008
-117,380	27,625	0,077	-0,046
-116,366	291,598	0,073	-0,095
-115,351	-200,000	-0,009	-0,077
-114,337	182,408	0,055	0,058
-113,322	-200,000	-0,011	-0,061
-112,307	174,138	-0,027	0,028
-111,293	-124,848	0,081	-0,009
-110,278	29,117	-0,041	-0,025
-109,264	-121,642	-0,047	0,006
-108,249	800,000	0,019	0,050
-107,234	86,082	0,092	-0,073
-106,220	3,777	0,118	0,062
-105,205	240,379	0,060	0,072
-104,191	-53,366	0,086	0,028
-103,176	-76,877	0,047	0,012
-102,162	-76,173	0,032	0,008
-101,147	91,427	-0,068	0,055
-100,132	-200,000	0,021	0,102
-99,118	800,000	-0,030	-0,071
-98,103	800,000	0,006	-0,016
-97,089	-66,103	0,179	0,051
-96,074	-200,000	-0,002	0,039
-95,059	86,648	0,029	-0,023
-94,045	-26,276	0,090	-0,038
-93,030	133,323	0,094	-0,087
-92,016	800,000	-0,046	-0,127
-91,001	-164,363	-0,101	-0,003
-89,986	185,651	0,097	0,104
-88,972	800,000	0,019	-0,059
-87,957	11,033	0,068	-0,037
-86,943	-127,178	-0,051	0,005
-85,928	-114,585	-0,069	0,009
-84,913	-75,012	-0,129	0,033
-83,899	800,000	-0,021	0,048
-82,884	-67,706	0,090	0,025
-81,870	-200,000	0,005	0,105
-80,855	-200,000	-0,001	-0,097
-79,840	463,156	-0,030	0,049
-78,826	110,837	0,098	-0,085
-77,811	-200,000	-0,004	-0,097
-76,797	-65,238	0,089	0,026
-75,782	622,652	-0,006	0,012
-74,767	-42,430	0,042	0,015
-73,753	186,653	-0,069	-0,074
-72,738	-91,081	0,089	0,018
-71,724	-200,000	-0,001	-0,007
-70,709	140,709	-0,072	-0,068
-69,694	800,000	0,083	0,167
-68,680	200,963	0,042	0,046
-67,665	-200,000	-0,038	0,176
-66,651	214,458	0,076	0,086
-65,636	-68,179	-0,213	-0,059
-64,622	86,737	-0,077	0,061
-63,607	20,662	-0,133	-0,077
-62,592	800,000	-0,031	0,091
-61,578	-200,000	0,008	-0,155
-60,563	-94,447	0,072	0,014
-59,549	-200,000	-0,014	0,130
-58,534	16,437	-2,078	-1,175
-57,519	-200,000	-0,103	-0,834
-56,505	-200,000	-1,343	-4,878
-55,490	144,191	0,942	0,902
-54,476	800,000	5,155	11,613
-53,461	-200,000	17,905	290,871
-52,446	800,000	727,579	2229,516
-51,432	534,886	1640,420	2801,484
-50,417	109,355	1629,304	1399,390
-49,403	72,873	1283,481	960,619
-48,388	31,389	1026,224	631,017
-47,373	19,951	988,250	569,989
-46,359	18,219	976,183	557,338
-45,344	15,539	972,318	546,350
-44,330	15,669	970,955	545,986
-43,315	15,274	969,031	543,593
-42,300	15,151	968,093	542,647
-41,286	15,175	966,913	542,043
-40,271	15,185	965,928	541,501
-39,257	15,234	965,045	541,143
-38,242	15,209	964,351	540,650
-37,227	15,207	963,319	540,043
-36,213	15,178	962,611	539,531
-35,198	15,162	961,849	539,031
-34,184	15,239	960,963	538,764
-33,169	15,178	960,021	538,018
-32,154	15,170	959,164	537,490
-31,140	15,178	958,146	536,922
-30,125	15,180	957,592	536,598
-29,111	15,209	956,638	536,136
-28,096	15,192	956,144	535,782
-27,082	15,265	955,375	535,564
-26,067	15,205	954,590	534,909
-25,052	15,242	953,862	534,601
-24,038	15,178	953,028	533,906
-23,023	15,214	952,552	533,734
-22,009	15,183	951,958	533,282
-20,994	15,180	951,240	532,849
-19,979	15,205	950,726	532,619
-18,965	15,200	949,966	532,157
-17,950	15,180	949,275	531,683
-16,936	15,160	948,746	531,302
-15,921	15,127	948,005	530,763
-14,906	15,079	947,450	530,277
-13,892	15,102	946,746	529,936
-12,877	15,082	946,179	529,532
-11,863	15,063	945,577	529,114
-10,848	15,117	945,013	528,949
-9,833	15,166	944,530	528,814
-8,819	15,174	943,855	528,440
-7,804	15,087	943,258	527,810
-6,790	15,088	942,477	527,355
-5,775	15,145	941,930	527,207
-4,760	15,108	941,449	526,801
-3,746	15,078	940,871	526,362
-2,731	14,985	940,077	525,602
-1,717	14,910	939,477	525,008
-0,702	14,975	938,562	524,683
0,313	14,734	938,027	524,416
1,327	18,151	936,195	534,097
2,342	27,349	789,830	474,821
3,356	23,963	445,058	262,514
4,371	-5,543	296,167	145,137
5,386	-9,523	278,005	132,442
6,400	-10,844	272,189	128,429
7,415	-11,005	269,986	127,229
8,429	-11,026	268,377	126,441
9,444	-11,023	267,533	126,035
10,459	-10,983	266,891	125,757
11,473	-11,269	266,376	125,243
12,488	-11,240	265,817	124,995
13,502	-11,245	265,190	124,685
14,517	-11,251	264,853	124,510
15,531	-11,262	264,376	124,264
16,546	-11,172	264,066	124,190
17,561	-11,292	263,780	123,935
18,575	-11,021	263,260	123,924
19,590	-11,294	263,074	123,580
20,604	-11,096	262,699	123,570
21,619	-11,273	262,543	123,327
22,634	-11,259	262,131	123,135
23,648	-11,282	261,738	122,919
24,663	-11,301	261,404	122,735
25,677	-11,211	261,255	122,733
26,692	-11,418	261,033	122,433
27,707	-11,387	260,706	122,297
28,721	-11,246	260,336	122,238
29,736	-11,463	260,214	121,977
30,750	-11,398	259,859	121,858
31,765	-11,271	259,609	121,842
32,780	-11,520	259,470	121,545
33,794	-11,405	259,168	121,495
34,809	-11,345	258,994	121,455
35,823	-11,318	258,580	121,275
36,838	-11,579	258,507	120,999
37,853	-11,491	258,195	120,920
38,867	-11,360	257,737	120,809
39,882	-11,498	257,755	120,685
40,896	-11,503	257,522	120,561
41,911	-11,334	257,219	120,557
42,926	-11,516	257,126	120,344
43,940	-11,355	256,637	120,245
44,955	-11,712	256,543	119,878
45,969	-11,757	256,361	119,742
46,984	-11,909	256,009	119,434
47,999	-11,950	255,836	119,307
49,013	-12,161	255,519	118,965
50,028	-12,227	255,128	118,714
51,042	-12,325	254,967	118,544
52,057	-12,482	254,932	118,380
53,071	-12,318	254,602	118,359
54,086	-12,008	254,403	118,525
55,101	-12,068	254,352	118,439
56,115	-11,708	254,044	118,596
57,130	-11,468	254,081	118,811
58,144	-11,130	253,794	118,959
59,159	-11,150	253,754	118,912
60,174	-11,130	253,306	118,709
61,188	-11,361	253,187	118,443
62,203	-11,249	252,932	118,410
63,217	-11,414	252,894	118,239
64,232	-11,476	252,759	118,112
65,247	-11,191	252,436	118,196
66,261	-11,383	252,172	117,897
67,276	-11,518	251,838	117,614
68,290	-12,028	251,600	117,056
69,305	-11,946	251,522	117,080
70,320	-11,874	251,293	117,024
71,334	-11,656	251,012	117,069
72,349	-11,424	250,988	117,245
73,363	-11,114	250,748	117,387
74,378	-11,168	250,527	117,227
75,393	-11,440	250,335	116,895
76,407	-11,333	250,129	116,879
77,422	-11,213	249,770	116,804
78,436	-11,327	249,812	116,716
79,451	-11,485	249,461	116,408
80,466	-11,448	249,258	116,334
81,480	-11,652	249,097	116,075
82,495	-11,778	248,705	115,775
83,509	-11,729	248,688	115,799
84,524	-11,775	248,357	115,596
85,539	-11,883	248,171	115,408
86,553	-11,701	247,961	115,454
87,568	-11,649	247,732	115,381
88,582	-11,706	247,605	115,263
89,597	-11,630	247,332	115,190
90,611	-11,568	247,333	115,231
91,626	-11,361	247,243	115,353
92,641	-11,419	246,798	115,087
93,655	-11,622	246,785	114,901
94,670	-11,467	246,507	114,890
95,684	-11,516	246,256	114,722
96,699	-11,481	246,055	114,648
97,714	-11,667	246,009	114,461
98,728	-11,677	245,756	114,324
99,743	-11,778	245,506	114,114
100,757	-11,837	245,360	113,986
101,772	-11,643	245,014	113,977
102,787	-11,527	244,834	113,979
103,801	-11,580	244,729	113,876
104,816	-11,602	244,590	113,783
105,830	-11,383	244,480	113,903
106,845	-11,257	244,335	113,931
107,860	-11,297	244,113	113,784
108,874	-11,672	243,797	113,316
109,889	-11,702	243,714	113,242
110,903	-11,617	243,452	113,180
111,918	-11,631	243,247	113,063
112,933	-11,638	243,068	112,964
113,947	-11,490	243,071	113,078
114,962	-11,510	242,846	112,947
115,976	-11,471	242,653	112,879
116,991	-11,548	242,580	112,771
118,006	-11,322	242,179	112,761
119,020	-11,160	242,065	112,831
120,035	-11,361	242,004	112,627
121,049	-11,333	241,787	112,539
122,064	-11,294	241,565	112,458
123,079	-11,403	241,502	112,329
124,093	-11,603	241,081	111,960
125,108	-11,846	240,963	111,696
126,122	-11,954	240,775	111,511
127,137	-12,012	240,579	111,363
128,151	-11,864	240,412	111,396
129,166	-11,704	240,167	111,403
130,181	-11,801	239,950	111,214
131,195	-11,969	239,866	111,029
132,210	-11,774	239,657	111,081
133,224	-11,524	239,656	111,273
134,239	-11,393	239,395	111,248
135,254	-11,401	239,262	111,170
136,268	-11,772	239,092	110,780
137,283	-11,968	238,795	110,474
138,297	-12,115	238,608	110,260
139,312	-11,994	238,383	110,243
140,327	-11,579	238,398	110,576
141,341	-11,126	238,205	110,841
142,356	-11,062	238,034	110,803
143,370	-11,240	238,035	110,650
144,385	-10,724	237,713	110,906
145,400	-10,929	237,591	110,674
146,414	-11,147	237,476	110,435
147,429	-11,238	237,284	110,264
148,443	-10,991	237,006	110,322
149,458	-11,213	236,919	110,094
150,473	-11,256	236,716	109,955
151,487	-11,113	236,512	109,965
152,502	-11,094	236,519	109,974
153,516	-11,033	236,275	109,900
154,531	-11,244	236,117	109,648
155,546	-10,920	235,937	109,813
156,560	-11,271	235,685	109,406
157,575	-11,309	235,382	109,226
158,589	-11,304	235,252	109,159
159,604	-11,130	235,273	109,297
160,619	-10,878	234,983	109,353
161,633	-10,952	234,794	109,196
162,648	-11,034	234,748	109,101
163,662	-11,124	234,661	108,979
164,677	-11,189	234,402	108,798
165,692	-11,097	234,173	108,754
166,706	-10,974	234,165	108,838
167,721	-11,029	233,874	108,651
168,735	-10,940	233,776	108,665
169,750	-11,083	233,773	108,542
170,764	-10,953	233,463	108,490
171,779	-10,989	233,303	108,378
172,794	-10,851	233,251	108,452
173,808	-11,274	232,951	107,971
174,823	-11,613	232,611	107,537
175,837	-11,609	232,423	107,444
176,852	-11,100	232,299	107,776
177,867	-11,148	232,347	107,751
178,881	-11,153	232,278	107,705
179,896	-11,040	232,133	107,717
180,910	-10,942	231,953	107,700
181,925	-11,000	231,694	107,525
182,940	-10,910	231,577	107,532
183,954	-11,189	231,537	107,286
184,969	-10,863	231,322	107,431
185,983	-10,892	231,208	107,346
186,998	-10,746	230,961	107,335
188,013	-10,833	230,840	107,202
189,027	-10,894	230,825	107,137
190,042	-10,869	230,511	107,002
191,056	-10,832	230,214	106,883
192,071	-10,720	230,159	106,934
193,086	-10,893	230,003	106,718
194,100	-11,020	230,080	106,647
195,115	-11,020	229,519	106,377
196,129	-10,914	229,538	106,458
197,144	-5,508	231,368	111,503
198,159	0,002	233,060	116,615
199,173	3,005	233,916	119,382
200,188	3,321	233,810	119,564
201,202	3,009	233,821	119,316
202,217	3,634	233,401	119,577
203,232	3,610	233,427	119,561
204,246	3,832	233,384	119,701
205,261	3,573	233,218	119,404
206,275	3,972	233,052	119,619
207,290	4,102	232,964	119,664
208,304	3,922	232,765	119,411
209,319	3,852	232,483	119,202
210,334	3,761	232,222	118,987
211,348	3,816	232,056	118,934
212,363	3,334	231,906	118,473
213,377	2,878	231,636	117,972
214,392	3,102	231,457	118,044
215,407	3,202	231,495	118,129
216,421	3,282	231,342	118,103
217,436	3,174	230,966	117,817
218,450	3,144	230,735	117,665
219,465	2,902	230,606	117,403
220,480	2,947	230,611	117,430
221,494	2,647	230,453	117,108
222,509	3,249	230,324	117,495
223,523	3,325	230,173	117,465
224,538	3,080	230,065	117,213
225,553	3,101	229,857	117,112
226,567	3,096	229,779	117,058
227,582	3,420	229,726	117,269
228,596	3,331	229,611	117,132
229,611	3,096	229,433	116,850
230,626	2,987	229,157	116,616
231,640	3,010	228,943	116,514
232,655	3,153	228,888	116,585
233,669	3,721	228,771	116,948
234,684	3,683	228,733	116,889
235,699	3,418	228,542	116,580
236,713	3,208	228,315	116,294
237,728	3,182	227,956	116,080
238,742	2,868	227,980	115,844
239,757	3,028	227,815	115,872
240,772	3,076	227,720	115,849
241,786	2,895	227,486	115,582
242,801	3,207	227,463	115,797
243,815	3,643	227,327	116,046
244,830	3,535	227,122	115,850
245,844	3,356	226,872	115,577
246,859	3,349	226,759	115,504
247,874	3,159	226,634	115,287
248,888	3,320	226,548	115,354
249,903	3,293	226,409	115,253
250,917	3,169	226,254	115,070
251,932	3,088	226,067	114,904
252,947	3,015	225,809	114,708
253,961	3,023	225,599	114,597
254,976	3,003	225,546	114,546
255,990	3,457	225,467	114,835
257,005	3,452	225,390	114,782
258,020	3,349	225,339	114,668
259,034	3,283	225,219	114,548
260,049	3,438	224,982	114,533
261,063	3,217	224,898	114,315
262,078	3,468	224,696	114,389
263,093	3,471	224,611	114,338
264,107	3,468	224,302	114,168
265,122	3,283	224,271	114,005
266,136	3,670	224,197	114,245
267,151	3,404	224,059	113,967
268,166	3,274	223,729	113,691
269,180	2,822	223,484	113,222
270,195	2,946	223,438	113,280
271,209	3,141	223,141	113,264
272,224	3,081	223,175	113,227
273,239	3,234	222,897	113,189
274,253	3,074	222,822	113,022
275,268	3,076	222,613	112,908
276,282	3,032	222,463	112,789
277,297	2,875	222,461	112,662
278,312	2,986	222,272	112,638
279,326	3,375	222,051	112,803
280,341	3,127	221,956	112,562
281,355	3,132	221,962	112,558
282,370	3,130	221,659	112,393
283,384	2,987	221,436	112,165
284,399	2,824	221,291	111,962
285,414	2,748	221,242	111,872
286,428	3,355	221,178	112,274
287,443	3,351	221,124	112,234
288,457	3,229	220,888	112,015
289,472	3,055	220,791	111,828
290,487	2,684	220,399	111,349
291,501	2,795	220,194	111,317
292,516	2,866	220,201	111,362
293,530	2,762	220,115	111,233
294,545	2,763	220,002	111,166
295,560	3,266	219,782	111,412
296,574	3,060	219,691	111,206
297,589	3,009	219,670	111,148
298,603	3,231	219,547	111,237
299,618	3,076	219,390	111,035
300,633	3,323	219,200	111,108
301,647	3,266	219,107	111,010
302,662	3,258	218,967	110,924
303,676	3,240	218,879	110,856
304,691	3,269	218,704	110,778
305,706	3,443	218,509	110,795
306,720	3,206	218,402	110,560
307,735	2,959	218,294	110,317
308,749	2,913	218,082	110,167
309,764	3,195	218,049	110,344
310,779	3,495	217,893	110,471
311,793	3,365	217,702	110,270
312,808	3,295	217,566	110,142
313,822	3,372	217,346	110,075
314,837	3,189	217,173	109,847
315,852	3,115	216,995	109,694
316,866	3,141	216,874	109,642
317,881	3,058	216,993	109,632
318,895	3,293	216,746	109,666
319,910	3,255	216,526	109,518
320,925	2,950	216,236	109,144
321,939	2,570	216,252	108,870
322,954	3,060	216,049	109,108
323,968	3,407	216,027	109,336
324,983	3,372	215,874	109,223
325,997	3,502	215,829	109,283
327,012	2,888	215,802	108,822
328,027	3,122	215,527	108,840
329,041	3,378	215,559	109,029
330,056	3,124	215,282	108,699
331,070	2,635	214,993	108,196
332,085	2,553	214,813	108,037
333,100	3,009	214,751	108,320
334,114	3,354	214,638	108,498
335,129	3,172	214,525	108,302
336,143	3,295	214,334	108,283
337,158	3,165	214,261	108,145
338,173	3,291	214,143	108,165
339,187	2,979	213,912	107,818
340,202	3,050	213,665	107,734
341,216	2,933	213,614	107,616
342,231	3,006	213,456	107,578
343,246	2,993	213,282	107,472
344,260	2,850	213,275	107,358
345,275	3,106	213,220	107,501
346,289	3,344	213,030	107,563
347,304	3,447	212,894	107,556
348,319	2,951	212,812	107,158
349,333	3,126	212,575	107,152
350,348	3,187	212,618	107,206
351,362	3,342	212,462	107,227
352,377	3,276	212,285	107,081
353,392	3,188	212,162	106,948
354,406	3,285	212,032	106,941
355,421	194,841	1342,679	1418,030
356,435	155,615	1480,409	1417,997
