DTS Sentinel unit serial number:	SN410029Multiplexer serial number:	ORYXHardware model number:	OX2-SRSoftware version number:	ORYX F/W v4,00 Oryx Data Collector v3.7.2.0data status	okinstallation	B6 Nyhavnadifferential loss correction	single-endedforward channel	channel 2reverse channel	N/Adate	2023/12/10time	13:50:08forward acquisition time	300,00reverse acquisition time	0,00gamma	499,1914k internal	0,3122k external	0,3122temperature offset calibration	1,0000default loss term (dB/km)	0,3820temperature slope calibration	1,0000multiplexer offset coefficient	1,0000multiplexer slope coefficient	1,0000fibre end	0,00T internal ref (°C)	22,74T ext. ref 1 (°C)	6,26T ext. ref 2 (°C)	6,27length (m)	temperature (°C)	Stokes	anti-Stokes-744,400	347,386	0,027	-0,040
-743,385	-92,512	-0,327	0,068
-742,371	93,054	0,029	0,025
-741,356	-50,144	-0,198	0,069
-740,342	-200,000	-0,002	-0,075
-739,327	-69,020	-0,253	0,072
-738,312	-27,013	0,070	0,030
-737,298	-24,826	-0,208	0,092
-736,283	-200,000	0,013	-0,127
-735,269	-29,141	-0,282	0,120
-734,254	311,928	-0,062	-0,087
-733,239	6,113	-0,339	-0,187
-732,225	119,891	0,077	0,071
-731,210	48,583	-0,077	0,054
-730,196	362,080	0,098	-0,147
-729,181	-200,000	-0,022	-0,123
-728,167	800,000	0,040	-0,118
-727,152	90,735	-0,069	-0,057
-726,137	45,573	0,110	-0,076
-725,123	4,442	-0,044	-0,024
-724,108	53,450	-0,125	0,089
-723,094	800,000	-0,039	0,122
-722,079	800,000	0,045	0,096
-721,064	800,000	0,028	0,084
-720,050	-121,497	0,074	0,009
-719,035	93,641	-0,037	-0,031
-718,021	-89,807	0,071	-0,015
-717,006	27,584	-0,097	-0,061
-715,991	800,000	-0,054	-0,161
-714,977	-73,169	-0,083	-0,022
-713,962	19,761	-0,066	0,040
-712,948	-48,743	-0,117	-0,041
-711,933	-200,000	0,004	0,099
-710,918	641,561	0,046	0,087
-709,904	-92,272	-0,028	0,006
-708,889	41,403	-0,102	0,069
-707,875	-200,000	-0,009	0,031
-706,860	96,451	0,123	0,105
-705,845	-35,202	0,098	-0,040
-704,831	51,047	0,068	0,048
-703,816	453,484	0,050	0,083
-702,802	-200,000	0,009	-0,041
-701,787	-2,882	-0,070	0,036
-700,772	800,000	0,020	-0,058
-699,758	-31,844	-0,059	-0,024
-698,743	28,997	0,078	-0,049
-697,729	104,118	0,110	-0,096
-696,714	-27,737	-0,056	-0,024
-695,699	-200,000	-0,001	-0,015
-694,685	61,948	-0,029	-0,021
-693,670	22,969	-0,043	0,026
-692,656	121,992	0,058	-0,054
-691,641	-51,159	0,155	0,054
-690,627	-150,303	-0,103	0,006
-689,612	-176,241	-0,131	-0,002
-688,597	800,000	-0,040	-0,109
-687,583	-200,000	-0,003	-0,087
-686,568	-51,919	-0,034	-0,012
-685,554	-200,000	0,003	0,018
-684,539	99,785	0,066	0,057
-683,524	512,138	-0,063	0,109
-682,510	-98,282	0,165	0,031
-681,495	-162,276	-0,143	-0,005
-680,481	358,598	-0,076	0,113
-679,466	-134,098	-0,039	-0,004
-678,451	42,390	0,200	0,135
-677,437	341,611	0,055	0,080
-676,422	-200,000	-0,009	0,105
-675,408	24,308	-0,059	0,036
-674,393	-200,000	0,027	-0,118
-673,378	800,000	-0,042	-0,104
-672,364	194,863	-0,049	-0,055
-671,349	291,551	-0,026	0,035
-670,335	800,000	-0,041	-0,089
-669,320	-66,211	0,088	0,026
-668,305	800,000	0,027	0,065
-667,291	418,206	0,036	-0,058
-666,276	-200,000	0,026	-0,106
-665,262	-168,302	-0,158	-0,004
-664,247	93,518	0,056	-0,047
-663,232	139,173	-0,040	0,039
-662,218	29,108	-0,097	-0,061
-661,203	-87,923	-0,017	0,004
-660,189	35,026	-0,095	0,062
-659,174	-65,544	-0,095	-0,028
-658,159	157,041	-0,036	0,037
-657,145	744,216	-0,037	-0,075
-656,130	74,422	0,013	-0,010
-655,116	9,603	0,048	0,027
-654,101	-5,056	-0,112	0,057
-653,086	485,267	-0,051	0,087
-652,072	800,000	0,027	0,078
-651,057	-45,570	-0,119	0,044
-650,043	301,166	0,043	0,059
-649,028	-200,000	0,031	-0,149
-648,014	-22,360	0,031	0,014
-646,999	-111,975	0,095	-0,014
-645,984	-200,000	-0,009	0,105
-644,970	800,000	0,054	0,156
-643,955	-171,739	-0,114	-0,003
-642,941	352,672	-0,108	-0,159
-641,926	-136,341	0,177	-0,015
-640,911	-200,000	0,013	0,053
-639,897	800,000	0,030	-0,065
-638,882	91,437	0,060	0,050
-637,868	-200,000	0,004	0,036
-636,853	698,323	0,055	-0,108
-635,838	159,331	-0,091	0,094
-634,824	61,580	-0,068	-0,050
-633,809	-92,710	0,138	-0,029
-632,795	-200,000	0,013	0,101
-631,780	-59,419	0,029	-0,009
-630,765	-200,000	0,019	0,068
-629,751	-200,000	-0,025	0,167
-628,736	800,000	-0,037	-0,084
-627,722	70,563	-0,025	0,019
-626,707	138,940	0,059	0,057
-625,692	-146,780	-0,081	-0,005
-624,678	97,385	0,063	0,053
-623,663	77,429	0,042	-0,033
-622,649	800,000	-0,056	-0,131
-621,634	470,823	0,017	-0,028
-620,619	-200,000	0,034	-0,117
-619,605	-16,440	0,026	0,012
-618,590	297,738	-0,097	0,133
-617,576	643,815	0,011	0,021
-616,561	800,000	-0,004	-0,009
-615,546	-200,000	-0,001	0,005
-614,532	328,080	-0,048	0,069
-613,517	-82,024	0,031	0,008
-612,503	-129,151	-0,109	-0,011
-611,488	525,307	-0,009	0,016
-610,474	505,224	-0,040	0,069
-609,459	323,155	-0,026	-0,037
-608,444	-59,019	-0,059	-0,019
-607,430	-200,000	-0,007	-0,069
-606,415	800,000	-0,038	-0,102
-605,401	-200,000	-0,011	-0,124
-604,386	433,493	-0,057	-0,092
-603,371	166,019	0,035	0,037
-602,357	-189,663	-0,014	-0,000
-601,342	800,000	-0,022	0,065
-600,328	-115,219	0,160	-0,022
-599,313	217,856	-0,039	-0,046
-598,298	-200,000	-0,029	-0,139
-597,284	103,723	0,032	0,028
-596,269	6,413	0,114	-0,063
-595,255	-188,581	-0,135	-0,001
-594,240	800,000	0,095	-0,220
-593,225	-200,000	-0,027	-0,098
-592,211	-56,575	-0,147	-0,048
-591,196	-84,037	-0,127	-0,030
-590,182	-200,000	-0,019	-0,067
-589,167	38,161	0,002	0,001
-588,152	-58,165	0,143	0,046
-587,138	-114,831	-0,017	-0,002
-586,123	508,377	0,035	0,060
-585,109	-200,000	-0,006	-0,142
-584,094	-30,958	-0,134	-0,056
-583,079	-200,000	-0,004	0,170
-582,065	29,485	0,056	-0,035
-581,050	-200,000	-0,022	0,116
-580,036	-48,233	-0,121	-0,043
-579,021	680,942	0,031	-0,061
-578,006	327,965	-0,073	-0,105
-576,992	88,452	-0,108	-0,089
-575,977	-200,000	-0,042	-0,139
-574,963	154,965	-0,100	-0,102
-573,948	-200,000	-0,006	-0,032
-572,934	-71,811	-0,185	0,051
-571,919	-146,566	-0,142	-0,009
-570,904	-68,895	0,103	0,029
-569,890	438,888	0,036	-0,058
-568,875	-200,000	-0,006	0,156
-567,861	-200,000	-0,014	-0,150
-566,846	-200,000	0,001	-0,130
-565,831	-124,018	-0,055	-0,006
-564,817	-89,409	-0,038	-0,008
-563,802	508,199	0,059	-0,102
-562,788	-200,000	-0,002	-0,055
-561,773	-57,605	-0,118	0,038
-560,758	7,811	-0,038	-0,021
-559,744	52,848	0,159	-0,112
-558,729	-200,000	-0,013	0,076
-557,715	-146,710	-0,080	0,005
-556,700	183,724	-0,011	0,012
-555,685	-102,190	0,140	0,025
-554,671	800,000	0,048	0,101
-553,656	233,317	-0,073	0,089
-552,642	-200,000	0,022	-0,087
-551,627	-186,796	0,031	0,000
-550,612	-200,000	0,010	-0,034
-549,598	-65,045	-0,192	-0,057
-548,583	272,295	0,018	-0,024
-547,569	-110,768	0,139	0,021
-546,554	490,457	0,066	0,113
-545,539	21,829	-0,038	0,023
-544,525	800,000	-0,022	-0,066
-543,510	-200,000	-0,007	-0,041
-542,496	-200,000	0,003	0,080
-541,481	-24,998	-0,082	-0,036
-540,466	-63,430	-0,035	-0,010
-539,452	396,669	-0,067	0,103
-538,437	38,157	0,043	-0,028
-537,423	-163,401	-0,068	0,002
-536,408	6,319	-0,063	-0,034
-535,393	-64,282	-0,115	-0,034
-534,379	-200,000	-0,008	-0,079
-533,364	800,000	0,026	0,073
-532,350	-75,370	-0,010	-0,003
-531,335	31,593	0,059	-0,037
-530,321	147,000	-0,074	-0,073
-529,306	389,930	-0,060	0,092
-528,291	800,000	-0,015	-0,034
-527,277	-200,000	-0,024	-0,100
-526,262	690,901	0,021	-0,041
-525,248	-200,000	0,002	0,053
-524,233	-97,443	-0,047	-0,009
-523,218	-200,000	0,064	-0,000
-522,204	174,695	-0,034	0,037
-521,189	409,125	-0,051	0,079
-520,175	42,302	-0,051	0,034
-519,160	7,304	-0,033	-0,018
-518,145	49,969	0,048	0,034
-517,131	8,772	0,071	0,039
-516,116	-200,000	-0,049	0,201
-515,102	-137,080	-0,006	0,001
-514,087	504,044	0,035	-0,059
-513,072	800,000	-0,052	0,138
-512,058	-200,000	-0,032	-0,158
-511,043	-109,439	0,162	-0,025
-510,029	800,000	-0,062	0,199
-509,014	39,428	-0,100	-0,066
-507,999	-133,299	-0,072	-0,007
-506,985	800,000	0,011	-0,036
-505,970	509,221	0,081	-0,139
-504,956	-200,000	0,019	0,085
-503,941	-100,472	-0,051	0,009
-502,926	800,000	0,056	0,116
-501,912	-4,548	-0,069	-0,035
-500,897	195,887	-0,066	0,075
-499,883	461,310	-0,041	0,067
-498,868	499,796	-0,051	0,087
-497,853	626,189	-0,084	-0,157
-496,839	-87,148	0,070	-0,016
-495,824	36,644	0,092	0,060
-494,810	-148,497	-0,036	0,002
-493,795	384,087	-0,026	0,040
-492,781	800,000	-0,037	0,106
-491,766	35,658	0,038	-0,025
-490,751	800,000	0,042	-0,108
-489,737	596,311	-0,069	-0,127
-488,722	-176,190	0,143	-0,003
-487,708	-10,710	0,157	-0,076
-486,693	202,275	-0,033	0,038
-485,678	-55,818	0,033	-0,011
-484,664	800,000	0,092	-0,210
-483,649	-93,567	0,119	-0,024
-482,635	800,000	0,026	-0,062
-481,620	579,059	-0,014	-0,026
-480,605	199,628	0,009	0,010
-479,591	51,316	-0,075	-0,052
-478,576	-40,325	-0,048	0,018
-477,562	296,581	0,035	-0,047
-476,547	-113,794	-0,028	-0,004
-475,532	-200,000	0,010	0,061
-474,518	-200,000	0,004	0,037
-473,503	-200,000	-0,026	-0,107
-472,489	-91,940	-0,159	0,033
-471,474	0,402	0,110	0,058
-470,459	117,870	0,089	-0,080
-469,445	-61,879	0,139	-0,043
-468,430	-118,462	0,073	-0,009
-467,416	-200,000	0,029	0,168
-466,401	369,544	0,051	0,076
-465,386	94,962	0,076	0,064
-464,372	-200,000	-0,029	0,142
-463,357	144,469	-0,032	-0,032
-462,343	-78,148	-0,067	-0,017
-461,328	24,404	-0,048	-0,029
-460,313	-94,076	-0,119	0,024
-459,299	-98,489	0,080	-0,015
-458,284	698,188	-0,035	0,069
-457,270	4,045	0,027	-0,014
-456,255	549,253	-0,046	-0,081
-455,241	-24,158	0,029	0,013
-454,226	304,596	-0,064	-0,088
-453,211	664,979	0,056	-0,107
-452,197	180,191	0,062	0,067
-451,182	155,628	-0,097	0,098
-450,168	-73,318	-0,072	-0,019
-449,153	31,015	-0,089	-0,056
-448,138	86,336	0,075	0,061
-447,124	-137,284	-0,063	0,005
-446,109	83,820	-0,055	0,044
-445,095	800,000	0,059	0,142
-444,080	-79,974	0,016	-0,004
-443,065	8,914	-0,038	0,021
-442,051	800,000	-0,027	-0,079
-441,036	442,282	-0,059	-0,096
-440,022	793,723	-0,063	-0,129
-439,007	121,703	0,196	-0,180
-437,992	-200,000	-0,002	-0,110
-436,978	434,229	0,063	0,101
-435,963	183,201	0,116	0,126
-434,949	547,173	-0,088	-0,156
-433,934	-200,000	0,001	-0,040
-432,919	-179,190	0,140	0,002
-431,905	-200,000	0,008	-0,040
-430,890	-200,000	-0,019	0,073
-429,876	-27,223	0,094	0,040
-428,861	-186,421	-0,093	0,001
-427,846	-200,000	-0,031	0,167
-426,832	314,279	-0,024	0,034
-425,817	-66,262	-0,167	-0,049
-424,803	800,000	-0,035	-0,079
-423,788	-123,527	-0,116	-0,013
-422,773	12,860	0,061	0,035
-421,759	-200,000	0,002	0,009
-420,744	-200,000	-0,012	-0,040
-419,730	-144,025	-0,129	-0,009
-418,715	145,256	0,026	-0,025
-417,701	77,379	0,013	-0,010
-416,686	123,955	-0,088	0,082
-415,671	116,816	0,042	-0,038
-414,657	107,196	0,021	-0,018
-413,642	800,000	0,007	0,015
-412,628	171,316	0,046	0,049
-411,613	161,645	0,049	0,050
-410,598	-62,965	-0,076	0,023
-409,584	-128,757	-0,009	0,001
-408,569	-200,000	0,002	0,051
-407,555	-200,000	0,011	0,051
-406,540	-81,112	0,091	-0,022
-405,525	-155,219	-0,085	0,004
-404,511	236,370	0,052	-0,064
-403,496	-56,737	-0,087	-0,028
-402,482	230,028	0,097	-0,117
-401,467	-21,304	-0,108	0,048
-400,452	250,888	0,034	0,043
-399,438	-139,501	0,070	-0,005
-398,423	-200,000	-0,027	-0,112
-397,409	776,820	0,052	-0,105
-396,394	325,586	-0,068	-0,096
-395,379	-9,099	0,072	-0,035
-394,365	536,680	0,064	0,113
-393,350	184,696	0,058	0,063
-392,336	-43,063	0,092	0,034
-391,321	-200,000	0,044	-0,269
-390,306	-200,000	-0,010	0,120
-389,292	282,761	0,111	-0,147
-388,277	180,698	0,093	0,100
-387,263	-200,000	0,015	0,060
-386,248	504,624	0,020	-0,033
-385,233	-200,000	0,013	0,070
-384,219	174,562	0,066	-0,071
-383,204	-86,783	0,087	-0,019
-382,190	800,000	-0,047	0,139
-381,175	308,813	0,032	0,043
-380,160	587,642	0,064	0,116
-379,146	-79,846	0,181	0,044
-378,131	-115,766	0,067	0,009
-377,117	-72,849	-0,086	0,023
-376,102	-3,144	-0,093	-0,048
-375,088	545,624	0,037	0,065
-374,073	83,864	-0,044	0,035
-373,058	-112,845	-0,076	0,011
-372,044	-200,000	0,004	0,064
-371,029	85,109	0,130	0,105
-370,015	-200,000	-0,006	0,064
-369,000	-36,580	-0,172	0,068
-367,985	30,148	-0,028	0,018
-366,971	-200,000	0,003	0,019
-365,956	-73,986	0,102	-0,027
-364,942	-44,309	0,066	-0,024
-363,927	-49,304	0,082	0,028
-362,912	800,000	-0,075	0,154
-361,898	-131,305	-0,162	-0,016
-360,883	123,155	-0,053	0,049
-359,869	800,000	0,040	0,082
-358,854	-12,597	-0,090	-0,043
-357,839	-166,303	0,068	-0,002
-356,825	21,285	0,059	0,035
-355,810	-200,000	0,016	-0,074
-354,796	-139,550	-0,046	-0,004
-353,781	318,254	0,039	-0,055
-352,766	8,619	-0,083	0,046
-351,752	-137,877	0,059	-0,005
-350,737	-83,398	-0,154	0,036
-349,723	800,000	0,062	-0,199
-348,708	510,445	-0,023	-0,039
-347,693	280,299	-0,017	-0,022
-346,679	800,000	-0,069	-0,158
-345,664	725,725	0,045	-0,088
-344,650	-84,227	0,036	0,008
-343,635	330,333	0,048	-0,068
-342,620	-34,170	0,091	0,037
-341,606	-129,136	0,105	0,011
-340,591	333,281	0,059	0,085
-339,577	-122,613	-0,135	0,016
-338,562	-200,000	-0,002	-0,050
-337,548	-78,839	0,106	-0,026
-336,533	-200,000	0,004	0,025
-335,518	292,570	0,075	-0,101
-334,504	145,413	0,018	-0,018
-333,489	800,000	-0,034	-0,086
-332,475	-200,000	0,008	-0,098
-331,460	-107,253	0,083	-0,013
-330,445	-99,998	-0,079	-0,014
-329,431	387,336	0,088	-0,134
-328,416	24,626	-0,027	0,017
-327,402	-64,742	0,061	0,018
-326,387	77,029	0,098	0,076
-325,372	103,162	-0,129	-0,111
-324,358	800,000	-0,045	0,105
-323,343	-175,619	-0,099	0,002
-322,329	-200,000	0,015	0,129
-321,314	800,000	-0,035	0,097
-320,299	-38,327	0,074	0,028
-319,285	132,033	0,093	0,088
-318,270	230,494	-0,029	0,035
-317,256	214,402	0,091	0,106
-316,241	-73,477	0,083	-0,022
-315,226	-200,000	-0,002	-0,006
-314,212	473,552	-0,059	0,097
-313,197	-200,000	-0,018	-0,145
-312,183	129,420	-0,056	-0,053
-311,168	83,139	0,072	0,058
-310,153	-154,096	-0,196	0,010
-309,139	5,583	-0,032	-0,017
-308,124	615,238	-0,009	0,017
-307,110	-200,000	-0,026	0,163
-306,095	70,110	-0,024	-0,018
-305,080	-200,000	-0,021	0,118
-304,066	-49,792	0,062	-0,021
-303,051	14,108	0,042	-0,024
-302,037	0,280	-0,119	-0,062
-301,022	9,336	0,102	0,056
-300,008	-96,416	0,052	0,010
-298,993	-68,414	0,057	-0,016
-297,978	-42,102	0,126	0,047
-296,964	36,537	-0,121	0,078
-295,949	-200,000	-0,032	0,127
-294,935	-97,810	-0,074	0,014
-293,920	47,866	0,084	-0,057
-292,905	-25,680	-0,057	0,025
-291,891	-200,000	-0,014	0,137
-290,876	-42,040	0,128	0,048
-289,862	20,183	0,085	0,050
-288,847	315,819	-0,125	-0,173
-287,832	30,207	-0,101	-0,063
-286,818	-14,055	-0,059	0,028
-285,803	-94,547	0,096	-0,019
-284,789	38,355	-0,122	-0,080
-283,774	800,000	0,035	0,075
-282,759	-93,997	0,199	0,040
-281,745	-76,486	-0,116	-0,030
-280,730	122,154	-0,064	0,059
-279,716	-200,000	-0,011	-0,194
-278,701	468,679	-0,021	-0,034
-277,686	66,931	-0,076	0,057
-276,672	-51,773	0,057	0,019
-275,657	99,191	0,038	-0,033
-274,643	274,602	-0,099	0,129
-273,628	26,343	0,070	-0,042
-272,613	421,794	0,015	-0,024
-271,599	-200,000	-0,004	0,032
-270,584	-97,502	-0,036	0,007
-269,570	-52,048	0,052	0,018
-268,555	-200,000	-0,023	0,121
-267,540	339,277	-0,021	-0,030
-266,526	-200,000	-0,002	0,079
-265,511	-120,303	0,093	0,011
-264,497	56,316	-0,057	-0,040
-263,482	476,996	0,044	0,072
-262,467	800,000	-0,088	0,179
-261,453	800,000	-0,028	0,068
-260,438	-63,454	-0,111	0,033
-259,424	40,539	-0,026	0,017
-258,409	-103,252	-0,039	0,007
-257,395	800,000	0,031	0,096
-256,380	67,537	-0,050	0,038
-255,365	44,888	-0,037	0,025
-254,351	66,408	0,054	-0,040
-253,336	460,509	-0,031	0,050
-252,322	192,254	-0,124	0,137
-251,307	-200,000	0,053	0,173
-250,292	-200,000	-0,005	0,075
-249,278	-111,811	0,211	-0,031
-248,263	-5,770	-0,053	0,026
-247,249	376,803	-0,025	-0,037
-246,234	800,000	0,046	-0,125
-245,219	-56,228	-0,127	0,041
-244,205	-200,000	-0,029	-0,163
-243,190	-153,507	0,249	0,012
-242,176	-58,897	0,116	-0,037
-241,161	-114,126	0,116	0,016
-240,146	16,245	-0,046	-0,026
-239,132	-48,229	-0,017	-0,006
-238,117	-200,000	-0,034	-0,115
-237,103	130,121	0,054	0,051
-236,088	437,052	0,060	-0,097
-235,073	308,995	-0,094	0,129
-234,059	-116,287	-0,099	0,013
-233,044	-200,000	-0,002	0,116
-232,030	177,810	0,020	-0,022
-231,015	-200,000	0,006	-0,046
-230,000	139,867	0,037	-0,035
-228,986	-44,413	-0,080	0,029
-227,971	3,183	0,014	-0,007
-226,957	-35,561	0,066	0,026
-225,942	-200,000	-0,014	-0,097
-224,927	800,000	-0,042	-0,098
-223,913	392,915	-0,059	-0,090
-222,898	-200,000	-0,025	-0,081
-221,884	383,599	-0,072	0,109
-220,869	43,234	0,052	0,035
-219,855	176,038	0,096	-0,102
-218,840	363,652	-0,046	0,068
-217,825	-200,000	-0,002	0,214
-216,811	-89,045	0,054	0,012
-215,796	800,000	-0,063	0,169
-214,782	-200,000	-0,015	-0,076
-213,767	800,000	-0,037	0,101
-212,752	800,000	0,008	0,018
-211,738	340,087	-0,004	0,005
-210,723	-24,964	0,117	-0,051
-209,709	80,959	-0,064	-0,050
-208,694	800,000	-0,062	-0,135
-207,679	-95,075	-0,069	-0,014
-206,665	55,027	0,061	-0,043
-205,650	89,748	0,064	0,052
-204,636	165,783	0,032	-0,033
-203,621	188,507	-0,046	-0,050
-202,606	800,000	0,021	-0,044
-201,592	-200,000	-0,020	0,122
-200,577	800,000	0,021	0,052
-199,563	-200,000	0,016	-0,175
-198,548	-123,979	0,090	-0,010
-197,533	-200,000	0,009	0,044
-196,519	-200,000	0,001	-0,043
-195,504	-24,660	0,073	0,032
-194,490	-76,772	-0,049	0,013
-193,475	120,804	-0,044	-0,040
-192,460	146,015	0,119	-0,117
-191,446	800,000	-0,027	-0,067
-190,431	-134,741	0,048	-0,004
-189,417	-39,581	-0,159	-0,060
-188,402	139,091	0,120	-0,116
-187,387	215,264	0,108	-0,125
-186,373	-151,525	0,051	-0,003
-185,358	191,867	-0,034	-0,037
-184,344	-80,855	0,089	0,021
-183,329	-136,876	0,106	0,009
-182,315	-132,663	-0,045	-0,004
-181,300	800,000	0,007	0,021
-180,285	-25,199	0,058	-0,025
-179,271	-15,842	-0,117	0,054
-178,256	190,869	0,062	0,068
-177,242	178,869	0,047	0,050
-176,227	110,954	-0,068	-0,060
-175,212	-124,686	0,183	0,020
-174,198	348,209	-0,042	0,061
-173,183	125,659	-0,085	-0,078
-172,169	40,576	-0,031	0,020
-171,154	800,000	-0,030	0,094
-170,139	10,313	0,100	-0,055
-169,125	103,889	0,024	-0,020
-168,110	358,618	-0,065	0,095
-167,096	190,663	0,061	0,067
-166,081	572,273	-0,059	0,106
-165,066	34,737	-0,061	-0,039
-164,052	-59,449	0,075	-0,023
-163,037	-29,968	0,027	-0,011
-162,023	715,608	0,075	0,146
-161,008	624,554	0,111	0,205
-159,993	800,000	-0,022	-0,067
-158,979	33,906	-0,019	0,012
-157,964	700,335	-0,031	0,060
-156,950	800,000	-0,048	-0,101
-155,935	44,142	-0,086	-0,057
-154,920	308,050	0,087	0,119
-153,906	-6,949	-0,063	-0,031
-152,891	48,127	0,004	-0,003
-151,877	-16,272	0,081	-0,037
-150,862	-200,000	0,007	-0,137
-149,847	-200,000	0,015	0,053
-148,833	800,000	-0,003	0,011
-147,818	469,990	0,097	0,160
-146,804	-87,299	-0,034	-0,007
-145,789	300,268	-0,072	0,097
-144,775	-200,000	0,022	-0,091
-143,760	-104,516	-0,156	-0,026
-142,745	265,887	0,040	0,050
-141,731	170,201	0,073	0,076
-140,716	-166,162	-0,029	-0,001
-139,702	-67,427	-0,016	0,004
-138,687	238,029	-0,027	-0,033
-137,672	800,000	-0,036	-0,072
-136,658	518,866	0,092	-0,158
-135,643	402,278	-0,069	-0,106
-134,629	22,709	-0,098	-0,059
-133,614	8,624	-0,047	0,026
-132,599	-26,880	0,109	-0,046
-131,585	330,818	0,056	0,079
-130,570	-200,000	-0,005	0,028
-129,556	86,222	0,093	-0,075
-128,541	87,999	-0,041	-0,033
-127,526	63,911	0,083	0,061
-126,512	-200,000	0,024	0,231
-125,497	83,642	-0,046	-0,037
-124,483	800,000	0,023	-0,067
-123,468	-200,000	0,018	0,083
-122,453	231,788	-0,038	0,045
-121,439	-53,053	-0,087	-0,029
-120,424	-200,000	0,005	-0,116
-119,410	-136,569	0,075	0,006
-118,395	-90,915	0,141	0,029
-117,380	145,138	0,029	0,028
-116,366	-115,081	0,080	0,011
-115,351	800,000	-0,046	0,113
-114,337	687,415	-0,053	-0,101
-113,322	-49,773	-0,103	0,035
-112,307	800,000	-0,050	0,144
-111,293	-150,104	-0,182	0,010
-110,278	-200,000	0,008	0,144
-109,264	572,005	0,003	-0,006
-108,249	66,787	-0,116	0,086
-107,234	705,829	-0,026	0,050
-106,220	47,727	-0,103	-0,070
-105,205	800,000	-0,030	-0,089
-104,191	-107,095	0,020	-0,003
-103,176	-200,000	0,001	0,077
-102,162	-54,969	-0,096	-0,031
-101,147	23,786	0,021	0,013
-100,132	54,711	-0,162	-0,113
-99,118	69,614	-0,119	-0,089
-98,103	800,000	-0,020	-0,054
-97,089	-162,580	0,111	-0,004
-96,074	-200,000	0,001	-0,013
-95,059	180,929	-0,009	0,010
-94,045	-129,809	-0,063	0,006
-93,030	165,584	-0,060	-0,062
-92,016	327,188	0,051	0,071
-91,001	800,000	-0,063	0,163
-89,986	-109,693	0,088	0,013
-88,972	-200,000	0,015	0,066
-87,957	800,000	0,019	0,054
-86,943	800,000	-0,036	-0,073
-85,928	586,559	0,041	-0,073
-84,913	10,327	-0,103	0,057
-83,899	-84,542	0,068	0,016
-82,884	-200,000	-0,024	-0,106
-81,870	102,278	-0,114	0,097
-80,855	-20,612	-0,072	-0,032
-79,840	-113,223	-0,160	0,023
-78,826	-94,491	-0,083	0,016
-77,811	39,709	0,097	0,063
-76,797	212,740	-0,089	0,102
-75,782	140,440	0,065	-0,062
-74,767	-200,000	0,016	0,122
-73,753	-200,000	-0,035	0,128
-72,738	80,734	0,045	0,035
-71,724	245,175	0,063	-0,078
-70,709	800,000	-0,055	-0,153
-69,694	475,318	-0,047	-0,077
-68,680	-122,714	0,039	0,005
-67,665	704,164	-0,051	-0,098
-66,651	16,685	0,098	0,056
-65,636	414,981	-0,035	0,055
-64,622	157,013	-0,069	0,069
-63,607	800,000	-0,015	-0,047
-62,592	800,000	0,024	-0,061
-61,578	-81,755	0,064	-0,015
-60,563	27,999	0,064	-0,039
-59,549	800,000	0,043	-0,091
-58,534	-132,437	-1,322	-0,122
-57,519	542,480	-0,910	-1,582
-56,505	-200,000	-0,881	-4,445
-55,490	180,780	0,510	-0,544
-54,476	800,000	5,050	11,888
-53,461	-200,000	13,343	252,800
-52,446	-200,000	688,261	2272,905
-51,432	599,354	1622,775	2934,323
-50,417	121,181	1636,836	1478,875
-49,403	73,674	1291,081	980,743
-48,388	38,520	1025,700	662,369
-47,373	24,686	982,925	589,213
-46,359	23,918	972,802	580,600
-45,344	22,921	968,632	574,826
-44,330	22,948	966,982	573,914
-43,315	22,801	965,629	572,608
-42,300	22,731	964,648	571,776
-41,286	22,706	963,770	571,150
-40,271	22,714	962,777	570,565
-39,257	22,720	961,947	570,070
-38,242	22,747	960,874	569,500
-37,227	22,739	959,990	568,927
-36,213	22,649	959,310	568,210
-35,198	22,764	958,296	567,959
-34,184	22,756	957,847	567,644
-33,169	22,655	956,792	566,670
-32,154	22,797	955,735	566,481
-31,140	22,764	955,081	565,963
-30,125	22,790	954,144	565,468
-29,111	22,816	953,308	565,035
-28,096	22,772	952,708	564,516
-27,082	22,810	952,015	564,206
-26,067	22,808	951,202	563,695
-25,052	22,778	950,479	563,147
-24,038	22,839	949,798	562,917
-23,023	22,754	949,332	562,344
-22,009	22,828	948,586	562,118
-20,994	22,782	948,105	561,664
-19,979	22,846	947,373	561,412
-18,965	22,752	946,889	560,802
-17,950	22,804	946,148	560,510
-16,936	22,744	945,364	559,830
-15,921	22,685	944,975	559,390
-14,906	22,684	944,121	558,858
-13,892	22,717	943,332	558,475
-12,877	22,668	942,794	557,977
-11,863	22,606	942,041	557,314
-10,848	22,621	941,559	557,054
-9,833	22,723	941,216	557,153
-8,819	22,742	940,627	556,842
-7,804	22,749	939,687	556,285
-6,790	22,593	939,348	555,569
-5,775	22,742	938,536	555,537
-4,760	22,687	938,213	555,152
-3,746	22,678	937,445	554,647
-2,731	22,567	936,654	553,805
-1,717	22,458	936,132	553,128
-0,702	22,483	935,365	552,735
0,313	22,275	934,686	552,509
1,327	25,397	932,572	561,039
2,342	35,174	797,278	505,718
3,356	33,419	452,186	284,153
4,371	2,094	293,714	153,334
5,386	-2,455	274,470	138,974
6,400	-4,360	268,732	134,289
7,415	-4,759	266,281	132,686
8,429	-4,318	264,960	132,420
9,444	-4,295	264,192	132,045
10,459	-4,160	263,501	131,811
11,473	-4,328	262,918	131,355
12,488	-4,272	262,318	131,094
13,502	-4,581	261,955	130,621
14,517	-4,505	261,383	130,393
15,531	-4,444	261,073	130,282
16,546	-4,359	260,766	130,194
17,561	-4,519	260,391	129,851
18,575	-4,284	260,079	129,895
19,590	-4,465	259,799	129,581
20,604	-4,213	259,393	129,592
21,619	-4,227	259,207	129,475
22,634	-4,329	258,757	129,149
23,648	-4,384	258,466	128,943
24,663	-4,335	258,147	128,815
25,677	-4,396	258,036	128,694
26,692	-4,374	257,712	128,541
27,707	-4,402	257,444	128,371
28,721	-4,363	257,194	128,269
29,736	-4,440	256,972	128,079
30,750	-4,526	256,898	127,955
31,765	-4,340	256,480	127,899
32,780	-4,418	256,271	127,714
33,794	-4,226	255,995	127,735
34,809	-4,331	255,882	127,575
35,823	-4,579	255,618	127,214
36,838	-4,335	255,124	127,171
37,853	-4,502	255,091	126,997
38,867	-4,366	254,751	126,935
39,882	-4,538	254,712	126,753
40,896	-4,532	254,475	126,629
41,911	-4,467	254,235	126,556
42,926	-4,298	253,930	126,540
43,940	-4,538	253,740	126,224
44,955	-4,702	253,516	125,959
45,969	-4,760	253,288	125,784
46,984	-4,726	253,092	125,705
47,999	-4,944	252,727	125,322
49,013	-5,055	252,597	125,151
50,028	-5,143	252,380	124,955
51,042	-5,219	251,952	124,666
52,057	-5,357	251,787	124,454
53,071	-5,117	251,664	124,590
54,086	-5,367	251,618	124,339
55,101	-5,133	251,330	124,389
56,115	-4,716	251,119	124,633
57,130	-4,299	251,037	124,942
58,144	-4,305	250,953	124,883
59,159	-4,287	250,742	124,782
60,174	-4,320	250,351	124,549
61,188	-4,183	250,169	124,564
62,203	-4,385	250,106	124,348
63,217	-4,285	249,887	124,315
64,232	-4,188	249,753	124,320
65,247	-4,298	249,555	124,116
66,261	-4,283	249,330	124,006
67,276	-4,483	249,110	123,714
68,290	-4,753	248,825	123,331
69,305	-4,901	248,456	123,011
70,320	-4,729	248,366	123,102
71,334	-4,495	248,228	123,222
72,349	-4,336	248,066	123,266
73,363	-4,360	247,831	123,118
74,378	-4,323	247,754	123,100
75,393	-4,200	247,394	123,015
76,407	-4,365	247,372	122,853
77,422	-4,334	246,987	122,677
78,436	-4,385	246,977	122,618
79,451	-4,126	246,578	122,628
80,466	-4,413	246,362	122,267
81,480	-4,544	246,201	122,065
82,495	-4,695	246,041	121,848
83,509	-4,637	245,931	121,831
84,524	-4,508	245,668	121,799
85,539	-4,771	245,362	121,416
86,553	-4,897	245,261	121,249
87,568	-4,452	245,029	121,496
88,582	-4,714	244,835	121,170
89,597	-4,776	244,762	121,071
90,611	-4,474	244,570	121,218
91,626	-4,418	244,361	121,151
92,641	-4,416	244,188	121,056
93,655	-4,420	244,043	120,969
94,670	-4,421	243,693	120,784
95,684	-4,352	243,658	120,814
96,699	-4,488	243,449	120,587
97,714	-4,347	243,178	120,559
98,728	-4,708	242,956	120,137
99,743	-4,738	242,893	120,071
100,757	-4,961	242,731	119,795
101,772	-4,716	242,341	119,795
102,787	-4,518	242,271	119,914
103,801	-4,543	242,044	119,770
104,816	-4,420	241,920	119,800
105,830	-4,277	241,841	119,868
106,845	-4,288	241,722	119,790
107,860	-4,458	241,628	119,592
108,874	-4,563	241,322	119,342
109,889	-4,639	241,146	119,182
110,903	-4,611	240,938	119,092
111,918	-4,671	240,597	118,864
112,933	-4,655	240,575	118,855
113,947	-4,378	240,372	118,972
114,962	-4,503	240,271	118,809
115,976	-4,383	240,013	118,769
116,991	-4,495	239,981	118,651
118,006	-4,526	239,827	118,538
119,020	-4,275	239,575	118,609
120,035	-4,140	239,438	118,641
121,049	-4,131	239,326	118,582
122,064	-4,343	239,063	118,268
123,079	-4,550	238,839	117,978
124,093	-4,597	238,841	117,930
125,108	-4,649	238,445	117,682
126,122	-5,040	238,351	117,306
127,137	-4,990	238,091	117,209
128,151	-4,752	237,987	117,340
129,166	-4,774	237,854	117,247
130,181	-4,710	237,479	117,103
131,195	-4,852	237,342	116,910
132,210	-4,797	237,230	116,889
133,224	-4,597	237,084	116,969
134,239	-4,476	236,961	116,995
135,254	-4,602	236,676	116,743
136,268	-4,711	236,604	116,608
137,283	-4,895	236,360	116,329
138,297	-4,810	236,115	116,267
139,312	-5,075	235,945	115,959
140,327	-4,622	235,828	116,256
141,341	-4,174	235,840	116,612
142,356	-3,989	235,772	116,717
143,370	-4,097	235,524	116,497
144,385	-4,128	235,410	116,405
145,400	-4,265	235,307	116,234
146,414	-4,256	235,106	116,131
147,429	-4,298	234,810	115,941
148,443	-4,163	234,667	115,969
149,458	-4,184	234,630	115,923
150,473	-4,165	234,377	115,803
151,487	-4,506	234,305	115,485
152,502	-4,238	233,950	115,514
153,516	-4,176	233,939	115,546
154,531	-4,244	233,604	115,317
155,546	-4,308	233,523	115,215
156,560	-4,172	233,272	115,189
157,575	-4,596	233,165	114,790
158,589	-4,331	232,959	114,889
159,604	-4,063	232,746	114,985
160,619	-3,942	232,768	115,082
161,633	-3,956	232,675	115,014
162,648	-4,031	232,405	114,812
163,662	-4,148	232,250	114,633
164,677	-4,287	232,155	114,465
165,692	-4,133	231,859	114,431
166,706	-4,069	231,899	114,491
167,721	-3,986	231,742	114,468
168,735	-4,174	231,576	114,228
169,750	-4,034	231,250	114,167
170,764	-4,057	231,094	114,063
171,779	-3,949	231,079	114,129
172,794	-4,039	230,974	113,997
173,808	-4,188	230,629	113,700
174,823	-4,637	230,313	113,182
175,837	-5,024	230,236	112,831
176,852	-4,464	230,316	113,298
177,867	-4,317	230,181	113,337
178,881	-4,198	229,884	113,273
179,896	-3,937	229,638	113,346
180,910	-4,163	229,695	113,188
181,925	-4,155	229,536	113,106
182,940	-4,102	229,365	113,053
183,954	-4,007	229,177	113,024
184,969	-3,828	229,212	113,170
185,983	-3,975	229,001	112,942
186,998	-3,949	228,701	112,804
188,013	-3,825	228,616	112,848
189,027	-4,036	228,458	112,596
190,042	-3,973	228,136	112,477
191,056	-4,079	228,227	112,429
192,071	-3,907	227,974	112,428
193,086	-4,103	227,863	112,212
194,100	-4,214	227,524	111,948
195,115	-4,494	227,289	111,607
196,129	-5,580	226,985	110,610
197,144	-2,137	227,877	113,698
198,159	2,001	229,106	117,511
199,173	4,230	229,581	119,475
200,188	4,348	229,470	119,497
201,202	4,371	229,260	119,395
202,217	4,504	229,221	119,466
203,232	4,678	229,153	119,555
204,246	4,902	228,931	119,602
205,261	4,748	228,917	119,465
206,275	4,963	228,767	119,542
207,290	4,848	228,567	119,338
208,304	4,886	228,458	119,300
209,319	4,979	228,343	119,301
210,334	4,779	228,133	119,027
211,348	4,596	227,938	118,774
212,363	4,301	227,493	118,304
213,377	4,000	227,175	117,898
214,392	3,885	227,219	117,822
215,407	4,048	227,151	117,901
216,421	4,009	227,042	117,804
217,436	4,083	226,698	117,672
218,450	3,733	226,592	117,339
219,465	3,801	226,246	117,201
220,480	3,922	226,287	117,304
221,494	3,767	226,220	117,141
222,509	4,073	226,036	117,268
223,523	4,028	225,839	117,122
224,538	3,756	225,798	116,883
225,553	3,787	225,589	116,788
226,567	4,078	225,468	116,936
227,582	4,338	225,439	117,108
228,596	4,346	225,420	117,094
229,611	4,343	224,939	116,831
230,626	3,886	224,726	116,364
231,640	4,049	224,760	116,495
232,655	4,294	224,578	116,575
233,669	4,704	224,556	116,863
234,684	4,703	224,293	116,715
235,699	4,363	224,281	116,442
236,713	4,213	223,957	116,150
237,728	4,259	223,861	116,125
238,742	3,983	223,607	115,775
239,757	3,916	223,618	115,720
240,772	3,956	223,480	115,668
241,786	4,120	223,199	115,636
242,801	4,211	223,196	115,692
243,815	4,396	223,059	115,749
244,830	4,517	222,966	115,782
245,844	4,145	222,764	115,388
246,859	4,171	222,535	115,279
247,874	4,593	222,328	115,476
248,888	4,417	222,387	115,365
249,903	4,119	222,219	115,045
250,917	4,422	221,924	115,108
251,932	3,994	221,947	114,791
252,947	3,979	221,613	114,596
253,961	3,960	221,581	114,555
254,976	4,154	221,309	114,549
255,990	4,104	221,257	114,475
257,005	4,375	221,132	114,601
258,020	4,311	221,035	114,493
259,034	4,558	220,973	114,634
260,049	4,206	220,912	114,331
261,063	4,308	220,592	114,231
262,078	4,341	220,535	114,216
263,093	4,282	220,404	114,094
264,107	4,318	220,276	114,044
265,122	4,449	220,035	114,006
266,136	4,579	219,952	114,049
267,151	4,393	219,900	113,874
268,166	4,327	219,504	113,610
269,180	4,024	219,300	113,271
270,195	3,888	219,185	113,102
271,209	3,894	219,057	113,030
272,224	4,104	218,781	113,032
273,239	4,317	218,778	113,177
274,253	4,044	218,726	112,939
275,268	3,830	218,541	112,677
276,282	3,924	218,247	112,584
277,297	4,033	218,085	112,570
278,312	3,955	218,078	112,500
279,326	3,940	218,048	112,463
280,341	3,842	217,932	112,321
281,355	4,232	217,581	112,415
282,370	4,100	217,509	112,271
283,384	3,825	217,406	112,008
284,399	3,737	217,132	111,793
285,414	3,729	217,172	111,797
286,428	4,052	217,110	111,991
287,443	4,107	216,929	111,928
288,457	4,090	216,851	111,865
289,472	4,165	216,611	111,785
290,487	3,720	216,300	111,292
291,501	3,734	216,061	111,170
292,516	3,915	216,028	111,274
293,530	4,018	215,978	111,313
294,545	3,761	215,787	111,019
295,560	3,780	215,771	111,014
296,574	4,054	215,479	111,052
297,589	3,870	215,403	110,870
298,603	4,219	215,283	111,050
299,618	4,278	215,192	111,035
300,633	4,045	215,045	110,782
301,647	4,237	215,194	110,987
302,662	4,382	214,891	110,925
303,676	4,334	214,654	110,758
304,691	4,115	214,698	110,614
305,706	3,956	214,605	110,442
306,720	4,253	214,343	110,510
307,735	4,195	214,091	110,330
308,749	4,016	213,963	110,125
309,764	4,075	213,871	110,110
310,779	4,174	213,815	110,142
311,793	4,045	213,628	109,944
312,808	4,190	213,451	109,947
313,822	4,165	213,308	109,846
314,837	4,132	213,173	109,743
315,852	3,971	212,877	109,466
316,866	4,106	212,864	109,545
317,881	4,069	212,842	109,498
318,895	3,963	212,731	109,356
319,910	3,958	212,467	109,207
320,925	3,936	212,204	109,046
321,939	3,703	211,960	108,746
322,954	3,718	211,953	108,744
323,968	4,146	211,937	109,028
324,983	4,129	211,862	108,968
325,997	4,243	211,873	109,045
327,012	4,275	211,585	108,909
328,027	3,977	211,547	108,670
329,041	4,231	211,473	108,802
330,056	4,660	211,333	109,022
331,070	4,189	211,055	108,537
332,085	3,961	210,764	108,217
333,100	4,184	210,631	108,296
334,114	4,010	210,530	108,113
335,129	4,249	210,266	108,135
336,143	3,962	210,271	107,927
337,158	3,997	210,193	107,902
338,173	3,908	210,057	107,760
339,187	3,786	209,880	107,574
340,202	3,873	209,730	107,548
341,216	3,760	209,515	107,349
342,231	3,750	209,564	107,358
343,246	3,638	209,391	107,181
344,260	3,829	209,182	107,199
345,275	3,955	209,090	107,230
346,289	4,266	209,032	107,407
347,304	4,203	208,850	107,260
348,319	4,212	208,756	107,209
349,333	4,049	208,528	106,968
350,348	4,103	208,475	106,969
351,362	4,223	208,374	106,991
352,377	4,117	208,280	106,859
353,392	4,220	208,045	106,801
354,406	4,072	207,986	106,659
355,421	194,062	1344,186	1433,485
356,435	154,835	1482,729	1433,595
