DTS Sentinel unit serial number:	SN410029Multiplexer serial number:	ORYXHardware model number:	OX2-SRSoftware version number:	ORYX F/W v4,00 Oryx Data Collector v3.7.2.0data status	okinstallation	B6 Nyhavnadifferential loss correction	single-endedforward channel	channel 2reverse channel	N/Adate	2023/12/09time	18:30:08forward acquisition time	300,00reverse acquisition time	0,00gamma	499,1914k internal	0,3130k external	0,3130temperature offset calibration	1,0000default loss term (dB/km)	0,3820temperature slope calibration	1,0000multiplexer offset coefficient	1,0000multiplexer slope coefficient	1,0000fibre end	0,00T internal ref (°C)	21,05T ext. ref 1 (°C)	4,69T ext. ref 2 (°C)	4,70length (m)	temperature (°C)	Stokes	anti-Stokes-744,400	-28,932	-0,037	0,016
-743,385	-66,261	-0,316	0,093
-742,371	-200,000	0,027	0,108
-741,356	39,397	-0,186	0,124
-740,342	-200,000	-0,023	0,076
-739,327	-44,196	-0,234	0,087
-738,312	760,384	0,040	-0,080
-737,298	515,014	-0,193	0,336
-736,283	558,408	0,023	0,041
-735,269	9,424	-0,235	0,132
-734,254	-74,349	0,063	0,017
-733,239	-16,298	-0,419	-0,197
-732,225	-167,071	0,166	-0,005
-731,210	-200,000	-0,001	0,145
-730,196	-58,574	-0,052	0,017
-729,181	800,000	-0,039	-0,087
-728,167	125,779	-0,089	0,084
-727,152	37,144	-0,041	-0,027
-726,137	-200,000	-0,035	-0,129
-725,123	707,617	-0,074	-0,147
-724,108	348,754	-0,020	-0,030
-723,094	-200,000	-0,023	-0,103
-722,079	-110,681	-0,195	-0,030
-721,064	204,316	-0,126	-0,145
-720,050	-161,012	0,049	0,002
-719,035	-200,000	0,004	0,075
-718,021	70,382	-0,172	0,132
-717,006	98,664	-0,120	-0,103
-715,991	-200,000	-0,011	-0,135
-714,977	-200,000	0,011	-0,124
-713,962	193,466	-0,082	0,092
-712,948	800,000	-0,042	0,092
-711,933	-172,147	0,081	-0,002
-710,918	800,000	0,042	-0,099
-709,904	-119,135	-0,080	-0,010
-708,889	800,000	-0,083	-0,180
-707,875	110,503	-0,108	-0,096
-706,860	800,000	0,002	-0,005
-705,845	800,000	-0,051	0,153
-704,831	615,823	-0,031	-0,057
-703,816	-31,237	0,143	0,060
-702,802	-16,879	-0,104	0,049
-701,787	458,703	-0,069	-0,115
-700,772	-200,000	-0,006	0,136
-699,758	93,544	-0,041	0,034
-698,743	150,967	0,085	-0,086
-697,729	179,266	0,045	0,049
-696,714	-200,000	-0,000	0,103
-695,699	-131,126	-0,145	-0,014
-694,685	769,072	-0,079	-0,160
-693,670	71,033	-0,094	0,072
-692,656	115,023	0,036	-0,033
-691,641	-200,000	-0,014	-0,061
-690,627	-135,392	0,055	0,005
-689,612	562,626	-0,035	0,064
-688,597	-164,340	-0,040	-0,001
-687,583	-130,756	-0,175	0,017
-686,568	-115,727	-0,072	-0,010
-685,554	-200,000	-0,015	-0,061
-684,539	-27,867	0,080	0,034
-683,524	83,769	-0,037	-0,030
-682,510	-32,002	-0,102	0,042
-681,495	-79,164	0,065	0,016
-680,481	-200,000	0,020	0,097
-679,466	122,719	-0,062	0,057
-678,451	626,171	0,040	-0,074
-677,437	-200,000	-0,008	0,133
-676,422	-200,000	0,044	0,158
-675,408	-200,000	0,002	0,034
-674,393	9,195	-0,137	-0,076
-673,378	5,925	-0,123	0,067
-672,364	-147,236	-0,100	-0,006
-671,349	707,156	-0,048	-0,095
-670,335	135,806	-0,060	-0,058
-669,320	-103,463	-0,058	0,010
-668,305	-100,335	-0,104	0,019
-667,291	-200,000	-0,014	-0,153
-666,276	800,000	0,019	-0,061
-665,262	-37,989	-0,066	-0,026
-664,247	105,086	0,058	-0,051
-663,232	283,323	0,033	-0,044
-662,218	-200,000	0,000	0,049
-661,203	-200,000	-0,002	0,016
-660,189	-80,452	0,222	0,054
-659,174	800,000	0,072	-0,150
-658,159	35,331	-0,130	-0,085
-657,145	-102,886	-0,064	0,011
-656,130	71,508	-0,046	-0,035
-655,116	4,250	-0,060	-0,032
-654,101	-200,000	0,006	0,167
-653,086	8,117	-0,069	-0,038
-652,072	800,000	0,076	-0,163
-651,057	-28,923	-0,071	-0,030
-650,043	103,299	-0,121	-0,105
-649,028	171,248	-0,061	-0,065
-648,014	-151,620	-0,071	-0,004
-646,999	-200,000	-0,020	0,081
-645,984	147,237	-0,088	-0,088
-644,970	77,366	-0,098	-0,077
-643,955	-86,447	-0,110	0,025
-642,941	506,835	-0,079	-0,137
-641,926	-200,000	-0,011	0,095
-640,911	800,000	0,054	0,146
-639,897	-200,000	0,020	0,151
-638,882	-66,016	-0,234	0,069
-637,868	-135,498	0,116	-0,010
-636,853	266,552	-0,069	0,090
-635,838	-200,000	-0,005	0,029
-634,824	-200,000	-0,002	0,042
-633,809	-200,000	0,002	0,040
-632,795	800,000	0,070	0,148
-631,780	329,845	-0,034	0,048
-630,765	-13,916	0,147	-0,070
-629,751	-200,000	0,004	0,023
-628,736	98,108	0,063	-0,054
-627,722	-173,004	-0,045	-0,001
-626,707	57,595	0,045	-0,032
-625,692	-11,303	-0,094	0,046
-624,678	121,580	0,063	0,059
-623,663	-16,949	-0,108	0,051
-622,649	-150,510	-0,125	-0,007
-621,634	-11,763	-0,057	0,027
-620,619	-92,242	0,059	0,012
-619,605	513,863	0,046	0,080
-618,590	-33,635	0,035	0,014
-617,576	113,702	-0,014	-0,012
-616,561	-200,000	0,004	0,147
-615,546	800,000	-0,036	0,088
-614,532	-97,288	-0,069	-0,013
-613,517	75,558	0,060	0,047
-612,503	800,000	-0,018	-0,054
-611,488	-200,000	-0,012	0,124
-610,474	800,000	-0,017	-0,052
-609,459	-68,769	0,124	0,035
-608,444	320,560	-0,045	-0,063
-607,430	800,000	0,021	0,046
-606,415	800,000	-0,052	-0,149
-605,401	123,755	0,051	-0,047
-604,386	-111,708	0,200	-0,030
-603,371	353,650	-0,063	0,093
-602,357	-200,000	0,007	-0,092
-601,342	800,000	-0,080	-0,202
-600,328	-138,414	-0,065	-0,005
-599,313	-200,000	0,011	-0,132
-598,298	254,055	-0,058	-0,073
-597,284	-116,756	0,162	-0,022
-596,269	56,192	-0,110	-0,079
-595,255	-200,000	0,011	0,050
-594,240	67,144	0,137	0,103
-593,225	-19,538	-0,096	-0,044
-592,211	145,909	-0,069	0,069
-591,196	-200,000	-0,034	-0,113
-590,182	235,776	-0,078	-0,096
-589,167	-92,650	0,120	0,025
-588,152	316,553	-0,032	-0,045
-587,138	635,051	-0,050	-0,094
-586,123	-48,602	0,070	-0,025
-585,109	-167,067	-0,105	0,003
-584,094	-16,462	-0,073	-0,034
-583,079	318,303	0,066	0,092
-582,065	-146,632	-0,097	-0,006
-581,050	25,821	-0,079	-0,049
-580,036	800,000	0,020	-0,041
-579,021	164,958	-0,013	-0,014
-578,006	286,363	0,073	0,098
-576,992	-79,496	0,040	0,010
-575,977	-130,582	-0,113	0,011
-574,963	-19,997	0,069	-0,031
-573,948	758,234	-0,048	-0,096
-572,934	85,870	0,101	-0,082
-571,919	416,679	-0,051	-0,081
-570,904	-3,839	-0,070	0,036
-569,890	12,496	0,038	0,022
-568,875	209,393	-0,083	0,096
-567,861	-200,000	0,005	0,065
-566,846	7,326	0,032	-0,018
-565,831	-164,311	-0,027	0,001
-564,817	345,507	0,060	0,088
-563,802	-92,172	-0,097	0,020
-562,788	137,146	-0,056	-0,054
-561,773	-194,010	0,061	0,000
-560,758	-34,831	0,123	0,049
-559,744	252,875	0,028	-0,035
-558,729	-200,000	0,013	0,083
-557,715	800,000	0,019	-0,041
-556,700	-9,249	-0,016	-0,008
-555,685	-200,000	0,001	0,186
-554,671	-44,381	0,055	-0,020
-553,656	-161,310	0,143	-0,005
-552,642	-200,000	0,002	0,059
-551,627	-19,439	-0,048	0,022
-550,612	234,773	-0,033	-0,040
-549,598	800,000	0,016	-0,044
-548,583	-200,000	-0,013	-0,102
-547,569	-200,000	0,004	0,176
-546,554	756,942	0,067	0,135
-545,539	-107,477	0,140	-0,022
-544,525	-100,920	0,162	0,029
-543,510	-200,000	-0,025	-0,111
-542,496	-200,000	-0,021	-0,080
-541,481	350,826	0,049	-0,072
-540,466	53,056	-0,143	-0,101
-539,452	800,000	0,034	-0,081
-538,437	225,645	0,042	0,051
-537,423	512,820	-0,033	0,056
-536,408	227,640	-0,088	-0,105
-535,393	-39,009	-0,072	-0,028
-534,379	79,499	-0,032	0,025
-533,364	-154,536	0,120	-0,006
-532,350	775,519	0,015	-0,030
-531,335	-200,000	-0,016	0,212
-530,321	-81,518	0,075	-0,018
-529,306	8,507	-0,069	0,038
-528,291	-200,000	0,005	-0,018
-527,277	-58,711	0,017	0,005
-526,262	-25,500	0,149	-0,065
-525,248	47,269	-0,087	0,060
-524,233	614,863	-0,011	-0,020
-523,218	157,491	-0,030	0,030
-522,204	20,775	-0,054	-0,032
-521,189	-16,630	0,098	-0,046
-520,175	-200,000	-0,015	-0,092
-519,160	291,816	-0,045	-0,060
-518,145	-36,869	0,086	-0,034
-517,131	197,077	0,099	-0,112
-516,116	800,000	0,058	0,132
-515,102	39,145	-0,059	-0,039
-514,087	644,128	0,031	0,059
-513,072	-109,800	0,092	-0,014
-512,058	-83,156	-0,060	-0,014
-511,043	59,025	-0,058	-0,042
-510,029	-135,749	0,051	0,004
-509,014	232,520	-0,087	0,106
-507,999	-200,000	0,001	0,103
-506,985	0,954	0,060	-0,032
-505,970	97,413	-0,057	-0,048
-504,956	24,887	0,034	0,021
-503,941	281,831	-0,041	-0,054
-502,926	-200,000	-0,019	0,141
-501,912	-21,199	-0,055	0,025
-500,897	179,923	-0,054	-0,058
-499,883	-87,348	-0,069	0,015
-498,868	83,295	-0,030	-0,024
-497,853	-200,000	-0,023	-0,115
-496,839	373,189	0,053	-0,079
-495,824	643,454	0,025	-0,048
-494,810	368,092	0,057	0,085
-493,795	800,000	-0,039	-0,097
-492,781	-200,000	-0,086	0,000
-491,766	-200,000	0,012	0,115
-490,751	-57,535	-0,090	0,029
-489,737	756,931	0,046	-0,093
-488,722	358,362	-0,037	-0,054
-487,708	21,913	0,171	0,102
-486,693	-63,328	0,016	0,005
-485,678	-200,000	-0,024	-0,140
-484,664	17,349	-0,104	-0,061
-483,649	-115,256	-0,121	0,017
-482,635	-42,474	-0,098	0,036
-481,620	800,000	-0,029	-0,085
-480,605	-83,409	-0,121	0,028
-479,591	-119,816	0,061	0,008
-478,576	-200,000	0,004	0,054
-477,562	77,611	0,064	-0,050
-476,547	-200,000	0,009	-0,147
-475,532	-200,000	-0,044	0,148
-474,518	-200,000	-0,010	-0,057
-473,503	-96,176	-0,062	-0,012
-472,489	221,598	0,060	-0,071
-471,474	800,000	0,043	0,116
-470,459	197,117	0,063	-0,070
-469,445	800,000	-0,042	-0,128
-468,430	800,000	-0,031	-0,079
-467,416	321,624	-0,068	-0,095
-466,401	680,358	0,038	-0,073
-465,386	181,946	-0,033	0,035
-464,372	-200,000	-0,005	0,112
-463,357	800,000	-0,002	-0,006
-462,343	-22,979	0,061	0,027
-461,328	524,037	-0,079	0,138
-460,313	151,499	-0,039	0,039
-459,299	157,262	0,080	0,082
-458,284	-40,610	0,118	0,045
-457,270	-11,887	-0,118	-0,057
-456,255	-117,522	0,020	-0,003
-455,241	327,356	-0,063	0,089
-454,226	-200,000	-0,023	-0,138
-453,211	177,990	0,014	0,015
-452,197	-79,241	-0,106	0,026
-451,182	-73,175	-0,095	0,025
-450,168	197,244	0,047	-0,053
-449,153	-87,762	-0,058	0,013
-448,138	-142,374	-0,109	0,008
-447,124	-136,241	-0,044	-0,004
-446,109	23,844	-0,090	-0,054
-445,095	800,000	-0,057	-0,141
-444,080	-99,104	0,038	-0,007
-443,065	649,635	-0,070	0,132
-442,051	300,588	0,038	0,051
-441,036	-200,000	0,011	-0,140
-440,022	800,000	-0,033	-0,095
-439,007	82,819	0,035	-0,028
-437,992	-138,992	0,055	0,004
-436,978	-200,000	0,016	0,086
-435,963	31,049	-0,065	0,041
-434,949	-110,862	0,087	0,013
-433,934	103,865	-0,088	-0,076
-432,919	627,728	0,109	-0,203
-431,905	-200,000	0,034	-0,123
-430,890	800,000	0,048	0,109
-429,876	-39,201	-0,044	-0,017
-428,861	-162,656	0,069	0,002
-427,846	-200,000	0,006	0,085
-426,832	199,451	0,037	0,042
-425,817	48,473	0,102	0,070
-424,803	-65,193	-0,105	-0,031
-423,788	-43,001	0,156	-0,058
-422,773	231,734	0,056	-0,068
-421,759	-65,683	0,090	-0,026
-420,744	54,850	-0,129	-0,091
-419,730	800,000	-0,054	-0,122
-418,715	-200,000	-0,005	-0,074
-417,701	369,550	-0,019	-0,028
-416,686	124,061	-0,060	-0,055
-415,671	21,882	0,135	0,081
-414,657	800,000	0,036	0,097
-413,642	-200,000	0,012	0,076
-412,628	529,972	0,064	0,111
-411,613	480,170	-0,022	-0,037
-410,598	-147,606	-0,047	0,003
-409,584	-91,881	0,096	-0,020
-408,569	800,000	0,052	0,115
-407,555	-200,000	-0,040	0,165
-406,540	230,838	0,053	0,064
-405,525	-200,000	-0,006	0,065
-404,511	-200,000	0,013	0,064
-403,496	100,000	-0,068	-0,058
-402,482	-200,000	0,017	0,093
-401,467	-22,861	0,141	0,062
-400,452	800,000	-0,023	-0,064
-399,438	-200,000	-0,008	0,106
-398,423	36,522	-0,027	-0,017
-397,409	800,000	-0,060	0,124
-396,394	102,037	0,046	-0,039
-395,379	800,000	-0,036	-0,105
-394,365	68,428	0,176	0,132
-393,350	252,886	-0,035	-0,044
-392,336	-124,381	0,051	0,006
-391,321	55,381	-0,059	-0,042
-390,306	6,352	-0,150	0,081
-389,292	800,000	0,027	0,063
-388,277	733,730	0,015	-0,029
-387,263	-187,625	0,061	0,001
-386,248	-200,000	0,003	0,104
-385,233	124,445	0,017	-0,015
-384,219	-200,000	-0,009	-0,066
-383,204	-163,957	0,041	-0,001
-382,190	800,000	0,045	0,123
-381,175	-61,641	0,087	0,026
-380,160	-200,000	-0,032	-0,111
-379,146	-58,680	-0,071	0,022
-378,131	63,225	0,120	-0,088
-377,117	97,538	0,068	0,057
-376,102	-92,314	-0,114	0,023
-375,088	-26,798	0,087	0,037
-374,073	-18,524	-0,075	-0,034
-373,058	-73,689	0,104	0,028
-372,044	-15,004	0,084	-0,039
-371,029	358,668	0,078	0,115
-370,015	42,443	-0,123	0,082
-369,000	-200,000	0,003	0,069
-367,985	175,499	-0,016	-0,017
-366,971	-200,000	-0,022	0,090
-365,956	358,798	0,011	-0,016
-364,942	157,548	-0,023	-0,023
-363,927	800,000	-0,015	-0,032
-362,912	-24,504	0,066	0,029
-361,898	-200,000	-0,068	0,000
-360,883	601,220	0,026	-0,048
-359,869	-200,000	0,012	0,066
-358,854	-19,484	0,065	0,030
-357,839	-200,000	0,008	0,063
-356,825	-200,000	-0,003	0,028
-355,810	-17,880	0,085	-0,039
-354,796	-0,947	-0,115	-0,059
-353,781	53,610	-0,122	-0,086
-352,766	202,493	-0,078	-0,089
-351,752	78,222	-0,123	-0,096
-350,737	-51,901	-0,031	0,010
-349,723	731,166	-0,012	-0,024
-348,708	-11,522	-0,064	0,030
-347,693	800,000	0,034	0,099
-346,679	-59,476	-0,168	0,053
-345,664	106,964	0,040	-0,034
-344,650	104,412	-0,131	0,113
-343,635	-70,602	0,150	0,041
-342,620	-200,000	-0,011	0,037
-341,606	-200,000	-0,003	0,125
-340,591	-53,950	-0,110	0,036
-339,577	-31,972	0,052	-0,021
-338,562	800,000	-0,086	-0,256
-337,548	198,438	-0,033	0,038
-336,533	89,802	0,119	-0,097
-335,518	-47,578	0,098	-0,035
-334,504	800,000	-0,019	0,058
-333,489	-200,000	0,019	0,144
-332,475	-200,000	0,005	-0,027
-331,460	216,783	0,071	0,083
-330,445	283,096	0,044	-0,057
-329,431	-200,000	0,016	-0,116
-328,416	213,960	0,095	0,110
-327,402	800,000	-0,071	0,154
-326,387	-106,981	0,152	0,024
-325,372	479,921	-0,051	-0,085
-324,358	-16,405	0,063	-0,029
-323,343	-55,733	-0,054	-0,017
-322,329	-46,218	0,084	0,030
-321,314	89,738	-0,099	-0,080
-320,299	182,446	-0,056	-0,060
-319,285	-200,000	-0,004	-0,021
-318,270	443,128	-0,117	-0,188
-317,256	-66,433	0,025	0,007
-316,241	-118,550	0,156	-0,020
-315,226	495,152	-0,056	0,095
-314,212	10,100	0,040	-0,022
-313,197	-200,000	-0,032	0,173
-312,183	-200,000	-0,003	-0,027
-311,168	184,336	0,048	0,052
-310,153	315,273	-0,008	0,011
-309,139	-96,059	0,063	-0,012
-308,124	-200,000	-0,002	0,131
-307,110	-93,529	0,157	-0,032
-306,095	-150,678	0,169	-0,009
-305,080	-21,403	-0,125	0,056
-304,066	-68,150	0,025	0,007
-303,051	56,720	0,004	-0,003
-302,037	89,828	-0,061	-0,050
-301,022	-26,251	0,039	-0,017
-300,008	-10,838	0,056	-0,027
-298,993	-31,840	0,043	0,017
-297,978	30,551	0,019	-0,012
-296,964	192,785	0,072	-0,080
-295,949	-200,000	0,004	-0,031
-294,935	27,234	0,032	-0,020
-293,920	-86,439	0,079	0,018
-292,905	800,000	-0,058	0,118
-291,891	-67,293	0,138	0,039
-290,876	-200,000	0,018	-0,075
-289,862	80,840	-0,103	0,081
-288,847	-0,240	-0,110	-0,057
-287,832	31,354	-0,033	-0,021
-286,818	-200,000	-0,013	0,043
-285,803	800,000	-0,027	0,084
-284,789	377,553	0,037	-0,055
-283,774	244,104	-0,058	0,072
-282,759	-200,000	-0,008	-0,110
-281,745	-45,641	-0,094	0,034
-280,730	16,147	0,077	0,044
-279,716	800,000	0,027	-0,070
-278,701	36,491	0,057	-0,037
-277,686	-200,000	-0,005	-0,042
-276,672	-200,000	-0,031	-0,100
-275,657	-170,483	-0,159	-0,004
-274,643	800,000	-0,033	0,086
-273,628	800,000	0,033	-0,101
-272,613	-200,000	-0,029	-0,179
-271,599	61,667	0,081	-0,059
-270,584	563,457	0,054	0,096
-269,570	54,985	0,080	0,057
-268,555	749,118	-0,013	-0,026
-267,540	-200,000	-0,003	0,039
-266,526	109,512	-0,117	-0,102
-265,511	-45,290	0,132	-0,047
-264,497	274,650	-0,023	-0,030
-263,482	-200,000	0,017	0,080
-262,467	800,000	0,080	0,168
-261,453	800,000	0,092	0,206
-260,438	-18,923	-0,133	-0,060
-259,424	-200,000	0,002	-0,138
-258,409	-43,609	0,039	-0,014
-257,395	-74,432	-0,045	0,012
-256,380	16,634	0,080	-0,046
-255,365	-200,000	0,003	0,065
-254,351	-33,607	0,033	0,013
-253,336	701,550	-0,069	-0,133
-252,322	479,292	0,021	-0,035
-251,307	-25,633	0,061	0,026
-250,292	-175,508	-0,137	0,003
-249,278	-200,000	0,008	0,096
-248,263	53,439	-0,038	0,027
-247,249	800,000	0,070	0,143
-246,234	-72,047	0,048	-0,013
-245,219	-127,238	0,119	0,013
-244,205	601,709	-0,064	-0,117
-243,190	242,152	0,114	-0,139
-242,176	245,129	-0,021	0,026
-241,161	119,080	-0,069	-0,062
-240,146	800,000	0,044	-0,089
-239,132	-200,000	-0,029	0,112
-238,117	-138,771	-0,126	-0,010
-237,103	-90,694	-0,026	0,005
-236,088	-100,831	-0,147	0,026
-235,073	-200,000	0,016	0,069
-234,059	-200,000	0,013	-0,055
-233,044	528,767	0,067	-0,115
-232,030	-200,000	-0,002	-0,021
-231,015	-8,963	0,098	-0,047
-230,000	-163,873	-0,041	0,001
-228,986	-200,000	-0,027	-0,094
-227,971	95,265	0,023	0,019
-226,957	-200,000	0,009	0,066
-225,942	-110,300	0,144	0,022
-224,927	800,000	0,028	-0,060
-223,913	-200,000	-0,028	0,116
-222,898	366,393	0,045	-0,067
-221,884	-57,366	-0,038	0,012
-220,869	-133,011	0,060	-0,005
-219,855	-11,313	0,056	0,027
-218,840	565,318	-0,005	0,009
-217,825	26,429	0,118	0,072
-216,811	-4,685	-0,060	0,030
-215,796	-200,000	0,015	-0,211
-214,782	-43,241	-0,101	-0,037
-213,767	64,930	0,078	-0,057
-212,752	-200,000	0,023	0,128
-211,738	2,762	-0,031	-0,017
-210,723	642,610	-0,040	0,074
-209,709	-82,962	0,126	0,029
-208,694	156,322	0,032	0,032
-207,679	800,000	-0,047	-0,109
-206,665	-53,836	-0,040	-0,013
-205,650	800,000	0,030	-0,064
-204,636	800,000	-0,023	-0,067
-203,621	-79,011	0,066	0,016
-202,606	131,663	0,055	-0,051
-201,592	38,122	-0,065	-0,042
-200,577	800,000	0,052	-0,116
-199,563	-33,515	0,127	-0,051
-198,548	800,000	-0,030	0,094
-197,533	456,675	-0,062	0,100
-196,519	800,000	0,023	0,054
-195,504	238,540	0,044	-0,054
-194,490	-200,000	0,000	-0,033
-193,475	-76,049	-0,064	0,016
-192,460	318,460	0,027	-0,037
-191,446	-36,520	-0,103	0,040
-190,431	-13,804	0,049	-0,023
-189,417	-137,813	0,053	-0,004
-188,402	-172,056	0,022	-0,001
-187,387	-181,047	0,066	0,001
-186,373	800,000	-0,071	-0,166
-185,358	306,469	-0,038	0,051
-184,344	-21,441	0,057	-0,025
-183,329	-42,482	-0,017	-0,006
-182,315	5,054	-0,197	0,105
-181,300	800,000	0,048	-0,151
-180,285	-50,464	-0,140	0,048
-179,271	-72,626	-0,075	0,020
-178,256	81,141	-0,035	0,027
-177,242	-123,300	0,113	0,013
-176,227	800,000	0,037	0,085
-175,212	69,221	0,061	-0,046
-174,198	800,000	0,040	0,082
-173,183	2,343	-0,102	0,053
-172,169	-51,777	-0,118	-0,040
-171,154	-200,000	0,001	-0,080
-170,139	-155,977	-0,070	0,003
-169,125	-200,000	0,006	0,100
-168,110	654,062	-0,034	0,064
-167,096	-103,899	-0,094	-0,016
-166,081	0,770	-0,099	-0,051
-165,066	149,505	0,035	-0,035
-164,052	367,617	0,090	-0,132
-163,037	800,000	0,024	-0,053
-162,023	-200,000	-0,007	0,063
-161,008	63,209	0,028	0,021
-159,993	-200,000	0,039	0,130
-158,979	800,000	0,034	0,075
-157,964	-139,665	-0,065	-0,005
-156,950	800,000	0,015	-0,046
-155,935	-25,332	-0,032	-0,014
-154,920	-200,000	-0,016	0,069
-153,906	737,066	-0,024	0,048
-152,891	-35,890	0,097	-0,038
-151,877	91,886	-0,025	-0,021
-150,862	109,061	0,020	-0,018
-149,847	-118,666	0,096	-0,012
-148,833	135,670	0,092	-0,087
-147,818	67,059	0,074	-0,055
-146,804	784,209	0,027	-0,054
-145,789	170,764	-0,019	-0,019
-144,775	245,078	-0,098	0,121
-143,760	52,018	0,034	-0,023
-142,745	307,370	0,022	0,030
-141,731	660,838	0,031	0,059
-140,716	-200,000	0,005	0,132
-139,702	-200,000	-0,037	0,158
-138,687	124,663	-0,022	-0,020
-137,672	-44,893	0,122	0,044
-136,658	-70,450	0,082	0,022
-135,643	800,000	0,026	-0,075
-134,629	62,136	0,075	-0,054
-133,614	-188,064	0,052	0,000
-132,599	800,000	0,048	0,110
-131,585	146,004	0,064	-0,062
-130,570	-109,128	-0,075	0,012
-129,556	699,283	-0,055	0,106
-128,541	-98,023	-0,076	0,014
-127,526	-200,000	0,004	-0,049
-126,512	-80,260	0,062	-0,015
-125,497	-200,000	0,038	0,176
-124,483	-142,790	0,165	0,012
-123,468	453,794	-0,077	0,125
-122,453	800,000	-0,015	0,032
-121,439	315,352	0,088	0,121
-120,424	-55,176	-0,036	0,012
-119,410	322,465	0,054	0,075
-118,395	19,318	0,123	0,072
-117,380	-23,193	-0,058	-0,025
-116,366	60,719	-0,135	-0,097
-115,351	68,988	-0,122	0,091
-114,337	-200,000	-0,023	-0,100
-113,322	-200,000	0,006	0,094
-112,307	800,000	-0,059	-0,143
-111,293	-185,443	0,126	-0,001
-110,278	-200,000	-0,011	0,064
-109,264	31,136	0,078	0,048
-108,249	92,465	-0,045	0,037
-107,234	32,562	-0,062	-0,039
-106,220	800,000	0,042	-0,090
-105,205	-71,197	0,016	-0,004
-104,191	28,979	0,032	-0,020
-103,176	-63,592	0,086	0,025
-102,162	-200,000	-0,005	-0,097
-101,147	77,586	-0,096	-0,074
-100,132	-162,872	-0,096	0,003
-99,118	-200,000	0,018	0,130
-98,103	800,000	-0,047	-0,098
-97,089	-200,000	0,025	-0,085
-96,074	334,794	-0,043	0,061
-95,059	-75,134	-0,069	0,018
-94,045	304,756	-0,063	0,086
-93,030	-200,000	0,000	0,083
-92,016	63,393	-0,039	0,028
-91,001	-57,697	0,052	0,016
-89,986	-200,000	-0,041	-0,138
-88,972	-118,213	-0,048	0,006
-87,957	46,626	0,082	0,055
-86,943	800,000	-0,028	-0,062
-85,928	93,753	0,081	-0,067
-84,913	586,037	-0,064	-0,115
-83,899	14,968	0,124	-0,070
-82,884	15,636	-0,073	0,042
-81,870	250,958	0,048	0,059
-80,855	116,992	0,128	0,114
-79,840	800,000	-0,046	0,102
-78,826	7,104	0,051	-0,027
-77,811	-99,292	-0,187	-0,034
-76,797	136,109	-0,028	0,026
-75,782	-200,000	0,023	0,162
-74,767	203,427	0,051	0,057
-73,753	59,125	-0,098	0,070
-72,738	-1,265	-0,085	-0,043
-71,724	67,586	0,078	0,058
-70,709	81,988	-0,090	-0,070
-69,694	270,267	0,019	0,024
-68,680	681,969	0,048	0,091
-67,665	-200,000	0,011	0,063
-66,651	120,424	0,152	0,137
-65,636	800,000	0,034	-0,068
-64,622	-115,453	-0,154	0,021
-63,607	-200,000	-0,010	-0,044
-62,592	-200,000	-0,004	-0,043
-61,578	-61,911	0,011	-0,003
-60,563	-15,253	0,067	0,031
-59,549	-200,000	-0,010	-0,035
-58,534	-82,324	-1,618	-0,378
-57,519	657,719	-0,732	-1,369
-56,505	-200,000	-0,948	-4,464
-55,490	-37,570	0,572	-0,220
-54,476	800,000	5,131	11,810
-53,461	-200,000	14,535	258,616
-52,446	-200,000	696,178	2234,463
-51,432	565,558	1622,410	2860,028
-50,417	117,593	1630,015	1452,249
-49,403	74,675	1283,888	977,013
-48,388	37,392	1022,491	654,913
-47,373	23,234	981,455	582,141
-46,359	22,405	970,883	573,135
-45,344	21,252	966,633	566,841
-44,330	21,236	965,049	565,838
-43,315	21,108	963,641	564,572
-42,300	21,165	962,423	564,020
-41,286	21,122	961,496	563,316
-40,271	21,084	960,606	562,651
-39,257	21,090	959,555	562,031
-38,242	21,080	958,960	561,628
-37,227	21,075	957,936	560,990
-36,213	21,056	957,017	560,368
-35,198	20,990	956,198	559,654
-34,184	21,082	955,331	559,419
-33,169	21,043	954,663	558,881
-32,154	21,146	953,652	558,599
-31,140	21,095	952,771	557,896
-30,125	21,137	952,148	557,644
-29,111	21,109	951,268	557,019
-28,096	21,033	950,642	556,385
-27,082	21,058	949,904	556,012
-26,067	21,104	949,116	555,676
-25,052	21,087	948,353	555,151
-24,038	21,094	947,800	554,829
-23,023	21,109	946,905	554,330
-22,009	21,141	946,483	554,164
-20,994	21,133	945,858	553,751
-19,979	21,078	945,305	553,229
-18,965	21,002	944,891	552,723
-17,950	21,137	943,945	552,576
-16,936	21,058	943,223	551,881
-15,921	20,978	942,685	551,288
-14,906	20,928	942,022	550,722
-13,892	20,919	941,460	550,343
-12,877	20,934	940,609	549,870
-11,863	20,967	939,920	549,550
-10,848	20,972	939,587	549,350
-9,833	21,075	939,109	549,375
-8,819	21,064	938,585	549,012
-7,804	21,014	937,811	548,378
-6,790	20,935	937,236	547,770
-5,775	21,027	936,509	547,614
-4,760	20,944	936,102	547,094
-3,746	20,940	935,537	546,731
-2,731	20,776	934,711	545,708
-1,717	20,724	933,963	545,087
-0,702	20,796	933,282	544,893
0,313	20,592	932,595	544,673
1,327	23,673	930,726	553,205
2,342	33,047	793,927	496,782
3,356	30,605	450,541	278,221
4,371	0,078	294,431	151,307
5,386	-4,307	275,429	137,374
6,400	-5,530	269,784	133,409
7,415	-5,826	267,497	131,994
8,429	-5,718	266,303	131,492
9,444	-5,653	265,367	131,078
10,459	-5,624	264,851	130,837
11,473	-5,882	264,230	130,284
12,488	-5,765	263,691	130,113
13,502	-6,008	263,186	129,632
14,517	-5,824	262,681	129,538
15,531	-5,932	262,295	129,239
16,546	-5,744	262,076	129,288
17,561	-5,760	261,649	129,052
18,575	-5,826	261,403	128,860
19,590	-5,753	260,926	128,679
20,604	-5,720	260,638	128,555
21,619	-5,795	260,349	128,334
22,634	-5,789	259,937	128,125
23,648	-5,853	259,683	127,931
24,663	-5,888	259,480	127,788
25,677	-5,797	259,265	127,752
26,692	-5,972	258,972	127,441
27,707	-5,878	258,687	127,373
28,721	-5,825	258,345	127,240
29,736	-5,848	258,280	127,176
30,750	-6,077	257,963	126,805
31,765	-6,012	257,761	126,753
32,780	-5,742	257,469	126,837
33,794	-5,751	257,256	126,713
34,809	-5,677	257,023	126,651
35,823	-5,906	256,853	126,354
36,838	-5,929	256,489	126,144
37,853	-5,871	256,279	126,080
38,867	-6,071	256,019	125,765
39,882	-5,922	255,843	125,799
40,896	-6,114	255,486	125,443
41,911	-5,964	255,371	125,507
42,926	-5,875	255,187	125,484
43,940	-5,936	254,870	125,263
44,955	-5,725	254,671	125,338
45,969	-6,077	254,521	124,946
46,984	-6,196	254,126	124,637
47,999	-6,473	254,033	124,339
49,013	-6,521	253,696	124,121
50,028	-6,574	253,540	123,988
51,042	-6,634	253,204	123,760
52,057	-6,763	252,938	123,507
53,071	-6,775	252,883	123,458
54,086	-6,315	252,507	123,662
55,101	-6,365	252,364	123,538
56,115	-6,207	252,298	123,632
57,130	-5,897	252,229	123,855
58,144	-5,621	251,949	123,945
59,159	-5,671	251,783	123,809
60,174	-5,822	251,545	123,551
61,188	-5,727	251,378	123,540
62,203	-5,729	251,288	123,483
63,217	-5,732	251,077	123,365
64,232	-5,649	250,811	123,296
65,247	-5,562	250,431	123,173
66,261	-5,892	250,369	122,847
67,276	-6,058	250,130	122,577
68,290	-6,083	249,963	122,463
69,305	-6,145	249,638	122,240
70,320	-6,188	249,453	122,102
71,334	-5,962	249,369	122,243
72,349	-5,826	249,116	122,224
73,363	-5,728	249,063	122,271
74,378	-6,007	248,851	121,918
75,393	-5,808	248,585	121,945
76,407	-5,687	248,438	121,966
77,422	-5,845	248,307	121,756
78,436	-5,821	248,023	121,626
79,451	-5,724	247,661	121,520
80,466	-5,886	247,518	121,302
81,480	-6,068	247,208	120,985
82,495	-6,204	247,160	120,836
83,509	-5,909	247,006	120,999
84,524	-5,979	246,706	120,782
85,539	-5,982	246,513	120,675
86,553	-6,314	246,339	120,298
87,568	-6,183	246,127	120,295
88,582	-6,056	245,803	120,233
89,597	-6,060	245,709	120,173
90,611	-5,972	245,508	120,137
91,626	-5,868	245,448	120,185
92,641	-5,820	245,213	120,100
93,655	-5,782	245,054	120,042
94,670	-6,026	244,904	119,754
95,684	-6,181	244,838	119,581
96,699	-6,088	244,668	119,565
97,714	-6,013	244,268	119,422
98,728	-6,076	243,987	119,221
99,743	-6,095	243,757	119,083
100,757	-6,315	243,687	118,854
101,772	-6,308	243,442	118,730
102,787	-6,060	243,316	118,865
103,801	-6,152	243,121	118,682
104,816	-6,272	243,073	118,548
105,830	-5,839	242,853	118,790
106,845	-5,939	242,783	118,662
107,860	-5,617	242,495	118,777
108,874	-5,982	242,156	118,298
109,889	-5,976	242,071	118,252
110,903	-5,842	241,841	118,239
111,918	-6,081	241,734	117,979
112,933	-5,939	241,583	118,012
113,947	-5,718	241,401	118,095
114,962	-5,818	241,246	117,926
115,976	-6,048	241,109	117,659
116,991	-5,848	240,937	117,729
118,006	-5,819	240,709	117,631
119,020	-5,819	240,620	117,577
120,035	-5,729	240,345	117,506
121,049	-5,722	240,203	117,432
122,064	-5,739	240,135	117,375
123,079	-5,921	239,998	117,148
124,093	-6,032	239,653	116,878
125,108	-6,342	239,606	116,591
126,122	-6,372	239,115	116,318
127,137	-6,320	239,009	116,299
128,151	-6,150	238,888	116,368
129,166	-6,196	238,729	116,242
130,181	-6,313	238,528	116,039
131,195	-6,240	238,359	116,006
132,210	-6,171	238,279	116,013
133,224	-5,799	238,080	116,207
134,239	-5,901	237,902	116,027
135,254	-5,834	237,688	115,967
136,268	-6,141	237,463	115,599
137,283	-6,291	237,232	115,354
138,297	-6,168	236,970	115,316
139,312	-6,324	236,943	115,166
140,327	-6,125	236,891	115,291
141,341	-5,633	236,669	115,570
142,356	-5,431	236,440	115,610
143,370	-5,568	236,443	115,491
144,385	-5,571	236,318	115,417
145,400	-5,565	236,139	115,325
146,414	-5,666	235,949	115,140
147,429	-5,670	235,643	114,978
148,443	-5,597	235,542	114,977
149,458	-5,605	235,409	114,895
150,473	-5,487	235,160	114,857
151,487	-5,538	235,057	114,756
152,502	-5,560	234,909	114,656
153,516	-5,564	234,779	114,579
154,531	-5,486	234,520	114,505
155,546	-5,492	234,337	114,401
156,560	-5,497	234,166	114,303
157,575	-5,811	233,973	113,949
158,589	-5,730	233,729	113,884
159,604	-5,664	233,687	113,906
160,619	-5,533	233,669	113,991
161,633	-5,590	233,334	113,772
162,648	-5,370	233,171	113,857
163,662	-5,413	233,089	113,773
164,677	-5,608	232,903	113,517
165,692	-5,543	232,831	113,524
166,706	-5,524	232,658	113,444
167,721	-5,526	232,504	113,358
168,735	-5,450	232,315	113,316
169,750	-5,434	232,400	113,359
170,764	-5,512	232,111	113,146
171,779	-5,657	231,963	112,950
172,794	-5,341	231,810	113,114
173,808	-5,669	231,606	112,747
174,823	-6,053	231,255	112,264
175,837	-6,166	231,016	112,050
176,852	-5,855	231,093	112,321
177,867	-5,614	230,986	112,448
178,881	-5,723	230,812	112,268
179,896	-5,535	230,761	112,380
180,910	-5,725	230,547	112,118
181,925	-5,445	230,382	112,246
182,940	-5,426	230,226	112,174
183,954	-5,196	229,973	112,221
184,969	-5,379	229,741	111,955
185,983	-5,286	229,671	111,983
186,998	-5,422	229,717	111,890
188,013	-5,317	229,349	111,783
189,027	-5,491	229,274	111,600
190,042	-5,289	229,058	111,642
191,056	-5,362	228,984	111,540
192,071	-5,476	228,860	111,381
193,086	-5,540	228,659	111,223
194,100	-5,621	228,499	111,073
195,115	-5,640	228,077	110,843
196,129	-6,454	227,932	110,134
197,144	-3,436	228,863	112,914
198,159	1,187	230,168	117,145
199,173	3,868	230,754	119,519
200,188	3,873	230,793	119,533
201,202	3,940	230,622	119,485
202,217	4,009	230,507	119,469
203,232	4,338	230,431	119,674
204,246	4,459	230,187	119,630
205,261	4,411	229,984	119,477
206,275	4,335	230,065	119,449
207,290	4,620	229,729	119,485
208,304	4,546	229,680	119,391
209,319	4,352	229,549	119,163
210,334	4,343	229,358	119,046
211,348	3,997	229,132	118,651
212,363	3,802	228,871	118,356
213,377	3,701	228,590	118,122
214,392	3,626	228,480	117,997
215,407	3,718	228,329	117,979
216,421	3,681	228,207	117,877
217,436	3,770	227,915	117,785
218,450	3,638	227,657	117,539
219,465	3,169	227,709	117,196
220,480	3,376	227,546	117,260
221,494	3,442	227,500	117,277
222,509	3,502	227,371	117,245
223,523	3,743	227,223	117,343
224,538	3,500	226,907	116,984
225,553	3,689	226,740	117,032
226,567	3,719	226,783	117,066
227,582	3,788	226,677	117,054
228,596	3,832	226,537	117,004
229,611	3,629	226,335	116,736
230,626	3,479	225,971	116,423
231,640	3,272	226,072	116,307
232,655	3,786	225,866	116,582
233,669	4,207	225,850	116,882
234,684	4,274	225,691	116,840
235,699	4,004	225,439	116,495
236,713	3,774	225,210	116,192
237,728	3,580	225,083	115,970
238,742	3,546	224,880	115,829
239,757	3,696	224,724	115,852
240,772	3,675	224,550	115,736
241,786	3,601	224,398	115,591
242,801	3,863	224,317	115,737
243,815	4,007	224,364	115,859
244,830	3,934	224,110	115,663
245,844	3,796	223,830	115,403
246,859	3,690	223,664	115,229
247,874	3,747	223,643	115,251
248,888	3,969	223,479	115,322
249,903	3,833	223,287	115,110
250,917	3,674	223,183	114,927
251,932	3,490	223,073	114,724
252,947	3,493	222,834	114,592
253,961	3,588	222,666	114,567
254,976	3,835	222,541	114,676
255,990	3,861	222,528	114,679
257,005	3,908	222,322	114,598
258,020	3,820	222,327	114,524
259,034	4,052	222,111	114,575
260,049	3,986	221,911	114,412
261,063	3,841	221,791	114,233
262,078	3,951	221,665	114,240
263,093	4,107	221,473	114,247
264,107	3,897	221,400	114,043
265,122	3,809	221,391	113,962
266,136	4,198	221,217	114,152
267,151	4,243	220,843	113,982
268,166	3,596	220,617	113,376
269,180	3,438	220,521	113,200
270,195	3,550	220,389	113,205
271,209	3,594	220,176	113,118
272,224	3,585	220,189	113,108
273,239	3,732	220,034	113,127
274,253	3,498	219,790	112,819
275,268	3,348	219,688	112,646
276,282	3,520	219,418	112,624
277,297	3,470	219,336	112,536
278,312	3,412	219,306	112,467
279,326	3,600	219,287	112,586
280,341	3,669	218,933	112,444
281,355	3,717	218,808	112,405
282,370	3,643	218,708	112,290
283,384	3,339	218,484	111,943
284,399	3,430	218,192	111,849
285,414	3,272	218,225	111,740
286,428	3,588	218,164	111,930
287,443	3,835	218,016	112,024
288,457	3,697	217,933	111,871
289,472	3,543	217,721	111,640
290,487	3,333	217,442	111,335
291,501	3,239	217,212	111,139
292,516	3,350	217,172	111,189
293,530	3,210	217,104	111,042
294,545	3,456	216,900	111,106
295,560	3,399	216,854	111,032
296,574	3,749	216,694	111,193
297,589	3,654	216,638	111,086
298,603	3,799	216,511	111,116
299,618	3,820	216,469	111,100
300,633	3,619	216,329	110,872
301,647	3,862	216,119	110,930
302,662	3,711	215,917	110,708
303,676	3,833	215,982	110,819
304,691	4,140	215,817	110,946
305,706	3,872	215,684	110,674
306,720	3,997	215,465	110,643
307,735	3,587	215,290	110,248
308,749	3,633	215,050	110,148
309,764	3,728	215,051	110,207
310,779	3,781	215,011	110,215
311,793	3,590	214,862	109,992
312,808	3,684	214,566	109,897
313,822	3,820	214,443	109,922
314,837	3,821	214,199	109,788
315,852	3,601	214,047	109,544
316,866	3,729	213,909	109,554
317,881	3,950	213,879	109,687
318,895	3,769	213,750	109,482
319,910	3,755	213,552	109,360
320,925	3,501	213,351	109,067
321,939	3,157	213,259	108,766
322,954	3,251	213,191	108,788
323,968	3,925	213,125	109,224
324,983	3,824	213,067	109,112
325,997	3,763	212,916	108,983
327,012	3,620	212,691	108,756
328,027	3,774	212,597	108,807
329,041	4,119	212,585	109,036
330,056	3,971	212,372	108,812
331,070	3,638	212,216	108,487
332,085	3,463	211,849	108,167
333,100	3,572	211,799	108,208
334,114	3,852	211,752	108,372
335,129	3,883	211,422	108,215
336,143	3,591	211,410	107,994
337,158	3,568	211,255	107,889
338,173	3,641	211,156	107,880
339,187	3,540	210,886	107,662
340,202	3,395	210,796	107,504
341,216	3,245	210,683	107,332
342,231	3,550	210,568	107,477
343,246	3,711	210,477	107,534
344,260	3,354	210,346	107,208
345,275	3,670	210,207	107,348
346,289	3,661	210,218	107,338
347,304	3,664	210,018	107,228
348,319	3,338	209,778	106,869
349,333	3,641	209,718	107,040
350,348	3,784	209,620	107,080
351,362	3,861	209,551	107,089
352,377	3,736	209,309	106,868
353,392	3,615	209,305	106,774
354,406	3,813	209,094	106,794
355,421	194,674	1343,574	1431,443
356,435	155,384	1481,877	1431,524
