DTS Sentinel unit serial number:	SN410029Multiplexer serial number:	ORYXHardware model number:	OX2-SRSoftware version number:	ORYX F/W v4,00 Oryx Data Collector v3.7.2.0data status	okinstallation	B6 Nyhavnadifferential loss correction	single-endedforward channel	channel 2reverse channel	N/Adate	2023/12/10time	12:20:08forward acquisition time	300,00reverse acquisition time	0,00gamma	499,1914k internal	0,3122k external	0,3122temperature offset calibration	1,0000default loss term (dB/km)	0,3820temperature slope calibration	1,0000multiplexer offset coefficient	1,0000multiplexer slope coefficient	1,0000fibre end	0,00T internal ref (°C)	22,76T ext. ref 1 (°C)	6,66T ext. ref 2 (°C)	6,67length (m)	temperature (°C)	Stokes	anti-Stokes-744,400	-200,000	0,002	-0,026
-743,385	72,279	-0,283	0,220
-742,371	194,329	0,024	0,027
-741,356	66,684	-0,262	0,199
-740,342	-50,731	0,054	-0,019
-739,327	181,599	-0,055	-0,060
-738,312	-200,000	-0,018	-0,086
-737,298	33,117	-0,235	0,151
-736,283	122,501	0,099	-0,092
-735,269	-50,320	-0,166	0,058
-734,254	800,000	0,042	0,096
-733,239	-181,476	-0,469	-0,007
-732,225	-47,933	0,197	-0,071
-731,210	-200,000	-0,010	0,045
-730,196	406,859	0,036	0,058
-729,181	-105,805	-0,120	-0,020
-728,167	800,000	0,020	-0,045
-727,152	-84,868	0,077	0,018
-726,137	106,210	-0,032	-0,028
-725,123	-54,340	-0,093	0,031
-724,108	121,441	0,040	0,037
-723,094	131,556	-0,018	-0,017
-722,079	-16,646	0,039	0,018
-721,064	-145,427	-0,056	0,004
-720,050	489,588	0,044	0,076
-719,035	-49,893	-0,012	0,004
-718,021	-200,000	-0,001	-0,012
-717,006	800,000	-0,039	0,102
-715,991	-165,174	-0,124	-0,004
-714,977	-115,884	-0,096	0,013
-713,962	99,574	-0,089	-0,077
-712,948	800,000	-0,011	-0,035
-711,933	258,938	-0,045	-0,058
-710,918	-200,000	-0,003	0,067
-709,904	164,068	-0,114	-0,120
-708,889	-200,000	0,000	-0,112
-707,875	293,305	-0,044	0,060
-706,860	676,563	-0,047	0,090
-705,845	-42,358	0,094	-0,035
-704,831	800,000	-0,015	-0,049
-703,816	158,205	-0,018	-0,019
-702,802	-52,540	-0,155	-0,053
-701,787	-47,750	-0,016	0,006
-700,772	-128,841	-0,172	0,018
-699,758	-200,000	0,029	-0,200
-698,743	322,254	0,023	0,032
-697,729	42,067	0,124	0,083
-696,714	-65,873	0,094	0,028
-695,699	782,611	0,030	-0,062
-694,685	-73,824	-0,096	-0,026
-693,670	-30,661	-0,094	0,040
-692,656	231,428	0,037	0,045
-691,641	-200,000	0,010	-0,046
-690,627	427,848	0,065	-0,104
-689,612	-200,000	-0,023	0,080
-688,597	-200,000	-0,046	-0,161
-687,583	789,513	-0,075	-0,153
-686,568	-200,000	-0,004	-0,068
-685,554	-200,000	0,036	0,128
-684,539	20,918	0,039	0,023
-683,524	151,368	0,027	0,028
-682,510	-200,000	0,002	0,080
-681,495	-104,033	-0,083	-0,014
-680,481	-71,628	0,056	-0,016
-679,466	354,010	-0,080	-0,118
-678,451	506,394	0,065	-0,113
-677,437	237,320	-0,022	-0,027
-676,422	-142,065	0,169	0,012
-675,408	800,000	0,027	0,069
-674,393	723,683	0,081	-0,161
-673,378	494,228	-0,047	-0,081
-672,364	297,878	-0,058	-0,079
-671,349	-200,000	0,014	0,096
-670,335	88,653	0,073	-0,060
-669,320	-139,292	-0,098	0,008
-668,305	-141,249	-0,058	0,004
-667,291	-100,841	0,075	0,014
-666,276	-94,207	0,144	0,029
-665,262	800,000	-0,041	-0,101
-664,247	59,274	0,041	-0,030
-663,232	-200,000	0,010	-0,161
-662,218	489,614	0,003	0,004
-661,203	-132,570	0,106	-0,010
-660,189	800,000	-0,060	-0,132
-659,174	-200,000	0,010	0,079
-658,159	-200,000	0,012	-0,109
-657,145	133,548	-0,096	-0,093
-656,130	308,392	-0,055	-0,076
-655,116	-26,021	-0,011	-0,005
-654,101	800,000	0,065	-0,171
-653,086	423,159	-0,027	-0,044
-652,072	-48,032	-0,094	-0,034
-651,057	160,898	0,047	-0,049
-650,043	647,725	-0,029	-0,055
-649,028	750,611	0,026	-0,053
-648,014	-117,803	0,074	0,010
-646,999	-200,000	-0,001	0,107
-645,984	-34,804	0,067	0,027
-644,970	-200,000	-0,007	0,037
-643,955	96,670	-0,064	-0,055
-642,941	9,738	0,076	-0,043
-641,926	800,000	-0,004	0,010
-640,911	91,847	0,065	-0,054
-639,897	122,640	0,164	0,152
-638,882	-200,000	0,005	0,116
-637,868	49,276	-0,089	-0,062
-636,853	-126,960	0,070	-0,008
-635,838	-200,000	0,001	0,026
-634,824	89,250	-0,109	-0,090
-633,809	-106,809	0,068	0,011
-632,795	618,836	-0,098	-0,183
-631,780	67,581	0,090	-0,068
-630,765	57,029	-0,166	0,120
-629,751	-25,583	0,037	-0,016
-628,736	247,386	0,041	0,051
-627,722	-200,000	0,010	-0,104
-626,707	7,705	0,039	-0,022
-625,692	800,000	0,042	0,093
-624,678	-200,000	-0,021	0,110
-623,663	-200,000	0,003	-0,169
-622,649	800,000	0,016	-0,035
-621,634	800,000	-0,028	0,069
-620,619	80,449	-0,105	-0,084
-619,605	403,937	-0,022	-0,034
-618,590	-200,000	-0,039	0,153
-617,576	-153,682	0,161	-0,008
-616,561	-10,738	0,125	-0,061
-615,546	24,269	-0,095	-0,058
-614,532	46,479	-0,082	-0,056
-613,517	224,723	0,069	-0,083
-612,503	-200,000	-0,010	-0,085
-611,488	-88,868	-0,096	0,021
-610,474	29,855	0,034	-0,021
-609,459	313,441	-0,094	0,132
-608,444	78,534	0,061	0,048
-607,430	-117,805	0,064	0,008
-606,415	-200,000	-0,021	-0,100
-605,401	-16,035	-0,015	-0,007
-604,386	-172,742	-0,044	-0,001
-603,371	-200,000	-0,019	0,125
-602,357	-1,516	-0,161	0,084
-601,342	800,000	-0,052	-0,111
-600,328	-200,000	-0,010	-0,080
-599,313	-200,000	-0,017	-0,136
-598,298	-13,554	0,138	0,066
-597,284	-200,000	0,004	0,017
-596,269	-159,950	0,201	-0,008
-595,255	73,717	0,029	0,023
-594,240	209,544	-0,045	0,052
-593,225	-200,000	0,004	0,049
-592,211	800,000	-0,023	-0,071
-591,196	-200,000	-0,008	0,093
-590,182	-74,034	-0,110	-0,029
-589,167	-200,000	0,020	0,103
-588,152	61,363	-0,073	0,054
-587,138	-69,849	-0,088	0,025
-586,123	310,510	-0,045	0,062
-585,109	6,800	-0,018	-0,010
-584,094	-164,826	-0,032	0,001
-583,079	113,060	0,130	0,117
-582,065	98,238	-0,046	-0,039
-581,050	31,334	0,021	-0,013
-580,036	393,858	-0,036	0,056
-579,021	693,470	-0,069	-0,134
-578,006	-11,184	-0,065	-0,031
-576,992	-51,566	0,133	0,046
-575,977	4,145	0,075	-0,040
-574,963	115,648	-0,144	0,130
-573,948	-200,000	-0,020	0,201
-572,934	-165,494	-0,118	-0,004
-571,919	-60,333	-0,052	-0,016
-570,904	-200,000	-0,005	-0,157
-569,890	-200,000	0,015	-0,110
-568,875	-118,730	0,138	-0,018
-567,861	337,044	0,099	0,142
-566,846	117,317	0,081	0,073
-565,831	-115,367	-0,090	0,012
-564,817	800,000	-0,026	0,066
-563,802	-134,640	-0,122	-0,011
-562,788	-27,762	-0,101	-0,043
-561,773	110,855	0,042	0,038
-560,758	-200,000	0,008	-0,081
-559,744	-200,000	-0,001	-0,010
-558,729	-200,000	0,005	0,075
-557,715	800,000	-0,009	0,022
-556,700	800,000	-0,016	-0,054
-555,685	-68,687	0,097	-0,028
-554,671	-200,000	0,033	-0,125
-553,656	-44,907	-0,116	0,043
-552,642	-60,649	-0,068	-0,021
-551,627	213,631	-0,050	0,059
-550,612	-11,720	0,084	0,041
-549,598	278,580	-0,069	-0,092
-548,583	434,931	-0,021	0,034
-547,569	-200,000	-0,015	0,090
-546,554	65,522	0,110	-0,082
-545,539	218,631	0,089	-0,106
-544,525	146,046	0,167	0,166
-543,510	163,152	-0,135	-0,141
-542,496	-156,065	0,080	0,004
-541,481	-200,000	0,003	-0,075
-540,466	-146,813	0,129	0,008
-539,452	6,160	0,120	0,066
-538,437	-200,000	0,008	-0,048
-537,423	800,000	-0,042	-0,097
-536,408	192,525	-0,090	-0,100
-535,393	-200,000	0,008	-0,031
-534,379	49,890	-0,138	-0,096
-533,364	194,818	0,094	-0,106
-532,350	-200,000	-0,004	-0,068
-531,335	-78,363	-0,071	0,018
-530,321	-90,565	0,098	-0,021
-529,306	800,000	-0,072	0,192
-528,291	640,853	-0,067	-0,127
-527,277	759,084	0,038	-0,077
-526,262	322,196	-0,109	-0,154
-525,248	204,780	-0,036	0,042
-524,233	-134,577	0,025	-0,002
-523,218	-200,000	0,028	0,099
-522,204	80,872	-0,086	0,069
-521,189	147,011	-0,090	-0,090
-520,175	-84,464	0,049	0,011
-519,160	-37,796	0,059	-0,023
-518,145	69,759	0,038	-0,029
-517,131	-200,000	0,012	-0,052
-516,116	-75,468	-0,085	-0,022
-515,102	-200,000	0,009	0,033
-514,087	257,102	0,060	-0,076
-513,072	-200,000	-0,015	-0,115
-512,058	-80,765	0,060	-0,015
-511,043	63,655	0,033	0,025
-510,029	681,253	-0,010	0,020
-509,014	800,000	0,029	0,082
-507,999	-200,000	0,009	0,096
-506,985	-200,000	-0,005	0,047
-505,970	-200,000	-0,019	-0,081
-504,956	-200,000	0,002	0,011
-503,941	800,000	0,006	0,013
-502,926	-79,783	0,035	0,009
-501,912	117,440	0,058	-0,053
-500,897	337,995	-0,093	-0,133
-499,883	148,672	-0,042	0,042
-498,868	800,000	0,043	-0,112
-497,853	-200,000	0,013	-0,130
-496,839	800,000	-0,050	0,132
-495,824	-200,000	0,016	-0,076
-494,810	-112,680	0,065	-0,009
-493,795	-200,000	0,006	-0,053
-492,781	-41,882	-0,074	0,028
-491,766	-115,977	-0,053	0,007
-490,751	105,025	-0,030	-0,026
-489,737	49,266	0,089	0,062
-488,722	88,197	0,149	0,122
-487,708	-200,000	0,016	0,091
-486,693	-131,488	0,068	0,007
-485,678	800,000	-0,030	0,064
-484,664	37,988	-0,144	-0,095
-483,649	-200,000	-0,022	-0,083
-482,635	-200,000	-0,069	-0,227
-481,620	-200,000	-0,024	0,117
-480,605	800,000	-0,035	-0,106
-479,591	-200,000	-0,030	-0,122
-478,576	157,283	0,089	-0,091
-477,562	743,916	-0,092	-0,184
-476,547	10,141	-0,019	-0,011
-475,532	-87,797	0,071	-0,016
-474,518	-28,268	0,095	0,040
-473,503	-131,628	-0,061	0,006
-472,489	-174,005	-0,052	-0,001
-471,474	330,818	0,124	-0,176
-470,459	-200,000	0,003	-0,098
-469,445	7,177	-0,110	0,060
-468,430	-53,919	0,060	-0,020
-467,416	-200,000	0,001	0,098
-466,401	102,130	0,039	0,034
-465,386	-36,876	0,072	0,029
-464,372	469,786	-0,095	-0,157
-463,357	441,433	0,032	-0,051
-462,343	-200,000	-0,012	-0,148
-461,328	-104,242	0,079	0,013
-460,313	285,777	-0,084	0,112
-459,299	-29,916	-0,042	0,018
-458,284	-200,000	-0,005	0,041
-457,270	-200,000	-0,032	0,153
-456,255	-200,000	0,004	-0,018
-455,241	-17,986	-0,124	-0,057
-454,226	452,572	0,052	-0,085
-453,211	-8,535	0,113	0,056
-452,197	14,507	0,056	-0,032
-451,182	385,766	0,113	0,173
-450,168	651,381	0,027	0,051
-449,153	-200,000	0,009	-0,065
-448,138	-6,678	-0,037	0,018
-447,124	-93,808	-0,181	-0,036
-446,109	374,433	0,055	0,082
-445,095	-127,163	0,118	-0,013
-444,080	-200,000	0,048	0,202
-443,065	800,000	-0,082	0,216
-442,051	-7,081	-0,035	0,018
-441,036	6,292	-0,128	0,070
-440,022	-200,000	0,004	-0,014
-439,007	-3,990	-0,128	0,065
-437,992	-81,636	0,152	0,037
-436,978	-77,780	0,129	0,033
-435,963	-158,165	-0,039	-0,002
-434,949	800,000	0,034	-0,085
-433,934	-200,000	0,008	-0,056
-432,919	-200,000	0,003	-0,024
-431,905	-200,000	-0,008	0,068
-430,890	-62,451	0,109	0,033
-429,876	-127,651	-0,089	0,009
-428,861	800,000	-0,068	0,143
-427,846	-200,000	-0,000	0,028
-426,832	64,790	-0,075	0,056
-425,817	-200,000	0,010	0,097
-424,803	-200,000	0,017	-0,086
-423,788	257,795	0,055	-0,070
-422,773	59,203	0,104	-0,075
-421,759	-170,440	0,063	0,002
-420,744	195,843	0,053	0,060
-419,730	-85,721	0,118	0,027
-418,715	-200,000	-0,007	0,028
-417,701	298,481	-0,075	-0,102
-416,686	800,000	0,021	0,057
-415,671	-137,502	0,073	0,006
-414,657	152,312	0,042	0,042
-413,642	260,209	-0,035	-0,044
-412,628	44,208	-0,020	0,014
-411,613	95,737	-0,162	-0,136
-410,598	114,197	-0,026	0,024
-409,584	-200,000	0,022	0,155
-408,569	34,519	-0,079	-0,051
-407,555	800,000	0,010	-0,021
-406,540	195,662	0,041	0,046
-405,525	52,596	-0,045	0,032
-404,511	88,748	-0,119	0,097
-403,496	252,304	0,073	-0,091
-402,482	284,781	0,067	-0,089
-401,467	-200,000	0,007	0,092
-400,452	24,462	-0,095	0,058
-399,438	-11,159	-0,142	0,068
-398,423	275,100	-0,070	0,091
-397,409	568,309	-0,049	-0,088
-396,394	-200,000	0,004	-0,144
-395,379	800,000	-0,031	-0,085
-394,365	-200,000	0,015	0,073
-393,350	800,000	-0,041	0,116
-392,336	272,207	0,014	0,018
-391,321	207,872	0,047	-0,054
-390,306	-200,000	-0,003	-0,035
-389,292	-120,315	-0,093	-0,011
-388,277	525,882	0,019	0,033
-387,263	800,000	0,054	0,121
-386,248	294,023	-0,048	0,065
-385,233	-33,705	0,025	0,010
-384,219	-56,778	0,037	0,012
-383,204	-200,000	0,010	-0,101
-382,190	800,000	-0,072	-0,166
-381,175	-152,337	0,139	-0,007
-380,160	274,646	0,052	-0,068
-379,146	156,636	-0,089	0,091
-378,131	-200,000	0,043	0,150
-377,117	47,932	0,036	-0,025
-376,102	-200,000	0,007	-0,119
-375,088	-32,740	-0,071	0,029
-374,073	-118,934	0,059	-0,008
-373,058	-91,326	0,084	0,017
-372,044	-200,000	-0,019	-0,061
-371,029	303,126	0,011	0,016
-370,015	-200,000	0,006	-0,062
-369,000	90,796	-0,073	0,060
-367,985	-200,000	0,023	-0,138
-366,971	551,822	0,035	-0,061
-365,956	-132,632	-0,098	-0,009
-364,942	76,957	-0,082	0,064
-363,927	-115,132	0,096	-0,013
-362,912	36,105	0,026	0,017
-361,898	-200,000	0,016	-0,096
-360,883	-121,228	-0,091	-0,011
-359,869	-200,000	-0,003	-0,051
-358,854	-112,153	0,114	-0,017
-357,839	-200,000	0,004	0,013
-356,825	108,347	0,013	-0,012
-355,810	266,383	-0,031	0,040
-354,796	800,000	-0,028	-0,081
-353,781	308,085	0,047	0,065
-352,766	-67,291	0,118	-0,034
-351,752	-18,382	0,042	-0,019
-350,737	800,000	0,029	0,065
-349,723	-200,000	0,000	0,076
-348,708	800,000	0,015	0,036
-347,693	-200,000	-0,010	0,034
-346,679	43,248	0,086	-0,058
-345,664	-51,002	-0,023	0,008
-344,650	215,309	0,069	0,081
-343,635	423,504	0,088	0,139
-342,620	710,195	0,079	0,154
-341,606	70,906	0,027	0,020
-340,591	-200,000	-0,002	-0,014
-339,577	800,000	-0,103	-0,271
-338,562	298,276	0,062	-0,084
-337,548	88,643	-0,094	-0,076
-336,533	-27,612	-0,090	-0,038
-335,518	-200,000	0,012	0,048
-334,504	-54,533	0,059	0,020
-333,489	478,571	-0,007	-0,011
-332,475	11,487	-0,045	0,025
-331,460	-62,479	0,105	-0,032
-330,445	-200,000	-0,009	0,074
-329,431	-200,000	-0,020	0,162
-328,416	215,474	0,008	-0,009
-327,402	-142,404	0,047	0,003
-326,387	-152,822	0,178	-0,009
-325,372	285,120	-0,061	-0,080
-324,358	-200,000	-0,032	-0,225
-323,343	800,000	-0,042	0,109
-322,329	-177,850	0,127	-0,002
-321,314	-200,000	0,000	0,025
-320,299	-152,798	0,038	0,002
-319,285	800,000	0,027	-0,062
-318,270	-44,201	-0,066	0,024
-317,256	60,473	-0,098	0,071
-316,241	800,000	-0,068	0,174
-315,226	-108,179	-0,072	0,011
-314,212	-30,318	0,040	-0,016
-313,197	211,464	-0,049	0,057
-312,183	800,000	-0,010	-0,029
-311,168	-40,121	-0,037	-0,014
-310,153	-200,000	-0,026	-0,130
-309,139	-200,000	-0,014	-0,205
-308,124	-200,000	0,027	0,120
-307,110	-155,059	0,073	-0,003
-306,095	-200,000	0,006	0,072
-305,080	-147,591	0,035	-0,002
-304,066	800,000	0,031	-0,098
-303,051	251,459	0,049	-0,061
-302,037	276,951	0,049	0,063
-301,022	433,122	0,022	0,035
-300,008	67,404	0,037	0,027
-298,993	500,101	0,032	0,055
-297,978	544,104	0,031	-0,054
-296,964	158,360	-0,068	-0,069
-295,949	800,000	0,066	0,173
-294,935	-200,000	-0,029	0,095
-293,920	-200,000	0,005	0,016
-292,905	800,000	0,071	0,173
-291,891	27,178	-0,125	0,077
-290,876	-200,000	0,045	0,146
-289,862	220,269	0,019	-0,022
-288,847	-200,000	-0,018	-0,076
-287,832	240,517	0,066	-0,080
-286,818	800,000	-0,015	-0,034
-285,803	426,640	0,044	-0,070
-284,789	-200,000	0,014	-0,140
-283,774	800,000	0,030	-0,062
-282,759	197,246	-0,038	0,042
-281,745	-200,000	-0,004	0,045
-280,730	11,139	-0,056	-0,031
-279,716	-99,114	0,070	-0,013
-278,701	-83,968	0,080	-0,018
-277,686	-200,000	0,018	0,124
-276,672	1,417	0,081	-0,043
-275,657	-32,521	-0,052	0,021
-274,643	-16,900	0,130	-0,060
-273,628	7,889	-0,070	0,038
-272,613	-49,104	-0,145	0,051
-271,599	48,983	-0,085	0,058
-270,584	-200,000	0,008	0,139
-269,570	-102,593	-0,039	0,007
-268,555	135,706	0,070	-0,067
-267,540	281,312	-0,035	0,045
-266,526	711,687	0,050	-0,097
-265,511	-71,698	-0,045	0,012
-264,497	-200,000	-0,018	-0,115
-263,482	-200,000	0,017	0,209
-262,467	800,000	-0,020	0,055
-261,453	-124,673	0,118	0,013
-260,438	-200,000	0,005	-0,091
-259,424	13,228	0,092	0,052
-258,409	506,723	0,047	-0,080
-257,395	248,957	0,076	0,095
-256,380	40,975	-0,026	-0,017
-255,365	-200,000	-0,004	0,031
-254,351	-53,649	-0,069	0,023
-253,336	-57,688	0,035	-0,011
-252,322	-98,812	-0,126	0,023
-251,307	-60,546	-0,161	-0,050
-250,292	342,791	-0,031	0,045
-249,278	552,236	0,102	-0,179
-248,263	204,758	0,076	-0,086
-247,249	-88,750	-0,154	-0,033
-246,234	-200,000	0,013	-0,045
-245,219	217,495	-0,035	-0,041
-244,205	-32,600	0,086	0,035
-243,190	776,415	-0,017	-0,033
-242,176	402,754	0,081	0,126
-241,161	800,000	-0,017	-0,050
-240,146	161,820	-0,051	0,052
-239,132	800,000	0,014	-0,030
-238,117	800,000	0,020	0,053
-237,103	-200,000	-0,019	-0,154
-236,088	70,598	-0,013	-0,010
-235,073	-200,000	-0,008	0,045
-234,059	774,185	0,056	0,113
-233,044	61,616	0,074	0,054
-232,030	-200,000	0,013	0,070
-231,015	800,000	-0,010	-0,027
-230,000	-137,234	-0,131	0,011
-228,986	-200,000	-0,012	-0,071
-227,971	-150,475	-0,048	-0,003
-226,957	-45,776	-0,169	0,061
-225,942	64,292	0,065	0,048
-224,927	359,871	0,065	-0,095
-223,913	-114,137	-0,138	0,019
-222,898	663,611	-0,083	-0,157
-221,884	800,000	-0,040	0,114
-220,869	23,929	0,087	0,052
-219,855	-200,000	-0,015	0,143
-218,840	-41,468	0,063	0,024
-217,825	-200,000	0,006	0,051
-216,811	17,185	-0,044	-0,025
-215,796	-39,150	-0,042	-0,016
-214,782	175,373	0,123	-0,130
-213,767	574,532	-0,038	-0,068
-212,752	35,789	0,035	0,023
-211,738	303,044	0,027	0,037
-210,723	-158,926	0,202	-0,008
-209,709	800,000	-0,033	-0,091
-208,694	800,000	-0,038	-0,082
-207,679	-200,000	0,014	0,046
-206,665	392,992	0,081	-0,123
-205,650	22,946	-0,048	0,029
-204,636	-37,050	-0,076	-0,029
-203,621	-200,000	0,028	0,142
-202,606	421,883	-0,041	0,065
-201,592	97,908	0,067	0,056
-200,577	3,161	-0,055	-0,029
-199,563	-200,000	-0,008	0,058
-198,548	800,000	0,048	-0,099
-197,533	-130,966	-0,056	-0,005
-196,519	153,563	-0,064	0,064
-195,504	523,341	0,003	0,005
-194,490	-103,524	-0,089	-0,015
-193,475	-200,000	0,006	0,045
-192,460	-5,035	0,015	0,007
-191,446	800,000	-0,012	0,031
-190,431	119,013	0,111	0,100
-189,417	800,000	-0,017	0,044
-188,402	-200,000	0,013	-0,085
-187,387	760,681	-0,042	-0,084
-186,373	-200,000	0,005	0,030
-185,358	533,979	-0,099	-0,171
-184,344	25,539	0,093	0,056
-183,329	167,252	0,077	0,079
-182,315	536,328	-0,099	0,172
-181,300	1,235	-0,097	-0,051
-180,285	-200,000	0,011	-0,060
-179,271	506,298	-0,044	-0,074
-178,256	-0,841	-0,039	-0,020
-177,242	-200,000	-0,001	0,005
-176,227	-28,285	0,170	0,071
-175,212	-200,000	-0,019	-0,075
-174,198	267,803	-0,099	0,127
-173,183	218,329	-0,051	0,060
-172,169	17,106	-0,060	0,035
-171,154	-74,191	-0,114	-0,030
-170,139	276,076	-0,028	0,036
-169,125	-200,000	0,037	0,134
-168,110	-175,103	-0,190	0,004
-167,096	-129,783	-0,066	0,007
-166,081	93,755	-0,065	-0,053
-165,066	-200,000	0,033	-0,117
-164,052	-125,009	-0,076	-0,008
-163,037	-200,000	-0,007	-0,100
-162,023	150,579	0,123	0,122
-161,008	800,000	0,042	0,109
-159,993	242,477	0,084	-0,103
-158,979	-15,619	-0,036	-0,016
-157,964	-200,000	-0,021	0,076
-156,950	210,677	0,121	0,139
-155,935	104,912	-0,077	0,066
-154,920	95,908	0,160	-0,133
-153,906	-200,000	0,002	0,049
-152,891	163,263	-0,113	-0,116
-151,877	97,257	-0,074	-0,062
-150,862	385,684	-0,098	-0,147
-149,847	-200,000	0,001	-0,072
-148,833	-43,827	0,063	0,023
-147,818	174,044	0,050	-0,053
-146,804	483,084	-0,002	0,004
-145,789	305,265	-0,013	-0,017
-144,775	149,951	-0,005	0,005
-143,760	-92,268	-0,070	-0,014
-142,745	-200,000	-0,003	0,083
-141,731	-34,292	-0,099	0,039
-140,716	119,978	0,017	0,015
-139,702	800,000	0,042	0,127
-138,687	119,939	-0,037	0,034
-137,672	-165,114	0,119	0,004
-136,658	-112,829	-0,181	0,026
-135,643	656,012	-0,069	0,129
-134,629	191,654	-0,118	0,130
-133,614	112,303	0,125	0,110
-132,599	-132,287	-0,153	0,014
-131,585	-157,310	-0,084	0,004
-130,570	114,281	-0,039	0,035
-129,556	50,533	-0,041	-0,028
-128,541	324,189	-0,150	-0,210
-127,526	607,340	0,052	-0,094
-126,512	800,000	-0,021	0,061
-125,497	36,339	0,080	-0,051
-124,483	182,203	0,002	-0,002
-123,468	512,434	-0,082	0,139
-122,453	214,088	0,025	0,029
-121,439	-82,171	-0,075	0,018
-120,424	52,595	0,078	0,054
-119,410	652,208	-0,033	-0,062
-118,395	-151,412	0,222	0,012
-117,380	-24,040	0,176	0,076
-116,366	149,970	0,093	0,091
-115,351	113,505	-0,075	0,066
-114,337	-14,203	-0,014	0,006
-113,322	800,000	0,055	-0,132
-112,307	-200,000	-0,017	0,076
-111,293	673,066	0,029	0,055
-110,278	-200,000	0,001	-0,043
-109,264	800,000	0,055	0,133
-108,249	-56,638	0,168	0,054
-107,234	219,448	-0,182	-0,213
-106,220	-27,258	0,025	-0,011
-105,205	800,000	0,037	0,117
-104,191	-9,503	-0,037	-0,018
-103,176	-200,000	0,021	0,101
-102,162	-200,000	0,053	0,200
-101,147	-200,000	0,033	0,181
-100,132	-69,502	-0,068	0,019
-99,118	-37,384	-0,086	0,033
-98,103	138,281	-0,064	-0,061
-97,089	64,570	0,081	0,059
-96,074	59,016	0,079	-0,056
-95,059	-47,627	0,068	-0,024
-94,045	-200,000	-0,007	-0,063
-93,030	175,372	-0,102	-0,108
-92,016	66,438	0,064	-0,047
-91,001	800,000	0,043	0,121
-89,986	-200,000	0,004	-0,038
-88,972	-200,000	0,008	0,137
-87,957	172,456	0,132	0,138
-86,943	800,000	0,039	-0,106
-85,928	-200,000	0,034	-0,111
-84,913	677,725	-0,052	0,099
-83,899	-62,268	-0,130	0,039
-82,884	748,353	-0,064	-0,126
-81,870	-25,844	-0,085	-0,036
-80,855	-137,276	0,213	-0,017
-79,840	192,873	0,006	0,006
-78,826	25,847	-0,028	-0,017
-77,811	15,905	-0,071	-0,041
-76,797	-200,000	-0,008	-0,134
-75,782	284,427	-0,045	-0,059
-74,767	-49,250	0,060	-0,021
-73,753	54,141	-0,024	0,017
-72,738	-200,000	-0,005	-0,038
-71,724	489,815	-0,035	-0,058
-70,709	26,309	-0,063	0,038
-69,694	-119,238	0,074	0,009
-68,680	-200,000	0,033	-0,115
-67,665	-200,000	0,028	-0,112
-66,651	121,658	0,073	0,066
-65,636	108,487	0,057	0,050
-64,622	-200,000	0,010	0,046
-63,607	-44,075	-0,082	-0,030
-62,592	487,199	-0,030	-0,049
-61,578	-200,000	-0,022	0,120
-60,563	-200,000	-0,030	0,194
-59,549	361,109	0,074	0,107
-58,534	-96,907	-1,384	-0,261
-57,519	558,036	-0,883	-1,553
-56,505	-200,000	-0,839	-4,331
-55,490	135,564	0,523	-0,494
-54,476	800,000	4,839	11,863
-53,461	-200,000	13,193	252,753
-52,446	-200,000	688,609	2274,065
-51,432	598,954	1623,618	2934,916
-50,417	121,234	1637,420	1479,571
-49,403	73,381	1291,552	979,855
-48,388	38,486	1026,178	662,524
-47,373	24,621	983,336	589,210
-46,359	23,898	973,143	580,708
-45,344	22,937	969,089	575,119
-44,330	22,891	967,571	574,044
-43,315	22,803	966,047	572,830
-42,300	22,783	964,985	572,113
-41,286	22,812	964,025	571,615
-40,271	22,764	963,026	570,845
-39,257	22,723	962,228	570,215
-38,242	22,739	961,191	569,630
-37,227	22,773	960,331	569,209
-36,213	22,764	959,506	568,666
-35,198	22,727	958,748	568,075
-34,184	22,800	958,131	567,924
-33,169	22,745	957,095	567,111
-32,154	22,838	956,106	566,801
-31,140	22,808	955,231	566,165
-30,125	22,817	954,586	565,789
-29,111	22,784	953,784	565,183
-28,096	22,790	953,149	564,804
-27,082	22,882	952,102	564,458
-26,067	22,819	951,607	563,938
-25,052	22,759	950,910	563,312
-24,038	22,844	950,164	563,118
-23,023	22,790	949,592	562,585
-22,009	22,852	948,828	562,310
-20,994	22,782	948,469	561,851
-19,979	22,825	947,640	561,473
-18,965	22,844	946,965	561,111
-17,950	22,873	946,353	560,821
-16,936	22,807	945,700	560,201
-15,921	22,772	945,173	559,755
-14,906	22,731	944,332	559,103
-13,892	22,752	943,602	558,716
-12,877	22,631	943,237	558,092
-11,863	22,624	942,653	557,701
-10,848	22,657	942,003	557,399
-9,833	22,720	941,512	557,287
-8,819	22,724	940,952	556,948
-7,804	22,673	940,249	556,348
-6,790	22,668	939,585	555,916
-5,775	22,755	939,123	555,896
-4,760	22,703	938,472	555,324
-3,746	22,706	937,611	554,802
-2,731	22,633	936,900	554,129
-1,717	22,515	936,483	553,489
-0,702	22,495	935,689	552,933
0,313	22,370	935,010	552,971
1,327	25,479	932,961	561,500
2,342	35,324	797,635	506,315
3,356	33,575	452,023	284,269
4,371	2,289	293,265	153,288
5,386	-2,238	274,028	138,948
6,400	-3,733	268,307	134,651
7,415	-4,322	265,813	132,847
8,429	-3,967	264,571	132,538
9,444	-4,088	263,802	132,032
10,459	-4,033	263,123	131,730
11,473	-3,871	262,376	131,490
12,488	-3,919	261,873	131,184
13,502	-4,216	261,451	130,692
14,517	-4,194	261,115	130,532
15,531	-4,117	260,608	130,337
16,546	-4,390	260,329	129,941
17,561	-4,181	259,840	129,873
18,575	-4,316	259,674	129,657
19,590	-4,193	259,193	129,515
20,604	-4,123	258,976	129,458
21,619	-4,152	258,715	129,290
22,634	-4,129	258,372	129,127
23,648	-4,350	258,071	128,769
24,663	-4,239	257,829	128,735
25,677	-4,119	257,537	128,684
26,692	-4,342	257,336	128,375
27,707	-4,207	256,988	128,309
28,721	-3,973	256,717	128,369
29,736	-4,061	256,340	128,092
30,750	-4,264	256,159	127,810
31,765	-4,219	255,977	127,748
32,780	-4,212	255,781	127,645
33,794	-4,180	255,585	127,564
34,809	-4,251	255,371	127,383
35,823	-4,305	255,265	127,272
36,838	-4,287	254,879	127,084
37,853	-4,490	254,825	126,867
38,867	-4,124	254,347	126,938
39,882	-4,289	254,221	126,719
40,896	-4,453	253,940	126,425
41,911	-4,491	253,887	126,355
42,926	-4,309	253,528	126,323
43,940	-4,285	253,153	126,146
44,955	-4,352	253,079	126,040
45,969	-4,510	252,998	125,851
46,984	-4,753	252,556	125,409
47,999	-4,772	252,155	125,181
49,013	-4,983	252,059	124,940
50,028	-5,273	251,818	124,558
51,042	-5,159	251,480	124,478
52,057	-5,089	251,250	124,414
53,071	-5,182	251,200	124,297
54,086	-4,904	250,941	124,398
55,101	-4,915	250,874	124,345
56,115	-4,706	250,694	124,424
57,130	-4,219	250,654	124,813
58,144	-4,162	250,457	124,753
59,159	-3,969	250,054	124,707
60,174	-4,016	249,996	124,627
61,188	-4,190	249,871	124,403
62,203	-3,971	249,527	124,409
63,217	-4,111	249,369	124,199
64,232	-4,041	249,229	124,178
65,247	-4,105	248,929	123,963
66,261	-4,228	248,812	123,789
67,276	-4,290	248,437	123,538
68,290	-4,601	248,302	123,194
69,305	-4,807	248,038	122,877
70,320	-4,633	247,869	122,931
71,334	-4,322	247,687	123,095
72,349	-4,181	247,589	123,154
73,363	-4,065	247,478	123,186
74,378	-3,867	247,111	123,161
75,393	-4,238	247,077	122,819
76,407	-4,100	246,611	122,692
77,422	-4,300	246,585	122,500
78,436	-4,167	246,560	122,589
79,451	-4,103	246,166	122,436
80,466	-4,201	245,816	122,168
81,480	-4,578	245,710	121,787
82,495	-4,500	245,521	121,748
83,509	-4,189	245,346	121,912
84,524	-4,605	245,215	121,486
85,539	-4,646	244,910	121,290
86,553	-4,513	244,681	121,277
87,568	-4,552	244,686	121,236
88,582	-4,514	244,404	121,118
89,597	-4,485	244,256	121,057
90,611	-4,397	244,062	121,024
91,626	-4,211	243,920	121,098
92,641	-4,072	243,699	121,094
93,655	-4,405	243,596	120,754
94,670	-4,162	243,217	120,758
95,684	-4,242	243,101	120,623
96,699	-4,427	243,041	120,429
97,714	-4,353	242,713	120,316
98,728	-4,477	242,506	120,100
99,743	-4,597	242,349	119,912
100,757	-4,689	242,146	119,725
101,772	-4,498	241,959	119,780
102,787	-4,503	241,854	119,713
103,801	-4,383	241,640	119,696
104,816	-4,228	241,477	119,732
105,830	-4,276	241,405	119,646
106,845	-4,283	241,242	119,549
107,860	-4,277	241,024	119,435
108,874	-4,421	240,818	119,204
109,889	-4,318	240,482	119,112
110,903	-4,352	240,368	119,017
111,918	-4,455	240,238	118,857
112,933	-4,208	240,041	118,952
113,947	-4,241	239,942	118,865
114,962	-4,043	239,750	118,922
115,976	-4,251	239,621	118,677
116,991	-4,357	239,605	118,572
118,006	-4,275	239,305	118,480
119,020	-4,178	239,139	118,466
120,035	-4,188	239,018	118,387
121,049	-4,030	238,783	118,389
122,064	-4,150	238,666	118,223
123,079	-4,214	238,359	118,009
124,093	-4,408	238,239	117,780
125,108	-4,476	238,034	117,613
126,122	-4,480	237,714	117,441
127,137	-4,941	237,682	117,041
128,151	-4,672	237,460	117,139
129,166	-4,611	237,396	117,147
130,181	-4,550	237,000	116,990
131,195	-4,581	236,946	116,928
132,210	-4,220	236,639	117,058
133,224	-4,147	236,768	117,170
134,239	-4,355	236,638	116,928
135,254	-4,126	236,309	116,939
136,268	-4,383	236,180	116,657
137,283	-4,724	235,995	116,281
138,297	-4,727	235,626	116,087
139,312	-4,729	235,536	116,031
140,327	-4,368	235,485	116,285
141,341	-3,927	235,391	116,582
142,356	-3,871	235,179	116,512
143,370	-3,911	235,056	116,408
144,385	-3,872	234,963	116,383
145,400	-3,812	234,764	116,322
146,414	-3,806	234,577	116,224
147,429	-4,020	234,395	115,953
148,443	-4,139	234,299	115,800
149,458	-4,013	234,123	115,803
150,473	-3,838	233,904	115,823
151,487	-4,048	233,829	115,609
152,502	-3,960	233,549	115,530
153,516	-4,048	233,513	115,432
154,531	-3,844	233,102	115,381
155,546	-3,987	233,089	115,250
156,560	-4,066	232,784	115,027
157,575	-4,326	232,697	114,767
158,589	-4,223	232,480	114,732
159,604	-3,874	232,422	114,969
160,619	-3,956	232,213	114,791
161,633	-4,009	232,146	114,705
162,648	-4,099	232,117	114,609
163,662	-4,029	231,850	114,522
164,677	-4,049	231,717	114,431
165,692	-3,979	231,472	114,355
166,706	-4,022	231,443	114,296
167,721	-3,762	231,219	114,381
168,735	-3,823	230,968	114,198
169,750	-3,923	230,924	114,088
170,764	-3,940	230,794	114,000
171,779	-3,846	230,604	113,969
172,794	-3,713	230,421	113,973
173,808	-3,796	230,106	113,742
174,823	-4,312	229,876	113,215
175,837	-4,605	229,822	112,949
176,852	-4,234	229,762	113,200
177,867	-3,879	229,670	113,421
178,881	-3,921	229,656	113,372
179,896	-3,894	229,326	113,219
180,910	-3,776	229,204	113,241
181,925	-3,729	229,049	113,191
182,940	-3,747	228,861	113,074
183,954	-3,809	228,748	112,960
184,969	-3,883	228,590	112,814
185,983	-3,810	228,612	112,872
186,998	-3,665	228,343	112,841
188,013	-3,649	228,079	112,714
189,027	-3,886	228,059	112,510
190,042	-3,857	227,948	112,468
191,056	-3,572	227,714	112,562
192,071	-3,687	227,517	112,367
193,086	-3,657	227,398	112,320
194,100	-3,659	227,152	112,188
195,115	-4,047	226,926	111,767
196,129	-4,451	226,610	111,290
197,144	-1,209	227,719	114,330
198,159	2,705	228,751	117,867
199,173	4,202	229,075	119,183
200,188	4,063	228,894	118,970
201,202	3,856	228,913	118,810
202,217	4,370	228,758	119,116
203,232	4,690	228,626	119,282
204,246	4,890	228,413	119,315
205,261	4,801	228,277	119,165
206,275	5,064	228,263	119,350
207,290	4,977	228,135	119,205
208,304	5,028	227,930	119,126
209,319	4,834	227,832	118,916
210,334	5,057	227,639	118,976
211,348	4,653	227,144	118,397
212,363	4,153	227,164	118,014
213,377	4,079	226,962	117,842
214,392	3,979	226,786	117,663
215,407	4,013	226,707	117,638
216,421	4,161	226,500	117,633
217,436	4,219	226,368	117,599
218,450	3,847	226,114	117,172
219,465	3,790	225,965	117,041
220,480	3,877	225,924	117,075
221,494	3,837	225,758	116,949
222,509	4,116	225,547	117,041
223,523	4,060	225,484	116,955
224,538	3,754	225,247	116,590
225,553	3,994	225,206	116,740
226,567	4,297	224,974	116,839
227,582	4,414	224,929	116,894
228,596	4,343	224,879	116,804
229,611	4,041	224,661	116,451
230,626	3,904	224,369	116,186
231,640	3,937	224,179	116,102
232,655	4,070	224,284	116,247
233,669	4,596	224,161	116,570
234,684	4,771	223,941	116,577
235,699	4,386	223,760	116,183
236,713	4,204	223,502	115,902
237,728	4,084	223,380	115,738
238,742	3,848	223,198	115,456
239,757	4,078	223,029	115,531
240,772	3,851	222,906	115,286
241,786	3,903	222,832	115,277
242,801	4,147	222,726	115,394
243,815	4,300	222,791	115,532
244,830	4,506	222,596	115,575
245,844	4,340	222,241	115,256
246,859	4,188	222,113	115,066
247,874	4,392	222,015	115,157
248,888	4,550	221,896	115,203
249,903	4,091	221,752	114,776
250,917	3,945	221,527	114,541
251,932	3,965	221,490	114,526
252,947	4,052	221,280	114,472
253,961	3,876	221,107	114,242
254,976	3,889	220,942	114,156
255,990	4,174	220,818	114,293
257,005	4,392	220,666	114,366
258,020	4,323	220,492	114,215
259,034	4,488	220,454	114,307
260,049	4,304	220,447	114,156
261,063	4,315	220,286	114,071
262,078	4,433	219,982	113,991
263,093	4,398	219,996	113,963
264,107	4,316	219,693	113,734
265,122	4,394	219,656	113,763
266,136	4,626	219,571	113,879
267,151	4,633	219,361	113,766
268,166	4,153	219,156	113,296
269,180	3,937	218,863	112,976
270,195	3,926	218,776	112,913
271,209	4,073	218,550	112,894
272,224	3,862	218,648	112,779
273,239	4,132	218,445	112,862
274,253	4,029	218,269	112,686
275,268	3,925	217,942	112,431
276,282	3,762	217,842	112,251
277,297	3,770	217,666	112,156
278,312	3,950	217,429	112,154
279,326	3,913	217,471	112,140
280,341	4,047	217,454	112,219
281,355	3,984	217,372	112,120
282,370	4,119	217,195	112,117
283,384	3,865	216,874	111,757
284,399	3,771	216,823	111,653
285,414	3,477	216,645	111,337
286,428	3,788	216,716	111,589
287,443	4,180	216,448	111,726
288,457	4,325	216,294	111,742
289,472	4,118	216,041	111,451
290,487	3,684	215,750	110,978
291,501	3,640	215,807	110,965
292,516	3,862	215,581	110,999
293,530	3,967	215,542	111,045
294,545	3,864	215,384	110,880
295,560	3,896	215,110	110,752
296,574	3,821	215,106	110,686
297,589	4,106	214,992	110,822
298,603	4,041	215,010	110,775
299,618	3,991	214,918	110,681
300,633	4,017	214,653	110,554
301,647	4,062	214,612	110,555
302,662	4,526	214,450	110,795
303,676	4,302	214,242	110,517
304,691	4,133	214,225	110,377
305,706	4,438	213,967	110,453
306,720	4,387	213,893	110,368
307,735	4,162	213,713	110,105
308,749	3,928	213,531	109,834
309,764	4,309	213,454	110,057
310,779	4,314	213,311	109,976
311,793	4,231	213,037	109,766
312,808	4,106	213,155	109,729
313,822	4,214	212,806	109,615
314,837	4,080	212,682	109,447
315,852	3,868	212,454	109,170
316,866	4,020	212,452	109,266
317,881	4,336	212,280	109,392
318,895	4,143	212,193	109,201
319,910	3,979	212,095	109,025
320,925	3,819	211,732	108,715
321,939	3,529	211,671	108,468
322,954	3,717	211,508	108,509
323,968	3,977	211,537	108,697
324,983	4,003	211,482	108,678
325,997	4,541	211,407	109,010
327,012	4,131	211,098	108,552
328,027	3,937	211,041	108,376
329,041	4,386	210,902	108,611
330,056	4,465	210,942	108,677
331,070	4,029	210,524	108,146
332,085	3,741	210,362	107,851
333,100	3,951	210,291	107,952
334,114	4,111	210,095	107,954
335,129	3,862	210,075	107,759
336,143	3,762	209,842	107,561
337,158	4,087	209,690	107,700
338,173	3,906	209,595	107,516
339,187	3,573	209,512	107,231
340,202	3,587	209,408	107,178
341,216	3,579	209,208	107,060
342,231	4,051	208,930	107,237
343,246	3,842	208,781	107,005
344,260	3,873	208,788	107,021
345,275	3,755	208,709	106,889
346,289	4,234	208,696	107,206
347,304	4,004	208,570	106,972
348,319	3,992	208,364	106,848
349,333	3,997	208,221	106,769
350,348	3,985	208,094	106,686
351,362	4,022	207,959	106,633
352,377	4,112	208,024	106,719
353,392	3,906	207,682	106,392
354,406	4,070	207,537	106,422
355,421	193,155	1347,504	1433,959
356,435	154,049	1486,506	1434,086
