DTS Sentinel unit serial number:	SN410029Multiplexer serial number:	ORYXHardware model number:	OX2-SRSoftware version number:	ORYX F/W v4,00 Oryx Data Collector v3.7.2.0data status	okinstallation	B6 Nyhavnadifferential loss correction	single-endedforward channel	channel 2reverse channel	N/Adate	2023/12/08time	20:50:08forward acquisition time	300,00reverse acquisition time	0,00gamma	499,1914k internal	0,3158k external	0,3158temperature offset calibration	1,0000default loss term (dB/km)	0,3820temperature slope calibration	1,0000multiplexer offset coefficient	1,0000multiplexer slope coefficient	1,0000fibre end	0,00T internal ref (°C)	15,20T ext. ref 1 (°C)	-1,39T ext. ref 2 (°C)	-1,41length (m)	temperature (°C)	Stokes	anti-Stokes-744,400	800,000	0,034	0,073
-743,385	-147,634	-0,259	0,016
-742,371	116,397	0,098	0,088
-741,356	-78,589	-0,389	0,097
-740,342	144,095	0,108	0,106
-739,327	-166,328	-0,334	0,010
-738,312	198,021	0,123	0,139
-737,298	-180,494	-0,363	0,005
-736,283	536,295	0,095	0,167
-735,269	-97,892	-0,164	0,031
-734,254	-200,000	-0,015	0,117
-733,239	-93,084	-0,390	-0,079
-732,225	800,000	0,071	0,188
-731,210	800,000	-0,089	0,183
-730,196	143,269	-0,076	0,075
-729,181	800,000	-0,019	-0,054
-728,167	-73,978	-0,088	0,023
-727,152	413,836	0,011	0,018
-726,137	-126,481	-0,175	-0,019
-725,123	800,000	-0,021	-0,047
-724,108	-200,000	0,002	-0,129
-723,094	33,128	-0,161	-0,103
-722,079	182,209	-0,052	0,056
-721,064	-123,361	-0,061	0,007
-720,050	-200,000	-0,021	-0,081
-719,035	318,116	-0,116	-0,162
-718,021	335,673	0,048	-0,068
-717,006	-200,000	-0,019	-0,104
-715,991	179,236	-0,129	-0,139
-714,977	197,113	-0,057	-0,065
-713,962	208,131	-0,138	-0,159
-712,948	800,000	0,023	-0,063
-711,933	-200,000	-0,006	0,097
-710,918	-15,208	-0,086	-0,040
-709,904	707,909	-0,021	-0,042
-708,889	800,000	-0,034	0,075
-707,875	114,725	-0,076	-0,068
-706,860	-129,010	0,104	-0,011
-705,845	-46,739	0,087	-0,031
-704,831	424,161	0,050	0,080
-703,816	800,000	-0,031	-0,075
-702,802	800,000	-0,018	0,051
-701,787	471,485	-0,059	0,099
-700,772	-200,000	-0,004	0,023
-699,758	-200,000	0,019	0,084
-698,743	45,923	0,091	0,062
-697,729	800,000	0,022	0,049
-696,714	190,993	0,059	0,066
-695,699	121,651	0,027	-0,025
-694,685	2,468	-0,079	0,042
-693,670	-200,000	0,034	-0,135
-692,656	-200,000	-0,018	-0,111
-691,641	28,289	-0,079	-0,049
-690,627	-111,914	0,060	-0,009
-689,612	-200,000	0,020	0,072
-688,597	33,002	-0,008	0,005
-687,583	165,406	-0,141	-0,147
-686,568	-200,000	0,007	-0,027
-685,554	118,009	-0,157	-0,142
-684,539	38,617	0,129	0,085
-683,524	34,529	0,089	0,057
-682,510	136,991	-0,153	0,147
-681,495	-200,000	-0,002	0,025
-680,481	-162,571	-0,085	0,003
-679,466	0,423	0,021	-0,011
-678,451	-200,000	-0,036	-0,142
-677,437	295,209	0,038	-0,052
-676,422	697,198	0,046	0,089
-675,408	-87,070	0,020	0,004
-674,393	-91,315	-0,106	0,022
-673,378	477,154	0,074	-0,123
-672,364	-200,000	0,011	-0,136
-671,349	-200,000	-0,046	-0,167
-670,335	217,319	0,013	-0,015
-669,320	53,894	-0,053	0,038
-668,305	84,522	-0,177	-0,142
-667,291	19,800	-0,110	0,065
-666,276	-200,000	-0,021	-0,077
-665,262	-64,626	-0,250	-0,074
-664,247	-56,894	-0,093	-0,030
-663,232	-135,457	0,055	-0,005
-662,218	-4,109	0,089	-0,045
-661,203	74,498	-0,044	-0,034
-660,189	-200,000	0,000	-0,128
-659,174	-67,573	0,012	-0,003
-658,159	-200,000	-0,003	-0,083
-657,145	-49,258	-0,088	-0,031
-656,130	-200,000	-0,017	0,088
-655,116	-200,000	0,002	0,025
-654,101	-97,702	-0,083	0,016
-653,086	208,972	-0,042	-0,048
-652,072	168,433	0,044	-0,046
-651,057	-34,152	-0,096	-0,039
-650,043	-62,330	-0,080	0,024
-649,028	-200,000	0,007	0,078
-648,014	81,691	0,053	0,042
-646,999	-80,981	-0,034	0,008
-645,984	99,097	0,010	0,009
-644,970	-111,840	0,076	0,011
-643,955	-56,596	-0,008	0,003
-642,941	-67,250	-0,057	-0,016
-641,926	-190,793	0,144	0,001
-640,911	484,844	-0,106	0,178
-639,897	-200,000	-0,007	0,166
-638,882	5,950	0,045	0,024
-637,868	26,943	0,127	-0,078
-636,853	-200,000	-0,008	-0,027
-635,838	335,760	-0,080	-0,114
-634,824	-200,000	-0,017	-0,093
-633,809	199,454	-0,089	0,100
-632,795	58,360	-0,076	0,055
-631,780	19,550	-0,029	0,017
-630,765	-200,000	0,014	0,078
-629,751	-200,000	-0,022	-0,160
-628,736	602,747	0,048	-0,087
-627,722	241,051	0,021	-0,025
-626,707	-58,927	-0,162	-0,051
-625,692	217,257	0,087	-0,102
-624,678	50,469	-0,084	0,058
-623,663	-37,174	-0,161	-0,063
-622,649	-5,540	-0,019	0,009
-621,634	9,653	-0,160	0,089
-620,619	40,492	0,078	0,052
-619,605	208,394	0,058	-0,067
-618,590	-100,937	-0,078	-0,014
-617,576	-200,000	0,006	-0,046
-616,561	-61,186	0,038	-0,012
-615,546	117,354	-0,048	-0,043
-614,532	209,009	-0,070	0,080
-613,517	-200,000	0,021	0,070
-612,503	699,933	0,049	-0,095
-611,488	800,000	0,033	-0,103
-610,474	-200,000	0,046	0,160
-609,459	-200,000	0,008	0,095
-608,444	-200,000	-0,017	-0,088
-607,430	56,775	-0,091	-0,065
-606,415	-200,000	0,005	-0,061
-605,401	-68,312	-0,072	0,020
-604,386	-119,020	0,122	0,016
-603,371	733,881	-0,054	-0,107
-602,357	-48,166	-0,159	0,056
-601,342	-17,168	-0,113	-0,052
-600,328	-200,000	-0,065	-0,218
-599,313	-200,000	-0,007	0,187
-598,298	-55,418	0,092	0,030
-597,284	800,000	0,014	-0,030
-596,269	16,996	-0,030	0,018
-595,255	-200,000	-0,002	0,110
-594,240	5,580	-0,040	-0,021
-593,225	636,347	0,024	-0,045
-592,211	800,000	0,024	0,066
-591,196	166,080	-0,013	0,014
-590,182	391,972	0,052	0,080
-589,167	510,695	-0,033	-0,056
-588,152	-200,000	0,014	-0,086
-587,138	-200,000	-0,004	0,089
-586,123	161,550	-0,073	0,075
-585,109	-165,853	-0,007	-0,000
-584,094	181,753	-0,040	0,044
-583,079	11,080	0,041	-0,023
-582,065	-87,563	0,099	-0,022
-581,050	-200,000	-0,008	0,116
-580,036	94,072	-0,024	-0,020
-579,021	800,000	0,027	0,068
-578,006	-48,726	0,025	-0,009
-576,992	-200,000	0,006	-0,051
-575,977	-163,892	-0,141	0,005
-574,963	-200,000	0,032	0,118
-573,948	119,257	-0,017	-0,016
-572,934	237,183	0,040	-0,048
-571,919	-143,465	-0,083	-0,006
-570,904	-182,459	-0,123	-0,002
-569,890	449,728	0,054	-0,088
-568,875	-95,698	0,102	0,020
-567,861	800,000	0,041	0,093
-566,846	241,152	0,030	0,036
-565,831	394,834	-0,052	-0,080
-564,817	-36,804	-0,118	0,046
-563,802	-46,536	-0,066	0,023
-562,788	-200,000	0,043	-0,147
-561,773	555,539	0,063	0,111
-560,758	-126,918	0,071	0,008
-559,744	130,816	0,089	-0,083
-558,729	-45,363	-0,038	-0,014
-557,715	-97,879	-0,152	-0,028
-556,700	-146,016	-0,125	-0,008
-555,685	-112,158	-0,116	0,017
-554,671	-150,405	-0,053	-0,003
-553,656	-40,646	0,085	0,032
-552,642	-114,504	-0,031	0,004
-551,627	-200,000	-0,005	0,039
-550,612	491,639	0,024	0,041
-549,598	-118,109	0,060	-0,008
-548,583	279,546	-0,055	-0,072
-547,569	800,000	-0,031	-0,089
-546,554	115,211	0,067	0,060
-545,539	-200,000	-0,001	-0,017
-544,525	495,488	0,055	0,093
-543,510	444,238	-0,046	0,073
-542,496	-200,000	-0,006	-0,149
-541,481	398,381	0,083	0,127
-540,466	529,783	0,015	0,026
-539,452	-200,000	0,007	0,034
-538,437	-200,000	-0,006	0,076
-537,423	-26,600	-0,136	0,058
-536,408	-70,170	-0,044	-0,012
-535,393	266,755	-0,105	-0,134
-534,379	-200,000	-0,008	0,043
-533,364	552,103	0,031	-0,054
-532,350	52,654	0,086	0,060
-531,335	132,365	0,047	0,045
-530,321	267,541	0,059	0,075
-529,306	-157,461	0,073	-0,003
-528,291	-142,284	-0,164	0,012
-527,277	148,029	-0,064	-0,064
-526,262	-60,495	0,148	-0,046
-525,248	-200,000	-0,040	-0,130
-524,233	240,200	0,041	0,050
-523,218	-200,000	0,022	0,163
-522,204	-45,959	-0,015	0,006
-521,189	-54,016	0,048	0,016
-520,175	-102,849	-0,063	-0,011
-519,160	617,255	-0,047	0,087
-518,145	-200,000	0,015	-0,056
-517,131	411,387	0,052	-0,082
-516,116	-22,426	0,165	0,073
-515,102	-200,000	-0,007	0,022
-514,087	34,292	-0,093	0,059
-513,072	-180,439	-0,159	0,002
-512,058	-75,949	-0,020	0,005
-511,043	220,411	0,045	-0,053
-510,029	-124,273	-0,013	-0,002
-509,014	-4,016	-0,082	-0,041
-507,999	58,941	-0,178	0,128
-506,985	428,785	0,040	-0,063
-505,970	204,913	0,043	-0,048
-504,956	-176,096	-0,110	-0,002
-503,941	-200,000	0,023	-0,074
-502,926	670,385	0,051	0,096
-501,912	-125,781	0,147	0,016
-500,897	-28,023	-0,137	-0,058
-499,883	147,042	0,041	0,040
-498,868	-200,000	-0,052	-0,221
-497,853	425,553	0,069	0,110
-496,839	46,782	0,033	-0,022
-495,824	49,546	0,146	0,100
-494,810	-118,614	-0,090	0,011
-493,795	-107,687	0,134	-0,021
-492,781	-0,222	0,122	0,063
-491,766	35,512	-0,125	-0,080
-490,751	82,211	0,060	-0,048
-489,737	72,411	0,047	0,035
-488,722	331,818	-0,079	0,111
-487,708	344,085	-0,009	0,013
-486,693	309,981	-0,042	0,058
-485,678	91,624	-0,129	0,106
-484,664	-23,418	-0,082	-0,036
-483,649	-28,672	-0,125	0,052
-482,635	90,834	0,213	0,174
-481,620	6,177	0,070	-0,038
-480,605	-200,000	-0,004	-0,056
-479,591	-57,028	0,188	0,060
-478,576	-94,411	-0,050	-0,010
-477,562	87,115	-0,050	-0,041
-476,547	-200,000	-0,014	-0,052
-475,532	-200,000	0,007	0,098
-474,518	719,323	-0,059	0,115
-473,503	151,952	0,015	-0,015
-472,489	181,025	-0,051	0,055
-471,474	-146,649	-0,007	0,000
-470,459	-107,707	-0,205	0,032
-469,445	-101,769	0,082	0,014
-468,430	-70,992	0,069	-0,019
-467,416	-200,000	0,013	0,045
-466,401	520,228	-0,034	0,058
-465,386	99,489	0,098	-0,083
-464,372	-40,733	0,044	0,016
-463,357	289,469	-0,061	0,080
-462,343	-65,412	0,135	-0,039
-461,328	3,022	-0,064	-0,034
-460,313	18,127	0,040	-0,023
-459,299	-197,233	0,098	0,000
-458,284	37,831	-0,050	0,032
-457,270	-200,000	-0,003	0,032
-456,255	-150,178	0,149	0,008
-455,241	193,419	-0,055	-0,061
-454,226	188,001	-0,038	-0,042
-453,211	-200,000	0,001	-0,134
-452,197	655,572	-0,069	-0,131
-451,182	-200,000	0,021	0,122
-450,168	800,000	0,037	0,099
-449,153	10,151	0,022	-0,012
-448,138	-200,000	0,001	-0,082
-447,124	800,000	-0,050	-0,142
-446,109	694,922	-0,033	-0,063
-445,095	175,436	0,070	-0,074
-444,080	800,000	0,020	0,043
-443,065	273,707	-0,059	0,076
-442,051	111,024	0,075	-0,065
-441,036	-105,920	-0,026	-0,004
-440,022	-103,878	-0,096	-0,016
-439,007	800,000	0,083	-0,179
-437,992	-77,503	0,048	0,012
-436,978	-122,800	0,138	0,016
-435,963	116,411	0,061	-0,055
-434,949	-111,275	0,154	-0,023
-433,934	-189,888	-0,200	0,002
-432,919	529,146	0,016	-0,028
-431,905	-200,000	0,012	0,086
-430,890	800,000	0,034	0,089
-429,876	271,068	-0,065	0,084
-428,861	224,075	-0,106	-0,125
-427,846	800,000	-0,004	0,008
-426,832	-126,716	-0,108	0,011
-425,817	103,892	-0,040	-0,034
-424,803	-82,691	-0,013	-0,003
-423,788	-60,117	0,128	0,039
-422,773	257,964	0,052	0,065
-421,759	-61,911	-0,102	-0,031
-420,744	-11,841	0,004	-0,002
-419,730	-200,000	0,009	0,055
-418,715	151,865	0,070	0,070
-417,701	800,000	0,044	0,134
-416,686	35,301	-0,071	-0,045
-415,671	-53,842	0,112	0,037
-414,657	-12,563	0,132	0,062
-413,642	-180,294	-0,052	-0,001
-412,628	800,000	0,079	-0,174
-411,613	800,000	-0,033	-0,103
-410,598	-45,876	-0,085	0,030
-409,584	398,373	0,046	-0,070
-408,569	-200,000	-0,016	0,059
-407,555	32,030	0,090	0,057
-406,540	-200,000	-0,014	-0,048
-405,525	204,808	0,061	-0,069
-404,511	87,751	-0,049	0,039
-403,496	-200,000	0,014	-0,202
-402,482	-109,445	0,145	0,022
-401,467	-200,000	0,005	-0,092
-400,452	61,498	0,145	0,105
-399,438	-6,361	-0,105	-0,052
-398,423	109,340	-0,051	-0,044
-397,409	30,755	-0,105	-0,065
-396,394	-8,955	0,066	-0,032
-395,379	428,330	-0,045	-0,072
-394,365	-98,508	-0,099	0,018
-393,350	794,617	0,072	0,145
-392,336	-102,226	-0,076	-0,013
-391,321	380,949	0,019	0,028
-390,306	-200,000	0,017	-0,106
-389,292	378,610	0,015	0,023
-388,277	17,764	0,048	-0,028
-387,263	-55,409	0,010	0,003
-386,248	91,723	0,025	0,021
-385,233	465,282	0,013	-0,021
-384,219	41,208	-0,004	-0,002
-383,204	539,613	0,039	0,068
-382,190	120,132	0,102	-0,092
-381,175	-200,000	0,004	0,030
-380,160	-49,013	0,137	0,048
-379,146	800,000	0,065	0,197
-378,131	-200,000	0,045	0,203
-377,117	35,701	-0,076	-0,048
-376,102	474,022	-0,051	-0,084
-375,088	80,267	-0,039	0,030
-374,073	-49,290	0,125	0,043
-373,058	261,211	0,086	-0,109
-372,044	800,000	0,029	-0,077
-371,029	181,567	0,071	-0,076
-370,015	-200,000	0,012	-0,160
-369,000	-136,128	0,059	-0,005
-367,985	-29,054	0,043	0,018
-366,971	-104,492	0,085	0,014
-365,956	-200,000	0,006	0,062
-364,942	-200,000	0,002	-0,035
-363,927	-90,378	-0,126	0,026
-362,912	525,259	-0,052	0,088
-361,898	154,071	0,058	-0,058
-360,883	-120,755	0,048	-0,006
-359,869	130,447	-0,031	-0,028
-358,854	95,878	0,040	0,034
-357,839	66,358	-0,103	-0,076
-356,825	170,969	0,073	-0,076
-355,810	-200,000	0,013	-0,067
-354,796	-113,789	0,075	-0,010
-353,781	-132,569	-0,066	0,006
-352,766	262,372	-0,047	-0,059
-351,752	-181,430	-0,133	0,002
-350,737	800,000	-0,032	0,080
-349,723	-200,000	0,029	0,096
-348,708	-129,235	0,053	0,005
-347,693	76,262	-0,069	0,053
-346,679	265,274	-0,045	-0,057
-345,664	-37,706	0,088	-0,034
-344,650	-200,000	0,004	-0,095
-343,635	-200,000	-0,015	0,059
-342,620	528,240	0,049	0,084
-341,606	-91,652	-0,082	-0,017
-340,591	72,675	-0,009	0,006
-339,577	-200,000	0,010	-0,054
-338,562	-122,144	-0,102	-0,012
-337,548	-44,218	0,187	-0,068
-336,533	29,923	0,057	-0,035
-335,518	-200,000	-0,012	-0,117
-334,504	-200,000	-0,011	-0,093
-333,489	450,763	0,072	-0,116
-332,475	-200,000	0,038	-0,240
-331,460	-200,000	0,019	-0,074
-330,445	-200,000	0,008	0,081
-329,431	800,000	0,052	0,114
-328,416	123,478	0,054	0,049
-327,402	-4,106	0,079	-0,040
-326,387	-81,114	-0,107	0,026
-325,372	-146,711	0,051	0,003
-324,358	-45,286	0,091	-0,033
-323,343	225,141	0,032	-0,038
-322,329	-102,369	-0,071	0,012
-321,314	-100,579	0,032	-0,006
-320,299	-200,000	-0,001	0,065
-319,285	-200,000	0,014	-0,058
-318,270	-88,678	-0,110	-0,024
-317,256	160,082	-0,100	0,102
-316,241	800,000	-0,006	0,013
-315,226	-200,000	0,013	-0,078
-314,212	-10,890	-0,051	-0,025
-313,197	23,467	-0,100	0,060
-312,183	629,526	0,034	0,063
-311,168	153,788	0,031	-0,030
-310,153	-200,000	0,009	-0,043
-309,139	26,471	-0,120	0,073
-308,124	-28,021	0,210	-0,087
-307,110	121,981	0,069	-0,062
-306,095	171,238	-0,055	0,057
-305,080	800,000	0,013	0,028
-304,066	19,789	-0,154	0,090
-303,051	733,333	-0,073	-0,143
-302,037	800,000	0,012	0,028
-301,022	800,000	0,009	-0,019
-300,008	-102,930	0,097	-0,017
-298,993	179,393	-0,131	0,139
-297,978	317,722	-0,054	0,074
-296,964	374,906	-0,028	0,042
-295,949	-47,132	-0,069	-0,024
-294,935	724,187	-0,048	-0,093
-293,920	-28,276	-0,082	-0,034
-292,905	-200,000	0,008	0,064
-291,891	-20,015	0,207	0,092
-290,876	433,768	0,079	0,125
-289,862	618,665	-0,059	0,108
-288,847	-50,093	-0,135	-0,046
-287,832	-68,881	-0,196	0,055
-286,818	76,271	0,053	-0,041
-285,803	-57,338	0,069	-0,022
-284,789	339,024	0,064	0,090
-283,774	-51,035	-0,099	0,033
-282,759	800,000	0,027	-0,073
-281,745	800,000	-0,037	-0,104
-280,730	617,477	0,037	-0,068
-279,716	332,048	0,098	-0,137
-278,701	50,104	-0,025	-0,017
-277,686	-28,545	-0,096	0,040
-276,672	4,120	0,128	0,067
-275,657	800,000	-0,075	-0,201
-274,643	-77,492	-0,131	-0,033
-273,628	731,230	-0,043	-0,083
-272,613	130,916	-0,092	-0,086
-271,599	-200,000	0,014	-0,089
-270,584	-96,277	0,093	-0,018
-269,570	361,041	0,068	0,098
-268,555	-200,000	0,010	0,185
-267,540	120,775	0,065	0,058
-266,526	61,701	-0,104	0,075
-265,511	42,509	0,085	-0,056
-264,497	385,960	0,016	0,024
-263,482	560,251	0,094	0,165
-262,467	309,277	0,017	-0,023
-261,453	-130,229	-0,097	-0,009
-260,438	46,791	0,046	-0,031
-259,424	-200,000	0,014	0,090
-258,409	-200,000	-0,031	-0,136
-257,395	-78,749	-0,069	0,017
-256,380	17,612	-0,025	-0,014
-255,365	26,548	0,182	0,110
-254,351	73,169	-0,118	-0,089
-253,336	-90,498	-0,062	0,013
-252,322	-64,459	0,047	0,014
-251,307	368,455	0,050	0,074
-250,292	800,000	-0,015	0,033
-249,278	100,509	-0,090	0,075
-248,263	203,176	-0,050	0,056
-247,249	-200,000	0,015	0,055
-246,234	101,733	0,075	-0,064
-245,219	800,000	-0,044	-0,132
-244,205	85,064	-0,100	0,079
-243,190	-200,000	-0,002	0,077
-242,176	800,000	0,041	0,107
-241,161	124,340	0,064	-0,058
-240,146	453,769	-0,031	0,050
-239,132	-62,693	-0,037	-0,011
-238,117	-200,000	0,009	-0,066
-237,103	85,108	0,075	-0,059
-236,088	800,000	-0,079	-0,159
-235,073	-124,902	0,174	-0,019
-234,059	-200,000	-0,006	-0,049
-233,044	169,767	-0,101	0,105
-232,030	685,027	0,023	0,043
-231,015	-12,373	0,075	0,036
-230,000	800,000	-0,014	0,041
-228,986	-84,215	0,079	0,018
-227,971	-7,533	-0,127	0,062
-226,957	-200,000	-0,005	0,176
-225,942	-200,000	0,025	-0,088
-224,927	-200,000	-0,039	-0,137
-223,913	103,110	-0,102	-0,087
-222,898	-200,000	0,000	-0,038
-221,884	-200,000	-0,006	0,066
-220,869	417,541	0,047	-0,072
-219,855	404,894	0,044	0,067
-218,840	14,027	0,034	0,019
-217,825	564,657	0,049	-0,086
-216,811	541,521	0,019	-0,033
-215,796	-103,890	-0,050	0,008
-214,782	800,000	-0,014	-0,042
-213,767	648,789	0,082	-0,151
-212,752	363,063	-0,056	0,081
-211,738	-200,000	0,014	-0,098
-210,723	-11,483	-0,086	-0,041
-209,709	-47,968	-0,101	-0,035
-208,694	174,630	-0,069	-0,072
-207,679	58,506	-0,083	0,059
-206,665	28,888	0,114	0,069
-205,650	229,705	-0,023	-0,027
-204,636	800,000	0,014	-0,037
-203,621	568,091	-0,026	0,045
-202,606	284,024	-0,104	-0,135
-201,592	-116,077	-0,026	-0,003
-200,577	8,441	0,085	-0,046
-199,563	5,724	0,110	0,059
-198,548	412,298	-0,040	-0,061
-197,533	-68,998	0,078	-0,022
-196,519	208,524	-0,090	-0,101
-195,504	271,422	-0,068	-0,087
-194,490	800,000	0,027	0,063
-193,475	-96,193	-0,015	0,003
-192,460	-84,338	0,092	-0,021
-191,446	71,358	0,089	0,067
-190,431	-200,000	-0,022	0,109
-189,417	218,436	0,045	0,051
-188,402	-135,354	-0,138	0,012
-187,387	-200,000	-0,017	-0,063
-186,373	623,916	0,072	-0,132
-185,358	404,346	-0,006	-0,009
-184,344	90,715	0,074	0,059
-183,329	84,653	-0,074	-0,058
-182,315	93,225	0,080	0,065
-181,300	258,125	0,037	0,046
-180,285	8,909	0,138	0,075
-179,271	-103,644	-0,110	-0,018
-178,256	-200,000	0,013	-0,101
-177,242	-111,626	0,087	0,013
-176,227	-200,000	0,009	0,066
-175,212	-11,925	-0,164	0,077
-174,198	-131,306	0,144	-0,014
-173,183	-176,439	-0,018	0,000
-172,169	-102,813	-0,089	-0,015
-171,154	-200,000	0,007	0,071
-170,139	222,190	0,116	-0,135
-169,125	-122,550	-0,120	-0,014
-168,110	-200,000	0,029	0,235
-167,096	-200,000	-0,014	0,058
-166,081	429,120	-0,040	-0,063
-165,066	97,524	-0,083	0,069
-164,052	726,791	0,073	0,141
-163,037	-200,000	0,036	0,132
-162,023	94,669	0,108	-0,088
-161,008	-200,000	0,015	0,100
-159,993	800,000	0,028	-0,075
-158,979	-6,840	-0,103	-0,050
-157,964	-200,000	0,001	-0,094
-156,950	496,179	0,019	-0,032
-155,935	58,133	-0,021	0,015
-154,920	-54,514	-0,015	-0,005
-153,906	334,570	0,054	0,076
-152,891	-88,274	0,111	0,024
-151,877	-81,007	-0,195	0,046
-150,862	-200,000	0,013	-0,076
-149,847	800,000	-0,060	-0,149
-148,833	800,000	0,022	0,064
-147,818	357,054	0,069	0,099
-146,804	40,092	0,088	0,057
-145,789	-200,000	0,009	0,051
-144,775	-200,000	-0,025	-0,132
-143,760	800,000	-0,015	0,037
-142,745	78,643	0,081	-0,062
-141,731	-67,962	-0,162	0,045
-140,716	-99,779	0,025	0,005
-139,702	-58,430	-0,064	-0,020
-138,687	281,120	0,021	-0,027
-137,672	39,446	-0,047	0,030
-136,658	433,711	0,077	0,121
-135,643	-3,388	0,034	0,017
-134,629	-46,458	-0,132	0,047
-133,614	-21,103	0,198	-0,087
-132,599	340,905	-0,076	0,106
-131,585	91,508	-0,086	0,069
-130,570	-200,000	0,021	-0,067
-129,556	442,319	-0,045	-0,071
-128,541	-49,824	-0,062	-0,021
-127,526	-200,000	0,051	-0,219
-126,512	1,375	-0,043	-0,022
-125,497	105,562	0,061	0,052
-124,483	-200,000	-0,004	-0,067
-123,468	-150,208	0,077	-0,004
-122,453	-200,000	0,010	0,080
-121,439	236,478	-0,032	0,038
-120,424	-66,331	0,149	-0,042
-119,410	-25,838	0,114	0,048
-118,395	31,000	0,070	-0,043
-117,380	425,455	0,045	-0,070
-116,366	484,093	0,077	0,127
-115,351	382,762	-0,009	0,013
-114,337	-140,112	-0,151	-0,011
-113,322	319,307	0,058	0,079
-112,307	800,000	0,015	-0,046
-111,293	24,347	0,094	-0,056
-110,278	-32,649	0,025	0,010
-109,264	110,295	-0,027	-0,023
-108,249	-6,956	0,071	0,035
-107,234	800,000	0,016	0,044
-106,220	800,000	0,029	-0,080
-105,205	117,888	0,109	0,096
-104,191	800,000	-0,078	0,169
-103,176	-200,000	-0,021	0,125
-102,162	405,981	0,042	-0,063
-101,147	800,000	0,033	0,072
-100,132	-200,000	-0,022	0,130
-99,118	453,329	0,023	-0,037
-98,103	45,273	-0,114	-0,075
-97,089	-109,261	0,063	0,009
-96,074	-37,930	-0,280	0,106
-95,059	-200,000	-0,031	0,115
-94,045	14,779	-0,118	-0,066
-93,030	-200,000	-0,007	0,030
-92,016	88,628	-0,088	-0,070
-91,001	-188,881	0,053	-0,000
-89,986	78,402	0,010	0,008
-88,972	-195,902	0,171	0,001
-87,957	320,243	-0,030	0,040
-86,943	112,437	-0,017	-0,015
-85,928	242,565	0,018	-0,021
-84,913	-4,369	-0,027	0,014
-83,899	800,000	-0,051	0,115
-82,884	448,307	-0,067	-0,106
-81,870	-200,000	0,005	0,135
-80,855	800,000	0,057	0,121
-79,840	-21,330	-0,104	0,045
-78,826	729,970	-0,030	-0,058
-77,811	99,228	-0,091	-0,075
-76,797	233,362	-0,036	0,043
-75,782	-88,686	0,093	-0,020
-74,767	800,000	0,013	-0,031
-73,753	800,000	-0,054	0,156
-72,738	503,312	-0,070	0,117
-71,724	-79,087	-0,055	0,013
-70,709	376,444	-0,096	-0,142
-69,694	-53,371	0,202	-0,066
-68,680	-200,000	0,003	-0,182
-67,665	-26,304	0,171	0,072
-66,651	171,485	0,056	-0,057
-65,636	-200,000	0,021	-0,097
-64,622	57,802	-0,080	0,056
-63,607	287,060	-0,037	0,048
-62,592	800,000	-0,062	0,128
-61,578	-20,740	-0,060	0,026
-60,563	42,358	0,062	-0,041
-59,549	320,217	-0,080	0,109
-58,534	-7,698	-2,058	-0,995
-57,519	800,000	-0,276	-0,863
-56,505	-200,000	-1,328	-4,925
-55,490	59,245	0,812	0,573
-54,476	800,000	5,223	11,912
-53,461	-200,000	18,004	290,625
-52,446	800,000	726,648	2230,352
-51,432	536,642	1639,711	2804,733
-50,417	109,576	1629,739	1401,171
-49,403	73,153	1283,603	962,073
-48,388	31,490	1026,380	631,613
-47,373	19,903	988,545	570,145
-46,359	18,274	976,677	557,939
-45,344	15,474	972,682	546,477
-44,330	15,707	971,113	546,337
-43,315	15,252	969,389	543,861
-42,300	15,176	968,183	542,915
-41,286	15,174	967,278	542,377
-40,271	15,204	965,997	541,738
-39,257	15,257	965,185	541,432
-38,242	15,216	964,227	540,741
-37,227	15,163	963,713	540,257
-36,213	15,230	962,740	539,908
-35,198	15,203	961,910	539,336
-34,184	15,258	961,152	539,065
-33,169	15,148	960,420	538,279
-32,154	15,263	959,089	537,884
-31,140	15,210	958,397	537,301
-30,125	15,280	957,695	537,111
-29,111	15,183	956,781	536,265
-28,096	15,236	956,118	536,044
-27,082	15,238	955,415	535,635
-26,067	15,252	954,541	535,167
-25,052	15,254	953,866	534,774
-24,038	15,186	953,478	534,318
-23,023	15,214	952,661	533,930
-22,009	15,231	952,005	533,594
-20,994	15,266	951,360	533,326
-19,979	15,235	950,922	532,959
-18,965	15,239	950,165	532,525
-17,950	15,247	949,622	532,225
-16,936	15,169	948,839	531,518
-15,921	15,188	948,231	531,216
-14,906	15,104	947,495	530,513
-13,892	15,070	946,878	530,039
-12,877	15,135	946,274	529,887
-11,863	15,109	945,574	529,393
-10,848	15,137	945,002	529,139
-9,833	15,258	944,599	529,277
-8,819	15,199	944,037	528,755
-7,804	15,184	943,447	528,356
-6,790	15,123	942,854	527,809
-5,775	15,156	942,126	527,485
-4,760	15,207	941,450	527,248
-3,746	15,116	941,031	526,703
-2,731	15,003	940,291	525,911
-1,717	14,914	939,753	525,309
-0,702	14,951	938,941	524,950
0,313	14,783	938,372	524,895
1,327	18,178	936,399	534,432
2,342	27,360	790,159	475,165
3,356	23,936	444,886	262,438
4,371	-5,886	295,829	144,662
5,386	-9,674	277,459	132,072
6,400	-10,803	271,821	128,326
7,415	-10,971	269,492	127,060
8,429	-10,988	267,976	126,318
9,444	-11,231	267,154	125,698
10,459	-11,259	266,654	125,426
11,473	-11,265	265,967	125,086
12,488	-11,261	265,441	124,831
13,502	-11,456	264,848	124,364
14,517	-11,372	264,465	124,250
15,531	-11,247	263,933	124,101
16,546	-11,229	263,576	123,939
17,561	-11,450	263,356	123,625
18,575	-11,231	263,050	123,667
19,590	-11,314	262,539	123,341
20,604	-11,176	262,454	123,415
21,619	-11,255	261,964	123,102
22,634	-11,323	261,652	122,884
23,648	-11,349	261,203	122,639
24,663	-11,327	261,146	122,621
25,677	-11,272	260,783	122,488
26,692	-11,362	260,602	122,313
27,707	-11,402	260,454	122,196
28,721	-11,283	260,066	122,109
29,736	-11,125	259,644	122,041
30,750	-11,465	259,552	121,684
31,765	-11,202	259,170	121,728
32,780	-11,364	258,968	121,479
33,794	-11,545	258,898	121,275
34,809	-11,492	258,569	121,157
35,823	-11,332	258,171	121,101
36,838	-11,302	257,895	120,987
37,853	-11,427	257,739	120,792
38,867	-11,559	257,638	120,618
39,882	-11,656	257,439	120,430
40,896	-11,385	257,007	120,455
41,911	-11,498	256,955	120,320
42,926	-11,476	256,575	120,151
43,940	-11,567	256,385	119,971
44,955	-11,495	256,156	119,916
45,969	-11,547	255,879	119,731
46,984	-11,943	255,765	119,321
47,999	-12,025	255,446	119,090
49,013	-12,095	255,107	118,860
50,028	-12,236	254,944	118,651
51,042	-12,368	254,633	118,381
52,057	-12,275	254,524	118,401
53,071	-12,300	254,199	118,217
54,086	-12,025	254,017	118,360
55,101	-12,108	253,926	118,236
56,115	-11,786	253,722	118,408
57,130	-11,528	253,773	118,645
58,144	-11,160	253,472	118,812
59,159	-11,172	253,229	118,677
60,174	-11,294	253,159	118,528
61,188	-11,257	252,845	118,402
62,203	-11,319	252,703	118,272
63,217	-11,191	252,389	118,225
64,232	-11,116	252,155	118,169
65,247	-11,118	252,002	118,085
66,261	-11,362	251,706	117,727
67,276	-11,287	251,409	117,641
68,290	-11,786	251,298	117,152
69,305	-11,941	250,955	116,849
70,320	-11,832	250,853	116,885
71,334	-11,606	250,819	117,051
72,349	-11,301	250,658	117,226
73,363	-11,258	250,391	117,127
74,378	-11,164	250,050	117,037
75,393	-11,329	249,976	116,851
76,407	-11,106	249,587	116,849
77,422	-11,463	249,595	116,539
78,436	-11,067	249,195	116,678
79,451	-11,176	249,068	116,515
80,466	-11,626	248,924	116,057
81,480	-11,723	248,620	115,822
82,495	-11,509	248,260	115,825
83,509	-11,675	248,389	115,735
84,524	-11,679	248,044	115,560
85,539	-11,717	247,861	115,432
86,553	-11,896	247,743	115,216
87,568	-11,579	247,368	115,298
88,582	-11,658	247,183	115,135
89,597	-11,653	247,109	115,095
90,611	-11,613	247,138	115,132
91,626	-11,664	246,977	115,004
92,641	-11,221	246,676	115,225
93,655	-11,367	246,352	114,941
94,670	-11,538	246,284	114,755
95,684	-11,506	246,018	114,648
96,699	-11,465	245,730	114,539
97,714	-11,530	245,689	114,455
98,728	-11,854	245,361	114,021
99,743	-11,517	245,035	114,140
100,757	-11,820	245,060	113,889
101,772	-11,759	244,825	113,821
102,787	-11,823	244,683	113,691
103,801	-11,662	244,529	113,743
104,816	-11,480	244,304	113,780
105,830	-11,418	244,187	113,767
106,845	-11,379	243,928	113,669
107,860	-11,406	243,966	113,653
108,874	-11,471	243,479	113,363
109,889	-11,625	243,336	113,158
110,903	-11,472	243,171	113,198
111,918	-11,674	243,052	112,966
112,933	-11,343	242,591	113,014
113,947	-11,569	242,517	112,784
114,962	-11,378	242,411	112,881
115,976	-11,303	242,282	112,873
116,991	-11,440	242,067	112,650
118,006	-11,398	242,011	112,649
119,020	-11,385	241,657	112,484
120,035	-11,334	241,635	112,506
121,049	-11,337	241,591	112,473
122,064	-11,473	241,191	112,165
123,079	-11,414	241,134	112,177
124,093	-11,353	240,699	112,015
125,108	-11,913	240,792	111,591
126,122	-11,812	240,453	111,506
127,137	-11,838	240,186	111,351
128,151	-11,778	239,992	111,300
129,166	-11,632	239,975	111,401
130,181	-11,812	239,770	111,149
131,195	-11,872	239,490	110,962
132,210	-11,730	239,442	111,044
133,224	-11,389	239,104	111,153
134,239	-11,438	239,001	111,056
135,254	-11,474	238,940	110,989
136,268	-11,609	238,737	110,776
137,283	-11,919	238,433	110,374
138,297	-11,964	238,202	110,222
139,312	-11,876	237,934	110,158
140,327	-11,488	237,805	110,401
141,341	-11,163	238,025	110,755
142,356	-11,239	237,779	110,570
143,370	-11,138	237,592	110,554
144,385	-11,124	237,550	110,536
145,400	-10,901	237,234	110,558
146,414	-11,144	237,136	110,308
147,429	-11,236	236,894	110,111
148,443	-11,205	236,763	110,065
149,458	-11,255	236,437	109,864
150,473	-11,155	236,296	109,869
151,487	-11,320	236,163	109,665
152,502	-11,176	236,178	109,778
153,516	-11,227	235,955	109,623
154,531	-11,013	235,682	109,657
155,546	-11,077	235,557	109,538
156,560	-11,250	235,376	109,307
157,575	-11,572	235,005	108,870
158,589	-11,251	235,060	109,140
159,604	-11,034	234,759	109,163
160,619	-10,913	234,643	109,195
161,633	-10,994	234,565	109,085
162,648	-10,993	234,533	109,061
163,662	-11,103	234,167	108,794
164,677	-11,310	234,016	108,551
165,692	-11,029	233,904	108,711
166,706	-11,025	233,902	108,703
167,721	-10,906	233,589	108,642
168,735	-11,040	233,514	108,492
169,750	-10,863	233,350	108,545
170,764	-11,065	233,277	108,343
171,779	-11,182	232,963	108,095
172,794	-10,863	232,854	108,285
173,808	-11,199	232,554	107,873
174,823	-11,868	232,329	107,234
175,837	-11,735	232,165	107,253
176,852	-11,425	232,213	107,509
177,867	-11,134	232,087	107,668
178,881	-11,078	231,970	107,648
179,896	-11,091	231,785	107,543
180,910	-11,081	231,638	107,473
181,925	-11,043	231,418	107,391
182,940	-11,081	231,311	107,302
183,954	-11,091	231,155	107,212
184,969	-10,871	231,085	107,341
185,983	-10,993	230,856	107,131
186,998	-10,834	230,794	107,216
188,013	-10,752	230,604	107,182
189,027	-10,866	230,437	107,006
190,042	-10,970	230,199	106,806
191,056	-10,943	230,080	106,762
192,071	-10,875	229,867	106,706
193,086	-10,978	229,786	106,579
194,100	-11,062	229,575	106,407
195,115	-11,221	229,265	106,131
196,129	-11,186	229,355	106,191
197,144	-5,394	231,128	111,504
198,159	0,438	232,899	116,904
199,173	2,821	233,415	119,012
200,188	3,157	233,399	119,256
201,202	3,351	233,271	119,331
202,217	3,413	233,222	119,344
203,232	3,740	233,058	119,503
204,246	3,634	233,127	119,445
205,261	3,733	232,966	119,430
206,275	3,895	232,641	119,379
207,290	4,035	232,668	119,490
208,304	4,052	232,528	119,421
209,319	3,939	232,274	119,192
210,334	4,141	231,933	119,163
211,348	3,584	231,881	118,694
212,363	3,207	231,694	118,296
213,377	3,162	231,405	118,104
214,392	3,015	231,185	117,867
215,407	3,005	231,183	117,849
216,421	3,499	230,900	118,074
217,436	3,125	230,794	117,721
218,450	3,018	230,431	117,444
219,465	3,001	230,282	117,344
220,480	3,027	230,178	117,301
221,494	2,885	230,190	117,187
222,509	3,247	230,029	117,372
223,523	3,081	229,819	117,127
224,538	3,131	229,659	117,074
225,553	2,958	229,665	116,934
226,567	3,051	229,469	116,894
227,582	3,557	229,320	117,195
228,596	3,461	229,421	117,163
229,611	3,282	229,025	116,814
230,626	3,062	228,654	116,446
231,640	3,039	228,677	116,430
232,655	3,572	228,517	116,744
233,669	3,751	228,646	116,936
234,684	3,794	228,414	116,840
235,699	3,706	228,351	116,730
236,713	3,228	228,002	116,178
237,728	3,327	227,707	116,092
238,742	3,067	227,552	115,806
239,757	3,192	227,447	115,838
240,772	2,870	227,366	115,542
241,786	3,117	227,246	115,658
242,801	3,418	227,070	115,785
243,815	3,355	227,160	115,773
244,830	3,696	226,816	115,845
245,844	3,265	226,586	115,392
246,859	3,340	226,509	115,399
247,874	3,458	226,325	115,384
248,888	3,522	226,307	115,413
249,903	3,389	226,078	115,185
250,917	3,193	225,999	114,987
251,932	3,288	225,735	114,915
252,947	2,954	225,627	114,598
253,961	2,965	225,488	114,526
254,976	3,230	225,336	114,637
255,990	3,319	225,205	114,627
257,005	3,290	225,087	114,535
258,020	3,373	225,044	114,565
259,034	3,417	224,872	114,500
260,049	3,452	224,535	114,344
261,063	3,604	224,458	114,408
262,078	3,437	224,484	114,287
263,093	3,385	224,312	114,150
264,107	3,466	224,155	114,121
265,122	3,410	224,055	114,018
266,136	3,772	223,853	114,174
267,151	3,705	223,921	114,149
268,166	3,408	223,404	113,655
269,180	2,963	223,296	113,260
270,195	3,143	222,962	113,213
271,209	2,937	223,031	113,085
272,224	3,301	222,924	113,291
273,239	3,396	222,724	113,249
274,253	3,196	222,623	113,040
275,268	3,122	222,298	112,810
276,282	3,036	222,221	112,697
277,297	2,979	222,091	112,580
278,312	2,966	221,921	112,474
279,326	3,206	221,816	112,587
280,341	3,180	221,738	112,518
281,355	3,216	221,717	112,525
282,370	3,042	221,512	112,282
283,384	3,174	221,125	112,173
284,399	2,845	220,932	111,824
285,414	2,881	221,006	111,878
286,428	3,268	220,912	112,104
287,443	3,190	220,735	111,947
288,457	3,360	220,636	112,011
289,472	3,236	220,312	111,746
290,487	2,725	220,166	111,289
291,501	2,667	220,079	111,193
292,516	2,814	220,000	111,250
293,530	2,886	219,768	111,176
294,545	2,782	219,728	111,070
295,560	3,004	219,603	111,158
296,574	2,930	219,560	111,072
297,589	3,146	219,181	111,028
298,603	3,275	219,166	111,104
299,618	3,244	219,199	111,088
300,633	3,208	218,899	110,900
301,647	3,382	218,971	111,053
302,662	3,453	218,668	110,941
303,676	3,521	218,497	110,893
304,691	3,456	218,345	110,760
305,706	3,666	218,281	110,869
306,720	3,332	218,113	110,533
307,735	3,151	217,929	110,299
308,749	2,901	217,753	110,020
309,764	3,307	217,651	110,251
310,779	3,472	217,507	110,286
311,793	3,443	217,409	110,206
312,808	3,240	217,367	110,029
313,822	3,404	217,069	109,986
314,837	3,297	216,981	109,855
315,852	3,017	216,747	109,526
316,866	3,416	216,645	109,751
317,881	3,455	216,649	109,771
318,895	3,551	216,423	109,715
319,910	3,131	216,189	109,287
320,925	2,761	216,044	108,940
321,939	2,701	215,854	108,791
322,954	2,868	215,886	108,917
323,968	3,244	215,818	109,141
324,983	3,236	215,557	108,993
325,997	3,113	215,437	108,835
327,012	3,346	215,337	108,941
328,027	3,512	215,314	109,038
329,041	3,814	215,124	109,146
330,056	3,789	214,986	109,048
331,070	3,401	214,854	108,696
332,085	3,034	214,515	108,256
333,100	3,314	214,529	108,451
334,114	3,438	214,327	108,427
335,129	3,260	214,173	108,214
336,143	3,043	214,081	108,004
337,158	3,207	213,882	108,010
338,173	3,232	213,855	108,004
339,187	3,023	213,670	107,754
340,202	3,060	213,473	107,671
341,216	2,884	213,320	107,460
342,231	3,253	213,211	107,656
343,246	3,000	213,111	107,417
344,260	2,946	213,064	107,347
345,275	3,231	212,859	107,433
346,289	3,172	212,808	107,357
347,304	3,097	212,805	107,293
348,319	3,256	212,421	107,201
349,333	3,076	212,310	107,010
350,348	3,212	212,111	106,995
351,362	3,542	212,091	107,206
352,377	3,626	211,939	107,179
353,392	3,374	211,810	106,927
354,406	3,300	211,637	106,780
355,421	195,798	1341,550	1420,284
356,435	156,413	1479,183	1420,247
