DTS Sentinel unit serial number:	SN410029Multiplexer serial number:	ORYXHardware model number:	OX2-SRSoftware version number:	ORYX F/W v4,00 Oryx Data Collector v3.7.2.0data status	okinstallation	B6 Nyhavnadifferential loss correction	single-endedforward channel	channel 2reverse channel	N/Adate	2023/12/09time	23:05:08forward acquisition time	300,00reverse acquisition time	0,00gamma	499,1914k internal	0,3127k external	0,3127temperature offset calibration	1,0000default loss term (dB/km)	0,3820temperature slope calibration	1,0000multiplexer offset coefficient	1,0000multiplexer slope coefficient	1,0000fibre end	0,00T internal ref (°C)	21,69T ext. ref 1 (°C)	5,43T ext. ref 2 (°C)	5,41length (m)	temperature (°C)	Stokes	anti-Stokes-744,400	-62,083	0,067	-0,021
-743,385	-144,300	-0,249	0,017
-742,371	39,723	0,041	-0,027
-741,356	-25,732	-0,226	0,099
-740,342	-96,169	0,110	-0,022
-739,327	-104,502	-0,199	-0,034
-738,312	415,944	0,048	-0,076
-737,298	-8,757	-0,153	-0,076
-736,283	139,820	0,060	-0,059
-735,269	120,660	-0,241	0,223
-734,254	-182,583	0,179	0,002
-733,239	-160,834	-0,382	-0,015
-732,225	-79,452	0,052	0,013
-731,210	800,000	-0,023	0,075
-730,196	193,012	0,044	-0,050
-729,181	-200,000	-0,016	0,070
-728,167	-200,000	0,013	-0,058
-727,152	95,185	-0,054	-0,045
-726,137	136,014	-0,027	0,026
-725,123	173,428	-0,072	-0,077
-724,108	-200,000	-0,023	-0,123
-723,094	390,996	-0,069	-0,107
-722,079	-200,000	0,019	-0,062
-721,064	-61,901	-0,069	-0,021
-720,050	800,000	0,057	0,125
-719,035	-200,000	-0,003	0,013
-718,021	800,000	0,041	0,110
-717,006	-3,531	0,098	0,050
-715,991	-164,600	-0,088	-0,003
-714,977	800,000	-0,047	-0,098
-713,962	-28,677	-0,065	-0,028
-712,948	252,792	-0,066	-0,084
-711,933	-25,500	0,036	-0,016
-710,918	-200,000	0,019	-0,065
-709,904	25,951	-0,032	-0,020
-708,889	-104,667	-0,167	-0,028
-707,875	-114,333	0,081	-0,011
-706,860	-126,868	-0,150	-0,016
-705,845	526,215	0,039	-0,068
-704,831	-131,468	0,031	0,003
-703,816	800,000	0,038	-0,084
-702,802	250,255	-0,024	0,030
-701,787	31,580	-0,068	-0,044
-700,772	-4,945	-0,038	0,019
-699,758	800,000	-0,015	-0,036
-698,743	224,328	0,053	-0,064
-697,729	-200,000	0,005	0,116
-696,714	-91,568	-0,086	-0,018
-695,699	-9,620	-0,205	-0,101
-694,685	92,146	0,109	0,091
-693,670	-200,000	-0,000	-0,114
-692,656	437,625	-0,044	-0,072
-691,641	210,563	0,060	-0,071
-690,627	-200,000	0,013	0,112
-689,612	189,571	-0,073	0,081
-688,597	800,000	-0,036	0,092
-687,583	62,627	-0,085	-0,063
-686,568	-13,607	0,042	-0,020
-685,554	-33,605	-0,101	0,041
-684,539	64,125	0,062	0,046
-683,524	150,868	0,046	0,046
-682,510	-74,951	-0,097	0,026
-681,495	547,770	0,049	-0,088
-680,481	-91,201	0,099	0,021
-679,466	427,771	0,060	-0,096
-678,451	-13,538	-0,165	-0,079
-677,437	74,573	0,138	-0,108
-676,422	-86,865	-0,090	-0,020
-675,408	-164,428	0,114	0,004
-674,393	311,342	0,058	-0,081
-673,378	711,059	-0,062	-0,122
-672,364	-200,000	-0,017	-0,131
-671,349	-25,799	0,136	-0,059
-670,335	168,151	-0,101	-0,107
-669,320	-200,000	0,003	-0,148
-668,305	126,251	-0,046	0,044
-667,291	-200,000	-0,026	-0,091
-666,276	316,810	-0,045	0,064
-665,262	-200,000	-0,002	0,018
-664,247	170,496	-0,178	-0,190
-663,232	2,308	-0,064	-0,034
-662,218	85,663	0,085	0,070
-661,203	-14,842	0,140	-0,067
-660,189	35,019	0,105	-0,068
-659,174	35,615	0,087	-0,057
-658,159	177,546	-0,160	-0,173
-657,145	147,308	-0,080	-0,080
-656,130	103,486	0,086	-0,075
-655,116	478,812	-0,035	0,060
-654,101	168,156	-0,063	-0,066
-653,086	143,988	-0,111	-0,110
-652,072	-91,025	0,043	0,009
-651,057	-141,172	-0,165	0,012
-650,043	675,464	-0,054	-0,104
-649,028	157,135	0,079	-0,081
-648,014	518,627	0,015	-0,026
-646,999	-75,770	0,067	0,017
-645,984	154,949	-0,054	-0,055
-644,970	-200,000	0,012	-0,042
-643,955	800,000	0,035	0,083
-642,941	-62,324	0,071	-0,022
-641,926	-70,497	-0,004	0,001
-640,911	-200,000	-0,006	-0,060
-639,897	550,699	0,043	0,076
-638,882	-15,522	-0,101	-0,048
-637,868	-83,146	0,103	-0,024
-636,853	-79,780	-0,157	0,039
-635,838	-47,616	-0,086	0,031
-634,824	-22,556	-0,065	-0,029
-633,809	-134,125	0,113	-0,010
-632,795	140,510	0,086	0,084
-631,780	-200,000	0,016	0,106
-630,765	488,446	-0,097	0,165
-629,751	-16,204	-0,100	-0,047
-628,736	800,000	-0,050	-0,114
-627,722	-200,000	0,016	0,112
-626,707	168,344	0,032	-0,033
-625,692	-136,436	0,044	0,004
-624,678	19,671	-0,112	0,067
-623,663	154,066	0,082	0,083
-622,649	-149,659	-0,068	0,004
-621,634	122,843	0,095	0,088
-620,619	-200,000	0,013	-0,092
-619,605	37,595	-0,014	0,009
-618,590	83,541	-0,086	0,069
-617,576	54,557	0,061	-0,043
-616,561	800,000	0,018	0,058
-615,546	-200,000	-0,020	-0,104
-614,532	-24,391	-0,047	-0,021
-613,517	-200,000	-0,015	-0,154
-612,503	800,000	0,037	-0,083
-611,488	99,006	-0,130	0,111
-610,474	-66,918	0,018	0,005
-609,459	132,151	0,014	0,014
-608,444	81,271	-0,090	0,072
-607,430	-57,052	0,006	0,002
-606,415	157,149	-0,089	-0,091
-605,401	247,824	0,015	-0,019
-604,386	-200,000	0,004	0,072
-603,371	-109,728	0,078	-0,012
-602,357	-32,400	-0,055	-0,023
-601,342	220,599	0,063	0,075
-600,328	278,660	-0,048	0,063
-599,313	-200,000	-0,016	-0,196
-598,298	587,084	-0,014	-0,025
-597,284	-200,000	0,006	-0,148
-596,269	-68,393	0,070	0,020
-595,255	-200,000	-0,031	0,106
-594,240	52,808	-0,079	0,056
-593,225	20,583	-0,059	-0,035
-592,211	-50,614	-0,162	-0,056
-591,196	675,291	-0,002	-0,004
-590,182	-98,988	0,061	0,011
-589,167	8,667	0,136	0,075
-588,152	178,279	0,023	0,025
-587,138	-200,000	-0,021	-0,098
-586,123	800,000	-0,024	-0,067
-585,109	-51,656	-0,072	-0,025
-584,094	205,961	-0,099	-0,114
-583,079	149,710	0,030	0,030
-582,065	163,659	0,053	0,055
-581,050	317,814	-0,105	0,147
-580,036	800,000	-0,039	0,087
-579,021	172,912	0,018	0,019
-578,006	-200,000	0,000	0,119
-576,992	8,998	-0,057	0,032
-575,977	157,538	0,059	0,060
-574,963	-200,000	0,027	0,193
-573,948	-200,000	-0,016	-0,097
-572,934	-200,000	-0,028	0,130
-571,919	-44,697	0,093	-0,034
-570,904	75,894	0,059	0,046
-569,890	572,231	0,039	-0,071
-568,875	105,670	-0,106	0,092
-567,861	-200,000	-0,000	0,045
-566,846	-48,536	0,061	-0,022
-565,831	-59,480	0,034	-0,011
-564,817	-200,000	0,013	-0,094
-563,802	-115,547	-0,178	-0,025
-562,788	3,715	-0,080	0,043
-561,773	800,000	0,015	-0,043
-560,758	800,000	0,034	0,103
-559,744	-200,000	-0,018	0,106
-558,729	800,000	-0,020	0,061
-557,715	61,905	-0,094	-0,069
-556,700	-29,675	-0,077	0,033
-555,685	-200,000	0,007	0,061
-554,671	276,438	-0,055	-0,073
-553,656	2,097	0,068	-0,036
-552,642	41,400	0,111	0,074
-551,627	-200,000	-0,033	-0,205
-550,612	554,456	-0,072	-0,128
-549,598	71,218	-0,013	0,010
-548,583	85,566	-0,115	-0,094
-547,569	-54,588	-0,054	0,018
-546,554	125,096	-0,033	0,031
-545,539	44,360	0,113	0,077
-544,525	44,362	-0,034	-0,023
-543,510	-87,434	-0,025	-0,006
-542,496	800,000	-0,032	-0,070
-541,481	-200,000	0,007	-0,072
-540,466	-200,000	0,001	-0,057
-539,452	800,000	-0,056	0,145
-538,437	-139,024	0,089	0,007
-537,423	-1,171	0,089	-0,046
-536,408	-200,000	-0,016	-0,119
-535,393	496,018	0,039	-0,067
-534,379	177,934	-0,062	-0,067
-533,364	52,026	0,088	0,062
-532,350	-81,233	0,056	-0,014
-531,335	-122,171	-0,114	0,014
-530,321	111,496	0,105	-0,094
-529,306	313,249	-0,102	0,142
-528,291	-80,803	-0,041	0,010
-527,277	-68,249	0,140	-0,040
-526,262	242,828	0,047	-0,058
-525,248	203,382	0,018	0,020
-524,233	287,859	0,089	-0,119
-523,218	-200,000	-0,048	-0,156
-522,204	505,969	-0,065	-0,112
-521,189	800,000	-0,047	0,101
-520,175	54,745	0,064	-0,046
-519,160	-200,000	-0,054	0,192
-518,145	-107,538	0,132	0,021
-517,131	319,885	-0,077	0,108
-516,116	95,074	0,071	-0,059
-515,102	-109,925	-0,011	0,002
-514,087	49,859	-0,163	-0,113
-513,072	-200,000	0,016	-0,059
-512,058	-200,000	-0,018	-0,104
-511,043	34,670	0,066	0,042
-510,029	800,000	-0,049	0,123
-509,014	110,024	0,159	0,140
-507,999	-163,486	0,036	0,001
-506,985	126,281	0,062	0,058
-505,970	-200,000	0,013	-0,067
-504,956	18,337	0,115	-0,068
-503,941	-40,944	-0,043	0,016
-502,926	-177,494	-0,074	-0,001
-501,912	86,726	-0,063	-0,051
-500,897	-200,000	0,002	0,035
-499,883	296,197	-0,073	0,099
-498,868	-200,000	-0,002	-0,020
-497,853	324,501	0,095	0,134
-496,839	575,742	-0,016	-0,028
-495,824	800,000	-0,005	-0,012
-494,810	-200,000	-0,006	0,086
-493,795	800,000	-0,031	-0,091
-492,781	-200,000	0,001	0,028
-491,766	-200,000	-0,001	-0,019
-490,751	-200,000	0,003	-0,082
-489,737	800,000	0,024	-0,056
-488,722	71,319	0,123	0,094
-487,708	-7,220	-0,034	-0,017
-486,693	53,308	0,090	-0,064
-485,678	-8,891	-0,163	0,080
-484,664	-164,659	-0,119	0,004
-483,649	461,319	0,042	-0,069
-482,635	-200,000	-0,019	0,073
-481,620	80,333	-0,035	-0,028
-480,605	258,506	0,017	0,022
-479,591	-200,000	0,015	-0,049
-478,576	-105,939	0,036	0,006
-477,562	800,000	-0,029	0,084
-476,547	-68,540	-0,116	-0,033
-475,532	298,260	-0,070	-0,095
-474,518	-69,294	0,123	0,035
-473,503	-127,460	-0,102	-0,011
-472,489	800,000	0,040	0,110
-471,474	-26,484	-0,096	0,041
-470,459	-200,000	0,001	-0,079
-469,445	86,826	0,024	0,019
-468,430	152,359	0,044	-0,044
-467,416	420,670	-0,077	0,123
-466,401	-200,000	-0,013	0,084
-465,386	-200,000	-0,007	-0,074
-464,372	24,895	-0,116	-0,070
-463,357	225,713	-0,039	0,047
-462,343	-133,248	0,020	-0,002
-461,328	108,298	-0,112	0,098
-460,313	3,393	0,085	0,045
-459,299	161,631	-0,038	-0,040
-458,284	-98,904	0,045	0,008
-457,270	-200,000	0,004	0,034
-456,255	108,387	0,024	0,021
-455,241	800,000	-0,035	-0,081
-454,226	5,959	0,099	-0,054
-453,211	-200,000	-0,003	-0,119
-452,197	-200,000	-0,032	0,146
-451,182	184,217	-0,089	0,097
-450,168	-200,000	-0,001	-0,011
-449,153	39,601	-0,068	-0,045
-448,138	-200,000	0,026	-0,096
-447,124	210,137	0,043	0,050
-446,109	59,922	-0,027	0,020
-445,095	700,184	0,013	0,025
-444,080	753,108	0,048	0,095
-443,065	-98,799	-0,110	0,020
-442,051	-86,269	0,068	-0,015
-441,036	74,932	-0,060	-0,047
-440,022	2,053	-0,056	-0,030
-439,007	606,524	0,017	0,032
-437,992	94,395	-0,037	-0,031
-436,978	281,302	0,108	0,143
-435,963	-54,769	-0,052	-0,017
-434,949	295,101	-0,036	0,049
-433,934	3,097	-0,024	0,013
-432,919	28,536	-0,111	0,069
-431,905	73,859	-0,083	-0,064
-430,890	-20,252	0,024	0,011
-429,876	-19,758	0,113	0,051
-428,861	-200,000	-0,002	-0,071
-427,846	369,130	0,019	-0,028
-426,832	-95,257	-0,050	0,010
-425,817	800,000	-0,076	-0,197
-424,803	-64,353	0,097	0,029
-423,788	-200,000	-0,031	0,169
-422,773	239,293	0,030	0,036
-421,759	-182,598	0,066	0,001
-420,744	-22,199	-0,104	-0,046
-419,730	604,262	0,073	-0,134
-418,715	-200,000	0,017	-0,133
-417,701	-200,000	-0,025	-0,088
-416,686	-82,519	0,127	0,030
-415,671	224,767	0,040	-0,048
-414,657	578,412	-0,011	0,020
-413,642	221,837	0,053	-0,063
-412,628	30,270	-0,052	-0,032
-411,613	120,840	-0,096	-0,088
-410,598	564,676	-0,052	-0,093
-409,584	265,690	0,079	0,101
-408,569	-200,000	-0,002	0,092
-407,555	139,178	-0,066	-0,064
-406,540	203,868	-0,046	0,053
-405,525	-75,258	-0,100	0,026
-404,511	92,332	0,046	-0,038
-403,496	-21,953	0,064	-0,028
-402,482	-172,668	0,107	0,002
-401,467	147,710	0,029	0,029
-400,452	60,933	0,066	0,048
-399,438	-140,222	0,081	-0,006
-398,423	277,641	-0,063	-0,082
-397,409	-200,000	0,008	-0,104
-396,394	111,938	-0,095	-0,084
-395,379	-104,696	0,035	-0,006
-394,365	135,467	-0,029	-0,028
-393,350	-73,467	0,073	-0,019
-392,336	54,878	0,139	0,098
-391,321	-200,000	-0,004	0,014
-390,306	-82,305	-0,119	-0,028
-389,292	622,296	0,072	-0,133
-388,277	89,520	0,088	0,072
-387,263	800,000	-0,073	-0,162
-386,248	210,839	0,007	-0,008
-385,233	-17,651	-0,126	0,058
-384,219	81,381	0,119	0,094
-383,204	-200,000	0,002	-0,049
-382,190	156,110	-0,117	-0,118
-381,175	-52,426	-0,063	-0,021
-380,160	-186,936	0,135	0,001
-379,146	102,805	0,075	-0,064
-378,131	-200,000	0,004	0,207
-377,117	-200,000	0,044	0,181
-376,102	50,432	0,076	-0,053
-375,088	-200,000	0,014	-0,119
-374,073	-133,010	0,042	0,004
-373,058	-51,178	0,078	0,027
-372,044	-26,597	0,073	-0,031
-371,029	-41,488	0,012	-0,005
-370,015	-200,000	-0,011	-0,085
-369,000	706,685	0,038	0,075
-367,985	-131,729	-0,165	-0,016
-366,971	-200,000	0,015	-0,069
-365,956	152,247	0,072	-0,072
-364,942	-91,662	0,023	0,005
-363,927	-200,000	0,017	0,102
-362,912	-200,000	-0,012	0,104
-361,898	800,000	0,024	0,067
-360,883	518,212	-0,044	-0,075
-359,869	204,477	0,052	-0,060
-358,854	10,401	0,153	0,085
-357,839	-200,000	0,024	0,114
-356,825	118,145	0,083	-0,075
-355,810	83,460	0,069	-0,055
-354,796	78,323	-0,046	0,036
-353,781	-93,721	-0,241	-0,048
-352,766	49,130	-0,063	-0,043
-351,752	800,000	0,045	-0,107
-350,737	641,924	-0,027	0,051
-349,723	-138,525	-0,030	0,002
-348,708	-69,207	-0,085	-0,024
-347,693	38,341	-0,036	0,024
-346,679	800,000	-0,026	0,078
-345,664	800,000	0,019	0,043
-344,650	-200,000	-0,003	0,085
-343,635	-51,698	0,060	0,020
-342,620	-39,661	0,104	0,040
-341,606	272,368	0,062	0,081
-340,591	-200,000	-0,029	0,121
-339,577	131,898	0,068	-0,065
-338,562	800,000	-0,043	-0,096
-337,548	-200,000	-0,008	0,062
-336,533	-106,966	0,013	0,002
-335,518	-108,738	0,126	0,020
-334,504	552,562	0,036	-0,064
-333,489	-49,019	0,141	0,049
-332,475	-83,231	-0,025	0,006
-331,460	18,109	0,077	0,045
-330,445	-200,000	0,007	0,120
-329,431	800,000	-0,023	0,074
-328,416	-130,153	0,125	0,012
-327,402	800,000	0,015	0,047
-326,387	48,792	-0,156	0,107
-325,372	152,319	-0,030	-0,030
-324,358	0,076	-0,023	-0,012
-323,343	594,831	-0,035	0,063
-322,329	-200,000	0,012	0,163
-321,314	138,026	0,044	0,042
-320,299	91,147	0,043	0,036
-319,285	-50,289	-0,111	0,038
-318,270	98,804	-0,050	0,042
-317,256	800,000	0,003	0,007
-316,241	-72,898	0,115	0,031
-315,226	417,214	-0,030	0,047
-314,212	8,456	-0,079	-0,043
-313,197	-200,000	-0,008	0,064
-312,183	80,782	-0,034	0,027
-311,168	-97,392	-0,094	0,018
-310,153	30,742	0,073	-0,046
-309,139	-21,545	-0,134	-0,060
-308,124	-200,000	0,007	-0,122
-307,110	-168,428	0,148	-0,004
-306,095	800,000	-0,012	0,033
-305,080	-121,071	0,031	0,004
-304,066	800,000	0,062	-0,136
-303,051	800,000	0,065	-0,138
-302,037	9,120	-0,039	-0,021
-301,022	-200,000	0,003	0,036
-300,008	-200,000	0,009	0,054
-298,993	-84,141	0,184	0,042
-297,978	800,000	-0,029	0,066
-296,964	415,570	-0,038	-0,060
-295,949	-70,208	-0,177	0,049
-294,935	-16,635	-0,174	0,080
-293,920	72,855	-0,112	0,085
-292,905	48,906	0,019	-0,013
-291,891	800,000	0,070	-0,153
-290,876	18,914	-0,058	-0,034
-289,862	800,000	0,011	0,029
-288,847	-200,000	-0,001	-0,036
-287,832	792,525	0,005	-0,010
-286,818	-118,745	0,054	0,007
-285,803	-200,000	-0,013	-0,055
-284,789	-10,868	0,101	0,048
-283,774	244,473	0,050	0,062
-282,759	800,000	-0,025	-0,073
-281,745	-12,465	-0,183	-0,087
-280,730	-200,000	0,003	-0,110
-279,716	292,974	0,020	0,026
-278,701	-67,517	-0,028	-0,008
-277,686	513,256	0,038	-0,066
-276,672	508,010	-0,040	0,069
-275,657	153,501	0,028	0,028
-274,643	-200,000	0,003	-0,020
-273,628	-55,054	-0,050	0,016
-272,613	224,417	0,040	-0,047
-271,599	170,079	-0,076	-0,079
-270,584	647,771	0,077	-0,145
-269,570	800,000	0,028	0,070
-268,555	-200,000	0,016	-0,117
-267,540	800,000	-0,057	-0,132
-266,526	262,918	-0,088	-0,112
-265,511	47,784	-0,073	0,049
-264,497	-40,721	-0,103	-0,039
-263,482	7,961	0,022	-0,012
-262,467	-9,432	0,070	-0,034
-261,453	-200,000	-0,004	-0,179
-260,438	-200,000	0,003	-0,058
-259,424	-22,631	0,133	-0,059
-258,409	438,103	-0,052	-0,083
-257,395	217,465	0,022	0,026
-256,380	35,463	0,090	0,057
-255,365	800,000	-0,053	0,113
-254,351	-109,221	-0,102	-0,016
-253,336	68,510	0,095	0,071
-252,322	-200,000	-0,002	-0,029
-251,307	-187,501	0,068	0,001
-250,292	-0,687	0,220	-0,114
-249,278	-85,759	0,025	-0,006
-248,263	-48,513	0,064	0,022
-247,249	-181,675	-0,047	-0,001
-246,234	800,000	0,027	0,083
-245,219	113,466	-0,017	-0,015
-244,205	800,000	-0,099	-0,233
-243,190	19,949	0,129	0,076
-242,176	-200,000	0,011	0,182
-241,161	-200,000	-0,003	-0,083
-240,146	458,259	0,051	-0,083
-239,132	73,733	0,102	0,078
-238,117	-136,527	-0,098	-0,008
-237,103	28,406	-0,101	-0,062
-236,088	800,000	0,025	-0,078
-235,073	-54,608	0,159	0,052
-234,059	189,951	0,121	0,132
-233,044	77,011	-0,029	-0,023
-232,030	597,671	0,058	0,105
-231,015	-86,463	-0,111	-0,025
-230,000	348,624	-0,041	-0,060
-228,986	-200,000	0,006	-0,135
-227,971	31,991	0,030	0,019
-226,957	-37,560	-0,012	0,005
-225,942	800,000	0,022	0,056
-224,927	-79,658	0,149	-0,036
-223,913	-141,700	-0,071	0,005
-222,898	-33,334	0,084	0,034
-221,884	-70,700	-0,040	-0,011
-220,869	-21,948	0,089	-0,039
-219,855	-163,171	-0,087	-0,003
-218,840	218,317	0,038	0,044
-217,825	67,827	-0,043	0,032
-216,811	-117,460	0,023	0,003
-215,796	-200,000	-0,037	-0,130
-214,782	-36,031	0,078	-0,031
-213,767	28,803	0,117	0,072
-212,752	-200,000	-0,006	-0,086
-211,738	-200,000	0,008	0,031
-210,723	139,163	0,073	0,070
-209,709	-200,000	-0,012	-0,063
-208,694	-103,573	-0,117	-0,020
-207,679	-43,263	0,070	0,026
-206,665	800,000	-0,040	-0,104
-205,650	364,691	0,034	0,049
-204,636	5,588	-0,045	0,024
-203,621	800,000	0,071	-0,213
-202,606	76,087	-0,112	0,086
-201,592	-62,366	-0,055	0,016
-200,577	800,000	-0,033	-0,103
-199,563	213,590	0,056	-0,064
-198,548	-63,815	0,092	-0,027
-197,533	30,035	-0,111	0,069
-196,519	160,183	0,087	-0,088
-195,504	97,735	0,060	0,050
-194,490	-132,785	-0,100	0,009
-193,475	-127,731	0,044	-0,005
-192,460	-29,744	0,108	-0,045
-191,446	-200,000	0,004	0,056
-190,431	-200,000	0,003	0,112
-189,417	-200,000	-0,024	0,119
-188,402	163,598	0,090	0,093
-187,387	-25,767	-0,065	0,028
-186,373	-161,644	0,077	0,003
-185,358	-70,627	-0,048	-0,013
-184,344	-200,000	-0,013	0,048
-183,329	504,916	0,094	0,159
-182,315	65,919	-0,082	-0,061
-181,300	250,776	-0,028	0,035
-180,285	-100,215	-0,042	-0,008
-179,271	667,010	-0,057	0,108
-178,256	-200,000	-0,002	0,072
-177,242	286,635	0,058	-0,077
-176,227	699,986	0,010	0,020
-175,212	-6,865	0,069	0,034
-174,198	2,834	-0,066	0,035
-173,183	47,702	-0,098	-0,067
-172,169	-200,000	-0,022	-0,129
-171,154	-8,246	0,038	-0,018
-170,139	-122,523	-0,086	0,010
-169,125	-50,503	0,140	0,048
-168,110	-200,000	0,005	-0,045
-167,096	23,907	0,011	0,006
-166,081	201,039	0,129	0,145
-165,066	400,696	0,049	-0,075
-164,052	-134,829	-0,050	0,004
-163,037	-52,878	0,140	0,047
-162,023	170,179	-0,048	-0,050
-161,008	-167,245	-0,069	0,002
-159,993	155,546	0,017	0,017
-158,979	121,497	-0,081	-0,073
-157,964	25,202	-0,094	0,057
-156,950	-91,332	-0,172	0,036
-155,935	36,134	-0,077	-0,049
-154,920	-35,202	0,172	0,068
-153,906	178,979	-0,023	0,024
-152,891	135,130	-0,136	0,128
-151,877	-46,115	-0,135	-0,048
-150,862	436,900	-0,059	-0,094
-149,847	365,423	0,090	-0,133
-148,833	-65,529	0,119	-0,034
-147,818	-116,841	0,067	-0,009
-146,804	-150,759	-0,092	0,005
-145,789	-200,000	0,009	-0,115
-144,775	-200,000	-0,006	-0,172
-143,760	-200,000	-0,004	0,033
-142,745	-57,299	-0,031	0,010
-141,731	-31,964	0,029	-0,012
-140,716	110,498	0,096	0,084
-139,702	800,000	0,028	0,058
-138,687	-94,322	0,040	0,008
-137,672	93,945	-0,076	0,063
-136,658	86,027	-0,063	-0,050
-135,643	-96,732	0,061	0,012
-134,629	193,366	0,016	-0,018
-133,614	-155,900	0,069	-0,003
-132,599	106,295	-0,124	-0,106
-131,585	-68,360	0,123	0,034
-130,570	800,000	-0,026	-0,052
-129,556	131,579	-0,052	-0,049
-128,541	-200,000	0,000	-0,036
-127,526	275,514	0,033	-0,043
-126,512	-179,272	0,162	-0,003
-125,497	108,719	0,078	-0,068
-124,483	416,291	0,031	0,047
-123,468	-145,272	0,080	0,005
-122,453	335,518	-0,078	-0,111
-121,439	800,000	0,030	-0,082
-120,424	-53,523	0,055	0,018
-119,410	-200,000	-0,016	0,112
-118,395	73,593	-0,057	0,044
-117,380	576,319	-0,045	-0,080
-116,366	370,021	0,121	0,178
-115,351	-200,000	0,001	0,045
-114,337	-83,621	-0,086	0,020
-113,322	230,169	-0,043	0,051
-112,307	-76,116	0,082	0,021
-111,293	-41,498	0,220	-0,082
-110,278	113,321	-0,093	0,082
-109,264	90,140	-0,143	0,116
-108,249	65,016	0,086	-0,063
-107,234	800,000	-0,020	-0,059
-106,220	-200,000	0,005	0,065
-105,205	-122,720	0,187	-0,022
-104,191	-20,638	0,161	0,071
-103,176	602,211	0,024	0,044
-102,162	556,912	0,044	0,077
-101,147	-183,125	-0,129	0,002
-100,132	3,184	-0,060	0,031
-99,118	-48,409	0,116	0,040
-98,103	102,881	0,051	-0,043
-97,089	-200,000	-0,005	0,017
-96,074	23,734	0,108	0,064
-95,059	246,102	0,038	-0,047
-94,045	39,427	0,067	0,043
-93,030	-200,000	-0,019	0,090
-92,016	293,860	0,015	-0,019
-91,001	-12,245	0,027	-0,013
-89,986	-50,266	0,044	0,015
-88,972	10,987	0,119	-0,066
-87,957	87,189	-0,131	0,105
-86,943	-200,000	0,005	0,068
-85,928	384,278	0,128	0,192
-84,913	800,000	-0,035	0,077
-83,899	-23,997	0,036	0,016
-82,884	800,000	0,029	-0,069
-81,870	-26,572	-0,059	0,025
-80,855	214,285	0,039	-0,045
-79,840	-200,000	0,007	0,153
-78,826	230,411	-0,071	-0,084
-77,811	-200,000	-0,017	-0,102
-76,797	104,981	-0,025	0,021
-75,782	87,069	0,030	-0,024
-74,767	-95,741	0,053	0,010
-73,753	-200,000	0,012	0,187
-72,738	-45,553	-0,115	0,041
-71,724	-61,333	-0,149	0,045
-70,709	-200,000	-0,029	-0,127
-69,694	-193,241	0,111	0,001
-68,680	-200,000	0,005	0,038
-67,665	33,912	-0,042	-0,027
-66,651	-183,922	0,082	-0,001
-65,636	-64,787	-0,043	0,012
-64,622	596,310	0,024	0,043
-63,607	800,000	-0,066	-0,152
-62,592	444,341	0,053	-0,085
-61,578	-6,840	-0,056	-0,027
-60,563	22,351	-0,152	0,090
-59,549	-57,506	0,151	0,048
-58,534	-117,509	-1,350	-0,175
-57,519	721,095	-0,759	-1,471
-56,505	-200,000	-0,995	-4,575
-55,490	38,752	0,581	-0,375
-54,476	800,000	4,918	11,765
-53,461	-200,000	14,214	253,119
-52,446	-200,000	695,272	2232,893
-51,432	569,725	1624,559	2874,672
-50,417	117,078	1631,836	1452,645
-49,403	72,861	1285,596	971,793
-48,388	37,464	1022,905	655,974
-47,373	23,724	981,108	584,048
-46,359	22,944	970,654	575,249
-45,344	21,950	966,495	569,516
-44,330	21,942	964,827	568,484
-43,315	21,719	963,484	566,945
-42,300	21,731	962,525	566,396
-41,286	21,741	961,571	565,847
-40,271	21,698	960,446	565,023
-39,257	21,738	959,542	564,597
-38,242	21,678	958,591	563,821
-37,227	21,704	957,787	563,410
-36,213	21,714	956,791	562,834
-35,198	21,665	956,104	562,251
-34,184	21,722	955,309	561,944
-33,169	21,711	954,370	561,334
-32,154	21,703	953,622	560,847
-31,140	21,734	952,772	560,424
-30,125	21,777	951,850	559,995
-29,111	21,743	951,150	559,455
-28,096	21,756	950,299	558,973
-27,082	21,735	949,665	558,509
-26,067	21,737	948,988	558,096
-25,052	21,745	948,175	557,622
-24,038	21,730	947,501	557,156
-23,023	21,707	946,898	556,704
-22,009	21,785	946,249	556,552
-20,994	21,757	945,615	556,065
-19,979	21,764	945,088	555,755
-18,965	21,762	944,450	555,353
-17,950	21,759	943,707	554,883
-16,936	21,698	943,151	554,339
-15,921	21,723	942,237	553,862
-14,906	21,632	941,720	553,244
-13,892	21,644	941,224	552,971
-12,877	21,617	940,474	552,422
-11,863	21,486	940,095	551,764
-10,848	21,647	939,385	551,835
-9,833	21,649	939,018	551,603
-8,819	21,669	938,299	551,221
-7,804	21,624	937,618	550,657
-6,790	21,576	936,989	550,116
-5,775	21,649	936,237	549,882
-4,760	21,649	935,792	549,599
-3,746	21,645	934,980	549,088
-2,731	21,537	934,407	548,390
-1,717	21,469	933,625	547,695
-0,702	21,516	933,017	547,462
0,313	21,279	932,341	547,147
1,327	24,246	930,347	555,241
2,342	33,375	793,863	498,028
3,356	30,974	450,621	279,061
4,371	0,633	294,411	151,985
5,386	-3,396	275,446	138,363
6,400	-4,793	269,780	134,205
7,415	-5,260	267,339	132,549
8,429	-5,066	266,357	132,228
9,444	-4,937	265,275	131,798
10,459	-4,945	264,634	131,460
11,473	-4,997	264,189	131,180
12,488	-5,184	263,730	130,770
13,502	-5,244	263,126	130,405
14,517	-5,262	262,799	130,214
15,531	-5,030	262,257	130,144
16,546	-4,878	261,858	130,072
17,561	-4,763	261,518	129,994
18,575	-4,944	261,352	129,737
19,590	-5,081	260,879	129,368
20,604	-4,946	260,761	129,419
21,619	-5,077	260,396	129,109
22,634	-5,197	260,040	128,814
23,648	-5,118	259,568	128,639
24,663	-5,070	259,434	128,604
25,677	-5,191	259,271	128,404
26,692	-5,230	258,987	128,217
27,707	-5,205	258,672	128,072
28,721	-5,261	258,357	127,854
29,736	-5,227	258,204	127,797
30,750	-5,233	257,973	127,666
31,765	-5,263	257,690	127,488
32,780	-5,277	257,566	127,403
33,794	-5,141	257,210	127,336
34,809	-5,234	257,041	127,159
35,823	-5,144	256,580	126,999
36,838	-5,234	256,500	126,869
37,853	-5,466	256,295	126,552
38,867	-5,284	256,017	126,563
39,882	-5,205	255,694	126,462
40,896	-5,228	255,602	126,385
41,911	-5,348	255,422	126,180
42,926	-5,331	255,285	126,115
43,940	-5,263	254,809	125,928
44,955	-5,382	254,602	125,711
45,969	-5,382	254,566	125,682
46,984	-5,562	254,264	125,364
47,999	-5,619	253,851	125,100
49,013	-5,646	253,790	125,034
50,028	-5,738	253,339	124,721
51,042	-5,865	253,251	124,556
52,057	-5,859	252,860	124,358
53,071	-5,965	252,644	124,149
54,086	-5,976	252,774	124,191
55,101	-5,701	252,571	124,320
56,115	-5,447	252,335	124,412
57,130	-5,187	252,310	124,614
58,144	-4,902	251,889	124,642
59,159	-5,049	251,856	124,487
60,174	-5,166	251,713	124,304
61,188	-5,085	251,240	124,129
62,203	-4,997	251,221	124,185
63,217	-5,204	250,984	123,879
64,232	-5,206	250,844	123,797
65,247	-5,125	250,505	123,688
66,261	-5,049	250,314	123,648
67,276	-5,155	250,187	123,483
68,290	-5,489	249,823	123,006
69,305	-5,591	249,585	122,791
70,320	-5,544	249,441	122,749
71,334	-5,403	249,294	122,786
72,349	-5,062	249,107	122,974
73,363	-4,899	248,972	123,036
74,378	-4,932	248,736	122,881
75,393	-5,007	248,350	122,615
76,407	-5,155	248,358	122,482
77,422	-5,144	248,180	122,392
78,436	-4,954	247,855	122,383
79,451	-5,010	247,634	122,215
80,466	-4,964	247,355	122,106
81,480	-5,578	247,368	121,581
82,495	-5,294	247,025	121,642
83,509	-5,324	247,042	121,614
84,524	-5,376	246,712	121,397
85,539	-5,436	246,437	121,200
86,553	-5,331	246,422	121,271
87,568	-5,281	246,117	121,152
88,582	-5,383	245,912	120,954
89,597	-5,400	245,672	120,811
90,611	-5,350	245,724	120,868
91,626	-5,089	245,410	120,921
92,641	-5,098	245,160	120,780
93,655	-5,218	245,025	120,602
94,670	-5,230	244,771	120,457
95,684	-5,224	244,663	120,398
96,699	-5,159	244,554	120,387
97,714	-5,216	244,273	120,191
98,728	-5,568	244,206	119,853
99,743	-5,475	243,953	119,796
100,757	-5,520	243,624	119,586
101,772	-5,357	243,546	119,673
102,787	-5,385	243,394	119,565
103,801	-5,193	243,112	119,575
104,816	-5,317	242,935	119,374
105,830	-5,188	242,801	119,405
106,845	-5,241	242,802	119,350
107,860	-5,083	242,441	119,293
108,874	-5,417	242,396	118,984
109,889	-5,202	242,060	118,987
110,903	-5,272	241,804	118,792
111,918	-5,083	241,623	118,848
112,933	-5,262	241,568	118,663
113,947	-5,540	241,519	118,399
114,962	-5,124	241,266	118,607
115,976	-5,221	241,007	118,390
116,991	-5,312	240,940	118,271
118,006	-5,186	240,716	118,254
119,020	-5,289	240,788	118,194
120,035	-5,198	240,473	118,104
121,049	-5,098	240,263	118,072
122,064	-5,138	240,253	118,024
123,079	-4,973	239,946	117,998
124,093	-5,337	239,717	117,577
125,108	-5,382	239,559	117,452
126,122	-5,595	239,246	117,114
127,137	-5,568	239,050	117,030
128,151	-5,606	239,024	116,975
129,166	-5,427	238,830	117,016
130,181	-5,536	238,571	116,790
131,195	-5,434	238,350	116,754
132,210	-5,415	238,265	116,717
133,224	-5,268	238,214	116,802
134,239	-5,224	237,992	116,719
135,254	-5,096	237,760	116,698
136,268	-5,447	237,614	116,332
137,283	-5,557	237,268	116,063
138,297	-5,478	237,135	116,051
139,312	-5,656	236,926	115,794
140,327	-5,423	236,919	115,969
141,341	-5,041	236,884	116,250
142,356	-4,963	236,713	116,219
143,370	-5,073	236,595	116,062
144,385	-4,787	236,520	116,245
145,400	-4,892	236,268	116,027
146,414	-4,759	236,074	116,028
147,429	-4,878	235,784	115,779
148,443	-4,894	235,773	115,751
149,458	-4,971	235,607	115,597
150,473	-4,891	235,392	115,545
151,487	-4,886	235,175	115,433
152,502	-4,977	235,028	115,277
153,516	-4,886	234,815	115,235
154,531	-4,917	234,678	115,133
155,546	-5,111	234,332	114,798
156,560	-5,107	234,261	114,757
157,575	-5,249	234,085	114,547
158,589	-5,188	234,014	114,551
159,604	-4,804	233,799	114,740
160,619	-4,724	233,578	114,686
161,633	-4,728	233,477	114,622
162,648	-4,662	233,254	114,555
163,662	-5,018	233,168	114,220
164,677	-4,882	233,073	114,271
165,692	-4,803	232,950	114,263
166,706	-4,952	232,836	114,079
167,721	-4,786	232,587	114,078
168,735	-4,996	232,555	113,886
169,750	-4,859	232,435	113,926
170,764	-4,876	232,132	113,754
171,779	-5,031	232,163	113,636
172,794	-4,667	231,776	113,724
173,808	-4,863	231,667	113,506
174,823	-5,433	231,292	112,864
175,837	-5,393	231,189	112,835
176,852	-5,105	231,168	113,040
177,867	-4,917	230,987	113,090
178,881	-5,098	231,026	112,957
179,896	-4,969	230,759	112,918
180,910	-5,004	230,642	112,822
181,925	-4,790	230,445	112,884
182,940	-4,967	230,279	112,654
183,954	-4,597	230,093	112,842
184,969	-5,014	230,065	112,492
185,983	-4,845	229,880	112,524
186,998	-4,609	229,676	112,598
188,013	-4,631	229,478	112,474
189,027	-4,656	229,349	112,381
190,042	-4,687	229,282	112,314
191,056	-4,701	229,076	112,192
192,071	-4,617	228,893	112,158
193,086	-4,799	228,761	111,941
194,100	-4,841	228,600	111,820
195,115	-5,036	228,242	111,484
196,129	-5,423	228,127	111,119
197,144	-3,053	228,829	113,290
198,159	1,413	229,926	117,296
199,173	3,690	230,701	119,454
200,188	3,982	230,511	119,572
201,202	3,961	230,453	119,515
202,217	4,194	230,242	119,575
203,232	4,354	230,377	119,759
204,246	4,478	230,122	119,712
205,261	4,675	229,868	119,722
206,275	4,428	229,924	119,549
207,290	4,462	229,891	119,547
208,304	4,661	229,553	119,515
209,319	4,734	229,353	119,457
210,334	4,490	229,262	119,210
211,348	4,499	228,928	119,033
212,363	4,037	228,812	118,606
213,377	3,814	228,466	118,245
214,392	3,755	228,376	118,141
215,407	3,886	228,200	118,141
216,421	3,753	228,126	117,990
217,436	3,831	227,918	117,931
218,450	3,584	227,795	117,668
219,465	3,414	227,422	117,334
220,480	3,700	227,323	117,492
221,494	3,645	227,190	117,370
222,509	3,649	227,058	117,295
223,523	3,857	226,931	117,378
224,538	3,645	226,831	117,154
225,553	3,690	226,677	117,098
226,567	3,858	226,645	117,199
227,582	3,957	226,715	117,301
228,596	4,142	226,512	117,326
229,611	3,835	226,234	116,938
230,626	3,598	226,011	116,632
231,640	3,807	225,688	116,614
232,655	3,938	225,787	116,754
233,669	4,350	225,758	117,041
234,684	4,591	225,483	117,071
235,699	4,247	225,281	116,695
236,713	4,183	225,172	116,579
237,728	3,876	224,904	116,199
238,742	3,832	224,605	116,001
239,757	3,995	224,492	116,055
240,772	3,888	224,403	115,918
241,786	3,603	224,321	115,650
242,801	3,806	224,280	115,772
243,815	4,107	224,200	115,947
244,830	4,137	224,094	115,904
245,844	3,655	223,817	115,389
246,859	3,877	223,550	115,407
247,874	3,998	223,495	115,459
248,888	4,247	223,459	115,617
249,903	4,210	223,254	115,473
250,917	3,903	223,125	115,165
251,932	3,903	222,962	115,071
252,947	3,836	222,768	114,911
253,961	3,758	222,588	114,750
254,976	3,677	222,470	114,618
255,990	3,771	222,446	114,666
257,005	3,937	222,267	114,687
258,020	4,049	222,178	114,714
259,034	4,225	222,129	114,810
260,049	4,073	221,814	114,524
261,063	4,095	221,621	114,431
262,078	4,273	221,608	114,546
263,093	4,120	221,475	114,353
264,107	4,218	221,339	114,346
265,122	3,973	221,169	114,066
266,136	4,158	220,923	114,065
267,151	4,230	220,969	114,132
268,166	3,891	220,644	113,704
269,180	3,583	220,488	113,386
270,195	3,597	220,312	113,296
271,209	3,573	220,271	113,247
272,224	3,729	220,114	113,271
273,239	3,754	219,966	113,203
274,253	3,800	219,780	113,131
275,268	3,819	219,613	113,049
276,282	3,299	219,498	112,597
277,297	3,691	219,174	112,709
278,312	3,745	219,224	112,764
279,326	3,856	218,995	112,718
280,341	3,677	218,942	112,549
281,355	3,752	218,745	112,493
282,370	3,924	218,546	112,506
283,384	3,574	218,433	112,182
284,399	3,254	218,335	111,888
285,414	3,612	218,054	111,995
286,428	3,717	218,081	112,076
287,443	3,851	218,070	112,158
288,457	3,916	217,877	112,096
289,472	3,916	217,613	111,950
290,487	3,458	217,361	111,477
291,501	3,522	217,125	111,393
292,516	3,464	217,071	111,313
293,530	3,709	216,962	111,425
294,545	3,295	216,839	111,052
295,560	3,492	216,754	111,142
296,574	3,519	216,638	111,092
297,589	4,052	216,586	111,441
298,603	3,915	216,454	111,264
299,618	3,817	216,301	111,105
300,633	3,891	216,170	111,081
301,647	4,013	216,127	111,137
302,662	4,182	215,909	111,137
303,676	4,222	215,767	111,083
304,691	4,004	215,596	110,827
305,706	4,058	215,500	110,807
306,720	4,199	215,211	110,750
307,735	3,817	215,173	110,446
308,749	3,708	214,959	110,248
309,764	3,961	214,975	110,428
310,779	3,867	214,843	110,283
311,793	4,207	214,531	110,357
312,808	3,837	214,545	110,089
313,822	3,922	214,363	110,046
314,837	3,977	214,057	109,919
315,852	3,711	213,962	109,670
316,866	3,667	213,999	109,648
317,881	3,963	213,898	109,798
318,895	3,968	213,719	109,699
319,910	3,879	213,450	109,489
320,925	3,676	213,299	109,257
321,939	3,153	213,081	108,764
322,954	3,403	213,006	108,894
323,968	3,790	212,938	109,124
324,983	3,792	213,010	109,153
325,997	4,363	212,755	109,417
327,012	3,906	212,610	109,009
328,027	3,902	212,362	108,869
329,041	4,338	212,433	109,204
330,056	4,397	212,418	109,229
331,070	4,010	212,027	108,745
332,085	3,503	211,931	108,327
333,100	3,508	211,602	108,153
334,114	3,781	211,520	108,294
335,129	3,726	211,438	108,203
336,143	3,613	211,176	107,981
337,158	3,733	211,116	108,025
338,173	3,721	211,035	107,965
339,187	3,696	210,729	107,781
340,202	3,643	210,792	107,767
341,216	3,459	210,523	107,491
342,231	3,497	210,381	107,435
343,246	3,410	210,312	107,329
344,260	3,609	210,144	107,373
345,275	3,602	210,180	107,377
346,289	3,730	209,978	107,354
347,304	4,044	209,849	107,498
348,319	3,813	209,800	107,302
349,333	3,831	209,576	107,190
350,348	4,027	209,453	107,254
351,362	3,959	209,348	107,144
352,377	4,114	209,212	107,172
353,392	3,768	209,117	106,873
354,406	3,774	209,028	106,823
355,421	194,468	1344,463	1432,920
356,435	155,211	1482,885	1433,025
