DTS Sentinel unit serial number:	SN410029Multiplexer serial number:	ORYXHardware model number:	OX2-SRSoftware version number:	ORYX F/W v4,00 Oryx Data Collector v3.7.2.0data status	okinstallation	B6 Nyhavnadifferential loss correction	single-endedforward channel	channel 2reverse channel	N/Adate	2023/12/10time	09:10:08forward acquisition time	300,00reverse acquisition time	0,00gamma	499,1914k internal	0,3123k external	0,3123temperature offset calibration	1,0000default loss term (dB/km)	0,3820temperature slope calibration	1,0000multiplexer offset coefficient	1,0000multiplexer slope coefficient	1,0000fibre end	0,00T internal ref (°C)	22,56T ext. ref 1 (°C)	6,31T ext. ref 2 (°C)	6,31length (m)	temperature (°C)	Stokes	anti-Stokes-744,400	62,464	0,100	0,074
-743,385	587,996	-0,106	0,196
-742,371	800,000	0,039	-0,113
-741,356	279,493	-0,143	0,190
-740,342	-200,000	0,026	0,123
-739,327	44,386	-0,257	0,176
-738,312	55,926	0,085	-0,062
-737,298	-46,540	-0,251	0,091
-736,283	-185,056	0,046	0,001
-735,269	-163,702	-0,176	0,006
-734,254	800,000	-0,010	0,031
-733,239	-73,162	-0,322	-0,087
-732,225	-117,049	0,163	-0,022
-731,210	449,205	0,025	0,040
-730,196	-134,631	-0,044	0,004
-729,181	113,921	0,039	-0,035
-728,167	-200,000	0,025	-0,151
-727,152	-40,685	0,044	0,017
-726,137	100,155	-0,129	0,111
-725,123	227,698	0,056	-0,068
-724,108	-42,051	-0,138	-0,052
-723,094	-200,000	-0,000	-0,061
-722,079	316,083	-0,104	-0,147
-721,064	-118,563	-0,015	-0,002
-720,050	-200,000	-0,014	-0,096
-719,035	-116,362	-0,102	0,014
-718,021	306,276	0,009	-0,013
-717,006	-146,871	-0,075	-0,005
-715,991	800,000	-0,053	-0,164
-714,977	66,672	-0,117	-0,089
-713,962	-86,011	-0,054	-0,012
-712,948	145,686	-0,035	-0,035
-711,933	-200,000	0,000	-0,079
-710,918	-200,000	-0,006	-0,089
-709,904	314,197	-0,039	-0,055
-708,889	2,375	-0,053	-0,028
-707,875	182,291	-0,073	-0,081
-706,860	-200,000	0,008	-0,065
-705,845	-169,739	-0,061	0,002
-704,831	-200,000	0,008	0,051
-703,816	689,026	-0,047	-0,093
-702,802	800,000	-0,031	-0,082
-701,787	173,450	-0,064	-0,068
-700,772	-200,000	0,005	0,084
-699,758	800,000	-0,029	-0,077
-698,743	487,363	0,048	0,082
-697,729	-111,652	-0,143	-0,021
-696,714	800,000	-0,040	0,116
-695,699	-193,007	-0,103	-0,001
-694,685	-117,819	-0,049	-0,006
-693,670	42,722	-0,096	-0,065
-692,656	293,375	0,050	-0,068
-691,641	95,190	-0,095	-0,081
-690,627	309,218	-0,048	-0,067
-689,612	-200,000	0,025	-0,183
-688,597	-200,000	-0,007	-0,047
-687,583	-200,000	-0,003	0,040
-686,568	800,000	0,043	0,103
-685,554	-200,000	0,020	-0,159
-684,539	304,397	0,020	-0,028
-683,524	-200,000	0,005	-0,079
-682,510	344,612	-0,050	-0,073
-681,495	-200,000	-0,021	0,131
-680,481	800,000	-0,034	0,074
-679,466	-112,920	-0,128	-0,019
-678,451	-200,000	-0,014	0,078
-677,437	-200,000	-0,018	-0,093
-676,422	412,082	0,089	0,140
-675,408	419,475	0,034	0,054
-674,393	800,000	0,026	-0,062
-673,378	800,000	-0,016	-0,044
-672,364	264,219	-0,093	-0,120
-671,349	-200,000	0,001	-0,095
-670,335	272,115	0,047	-0,062
-669,320	800,000	0,017	0,055
-668,305	374,867	0,016	0,024
-667,291	40,371	-0,137	-0,091
-666,276	32,863	0,038	0,024
-665,262	-200,000	-0,024	-0,096
-664,247	-200,000	-0,002	0,065
-663,232	-47,621	-0,056	-0,020
-662,218	800,000	0,027	-0,057
-661,203	241,323	0,039	0,049
-660,189	-49,604	0,090	0,032
-659,174	273,160	-0,064	-0,084
-658,159	590,877	-0,054	-0,099
-657,145	18,260	-0,089	-0,052
-656,130	92,176	0,082	-0,069
-655,116	-147,400	-0,122	-0,008
-654,101	-98,757	-0,036	0,007
-653,086	71,930	-0,083	0,064
-652,072	103,201	-0,076	-0,066
-651,057	800,000	-0,049	-0,142
-650,043	-200,000	-0,038	-0,233
-649,028	-200,000	0,006	-0,132
-648,014	-37,151	-0,054	0,021
-646,999	-82,719	-0,072	0,017
-645,984	-121,475	-0,143	0,017
-644,970	-200,000	0,005	-0,050
-643,955	158,109	0,111	-0,115
-642,941	-120,961	-0,081	-0,010
-641,926	-200,000	-0,009	0,138
-640,911	-200,000	-0,022	0,100
-639,897	-200,000	-0,025	-0,139
-638,882	-81,082	-0,085	0,021
-637,868	40,810	0,072	-0,048
-636,853	627,993	-0,014	0,027
-635,838	-28,958	-0,129	-0,055
-634,824	800,000	0,022	-0,049
-633,809	412,272	-0,063	-0,099
-632,795	61,125	-0,078	-0,057
-631,780	-200,000	-0,016	0,151
-630,765	-103,114	-0,177	-0,031
-629,751	204,918	0,032	-0,037
-628,736	-200,000	0,043	-0,159
-627,722	-12,282	-0,051	-0,025
-626,707	83,283	-0,035	0,028
-625,692	-97,136	0,111	-0,021
-624,678	-170,950	0,034	0,001
-623,663	213,212	0,037	0,043
-622,649	-101,747	-0,095	-0,017
-621,634	86,198	0,026	-0,021
-620,619	-200,000	-0,003	0,036
-619,605	-200,000	-0,012	0,075
-618,590	800,000	0,009	-0,019
-617,576	-200,000	0,006	0,047
-616,561	-102,597	0,142	0,025
-615,546	-20,593	-0,091	-0,041
-614,532	-72,656	0,113	0,031
-613,517	-200,000	-0,016	0,072
-612,503	52,767	-0,042	0,030
-611,488	-118,381	0,127	0,017
-610,474	255,864	0,052	-0,066
-609,459	20,086	0,088	-0,052
-608,444	-65,855	-0,201	0,059
-607,430	800,000	-0,048	-0,127
-606,415	-200,000	-0,005	-0,061
-605,401	101,370	0,071	0,061
-604,386	-200,000	0,005	-0,064
-603,371	-200,000	-0,004	-0,063
-602,357	-200,000	0,003	-0,042
-601,342	76,247	-0,057	-0,045
-600,328	-200,000	0,025	-0,122
-599,313	383,222	-0,055	-0,084
-598,298	-34,657	0,046	0,019
-597,284	568,899	-0,020	-0,037
-596,269	800,000	0,058	-0,175
-595,255	-200,000	-0,028	0,122
-594,240	-5,786	-0,066	-0,033
-593,225	-124,921	-0,040	-0,005
-592,211	-74,448	-0,193	-0,051
-591,196	163,931	-0,043	0,045
-590,182	800,000	-0,014	0,038
-589,167	212,966	0,071	0,084
-588,152	-51,974	0,038	0,013
-587,138	-129,608	0,121	-0,012
-586,123	800,000	0,018	0,041
-585,109	-62,317	-0,099	0,030
-584,094	800,000	-0,074	-0,223
-583,079	672,229	-0,026	0,049
-582,065	-200,000	0,004	-0,015
-581,050	63,843	0,021	-0,016
-580,036	194,971	0,128	-0,144
-579,021	-15,122	-0,086	-0,040
-578,006	-33,468	-0,106	0,043
-576,992	227,599	0,065	0,078
-575,977	-106,368	0,110	-0,018
-574,963	17,602	-0,018	0,011
-573,948	-200,000	0,002	0,065
-572,934	244,149	-0,103	-0,129
-571,919	800,000	0,009	-0,025
-570,904	666,236	-0,033	0,063
-569,890	122,535	-0,066	0,061
-568,875	-200,000	-0,015	-0,132
-567,861	-109,562	0,087	-0,014
-566,846	-62,427	-0,062	0,019
-565,831	12,195	-0,060	0,034
-564,817	19,891	0,044	0,026
-563,802	117,679	-0,100	0,091
-562,788	-200,000	-0,001	-0,077
-561,773	800,000	-0,007	-0,021
-560,758	800,000	0,058	0,175
-559,744	149,309	0,045	0,045
-558,729	-26,178	-0,033	0,014
-557,715	-63,469	-0,069	-0,021
-556,700	32,634	0,039	-0,025
-555,685	4,352	0,088	-0,048
-554,671	69,789	-0,045	-0,034
-553,656	494,793	-0,042	0,072
-552,642	53,881	-0,073	0,052
-551,627	7,485	-0,038	-0,021
-550,612	9,322	0,075	0,042
-549,598	126,295	0,045	-0,042
-548,583	458,092	0,029	-0,048
-547,569	-200,000	-0,002	0,006
-546,554	3,416	-0,072	0,039
-545,539	-164,164	0,084	-0,003
-544,525	127,514	-0,040	0,037
-543,510	787,884	-0,053	-0,108
-542,496	38,898	0,012	-0,008
-541,481	1,165	-0,136	0,072
-540,466	53,970	0,114	-0,081
-539,452	-140,292	-0,119	-0,009
-538,437	205,623	0,053	0,061
-537,423	800,000	-0,053	0,130
-536,408	4,508	-0,225	-0,122
-535,393	-103,267	-0,214	-0,037
-534,379	310,472	0,026	0,036
-533,364	38,624	0,139	-0,091
-532,350	379,585	-0,036	0,055
-531,335	-200,000	-0,017	0,066
-530,321	-50,087	0,082	0,028
-529,306	141,564	0,037	0,036
-528,291	-4,151	-0,078	0,040
-527,277	90,381	0,046	0,038
-526,262	-200,000	0,002	-0,037
-525,248	252,312	0,028	0,035
-524,233	-13,309	0,072	0,034
-523,218	-184,135	0,038	-0,000
-522,204	-200,000	0,045	-0,343
-521,189	-200,000	-0,014	0,074
-520,175	800,000	-0,039	0,095
-519,160	-200,000	-0,032	-0,136
-518,145	800,000	0,017	0,051
-517,131	182,713	0,037	0,040
-516,116	-200,000	-0,024	-0,107
-515,102	-39,492	-0,031	-0,012
-514,087	699,506	-0,052	-0,102
-513,072	-102,405	0,115	-0,020
-512,058	71,079	-0,099	-0,076
-511,043	800,000	0,049	0,134
-510,029	800,000	0,025	0,060
-509,014	-74,019	-0,032	0,009
-507,999	231,207	-0,046	0,056
-506,985	-183,037	-0,117	0,001
-505,970	-200,000	-0,002	0,013
-504,956	127,033	-0,029	-0,027
-503,941	-78,384	0,145	-0,036
-502,926	800,000	-0,035	-0,079
-501,912	-200,000	0,002	-0,095
-500,897	800,000	-0,019	-0,051
-499,883	21,603	0,080	0,048
-498,868	-69,679	0,079	-0,022
-497,853	89,529	-0,020	0,017
-496,839	107,278	-0,065	-0,057
-495,824	718,653	0,030	-0,059
-494,810	-135,628	0,050	-0,004
-493,795	800,000	0,044	0,113
-492,781	7,319	0,062	-0,034
-491,766	231,217	-0,040	-0,048
-490,751	58,577	-0,022	-0,016
-489,737	117,523	0,086	0,078
-488,722	0,758	0,143	0,075
-487,708	71,126	0,045	-0,034
-486,693	42,171	0,058	0,039
-485,678	401,934	-0,028	-0,043
-484,664	611,232	0,014	-0,026
-483,649	129,825	0,050	-0,047
-482,635	800,000	0,032	-0,090
-481,620	143,810	-0,049	0,049
-480,605	-158,609	0,169	-0,007
-479,591	153,554	0,082	0,083
-478,576	296,557	0,021	-0,029
-477,562	116,333	0,067	-0,061
-476,547	800,000	-0,043	-0,093
-475,532	800,000	0,020	-0,065
-474,518	134,283	-0,011	0,010
-473,503	-102,508	-0,121	0,021
-472,489	79,296	-0,136	0,108
-471,474	-0,889	-0,044	0,023
-470,459	786,229	-0,062	-0,125
-469,445	-200,000	-0,008	0,125
-468,430	132,322	-0,049	0,047
-467,416	163,351	-0,025	0,026
-466,401	95,317	0,094	0,079
-465,386	39,513	0,073	-0,048
-464,372	512,683	-0,097	-0,167
-463,357	-120,202	-0,070	0,009
-462,343	-200,000	0,002	-0,008
-461,328	-200,000	0,000	-0,124
-460,313	528,430	0,035	-0,060
-459,299	554,867	0,041	0,073
-458,284	-200,000	0,020	0,133
-457,270	-200,000	-0,019	-0,085
-456,255	632,048	-0,044	-0,083
-455,241	-200,000	0,011	-0,154
-454,226	441,467	-0,062	0,101
-453,211	-13,684	0,212	0,101
-452,197	800,000	0,012	-0,031
-451,182	-87,052	-0,040	-0,009
-450,168	284,452	-0,083	0,110
-449,153	800,000	-0,057	-0,130
-448,138	480,235	-0,056	-0,093
-447,124	-50,600	-0,021	0,007
-446,109	-95,559	-0,111	0,022
-445,095	-58,276	0,148	0,047
-444,080	212,983	-0,084	0,098
-443,065	345,304	0,065	0,094
-442,051	-72,357	-0,008	0,002
-441,036	-101,875	0,114	-0,020
-440,022	64,839	0,115	0,085
-439,007	-11,476	-0,090	-0,043
-437,992	-88,082	0,173	0,038
-436,978	-84,894	-0,071	-0,016
-435,963	-200,000	0,030	0,101
-434,949	22,783	-0,058	0,035
-433,934	-200,000	-0,015	-0,083
-432,919	34,500	0,027	-0,017
-431,905	773,038	-0,023	-0,046
-430,890	-74,552	0,050	0,013
-429,876	250,130	-0,040	-0,050
-428,861	-200,000	0,003	0,052
-427,846	-139,596	-0,148	0,011
-426,832	800,000	-0,022	0,048
-425,817	40,117	0,030	0,020
-424,803	-58,939	-0,067	0,021
-423,788	380,713	0,012	0,018
-422,773	-200,000	0,001	-0,060
-421,759	800,000	0,066	0,138
-420,744	-84,880	-0,112	0,026
-419,730	-136,544	-0,088	0,007
-418,715	-145,577	0,055	-0,004
-417,701	-200,000	-0,006	-0,092
-416,686	131,169	0,050	0,048
-415,671	800,000	0,014	0,044
-414,657	134,364	-0,020	0,019
-413,642	800,000	-0,036	0,109
-412,628	79,895	0,085	0,067
-411,613	-36,025	-0,060	-0,024
-410,598	121,831	-0,065	-0,060
-409,584	715,635	-0,059	-0,115
-408,569	800,000	-0,039	-0,123
-407,555	0,645	0,079	0,041
-406,540	184,322	0,087	0,095
-405,525	374,097	-0,044	-0,066
-404,511	-200,000	0,021	-0,111
-403,496	235,528	0,101	-0,123
-402,482	402,481	-0,061	0,094
-401,467	800,000	0,003	-0,007
-400,452	-43,831	0,111	-0,041
-399,438	304,750	0,135	0,184
-398,423	-200,000	0,006	0,056
-397,409	800,000	0,025	-0,077
-396,394	611,448	0,070	-0,129
-395,379	29,676	0,134	-0,084
-394,365	24,967	-0,034	-0,020
-393,350	800,000	-0,012	0,034
-392,336	800,000	-0,032	0,086
-391,321	-99,468	0,063	0,012
-390,306	-28,462	0,037	-0,015
-389,292	-78,841	-0,060	0,015
-388,277	-60,070	0,125	-0,039
-387,263	253,668	0,033	0,042
-386,248	-50,581	0,089	0,031
-385,233	153,621	-0,093	0,094
-384,219	337,499	-0,022	0,031
-383,204	-153,417	0,078	-0,004
-382,190	430,011	0,084	0,134
-381,175	800,000	0,062	-0,158
-380,160	-200,000	0,004	-0,024
-379,146	85,959	0,047	-0,038
-378,131	107,861	0,009	-0,008
-377,117	-124,656	-0,104	0,012
-376,102	-9,517	-0,052	0,026
-375,088	166,830	-0,069	0,072
-374,073	216,987	0,049	-0,057
-373,058	240,789	0,058	-0,072
-372,044	-200,000	0,035	0,147
-371,029	31,616	0,102	0,064
-370,015	-100,350	-0,064	0,012
-369,000	-48,431	0,009	0,003
-367,985	123,024	0,149	0,137
-366,971	512,609	-0,010	-0,017
-365,956	-200,000	0,017	-0,073
-364,942	-38,301	0,110	0,042
-363,927	43,582	0,020	0,014
-362,912	-88,724	-0,088	0,019
-361,898	183,890	-0,068	-0,074
-360,883	106,588	-0,037	-0,032
-359,869	170,632	0,089	0,094
-358,854	-60,944	0,038	0,012
-357,839	-4,535	-0,076	0,038
-356,825	800,000	0,049	-0,116
-355,810	-70,106	-0,124	0,034
-354,796	53,092	0,091	0,064
-353,781	234,002	-0,051	0,062
-352,766	41,709	-0,081	-0,054
-351,752	-40,483	-0,068	0,026
-350,737	389,090	0,034	-0,052
-349,723	-200,000	0,010	0,068
-348,708	656,712	0,032	0,060
-347,693	800,000	-0,069	0,162
-346,679	334,871	0,029	0,041
-345,664	289,041	0,015	0,020
-344,650	705,094	0,013	-0,025
-343,635	-13,593	0,035	0,017
-342,620	-63,801	0,056	-0,017
-341,606	-200,000	-0,005	0,088
-340,591	349,847	0,041	0,059
-339,577	800,000	-0,013	0,035
-338,562	-144,063	-0,113	-0,008
-337,548	793,230	0,042	0,084
-336,533	800,000	0,031	0,100
-335,518	48,486	0,067	0,046
-334,504	25,379	0,076	0,046
-333,489	-77,096	0,125	-0,032
-332,475	-63,169	-0,171	-0,051
-331,460	-127,813	-0,131	-0,014
-330,445	-200,000	0,019	0,183
-329,431	-163,318	0,150	-0,005
-328,416	85,200	-0,058	0,047
-327,402	-81,669	0,082	-0,020
-326,387	419,446	-0,064	-0,101
-325,372	-4,669	-0,046	0,023
-324,358	-103,174	0,154	-0,026
-323,343	-16,897	0,112	-0,052
-322,329	-200,000	0,000	-0,018
-321,314	41,547	0,134	0,089
-320,299	120,301	-0,047	0,043
-319,285	-82,983	-0,021	-0,005
-318,270	-9,197	0,138	-0,067
-317,256	-18,025	-0,055	-0,025
-316,241	800,000	0,018	0,046
-315,226	800,000	-0,079	0,174
-314,212	-60,444	0,155	0,048
-313,197	-200,000	0,005	-0,117
-312,183	7,193	-0,083	0,045
-311,168	-200,000	-0,008	-0,085
-310,153	-200,000	-0,010	-0,077
-309,139	36,647	-0,039	-0,025
-308,124	8,930	0,135	0,075
-307,110	321,256	0,102	-0,143
-306,095	17,292	0,037	-0,022
-305,080	800,000	0,009	0,021
-304,066	439,047	0,024	-0,038
-303,051	800,000	-0,049	0,137
-302,037	126,346	-0,056	-0,052
-301,022	-200,000	-0,011	0,061
-300,008	396,247	0,055	0,085
-298,993	34,156	-0,204	0,130
-297,978	-52,529	0,095	0,032
-296,964	-123,701	-0,119	0,014
-295,949	-59,855	0,068	0,021
-294,935	537,796	-0,061	-0,106
-293,920	537,320	0,053	0,092
-292,905	742,964	0,047	-0,092
-291,891	-106,093	0,115	0,019
-290,876	82,751	-0,043	-0,034
-289,862	-15,921	-0,091	-0,042
-288,847	11,492	-0,150	0,084
-287,832	-166,361	0,047	-0,001
-286,818	800,000	0,025	0,062
-285,803	-114,337	0,144	-0,020
-284,789	-119,414	0,099	0,012
-283,774	322,156	0,095	0,133
-282,759	71,414	0,011	0,008
-281,745	-12,839	-0,152	0,072
-280,730	13,322	0,117	-0,066
-279,716	-200,000	-0,015	-0,084
-278,701	-117,161	-0,073	0,010
-277,686	35,644	-0,055	-0,035
-276,672	412,332	-0,041	-0,064
-275,657	323,915	0,046	-0,064
-274,643	302,294	-0,005	0,007
-273,628	80,055	0,073	-0,057
-272,613	695,633	-0,022	-0,042
-271,599	800,000	0,020	0,056
-270,584	-200,000	-0,000	-0,051
-269,570	301,069	0,036	-0,049
-268,555	-200,000	0,002	0,119
-267,540	141,618	-0,101	0,098
-266,526	800,000	-0,010	0,028
-265,511	100,632	-0,144	0,122
-264,497	-115,450	0,113	0,015
-263,482	800,000	0,086	0,191
-262,467	-143,152	0,120	-0,008
-261,453	-200,000	0,004	-0,038
-260,438	299,719	-0,068	-0,092
-259,424	60,290	-0,049	-0,036
-258,409	-200,000	-0,030	-0,102
-257,395	335,342	-0,025	-0,036
-256,380	38,810	0,109	0,071
-255,365	71,858	0,055	0,042
-254,351	800,000	-0,021	0,048
-253,336	102,109	0,153	-0,130
-252,322	-78,405	-0,085	-0,021
-251,307	146,013	0,050	-0,049
-250,292	800,000	-0,057	-0,124
-249,278	800,000	0,015	-0,049
-248,263	-38,716	0,201	0,077
-247,249	35,082	-0,111	0,071
-246,234	-200,000	0,010	-0,063
-245,219	-200,000	-0,028	0,145
-244,205	800,000	-0,071	-0,157
-243,190	279,361	-0,058	0,076
-242,176	10,451	0,086	-0,048
-241,161	-200,000	0,014	-0,094
-240,146	-66,602	0,075	0,022
-239,132	800,000	0,027	0,068
-238,117	-133,617	-0,115	-0,010
-237,103	800,000	0,029	-0,063
-236,088	454,488	-0,066	-0,107
-235,073	237,238	-0,027	-0,033
-234,059	800,000	0,031	-0,087
-233,044	-86,983	-0,091	0,020
-232,030	438,439	-0,067	0,107
-231,015	247,700	0,038	-0,048
-230,000	800,000	-0,035	-0,072
-228,986	-110,292	-0,148	-0,022
-227,971	539,389	-0,080	-0,139
-226,957	18,260	0,184	0,107
-225,942	-123,336	0,142	0,016
-224,927	-200,000	-0,051	0,203
-223,913	-200,000	-0,012	0,073
-222,898	-135,311	-0,055	-0,005
-221,884	-200,000	-0,002	-0,097
-220,869	-88,757	-0,059	-0,013
-219,855	250,676	0,067	0,084
-218,840	800,000	0,041	0,115
-217,825	-103,886	-0,080	-0,013
-216,811	579,208	0,030	0,055
-215,796	-200,000	0,027	0,114
-214,782	800,000	-0,025	0,059
-213,767	72,454	-0,065	0,049
-212,752	-200,000	-0,015	0,232
-211,738	72,760	0,083	-0,063
-210,723	66,012	0,114	0,084
-209,709	96,229	0,046	0,038
-208,694	77,796	0,064	-0,050
-207,679	800,000	-0,044	-0,101
-206,665	226,484	0,104	0,123
-205,650	-200,000	0,028	0,151
-204,636	23,962	-0,125	-0,075
-203,621	-200,000	-0,020	0,068
-202,606	-200,000	-0,006	0,043
-201,592	-105,201	-0,241	-0,040
-200,577	-13,024	-0,143	-0,068
-199,563	-200,000	-0,014	-0,062
-198,548	292,746	0,048	0,063
-197,533	234,171	-0,087	0,105
-196,519	209,848	0,099	-0,113
-195,504	254,359	-0,069	-0,086
-194,490	-200,000	-0,001	-0,084
-193,475	-200,000	0,036	0,125
-192,460	314,038	0,073	-0,101
-191,446	541,175	-0,035	-0,061
-190,431	-18,123	-0,057	0,026
-189,417	767,752	-0,014	0,027
-188,402	560,342	-0,100	-0,177
-187,387	-10,669	-0,018	0,008
-186,373	800,000	-0,036	0,076
-185,358	8,172	0,038	-0,021
-184,344	-78,557	0,114	-0,028
-183,329	-38,843	0,060	0,023
-182,315	32,227	-0,098	-0,061
-181,300	-21,650	-0,070	0,031
-180,285	-95,491	0,031	0,006
-179,271	-200,000	-0,007	-0,107
-178,256	-200,000	0,002	-0,107
-177,242	-200,000	-0,023	0,112
-176,227	-133,239	-0,035	-0,003
-175,212	-200,000	-0,002	0,073
-174,198	-60,033	-0,037	-0,011
-173,183	-143,098	0,054	-0,004
-172,169	-78,664	-0,047	0,012
-171,154	-14,700	0,058	-0,027
-170,139	-70,295	0,222	-0,061
-169,125	800,000	-0,048	-0,147
-168,110	172,535	-0,022	-0,023
-167,096	-145,029	-0,124	-0,008
-166,081	182,996	-0,064	-0,069
-165,066	368,228	-0,076	-0,112
-164,052	-187,620	-0,170	0,002
-163,037	-200,000	0,015	0,091
-162,023	351,582	-0,049	-0,071
-161,008	-131,757	-0,126	0,012
-159,993	33,616	-0,024	0,015
-158,979	323,241	-0,060	0,084
-157,964	-200,000	-0,007	0,123
-156,950	-21,928	0,060	-0,027
-155,935	108,531	-0,039	-0,034
-154,920	725,592	0,047	-0,092
-153,906	489,563	0,026	0,044
-152,891	-21,348	0,197	-0,087
-151,877	-200,000	0,028	-0,093
-150,862	-117,962	-0,130	-0,017
-149,847	214,703	-0,034	0,040
-148,833	396,752	-0,021	-0,033
-147,818	800,000	-0,022	0,052
-146,804	99,331	0,057	0,048
-145,789	88,079	0,061	-0,049
-144,775	85,421	-0,103	-0,083
-143,760	-66,381	-0,125	-0,036
-142,745	530,434	0,041	0,071
-141,731	-79,287	0,133	0,033
-140,716	-200,000	0,016	0,076
-139,702	-1,495	-0,121	0,062
-138,687	19,622	0,118	0,069
-137,672	-156,119	-0,081	0,004
-136,658	516,378	-0,088	-0,151
-135,643	-200,000	0,026	-0,133
-134,629	-48,634	-0,092	-0,032
-133,614	-14,554	0,061	0,028
-132,599	-200,000	-0,006	0,055
-131,585	17,431	0,062	-0,036
-130,570	-200,000	-0,001	-0,016
-129,556	-200,000	-0,025	0,092
-128,541	800,000	0,029	-0,084
-127,526	-200,000	-0,015	-0,060
-126,512	109,957	-0,062	0,054
-125,497	245,524	-0,087	0,107
-124,483	-200,000	-0,012	0,087
-123,468	244,859	0,071	0,087
-122,453	-16,357	0,092	0,042
-121,439	-24,114	-0,189	-0,082
-120,424	-200,000	0,018	0,076
-119,410	-200,000	-0,016	0,117
-118,395	-200,000	-0,008	0,048
-117,380	-200,000	0,002	0,088
-116,366	486,187	-0,083	-0,138
-115,351	-102,478	-0,088	-0,015
-114,337	-200,000	0,023	-0,122
-113,322	61,848	-0,080	0,058
-112,307	156,870	0,062	-0,062
-111,293	442,323	-0,032	0,051
-110,278	-200,000	0,005	0,037
-109,264	73,610	-0,076	-0,058
-108,249	800,000	-0,011	-0,031
-107,234	-200,000	0,031	0,000
-106,220	138,566	-0,073	-0,070
-105,205	346,121	-0,032	0,046
-104,191	226,805	0,094	0,111
-103,176	418,559	-0,093	0,145
-102,162	323,740	0,098	0,136
-101,147	-116,589	-0,189	-0,025
-100,132	22,424	0,107	-0,063
-99,118	-200,000	0,001	-0,016
-98,103	-200,000	-0,005	0,053
-97,089	300,842	0,079	0,106
-96,074	-200,000	-0,007	0,087
-95,059	-200,000	0,001	0,027
-94,045	305,829	0,049	0,066
-93,030	-200,000	0,017	-0,079
-92,016	-200,000	0,003	0,022
-91,001	48,617	0,016	-0,011
-89,986	-200,000	0,023	0,118
-88,972	9,720	0,142	0,078
-87,957	-200,000	0,012	0,184
-86,943	378,693	0,049	0,073
-85,928	-31,983	0,078	0,032
-84,913	-200,000	-0,057	-0,000
-83,899	539,042	0,024	-0,041
-82,884	-58,570	-0,067	0,021
-81,870	800,000	0,053	0,152
-80,855	-200,000	0,021	0,109
-79,840	67,659	-0,102	0,076
-78,826	-72,916	0,093	-0,025
-77,811	7,624	-0,032	0,017
-76,797	-65,312	0,037	0,011
-75,782	-200,000	0,010	0,138
-74,767	102,118	-0,073	-0,062
-73,753	800,000	-0,019	0,052
-72,738	800,000	-0,051	0,138
-71,724	271,524	-0,027	0,035
-70,709	-200,000	0,001	0,041
-69,694	-58,025	-0,030	0,009
-68,680	-200,000	0,018	-0,093
-67,665	800,000	-0,022	0,067
-66,651	45,896	0,113	0,076
-65,636	579,540	0,034	-0,060
-64,622	-130,142	-0,026	-0,003
-63,607	800,000	-0,057	-0,164
-62,592	97,277	-0,182	-0,151
-61,578	-149,734	0,006	-0,000
-60,563	191,477	-0,054	0,060
-59,549	-200,000	0,007	0,117
-58,534	-123,889	-1,330	-0,150
-57,519	628,029	-0,792	-1,458
-56,505	-200,000	-0,904	-4,507
-55,490	-32,975	0,560	-0,224
-54,476	800,000	5,076	11,845
-53,461	-200,000	13,516	252,839
-52,446	-200,000	688,918	2267,352
-51,432	595,342	1622,618	2925,634
-50,417	120,668	1635,746	1475,122
-49,403	73,638	1289,868	979,453
-48,388	38,386	1024,811	661,190
-47,373	24,504	982,411	588,171
-46,359	23,708	972,022	579,317
-45,344	22,792	967,897	573,841
-44,330	22,723	966,146	572,552
-43,315	22,590	964,946	571,384
-42,300	22,600	963,909	570,783
-41,286	22,535	963,199	570,125
-40,271	22,530	962,147	569,464
-39,257	22,518	961,447	568,990
-38,242	22,556	960,219	568,364
-37,227	22,544	959,328	567,775
-36,213	22,570	958,353	567,260
-35,198	22,499	957,789	566,674
-34,184	22,567	956,947	566,372
-33,169	22,495	956,237	565,698
-32,154	22,592	955,144	565,342
-31,140	22,661	954,010	564,868
-30,125	22,582	953,468	564,273
-29,111	22,594	952,768	563,875
-28,096	22,618	951,874	563,401
-27,082	22,693	951,100	563,159
-26,067	22,626	950,568	562,609
-25,052	22,619	949,757	562,082
-24,038	22,630	949,129	561,723
-23,023	22,603	948,626	561,318
-22,009	22,647	947,895	561,003
-20,994	22,669	947,268	560,682
-19,979	22,626	946,655	560,157
-18,965	22,593	946,046	559,669
-17,950	22,602	945,416	559,304
-16,936	22,584	944,650	558,769
-15,921	22,537	944,174	558,317
-14,906	22,417	943,491	557,510
-13,892	22,509	942,533	557,214
-12,877	22,516	941,989	556,894
-11,863	22,463	941,308	556,300
-10,848	22,421	940,927	555,917
-9,833	22,563	940,463	556,072
-8,819	22,563	939,795	555,655
-7,804	22,470	939,095	554,926
-6,790	22,475	938,535	554,587
-5,775	22,549	937,902	554,428
-4,760	22,527	937,331	553,997
-3,746	22,440	936,661	553,303
-2,731	22,337	936,018	552,576
-1,717	22,318	935,354	552,102
-0,702	22,293	934,722	551,630
0,313	22,086	934,149	551,472
1,327	25,109	931,935	559,624
2,342	34,794	796,622	504,179
3,356	32,676	452,077	282,899
4,371	1,779	293,849	153,052
5,386	-2,651	274,715	138,881
6,400	-4,129	268,821	134,518
7,415	-4,638	266,445	132,849
8,429	-4,290	265,302	132,586
9,444	-4,473	264,357	131,935
10,459	-4,363	263,747	131,719
11,473	-4,459	263,199	131,346
12,488	-4,492	262,650	131,032
13,502	-4,473	261,996	130,710
14,517	-4,390	261,594	130,573
15,531	-4,384	261,320	130,430
16,546	-4,465	260,968	130,170
17,561	-4,594	260,620	129,869
18,575	-4,275	260,282	129,975
19,590	-4,466	260,056	129,679
20,604	-4,345	259,645	129,571
21,619	-4,309	259,430	129,485
22,634	-4,428	259,033	129,169
23,648	-4,411	258,620	128,966
24,663	-4,496	258,537	128,837
25,677	-4,443	258,259	128,735
26,692	-4,447	257,827	128,504
27,707	-4,531	257,841	128,425
28,721	-4,557	257,413	128,177
29,736	-4,540	257,235	128,092
30,750	-4,542	256,906	127,915
31,765	-4,367	256,661	127,937
32,780	-4,532	256,558	127,728
33,794	-4,560	256,279	127,554
34,809	-4,396	256,017	127,555
35,823	-4,545	255,698	127,254
36,838	-4,608	255,531	127,105
37,853	-4,617	255,290	126,965
38,867	-4,595	255,074	126,866
39,882	-4,620	255,030	126,812
40,896	-4,624	254,679	126,622
41,911	-4,391	254,330	126,641
42,926	-4,573	254,235	126,423
43,940	-4,585	253,899	126,234
44,955	-4,783	253,757	125,979
45,969	-4,563	253,464	126,014
46,984	-4,909	253,375	125,658
47,999	-5,019	253,084	125,406
49,013	-5,156	252,704	125,087
50,028	-5,180	252,526	124,968
51,042	-5,213	252,254	124,793
52,057	-5,380	252,005	124,514
53,071	-5,186	251,934	124,636
54,086	-5,240	251,735	124,480
55,101	-5,102	251,357	124,401
56,115	-4,772	251,528	124,760
57,130	-4,512	251,432	124,925
58,144	-4,300	251,205	124,985
59,159	-4,228	250,935	124,902
60,174	-4,321	250,833	124,759
61,188	-4,394	250,511	124,525
62,203	-4,380	250,405	124,474
63,217	-4,466	250,089	124,232
64,232	-4,501	250,024	124,158
65,247	-4,462	249,804	124,071
66,261	-4,427	249,434	123,907
67,276	-4,420	249,191	123,781
68,290	-4,739	248,993	123,398
69,305	-4,908	248,598	123,048
70,320	-4,971	248,611	122,989
71,334	-4,617	248,336	123,144
72,349	-4,368	248,209	123,282
73,363	-4,238	248,100	123,327
74,378	-4,286	247,918	123,186
75,393	-4,446	247,556	122,859
76,407	-4,401	247,456	122,836
77,422	-4,368	247,210	122,731
78,436	-4,411	247,100	122,629
79,451	-4,502	246,873	122,429
80,466	-4,516	246,583	122,262
81,480	-4,578	246,319	122,068
82,495	-4,631	246,217	121,962
83,509	-4,743	246,207	121,851
84,524	-4,527	245,869	121,855
85,539	-4,733	245,571	121,523
86,553	-4,804	245,519	121,427
87,568	-4,635	245,250	121,425
88,582	-4,824	245,169	121,216
89,597	-4,860	244,908	121,045
90,611	-4,547	244,746	121,217
91,626	-4,397	244,812	121,365
92,641	-4,430	244,555	121,198
93,655	-4,592	244,195	120,874
94,670	-4,418	243,983	120,904
95,684	-4,594	243,835	120,673
96,699	-4,607	243,761	120,614
97,714	-4,580	243,502	120,498
98,728	-4,570	243,290	120,390
99,743	-4,845	243,049	120,031
100,757	-4,863	242,892	119,929
101,772	-4,961	242,736	119,759
102,787	-4,862	242,693	119,809
103,801	-4,611	242,392	119,858
104,816	-4,516	242,034	119,749
105,830	-4,444	242,197	119,880
106,845	-4,339	241,923	119,820
107,860	-4,495	241,711	119,575
108,874	-4,531	241,499	119,430
109,889	-4,599	241,261	119,245
110,903	-4,755	241,124	119,038
111,918	-4,775	240,970	118,935
112,933	-4,529	240,765	119,027
113,947	-4,492	240,555	118,942
114,962	-4,544	240,489	118,856
115,976	-4,495	240,302	118,793
116,991	-4,524	240,092	118,655
118,006	-4,418	239,984	118,678
119,020	-4,499	239,952	118,585
120,035	-4,597	239,668	118,354
121,049	-4,509	239,648	118,406
122,064	-4,424	239,394	118,339
123,079	-4,476	239,171	118,176
124,093	-4,698	239,014	117,906
125,108	-4,681	238,736	117,773
126,122	-4,711	238,489	117,616
127,137	-4,894	238,303	117,365
128,151	-4,853	238,063	117,269
129,166	-4,553	237,998	117,471
130,181	-4,863	237,730	117,076
131,195	-4,804	237,696	117,097
132,210	-4,651	237,521	117,125
133,224	-4,514	237,451	117,191
134,239	-4,436	237,280	117,159
135,254	-4,572	237,165	116,982
136,268	-4,506	236,776	116,832
137,283	-4,833	236,654	116,498
138,297	-5,075	236,378	116,156
139,312	-4,849	236,049	116,167
140,327	-4,744	236,133	116,282
141,341	-4,219	236,053	116,655
142,356	-4,157	235,853	116,595
143,370	-4,066	235,781	116,622
144,385	-4,163	235,519	116,405
145,400	-4,288	235,523	116,296
146,414	-4,237	235,314	116,224
147,429	-4,372	235,125	116,012
148,443	-4,463	235,079	115,906
149,458	-4,214	234,714	115,915
150,473	-4,173	234,459	115,811
151,487	-4,158	234,486	115,826
152,502	-4,281	234,224	115,588
153,516	-4,195	234,065	115,568
154,531	-4,155	233,887	115,501
155,546	-4,280	233,835	115,366
156,560	-4,483	233,642	115,099
157,575	-4,480	233,416	114,980
158,589	-4,361	233,262	114,988
159,604	-4,041	233,172	115,188
160,619	-4,107	232,919	115,001
161,633	-3,970	232,761	115,020
162,648	-4,210	232,644	114,762
163,662	-4,228	232,515	114,674
164,677	-4,400	232,320	114,432
165,692	-4,184	232,009	114,439
166,706	-4,223	232,031	114,409
167,721	-3,902	231,847	114,561
168,735	-3,977	231,700	114,419
169,750	-4,327	231,611	114,089
170,764	-4,190	231,398	114,082
171,779	-4,265	231,218	113,924
172,794	-4,278	231,250	113,919
173,808	-4,330	230,970	113,731
174,823	-4,759	230,636	113,219
175,837	-4,657	230,443	113,194
176,852	-4,568	230,386	113,226
177,867	-4,130	230,399	113,565
178,881	-4,155	230,144	113,410
179,896	-4,074	229,985	113,385
180,910	-4,052	229,797	113,300
181,925	-4,104	229,680	113,191
182,940	-4,058	229,590	113,172
183,954	-4,033	229,375	113,075
184,969	-4,078	229,291	112,989
185,983	-3,962	229,088	112,969
186,998	-4,242	229,002	112,699
188,013	-4,011	228,872	112,804
189,027	-4,091	228,589	112,593
190,042	-4,232	228,532	112,445
191,056	-4,134	228,476	112,484
192,071	-4,105	228,292	112,406
193,086	-4,142	228,077	112,261
194,100	-4,070	227,896	112,218
195,115	-4,515	227,564	111,700
196,129	-4,935	227,301	111,237
197,144	-1,241	228,468	114,661
198,159	2,829	229,508	118,334
199,173	3,906	229,689	119,252
200,188	3,985	229,542	119,227
201,202	4,034	229,496	119,230
202,217	4,316	229,383	119,379
203,232	4,446	229,413	119,484
204,246	4,611	229,134	119,456
205,261	4,649	229,154	119,485
206,275	4,843	228,883	119,482
207,290	4,895	228,802	119,470
208,304	4,891	228,550	119,325
209,319	4,746	228,401	119,124
210,334	4,809	228,175	119,044
211,348	4,406	227,984	118,624
212,363	4,190	227,748	118,326
213,377	4,022	227,589	118,103
214,392	4,063	227,429	118,041
215,407	4,188	227,308	118,064
216,421	4,210	227,149	117,987
217,436	4,020	226,960	117,733
218,450	3,680	226,828	117,394
219,465	3,530	226,515	117,107
220,480	3,830	226,493	117,315
221,494	3,964	226,334	117,324
222,509	3,912	226,434	117,326
223,523	3,745	226,084	117,006
224,538	3,841	225,847	116,947
225,553	3,818	225,751	116,869
226,567	3,878	225,869	116,965
227,582	4,232	225,588	117,078
228,596	4,388	225,391	117,084
229,611	3,887	225,291	116,642
230,626	3,859	224,979	116,448
231,640	3,861	224,888	116,392
232,655	4,191	224,704	116,536
233,669	4,314	224,808	116,673
234,684	4,427	224,831	116,760
235,699	4,486	224,432	116,587
236,713	4,065	224,204	116,140
237,728	4,058	224,041	116,040
238,742	3,620	223,990	115,673
239,757	3,915	223,705	115,738
240,772	3,986	223,550	115,701
241,786	3,834	223,459	115,529
242,801	3,994	223,512	115,667
243,815	4,210	223,315	115,717
244,830	4,239	223,249	115,694
245,844	4,011	223,003	115,385
246,859	4,179	222,610	115,297
247,874	3,860	222,799	115,146
248,888	4,061	222,616	115,191
249,903	4,184	222,451	115,187
250,917	3,712	222,331	114,762
251,932	3,927	222,059	114,772
252,947	4,074	221,783	114,729
253,961	3,863	221,656	114,496
254,976	3,903	221,660	114,518
255,990	4,082	221,463	114,539
257,005	4,334	221,281	114,621
258,020	4,024	221,352	114,418
259,034	4,191	221,332	114,522
260,049	4,321	220,977	114,424
261,063	4,177	220,706	114,167
262,078	4,266	220,637	114,187
263,093	4,251	220,654	114,174
264,107	4,158	220,486	114,009
265,122	4,195	220,316	113,938
266,136	4,371	220,217	114,006
267,151	4,535	219,976	113,992
268,166	4,295	219,796	113,712
269,180	3,717	219,598	113,174
270,195	3,795	219,451	113,145
271,209	3,749	219,396	113,073
272,224	4,106	219,191	113,220
273,239	3,938	219,074	113,026
274,253	3,774	218,887	112,799
275,268	3,716	218,831	112,717
276,282	3,730	218,537	112,566
277,297	3,618	218,447	112,428
278,312	3,872	218,291	112,523
279,326	3,822	218,215	112,438
280,341	4,039	218,100	112,527
281,355	3,939	217,988	112,386
282,370	4,008	217,825	112,342
283,384	3,717	217,630	112,019
284,399	3,654	217,347	111,818
285,414	3,555	217,400	111,763
286,428	3,731	217,346	111,854
287,443	3,771	217,155	111,774
288,457	3,838	217,102	111,786
289,472	4,055	216,692	111,722
290,487	3,495	216,558	111,237
291,501	3,614	216,366	111,215
292,516	3,573	216,222	111,101
293,530	3,593	216,170	111,079
294,545	3,745	216,017	111,100
295,560	3,592	216,003	110,973
296,574	3,812	215,890	111,064
297,589	4,039	215,725	111,133
298,603	4,027	215,542	111,020
299,618	3,816	215,470	110,821
300,633	3,973	215,340	110,857
301,647	4,158	215,316	110,968
302,662	4,149	215,086	110,833
303,676	4,244	214,909	110,801
304,691	4,176	214,781	110,676
305,706	4,199	214,733	110,658
306,720	4,165	214,661	110,587
307,735	4,016	214,331	110,300
308,749	4,141	214,200	110,312
309,764	3,995	214,232	110,213
310,779	4,223	214,024	110,260
311,793	4,141	213,821	110,088
312,808	4,162	213,610	109,984
313,822	4,173	213,560	109,956
314,837	3,905	213,365	109,655
315,852	3,797	213,301	109,535
316,866	3,714	213,218	109,424
317,881	4,240	213,048	109,701
318,895	4,281	212,849	109,618
319,910	3,932	212,799	109,334
320,925	3,761	212,458	109,028
321,939	3,636	212,190	108,792
322,954	3,558	212,194	108,729
323,968	3,865	212,226	108,953
324,983	4,111	212,008	109,006
325,997	4,304	211,846	109,049
327,012	4,198	211,787	108,935
328,027	3,994	211,739	108,755
329,041	4,439	211,574	108,976
330,056	4,379	211,413	108,841
331,070	4,165	211,276	108,609
332,085	3,726	211,057	108,178
333,100	3,685	211,020	108,121
334,114	4,096	210,805	108,290
335,129	3,758	210,656	107,966
336,143	3,832	210,492	107,924
337,158	4,018	210,239	107,916
338,173	3,805	210,234	107,754
339,187	3,729	210,045	107,594
340,202	3,631	209,910	107,447
341,216	3,510	209,825	107,309
342,231	3,793	209,744	107,456
343,246	3,654	209,559	107,254
344,260	3,796	209,406	107,266
345,275	3,847	209,368	107,273
346,289	3,990	209,241	107,298
347,304	3,992	209,064	107,199
348,319	3,920	209,055	107,134
349,333	3,823	208,787	106,920
350,348	3,863	208,784	106,937
351,362	4,104	208,651	107,027
352,377	4,064	208,465	106,893
353,392	4,004	208,252	106,733
354,406	4,137	208,131	106,754
355,421	193,707	1345,468	1433,360
356,435	154,538	1484,152	1433,487
