DTS Sentinel unit serial number:	SN410029Multiplexer serial number:	ORYXHardware model number:	OX2-SRSoftware version number:	ORYX F/W v4,00 Oryx Data Collector v3.7.2.0data status	okinstallation	B6 Nyhavnadifferential loss correction	single-endedforward channel	channel 2reverse channel	N/Adate	2023/12/07time	18:00:08forward acquisition time	300,00reverse acquisition time	0,00gamma	499,1914k internal	0,3164k external	0,3164temperature offset calibration	1,0000default loss term (dB/km)	0,3820temperature slope calibration	1,0000multiplexer offset coefficient	1,0000multiplexer slope coefficient	1,0000fibre end	0,00T internal ref (°C)	14,36T ext. ref 1 (°C)	-2,61T ext. ref 2 (°C)	-2,60length (m)	temperature (°C)	Stokes	anti-Stokes-744,400	-134,302	0,134	-0,012
-743,385	-123,045	-0,386	0,045
-742,371	-49,860	0,219	0,076
-741,356	-119,922	-0,316	0,039
-740,342	800,000	0,044	0,106
-739,327	-146,893	-0,277	-0,017
-738,312	-171,697	0,063	-0,001
-737,298	-166,547	-0,272	-0,008
-736,283	-200,000	0,000	0,092
-735,269	-120,412	-0,297	-0,037
-734,254	2,077	-0,091	0,048
-733,239	-38,960	-0,305	-0,117
-732,225	21,246	0,091	-0,054
-731,210	-200,000	0,006	-0,037
-730,196	658,812	0,019	0,036
-729,181	-200,000	0,012	0,049
-728,167	-200,000	0,028	-0,141
-727,152	155,594	-0,105	-0,107
-726,137	-148,537	-0,147	-0,009
-725,123	-30,390	-0,132	0,055
-724,108	-53,931	0,018	-0,006
-723,094	152,846	-0,059	-0,059
-722,079	109,310	-0,015	0,013
-721,064	-84,976	0,082	0,019
-720,050	800,000	0,061	-0,125
-719,035	800,000	0,038	-0,115
-718,021	97,158	-0,161	-0,136
-717,006	-200,000	-0,014	-0,096
-715,991	-144,508	-0,120	0,008
-714,977	-38,420	-0,045	-0,017
-713,962	-100,622	-0,106	-0,019
-712,948	338,204	0,099	-0,142
-711,933	37,437	-0,093	-0,061
-710,918	-200,000	-0,009	-0,038
-709,904	-40,129	-0,080	-0,030
-708,889	706,952	0,067	-0,131
-707,875	800,000	-0,055	-0,129
-706,860	-65,784	-0,088	0,026
-705,845	90,698	0,028	-0,023
-704,831	106,299	0,082	0,071
-703,816	-149,891	-0,128	-0,007
-702,802	-41,615	-0,172	-0,064
-701,787	110,582	0,009	-0,008
-700,772	86,515	0,038	0,031
-699,758	161,834	0,102	0,105
-698,743	69,825	0,073	0,055
-697,729	-200,000	0,042	0,153
-696,714	-168,116	-0,036	0,001
-695,699	122,930	-0,013	0,012
-694,685	-111,931	-0,069	-0,010
-693,670	-77,970	-0,051	0,013
-692,656	-200,000	-0,023	0,133
-691,641	332,092	0,083	0,118
-690,627	800,000	0,010	-0,025
-689,612	800,000	-0,037	-0,095
-688,597	-200,000	0,007	0,091
-687,583	103,784	-0,151	-0,130
-686,568	-51,906	-0,188	-0,064
-685,554	-178,416	0,086	0,001
-684,539	-49,476	0,078	0,027
-683,524	13,582	0,053	0,030
-682,510	25,608	-0,037	0,023
-681,495	22,597	0,012	-0,007
-680,481	98,982	-0,163	-0,138
-679,466	-200,000	-0,009	-0,124
-678,451	-61,999	0,028	0,009
-677,437	313,654	-0,021	0,029
-676,422	132,511	0,039	0,037
-675,408	-79,453	0,045	0,011
-674,393	-142,134	-0,121	-0,009
-673,378	-200,000	-0,047	-0,163
-672,364	-96,882	0,046	0,009
-671,349	-141,902	0,076	-0,005
-670,335	-200,000	-0,015	0,088
-669,320	-89,027	-0,067	0,015
-668,305	-87,012	0,127	0,028
-667,291	524,453	-0,015	0,025
-666,276	-200,000	-0,020	0,080
-665,262	263,998	-0,087	-0,111
-664,247	-165,248	-0,124	0,004
-663,232	96,373	0,061	-0,051
-662,218	322,206	-0,053	-0,074
-661,203	396,350	0,052	-0,081
-660,189	129,721	0,046	0,043
-659,174	-28,049	0,061	-0,026
-658,159	82,876	-0,040	-0,032
-657,145	-128,753	-0,124	-0,013
-656,130	-23,096	0,033	-0,014
-655,116	800,000	0,040	0,117
-654,101	-170,946	-0,037	0,001
-653,086	-200,000	0,008	-0,039
-652,072	-55,770	-0,055	-0,018
-651,057	-26,005	-0,064	0,028
-650,043	13,885	-0,200	-0,113
-649,028	-131,625	-0,117	0,011
-648,014	10,661	0,166	0,092
-646,999	324,100	-0,005	0,007
-645,984	82,495	0,051	0,040
-644,970	-112,798	0,188	-0,027
-643,955	-37,288	0,015	-0,006
-642,941	-60,762	0,031	0,010
-641,926	-134,540	-0,221	-0,020
-640,911	42,777	0,092	-0,061
-639,897	800,000	0,039	0,096
-638,882	-200,000	-0,013	-0,044
-637,868	728,544	0,055	-0,108
-636,853	27,449	0,100	0,061
-635,838	-19,532	-0,122	0,055
-634,824	149,265	0,164	-0,163
-633,809	-200,000	0,134	-0,000
-632,795	-172,494	-0,163	0,004
-631,780	16,077	0,193	0,111
-630,765	-115,643	-0,059	-0,008
-629,751	-83,727	-0,092	0,021
-628,736	-200,000	0,002	-0,021
-627,722	-200,000	0,024	-0,100
-626,707	-90,200	0,087	0,018
-625,692	-63,748	0,119	-0,036
-624,678	186,448	-0,087	0,095
-623,663	-200,000	-0,002	0,056
-622,649	-91,921	-0,063	-0,013
-621,634	-135,331	-0,131	-0,011
-620,619	581,518	-0,092	-0,166
-619,605	243,053	0,076	-0,093
-618,590	-200,000	0,018	0,194
-617,576	26,458	0,103	0,063
-616,561	277,092	-0,026	-0,034
-615,546	-200,000	-0,016	-0,071
-614,532	269,323	-0,042	-0,055
-613,517	-119,003	0,072	0,009
-612,503	-4,033	0,039	0,020
-611,488	-129,789	-0,006	-0,001
-610,474	182,624	0,026	-0,028
-609,459	248,961	-0,049	-0,061
-608,444	124,828	-0,061	0,057
-607,430	579,195	0,017	-0,031
-606,415	265,422	-0,120	0,153
-605,401	-75,389	-0,067	0,017
-604,386	343,120	0,043	-0,062
-603,371	800,000	0,036	0,095
-602,357	-200,000	-0,071	0,285
-601,342	-166,492	-0,081	-0,002
-600,328	800,000	0,048	-0,098
-599,313	278,718	0,051	-0,066
-598,298	-13,481	-0,095	-0,045
-597,284	119,807	0,092	-0,083
-596,269	-200,000	0,025	0,173
-595,255	-125,012	0,110	-0,012
-594,240	-41,243	-0,101	0,038
-593,225	-200,000	0,005	-0,123
-592,211	41,738	-0,052	-0,034
-591,196	-200,000	-0,013	-0,045
-590,182	365,878	0,032	-0,047
-589,167	451,048	0,122	0,197
-588,152	173,592	0,026	-0,027
-587,138	-200,000	0,027	-0,180
-586,123	-200,000	-0,058	-0,232
-585,109	-200,000	-0,016	-0,085
-584,094	-30,898	0,088	-0,036
-583,079	99,726	-0,049	0,042
-582,065	800,000	0,031	0,068
-581,050	800,000	-0,042	0,116
-580,036	800,000	-0,045	0,127
-579,021	177,177	-0,079	-0,085
-578,006	-200,000	0,014	-0,064
-576,992	343,040	-0,059	-0,085
-575,977	52,588	-0,091	0,064
-574,963	460,287	-0,048	-0,079
-573,948	-200,000	-0,005	-0,038
-572,934	-200,000	-0,022	-0,204
-571,919	534,886	0,020	0,034
-570,904	-27,950	-0,071	-0,030
-569,890	199,478	0,060	-0,068
-568,875	-105,224	0,094	0,016
-567,861	-31,364	0,088	-0,036
-566,846	-200,000	-0,005	-0,023
-565,831	68,257	-0,094	-0,070
-564,817	-200,000	0,019	-0,102
-563,802	-97,828	-0,138	0,026
-562,788	-200,000	0,006	0,034
-561,773	218,794	0,106	0,124
-560,758	-27,898	0,145	0,061
-559,744	535,664	-0,113	0,197
-558,729	-130,435	0,039	0,004
-557,715	-200,000	0,001	-0,011
-556,700	661,610	-0,034	-0,064
-555,685	725,651	-0,034	-0,066
-554,671	800,000	-0,007	0,016
-553,656	-200,000	-0,014	0,137
-552,642	-200,000	-0,013	-0,051
-551,627	-200,000	-0,016	-0,125
-550,612	-38,013	-0,043	-0,016
-549,598	-25,017	-0,068	0,030
-548,583	-137,067	-0,007	0,001
-547,569	166,062	-0,062	-0,065
-546,554	-108,954	0,095	-0,015
-545,539	167,986	0,076	0,079
-544,525	217,795	0,013	0,015
-543,510	-143,804	0,109	-0,007
-542,496	800,000	-0,016	-0,047
-541,481	227,862	0,045	0,054
-540,466	-54,180	-0,158	-0,052
-539,452	-200,000	0,044	-0,150
-538,437	239,745	-0,043	0,052
-537,423	-4,314	0,133	-0,067
-536,408	185,613	-0,078	0,085
-535,393	-200,000	0,012	-0,127
-534,379	210,586	-0,047	-0,054
-533,364	-200,000	-0,038	-0,245
-532,350	-158,630	0,038	-0,002
-531,335	-200,000	-0,021	0,159
-530,321	-200,000	0,017	0,091
-529,306	156,182	-0,054	0,054
-528,291	28,951	0,057	-0,035
-527,277	-115,551	-0,126	0,017
-526,262	266,683	-0,052	0,066
-525,248	371,658	-0,027	0,041
-524,233	797,348	0,033	0,067
-523,218	-200,000	-0,025	-0,143
-522,204	-200,000	-0,008	-0,091
-521,189	800,000	0,035	-0,094
-520,175	-96,585	0,035	-0,007
-519,160	-95,530	0,048	-0,009
-518,145	-200,000	0,019	-0,092
-517,131	245,151	-0,083	-0,103
-516,116	429,286	0,017	0,027
-515,102	108,848	-0,095	-0,083
-514,087	94,229	-0,076	0,063
-513,072	163,200	0,080	0,082
-512,058	-145,257	-0,086	-0,006
-511,043	664,698	-0,047	0,090
-510,029	190,568	0,041	0,045
-509,014	-29,311	-0,104	-0,043
-507,999	-200,000	-0,005	0,083
-506,985	-95,084	0,130	-0,025
-505,970	-6,584	-0,131	0,065
-504,956	302,899	0,080	-0,108
-503,941	800,000	0,083	0,174
-502,926	800,000	0,064	0,131
-501,912	205,763	-0,082	0,093
-500,897	120,423	-0,099	-0,090
-499,883	185,229	-0,017	0,018
-498,868	179,048	-0,080	0,085
-497,853	-71,133	-0,104	-0,028
-496,839	-74,260	0,111	-0,029
-495,824	51,602	0,010	0,007
-494,810	-26,605	-0,065	-0,028
-493,795	393,385	-0,039	0,059
-492,781	10,627	-0,060	-0,033
-491,766	1,276	-0,081	-0,042
-490,751	-89,662	0,097	0,021
-489,737	-53,338	0,064	0,021
-488,722	671,674	0,040	0,076
-487,708	193,474	-0,105	0,116
-486,693	109,430	-0,066	-0,058
-485,678	-1,184	-0,042	0,022
-484,664	280,278	0,020	0,026
-483,649	85,257	-0,070	-0,056
-482,635	134,663	-0,073	-0,069
-481,620	800,000	-0,037	0,083
-480,605	132,863	0,065	0,061
-479,591	-200,000	-0,019	0,126
-478,576	-54,532	-0,009	-0,003
-477,562	-54,403	-0,110	-0,036
-476,547	42,370	-0,071	0,047
-475,532	-112,985	-0,137	0,019
-474,518	12,447	-0,057	-0,032
-473,503	-200,000	-0,009	0,045
-472,489	-200,000	-0,007	0,048
-471,474	-200,000	-0,009	-0,030
-470,459	-37,209	-0,041	0,016
-469,445	9,384	-0,057	-0,031
-468,430	-200,000	0,024	-0,079
-467,416	-200,000	0,020	0,088
-466,401	-67,596	0,071	0,020
-465,386	195,458	0,057	0,063
-464,372	176,637	0,132	-0,140
-463,357	509,682	-0,069	-0,116
-462,343	-60,285	-0,057	-0,018
-461,328	1,394	0,081	0,042
-460,313	-200,000	0,013	-0,088
-459,299	-94,124	0,051	-0,010
-458,284	-58,735	0,079	-0,025
-457,270	345,665	-0,039	-0,055
-456,255	-200,000	-0,013	-0,072
-455,241	-69,358	-0,133	0,037
-454,226	450,141	-0,055	0,089
-453,211	41,825	-0,101	-0,067
-452,197	-200,000	-0,009	0,040
-451,182	44,898	0,175	0,117
-450,168	-200,000	-0,008	0,133
-449,153	-74,763	-0,035	0,009
-448,138	-200,000	-0,005	0,078
-447,124	67,778	-0,018	-0,014
-446,109	-34,336	-0,037	0,015
-445,095	360,497	0,044	-0,065
-444,080	-200,000	0,013	0,108
-443,065	-200,000	-0,006	0,048
-442,051	411,446	-0,015	0,023
-441,036	641,364	0,034	-0,062
-440,022	-90,107	-0,197	-0,041
-439,007	-178,134	0,196	0,003
-437,992	466,932	-0,048	0,078
-436,978	21,791	-0,077	-0,045
-435,963	223,856	0,137	-0,161
-434,949	387,171	0,020	-0,030
-433,934	-200,000	-0,008	0,085
-432,919	320,564	0,078	-0,108
-431,905	-2,224	-0,095	-0,048
-430,890	-134,756	0,153	-0,013
-429,876	-199,652	0,158	0,001
-428,861	11,079	0,096	-0,053
-427,846	16,205	-0,033	-0,019
-426,832	800,000	-0,039	-0,099
-425,817	65,810	0,112	0,082
-424,803	-93,256	0,149	-0,030
-423,788	-34,605	0,047	-0,018
-422,773	-52,663	0,193	0,064
-421,759	224,772	0,012	-0,014
-420,744	-31,780	-0,124	0,050
-419,730	96,805	-0,059	0,049
-418,715	-200,000	-0,048	0,172
-417,701	-200,000	-0,008	0,049
-416,686	211,732	0,027	-0,031
-415,671	800,000	-0,079	0,217
-414,657	382,667	0,086	0,129
-413,642	-26,774	-0,100	0,042
-412,628	53,509	-0,072	0,050
-411,613	-55,014	-0,185	-0,060
-410,598	800,000	-0,031	-0,096
-409,584	200,456	-0,047	0,053
-408,569	248,474	0,029	-0,036
-407,555	-200,000	0,012	0,041
-406,540	688,525	0,020	-0,039
-405,525	-63,350	-0,114	0,034
-404,511	140,621	0,080	0,077
-403,496	12,948	-0,041	-0,023
-402,482	-200,000	-0,005	-0,044
-401,467	-26,336	0,095	-0,040
-400,452	141,200	-0,075	0,072
-399,438	12,782	0,176	0,098
-398,423	6,129	0,116	0,062
-397,409	-200,000	-0,023	-0,079
-396,394	-200,000	0,003	-0,047
-395,379	92,782	-0,051	-0,042
-394,365	417,727	-0,048	-0,075
-393,350	59,902	0,097	0,069
-392,336	-144,971	-0,103	0,007
-391,321	419,581	-0,049	-0,077
-390,306	-12,712	-0,040	-0,019
-389,292	102,401	0,152	-0,129
-388,277	-61,550	-0,107	-0,032
-387,263	800,000	0,038	-0,095
-386,248	-200,000	0,009	-0,060
-385,233	60,219	0,105	-0,075
-384,219	-200,000	0,024	-0,087
-383,204	-118,868	-0,020	0,003
-382,190	800,000	0,034	-0,104
-381,175	454,878	-0,039	-0,062
-380,160	800,000	0,070	0,148
-379,146	800,000	-0,070	0,149
-378,131	45,269	-0,057	-0,038
-377,117	178,578	0,062	0,066
-376,102	-89,739	-0,099	0,021
-375,088	269,355	-0,106	-0,136
-374,073	345,099	0,025	0,035
-373,058	-65,029	0,191	-0,056
-372,044	-85,205	-0,016	-0,004
-371,029	207,101	0,037	0,041
-370,015	-200,000	-0,007	-0,141
-369,000	-60,247	-0,139	0,043
-367,985	552,755	0,048	-0,083
-366,971	-200,000	0,001	-0,057
-365,956	-175,214	0,081	-0,002
-364,942	-200,000	-0,007	0,106
-363,927	-200,000	0,025	-0,102
-362,912	341,798	0,007	-0,010
-361,898	145,796	-0,024	0,023
-360,883	181,505	-0,027	-0,029
-359,869	89,399	-0,053	0,043
-358,854	800,000	0,035	-0,084
-357,839	-200,000	-0,036	0,129
-356,825	800,000	0,019	0,046
-355,810	172,425	0,039	0,041
-354,796	79,070	-0,033	-0,025
-353,781	800,000	0,085	-0,188
-352,766	61,862	0,106	-0,076
-351,752	-200,000	0,005	-0,026
-350,737	15,428	0,222	0,126
-349,723	180,697	-0,075	0,079
-348,708	-200,000	0,042	0,163
-347,693	232,628	0,045	-0,054
-346,679	-120,228	0,077	-0,009
-345,664	-7,789	-0,168	0,082
-344,650	-91,227	-0,034	-0,007
-343,635	-64,513	0,193	0,057
-342,620	-105,623	-0,010	-0,002
-341,606	-42,470	0,066	0,024
-340,591	-200,000	0,002	-0,112
-339,577	-200,000	-0,026	-0,135
-338,562	387,513	-0,063	-0,094
-337,548	-200,000	0,022	0,134
-336,533	-143,113	0,130	-0,009
-335,518	-20,841	-0,023	0,010
-334,504	-116,721	-0,032	0,004
-333,489	-78,097	-0,070	0,017
-332,475	-47,737	0,036	-0,013
-331,460	73,625	-0,080	0,061
-330,445	-200,000	-0,001	-0,069
-329,431	-200,000	0,024	0,085
-328,416	-200,000	-0,027	0,129
-327,402	123,119	0,080	-0,073
-326,387	-90,434	0,079	-0,016
-325,372	54,905	-0,083	-0,058
-324,358	800,000	0,012	0,034
-323,343	-114,586	-0,082	-0,011
-322,329	-101,728	-0,145	0,025
-321,314	777,370	-0,046	0,092
-320,299	-18,591	-0,025	0,011
-319,285	80,014	-0,030	-0,023
-318,270	-200,000	0,010	-0,052
-317,256	800,000	-0,057	-0,168
-316,241	-66,365	0,071	-0,020
-315,226	800,000	-0,041	-0,103
-314,212	-200,000	0,002	-0,053
-313,197	-72,400	0,058	0,015
-312,183	-200,000	0,015	0,171
-311,168	35,487	0,086	0,055
-310,153	-88,949	-0,018	0,004
-309,139	800,000	-0,066	-0,172
-308,124	43,005	0,031	0,020
-307,110	-63,672	0,118	0,035
-306,095	128,354	-0,068	0,062
-305,080	39,180	-0,049	-0,031
-304,066	12,802	-0,135	0,076
-303,051	-117,043	0,053	0,007
-302,037	127,285	0,040	-0,037
-301,022	90,044	-0,067	-0,054
-300,008	-200,000	-0,003	0,128
-298,993	-28,674	0,130	0,054
-297,978	800,000	-0,030	-0,066
-296,964	-114,028	0,084	-0,012
-295,949	124,055	-0,113	0,102
-294,935	-62,265	-0,127	-0,038
-293,920	-118,669	0,104	-0,013
-292,905	-200,000	-0,001	0,031
-291,891	-131,185	0,064	0,006
-290,876	83,015	-0,061	-0,048
-289,862	207,794	0,121	0,137
-288,847	-67,342	-0,065	-0,018
-287,832	800,000	0,043	0,086
-286,818	-82,845	-0,113	0,026
-285,803	-70,230	-0,108	0,029
-284,789	-200,000	0,031	0,107
-283,774	800,000	-0,040	0,097
-282,759	601,592	-0,031	-0,056
-281,745	-200,000	-0,012	0,049
-280,730	-200,000	0,002	-0,047
-279,716	-61,631	-0,146	0,044
-278,701	708,486	0,112	0,216
-277,686	-200,000	0,002	-0,048
-276,672	79,064	-0,047	0,036
-275,657	106,761	0,156	0,134
-274,643	800,000	-0,033	0,067
-273,628	-161,349	0,166	0,006
-272,613	194,070	-0,129	-0,141
-271,599	800,000	0,023	-0,061
-270,584	-200,000	0,032	0,157
-269,570	350,639	-0,069	0,099
-268,555	186,940	-0,050	-0,054
-267,540	308,135	0,043	0,059
-266,526	124,012	0,054	-0,049
-265,511	249,632	0,045	0,055
-264,497	89,877	-0,057	-0,046
-263,482	-200,000	0,001	0,012
-262,467	67,812	0,075	0,056
-261,453	-40,728	0,064	-0,024
-260,438	-92,923	-0,063	0,013
-259,424	346,993	-0,132	-0,188
-258,409	-82,160	-0,038	0,009
-257,395	800,000	-0,068	0,155
-256,380	-91,189	0,137	0,028
-255,365	249,999	-0,005	0,006
-254,351	678,486	0,021	0,039
-253,336	446,681	-0,059	0,094
-252,322	-200,000	0,001	-0,013
-251,307	800,000	-0,039	-0,080
-250,292	-200,000	-0,020	0,069
-249,278	-200,000	-0,027	-0,089
-248,263	-122,951	0,068	-0,008
-247,249	112,122	0,035	0,030
-246,234	-95,937	0,140	0,027
-245,219	387,946	-0,052	-0,078
-244,205	800,000	-0,043	-0,092
-243,190	122,975	-0,012	0,011
-242,176	-200,000	-0,020	-0,092
-241,161	800,000	0,031	-0,072
-240,146	34,087	-0,075	-0,047
-239,132	36,099	0,130	-0,082
-238,117	133,029	0,022	-0,021
-237,103	441,224	-0,010	-0,016
-236,088	-200,000	-0,113	0,000
-235,073	253,322	-0,010	0,013
-234,059	-172,144	0,144	0,003
-233,044	685,913	0,026	0,048
-232,030	99,667	-0,038	0,032
-231,015	175,790	-0,114	-0,119
-230,000	74,510	-0,093	-0,070
-228,986	482,267	-0,036	-0,059
-227,971	-63,008	-0,090	-0,027
-226,957	800,000	0,050	0,126
-225,942	-200,000	0,006	0,055
-224,927	800,000	0,072	-0,153
-223,913	800,000	-0,045	-0,101
-222,898	-200,000	-0,017	-0,160
-221,884	582,008	-0,046	-0,082
-220,869	-95,050	0,049	-0,009
-219,855	-200,000	0,018	0,135
-218,840	800,000	0,040	-0,095
-217,825	55,129	0,097	0,067
-216,811	165,678	0,034	-0,035
-215,796	570,706	0,037	-0,066
-214,782	278,361	-0,043	-0,055
-213,767	117,725	0,029	0,026
-212,752	-25,584	0,123	0,052
-211,738	-118,588	0,109	-0,014
-210,723	-143,156	0,095	0,007
-209,709	-96,496	0,126	0,024
-208,694	-32,744	-0,150	-0,060
-207,679	-14,581	0,080	-0,037
-206,665	-55,779	0,148	0,047
-205,650	294,195	0,069	0,090
-204,636	-61,537	-0,102	-0,031
-203,621	263,618	0,063	-0,079
-202,606	800,000	0,008	0,017
-201,592	800,000	-0,028	-0,085
-200,577	-200,000	0,005	-0,044
-199,563	-200,000	0,008	0,066
-198,548	800,000	0,040	0,083
-197,533	-39,180	-0,040	0,015
-196,519	280,597	0,038	-0,049
-195,504	800,000	-0,022	0,051
-194,490	-200,000	-0,002	-0,014
-193,475	1,888	-0,034	0,018
-192,460	48,451	0,060	0,040
-191,446	328,586	-0,019	0,026
-190,431	-0,447	0,028	-0,014
-189,417	15,077	0,077	0,043
-188,402	151,152	-0,137	-0,134
-187,387	800,000	0,016	-0,036
-186,373	-162,971	0,113	-0,004
-185,358	791,355	0,033	-0,066
-184,344	484,127	0,016	0,026
-183,329	-200,000	-0,035	0,178
-182,315	175,792	-0,073	0,076
-181,300	-81,540	-0,075	-0,018
-180,285	60,411	0,051	0,036
-179,271	378,487	0,036	-0,054
-178,256	800,000	0,035	0,108
-177,242	-200,000	-0,003	0,092
-176,227	-99,501	-0,150	-0,027
-175,212	-93,978	-0,056	0,011
-174,198	-139,692	-0,023	0,002
-173,183	240,976	-0,073	-0,088
-172,169	-167,307	-0,134	0,004
-171,154	800,000	-0,030	0,065
-170,139	108,968	0,093	-0,080
-169,125	338,109	-0,054	0,076
-168,110	49,165	0,018	0,012
-167,096	-88,312	0,074	0,016
-166,081	44,477	-0,053	-0,035
-165,066	-200,000	-0,001	0,087
-164,052	169,726	-0,101	-0,104
-163,037	800,000	-0,056	-0,175
-162,023	35,859	0,183	0,116
-161,008	764,379	0,089	0,175
-159,993	88,336	-0,047	-0,037
-158,979	-200,000	0,023	-0,156
-157,964	800,000	0,005	0,014
-156,950	583,702	0,052	0,093
-155,935	67,925	0,067	-0,050
-154,920	-77,615	-0,096	-0,024
-153,906	119,541	-0,025	-0,022
-152,891	-200,000	0,031	0,112
-151,877	-200,000	0,001	-0,007
-150,862	32,757	0,116	-0,072
-149,847	17,012	0,026	0,015
-148,833	800,000	0,009	-0,022
-147,818	410,001	-0,026	-0,039
-146,804	-46,161	-0,219	-0,077
-145,789	110,974	0,118	0,102
-144,775	-129,768	0,035	0,003
-143,760	350,926	0,034	-0,049
-142,745	-15,425	0,082	-0,037
-141,731	-200,000	0,003	-0,075
-140,716	-200,000	0,010	0,063
-139,702	581,795	0,009	-0,016
-138,687	-200,000	0,005	-0,046
-137,672	-200,000	0,025	-0,126
-136,658	79,162	-0,059	0,045
-135,643	-92,151	-0,072	-0,014
-134,629	324,844	-0,089	-0,123
-133,614	800,000	-0,052	-0,104
-132,599	800,000	0,043	0,117
-131,585	180,491	0,090	-0,095
-130,570	176,149	-0,063	0,066
-129,556	-152,792	0,089	0,004
-128,541	210,036	0,061	-0,069
-127,526	160,426	0,034	0,034
-126,512	518,684	0,029	-0,048
-125,497	-153,887	0,107	-0,005
-124,483	800,000	-0,047	0,136
-123,468	-103,990	-0,022	0,004
-122,453	-151,961	-0,154	0,008
-121,439	-200,000	-0,020	-0,075
-120,424	-10,441	-0,181	0,086
-119,410	400,030	0,096	-0,145
-118,395	-61,942	-0,093	0,028
-117,380	-12,376	0,015	0,007
-116,366	172,372	-0,057	0,059
-115,351	-164,428	-0,117	-0,004
-114,337	-13,764	-0,143	-0,066
-113,322	800,000	-0,013	-0,030
-112,307	-121,018	-0,072	0,009
-111,293	800,000	-0,039	0,097
-110,278	42,425	-0,077	-0,050
-109,264	-95,988	0,180	0,034
-108,249	490,530	0,074	-0,123
-107,234	-200,000	0,005	-0,056
-106,220	-200,000	-0,007	-0,032
-105,205	-53,926	-0,111	-0,036
-104,191	40,057	0,088	-0,057
-103,176	-63,131	-0,041	0,012
-102,162	66,857	-0,071	0,052
-101,147	33,852	-0,072	-0,045
-100,132	100,689	-0,037	-0,031
-99,118	-5,783	0,089	-0,043
-98,103	276,539	-0,077	-0,099
-97,089	-91,245	0,111	0,023
-96,074	140,304	-0,063	0,060
-95,059	-200,000	-0,055	0,000
-94,045	-157,881	-0,074	-0,003
-93,030	-151,384	0,069	-0,004
-92,016	10,495	-0,088	0,048
-91,001	-155,256	0,118	0,005
-89,986	800,000	0,029	0,059
-88,972	-117,165	0,042	-0,005
-87,957	-69,822	0,090	-0,024
-86,943	116,381	-0,170	-0,149
-85,928	-85,794	0,116	0,026
-84,913	-9,129	-0,111	-0,053
-83,899	-70,379	0,104	-0,028
-82,884	170,143	0,032	0,033
-81,870	35,423	0,075	-0,047
-80,855	147,546	0,108	-0,104
-79,840	-200,000	-0,023	-0,079
-78,826	-101,029	0,051	-0,009
-77,811	800,000	-0,063	0,155
-76,797	247,869	0,044	0,054
-75,782	-200,000	0,014	0,052
-74,767	218,529	-0,099	0,114
-73,753	-200,000	-0,002	-0,170
-72,738	301,634	0,081	-0,107
-71,724	-111,684	-0,082	-0,012
-70,709	-52,663	0,123	-0,040
-69,694	117,831	-0,068	0,060
-68,680	-93,960	0,130	0,025
-67,665	800,000	0,023	0,053
-66,651	-14,598	0,043	0,020
-65,636	163,883	-0,058	-0,058
-64,622	-7,016	-0,072	-0,035
-63,607	57,316	-0,037	-0,026
-62,592	135,038	-0,143	0,134
-61,578	-14,006	0,125	-0,057
-60,563	419,884	-0,076	0,118
-59,549	-200,000	0,010	0,119
-58,534	15,463	-2,220	-1,245
-57,519	-200,000	-0,138	-0,744
-56,505	-200,000	-1,265	-5,032
-55,490	66,328	0,826	0,601
-54,476	800,000	5,377	12,206
-53,461	-200,000	18,266	293,693
-52,446	800,000	730,235	2228,144
-51,432	527,510	1643,556	2786,085
-50,417	107,388	1632,663	1390,438
-49,403	71,633	1284,165	954,506
-48,388	30,458	1024,890	625,953
-47,373	19,825	986,776	567,739
-46,359	17,807	974,532	554,088
-45,344	14,728	970,386	541,675
-44,330	14,957	968,995	541,626
-43,315	14,384	967,154	538,710
-42,300	14,354	965,966	537,930
-41,286	14,342	965,179	537,430
-40,271	14,356	964,128	536,869
-39,257	14,389	963,380	536,540
-38,242	14,414	962,380	536,042
-37,227	14,372	961,695	535,504
-36,213	14,359	960,716	534,894
-35,198	14,322	959,868	534,281
-34,184	14,374	959,339	534,133
-33,169	14,359	958,066	533,354
-32,154	14,433	957,224	533,105
-31,140	14,418	956,211	532,470
-30,125	14,371	955,668	531,995
-29,111	14,394	954,761	531,543
-28,096	14,362	954,228	531,123
-27,082	14,430	953,152	530,721
-26,067	14,468	952,597	530,512
-25,052	14,411	951,698	529,808
-24,038	14,382	951,420	529,541
-23,023	14,363	950,697	529,056
-22,009	14,430	949,980	528,851
-20,994	14,373	949,436	528,345
-19,979	14,380	948,620	527,890
-18,965	14,357	948,139	527,530
-17,950	14,340	947,492	527,096
-16,936	14,405	946,799	526,896
-15,921	14,386	946,158	526,457
-14,906	14,237	945,358	525,519
-13,892	14,326	944,645	525,382
-12,877	14,293	944,123	524,968
-11,863	14,260	943,736	524,625
-10,848	14,274	943,023	524,253
-9,833	14,361	942,597	524,271
-8,819	14,396	941,730	523,878
-7,804	14,289	941,404	523,340
-6,790	14,319	940,791	523,072
-5,775	14,327	940,109	522,696
-4,760	14,356	939,403	522,374
-3,746	14,331	938,779	521,929
-2,731	14,165	938,237	521,084
-1,717	14,126	937,360	520,452
-0,702	14,156	936,926	520,286
0,313	13,943	936,217	520,007
1,327	17,428	934,076	529,703
2,342	26,688	786,484	470,266
3,356	22,960	441,732	258,626
4,371	-6,937	294,285	142,566
5,386	-10,614	276,153	130,303
6,400	-11,861	270,214	126,337
7,415	-12,145	268,064	125,061
8,429	-12,144	266,603	124,369
9,444	-12,300	265,691	123,791
10,459	-12,220	265,096	123,575
11,473	-12,345	264,446	123,149
12,488	-12,504	263,772	122,680
13,502	-12,650	263,277	122,307
14,517	-12,453	262,781	122,243
15,531	-12,383	262,428	122,131
16,546	-12,499	262,288	121,951
17,561	-12,587	261,774	121,622
18,575	-12,415	261,565	121,668
19,590	-12,609	261,121	121,278
20,604	-12,275	260,759	121,396
21,619	-12,351	260,336	121,121
22,634	-12,310	260,050	121,013
23,648	-12,679	259,837	120,576
24,663	-12,328	259,520	120,729
25,677	-12,505	259,330	120,473
26,692	-12,349	258,919	120,410
27,707	-12,537	258,903	120,225
28,721	-12,507	258,489	120,049
29,736	-12,428	258,098	119,926
30,750	-12,402	257,647	119,729
31,765	-12,470	257,600	119,636
32,780	-12,676	257,569	119,430
33,794	-12,467	257,125	119,397
34,809	-12,442	256,993	119,347
35,823	-12,547	256,685	119,102
36,838	-12,681	256,509	118,892
37,853	-12,672	256,197	118,745
38,867	-12,503	255,874	118,732
39,882	-12,391	255,664	118,721
40,896	-12,576	255,585	118,513
41,911	-12,607	255,258	118,324
42,926	-12,537	255,047	118,276
43,940	-12,686	254,867	118,053
44,955	-12,502	254,562	118,060
45,969	-12,801	254,366	117,700
46,984	-12,845	254,091	117,524
47,999	-13,064	253,816	117,197
49,013	-13,115	253,680	117,080
50,028	-13,141	253,265	116,856
51,042	-13,259	253,068	116,652
52,057	-13,263	252,912	116,567
53,071	-13,149	252,625	116,522
54,086	-12,961	252,464	116,599
55,101	-12,882	252,330	116,595
56,115	-12,869	252,201	116,536
57,130	-12,342	252,034	116,901
58,144	-12,281	251,797	116,832
59,159	-12,381	251,611	116,650
60,174	-12,502	251,478	116,474
61,188	-12,356	251,193	116,457
62,203	-12,565	251,035	116,195
63,217	-12,377	250,817	116,244
64,232	-12,448	250,608	116,076
65,247	-12,430	250,370	115,971
66,261	-12,423	250,053	115,820
67,276	-12,554	249,923	115,638
68,290	-12,740	249,504	115,276
69,305	-12,846	249,430	115,141
70,320	-12,757	249,143	115,074
71,334	-12,394	248,864	115,242
72,349	-12,420	248,865	115,210
73,363	-12,179	248,522	115,245
74,378	-12,470	248,525	114,990
75,393	-12,460	248,255	114,863
76,407	-12,469	247,948	114,704
77,422	-12,677	247,757	114,430
78,436	-12,577	247,508	114,388
79,451	-12,279	247,461	114,607
80,466	-12,537	247,244	114,279
81,480	-12,669	246,995	114,044
82,495	-12,658	246,843	113,972
83,509	-12,588	246,566	113,893
84,524	-12,683	246,287	113,675
85,539	-12,695	246,260	113,642
86,553	-12,780	245,956	113,421
87,568	-12,661	245,824	113,449
88,582	-12,461	245,681	113,539
89,597	-12,805	245,396	113,111
90,611	-12,817	245,384	113,086
91,626	-12,514	245,143	113,217
92,641	-12,369	244,927	113,227
93,655	-12,628	244,825	112,955
94,670	-12,594	244,462	112,805
95,684	-12,515	244,209	112,744
96,699	-12,694	244,138	112,553
97,714	-12,544	243,915	112,564
98,728	-12,913	243,667	112,135
99,743	-12,759	243,600	112,221
100,757	-12,958	243,302	111,910
101,772	-12,863	243,167	111,916
102,787	-12,487	242,951	112,116
103,801	-12,488	242,689	111,985
104,816	-12,401	242,518	111,967
105,830	-12,521	242,482	111,842
106,845	-12,510	242,318	111,765
107,860	-12,448	242,136	111,722
108,874	-12,717	241,947	111,405
109,889	-12,586	241,644	111,363
110,903	-12,881	241,505	111,047
111,918	-12,745	241,293	111,051
112,933	-12,520	241,160	111,164
113,947	-12,641	241,064	111,011
114,962	-12,512	240,796	110,983
115,976	-12,441	240,688	110,981
116,991	-12,526	240,573	110,848
118,006	-12,544	240,310	110,703
119,020	-12,697	240,247	110,540
120,035	-12,516	240,071	110,596
121,049	-12,276	239,693	110,606
122,064	-12,370	239,703	110,525
123,079	-12,604	239,507	110,235
124,093	-12,543	239,134	110,103
125,108	-12,645	238,935	109,919
126,122	-12,817	238,651	109,639
127,137	-12,872	238,569	109,548
128,151	-12,810	238,357	109,491
129,166	-12,924	238,355	109,388
130,181	-12,919	238,062	109,248
131,195	-12,873	237,829	109,169
132,210	-12,675	237,597	109,211
133,224	-12,637	237,547	109,209
134,239	-12,675	237,411	109,106
135,254	-12,304	237,147	109,272
136,268	-12,626	236,905	108,893
137,283	-12,993	236,814	108,549
138,297	-12,989	236,583	108,436
139,312	-13,047	236,426	108,308
140,327	-12,470	236,229	108,668
141,341	-12,537	236,226	108,604
142,356	-12,266	236,154	108,778
143,370	-12,265	235,863	108,634
144,385	-12,283	235,686	108,529
145,400	-12,168	235,399	108,478
146,414	-12,240	235,303	108,367
147,429	-12,454	235,029	108,061
148,443	-12,471	234,932	107,994
149,458	-12,199	234,769	108,125
150,473	-12,209	234,558	108,011
151,487	-12,315	234,411	107,849
152,502	-12,285	234,369	107,844
153,516	-12,332	234,293	107,762
154,531	-12,443	233,960	107,511
155,546	-12,552	233,924	107,400
156,560	-12,329	233,607	107,420
157,575	-12,519	233,394	107,163
158,589	-12,278	233,298	107,299
159,604	-12,305	233,116	107,184
160,619	-12,384	233,008	107,064
161,633	-12,340	232,904	107,040
162,648	-12,164	232,562	107,012
163,662	-12,426	232,633	106,829
164,677	-12,353	232,315	106,731
165,692	-12,359	232,123	106,628
166,706	-12,456	232,158	106,559
167,721	-12,223	231,979	106,650
168,735	-12,251	231,807	106,539
169,750	-12,191	231,565	106,466
170,764	-12,302	231,497	106,338
171,779	-12,317	231,315	106,234
172,794	-12,124	231,157	106,302
173,808	-12,288	230,917	106,054
174,823	-12,578	230,539	105,646
175,837	-12,735	230,448	105,473
176,852	-12,617	230,485	105,572
177,867	-12,405	230,357	105,668
178,881	-12,376	230,141	105,582
179,896	-12,521	230,068	105,427
180,910	-12,135	229,946	105,661
181,925	-12,236	229,924	105,563
182,940	-12,401	229,643	105,297
183,954	-12,414	229,446	105,187
184,969	-12,133	229,274	105,316
185,983	-12,243	229,203	105,189
186,998	-12,225	229,065	105,130
188,013	-12,100	228,840	105,114
189,027	-12,052	228,684	105,070
190,042	-12,396	228,528	104,724
191,056	-12,272	228,433	104,767
192,071	-12,102	228,229	104,794
193,086	-12,406	228,144	104,513
194,100	-12,295	227,926	104,488
195,115	-12,429	227,477	104,171
196,129	-12,478	227,564	104,164
197,144	-7,470	229,099	108,711
198,159	-2,126	230,698	113,591
199,173	1,341	231,809	116,814
200,188	2,053	231,746	117,323
201,202	1,788	231,561	117,014
202,217	1,893	231,298	116,953
203,232	1,759	231,492	116,936
204,246	2,184	231,114	117,062
205,261	2,259	231,124	117,115
206,275	2,451	230,924	117,151
207,290	2,263	230,797	116,932
208,304	2,551	230,581	117,034
209,319	2,223	230,415	116,686
210,334	2,247	230,297	116,635
211,348	2,094	230,053	116,384
212,363	1,645	229,704	115,852
213,377	1,594	229,464	115,682
214,392	1,416	229,492	115,550
215,407	1,838	229,406	115,819
216,421	1,694	229,172	115,581
217,436	1,776	229,018	115,555
218,450	1,590	228,753	115,270
219,465	1,664	228,570	115,223
220,480	1,533	228,552	115,104
221,494	1,588	228,254	114,985
222,509	1,872	228,237	115,183
223,523	2,056	228,194	115,290
224,538	1,888	227,906	115,007
225,553	1,810	227,819	114,894
226,567	1,712	227,517	114,657
227,582	1,850	227,600	114,793
228,596	2,116	227,493	114,931
229,611	1,765	227,208	114,511
230,626	1,454	226,973	114,148
231,640	1,644	226,887	114,238
232,655	1,939	226,822	114,417
233,669	2,199	226,614	114,497
234,684	2,249	226,648	114,542
235,699	2,159	226,425	114,352
236,713	1,855	226,214	114,006
237,728	1,628	226,013	113,724
238,742	1,672	225,702	113,591
239,757	2,059	225,631	113,835
240,772	1,776	225,467	113,530
241,786	1,521	225,434	113,312
242,801	1,855	225,339	113,505
243,815	2,221	225,229	113,713
244,830	2,036	225,148	113,523
245,844	1,831	224,836	113,203
246,859	1,784	224,696	113,087
247,874	2,022	224,489	113,150
248,888	2,072	224,504	113,185
249,903	2,080	224,334	113,096
250,917	1,842	224,086	112,783
251,932	1,936	223,935	112,767
252,947	1,781	223,664	112,505
253,961	1,408	223,646	112,209
254,976	1,520	223,425	112,172
255,990	1,982	223,456	112,520
257,005	2,005	223,282	112,439
258,020	1,935	223,085	112,278
259,034	2,004	222,960	112,256
260,049	2,162	222,909	112,337
261,063	2,186	222,521	112,150
262,078	2,244	222,585	112,215
263,093	2,143	222,633	112,155
264,107	2,116	222,343	111,978
265,122	2,239	222,137	111,955
266,136	2,194	222,164	111,926
267,151	2,326	221,982	111,922
268,166	1,898	221,648	111,428
269,180	1,681	221,375	111,122
270,195	1,970	221,329	111,301
271,209	1,854	221,156	111,118
272,224	1,707	221,101	110,974
273,239	1,905	220,930	111,023
274,253	1,878	220,679	110,868
275,268	1,496	220,519	110,498
276,282	1,738	220,403	110,606
277,297	1,545	220,266	110,387
278,312	1,788	220,207	110,525
279,326	1,909	220,103	110,551
280,341	1,788	219,936	110,369
281,355	1,871	219,877	110,390
282,370	1,818	219,659	110,232
283,384	1,517	219,413	109,880
284,399	1,391	219,122	109,633
285,414	1,405	219,161	109,653
286,428	1,710	219,077	109,823
287,443	2,270	219,060	110,210
288,457	2,151	218,856	110,012
289,472	2,024	218,501	109,732
290,487	1,583	218,267	109,286
291,501	1,459	218,200	109,153
292,516	1,526	218,037	109,110
293,530	1,667	217,931	109,149
294,545	1,660	217,842	109,090
295,560	1,579	217,961	109,081
296,574	1,882	217,739	109,178
297,589	1,963	217,520	109,117
298,603	1,938	217,360	109,009
299,618	1,993	217,271	108,995
300,633	2,064	217,106	108,953
301,647	2,204	217,041	109,011
302,662	2,150	216,905	108,894
303,676	2,316	216,736	108,919
304,691	2,194	216,574	108,740
305,706	2,331	216,405	108,743
306,720	2,146	216,301	108,550
307,735	1,726	216,291	108,234
308,749	1,798	216,111	108,186
309,764	2,046	215,816	108,206
310,779	2,310	215,786	108,369
311,793	2,144	215,617	108,156
312,808	1,943	215,645	108,017
313,822	1,987	215,424	107,929
314,837	2,094	215,262	107,914
315,852	1,778	215,032	107,564
316,866	1,475	214,919	107,283
317,881	2,111	214,811	107,671
318,895	2,030	214,547	107,472
319,910	1,775	214,500	107,258
320,925	1,457	214,257	106,902
321,939	1,261	214,112	106,681
322,954	1,275	214,108	106,680
323,968	1,836	214,136	107,081
324,983	2,207	213,892	107,211
325,997	2,212	213,886	107,202
327,012	2,371	213,540	107,131
328,027	1,891	213,461	106,744
329,041	2,103	213,403	106,855
330,056	2,209	213,324	106,880
331,070	2,264	212,989	106,741
332,085	2,047	212,722	106,446
333,100	2,101	212,686	106,456
334,114	2,003	212,663	106,366
335,129	2,271	212,481	106,454
336,143	2,029	212,439	106,253
337,158	1,829	212,277	106,023
338,173	2,056	212,082	106,075
339,187	1,619	211,926	105,682
340,202	1,536	211,741	105,523
341,216	1,764	211,520	105,562
342,231	1,792	211,307	105,466
343,246	1,464	211,323	105,236
344,260	1,921	211,220	105,493
345,275	2,348	211,240	105,791
346,289	2,442	211,140	105,797
347,304	2,396	210,977	105,674
348,319	2,035	210,785	105,318
349,333	1,878	210,662	105,138
350,348	1,969	210,463	105,092
351,362	2,430	210,389	105,365
352,377	2,224	210,379	105,209
353,392	1,881	210,142	104,843
354,406	2,082	210,007	104,906
355,421	196,601	1315,188	1392,148
356,435	157,166	1449,800	1392,109
