DTS Sentinel unit serial number:	SN410029Multiplexer serial number:	ORYXHardware model number:	OX2-SRSoftware version number:	ORYX F/W v4,00 Oryx Data Collector v3.7.2.0data status	okinstallation	B6 Nyhavnadifferential loss correction	single-endedforward channel	channel 2reverse channel	N/Adate	2023/12/09time	13:15:08forward acquisition time	300,00reverse acquisition time	0,00gamma	499,1914k internal	0,3137k external	0,3137temperature offset calibration	1,0000default loss term (dB/km)	0,3820temperature slope calibration	1,0000multiplexer offset coefficient	1,0000multiplexer slope coefficient	1,0000fibre end	0,00T internal ref (°C)	20,00T ext. ref 1 (°C)	4,73T ext. ref 2 (°C)	4,72length (m)	temperature (°C)	Stokes	anti-Stokes-744,400	435,363	0,111	-0,180
-743,385	-53,078	-0,316	0,107
-742,371	78,526	0,117	0,093
-741,356	196,188	-0,161	0,182
-740,342	247,921	-0,044	-0,055
-739,327	-174,424	-0,272	0,006
-738,312	-181,943	0,113	0,002
-737,298	-113,034	-0,267	0,039
-736,283	-67,796	0,092	0,027
-735,269	-11,278	-0,242	0,118
-734,254	14,166	0,105	0,061
-733,239	-48,564	-0,378	-0,134
-732,225	-88,499	0,145	-0,032
-731,210	-200,000	-0,000	-0,005
-730,196	-141,421	-0,060	0,004
-729,181	-200,000	-0,010	-0,077
-728,167	-76,660	-0,073	0,019
-727,152	187,431	0,067	-0,075
-726,137	-123,787	0,068	0,008
-725,123	800,000	-0,025	-0,059
-724,108	-200,000	0,022	-0,120
-723,094	-200,000	-0,013	-0,087
-722,079	49,494	-0,135	0,094
-721,064	-53,110	-0,019	0,007
-720,050	17,880	0,056	0,033
-719,035	800,000	-0,022	-0,048
-718,021	22,678	-0,077	0,046
-717,006	800,000	-0,048	-0,115
-715,991	-200,000	0,042	-0,175
-714,977	-200,000	-0,028	-0,116
-713,962	800,000	-0,052	-0,115
-712,948	-110,207	0,113	-0,017
-711,933	-200,000	0,020	-0,086
-710,918	-200,000	0,013	-0,101
-709,904	-200,000	0,001	-0,177
-708,889	-200,000	-0,036	-0,128
-707,875	-200,000	0,037	-0,157
-706,860	-200,000	-0,035	0,154
-705,845	-200,000	-0,008	0,095
-704,831	-121,122	-0,072	0,009
-703,816	-132,876	-0,219	-0,020
-702,802	286,512	-0,059	0,079
-701,787	242,809	-0,140	-0,174
-700,772	-200,000	0,013	-0,115
-699,758	-86,113	-0,056	-0,013
-698,743	800,000	0,056	0,126
-697,729	-200,000	-0,001	0,053
-696,714	20,547	0,071	-0,042
-695,699	414,341	-0,059	0,093
-694,685	15,484	-0,094	-0,054
-693,670	-118,956	-0,101	-0,013
-692,656	-200,000	0,016	-0,085
-691,641	-17,392	0,059	-0,028
-690,627	218,790	0,023	0,027
-689,612	-200,000	0,026	0,147
-688,597	-200,000	-0,006	0,082
-687,583	-200,000	0,017	0,118
-686,568	-200,000	0,002	-0,046
-685,554	-200,000	0,030	-0,124
-684,539	-65,476	0,044	-0,013
-683,524	800,000	-0,035	-0,083
-682,510	800,000	0,037	0,092
-681,495	800,000	0,016	0,039
-680,481	219,598	-0,072	-0,085
-679,466	61,969	-0,152	-0,112
-678,451	476,833	0,079	-0,133
-677,437	-200,000	-0,038	-0,209
-676,422	21,760	0,077	0,046
-675,408	-91,241	-0,068	-0,014
-674,393	800,000	-0,035	-0,097
-673,378	-48,530	-0,105	0,037
-672,364	-200,000	-0,003	-0,039
-671,349	399,542	-0,058	-0,090
-670,335	-84,691	0,037	0,009
-669,320	367,870	-0,072	0,108
-668,305	520,317	-0,046	0,081
-667,291	-177,609	0,058	0,001
-666,276	-22,837	0,058	0,026
-665,262	114,020	0,064	-0,058
-664,247	460,831	0,069	-0,114
-663,232	-87,158	0,062	-0,014
-662,218	-200,000	-0,000	0,066
-661,203	-69,746	0,133	0,037
-660,189	457,097	0,042	-0,069
-659,174	19,072	-0,039	0,023
-658,159	-200,000	-0,017	-0,095
-657,145	-7,009	0,068	0,034
-656,130	-65,949	-0,083	0,024
-655,116	26,195	-0,031	-0,019
-654,101	800,000	0,034	-0,105
-653,086	27,784	0,035	-0,022
-652,072	-200,000	0,021	0,161
-651,057	-31,850	-0,068	-0,028
-650,043	195,040	0,087	-0,098
-649,028	-200,000	0,005	-0,105
-648,014	-80,410	0,008	-0,002
-646,999	150,420	0,052	0,052
-645,984	131,358	-0,118	-0,112
-644,970	-200,000	-0,000	-0,087
-643,955	-200,000	-0,008	-0,049
-642,941	47,277	-0,066	-0,046
-641,926	537,223	-0,066	0,117
-640,911	-183,500	0,151	0,002
-639,897	-121,426	0,042	0,005
-638,882	474,078	0,035	-0,059
-637,868	362,289	-0,093	0,138
-636,853	397,475	-0,010	0,016
-635,838	372,817	-0,101	-0,152
-634,824	726,490	0,038	-0,076
-633,809	-115,575	0,216	0,030
-632,795	46,222	-0,150	-0,102
-631,780	-200,000	-0,005	0,091
-630,765	-200,000	0,003	-0,030
-629,751	800,000	-0,028	-0,090
-628,736	26,747	-0,076	-0,047
-627,722	-200,000	-0,022	-0,160
-626,707	-2,436	0,134	-0,069
-625,692	-200,000	-0,031	0,214
-624,678	800,000	-0,040	0,107
-623,663	323,386	0,004	0,006
-622,649	-81,554	-0,043	-0,010
-621,634	281,185	-0,111	-0,147
-620,619	-132,931	0,080	-0,007
-619,605	236,361	-0,091	0,111
-618,590	450,566	0,013	0,021
-617,576	206,943	0,112	0,129
-616,561	124,384	-0,107	0,099
-615,546	-200,000	-0,015	-0,080
-614,532	129,296	-0,055	-0,052
-613,517	-200,000	0,023	0,202
-612,503	444,376	0,035	0,057
-611,488	194,792	-0,084	0,094
-610,474	101,663	-0,015	-0,013
-609,459	254,655	-0,084	-0,106
-608,444	800,000	0,024	-0,049
-607,430	800,000	0,059	-0,173
-606,415	-200,000	0,007	-0,029
-605,401	-200,000	-0,000	-0,114
-604,386	-160,120	-0,119	0,005
-603,371	-64,777	-0,134	-0,040
-602,357	-183,477	0,091	-0,001
-601,342	99,636	-0,089	-0,076
-600,328	-200,000	0,004	-0,100
-599,313	148,081	0,075	0,075
-598,298	-166,033	0,107	0,003
-597,284	285,455	0,033	0,045
-596,269	-69,330	0,063	-0,018
-595,255	13,379	-0,093	-0,053
-594,240	800,000	-0,040	-0,097
-593,225	521,807	0,066	-0,114
-592,211	-80,851	-0,121	-0,029
-591,196	800,000	0,033	0,079
-590,182	115,751	0,149	-0,134
-589,167	800,000	-0,008	-0,019
-588,152	180,165	-0,113	0,122
-587,138	200,300	0,024	0,028
-586,123	-200,000	-0,025	-0,154
-585,109	-175,043	-0,244	-0,005
-584,094	800,000	-0,010	0,026
-583,079	-53,830	0,016	0,005
-582,065	336,372	-0,031	-0,045
-581,050	165,514	0,033	-0,034
-580,036	132,147	0,013	0,012
-579,021	-200,000	0,025	-0,167
-578,006	14,242	-0,042	-0,024
-576,992	-114,627	-0,201	0,028
-575,977	-145,300	0,121	-0,008
-574,963	42,292	-0,051	0,034
-573,948	62,179	0,072	0,053
-572,934	-200,000	0,000	-0,003
-571,919	-80,552	-0,129	0,031
-570,904	152,310	-0,059	0,059
-569,890	-87,868	0,051	-0,011
-568,875	17,175	0,053	-0,031
-567,861	30,093	-0,049	0,031
-566,846	795,674	0,098	0,199
-565,831	35,226	0,127	0,082
-564,817	-185,339	-0,024	-0,000
-563,802	19,948	-0,044	0,026
-562,788	-200,000	-0,016	-0,081
-561,773	381,018	0,020	-0,031
-560,758	541,683	0,071	0,125
-559,744	84,668	-0,070	0,056
-558,729	800,000	0,052	-0,114
-557,715	91,749	-0,041	-0,034
-556,700	-200,000	-0,011	-0,096
-555,685	-165,969	0,138	-0,004
-554,671	438,848	-0,033	0,053
-553,656	222,317	0,072	0,086
-552,642	53,370	0,127	0,089
-551,627	76,719	-0,097	0,076
-550,612	-160,563	-0,052	0,002
-549,598	414,913	-0,083	-0,130
-548,583	-22,210	-0,052	-0,023
-547,569	-130,523	0,071	0,007
-546,554	-154,190	0,056	0,003
-545,539	205,558	-0,046	-0,053
-544,525	-200,000	0,002	0,020
-543,510	-2,475	0,133	-0,068
-542,496	28,890	-0,079	0,049
-541,481	129,903	0,065	0,061
-540,466	-122,262	-0,065	0,008
-539,452	117,735	0,029	0,026
-538,437	-200,000	0,002	-0,015
-537,423	65,097	-0,039	-0,029
-536,408	281,494	-0,076	-0,100
-535,393	369,854	-0,040	0,060
-534,379	-29,496	0,177	0,074
-533,364	800,000	-0,043	-0,091
-532,350	11,973	-0,074	-0,042
-531,335	800,000	0,037	0,087
-530,321	-64,163	0,113	0,034
-529,306	340,616	0,024	0,034
-528,291	-87,253	-0,070	0,016
-527,277	-200,000	0,011	-0,072
-526,262	-200,000	0,008	0,073
-525,248	800,000	0,008	0,024
-524,233	800,000	0,073	-0,151
-523,218	-200,000	0,003	0,128
-522,204	800,000	-0,066	0,158
-521,189	-138,104	-0,047	0,004
-520,175	800,000	0,008	0,025
-519,160	-130,609	-0,062	-0,006
-518,145	31,264	-0,025	-0,016
-517,131	-114,954	0,161	-0,022
-516,116	-200,000	-0,021	-0,073
-515,102	-200,000	-0,002	0,006
-514,087	-167,467	0,081	0,002
-513,072	-200,000	0,011	-0,135
-512,058	-200,000	-0,004	0,056
-511,043	-200,000	0,024	-0,108
-510,029	800,000	0,027	0,065
-509,014	-200,000	0,030	0,139
-507,999	-200,000	-0,008	0,048
-506,985	-31,404	-0,089	-0,036
-505,970	-200,000	0,010	-0,067
-504,956	-200,000	-0,012	-0,087
-503,941	-167,744	0,059	0,002
-502,926	-135,221	-0,058	0,005
-501,912	800,000	0,027	0,059
-500,897	8,785	0,057	0,032
-499,883	90,935	-0,058	-0,048
-498,868	-75,937	-0,064	-0,016
-497,853	30,916	-0,087	-0,055
-496,839	-18,295	0,030	0,014
-495,824	800,000	-0,053	-0,111
-494,810	800,000	0,040	0,086
-493,795	19,279	0,155	-0,091
-492,781	573,947	0,031	0,055
-491,766	341,672	0,070	0,100
-490,751	-39,227	-0,127	-0,049
-489,737	80,291	0,076	0,060
-488,722	74,452	-0,068	0,052
-487,708	-2,920	0,059	-0,030
-486,693	-166,879	0,053	0,002
-485,678	-200,000	-0,016	-0,054
-484,664	38,138	-0,166	0,109
-483,649	9,181	-0,085	-0,047
-482,635	-68,863	-0,098	0,028
-481,620	447,430	0,063	-0,103
-480,605	-200,000	0,029	0,114
-479,591	-27,505	0,204	0,087
-478,576	259,153	0,062	-0,078
-477,562	65,204	-0,065	0,048
-476,547	75,836	0,134	-0,104
-475,532	-94,556	0,087	0,017
-474,518	-200,000	0,005	0,074
-473,503	543,169	-0,040	0,071
-472,489	80,574	0,068	0,054
-471,474	35,921	0,060	0,039
-470,459	62,150	-0,089	0,065
-469,445	69,418	-0,099	-0,075
-468,430	-200,000	0,003	-0,105
-467,416	97,234	-0,033	0,028
-466,401	170,228	0,051	0,053
-465,386	-200,000	-0,009	0,064
-464,372	295,549	-0,042	0,056
-463,357	-200,000	-0,000	-0,069
-462,343	316,497	-0,090	-0,125
-461,328	-62,649	0,089	0,027
-460,313	-200,000	0,012	-0,054
-459,299	-200,000	0,019	0,107
-458,284	800,000	0,045	0,114
-457,270	-200,000	0,024	0,137
-456,255	27,979	-0,141	-0,087
-455,241	800,000	-0,044	-0,091
-454,226	766,968	0,042	0,084
-453,211	409,376	-0,069	0,108
-452,197	78,449	0,062	0,048
-451,182	107,917	0,110	-0,096
-450,168	-200,000	0,018	0,096
-449,153	-19,491	-0,046	0,021
-448,138	540,989	-0,059	-0,103
-447,124	-32,099	-0,167	-0,068
-446,109	-26,371	0,088	0,038
-445,095	504,830	-0,011	0,019
-444,080	800,000	-0,013	0,042
-443,065	800,000	0,037	0,075
-442,051	-31,438	-0,043	-0,018
-441,036	-200,000	0,005	0,031
-440,022	118,166	0,092	-0,083
-439,007	-83,928	-0,026	-0,006
-437,992	-152,922	0,234	-0,012
-436,978	-200,000	0,014	0,147
-435,963	-200,000	0,011	0,088
-434,949	-200,000	-0,004	0,169
-433,934	-189,603	-0,098	0,001
-432,919	11,207	0,024	0,014
-431,905	-200,000	0,017	0,127
-430,890	-108,336	0,140	-0,022
-429,876	463,560	-0,021	0,035
-428,861	44,620	0,046	-0,031
-427,846	-200,000	0,004	-0,031
-426,832	-200,000	-0,010	-0,066
-425,817	56,382	-0,094	-0,067
-424,803	-29,804	-0,055	-0,023
-423,788	651,458	0,061	-0,114
-422,773	-200,000	0,007	0,042
-421,759	160,686	-0,102	0,105
-420,744	-200,000	0,005	-0,037
-419,730	109,948	-0,091	-0,080
-418,715	-125,685	0,033	0,004
-417,701	141,530	-0,046	0,044
-416,686	-200,000	0,006	0,120
-415,671	110,434	-0,020	-0,018
-414,657	-8,538	0,064	-0,031
-413,642	-125,766	0,078	-0,008
-412,628	800,000	-0,030	-0,061
-411,613	-124,041	-0,120	0,014
-410,598	-200,000	0,009	-0,048
-409,584	53,514	0,089	0,063
-408,569	-174,412	-0,050	0,001
-407,555	136,909	-0,049	0,047
-406,540	570,107	-0,043	0,076
-405,525	88,566	-0,067	0,055
-404,511	-4,420	-0,121	0,061
-403,496	-200,000	0,004	0,034
-402,482	-18,835	0,098	0,044
-401,467	800,000	-0,011	0,023
-400,452	-200,000	0,021	0,069
-399,438	-89,230	-0,190	-0,041
-398,423	-200,000	0,023	-0,159
-397,409	13,707	-0,063	0,036
-396,394	-147,694	-0,072	0,004
-395,379	-200,000	0,003	0,053
-394,365	19,286	-0,026	-0,015
-393,350	359,659	-0,021	0,031
-392,336	-200,000	-0,024	-0,086
-391,321	-2,754	-0,133	0,068
-390,306	6,960	0,044	0,024
-389,292	64,542	-0,118	-0,087
-388,277	-200,000	-0,025	0,136
-387,263	18,934	0,016	-0,009
-386,248	800,000	-0,092	0,204
-385,233	800,000	-0,078	0,214
-384,219	300,092	0,044	-0,059
-383,204	153,316	-0,080	0,080
-382,190	-101,262	0,122	0,022
-381,175	-94,470	-0,024	0,005
-380,160	142,228	0,093	-0,091
-379,146	-163,375	0,118	-0,004
-378,131	774,978	0,019	0,039
-377,117	18,902	-0,029	-0,017
-376,102	240,687	-0,086	-0,105
-375,088	-23,184	-0,148	-0,065
-374,073	12,135	0,078	-0,044
-373,058	-53,299	0,103	-0,034
-372,044	-37,296	0,122	-0,048
-371,029	33,687	0,070	-0,044
-370,015	-200,000	-0,016	0,083
-369,000	800,000	-0,035	-0,077
-367,985	-200,000	-0,003	-0,038
-366,971	800,000	0,034	-0,088
-365,956	-45,992	0,086	0,031
-364,942	800,000	-0,017	-0,045
-363,927	-140,399	0,129	-0,010
-362,912	-74,130	0,029	-0,008
-361,898	-97,050	0,040	-0,007
-360,883	111,530	-0,087	-0,077
-359,869	-200,000	0,025	-0,092
-358,854	-200,000	0,012	0,161
-357,839	152,085	-0,070	-0,070
-356,825	-200,000	0,014	-0,206
-355,810	-140,876	0,052	-0,004
-354,796	464,200	0,018	-0,030
-353,781	509,600	0,036	-0,062
-352,766	512,707	0,070	-0,119
-351,752	-200,000	0,009	-0,111
-350,737	-200,000	-0,022	0,127
-349,723	-200,000	0,004	-0,038
-348,708	-200,000	-0,002	-0,014
-347,693	800,000	-0,039	0,103
-346,679	-194,450	-0,047	0,000
-345,664	160,526	-0,088	-0,090
-344,650	-60,490	-0,132	0,041
-343,635	-200,000	-0,024	0,109
-342,620	-200,000	0,038	0,142
-341,606	-121,844	0,147	0,018
-340,591	-200,000	0,021	-0,077
-339,577	748,939	0,041	0,081
-338,562	465,905	-0,067	-0,111
-337,548	220,837	0,119	-0,140
-336,533	800,000	0,055	0,126
-335,518	258,333	0,086	0,108
-334,504	24,074	0,073	0,044
-333,489	-84,998	-0,074	-0,017
-332,475	-200,000	-0,009	-0,049
-331,460	-200,000	0,013	-0,045
-330,445	-200,000	0,010	0,046
-329,431	-129,669	-0,041	0,004
-328,416	-17,233	0,130	0,060
-327,402	30,038	0,113	0,070
-326,387	-200,000	0,045	0,191
-325,372	33,421	-0,131	-0,083
-324,358	-69,337	0,087	0,024
-323,343	484,235	-0,028	0,047
-322,329	-200,000	-0,014	0,072
-321,314	-138,079	0,086	0,007
-320,299	210,813	0,036	0,041
-319,285	-25,993	0,080	0,034
-318,270	-87,487	-0,154	0,034
-317,256	-200,000	-0,013	-0,081
-316,241	-200,000	-0,007	-0,092
-315,226	129,056	0,060	-0,055
-314,212	-29,438	0,015	0,006
-313,197	110,846	0,034	-0,030
-312,183	451,968	-0,044	-0,071
-311,168	-122,710	-0,067	0,008
-310,153	-200,000	0,048	-0,168
-309,139	-83,344	-0,080	0,019
-308,124	-200,000	-0,000	0,041
-307,110	111,860	-0,025	0,022
-306,095	-174,477	0,066	0,001
-305,080	73,790	-0,049	-0,037
-304,066	271,899	0,103	-0,132
-303,051	7,503	-0,031	-0,017
-302,037	354,910	0,053	0,078
-301,022	-200,000	-0,012	0,117
-300,008	800,000	0,051	-0,129
-298,993	238,587	0,037	0,046
-297,978	173,344	-0,042	0,045
-296,964	211,838	-0,024	0,027
-295,949	-4,673	0,063	-0,032
-294,935	800,000	0,053	-0,168
-293,920	80,567	0,030	0,024
-292,905	-3,588	-0,074	0,038
-291,891	-158,426	0,043	0,002
-290,876	184,437	-0,102	0,110
-289,862	27,797	-0,056	-0,034
-288,847	-15,025	-0,145	-0,068
-287,832	-15,045	-0,141	-0,066
-286,818	133,587	-0,020	0,018
-285,803	800,000	0,045	-0,108
-284,789	79,736	0,034	0,027
-283,774	149,634	0,099	0,098
-282,759	-200,000	0,012	-0,086
-281,745	-139,388	-0,257	-0,020
-280,730	800,000	-0,029	-0,083
-279,716	-29,393	0,058	0,024
-278,701	403,081	0,062	0,095
-277,686	-16,874	-0,084	0,038
-276,672	440,248	-0,081	0,129
-275,657	800,000	0,021	-0,052
-274,643	-200,000	0,037	-0,208
-273,628	-200,000	-0,006	0,044
-272,613	-119,984	0,220	0,027
-271,599	-200,000	-0,006	-0,132
-270,584	-6,236	0,051	0,025
-269,570	296,828	-0,024	0,032
-268,555	-48,991	-0,024	0,008
-267,540	414,678	-0,059	0,091
-266,526	113,069	-0,045	-0,039
-265,511	800,000	-0,032	-0,085
-264,497	-200,000	0,015	-0,097
-263,482	102,772	-0,005	0,004
-262,467	-23,777	0,072	0,031
-261,453	800,000	-0,024	0,051
-260,438	717,947	-0,061	0,118
-259,424	-200,000	0,010	0,051
-258,409	479,400	-0,054	-0,090
-257,395	800,000	-0,064	0,141
-256,380	-200,000	0,034	-0,122
-255,365	142,756	0,026	0,026
-254,351	-200,000	-0,016	0,081
-253,336	168,103	0,015	-0,016
-252,322	-200,000	0,009	0,084
-251,307	800,000	0,043	0,124
-250,292	-200,000	-0,003	-0,105
-249,278	69,721	-0,058	-0,043
-248,263	-200,000	-0,000	0,048
-247,249	800,000	-0,028	-0,089
-246,234	56,234	-0,079	0,056
-245,219	38,089	-0,135	0,087
-244,205	-5,768	-0,028	0,014
-243,190	10,884	0,074	0,041
-242,176	557,982	-0,056	0,099
-241,161	-15,828	0,156	0,072
-240,146	800,000	-0,021	-0,068
-239,132	-83,732	0,048	-0,011
-238,117	81,858	0,013	-0,010
-237,103	147,993	0,058	-0,057
-236,088	800,000	0,025	-0,060
-235,073	-200,000	-0,037	0,147
-234,059	-155,034	-0,015	0,001
-233,044	-43,754	0,124	-0,045
-232,030	-72,942	0,059	-0,016
-231,015	-200,000	-0,013	-0,072
-230,000	-99,503	0,038	0,007
-228,986	800,000	0,032	0,065
-227,971	29,743	0,089	0,055
-226,957	-200,000	0,007	-0,085
-225,942	-200,000	0,005	-0,172
-224,927	242,813	0,087	0,106
-223,913	201,122	-0,070	0,078
-222,898	-200,000	0,023	0,101
-221,884	-132,369	-0,031	0,003
-220,869	-134,028	0,143	-0,013
-219,855	217,348	-0,040	0,047
-218,840	-23,948	0,181	-0,078
-217,825	800,000	-0,032	-0,067
-216,811	130,844	-0,007	-0,006
-215,796	249,265	0,034	-0,042
-214,782	109,003	0,060	-0,052
-213,767	151,482	0,019	0,019
-212,752	125,960	0,093	0,085
-211,738	-187,888	0,030	0,000
-210,723	-200,000	0,001	-0,071
-209,709	126,753	-0,074	0,068
-208,694	-27,618	-0,105	-0,044
-207,679	-200,000	0,001	-0,029
-206,665	21,461	0,067	0,039
-205,650	-114,766	0,039	-0,005
-204,636	-47,901	-0,065	-0,023
-203,621	-145,048	-0,059	0,004
-202,606	-200,000	-0,010	-0,132
-201,592	330,633	-0,073	-0,102
-200,577	493,138	-0,022	0,038
-199,563	-200,000	-0,030	0,136
-198,548	153,524	0,017	-0,017
-197,533	173,636	0,025	-0,026
-196,519	-200,000	0,000	0,091
-195,504	800,000	-0,042	-0,094
-194,490	-174,516	0,114	-0,002
-193,475	125,822	-0,097	0,089
-192,460	109,496	0,125	0,109
-191,446	-99,743	0,054	-0,010
-190,431	-9,279	-0,019	0,009
-189,417	82,997	-0,072	0,057
-188,402	-200,000	-0,016	0,095
-187,387	-200,000	-0,003	-0,044
-186,373	13,024	-0,031	-0,017
-185,358	-200,000	0,003	-0,022
-184,344	-81,753	0,132	0,031
-183,329	-97,309	0,143	0,027
-182,315	-200,000	0,016	-0,061
-181,300	-200,000	0,003	-0,075
-180,285	-200,000	-0,028	-0,107
-179,271	358,409	0,087	-0,126
-178,256	-200,000	-0,001	0,102
-177,242	45,473	0,035	0,023
-176,227	-126,760	-0,089	0,009
-175,212	-131,910	-0,092	0,009
-174,198	13,134	-0,114	-0,064
-173,183	-200,000	-0,026	-0,214
-172,169	-101,240	-0,123	-0,022
-171,154	91,838	-0,072	0,059
-170,139	-200,000	-0,005	-0,038
-169,125	-200,000	0,009	0,053
-168,110	119,870	-0,071	-0,064
-167,096	130,136	0,044	-0,041
-166,081	131,747	0,035	-0,033
-165,066	-26,665	-0,094	-0,040
-164,052	22,251	-0,080	-0,047
-163,037	-89,111	0,078	0,017
-162,023	743,660	0,099	0,193
-161,008	781,466	0,020	0,039
-159,993	514,331	0,049	-0,084
-158,979	-103,547	-0,007	-0,001
-157,964	800,000	0,032	-0,094
-156,950	31,994	-0,039	0,024
-155,935	286,182	-0,043	-0,056
-154,920	102,576	0,067	0,057
-153,906	-74,345	-0,020	-0,005
-152,891	800,000	-0,021	0,055
-151,877	-200,000	-0,001	0,107
-150,862	-200,000	-0,019	-0,070
-149,847	-91,568	-0,273	0,056
-148,833	800,000	-0,030	-0,079
-147,818	800,000	0,070	0,140
-146,804	75,190	-0,100	0,076
-145,789	57,531	-0,065	-0,046
-144,775	800,000	0,015	-0,038
-143,760	-19,213	0,013	-0,006
-142,745	49,416	-0,100	-0,068
-141,731	-200,000	-0,002	0,067
-140,716	-200,000	0,030	0,121
-139,702	-196,427	-0,100	0,000
-138,687	585,247	0,025	-0,045
-137,672	224,535	0,042	-0,050
-136,658	102,506	-0,058	-0,049
-135,643	-200,000	-0,019	-0,089
-134,629	-16,863	0,028	-0,013
-133,614	183,704	-0,072	0,077
-132,599	-200,000	-0,004	-0,059
-131,585	-134,555	0,103	0,009
-130,570	597,695	-0,042	0,075
-129,556	800,000	0,004	-0,009
-128,541	634,333	0,017	-0,031
-127,526	-200,000	0,001	-0,047
-126,512	-138,341	0,114	-0,009
-125,497	22,057	-0,100	0,059
-124,483	10,169	0,091	0,050
-123,468	316,260	0,051	-0,070
-122,453	202,283	-0,090	-0,101
-121,439	407,577	-0,039	-0,059
-120,424	-200,000	-0,017	-0,145
-119,410	284,643	-0,046	0,060
-118,395	-16,621	0,082	-0,037
-117,380	-58,924	0,132	-0,041
-116,366	157,322	0,049	-0,049
-115,351	-200,000	-0,003	-0,035
-114,337	-200,000	0,023	-0,188
-113,322	17,670	0,035	-0,020
-112,307	-44,799	0,119	0,043
-111,293	-200,000	-0,001	-0,065
-110,278	-200,000	-0,030	0,106
-109,264	-0,405	0,139	0,071
-108,249	-200,000	0,045	0,216
-107,234	156,140	-0,027	-0,027
-106,220	-200,000	0,018	0,102
-105,205	688,667	0,036	0,069
-104,191	800,000	-0,049	0,139
-103,176	800,000	0,072	0,152
-102,162	-138,256	0,139	0,011
-101,147	-200,000	-0,005	-0,084
-100,132	800,000	-0,035	-0,104
-99,118	-34,381	-0,125	0,050
-98,103	443,319	0,017	-0,027
-97,089	-200,000	-0,029	0,150
-96,074	800,000	0,039	0,084
-95,059	173,974	-0,084	0,087
-94,045	-200,000	0,019	-0,097
-93,030	-23,866	-0,114	0,049
-92,016	-200,000	0,011	-0,048
-91,001	-200,000	-0,000	-0,061
-89,986	66,772	0,107	0,079
-88,972	800,000	0,026	-0,055
-87,957	-200,000	-0,003	0,141
-86,943	800,000	-0,041	0,087
-85,928	-200,000	-0,054	-0,216
-84,913	670,260	-0,038	-0,072
-83,899	-200,000	0,007	0,037
-82,884	-69,141	0,102	-0,028
-81,870	66,197	-0,118	0,086
-80,855	-36,735	0,259	-0,100
-79,840	396,047	-0,029	0,044
-78,826	-67,097	-0,101	-0,028
-77,811	290,964	-0,064	-0,085
-76,797	800,000	0,031	0,095
-75,782	-200,000	-0,002	-0,079
-74,767	309,322	0,046	0,062
-73,753	125,071	0,047	-0,043
-72,738	3,020	-0,026	-0,014
-71,724	-200,000	-0,023	-0,150
-70,709	-152,787	-0,269	-0,014
-69,694	-200,000	-0,007	-0,036
-68,680	-32,911	-0,063	0,025
-67,665	9,206	0,099	-0,054
-66,651	-10,148	-0,042	0,020
-65,636	-200,000	0,038	-0,136
-64,622	-200,000	0,004	-0,041
-63,607	-71,981	0,035	-0,009
-62,592	-200,000	0,012	-0,052
-61,578	202,548	-0,037	-0,042
-60,563	124,547	-0,048	0,044
-59,549	-200,000	-0,034	0,123
-58,534	-76,951	-1,671	-0,419
-57,519	639,293	-0,704	-1,299
-56,505	-200,000	-1,093	-4,626
-55,490	-49,548	0,801	-0,274
-54,476	800,000	5,101	12,052
-53,461	-200,000	15,147	264,005
-52,446	800,000	700,856	2220,936
-51,432	556,616	1623,018	2836,334
-50,417	119,575	1628,535	1456,991
-49,403	78,031	1283,502	987,952
-48,388	37,307	1023,256	653,625
-47,373	22,508	983,428	579,580
-46,359	21,562	972,671	570,123
-45,344	20,256	968,409	563,336
-44,330	20,270	967,072	562,584
-43,315	20,056	965,627	561,024
-42,300	20,084	964,475	560,422
-41,286	20,092	963,612	559,924
-40,271	20,026	962,427	559,000
-39,257	20,065	961,680	558,671
-38,242	20,090	960,721	558,171
-37,227	20,056	959,975	557,605
-36,213	20,016	959,042	556,912
-35,198	20,061	958,015	556,438
-34,184	20,016	957,424	555,930
-33,169	20,044	956,469	555,441
-32,154	20,078	955,619	555,038
-31,140	20,047	954,645	554,349
-30,125	20,052	953,922	553,924
-29,111	20,045	953,108	553,406
-28,096	20,092	952,441	553,148
-27,082	20,032	951,833	552,580
-26,067	20,077	950,866	552,142
-25,052	20,071	950,092	551,651
-24,038	20,027	949,531	551,163
-23,023	20,050	948,793	550,785
-22,009	20,039	948,194	550,379
-20,994	20,084	947,710	550,221
-19,979	20,006	947,278	549,698
-18,965	20,001	946,462	549,188
-17,950	20,013	945,824	548,836
-16,936	19,927	945,175	548,164
-15,921	19,935	944,676	547,876
-14,906	19,924	943,781	547,301
-13,892	19,892	943,198	546,840
-12,877	19,879	942,595	546,428
-11,863	19,850	942,015	545,977
-10,848	19,858	941,534	545,702
-9,833	20,030	940,937	545,880
-8,819	19,949	940,369	545,270
-7,804	19,951	939,678	544,855
-6,790	19,932	939,179	544,483
-5,775	19,972	938,258	544,056
-4,760	19,941	937,978	543,775
-3,746	19,948	937,143	543,292
-2,731	19,773	936,660	542,436
-1,717	19,774	935,791	541,913
-0,702	19,758	935,126	541,457
0,313	19,469	934,518	541,011
1,327	22,538	932,763	549,593
2,342	31,652	793,946	491,979
3,356	29,164	450,787	275,571
4,371	0,061	295,710	151,601
5,386	-4,071	277,072	138,103
6,400	-5,566	271,353	133,846
7,415	-5,915	269,026	132,363
8,429	-5,833	267,690	131,770
9,444	-5,758	267,001	131,488
10,459	-5,809	266,078	130,975
11,473	-5,983	265,516	130,527
12,488	-6,233	265,109	130,088
13,502	-6,456	264,571	129,610
14,517	-6,153	264,101	129,643
15,531	-6,394	263,595	129,165
16,546	-6,480	263,190	128,877
17,561	-6,464	262,980	128,776
18,575	-6,257	262,567	128,750
19,590	-6,393	262,110	128,392
20,604	-6,428	261,887	128,240
21,619	-6,523	261,636	128,020
22,634	-6,530	261,237	127,807
23,648	-6,452	260,781	127,643
24,663	-6,583	260,637	127,444
25,677	-6,516	260,413	127,383
26,692	-6,543	260,224	127,254
27,707	-6,563	259,813	127,025
28,721	-6,616	259,658	126,890
29,736	-6,665	259,348	126,684
30,750	-6,593	259,020	126,576
31,765	-6,694	258,782	126,359
32,780	-6,507	258,499	126,375
33,794	-6,761	258,438	126,109
34,809	-6,798	258,170	125,934
35,823	-6,634	257,935	125,953
36,838	-6,849	257,711	125,643
37,853	-6,763	257,478	125,594
38,867	-6,677	257,178	125,512
39,882	-6,686	256,862	125,338
40,896	-6,652	256,690	125,274
41,911	-6,742	256,538	125,109
42,926	-6,911	256,271	124,819
43,940	-7,047	255,989	124,551
44,955	-6,784	255,722	124,641
45,969	-6,948	255,673	124,463
46,984	-7,105	255,312	124,138
47,999	-7,272	254,853	123,758
49,013	-7,312	254,737	123,655
50,028	-7,555	254,456	123,296
51,042	-7,753	254,115	122,947
52,057	-7,628	254,082	123,029
53,071	-7,599	253,820	122,916
54,086	-7,395	253,530	122,942
55,101	-7,306	253,484	122,987
56,115	-7,123	253,381	123,084
57,130	-6,684	253,353	123,440
58,144	-6,335	253,215	123,665
59,159	-6,275	252,883	123,544
60,174	-6,310	252,701	123,414
61,188	-6,290	252,424	123,285
62,203	-6,367	252,421	123,206
63,217	-6,438	252,105	122,979
64,232	-6,529	251,950	122,814
65,247	-6,384	251,749	122,830
66,261	-6,480	251,515	122,623
67,276	-6,893	251,271	122,138
68,290	-6,866	250,854	121,947
69,305	-7,064	250,710	121,696
70,320	-7,078	250,493	121,568
71,334	-6,667	250,506	121,916
72,349	-6,515	250,354	121,961
73,363	-6,551	250,315	121,901
74,378	-6,414	249,873	121,792
75,393	-6,439	249,700	121,675
76,407	-6,494	249,469	121,505
77,422	-6,552	249,274	121,350
78,436	-6,622	249,113	121,201
79,451	-6,613	248,927	121,108
80,466	-6,586	248,443	120,884
81,480	-6,776	248,153	120,570
82,495	-6,973	248,101	120,368
83,509	-6,663	247,853	120,499
84,524	-6,877	247,773	120,268
85,539	-6,965	247,517	120,059
86,553	-7,091	247,466	119,917
87,568	-6,807	247,128	119,983
88,582	-7,031	247,092	119,765
89,597	-6,875	246,889	119,787
90,611	-6,821	246,569	119,667
91,626	-6,528	246,525	119,882
92,641	-6,466	246,318	119,822
93,655	-6,682	246,005	119,478
94,670	-6,706	246,001	119,445
95,684	-6,572	245,725	119,413
96,699	-6,544	245,551	119,341
97,714	-6,828	245,441	119,039
98,728	-6,971	245,202	118,793
99,743	-7,032	244,978	118,623
100,757	-6,994	244,725	118,521
101,772	-6,813	244,611	118,607
102,787	-6,837	244,409	118,478
103,801	-6,509	244,108	118,595
104,816	-6,616	244,106	118,494
105,830	-6,700	244,045	118,384
106,845	-6,437	243,909	118,526
107,860	-6,589	243,821	118,347
108,874	-6,751	243,369	117,983
109,889	-6,789	243,266	117,891
110,903	-6,771	243,111	117,820
111,918	-6,515	242,744	117,843
112,933	-6,779	242,806	117,645
113,947	-6,542	242,578	117,719
114,962	-6,627	242,406	117,555
115,976	-6,589	242,074	117,415
116,991	-6,667	241,902	117,257
118,006	-6,643	241,929	117,279
119,020	-6,700	241,736	117,129
120,035	-6,550	241,574	117,162
121,049	-6,384	241,246	117,130
122,064	-6,354	241,139	117,092
123,079	-6,643	240,902	116,729
124,093	-6,785	240,657	116,484
125,108	-6,946	240,490	116,261
126,122	-6,977	240,274	116,121
127,137	-7,231	240,144	115,839
128,151	-7,291	240,100	115,759
129,166	-6,808	239,755	115,977
130,181	-6,908	239,617	115,818
131,195	-7,006	239,414	115,630
132,210	-6,678	239,278	115,820
133,224	-6,459	239,076	115,891
134,239	-6,752	239,091	115,649
135,254	-6,485	238,911	115,769
136,268	-6,841	238,664	115,350
137,283	-7,037	238,343	115,025
138,297	-7,046	238,092	114,887
139,312	-6,871	237,877	114,915
140,327	-6,863	237,894	114,919
141,341	-6,444	238,014	115,305
142,356	-6,184	237,705	115,356
143,370	-6,100	237,613	115,369
144,385	-6,170	237,418	115,207
145,400	-6,141	237,246	115,137
146,414	-6,236	236,962	114,912
147,429	-6,370	236,908	114,768
148,443	-6,262	236,628	114,709
149,458	-6,298	236,583	114,648
150,473	-6,186	236,391	114,635
151,487	-6,374	236,229	114,396
152,502	-6,186	236,075	114,461
153,516	-6,274	235,896	114,293
154,531	-6,403	235,840	114,153
155,546	-6,149	235,455	114,159
156,560	-6,468	235,266	113,803
157,575	-6,539	235,209	113,709
158,589	-6,265	234,896	113,766
159,604	-6,146	234,834	113,820
160,619	-6,039	234,698	113,829
161,633	-6,217	234,550	113,605
162,648	-6,105	234,340	113,583
163,662	-6,215	234,352	113,491
164,677	-6,171	234,025	113,357
165,692	-6,252	233,786	113,167
166,706	-6,045	233,723	113,291
167,721	-6,237	233,729	113,132
168,735	-6,037	233,507	113,173
169,750	-6,296	233,528	112,967
170,764	-6,153	233,198	112,910
171,779	-5,974	233,030	112,961
172,794	-6,096	232,797	112,741
173,808	-6,249	232,552	112,492
174,823	-6,739	232,210	111,931
175,837	-6,911	232,150	111,757
176,852	-6,391	232,211	112,185
177,867	-6,235	232,079	112,234
178,881	-6,179	232,082	112,269
179,896	-6,177	231,794	112,122
180,910	-6,001	231,735	112,222
181,925	-6,235	231,576	111,951
182,940	-6,125	231,429	111,956
183,954	-6,172	231,153	111,776
184,969	-5,894	230,972	111,896
185,983	-5,858	230,961	111,909
186,998	-5,952	230,697	111,697
188,013	-6,022	230,665	111,617
189,027	-5,874	230,461	111,624
190,042	-5,982	230,238	111,422
191,056	-5,816	230,113	111,481
192,071	-5,925	229,849	111,258
193,086	-6,040	229,845	111,157
194,100	-5,582	229,684	111,425
195,115	-5,718	229,498	111,219
196,129	-5,892	229,412	111,033
197,144	-2,654	230,382	114,013
198,159	1,120	231,591	117,548
199,173	3,572	232,189	119,758
200,188	3,626	232,027	119,706
201,202	3,537	231,953	119,587
202,217	3,884	231,723	119,728
203,232	4,274	231,581	119,947
204,246	4,183	231,503	119,826
205,261	4,414	231,384	119,933
206,275	4,638	231,210	120,006
207,290	4,544	231,097	119,863
208,304	4,475	230,876	119,685
209,319	4,465	230,773	119,613
210,334	4,451	230,723	119,566
211,348	4,238	230,378	119,212
212,363	3,965	230,065	118,828
213,377	3,584	229,824	118,399
214,392	3,740	229,648	118,418
215,407	3,802	229,625	118,444
216,421	3,795	229,522	118,375
217,436	3,792	229,298	118,246
218,450	3,574	229,072	117,951
219,465	3,366	228,825	117,654
220,480	3,391	228,821	117,660
221,494	3,370	228,643	117,542
222,509	3,593	228,639	117,701
223,523	3,596	228,446	117,593
224,538	3,505	228,244	117,409
225,553	3,616	228,102	117,410
226,567	3,572	228,023	117,326
227,582	3,942	227,824	117,496
228,596	4,035	227,659	117,471
229,611	3,744	227,584	117,200
230,626	3,645	227,241	116,937
231,640	3,315	227,270	116,690
232,655	3,781	227,228	117,013
233,669	4,210	227,127	117,277
234,684	4,254	227,054	117,263
235,699	4,014	226,730	116,902
236,713	3,754	226,505	116,579
237,728	3,646	226,260	116,360
238,742	3,643	226,121	116,277
239,757	3,628	226,053	116,220
240,772	3,609	225,821	116,076
241,786	3,508	225,742	115,948
242,801	3,934	225,504	116,137
243,815	4,019	225,511	116,195
244,830	4,040	225,484	116,187
245,844	3,828	225,151	115,845
246,859	3,804	224,990	115,734
247,874	3,846	224,884	115,700
248,888	4,063	224,803	115,812
249,903	3,863	224,481	115,485
250,917	3,641	224,485	115,310
251,932	3,542	224,356	115,159
252,947	3,721	224,089	115,146
253,961	3,503	223,891	114,871
254,976	3,528	223,717	114,790
255,990	3,857	223,691	115,013
257,005	3,960	223,564	115,014
258,020	3,763	223,644	114,898
259,034	4,111	223,455	115,050
260,049	3,885	223,309	114,796
261,063	4,016	222,998	114,724
262,078	3,977	223,042	114,708
263,093	3,932	222,863	114,571
264,107	4,057	222,583	114,510
265,122	4,014	222,543	114,448
266,136	4,030	222,430	114,391
267,151	3,742	222,338	114,119
268,166	3,670	222,048	113,907
269,180	3,574	221,605	113,598
270,195	3,624	221,641	113,644
271,209	3,418	221,520	113,419
272,224	3,603	221,366	113,467
273,239	3,772	221,336	113,567
274,253	3,643	221,153	113,367
275,268	3,627	220,810	113,170
276,282	3,400	220,807	112,990
277,297	3,526	220,474	112,903
278,312	3,332	220,556	112,792
279,326	3,614	220,379	112,899
280,341	3,754	220,167	112,883
281,355	3,637	220,170	112,788
282,370	3,797	219,970	112,793
283,384	3,319	219,807	112,348
284,399	3,173	219,623	112,138
285,414	3,435	219,372	112,192
286,428	3,491	219,410	112,242
287,443	4,222	219,260	112,690
288,457	3,643	219,239	112,245
289,472	3,666	219,028	112,144
290,487	3,136	218,704	111,582
291,501	3,230	218,515	111,544
292,516	3,293	218,480	111,562
293,530	3,401	218,371	111,575
294,545	3,173	218,211	111,318
295,560	3,491	218,034	111,449
296,574	3,604	217,994	111,500
297,589	3,528	217,835	111,354
298,603	3,650	217,737	111,382
299,618	3,591	217,624	111,272
300,633	3,736	217,537	111,323
301,647	3,867	217,387	111,331
302,662	3,811	217,282	111,226
303,676	3,702	217,184	111,087
304,691	3,833	216,912	111,033
305,706	4,306	216,704	111,258
306,720	3,777	216,589	110,808
307,735	3,530	216,415	110,530
308,749	3,375	216,420	110,411
309,764	3,823	216,283	110,654
310,779	4,169	216,029	110,763
311,793	3,866	215,906	110,473
312,808	3,791	215,793	110,351
313,822	3,705	215,545	110,153
314,837	3,732	215,506	110,143
315,852	3,764	215,330	110,066
316,866	3,768	215,202	109,993
317,881	3,904	215,154	110,056
318,895	3,904	215,018	109,977
319,910	3,598	214,864	109,670
320,925	3,577	214,573	109,496
321,939	3,339	214,368	109,212
322,954	3,151	214,396	109,082
323,968	3,668	214,425	109,456
324,983	3,787	214,333	109,485
325,997	3,926	214,119	109,464
327,012	3,765	213,864	109,210
328,027	3,628	213,814	109,077
329,041	4,158	213,756	109,414
330,056	4,336	213,631	109,467
331,070	3,681	213,433	108,891
332,085	3,397	213,233	108,578
333,100	3,540	212,960	108,531
334,114	3,659	212,935	108,593
335,129	3,711	212,747	108,524
336,143	3,557	212,661	108,361
337,158	3,692	212,421	108,325
338,173	3,778	212,243	108,285
339,187	3,640	212,045	108,077
340,202	3,461	211,913	107,874
341,216	3,293	211,765	107,671
342,231	3,531	211,653	107,771
343,246	3,357	211,559	107,592
344,260	3,418	211,607	107,650
345,275	3,379	211,460	107,538
346,289	3,917	211,243	107,795
347,304	3,862	211,171	107,711
348,319	3,563	211,078	107,444
349,333	3,556	210,858	107,317
350,348	3,752	210,843	107,437
351,362	3,987	210,655	107,496
352,377	3,824	210,532	107,310
353,392	3,812	210,406	107,228
354,406	3,909	210,143	107,152
355,421	195,389	1340,275	1426,999
356,435	156,030	1478,040	1427,063
