DTS Sentinel unit serial number:	SN410029Multiplexer serial number:	ORYXHardware model number:	OX2-SRSoftware version number:	ORYX F/W v4,00 Oryx Data Collector v3.7.2.0data status	okinstallation	B6 Nyhavnadifferential loss correction	single-endedforward channel	channel 2reverse channel	N/Adate	2023/12/09time	14:45:08forward acquisition time	300,00reverse acquisition time	0,00gamma	499,1914k internal	0,3133k external	0,3133temperature offset calibration	1,0000default loss term (dB/km)	0,3820temperature slope calibration	1,0000multiplexer offset coefficient	1,0000multiplexer slope coefficient	1,0000fibre end	0,00T internal ref (°C)	20,56T ext. ref 1 (°C)	4,32T ext. ref 2 (°C)	4,33length (m)	temperature (°C)	Stokes	anti-Stokes-744,400	464,596	-0,067	-0,111
-743,385	-101,132	-0,122	-0,022
-742,371	-4,477	0,093	0,048
-741,356	-56,194	-0,211	0,069
-740,342	25,333	0,075	0,046
-739,327	3,707	-0,224	0,121
-738,312	152,880	0,077	-0,078
-737,298	26,874	-0,253	0,157
-736,283	120,588	0,075	-0,069
-735,269	-13,205	-0,177	0,085
-734,254	800,000	0,013	0,042
-733,239	-78,763	-0,396	-0,100
-732,225	-50,244	0,066	-0,023
-731,210	-200,000	-0,005	0,034
-730,196	-134,352	-0,106	0,010
-729,181	800,000	-0,020	-0,063
-728,167	98,487	-0,037	0,032
-727,152	800,000	-0,013	0,042
-726,137	-149,328	-0,203	0,012
-725,123	800,000	0,046	-0,137
-724,108	132,933	-0,099	-0,095
-723,094	-92,509	-0,014	-0,003
-722,079	-200,000	-0,037	-0,130
-721,064	13,907	0,084	-0,048
-720,050	800,000	-0,025	-0,081
-719,035	-200,000	0,008	0,064
-718,021	-200,000	-0,012	0,104
-717,006	-22,175	-0,068	-0,031
-715,991	-38,609	-0,112	-0,044
-714,977	279,256	-0,086	-0,114
-713,962	-200,000	-0,030	-0,114
-712,948	800,000	-0,045	-0,100
-711,933	-138,182	-0,226	0,018
-710,918	-114,926	-0,067	-0,009
-709,904	-200,000	-0,018	-0,070
-708,889	233,289	0,015	-0,019
-707,875	502,647	-0,043	-0,073
-706,860	59,268	0,093	-0,068
-705,845	-8,745	-0,098	-0,049
-704,831	-79,351	0,050	-0,012
-703,816	-200,000	-0,010	-0,087
-702,802	800,000	0,030	-0,077
-701,787	-200,000	-0,015	-0,129
-700,772	-200,000	0,002	-0,007
-699,758	800,000	-0,045	0,126
-698,743	123,838	0,034	0,032
-697,729	132,731	0,099	0,095
-696,714	481,858	0,032	-0,055
-695,699	45,182	-0,100	0,068
-694,685	243,406	-0,078	-0,097
-693,670	74,905	0,122	-0,095
-692,656	800,000	0,027	-0,078
-691,641	800,000	0,008	0,023
-690,627	-200,000	-0,021	0,089
-689,612	-156,536	-0,120	-0,005
-688,597	-200,000	-0,010	-0,048
-687,583	-200,000	-0,033	-0,131
-686,568	-200,000	0,050	-0,000
-685,554	-139,478	-0,081	0,006
-684,539	-200,000	0,020	0,090
-683,524	-200,000	-0,016	0,065
-682,510	-183,527	0,216	0,003
-681,495	171,434	-0,095	-0,101
-680,481	-200,000	0,020	-0,098
-679,466	800,000	-0,011	0,024
-678,451	110,073	-0,085	-0,076
-677,437	-200,000	0,005	-0,041
-676,422	681,071	-0,044	0,085
-675,408	110,385	-0,068	0,060
-674,393	-23,110	-0,019	-0,009
-673,378	-125,159	-0,085	-0,010
-672,364	-131,239	0,058	-0,006
-671,349	16,235	0,083	-0,048
-670,335	-112,981	0,011	0,002
-669,320	800,000	-0,041	-0,093
-668,305	126,710	0,113	0,106
-667,291	-120,277	0,065	-0,008
-666,276	-11,187	0,032	0,016
-665,262	10,540	-0,153	0,086
-664,247	-200,000	0,008	-0,066
-663,232	800,000	0,045	-0,115
-662,218	80,011	-0,053	0,042
-661,203	-200,000	-0,026	-0,129
-660,189	424,034	-0,042	-0,067
-659,174	29,310	0,066	0,042
-658,159	438,233	-0,095	-0,154
-657,145	-200,000	0,018	-0,108
-656,130	512,665	-0,066	-0,115
-655,116	58,757	0,079	0,057
-654,101	383,960	0,067	0,102
-653,086	-77,431	0,082	0,021
-652,072	-15,187	-0,091	-0,043
-651,057	474,410	-0,015	-0,026
-650,043	69,852	-0,068	0,051
-649,028	-200,000	-0,025	-0,091
-648,014	122,437	0,075	-0,069
-646,999	800,000	0,021	0,044
-645,984	800,000	0,040	0,101
-644,970	-200,000	-0,008	-0,030
-643,955	-200,000	-0,016	-0,121
-642,941	65,086	0,025	-0,019
-641,926	800,000	-0,050	-0,114
-640,911	-56,353	0,207	-0,068
-639,897	-64,675	-0,071	-0,021
-638,882	23,535	0,048	0,029
-637,868	38,983	-0,032	0,021
-636,853	-43,684	0,047	0,017
-635,838	-200,000	-0,028	-0,125
-634,824	141,423	-0,026	-0,025
-633,809	148,642	0,104	-0,104
-632,795	285,805	0,075	0,100
-631,780	66,217	-0,057	0,043
-630,765	-200,000	0,021	-0,089
-629,751	126,497	-0,021	0,020
-628,736	800,000	-0,047	0,099
-627,722	295,120	-0,096	0,130
-626,707	-130,288	-0,180	0,018
-625,692	-123,487	0,052	0,006
-624,678	-80,774	-0,085	-0,021
-623,663	42,327	-0,121	-0,081
-622,649	335,418	-0,056	-0,081
-621,634	30,548	-0,057	0,036
-620,619	-85,037	-0,118	0,027
-619,605	-159,255	0,077	-0,003
-618,590	-200,000	-0,010	0,152
-617,576	-22,163	-0,113	-0,050
-616,561	179,663	-0,118	-0,128
-615,546	-150,346	-0,098	0,005
-614,532	-86,367	0,050	0,011
-613,517	313,323	0,101	-0,140
-612,503	-11,899	0,044	-0,021
-611,488	800,000	0,028	0,084
-610,474	-200,000	-0,002	-0,096
-609,459	84,732	-0,025	0,020
-608,444	-200,000	-0,014	-0,062
-607,430	-151,503	0,100	-0,005
-606,415	-94,838	0,102	0,020
-605,401	800,000	0,025	0,059
-604,386	-116,178	-0,097	-0,013
-603,371	800,000	0,047	-0,099
-602,357	-200,000	0,001	0,024
-601,342	-40,561	-0,114	-0,044
-600,328	-130,455	-0,061	0,006
-599,313	-200,000	-0,022	-0,283
-598,298	-124,126	0,094	0,011
-597,284	203,002	-0,019	-0,022
-596,269	-200,000	-0,049	0,000
-595,255	-21,035	-0,054	-0,025
-594,240	-105,257	0,094	-0,016
-593,225	134,574	-0,053	0,051
-592,211	99,650	-0,103	0,088
-591,196	-88,343	0,090	-0,020
-590,182	-19,370	0,087	-0,040
-589,167	429,466	0,029	-0,046
-588,152	800,000	-0,046	-0,100
-587,138	-99,175	0,094	-0,017
-586,123	800,000	0,038	-0,110
-585,109	-200,000	0,000	0,050
-584,094	21,513	-0,150	0,090
-583,079	76,113	0,085	-0,066
-582,065	-108,600	-0,064	-0,010
-581,050	158,980	0,081	0,083
-580,036	451,587	-0,084	-0,137
-579,021	800,000	-0,029	-0,066
-578,006	-109,197	-0,153	-0,024
-576,992	-21,299	0,054	-0,024
-575,977	771,073	0,010	0,021
-574,963	800,000	0,041	0,105
-573,948	7,904	0,090	-0,050
-572,934	48,762	-0,133	0,092
-571,919	158,217	-0,058	-0,060
-570,904	-133,743	0,065	0,006
-569,890	576,025	-0,036	0,065
-568,875	-200,000	0,003	0,048
-567,861	-96,954	0,093	0,018
-566,846	-200,000	0,002	0,028
-565,831	-24,292	0,029	0,013
-564,817	298,634	-0,055	-0,075
-563,802	-148,562	0,103	-0,006
-562,788	-158,850	0,042	-0,002
-561,773	-171,775	0,025	0,001
-560,758	230,703	0,108	0,131
-559,744	-200,000	-0,001	0,052
-558,729	-200,000	-0,029	0,162
-557,715	-41,770	0,019	0,007
-556,700	224,267	-0,075	-0,090
-555,685	-200,000	-0,001	-0,103
-554,671	800,000	-0,029	-0,066
-553,656	800,000	0,038	-0,084
-552,642	-112,703	0,115	0,017
-551,627	-98,614	-0,114	0,021
-550,612	51,824	-0,041	0,029
-549,598	800,000	0,029	-0,082
-548,583	-1,217	-0,050	-0,026
-547,569	159,871	-0,109	-0,112
-546,554	-200,000	-0,015	0,077
-545,539	-1,200	0,085	0,044
-544,525	-200,000	-0,002	0,030
-543,510	532,521	0,028	-0,050
-542,496	-26,194	-0,014	0,006
-541,481	-200,000	-0,012	-0,061
-540,466	800,000	0,018	0,050
-539,452	-200,000	0,023	0,189
-538,437	-0,070	0,051	0,027
-537,423	727,754	0,015	-0,029
-536,408	-103,601	-0,117	-0,020
-535,393	109,913	0,028	0,025
-534,379	-200,000	0,008	0,177
-533,364	-200,000	0,024	0,082
-532,350	-73,797	0,086	0,023
-531,335	-113,590	0,028	0,004
-530,321	800,000	-0,035	0,093
-529,306	192,020	0,019	0,021
-528,291	14,872	-0,097	0,056
-527,277	295,757	0,039	-0,052
-526,262	64,073	-0,110	0,081
-525,248	-18,901	0,016	0,007
-524,233	-200,000	0,033	-0,190
-523,218	-167,326	0,125	0,004
-522,204	-124,975	-0,051	-0,006
-521,189	800,000	-0,033	-0,096
-520,175	-5,145	-0,259	-0,131
-519,160	-107,025	0,112	-0,018
-518,145	-95,103	0,177	-0,035
-517,131	30,053	-0,086	0,054
-516,116	-34,417	0,059	0,024
-515,102	229,051	-0,049	-0,059
-514,087	800,000	-0,001	0,002
-513,072	-144,563	-0,033	0,002
-512,058	229,732	0,039	0,047
-511,043	800,000	-0,030	-0,097
-510,029	-200,000	0,020	-0,125
-509,014	322,897	-0,014	-0,020
-507,999	-200,000	-0,015	0,064
-506,985	-200,000	-0,019	-0,084
-505,970	-109,855	0,170	0,026
-504,956	149,008	-0,023	-0,023
-503,941	800,000	0,044	0,120
-502,926	800,000	0,010	0,029
-501,912	32,561	-0,060	-0,038
-500,897	-200,000	-0,015	0,067
-499,883	254,623	-0,016	-0,020
-498,868	200,252	-0,128	-0,145
-497,853	738,422	-0,050	-0,098
-496,839	-108,823	-0,082	0,013
-495,824	525,033	0,070	0,122
-494,810	136,340	-0,205	0,197
-493,795	800,000	-0,016	0,047
-492,781	-200,000	0,020	0,074
-491,766	-127,835	-0,053	-0,006
-490,751	252,975	0,081	-0,101
-489,737	47,983	0,131	-0,090
-488,722	800,000	-0,028	-0,069
-487,708	-126,366	-0,182	-0,020
-486,693	800,000	-0,010	-0,029
-485,678	216,900	0,094	0,110
-484,664	344,718	-0,032	-0,046
-483,649	-200,000	0,007	-0,114
-482,635	-200,000	0,023	0,111
-481,620	-59,076	0,092	0,029
-480,605	117,380	0,179	0,162
-479,591	800,000	0,054	0,111
-478,576	43,486	0,093	-0,063
-477,562	38,125	-0,104	-0,068
-476,547	134,027	0,070	-0,066
-475,532	6,547	-0,025	-0,014
-474,518	-200,000	-0,000	-0,019
-473,503	800,000	0,013	0,028
-472,489	-120,585	0,018	-0,002
-471,474	330,765	0,019	0,027
-470,459	106,758	-0,082	0,071
-469,445	-51,505	-0,024	0,008
-468,430	146,120	0,044	-0,044
-467,416	243,222	0,170	0,210
-466,401	-48,107	0,135	-0,048
-465,386	457,713	0,019	-0,031
-464,372	800,000	0,009	0,029
-463,357	-46,127	0,089	-0,032
-462,343	435,492	-0,066	0,106
-461,328	800,000	0,037	-0,082
-460,313	-120,290	-0,081	-0,010
-459,299	-28,898	0,063	-0,026
-458,284	-198,529	0,065	-0,000
-457,270	475,284	-0,126	-0,209
-456,255	-12,591	0,069	0,033
-455,241	-200,000	0,001	0,037
-454,226	-200,000	0,005	-0,038
-453,211	-200,000	0,023	0,110
-452,197	-182,514	0,110	-0,001
-451,182	209,281	0,038	-0,044
-450,168	800,000	0,052	0,124
-449,153	33,176	-0,119	-0,076
-448,138	330,344	0,036	-0,051
-447,124	-200,000	0,032	-0,131
-446,109	-200,000	-0,033	-0,113
-445,095	-101,262	0,083	0,015
-444,080	-200,000	0,011	0,119
-443,065	-125,546	0,088	-0,010
-442,051	88,910	-0,085	-0,070
-441,036	-29,216	-0,156	-0,066
-440,022	-200,000	0,021	-0,084
-439,007	657,181	-0,026	0,048
-437,992	190,953	0,043	0,047
-436,978	10,713	-0,075	0,042
-435,963	-160,934	0,084	-0,003
-434,949	-120,771	-0,033	0,004
-433,934	800,000	0,005	-0,015
-432,919	-200,000	-0,031	-0,147
-431,905	-200,000	0,002	0,009
-430,890	744,799	0,060	-0,119
-429,876	4,904	0,089	-0,048
-428,861	-61,299	-0,053	-0,016
-427,846	101,052	0,013	-0,011
-426,832	800,000	0,015	0,036
-425,817	122,569	-0,022	0,020
-424,803	192,485	-0,021	0,024
-423,788	800,000	0,117	0,240
-422,773	-200,000	-0,016	0,058
-421,759	131,187	0,017	0,016
-420,744	-40,654	0,114	-0,043
-419,730	-142,526	-0,231	0,016
-418,715	234,731	0,093	-0,112
-417,701	-90,226	-0,129	-0,027
-416,686	160,211	0,028	0,029
-415,671	-34,046	0,132	-0,053
-414,657	-66,839	-0,027	-0,008
-413,642	10,318	0,088	0,049
-412,628	99,894	0,058	0,049
-411,613	800,000	0,028	-0,062
-410,598	800,000	-0,037	-0,083
-409,584	128,061	-0,034	-0,031
-408,569	-182,138	-0,039	0,001
-407,555	800,000	-0,046	0,124
-406,540	270,483	-0,087	-0,113
-405,525	-200,000	-0,007	0,022
-404,511	149,103	-0,124	0,123
-403,496	-116,826	-0,033	-0,004
-402,482	-15,376	0,081	0,038
-401,467	15,015	-0,105	-0,060
-400,452	186,544	0,084	0,092
-399,438	-110,770	0,071	0,011
-398,423	-4,389	-0,041	-0,021
-397,409	417,924	-0,024	-0,038
-396,394	-200,000	0,008	-0,094
-395,379	318,630	-0,049	0,069
-394,365	800,000	0,021	0,061
-393,350	-200,000	-0,023	0,132
-392,336	-200,000	-0,042	0,249
-391,321	219,125	0,045	0,052
-390,306	-71,039	0,028	-0,008
-389,292	-200,000	-0,008	-0,030
-388,277	133,795	0,027	0,026
-387,263	-139,925	0,033	-0,003
-386,248	272,863	0,006	0,008
-385,233	139,959	0,030	-0,029
-384,219	208,007	-0,091	-0,104
-383,204	18,992	-0,059	0,035
-382,190	66,044	0,031	0,023
-381,175	800,000	-0,030	0,063
-380,160	43,397	0,071	0,047
-379,146	-15,259	0,089	0,042
-378,131	-200,000	-0,019	-0,075
-377,117	273,617	-0,053	0,069
-376,102	800,000	0,092	0,206
-375,088	-8,639	-0,104	-0,051
-374,073	-200,000	0,030	-0,126
-373,058	356,620	-0,062	-0,091
-372,044	5,471	0,021	0,011
-371,029	-200,000	0,015	0,106
-370,015	-55,704	0,042	0,014
-369,000	800,000	-0,027	-0,070
-367,985	-200,000	0,001	-0,149
-366,971	151,643	-0,049	-0,049
-365,956	-153,901	-0,169	0,008
-364,942	800,000	-0,045	-0,121
-363,927	800,000	0,050	-0,126
-362,912	800,000	-0,015	-0,031
-361,898	53,093	-0,117	-0,082
-360,883	-200,000	-0,032	0,000
-359,869	47,494	0,099	0,067
-358,854	147,196	-0,013	-0,013
-357,839	66,889	0,162	0,120
-356,825	195,376	0,021	0,023
-355,810	-200,000	0,020	0,087
-354,796	90,199	-0,110	-0,090
-353,781	-100,153	-0,050	-0,009
-352,766	-200,000	-0,029	-0,128
-351,752	-0,211	-0,113	0,059
-350,737	-200,000	0,018	0,059
-349,723	-200,000	-0,012	-0,082
-348,708	591,245	-0,094	0,170
-347,693	113,611	-0,057	-0,051
-346,679	-200,000	0,009	0,145
-345,664	213,608	-0,072	-0,084
-344,650	-200,000	0,008	0,052
-343,635	-200,000	0,027	0,102
-342,620	267,799	0,154	0,197
-341,606	-200,000	-0,021	0,083
-340,591	-44,049	-0,057	-0,021
-339,577	800,000	0,015	0,034
-338,562	-174,398	-0,144	-0,003
-337,548	83,571	-0,105	-0,084
-336,533	800,000	0,044	-0,114
-335,518	444,907	0,068	0,110
-334,504	614,374	0,007	0,014
-333,489	316,559	-0,029	-0,040
-332,475	100,395	-0,036	-0,031
-331,460	137,319	0,030	0,028
-330,445	-200,000	0,001	-0,226
-329,431	417,530	-0,032	-0,050
-328,416	-200,000	0,009	0,098
-327,402	88,630	-0,135	0,109
-326,387	800,000	-0,037	-0,100
-325,372	39,845	0,078	-0,051
-324,358	717,845	0,007	0,013
-323,343	276,618	-0,054	-0,071
-322,329	800,000	0,043	0,123
-321,314	800,000	0,032	0,097
-320,299	310,015	-0,036	0,050
-319,285	-200,000	-0,015	-0,098
-318,270	452,861	-0,012	-0,019
-317,256	582,537	-0,047	0,085
-316,241	800,000	-0,042	-0,120
-315,226	328,415	-0,060	-0,084
-314,212	-66,266	0,116	-0,034
-313,197	-37,057	-0,114	0,045
-312,183	-129,656	0,065	0,006
-311,168	-72,985	0,047	0,013
-310,153	209,892	-0,109	-0,125
-309,139	-76,316	-0,062	0,016
-308,124	-200,000	0,010	0,110
-307,110	224,076	0,118	0,140
-306,095	-200,000	0,004	0,058
-305,080	-44,888	-0,187	-0,068
-304,066	800,000	0,054	-0,115
-303,051	-50,937	-0,047	-0,016
-302,037	31,150	-0,017	-0,010
-301,022	-39,345	0,060	0,023
-300,008	-200,000	0,006	0,049
-298,993	-200,000	-0,010	0,123
-297,978	800,000	-0,029	0,092
-296,964	129,533	-0,068	-0,064
-295,949	-200,000	-0,006	0,054
-294,935	800,000	-0,015	0,036
-293,920	150,316	0,082	0,081
-292,905	-23,146	0,080	-0,035
-291,891	-200,000	0,008	0,064
-290,876	67,022	0,068	0,051
-289,862	-200,000	0,005	-0,039
-288,847	-66,905	-0,142	-0,041
-287,832	-183,936	0,023	0,000
-286,818	-200,000	0,026	-0,178
-285,803	-137,319	0,125	-0,010
-284,789	-71,156	0,139	-0,038
-283,774	-35,293	0,052	0,020
-282,759	-39,559	-0,083	0,032
-281,745	800,000	-0,042	-0,092
-280,730	363,742	0,051	-0,075
-279,716	-200,000	-0,020	0,128
-278,701	33,196	0,027	-0,017
-277,686	537,925	-0,036	0,063
-276,672	178,965	-0,036	-0,039
-275,657	454,905	0,089	-0,145
-274,643	124,428	-0,166	0,152
-273,628	270,993	-0,026	0,033
-272,613	594,628	0,057	0,103
-271,599	-115,651	-0,033	0,004
-270,584	506,505	-0,052	0,089
-269,570	106,618	0,110	-0,095
-268,555	301,209	0,022	-0,029
-267,540	388,099	0,030	0,046
-266,526	-200,000	0,006	-0,065
-265,511	47,860	-0,149	0,101
-264,497	664,182	-0,028	0,053
-263,482	340,426	0,036	0,051
-262,467	80,203	0,087	0,068
-261,453	-5,761	0,072	-0,036
-260,438	-200,000	0,013	-0,070
-259,424	264,634	-0,009	-0,012
-258,409	708,847	-0,083	0,160
-257,395	800,000	0,023	-0,060
-256,380	428,920	0,084	0,132
-255,365	32,481	0,099	-0,062
-254,351	192,599	0,066	-0,073
-253,336	320,527	0,040	0,056
-252,322	-200,000	-0,048	-0,166
-251,307	166,334	-0,046	0,048
-250,292	-200,000	-0,073	-0,000
-249,278	92,178	-0,058	-0,047
-248,263	-200,000	0,015	-0,048
-247,249	-48,285	0,142	0,050
-246,234	-200,000	-0,000	-0,150
-245,219	240,337	-0,055	-0,067
-244,205	126,935	0,089	-0,082
-243,190	-200,000	-0,006	-0,052
-242,176	-170,999	0,048	0,001
-241,161	-176,564	0,232	-0,004
-240,146	-28,510	0,010	-0,004
-239,132	-77,631	-0,149	0,037
-238,117	369,050	0,030	-0,045
-237,103	-67,691	0,062	-0,017
-236,088	-16,979	0,177	-0,081
-235,073	80,865	0,187	0,147
-234,059	620,386	-0,020	-0,036
-233,044	-42,552	-0,083	-0,031
-232,030	566,973	0,029	-0,052
-231,015	-200,000	-0,010	-0,184
-230,000	174,339	-0,110	-0,116
-228,986	362,707	0,046	-0,068
-227,971	-200,000	0,018	0,199
-226,957	309,586	-0,046	0,063
-225,942	276,612	0,080	0,104
-224,927	-33,023	0,097	-0,039
-223,913	391,240	0,081	-0,123
-222,898	-22,543	-0,093	-0,041
-221,884	70,793	-0,077	-0,058
-220,869	-74,271	0,086	-0,023
-219,855	-48,802	0,055	-0,019
-218,840	-200,000	-0,024	0,176
-217,825	-37,667	-0,101	-0,039
-216,811	-54,812	-0,051	0,017
-215,796	-148,551	-0,020	0,001
-214,782	-133,814	-0,187	-0,017
-213,767	27,253	-0,105	0,064
-212,752	514,388	0,055	0,094
-211,738	180,836	0,105	0,112
-210,723	800,000	0,029	0,075
-209,709	-200,000	-0,000	-0,034
-208,694	-176,410	-0,102	-0,002
-207,679	31,795	-0,063	-0,040
-206,665	-200,000	0,008	0,045
-205,650	-96,751	0,096	0,018
-204,636	800,000	-0,004	0,012
-203,621	411,487	0,060	-0,093
-202,606	-200,000	0,017	0,093
-201,592	135,206	-0,086	-0,082
-200,577	-200,000	-0,006	-0,077
-199,563	-61,110	0,085	0,026
-198,548	-70,055	-0,052	-0,014
-197,533	407,080	0,109	0,168
-196,519	-200,000	-0,007	0,081
-195,504	-66,707	-0,143	0,041
-194,490	243,402	-0,112	-0,137
-193,475	-22,700	0,051	-0,022
-192,460	-200,000	-0,007	0,024
-191,446	542,965	0,051	0,089
-190,431	787,413	-0,004	0,007
-189,417	-200,000	-0,033	0,124
-188,402	462,602	0,059	0,095
-187,387	-118,475	-0,185	0,024
-186,373	15,045	-0,109	-0,062
-185,358	-17,082	0,085	0,039
-184,344	-138,264	0,031	0,002
-183,329	-200,000	0,018	-0,083
-182,315	-197,848	-0,138	-0,001
-181,300	34,916	0,078	0,050
-180,285	800,000	-0,020	0,055
-179,271	-200,000	0,019	-0,157
-178,256	800,000	0,045	-0,142
-177,242	-200,000	-0,030	-0,102
-176,227	-8,851	0,150	0,073
-175,212	-113,303	0,024	0,003
-174,198	-42,638	0,073	0,027
-173,183	24,005	-0,080	-0,048
-172,169	-200,000	-0,024	-0,162
-171,154	-45,027	0,063	0,023
-170,139	537,548	-0,099	-0,172
-169,125	-101,907	0,054	0,009
-168,110	175,100	-0,078	0,082
-167,096	-200,000	0,008	-0,028
-166,081	-200,000	-0,005	0,084
-165,066	-200,000	0,026	0,178
-164,052	331,669	0,002	-0,003
-163,037	800,000	0,015	0,045
-162,023	56,759	0,081	0,057
-161,008	-200,000	-0,005	0,094
-159,993	800,000	0,058	0,130
-158,979	55,619	-0,151	0,106
-157,964	128,864	-0,020	-0,019
-156,950	-98,134	0,029	-0,005
-155,935	-172,612	-0,017	0,000
-154,920	269,764	0,086	0,110
-153,906	-117,583	0,136	0,018
-152,891	136,869	-0,009	0,009
-151,877	800,000	-0,041	0,114
-150,862	107,379	-0,158	-0,137
-149,847	614,865	0,051	-0,093
-148,833	105,981	-0,120	0,103
-147,818	72,247	0,066	-0,050
-146,804	-125,848	-0,054	0,006
-145,789	-200,000	-0,014	0,122
-144,775	-200,000	-0,011	-0,074
-143,760	-200,000	-0,004	-0,055
-142,745	229,271	0,048	-0,057
-141,731	76,005	-0,156	-0,120
-140,716	9,720	-0,095	-0,052
-139,702	-72,343	-0,073	0,019
-138,687	2,338	0,134	0,070
-137,672	623,448	-0,065	0,120
-136,658	-72,802	-0,082	0,022
-135,643	198,176	-0,072	0,080
-134,629	800,000	-0,030	0,087
-133,614	21,610	0,064	-0,038
-132,599	550,970	0,054	-0,095
-131,585	55,477	0,167	0,117
-130,570	199,120	0,039	-0,043
-129,556	158,384	-0,035	0,035
-128,541	17,198	-0,053	-0,031
-127,526	-147,464	-0,096	-0,006
-126,512	16,720	-0,031	-0,018
-125,497	-200,000	0,011	0,080
-124,483	-52,141	0,082	0,027
-123,468	-115,613	-0,061	0,008
-122,453	634,179	-0,058	-0,108
-121,439	394,179	-0,091	-0,138
-120,424	-200,000	0,002	0,026
-119,410	109,882	-0,079	0,069
-118,395	-200,000	-0,019	0,085
-117,380	-106,967	0,151	0,024
-116,366	66,990	-0,003	-0,002
-115,351	-76,568	-0,185	0,047
-114,337	800,000	-0,081	-0,166
-113,322	61,126	-0,111	0,080
-112,307	57,265	0,105	0,074
-111,293	31,509	0,078	0,048
-110,278	-200,000	0,015	0,070
-109,264	-200,000	-0,061	0,203
-108,249	397,631	0,056	0,086
-107,234	-66,638	0,023	0,006
-106,220	256,522	-0,061	0,076
-105,205	84,149	0,038	-0,030
-104,191	-200,000	-0,006	-0,112
-103,176	800,000	-0,052	0,150
-102,162	14,737	-0,017	-0,010
-101,147	-32,368	-0,085	-0,034
-100,132	-200,000	-0,031	-0,160
-99,118	-45,769	0,144	0,051
-98,103	500,374	-0,033	0,056
-97,089	196,561	0,115	0,127
-96,074	-107,382	-0,076	-0,012
-95,059	116,475	-0,049	0,043
-94,045	-23,435	0,083	-0,036
-93,030	-159,239	-0,117	-0,005
-92,016	120,368	0,133	-0,120
-91,001	-32,213	0,088	-0,035
-89,986	-80,388	0,133	-0,032
-88,972	240,860	0,070	0,084
-87,957	-106,013	0,102	-0,016
-86,943	800,000	0,064	-0,155
-85,928	-200,000	0,064	-0,270
-84,913	501,401	-0,048	0,081
-83,899	-2,663	0,097	0,049
-82,884	482,697	-0,027	0,045
-81,870	115,618	0,065	-0,057
-80,855	-135,180	0,129	0,011
-79,840	800,000	0,030	0,084
-78,826	57,920	-0,118	-0,084
-77,811	800,000	-0,035	0,073
-76,797	5,254	-0,053	-0,028
-75,782	-115,406	0,034	0,005
-74,767	148,966	0,033	0,032
-73,753	118,199	-0,048	-0,043
-72,738	557,318	0,035	0,062
-71,724	-200,000	-0,033	-0,108
-70,709	-200,000	-0,010	-0,137
-69,694	14,816	0,059	-0,033
-68,680	800,000	-0,056	0,112
-67,665	3,304	0,139	0,073
-66,651	44,120	-0,023	0,015
-65,636	117,386	0,067	-0,060
-64,622	39,638	0,054	-0,035
-63,607	203,400	-0,029	0,033
-62,592	-135,550	0,007	-0,001
-61,578	104,320	0,030	0,025
-60,563	-200,000	-0,017	0,090
-59,549	56,527	-0,061	-0,043
-58,534	-89,126	-1,628	-0,345
-57,519	594,661	-0,709	-1,274
-56,505	-200,000	-1,098	-4,579
-55,490	-105,585	0,571	-0,093
-54,476	800,000	5,014	12,062
-53,461	-200,000	14,870	262,704
-52,446	-200,000	697,615	2237,992
-51,432	565,704	1621,635	2855,994
-50,417	119,000	1628,726	1456,257
-49,403	76,465	1282,954	982,483
-48,388	37,488	1022,013	654,253
-47,373	22,919	981,567	580,563
-46,359	22,078	970,928	571,496
-45,344	20,861	966,716	565,026
-44,330	20,852	965,259	564,124
-43,315	20,660	963,951	562,712
-42,300	20,616	962,887	561,924
-41,286	20,598	961,901	561,268
-40,271	20,581	960,824	560,564
-39,257	20,595	960,057	560,140
-38,242	20,563	959,115	559,463
-37,227	20,603	958,202	559,037
-36,213	20,613	957,224	558,478
-35,198	20,538	956,664	557,886
-34,184	20,588	955,789	557,516
-33,169	20,554	954,778	556,796
-32,154	20,622	953,832	556,438
-31,140	20,650	953,028	556,037
-30,125	20,582	952,369	555,414
-29,111	20,622	951,456	554,988
-28,096	20,587	950,744	554,437
-27,082	20,560	949,993	553,890
-26,067	20,626	949,207	553,622
-25,052	20,606	948,508	553,127
-24,038	20,603	947,883	552,733
-23,023	20,595	947,308	552,348
-22,009	20,600	946,576	551,916
-20,994	20,650	946,116	551,787
-19,979	20,573	945,557	551,192
-18,965	20,562	944,940	550,776
-17,950	20,609	944,208	550,476
-16,936	20,544	943,633	549,912
-15,921	20,488	942,925	549,300
-14,906	20,485	942,136	548,810
-13,892	20,496	941,535	548,474
-12,877	20,502	940,799	548,041
-11,863	20,464	940,371	547,651
-10,848	20,460	939,804	547,284
-9,833	20,580	939,265	547,330
-8,819	20,554	938,591	546,834
-7,804	20,479	938,169	546,328
-6,790	20,498	937,632	546,055
-5,775	20,520	936,950	545,704
-4,760	20,531	936,317	545,350
-3,746	20,439	935,761	544,714
-2,731	20,354	934,960	543,959
-1,717	20,294	934,284	543,352
-0,702	20,343	933,394	542,970
0,313	20,153	933,010	542,967
1,327	23,127	931,022	551,096
2,342	32,210	793,298	493,663
3,356	29,385	451,195	276,498
4,371	-0,365	296,230	151,623
5,386	-4,581	277,463	137,983
6,400	-6,020	271,748	133,783
7,415	-6,413	269,375	132,238
8,429	-6,079	268,159	131,937
9,444	-6,056	267,274	131,511
10,459	-6,002	266,636	131,236
11,473	-6,283	265,931	130,619
12,488	-6,212	265,605	130,513
13,502	-6,341	264,913	130,044
14,517	-6,577	264,589	129,658
15,531	-6,341	264,126	129,634
16,546	-6,284	263,946	129,586
17,561	-6,144	263,225	129,347
18,575	-6,173	263,177	129,286
19,590	-6,303	262,775	128,960
20,604	-6,192	262,425	128,877
21,619	-6,391	262,227	128,588
22,634	-6,140	261,739	128,563
23,648	-6,457	261,408	128,104
24,663	-6,452	261,257	128,023
25,677	-6,272	260,938	128,017
26,692	-6,467	260,731	127,730
27,707	-6,324	260,399	127,684
28,721	-6,516	260,208	127,406
29,736	-6,547	259,992	127,262
30,750	-6,499	259,709	127,155
31,765	-6,562	259,427	126,949
32,780	-6,482	259,349	126,971
33,794	-6,373	258,908	126,841
34,809	-6,382	258,637	126,689
35,823	-6,443	258,536	126,574
36,838	-6,324	258,190	126,498
37,853	-6,480	258,057	126,284
38,867	-6,630	257,780	126,004
39,882	-6,632	257,595	125,900
40,896	-6,412	257,180	125,881
41,911	-6,426	257,036	125,787
42,926	-6,623	256,855	125,513
43,940	-6,529	256,590	125,456
44,955	-6,657	256,443	125,260
45,969	-6,682	256,109	125,064
46,984	-6,728	255,918	124,919
47,999	-7,080	255,537	124,413
49,013	-7,196	255,355	124,211
50,028	-7,247	255,135	124,048
51,042	-7,380	254,845	123,780
52,057	-7,249	254,577	123,753
53,071	-7,160	254,281	123,676
54,086	-7,034	254,311	123,789
55,101	-7,122	254,115	123,607
56,115	-6,939	254,075	123,736
57,130	-6,606	253,969	123,963
58,144	-6,224	253,725	124,166
59,159	-6,320	253,544	123,982
60,174	-6,207	253,334	123,966
61,188	-6,149	253,002	123,843
62,203	-6,228	252,812	123,671
63,217	-6,316	252,696	123,527
64,232	-6,435	252,545	123,338
65,247	-6,143	252,255	123,438
66,261	-6,278	252,022	123,197
67,276	-6,794	251,756	122,611
68,290	-6,822	251,498	122,450
69,305	-6,853	251,201	122,269
70,320	-7,008	251,101	122,075
71,334	-6,635	250,948	122,311
72,349	-6,295	250,906	122,571
73,363	-6,086	250,619	122,600
74,378	-6,096	250,381	122,464
75,393	-6,517	250,267	122,036
76,407	-6,520	250,052	121,918
77,422	-6,462	249,826	121,847
78,436	-6,405	249,688	121,817
79,451	-6,459	249,428	121,634
80,466	-6,427	249,081	121,480
81,480	-6,722	248,803	121,083
82,495	-6,807	248,649	120,925
83,509	-6,572	248,570	121,075
84,524	-6,539	248,296	120,959
85,539	-6,948	248,115	120,513
86,553	-6,879	247,930	120,471
87,568	-6,501	247,610	120,625
88,582	-6,574	247,397	120,449
89,597	-6,909	247,341	120,127
90,611	-6,614	247,329	120,361
91,626	-6,561	247,089	120,278
92,641	-6,338	246,831	120,330
93,655	-6,553	246,680	120,064
94,670	-6,555	246,427	119,928
95,684	-6,544	246,228	119,830
96,699	-6,545	246,105	119,759
97,714	-6,705	245,957	119,542
98,728	-6,462	245,581	119,552
99,743	-6,979	245,480	119,059
100,757	-6,921	245,231	118,976
101,772	-6,857	245,183	118,995
102,787	-6,555	244,906	119,103
103,801	-6,492	244,584	118,988
104,816	-6,558	244,675	118,967
105,830	-6,650	244,535	118,812
106,845	-6,357	244,308	118,935
107,860	-6,520	244,159	118,716
108,874	-6,650	243,890	118,467
109,889	-6,607	243,606	118,353
110,903	-6,686	243,512	118,232
111,918	-6,557	243,295	118,223
112,933	-6,441	243,083	118,205
113,947	-6,467	243,018	118,142
114,962	-6,360	242,756	118,092
115,976	-6,472	242,687	117,956
116,991	-6,649	242,590	117,752
118,006	-6,441	242,182	117,715
119,020	-6,274	242,163	117,833
120,035	-6,543	242,166	117,601
121,049	-6,521	241,890	117,476
122,064	-6,381	241,797	117,536
123,079	-6,302	241,563	117,476
124,093	-6,721	241,390	117,036
125,108	-6,832	241,082	116,785
126,122	-6,914	240,830	116,586
127,137	-7,055	240,738	116,416
128,151	-7,050	240,641	116,362
129,166	-6,830	240,291	116,362
130,181	-6,983	240,171	116,169
131,195	-6,878	239,977	116,151
132,210	-6,711	239,779	116,181
133,224	-6,638	239,657	116,171
134,239	-6,497	239,398	116,150
135,254	-6,368	239,315	116,205
136,268	-6,663	239,164	115,881
137,283	-6,992	238,831	115,441
138,297	-7,051	238,591	115,267
139,312	-7,020	238,618	115,295
140,327	-6,819	238,508	115,395
141,341	-6,129	238,332	115,859
142,356	-6,270	238,222	115,681
143,370	-6,128	238,027	115,691
144,385	-6,078	237,938	115,678
145,400	-6,212	237,756	115,471
146,414	-5,933	237,595	115,608
147,429	-6,130	237,435	115,361
148,443	-6,223	237,239	115,180
149,458	-6,223	237,070	115,087
150,473	-6,294	236,869	114,922
151,487	-6,208	236,624	114,862
152,502	-6,113	236,509	114,873
153,516	-6,214	236,343	114,701
154,531	-6,303	236,221	114,560
155,546	-6,554	236,016	114,248
156,560	-6,487	235,909	114,241
157,575	-6,486	235,691	114,126
158,589	-6,258	235,355	114,135
159,604	-6,118	235,269	114,195
160,619	-6,173	235,156	114,086
161,633	-6,081	235,068	114,107
162,648	-6,051	234,804	113,993
163,662	-5,921	234,665	114,018
164,677	-6,211	234,590	113,740
165,692	-6,177	234,510	113,720
166,706	-6,152	234,228	113,592
167,721	-6,002	234,151	113,664
168,735	-6,134	234,060	113,505
169,750	-6,086	233,785	113,399
170,764	-6,252	233,710	113,221
171,779	-6,239	233,605	113,170
172,794	-6,056	233,363	113,188
173,808	-6,143	233,079	112,971
174,823	-6,666	232,806	112,415
175,837	-6,737	232,527	112,215
176,852	-6,306	232,643	112,601
177,867	-6,366	232,514	112,481
178,881	-6,109	232,427	112,632
179,896	-5,944	232,283	112,682
180,910	-6,183	232,148	112,418
181,925	-6,227	232,086	112,344
182,940	-5,945	231,764	112,399
183,954	-6,073	231,693	112,254
184,969	-5,993	231,502	112,214
185,983	-5,920	231,393	112,209
186,998	-5,969	231,279	112,105
188,013	-5,977	231,070	111,987
189,027	-5,948	230,904	111,920
190,042	-5,987	230,757	111,808
191,056	-6,192	230,723	111,621
192,071	-6,117	230,461	111,543
193,086	-6,019	230,295	111,529
194,100	-5,869	230,095	111,540
195,115	-5,885	229,631	111,292
196,129	-6,370	229,634	110,907
197,144	-2,758	230,733	114,248
198,159	1,179	231,881	117,888
199,173	3,462	232,563	120,013
200,188	3,726	232,493	120,173
201,202	3,870	232,268	120,159
202,217	3,972	232,113	120,148
203,232	4,116	232,156	120,272
204,246	4,187	231,980	120,225
205,261	4,229	231,913	120,212
206,275	4,498	231,715	120,309
207,290	4,507	231,638	120,264
208,304	4,476	231,441	120,128
209,319	4,384	231,227	119,935
210,334	4,459	231,041	119,886
211,348	4,288	230,803	119,619
212,363	3,981	230,501	119,214
213,377	3,549	230,276	118,752
214,392	3,808	230,097	118,850
215,407	3,473	230,167	118,616
216,421	3,816	229,788	118,675
217,436	3,745	229,694	118,561
218,450	3,603	229,241	118,208
219,465	3,516	229,268	118,144
220,480	3,535	229,130	118,077
221,494	3,397	229,096	117,942
222,509	3,553	229,103	118,056
223,523	3,686	228,837	118,011
224,538	3,266	228,739	117,627
225,553	3,472	228,478	117,640
226,567	3,591	228,514	117,739
227,582	3,731	228,348	117,750
228,596	3,868	228,186	117,762
229,611	3,599	227,879	117,387
230,626	3,370	227,752	117,136
231,640	3,478	227,483	117,069
232,655	3,850	227,680	117,444
233,669	4,117	227,613	117,604
234,684	4,360	227,368	117,651
235,699	3,959	227,294	117,297
236,713	3,695	227,005	116,937
237,728	3,924	226,642	116,913
238,742	3,436	226,532	116,475
239,757	3,192	226,493	116,259
240,772	3,573	226,248	116,413
241,786	3,266	226,205	116,147
242,801	3,839	225,914	116,422
243,815	3,861	225,999	116,472
244,830	3,865	225,873	116,399
245,844	3,864	225,605	116,250
246,859	3,495	225,432	115,872
247,874	3,857	225,358	116,097
248,888	4,157	225,101	116,180
249,903	3,812	224,931	115,822
250,917	3,608	224,863	115,623
251,932	3,378	224,760	115,387
252,947	3,479	224,541	115,340
253,961	3,403	224,298	115,148
254,976	3,390	224,267	115,112
255,990	3,872	224,039	115,346
257,005	3,848	223,942	115,268
258,020	4,009	223,872	115,342
259,034	4,149	223,890	115,446
260,049	4,091	223,677	115,282
261,063	3,675	223,574	114,908
262,078	4,006	223,366	115,039
263,093	4,142	223,178	115,033
264,107	4,219	223,024	115,001
265,122	4,025	222,901	114,782
266,136	4,065	222,853	114,777
267,151	4,105	222,564	114,648
268,166	3,914	222,264	114,341
269,180	3,484	222,152	113,953
270,195	3,358	222,038	113,791
271,209	3,600	221,768	113,822
272,224	3,739	221,727	113,895
273,239	3,670	221,582	113,759
274,253	3,683	221,439	113,684
275,268	3,187	221,278	113,225
276,282	3,365	221,124	113,268
277,297	3,146	220,906	112,984
278,312	3,271	220,930	113,079
279,326	3,617	220,839	113,277
280,341	3,602	220,668	113,168
281,355	3,630	220,544	113,116
282,370	3,653	220,210	112,951
283,384	3,438	220,167	112,761
284,399	3,218	219,959	112,482
285,414	3,201	219,768	112,362
286,428	3,619	219,938	112,746
287,443	3,806	219,748	112,776
288,457	3,862	219,577	112,719
289,472	3,487	219,327	112,306
290,487	3,331	218,992	112,010
291,501	3,050	218,963	111,780
292,516	3,083	219,011	111,819
293,530	3,531	218,673	111,964
294,545	3,343	218,640	111,800
295,560	3,545	218,370	111,799
296,574	3,547	218,317	111,763
297,589	3,709	218,289	111,856
298,603	3,754	218,104	111,785
299,618	3,482	217,983	111,515
300,633	3,701	217,826	111,584
301,647	3,817	217,776	111,632
302,662	3,593	217,744	111,443
303,676	3,700	217,452	111,361
304,691	3,614	217,428	111,277
305,706	3,665	217,106	111,139
306,720	3,424	216,986	110,893
307,735	3,570	216,902	110,946
308,749	3,865	216,754	111,074
309,764	3,847	216,745	111,046
310,779	3,757	216,595	110,894
311,793	3,879	216,381	110,863
312,808	3,792	216,169	110,682
313,822	3,916	215,997	110,673
314,837	3,727	215,961	110,509
315,852	3,381	215,813	110,174
316,866	3,649	215,691	110,295
317,881	3,774	215,627	110,342
318,895	3,741	215,403	110,194
319,910	3,689	215,095	109,989
320,925	3,232	215,113	109,661
321,939	2,969	214,989	109,400
322,954	3,059	214,916	109,417
323,968	3,773	214,685	109,800
324,983	3,776	214,678	109,790
325,997	3,689	214,498	109,625
327,012	3,509	214,458	109,466
328,027	3,495	214,229	109,330
329,041	4,191	213,964	109,681
330,056	4,203	214,163	109,781
331,070	3,856	213,736	109,306
332,085	3,658	213,396	108,982
333,100	3,535	213,360	108,866
334,114	3,646	213,226	108,867
335,129	3,822	213,121	108,928
336,143	3,426	212,963	108,558
337,158	3,572	212,844	108,590
338,173	3,555	212,903	108,599
339,187	3,357	212,554	108,271
340,202	3,360	212,380	108,175
341,216	3,330	212,152	108,028
342,231	3,453	212,082	108,069
343,246	3,244	212,019	107,881
344,260	3,338	211,846	107,849
345,275	3,687	211,754	108,038
346,289	3,643	211,652	107,946
347,304	3,867	211,531	108,031
348,319	3,743	211,314	107,824
349,333	3,483	211,198	107,573
350,348	3,630	211,122	107,628
351,362	3,884	211,090	107,780
352,377	3,882	211,045	107,746
353,392	3,640	210,826	107,455
354,406	3,586	210,729	107,358
355,421	193,920	1344,406	1428,385
356,435	154,800	1482,598	1428,464
