DTS Sentinel unit serial number:	SN410029Multiplexer serial number:	ORYXHardware model number:	OX2-SRSoftware version number:	ORYX F/W v4,00 Oryx Data Collector v3.7.2.0data status	okinstallation	B6 Nyhavnadifferential loss correction	single-endedforward channel	channel 2reverse channel	N/Adate	2023/12/10time	10:05:08forward acquisition time	300,00reverse acquisition time	0,00gamma	499,1914k internal	0,3123k external	0,3123temperature offset calibration	1,0000default loss term (dB/km)	0,3820temperature slope calibration	1,0000multiplexer offset coefficient	1,0000multiplexer slope coefficient	1,0000fibre end	0,00T internal ref (°C)	22,56T ext. ref 1 (°C)	6,39T ext. ref 2 (°C)	6,38length (m)	temperature (°C)	Stokes	anti-Stokes-744,400	534,734	-0,051	-0,090
-743,385	-126,239	-0,209	0,023
-742,371	-81,606	-0,104	-0,025
-741,356	-173,218	-0,218	0,005
-740,342	-152,654	0,139	-0,007
-739,327	-43,856	-0,137	-0,051
-738,312	-28,895	-0,081	-0,034
-737,298	-73,696	-0,256	0,069
-736,283	-200,000	0,032	-0,141
-735,269	44,169	-0,150	0,102
-734,254	163,306	0,082	-0,086
-733,239	-68,442	-0,447	-0,129
-732,225	748,411	0,056	-0,112
-731,210	-6,934	-0,070	0,035
-730,196	79,561	0,110	0,088
-729,181	61,049	-0,069	-0,051
-728,167	-200,000	-0,002	0,019
-727,152	440,078	-0,049	-0,079
-726,137	220,369	-0,091	0,109
-725,123	-98,319	-0,144	-0,027
-724,108	-200,000	0,025	0,000
-723,094	-200,000	-0,002	-0,065
-722,079	151,825	-0,084	-0,086
-721,064	-159,553	-0,034	-0,001
-720,050	-95,427	-0,131	-0,026
-719,035	-200,000	0,028	0,117
-718,021	356,179	-0,067	0,099
-717,006	800,000	-0,015	-0,036
-715,991	-64,419	-0,155	-0,047
-714,977	-156,641	-0,102	-0,005
-713,962	-200,000	-0,026	-0,092
-712,948	205,018	-0,054	0,063
-711,933	792,082	0,012	-0,025
-710,918	-200,000	-0,004	0,054
-709,904	143,640	0,045	-0,045
-708,889	800,000	-0,057	-0,170
-707,875	33,532	-0,095	-0,061
-706,860	-200,000	-0,001	-0,055
-705,845	800,000	0,054	-0,134
-704,831	-200,000	0,018	-0,205
-703,816	-200,000	0,003	-0,097
-702,802	125,310	-0,082	-0,077
-701,787	465,947	0,041	0,069
-700,772	4,575	0,101	-0,055
-699,758	105,231	-0,125	-0,110
-698,743	1,389	0,103	0,055
-697,729	465,563	-0,023	-0,039
-696,714	-200,000	0,007	0,102
-695,699	453,633	0,067	-0,111
-694,685	-200,000	-0,028	0,096
-693,670	-166,871	-0,111	0,003
-692,656	292,442	0,078	-0,106
-691,641	-200,000	-0,006	-0,102
-690,627	-89,119	-0,037	-0,008
-689,612	189,388	-0,030	0,033
-688,597	187,086	0,052	-0,058
-687,583	-200,000	-0,019	-0,063
-686,568	800,000	-0,008	-0,023
-685,554	57,932	0,068	-0,049
-684,539	34,473	-0,051	0,033
-683,524	65,008	-0,052	-0,039
-682,510	374,404	-0,077	0,117
-681,495	16,230	-0,061	-0,036
-680,481	456,235	-0,074	-0,122
-679,466	-21,055	-0,077	0,035
-678,451	430,497	-0,003	0,005
-677,437	250,005	-0,073	0,093
-676,422	-36,902	-0,125	0,050
-675,408	341,115	-0,077	-0,111
-674,393	800,000	-0,024	0,071
-673,378	564,734	0,028	0,051
-672,364	5,152	-0,035	-0,019
-671,349	184,932	-0,108	-0,119
-670,335	-75,828	0,055	0,014
-669,320	391,057	0,051	-0,079
-668,305	-83,311	-0,081	0,019
-667,291	33,987	0,054	0,035
-666,276	800,000	-0,012	-0,026
-665,262	280,500	-0,029	-0,039
-664,247	457,287	-0,114	-0,190
-663,232	-24,281	0,089	0,039
-662,218	-57,552	-0,090	-0,029
-661,203	-146,804	0,087	0,005
-660,189	-12,230	-0,018	0,009
-659,174	58,396	-0,146	-0,106
-658,159	-200,000	0,008	-0,087
-657,145	800,000	-0,003	0,006
-656,130	800,000	-0,023	-0,051
-655,116	-54,957	-0,014	0,005
-654,101	-200,000	0,031	-0,103
-653,086	40,240	-0,023	0,015
-652,072	233,929	-0,039	-0,048
-651,057	1,896	0,063	-0,034
-650,043	691,181	-0,068	-0,132
-649,028	800,000	0,025	-0,080
-648,014	-77,994	0,036	0,009
-646,999	-57,987	-0,033	-0,011
-645,984	740,248	-0,101	-0,202
-644,970	-94,454	0,119	0,024
-643,955	50,206	-0,071	-0,050
-642,941	70,917	0,065	-0,050
-641,926	800,000	-0,025	0,072
-640,911	223,236	-0,031	-0,037
-639,897	-11,374	-0,125	0,061
-638,882	288,460	0,058	-0,078
-637,868	-200,000	0,015	-0,126
-636,853	-200,000	0,013	-0,129
-635,838	168,712	-0,080	-0,085
-634,824	-200,000	-0,033	-0,115
-633,809	-101,998	0,101	-0,018
-632,795	135,094	0,042	0,040
-631,780	-77,927	-0,065	0,017
-630,765	163,119	0,063	0,066
-629,751	-200,000	-0,018	-0,087
-628,736	-200,000	-0,020	-0,117
-627,722	-200,000	0,009	0,035
-626,707	-117,608	-0,197	0,026
-625,692	800,000	0,020	0,050
-624,678	78,638	-0,079	0,062
-623,663	210,728	0,079	-0,093
-622,649	-14,033	0,078	-0,037
-621,634	-200,000	0,011	0,144
-620,619	203,537	-0,090	-0,103
-619,605	-149,286	-0,093	-0,005
-618,590	337,365	-0,016	-0,023
-617,576	88,031	0,107	0,088
-616,561	0,988	-0,033	-0,018
-615,546	23,494	-0,141	-0,086
-614,532	373,529	0,025	-0,038
-613,517	109,404	0,070	-0,062
-612,503	-200,000	0,013	-0,099
-611,488	-99,065	-0,096	-0,018
-610,474	121,693	0,111	-0,103
-609,459	275,293	0,018	0,024
-608,444	-200,000	-0,007	0,097
-607,430	398,400	0,026	0,041
-606,415	56,771	0,055	0,040
-605,401	-58,994	-0,100	0,032
-604,386	-200,000	-0,011	0,044
-603,371	47,394	0,127	0,088
-602,357	155,161	0,013	0,013
-601,342	-200,000	-0,004	-0,122
-600,328	178,565	-0,047	-0,051
-599,313	-51,322	-0,030	-0,010
-598,298	303,802	-0,007	0,010
-597,284	-115,152	-0,079	0,011
-596,269	800,000	0,068	0,148
-595,255	800,000	0,013	0,031
-594,240	-200,000	-0,018	0,063
-593,225	-132,170	-0,085	-0,008
-592,211	-68,858	-0,062	-0,018
-591,196	-200,000	0,016	-0,120
-590,182	300,517	0,031	0,043
-589,167	-55,503	0,100	-0,033
-588,152	-200,000	-0,030	-0,151
-587,138	-71,164	-0,125	-0,034
-586,123	-200,000	-0,010	-0,129
-585,109	-200,000	-0,001	0,091
-584,094	-200,000	-0,006	0,037
-583,079	317,669	-0,055	0,077
-582,065	286,370	-0,051	-0,069
-581,050	0,573	0,095	-0,050
-580,036	-8,845	-0,065	-0,032
-579,021	-200,000	0,011	-0,090
-578,006	93,496	-0,089	0,075
-576,992	800,000	0,016	-0,039
-575,977	-76,508	0,065	0,017
-574,963	800,000	0,022	0,052
-573,948	-200,000	0,005	0,105
-572,934	-53,551	-0,020	0,007
-571,919	-27,361	-0,154	-0,066
-570,904	800,000	0,022	0,066
-569,890	-88,784	0,101	0,022
-568,875	286,807	-0,040	0,054
-567,861	246,080	0,042	-0,052
-566,846	-158,414	0,074	0,003
-565,831	-200,000	0,000	-0,084
-564,817	800,000	0,055	0,137
-563,802	-200,000	-0,004	-0,125
-562,788	242,483	-0,089	-0,110
-561,773	-200,000	0,032	-0,166
-560,758	800,000	0,052	-0,118
-559,744	-162,028	0,095	-0,003
-558,729	-45,072	-0,134	0,049
-557,715	800,000	-0,055	-0,158
-556,700	311,786	0,035	0,048
-555,685	800,000	0,022	-0,072
-554,671	-0,650	-0,090	-0,047
-553,656	309,586	0,058	0,081
-552,642	245,410	-0,086	-0,108
-551,627	-200,000	0,008	-0,037
-550,612	36,153	0,050	0,032
-549,598	-30,033	0,105	0,044
-548,583	-16,433	-0,085	-0,040
-547,569	-32,526	0,145	0,060
-546,554	-200,000	0,008	0,095
-545,539	-0,112	0,057	0,030
-544,525	100,426	-0,050	-0,043
-543,510	-200,000	-0,002	0,050
-542,496	-157,782	-0,165	-0,007
-541,481	514,498	0,043	-0,075
-540,466	27,276	0,016	-0,010
-539,452	31,294	0,006	-0,004
-538,437	91,866	-0,103	0,086
-537,423	800,000	-0,034	0,103
-536,408	-52,377	0,088	-0,030
-535,393	-119,778	-0,132	-0,017
-534,379	-11,199	-0,035	-0,017
-533,364	428,967	0,056	-0,090
-532,350	-200,000	0,001	-0,024
-531,335	235,912	0,052	0,064
-530,321	800,000	0,026	-0,082
-529,306	519,907	-0,034	0,059
-528,291	671,283	-0,053	-0,103
-527,277	800,000	-0,026	-0,081
-526,262	800,000	0,051	0,145
-525,248	-8,847	-0,028	-0,014
-524,233	174,836	0,125	0,134
-523,218	800,000	-0,028	0,068
-522,204	800,000	-0,023	-0,068
-521,189	-134,236	0,038	-0,003
-520,175	140,079	0,098	-0,096
-519,160	-92,811	-0,085	-0,018
-518,145	47,416	0,075	-0,052
-517,131	135,372	0,051	-0,049
-516,116	287,013	-0,045	0,060
-515,102	168,958	0,051	-0,054
-514,087	-102,680	-0,091	-0,016
-513,072	114,647	-0,122	-0,110
-512,058	-52,721	-0,045	0,015
-511,043	800,000	0,023	0,059
-510,029	-200,000	-0,005	-0,037
-509,014	-200,000	-0,039	-0,137
-507,999	800,000	0,074	0,175
-506,985	219,308	0,079	-0,093
-505,970	743,495	0,037	0,075
-504,956	-66,094	-0,087	-0,025
-503,941	800,000	0,058	0,125
-502,926	-180,167	0,120	0,002
-501,912	-81,723	0,130	0,031
-500,897	375,923	-0,038	0,057
-499,883	-88,168	0,063	-0,014
-498,868	-27,839	-0,017	-0,007
-497,853	129,641	0,098	-0,093
-496,839	-200,000	-0,035	-0,136
-495,824	97,882	0,083	0,071
-494,810	800,000	-0,030	0,084
-493,795	-72,596	-0,081	0,022
-492,781	-86,640	-0,065	0,015
-491,766	800,000	-0,041	-0,120
-490,751	-52,260	-0,073	-0,025
-489,737	-21,699	0,165	-0,074
-488,722	543,389	-0,041	0,072
-487,708	63,457	-0,026	-0,019
-486,693	-200,000	0,001	-0,085
-485,678	800,000	-0,023	-0,048
-484,664	145,144	-0,130	-0,128
-483,649	800,000	0,024	0,076
-482,635	425,195	-0,074	0,119
-481,620	-64,060	0,075	0,022
-480,605	645,613	0,041	0,078
-479,591	800,000	-0,017	0,045
-478,576	-67,826	-0,180	0,051
-477,562	538,214	-0,031	0,054
-476,547	-9,221	0,042	0,021
-475,532	-200,000	0,021	-0,144
-474,518	716,519	-0,024	0,048
-473,503	-200,000	0,028	0,146
-472,489	-200,000	0,002	-0,014
-471,474	108,397	-0,063	0,056
-470,459	-17,036	-0,114	-0,053
-469,445	-124,401	-0,112	0,013
-468,430	-86,456	-0,021	0,005
-467,416	-30,093	-0,031	-0,013
-466,401	123,413	0,128	0,119
-465,386	800,000	-0,005	0,011
-464,372	-172,829	0,105	0,002
-463,357	31,634	-0,052	-0,033
-462,343	57,992	-0,047	0,034
-461,328	39,964	-0,054	0,036
-460,313	-200,000	-0,003	0,063
-459,299	491,709	-0,015	0,025
-458,284	698,573	0,028	-0,054
-457,270	-47,255	0,090	0,032
-456,255	-77,807	-0,046	0,012
-455,241	-200,000	0,004	-0,020
-454,226	800,000	0,026	-0,062
-453,211	33,662	0,131	0,083
-452,197	-200,000	0,003	0,068
-451,182	-199,175	-0,056	-0,000
-450,168	-119,134	-0,087	-0,011
-449,153	-20,245	-0,027	0,012
-448,138	147,102	-0,074	-0,074
-447,124	-111,144	0,040	-0,006
-446,109	188,479	-0,098	-0,108
-445,095	194,442	0,099	0,110
-444,080	800,000	-0,040	-0,099
-443,065	-85,563	0,093	-0,021
-442,051	-61,855	-0,068	0,021
-441,036	800,000	-0,068	0,142
-440,022	467,324	0,033	0,054
-439,007	-36,598	-0,219	0,086
-437,992	411,823	-0,014	-0,022
-436,978	640,479	0,006	-0,011
-435,963	-200,000	0,018	0,089
-434,949	169,070	-0,104	0,109
-433,934	652,153	0,041	-0,078
-432,919	-200,000	-0,004	-0,027
-431,905	-200,000	0,032	0,153
-430,890	-200,000	-0,019	-0,063
-429,876	482,989	0,087	-0,146
-428,861	-155,417	0,099	0,005
-427,846	800,000	-0,051	0,124
-426,832	-200,000	0,011	-0,167
-425,817	206,783	-0,022	0,025
-424,803	-200,000	-0,004	-0,087
-423,788	-200,000	0,035	0,118
-422,773	400,467	-0,029	-0,044
-421,759	800,000	-0,016	0,046
-420,744	-109,408	0,086	-0,013
-419,730	103,832	-0,077	-0,067
-418,715	800,000	0,013	-0,029
-417,701	800,000	-0,064	0,156
-416,686	309,154	0,036	-0,050
-415,671	-200,000	-0,004	0,023
-414,657	19,954	0,118	0,070
-413,642	-30,319	0,144	0,060
-412,628	-93,524	-0,043	-0,009
-411,613	217,798	-0,059	0,069
-410,598	800,000	-0,007	0,017
-409,584	-200,000	-0,003	-0,014
-408,569	-200,000	-0,019	0,125
-407,555	127,952	0,073	0,069
-406,540	-0,911	-0,106	0,055
-405,525	228,239	-0,078	-0,094
-404,511	354,724	-0,045	0,066
-403,496	-200,000	0,021	-0,104
-402,482	165,233	-0,083	-0,086
-401,467	-4,385	0,085	-0,043
-400,452	46,262	-0,077	0,052
-399,438	-200,000	0,010	0,048
-398,423	728,132	-0,089	-0,175
-397,409	37,988	-0,043	0,028
-396,394	100,671	-0,062	-0,053
-395,379	-48,417	0,044	0,016
-394,365	37,892	-0,032	-0,021
-393,350	-200,000	-0,031	0,162
-392,336	429,354	0,067	0,107
-391,321	-0,426	-0,028	-0,015
-390,306	134,533	-0,092	0,088
-389,292	-200,000	0,017	-0,087
-388,277	-200,000	-0,007	0,099
-387,263	104,512	-0,059	-0,051
-386,248	-162,867	0,166	0,006
-385,233	-200,000	0,004	-0,056
-384,219	-81,491	0,063	0,015
-383,204	-5,452	-0,076	0,038
-382,190	8,104	0,009	-0,005
-381,175	-45,537	0,045	0,016
-380,160	-123,267	0,028	0,003
-379,146	140,861	-0,059	-0,058
-378,131	-200,000	-0,019	0,126
-377,117	137,119	-0,116	0,112
-376,102	-200,000	0,021	-0,115
-375,088	-31,790	-0,061	-0,025
-374,073	113,544	0,048	0,043
-373,058	93,934	0,023	-0,019
-372,044	-200,000	0,001	0,129
-371,029	176,250	-0,042	-0,045
-370,015	-200,000	-0,010	-0,077
-369,000	-200,000	-0,013	-0,130
-367,985	235,098	-0,036	-0,043
-366,971	-107,958	0,104	0,017
-365,956	53,501	0,167	0,118
-364,942	574,429	0,069	0,124
-363,927	-200,000	-0,018	-0,060
-362,912	-41,558	0,168	0,063
-361,898	504,719	0,072	-0,122
-360,883	-200,000	-0,018	-0,162
-359,869	-200,000	-0,006	-0,086
-358,854	-32,014	-0,075	-0,031
-357,839	800,000	0,024	0,056
-356,825	276,035	-0,044	-0,058
-355,810	76,105	0,059	0,046
-354,796	588,735	0,101	0,184
-353,781	-35,651	-0,054	0,021
-352,766	-200,000	0,000	0,025
-351,752	-200,000	-0,000	-0,025
-350,737	-47,539	0,221	-0,079
-349,723	-88,426	0,100	-0,022
-348,708	-59,282	0,080	0,025
-347,693	5,485	0,102	-0,055
-346,679	-200,000	-0,012	-0,073
-345,664	312,000	0,070	-0,097
-344,650	-103,039	0,044	-0,008
-343,635	20,267	0,020	0,012
-342,620	111,743	-0,069	0,061
-341,606	66,671	0,053	-0,040
-340,591	-200,000	-0,002	-0,118
-339,577	9,926	-0,160	-0,089
-338,562	800,000	0,017	0,052
-337,548	-22,871	-0,061	-0,027
-336,533	-9,201	0,105	0,051
-335,518	-200,000	0,007	-0,061
-334,504	185,479	-0,082	0,090
-333,489	-178,149	-0,134	0,002
-332,475	162,022	0,066	0,068
-331,460	-191,823	0,046	-0,000
-330,445	510,047	0,034	0,059
-329,431	106,572	0,104	0,091
-328,416	91,179	0,080	-0,066
-327,402	-200,000	-0,006	-0,069
-326,387	800,000	0,034	0,096
-325,372	-200,000	-0,004	-0,026
-324,358	168,968	0,009	-0,009
-323,343	-200,000	-0,008	-0,119
-322,329	800,000	-0,032	0,102
-321,314	800,000	-0,056	0,139
-320,299	-200,000	-0,014	0,119
-319,285	289,322	0,057	0,076
-318,270	702,695	0,056	-0,108
-317,256	-87,945	-0,095	-0,021
-316,241	-200,000	-0,156	0,000
-315,226	-23,787	-0,090	0,039
-314,212	-79,062	0,143	-0,035
-313,197	38,932	0,074	-0,048
-312,183	276,480	-0,035	-0,045
-311,168	800,000	-0,047	-0,126
-310,153	-54,031	-0,045	-0,015
-309,139	-29,980	0,037	-0,015
-308,124	800,000	0,031	-0,098
-307,110	-19,542	0,128	-0,058
-306,095	291,517	0,086	0,115
-305,080	-200,000	0,004	0,128
-304,066	800,000	-0,029	-0,061
-303,051	-134,766	-0,027	-0,002
-302,037	-200,000	0,030	0,136
-301,022	369,751	0,051	0,076
-300,008	-172,201	0,066	-0,002
-298,993	-26,031	-0,114	-0,049
-297,978	-200,000	0,008	0,057
-296,964	-65,341	-0,029	-0,008
-295,949	800,000	0,023	-0,051
-294,935	66,450	-0,041	0,031
-293,920	-122,507	0,090	-0,011
-292,905	800,000	-0,067	0,152
-291,891	83,742	0,080	-0,064
-290,876	408,207	0,048	0,074
-289,862	-82,778	-0,124	0,029
-288,847	800,000	-0,035	0,073
-287,832	800,000	-0,036	-0,080
-286,818	-200,000	-0,006	-0,077
-285,803	107,255	-0,012	0,010
-284,789	-157,292	0,042	0,002
-283,774	-73,603	-0,097	0,026
-282,759	431,228	0,048	-0,077
-281,745	29,525	0,066	0,041
-280,730	-200,000	0,014	-0,081
-279,716	311,619	-0,057	0,078
-278,701	506,091	0,072	-0,122
-277,686	-75,313	-0,110	0,029
-276,672	394,857	0,045	-0,069
-275,657	484,183	0,040	0,067
-274,643	-122,811	-0,110	0,013
-273,628	-71,594	-0,105	0,028
-272,613	-57,691	-0,042	-0,013
-271,599	432,758	0,066	0,105
-270,584	-40,697	-0,023	-0,009
-269,570	166,500	-0,013	-0,013
-268,555	-200,000	0,002	-0,075
-267,540	83,532	0,032	0,025
-266,526	800,000	-0,027	0,066
-265,511	-200,000	0,014	-0,053
-264,497	800,000	0,068	-0,141
-263,482	-91,212	0,057	-0,012
-262,467	-200,000	-0,018	0,113
-261,453	-81,845	-0,068	-0,016
-260,438	-180,205	0,064	-0,001
-259,424	-200,000	0,010	-0,130
-258,409	-108,850	-0,191	0,029
-257,395	-200,000	0,056	0,184
-256,380	660,248	-0,022	-0,041
-255,365	-56,824	-0,060	0,019
-254,351	-120,364	0,101	0,012
-253,336	800,000	-0,030	0,075
-252,322	-5,280	-0,102	-0,051
-251,307	6,506	-0,067	-0,036
-250,292	309,560	-0,046	-0,063
-249,278	-23,820	-0,040	-0,017
-248,263	517,865	0,030	0,052
-247,249	-111,517	-0,027	-0,004
-246,234	36,539	-0,092	-0,059
-245,219	118,261	-0,088	-0,080
-244,205	-40,117	0,121	-0,046
-243,190	75,775	-0,039	-0,030
-242,176	73,408	-0,059	0,045
-241,161	-131,814	-0,029	-0,003
-240,146	-98,123	-0,153	0,029
-239,132	329,974	0,079	0,112
-238,117	800,000	-0,019	-0,045
-237,103	-200,000	-0,015	0,061
-236,088	-114,114	0,102	-0,014
-235,073	414,779	0,122	0,190
-234,059	21,846	-0,053	0,032
-233,044	-88,329	0,166	0,036
-232,030	286,968	-0,033	-0,044
-231,015	-200,000	-0,027	-0,172
-230,000	232,360	0,083	0,100
-228,986	200,249	-0,053	-0,059
-227,971	-200,000	0,015	-0,086
-226,957	-139,010	0,021	-0,002
-225,942	-200,000	0,021	0,076
-224,927	-200,000	0,004	-0,142
-223,913	800,000	0,049	0,122
-222,898	139,697	-0,108	-0,104
-221,884	-96,540	0,109	0,021
-220,869	800,000	0,016	0,042
-219,855	-200,000	-0,016	-0,106
-218,840	291,567	0,030	-0,040
-217,825	-200,000	-0,039	0,205
-216,811	-200,000	-0,030	-0,107
-215,796	800,000	0,032	-0,082
-214,782	800,000	0,013	-0,028
-213,767	-30,520	-0,044	-0,018
-212,752	154,786	0,039	0,039
-211,738	21,554	0,096	0,057
-210,723	-200,000	-0,002	-0,017
-209,709	36,902	-0,099	-0,064
-208,694	-200,000	0,003	0,085
-207,679	-21,862	-0,039	-0,017
-206,665	361,373	0,079	0,116
-205,650	-200,000	0,006	-0,025
-204,636	207,619	0,104	0,119
-203,621	252,769	0,100	0,124
-202,606	-14,972	-0,041	0,019
-201,592	-200,000	0,006	-0,023
-200,577	24,888	-0,083	-0,050
-199,563	-85,106	-0,096	-0,022
-198,548	800,000	-0,023	0,056
-197,533	800,000	-0,040	0,120
-196,519	-200,000	0,010	0,190
-195,504	-200,000	-0,007	-0,077
-194,490	104,049	-0,009	-0,007
-193,475	376,732	0,080	-0,120
-192,460	800,000	-0,009	0,019
-191,446	16,370	0,092	-0,053
-190,431	-144,291	0,145	-0,010
-189,417	800,000	-0,020	-0,063
-188,402	-200,000	0,005	0,025
-187,387	-17,181	-0,140	0,064
-186,373	-33,666	-0,108	0,043
-185,358	74,695	0,071	0,054
-184,344	-200,000	0,003	-0,050
-183,329	-33,270	0,106	-0,043
-182,315	-200,000	0,004	0,133
-181,300	-200,000	0,011	0,043
-180,285	-65,507	-0,110	-0,032
-179,271	-200,000	0,012	-0,102
-178,256	36,444	0,060	0,039
-177,242	-51,905	0,050	0,017
-176,227	-21,009	0,093	0,041
-175,212	84,626	-0,030	-0,024
-174,198	-200,000	0,038	0,142
-173,183	800,000	0,042	0,103
-172,169	147,043	0,020	0,020
-171,154	-200,000	-0,026	-0,170
-170,139	559,829	-0,070	0,124
-169,125	367,544	0,047	0,069
-168,110	60,681	-0,011	-0,008
-167,096	15,599	-0,133	0,076
-166,081	716,537	-0,067	-0,130
-165,066	-200,000	0,008	-0,028
-164,052	146,580	-0,050	-0,049
-163,037	-200,000	-0,028	0,138
-162,023	-120,322	-0,073	-0,009
-161,008	342,503	0,089	0,127
-159,993	232,577	-0,043	-0,052
-158,979	-200,000	0,001	0,030
-157,964	-14,104	0,121	0,056
-156,950	122,585	-0,014	-0,013
-155,935	41,846	0,150	-0,099
-154,920	-30,851	0,165	-0,067
-153,906	-200,000	-0,000	-0,026
-152,891	-134,299	0,106	-0,009
-151,877	-200,000	0,019	0,086
-150,862	1,891	-0,072	0,038
-149,847	-58,917	0,065	0,020
-148,833	-49,299	-0,052	0,018
-147,818	-151,918	-0,029	-0,002
-146,804	83,843	0,109	0,087
-145,789	-150,843	-0,155	0,008
-144,775	-106,155	-0,052	0,008
-143,760	-138,572	-0,066	-0,005
-142,745	119,992	-0,107	-0,097
-141,731	800,000	-0,027	0,055
-140,716	800,000	0,065	0,165
-139,702	0,180	0,018	-0,010
-138,687	-29,394	0,078	-0,033
-137,672	-153,682	-0,110	-0,005
-136,658	269,073	0,039	-0,049
-135,643	-184,883	-0,088	-0,001
-134,629	621,525	0,054	0,100
-133,614	-26,546	0,183	-0,078
-132,599	-132,541	-0,036	0,003
-131,585	800,000	-0,052	0,148
-130,570	800,000	0,041	-0,124
-129,556	514,604	0,028	0,047
-128,541	-118,179	-0,096	0,012
-127,526	-200,000	-0,017	0,075
-126,512	-143,406	-0,085	-0,006
-125,497	800,000	-0,040	-0,085
-124,483	-27,295	0,003	-0,001
-123,468	-56,435	-0,050	0,016
-122,453	-77,053	-0,151	0,038
-121,439	-200,000	-0,015	0,047
-120,424	800,000	0,029	-0,086
-119,410	473,952	-0,005	-0,008
-118,395	-200,000	-0,032	0,180
-117,380	-108,688	0,049	0,008
-116,366	-200,000	-0,001	0,028
-115,351	255,959	-0,047	-0,059
-114,337	-200,000	0,008	-0,037
-113,322	105,236	-0,104	-0,089
-112,307	-38,463	0,010	-0,004
-111,293	-200,000	-0,006	0,072
-110,278	297,523	0,162	0,217
-109,264	-151,543	0,070	-0,004
-108,249	-173,791	-0,154	0,003
-107,234	194,871	0,042	0,046
-106,220	-200,000	0,009	0,101
-105,205	800,000	0,036	-0,076
-104,191	47,529	0,137	0,092
-103,176	-200,000	0,005	-0,024
-102,162	-68,602	0,181	0,051
-101,147	148,539	-0,036	0,036
-100,132	-187,279	-0,123	-0,001
-99,118	-200,000	-0,010	-0,051
-98,103	-200,000	0,036	-0,167
-97,089	797,873	0,056	0,113
-96,074	-200,000	-0,004	0,064
-95,059	-66,028	-0,099	-0,029
-94,045	33,974	0,108	-0,068
-93,030	-6,310	-0,105	-0,052
-92,016	800,000	0,038	0,094
-91,001	800,000	0,035	0,077
-89,986	139,036	0,121	0,116
-88,972	369,813	0,019	0,028
-87,957	181,454	-0,072	0,077
-86,943	61,647	-0,066	-0,047
-85,928	-200,000	-0,018	-0,066
-84,913	-108,231	-0,008	0,001
-83,899	-57,949	-0,024	0,008
-82,884	42,177	-0,035	-0,023
-81,870	-200,000	-0,024	-0,094
-80,855	-200,000	0,022	0,075
-79,840	10,753	-0,066	-0,037
-78,826	-200,000	0,024	0,087
-77,811	-8,040	0,021	0,010
-76,797	-141,457	0,102	-0,007
-75,782	488,247	0,082	0,137
-74,767	11,438	0,125	0,069
-73,753	-200,000	-0,025	0,146
-72,738	-200,000	-0,008	0,099
-71,724	-31,069	0,134	-0,055
-70,709	-69,887	-0,204	0,056
-69,694	-30,520	-0,041	-0,017
-68,680	-114,113	-0,058	0,008
-67,665	598,618	0,039	0,070
-66,651	12,248	0,185	0,103
-65,636	800,000	0,026	0,064
-64,622	448,176	0,041	0,065
-63,607	2,106	-0,099	-0,052
-62,592	-200,000	-0,002	-0,059
-61,578	308,405	0,028	0,037
-60,563	149,106	-0,036	0,036
-59,549	698,335	-0,059	0,113
-58,534	-167,374	-1,330	-0,038
-57,519	589,688	-0,780	-1,401
-56,505	-200,000	-0,843	-4,433
-55,490	-30,487	0,523	-0,214
-54,476	800,000	4,996	11,915
-53,461	-200,000	13,361	252,382
-52,446	-200,000	688,126	2266,916
-51,432	596,423	1622,308	2927,310
-50,417	120,751	1635,856	1475,688
-49,403	73,591	1290,204	979,566
-48,388	38,415	1024,755	661,284
-47,373	24,523	982,119	588,085
-46,359	23,707	972,064	579,365
-45,344	22,747	967,738	573,626
-44,330	22,674	966,428	572,589
-43,315	22,629	964,761	571,432
-42,300	22,617	963,791	570,795
-41,286	22,564	962,980	570,118
-40,271	22,529	962,104	569,465
-39,257	22,638	960,966	569,123
-38,242	22,595	960,101	568,447
-37,227	22,626	959,138	567,957
-36,213	22,569	958,345	567,279
-35,198	22,548	957,517	566,698
-34,184	22,580	956,842	566,379
-33,169	22,557	955,854	565,697
-32,154	22,569	955,097	565,265
-31,140	22,576	954,215	564,745
-30,125	22,616	953,479	564,416
-29,111	22,625	952,636	563,922
-28,096	22,617	952,002	563,498
-27,082	22,594	951,295	562,985
-26,067	22,589	950,509	562,480
-25,052	22,588	949,730	561,996
-24,038	22,587	949,219	561,668
-23,023	22,586	948,512	561,223
-22,009	22,634	947,744	560,899
-20,994	22,626	947,062	560,449
-19,979	22,620	946,519	560,087
-18,965	22,618	946,017	559,759
-17,950	22,651	945,284	559,410
-16,936	22,549	944,604	558,660
-15,921	22,527	944,055	558,244
-14,906	22,514	943,166	557,653
-13,892	22,464	942,791	557,250
-12,877	22,490	941,984	556,834
-11,863	22,438	941,368	556,282
-10,848	22,430	940,719	555,852
-9,833	22,526	940,517	556,015
-8,819	22,580	939,707	555,685
-7,804	22,504	938,927	554,960
-6,790	22,514	938,449	554,687
-5,775	22,533	937,821	554,356
-4,760	22,501	937,302	553,924
-3,746	22,500	936,684	553,533
-2,731	22,350	936,078	552,681
-1,717	22,392	935,034	552,176
-0,702	22,264	934,550	551,465
0,313	22,062	933,956	551,310
1,327	25,076	931,929	559,543
2,342	34,776	796,811	504,274
3,356	32,883	452,071	283,221
4,371	2,087	293,865	153,379
5,386	-2,438	274,688	139,075
6,400	-4,109	269,072	134,669
7,415	-4,401	266,501	133,102
8,429	-4,131	265,434	132,804
9,444	-4,177	264,440	132,253
10,459	-4,148	263,865	131,980
11,473	-4,374	263,283	131,473
12,488	-4,393	262,876	131,239
13,502	-4,655	262,309	130,708
14,517	-4,637	261,820	130,469
15,531	-4,401	261,495	130,508
16,546	-4,385	260,991	130,260
17,561	-4,477	260,638	129,989
18,575	-4,256	260,287	130,001
19,590	-4,395	259,942	129,693
20,604	-4,194	259,531	129,655
21,619	-4,539	259,493	129,317
22,634	-4,329	259,035	129,264
23,648	-4,420	258,688	128,998
24,663	-4,413	258,540	128,919
25,677	-4,456	258,270	128,735
26,692	-4,561	258,123	128,557
27,707	-4,670	257,834	128,305
28,721	-4,486	257,532	128,306
29,736	-4,346	257,077	128,192
30,750	-4,461	256,967	128,024
31,765	-4,606	256,768	127,785
32,780	-4,478	256,575	127,791
33,794	-4,564	256,404	127,619
34,809	-4,338	256,037	127,623
35,823	-4,517	255,862	127,367
36,838	-4,490	255,542	127,221
37,853	-4,675	255,381	126,966
38,867	-4,550	255,119	126,934
39,882	-4,528	254,970	126,868
40,896	-4,497	254,611	126,705
41,911	-4,364	254,322	126,667
42,926	-4,621	254,304	126,421
43,940	-4,612	254,116	126,325
44,955	-4,783	253,845	126,030
45,969	-4,776	253,530	125,867
46,984	-5,027	253,220	125,484
47,999	-5,037	252,916	125,313
49,013	-5,170	252,839	125,148
50,028	-5,270	252,626	124,945
51,042	-5,528	252,312	124,555
52,057	-5,415	252,039	124,507
53,071	-5,503	252,077	124,438
54,086	-5,301	251,812	124,471
55,101	-4,940	251,480	124,608
56,115	-5,046	251,470	124,500
57,130	-4,582	251,303	124,807
58,144	-4,164	251,099	125,055
59,159	-4,270	250,952	124,880
60,174	-4,372	250,897	124,753
61,188	-4,316	250,679	124,682
62,203	-4,276	250,371	124,552
63,217	-4,289	250,142	124,416
64,232	-4,466	250,034	124,199
65,247	-4,356	249,799	124,166
66,261	-4,247	249,432	124,065
67,276	-4,574	249,201	123,659
68,290	-4,875	249,035	123,309
69,305	-4,852	248,680	123,142
70,320	-4,757	248,557	123,151
71,334	-4,532	248,397	123,252
72,349	-4,373	248,288	123,323
73,363	-4,114	248,076	123,427
74,378	-4,398	248,015	123,144
75,393	-4,497	247,724	122,905
76,407	-4,359	247,649	122,973
77,422	-4,313	247,333	122,845
78,436	-4,396	247,193	122,694
79,451	-4,558	247,022	122,461
80,466	-4,456	246,653	122,353
81,480	-4,477	246,395	122,197
82,495	-4,534	246,131	122,007
83,509	-4,539	246,008	121,930
84,524	-4,649	245,984	121,816
85,539	-4,739	245,666	121,571
86,553	-4,971	245,605	121,334
87,568	-4,738	245,260	121,349
88,582	-4,655	245,104	121,331
89,597	-4,822	244,887	121,072
90,611	-4,666	245,030	121,263
91,626	-4,422	244,673	121,280
92,641	-4,603	244,605	121,084
93,655	-4,423	244,293	121,070
94,670	-4,660	244,067	120,749
95,684	-4,856	244,000	120,541
96,699	-4,758	243,847	120,536
97,714	-4,800	243,626	120,382
98,728	-4,825	243,290	120,184
99,743	-4,980	243,143	119,972
100,757	-5,110	242,941	119,754
101,772	-4,811	242,651	119,848
102,787	-4,623	242,682	120,009
103,801	-4,653	242,415	119,841
104,816	-4,621	242,284	119,793
105,830	-4,522	242,154	119,799
106,845	-4,239	241,910	119,902
107,860	-4,598	241,781	119,530
108,874	-4,546	241,583	119,465
109,889	-4,694	241,309	119,197
110,903	-4,482	241,060	119,238
111,918	-4,663	240,921	119,009
112,933	-4,695	240,867	118,946
113,947	-4,472	240,568	118,970
114,962	-4,556	240,498	118,856
115,976	-4,468	240,328	118,834
116,991	-4,601	240,177	118,640
118,006	-4,537	240,015	118,601
119,020	-4,669	240,013	118,482
120,035	-4,390	239,721	118,556
121,049	-4,481	239,604	118,413
122,064	-4,338	239,314	118,376
123,079	-4,577	239,207	118,117
124,093	-4,522	239,019	118,058
125,108	-4,623	238,780	117,847
126,122	-4,887	238,468	117,468
127,137	-5,010	238,333	117,291
128,151	-4,840	238,146	117,327
129,166	-4,671	238,007	117,385
130,181	-4,756	237,728	117,168
131,195	-4,838	237,563	117,009
132,210	-4,760	237,566	117,064
133,224	-4,644	237,503	117,117
134,239	-4,536	237,195	117,042
135,254	-4,482	237,095	117,026
136,268	-4,513	236,819	116,853
137,283	-4,684	236,575	116,585
138,297	-5,058	236,516	116,243
139,312	-4,802	236,082	116,226
140,327	-4,670	236,055	116,309
141,341	-4,215	236,253	116,763
142,356	-4,360	236,070	116,545
143,370	-4,224	235,840	116,531
144,385	-4,317	235,765	116,409
145,400	-4,089	235,494	116,447
146,414	-4,025	235,345	116,414
147,429	-4,236	235,090	116,109
148,443	-4,318	235,026	116,002
149,458	-4,085	234,739	116,036
150,473	-4,318	234,781	115,860
151,487	-4,354	234,425	115,645
152,502	-4,260	234,359	115,677
153,516	-4,064	234,130	115,710
154,531	-4,320	234,089	115,475
155,546	-4,298	233,771	115,326
156,560	-4,430	233,623	115,137
157,575	-4,313	233,476	115,147
158,589	-4,459	233,269	114,919
159,604	-4,455	233,254	114,905
160,619	-4,141	233,059	115,048
161,633	-4,197	232,882	114,906
162,648	-4,073	232,741	114,924
163,662	-4,512	232,684	114,538
164,677	-4,456	232,397	114,431
165,692	-4,068	232,174	114,617
166,706	-4,048	232,173	114,622
167,721	-4,231	231,916	114,341
168,735	-4,145	231,739	114,312
169,750	-4,006	231,632	114,358
170,764	-4,139	231,475	114,165
171,779	-4,425	231,519	113,952
172,794	-3,815	231,164	114,246
173,808	-4,010	230,901	113,953
174,823	-4,841	230,596	113,140
175,837	-4,910	230,535	113,047
176,852	-4,577	230,518	113,290
177,867	-4,177	230,258	113,464
178,881	-4,134	230,245	113,482
179,896	-4,151	230,192	113,432
180,910	-4,009	230,010	113,443
181,925	-3,939	229,673	113,322
182,940	-4,189	229,650	113,106
183,954	-4,007	229,314	113,071
184,969	-4,118	229,387	113,011
185,983	-3,938	229,174	113,036
186,998	-3,996	229,198	112,992
188,013	-3,895	228,817	112,873
189,027	-4,047	228,766	112,719
190,042	-3,937	228,575	112,701
191,056	-4,055	228,452	112,538
192,071	-4,133	228,231	112,360
193,086	-4,141	228,059	112,259
194,100	-4,084	227,969	112,248
195,115	-4,417	227,700	111,849
196,129	-4,637	227,324	111,483
197,144	-1,087	228,466	114,785
198,159	2,778	229,770	118,435
199,173	4,265	229,834	119,611
200,188	4,123	229,768	119,456
201,202	4,183	229,599	119,404
202,217	4,127	229,453	119,275
203,232	4,538	229,415	119,562
204,246	4,562	229,257	119,488
205,261	4,592	229,150	119,445
206,275	4,899	229,077	119,633
207,290	4,464	229,074	119,285
208,304	4,904	228,747	119,444
209,319	4,610	228,583	119,121
210,334	4,588	228,322	118,957
211,348	4,342	228,267	118,728
212,363	4,055	227,889	118,301
213,377	3,953	227,632	118,078
214,392	3,996	227,446	118,004
215,407	3,955	227,240	117,855
216,421	4,057	227,305	117,957
217,436	3,847	227,049	117,653
218,450	3,788	226,849	117,493
219,465	3,701	226,763	117,372
220,480	3,837	226,638	117,401
221,494	3,655	226,460	117,159
222,509	3,882	226,333	117,256
223,523	3,784	226,179	117,091
224,538	3,794	225,932	116,961
225,553	3,916	225,867	117,009
226,567	3,901	225,788	116,947
227,582	4,047	225,594	116,947
228,596	4,311	225,538	117,107
229,611	3,985	225,283	116,717
230,626	3,695	225,193	116,441
231,640	3,978	224,869	116,477
232,655	4,092	225,021	116,632
233,669	4,405	224,906	116,799
234,684	4,641	224,772	116,896
235,699	4,406	224,507	116,571
236,713	4,195	224,342	116,315
237,728	3,978	224,109	116,021
238,742	3,992	223,985	115,957
239,757	3,963	223,787	115,823
240,772	3,803	223,601	115,595
241,786	3,872	223,496	115,583
242,801	4,070	223,424	115,684
243,815	4,344	223,435	115,885
244,830	4,154	223,233	115,627
245,844	4,134	223,023	115,493
246,859	3,961	222,815	115,246
247,874	4,378	222,708	115,492
248,888	4,264	222,688	115,386
249,903	4,227	222,418	115,209
250,917	3,852	222,417	114,918
251,932	4,146	222,109	114,968
252,947	3,694	221,916	114,520
253,961	3,790	221,897	114,572
254,976	3,715	221,780	114,445
255,990	4,068	221,413	114,509
257,005	4,398	221,306	114,688
258,020	4,176	221,380	114,551
259,034	4,184	221,340	114,526
260,049	4,059	220,977	114,235
261,063	3,985	220,885	114,122
262,078	4,205	220,841	114,253
263,093	4,396	220,632	114,276
264,107	4,400	220,559	114,231
265,122	4,296	220,399	114,061
266,136	4,448	220,282	114,103
267,151	4,432	220,148	114,011
268,166	4,199	219,774	113,635
269,180	3,849	219,576	113,265
270,195	3,700	219,460	113,085
271,209	3,862	219,446	113,187
272,224	3,919	219,255	113,121
273,239	4,123	219,165	113,214
274,253	3,924	218,957	112,950
275,268	3,743	218,735	112,693
276,282	3,758	218,562	112,605
277,297	3,570	218,360	112,354
278,312	3,913	218,113	112,467
279,326	3,709	218,340	112,425
280,341	3,840	218,250	112,464
281,355	4,086	218,094	112,554
282,370	4,053	217,744	112,339
283,384	3,610	217,721	111,993
284,399	3,407	217,464	111,703
285,414	3,469	217,454	111,734
286,428	3,959	217,255	111,978
287,443	4,197	217,191	112,108
288,457	4,121	217,112	112,003
289,472	3,802	216,941	111,672
290,487	3,548	216,543	111,273
291,501	3,447	216,412	111,122
292,516	3,677	216,215	111,178
293,530	3,547	216,397	111,168
294,545	3,520	216,092	110,981
295,560	3,865	216,062	111,205
296,574	3,959	215,922	111,192
297,589	3,929	215,820	111,108
298,603	4,029	215,656	111,086
299,618	3,928	215,510	110,927
300,633	4,089	215,423	110,989
301,647	3,981	215,398	110,888
302,662	4,162	215,216	110,915
303,676	4,102	215,003	110,752
304,691	4,274	214,826	110,775
305,706	4,139	214,707	110,606
306,720	4,413	214,550	110,713
307,735	3,964	214,402	110,304
308,749	3,786	214,182	110,054
309,764	3,965	214,314	110,240
310,779	4,204	214,053	110,267
311,793	4,280	213,895	110,230
312,808	4,050	213,750	109,981
313,822	4,165	213,580	109,966
314,837	4,164	213,341	109,832
315,852	3,824	213,127	109,470
316,866	3,937	213,116	109,535
317,881	4,183	213,117	109,701
318,895	4,280	212,925	109,662
319,910	3,898	212,779	109,305
320,925	3,692	212,479	108,995
321,939	3,448	212,208	108,674
322,954	3,540	212,219	108,735
323,968	4,016	212,337	109,123
324,983	3,999	212,074	108,966
325,997	4,322	212,025	109,160
327,012	4,201	211,802	108,949
328,027	3,998	211,651	108,719
329,041	4,591	211,589	109,096
330,056	4,351	211,669	108,958
331,070	4,177	211,289	108,630
332,085	3,626	211,032	108,100
333,100	3,832	210,982	108,210
334,114	3,910	210,790	108,157
335,129	4,065	210,711	108,216
336,143	3,743	210,491	107,866
337,158	3,659	210,477	107,790
338,173	3,912	210,239	107,837
339,187	3,612	210,152	107,573
340,202	3,813	209,856	107,552
341,216	3,493	209,948	107,365
342,231	3,787	209,816	107,494
343,246	3,650	209,601	107,278
344,260	3,710	209,479	107,248
345,275	3,638	209,530	107,215
346,289	3,836	209,315	107,233
347,304	4,003	209,241	107,302
348,319	3,836	209,028	107,067
349,333	3,876	208,886	107,012
350,348	3,982	208,729	106,996
351,362	4,078	208,726	107,053
352,377	4,123	208,570	106,994
353,392	4,004	208,295	106,761
354,406	3,964	208,308	106,730
355,421	194,453	1345,695	1436,120
356,435	155,168	1484,376	1436,234
