DTS Sentinel unit serial number:	SN410029Multiplexer serial number:	ORYXHardware model number:	OX2-SRSoftware version number:	ORYX F/W v4,00 Oryx Data Collector v3.7.2.0data status	okinstallation	B6 Nyhavnadifferential loss correction	single-endedforward channel	channel 2reverse channel	N/Adate	2023/12/10time	21:40:08forward acquisition time	300,00reverse acquisition time	0,00gamma	499,1914k internal	0,3123k external	0,3123temperature offset calibration	1,0000default loss term (dB/km)	0,3820temperature slope calibration	1,0000multiplexer offset coefficient	1,0000multiplexer slope coefficient	1,0000fibre end	0,00T internal ref (°C)	22,30T ext. ref 1 (°C)	6,06T ext. ref 2 (°C)	6,06length (m)	temperature (°C)	Stokes	anti-Stokes-744,400	27,052	0,080	-0,050
-743,385	23,106	-0,180	0,110
-742,371	-60,988	-0,066	0,021
-741,356	-21,797	-0,200	0,090
-740,342	534,665	-0,046	0,082
-739,327	-80,732	-0,265	0,065
-738,312	-200,000	-0,010	-0,075
-737,298	-22,433	-0,210	0,094
-736,283	360,140	0,069	0,104
-735,269	-84,953	-0,238	0,055
-734,254	-80,468	-0,119	-0,029
-733,239	-41,473	-0,303	-0,115
-732,225	230,281	0,105	-0,128
-731,210	-200,000	0,012	0,065
-730,196	-42,017	-0,088	0,033
-729,181	-63,006	-0,114	-0,035
-728,167	-11,172	0,101	0,049
-727,152	-51,470	0,105	0,036
-726,137	800,000	-0,034	-0,090
-725,123	-33,447	-0,108	-0,044
-724,108	-200,000	-0,015	-0,121
-723,094	54,594	0,023	-0,016
-722,079	800,000	-0,060	-0,144
-721,064	-93,884	-0,057	0,012
-720,050	800,000	-0,040	-0,100
-719,035	800,000	-0,049	-0,160
-718,021	-200,000	0,048	-0,187
-717,006	763,029	-0,072	-0,146
-715,991	8,083	0,072	-0,040
-714,977	19,629	-0,052	-0,031
-713,962	-40,172	-0,145	-0,056
-712,948	339,184	-0,018	0,027
-711,933	-200,000	-0,005	-0,039
-710,918	-38,454	-0,106	0,041
-709,904	97,314	0,039	0,034
-708,889	64,386	-0,136	-0,102
-707,875	557,710	-0,039	-0,070
-706,860	-35,694	0,076	0,030
-705,845	-22,540	0,047	0,021
-704,831	-48,093	-0,007	-0,002
-703,816	-42,881	-0,066	-0,025
-702,802	-25,267	-0,112	0,049
-701,787	149,810	-0,116	-0,117
-700,772	800,000	0,029	0,070
-699,758	800,000	0,014	0,029
-698,743	-48,747	0,145	0,052
-697,729	-16,714	-0,073	-0,034
-696,714	165,997	-0,043	-0,046
-695,699	619,141	-0,075	0,140
-694,685	-74,486	-0,097	-0,026
-693,670	800,000	-0,007	-0,018
-692,656	92,769	-0,057	-0,048
-691,641	330,466	-0,066	0,095
-690,627	23,492	0,166	0,101
-689,612	62,514	-0,041	-0,030
-688,597	-200,000	-0,003	-0,118
-687,583	-200,000	-0,013	0,050
-686,568	68,287	0,018	0,014
-685,554	72,730	0,032	-0,025
-684,539	-200,000	-0,006	-0,025
-683,524	-35,513	-0,099	-0,040
-682,510	-116,021	0,064	-0,009
-681,495	174,822	-0,073	-0,078
-680,481	414,733	-0,045	0,072
-679,466	15,407	-0,043	-0,025
-678,451	19,394	-0,133	-0,079
-677,437	217,307	-0,048	-0,057
-676,422	37,325	-0,136	0,089
-675,408	29,181	-0,072	0,045
-674,393	41,324	0,016	-0,011
-673,378	463,306	-0,114	-0,191
-672,364	-200,000	-0,008	-0,028
-671,349	7,761	-0,063	-0,035
-670,335	-36,362	0,103	0,041
-669,320	264,660	0,100	0,130
-668,305	589,851	0,043	-0,079
-667,291	168,426	0,091	-0,096
-666,276	-107,336	-0,031	-0,005
-665,262	-106,919	-0,006	-0,001
-664,247	-127,807	-0,146	-0,015
-663,232	-200,000	0,024	-0,080
-662,218	-200,000	0,002	0,103
-661,203	148,558	-0,095	0,095
-660,189	-39,987	0,044	0,017
-659,174	-200,000	0,003	-0,011
-658,159	536,830	-0,068	-0,121
-657,145	113,281	-0,071	0,064
-656,130	-75,112	0,070	-0,019
-655,116	-27,417	-0,142	0,061
-654,101	-200,000	0,000	0,090
-653,086	-33,954	0,114	0,046
-652,072	-200,000	0,005	-0,053
-651,057	75,605	0,072	0,056
-650,043	-105,216	-0,054	-0,009
-649,028	800,000	0,036	0,086
-648,014	800,000	0,054	-0,114
-646,999	-200,000	-0,005	-0,036
-645,984	-16,971	0,069	0,032
-644,970	-200,000	-0,033	-0,131
-643,955	23,684	-0,062	0,038
-642,941	800,000	-0,008	-0,023
-641,926	-41,435	-0,034	0,013
-640,911	-132,950	0,151	0,014
-639,897	-38,399	0,073	0,028
-638,882	-200,000	0,011	-0,038
-637,868	-186,734	0,031	-0,000
-636,853	-167,419	-0,190	0,006
-635,838	47,997	0,074	0,051
-634,824	167,360	0,035	0,037
-633,809	-89,691	0,074	-0,016
-632,795	-119,759	0,088	-0,011
-631,780	-111,059	-0,149	-0,022
-630,765	-98,440	-0,056	0,011
-629,751	800,000	-0,056	0,121
-628,736	-162,012	0,099	-0,004
-627,722	-136,244	-0,063	-0,005
-626,707	-87,395	0,057	0,013
-625,692	800,000	0,067	0,159
-624,678	-109,614	0,036	0,006
-623,663	-200,000	0,005	0,035
-622,649	38,841	-0,068	0,045
-621,634	27,832	0,088	-0,055
-620,619	144,048	-0,106	-0,105
-619,605	281,241	0,029	-0,038
-618,590	800,000	0,023	0,060
-617,576	-200,000	-0,000	-0,113
-616,561	800,000	-0,041	0,104
-615,546	800,000	-0,028	0,083
-614,532	173,566	-0,053	-0,057
-613,517	-5,206	-0,109	-0,056
-612,503	1,137	-0,019	-0,010
-611,488	166,634	0,070	0,074
-610,474	800,000	-0,030	-0,077
-609,459	-200,000	-0,030	0,121
-608,444	236,992	-0,087	-0,107
-607,430	-200,000	0,036	-0,208
-606,415	754,350	-0,060	-0,120
-605,401	-11,449	0,019	-0,009
-604,386	800,000	0,009	-0,019
-603,371	320,874	0,053	0,075
-602,357	-200,000	0,023	-0,097
-601,342	61,980	-0,169	-0,124
-600,328	-54,335	-0,125	0,042
-599,313	-200,000	0,002	-0,006
-598,298	240,956	0,080	-0,099
-597,284	-3,181	-0,050	0,026
-596,269	-200,000	0,004	0,216
-595,255	-83,802	0,017	0,004
-594,240	-125,121	-0,127	0,014
-593,225	800,000	0,036	-0,084
-592,211	749,945	0,068	-0,137
-591,196	122,094	-0,083	-0,077
-590,182	140,246	-0,089	0,087
-589,167	-200,000	-0,001	0,058
-588,152	-67,648	-0,023	-0,007
-587,138	-75,681	0,074	0,019
-586,123	-20,949	0,127	-0,058
-585,109	-32,625	0,033	-0,013
-584,094	5,472	0,090	0,049
-583,079	91,945	0,042	-0,035
-582,065	23,284	-0,169	0,103
-581,050	-147,401	0,070	0,004
-580,036	-102,778	-0,107	0,019
-579,021	-21,413	-0,111	0,050
-578,006	-43,354	0,127	-0,047
-576,992	-44,064	-0,046	-0,017
-575,977	-45,362	0,034	0,012
-574,963	-200,000	0,026	0,088
-573,948	800,000	-0,073	0,157
-572,934	-113,472	0,113	0,016
-571,919	-131,849	-0,091	-0,009
-570,904	138,919	-0,045	0,044
-569,890	-69,505	-0,059	-0,017
-568,875	-200,000	-0,046	0,191
-567,861	-68,072	0,133	-0,038
-566,846	266,743	0,043	-0,056
-565,831	-82,656	-0,140	0,033
-564,817	800,000	-0,059	-0,140
-563,802	65,944	-0,189	-0,142
-562,788	-145,390	-0,125	-0,008
-561,773	-100,836	-0,070	-0,013
-560,758	800,000	0,031	0,092
-559,744	-200,000	0,027	0,175
-558,729	578,613	-0,050	0,091
-557,715	-97,165	-0,054	-0,010
-556,700	-200,000	-0,004	-0,123
-555,685	148,123	-0,087	-0,087
-554,671	338,422	0,035	-0,050
-553,656	35,304	0,057	0,037
-552,642	-200,000	-0,008	-0,081
-551,627	45,062	0,036	-0,025
-550,612	-34,356	-0,064	-0,026
-549,598	-9,478	-0,054	-0,027
-548,583	4,489	-0,074	0,040
-547,569	163,083	-0,067	0,070
-546,554	675,133	-0,055	0,107
-545,539	800,000	0,024	0,067
-544,525	35,013	0,057	-0,037
-543,510	-68,742	-0,131	-0,037
-542,496	-194,903	0,155	-0,001
-541,481	-200,000	0,001	-0,168
-540,466	132,094	0,054	0,052
-539,452	39,679	0,088	0,058
-538,437	172,864	0,047	-0,051
-537,423	27,212	0,109	-0,067
-536,408	502,715	0,020	0,035
-535,393	-200,000	-0,007	-0,042
-534,379	-109,361	-0,148	-0,023
-533,364	31,062	-0,076	0,048
-532,350	-200,000	0,014	0,086
-531,335	9,352	0,130	0,073
-530,321	-144,291	-0,105	0,007
-529,306	68,749	-0,050	0,038
-528,291	198,754	-0,028	0,032
-527,277	-58,485	-0,124	0,040
-526,262	57,219	0,093	-0,067
-525,248	-74,058	-0,049	0,013
-524,233	226,859	0,038	-0,046
-523,218	-200,000	0,009	0,113
-522,204	800,000	0,030	0,067
-521,189	800,000	0,049	-0,118
-520,175	-200,000	-0,000	0,099
-519,160	800,000	-0,015	0,034
-518,145	-16,941	0,055	0,026
-517,131	-200,000	-0,005	0,025
-516,116	-200,000	0,028	-0,095
-515,102	135,840	0,080	-0,077
-514,087	9,272	-0,072	-0,040
-513,072	100,010	-0,056	-0,048
-512,058	-195,155	0,101	0,001
-511,043	-200,000	0,011	-0,153
-510,029	130,140	-0,058	-0,055
-509,014	-200,000	0,017	-0,081
-507,999	-78,852	0,019	-0,005
-506,985	184,567	-0,058	0,064
-505,970	210,118	0,085	-0,098
-504,956	177,110	0,018	0,019
-503,941	-200,000	-0,030	0,101
-502,926	-143,055	0,061	-0,004
-501,912	800,000	0,045	0,094
-500,897	-200,000	0,006	-0,067
-499,883	-200,000	0,012	-0,107
-498,868	17,640	-0,045	-0,027
-497,853	8,263	0,039	0,021
-496,839	20,048	0,066	-0,039
-495,824	97,879	0,058	-0,049
-494,810	100,922	-0,104	0,090
-493,795	800,000	0,022	0,063
-492,781	-200,000	-0,014	-0,108
-491,766	355,129	-0,068	-0,100
-490,751	692,957	0,046	0,089
-489,737	688,015	0,061	0,119
-488,722	147,119	-0,064	-0,063
-487,708	15,420	0,111	0,064
-486,693	342,192	-0,036	0,052
-485,678	800,000	-0,009	0,021
-484,664	800,000	0,032	0,070
-483,649	-140,959	-0,120	-0,009
-482,635	-200,000	-0,004	-0,033
-481,620	482,270	-0,140	0,235
-480,605	181,849	-0,041	0,044
-479,591	800,000	-0,023	-0,055
-478,576	-72,363	-0,085	-0,023
-477,562	-200,000	0,003	-0,032
-476,547	-125,248	0,047	0,005
-475,532	-200,000	-0,069	0,228
-474,518	5,341	-0,017	0,009
-473,503	535,081	0,035	0,062
-472,489	800,000	0,067	0,144
-471,474	800,000	-0,035	-0,101
-470,459	74,898	-0,068	-0,053
-469,445	-52,510	-0,087	-0,030
-468,430	497,385	0,072	-0,123
-467,416	-200,000	-0,004	-0,098
-466,401	-200,000	0,004	0,189
-465,386	243,476	-0,013	0,016
-464,372	-82,431	-0,067	-0,016
-463,357	78,468	-0,076	0,060
-462,343	22,391	0,117	0,071
-461,328	-200,000	0,013	-0,113
-460,313	128,311	-0,039	0,037
-459,299	-101,034	0,131	0,024
-458,284	-200,000	0,040	0,175
-457,270	417,499	-0,075	-0,118
-456,255	-200,000	0,016	-0,090
-455,241	195,570	0,033	-0,037
-454,226	-132,072	-0,196	0,018
-453,211	-200,000	0,016	0,182
-452,197	41,502	0,009	0,006
-451,182	-36,526	0,111	0,044
-450,168	388,005	0,046	0,070
-449,153	220,215	0,109	-0,128
-448,138	-200,000	-0,005	-0,137
-447,124	-200,000	-0,001	-0,151
-446,109	-90,154	-0,097	-0,021
-445,095	-69,883	0,148	0,041
-444,080	-46,871	0,113	-0,041
-443,065	385,394	-0,041	-0,062
-442,051	-88,057	0,046	0,010
-441,036	714,757	0,005	0,010
-440,022	11,978	0,126	0,071
-439,007	-200,000	0,001	0,119
-437,992	589,525	-0,031	0,056
-436,978	-200,000	0,005	0,026
-435,963	-114,662	0,033	0,005
-434,949	-27,336	0,087	-0,037
-433,934	178,027	-0,024	0,026
-432,919	145,315	-0,040	0,040
-431,905	-100,641	-0,141	-0,025
-430,890	302,798	0,095	0,129
-429,876	-200,000	-0,030	0,147
-428,861	-112,749	0,063	0,009
-427,846	800,000	-0,016	0,044
-426,832	-16,315	0,068	0,032
-425,817	-31,905	-0,024	0,010
-424,803	-200,000	-0,006	0,078
-423,788	7,212	-0,068	0,037
-422,773	346,783	-0,014	0,020
-421,759	-67,466	0,060	0,017
-420,744	-141,188	-0,057	0,004
-419,730	-33,881	-0,090	-0,036
-418,715	386,191	-0,053	0,080
-417,701	-132,318	-0,110	-0,010
-416,686	-124,494	-0,044	-0,005
-415,671	173,304	0,111	-0,118
-414,657	-200,000	-0,000	0,070
-413,642	56,874	0,151	0,108
-412,628	-200,000	0,035	-0,341
-411,613	2,959	0,172	-0,092
-410,598	-35,704	0,087	0,035
-409,584	-41,108	0,123	0,046
-408,569	11,162	0,027	-0,015
-407,555	372,275	-0,051	-0,076
-406,540	-200,000	0,004	-0,050
-405,525	-88,895	0,134	-0,029
-404,511	-24,476	0,059	0,026
-403,496	-64,521	0,054	-0,016
-402,482	-68,729	-0,115	-0,032
-401,467	81,854	-0,082	0,065
-400,452	17,348	-0,198	-0,115
-399,438	-69,668	0,090	-0,025
-398,423	362,258	-0,072	0,106
-397,409	7,558	0,153	-0,084
-396,394	2,904	-0,056	-0,030
-395,379	508,070	0,020	0,034
-394,365	-154,267	0,026	-0,001
-393,350	627,530	0,035	-0,065
-392,336	-121,505	-0,043	0,005
-391,321	222,639	-0,052	0,061
-390,306	-200,000	-0,039	-0,172
-389,292	386,347	-0,036	-0,054
-388,277	3,849	0,055	-0,029
-387,263	-200,000	-0,008	0,035
-386,248	-200,000	0,011	0,209
-385,233	131,218	0,090	0,085
-384,219	-200,000	0,026	-0,113
-383,204	-200,000	-0,008	-0,138
-382,190	-200,000	0,010	-0,053
-381,175	-149,151	0,042	-0,002
-380,160	707,857	0,061	0,119
-379,146	-112,659	0,065	0,009
-378,131	528,715	-0,034	-0,059
-377,117	-50,849	-0,094	0,032
-376,102	-200,000	-0,020	-0,098
-375,088	62,335	0,114	-0,083
-374,073	-55,323	0,052	0,017
-373,058	-125,335	0,086	-0,010
-372,044	430,336	0,036	-0,057
-371,029	-42,520	0,106	0,040
-370,015	-200,000	-0,016	0,176
-369,000	134,217	0,118	-0,112
-367,985	495,818	0,052	-0,088
-366,971	126,919	0,067	-0,063
-365,956	-200,000	-0,007	-0,067
-364,942	-33,799	-0,072	0,029
-363,927	179,813	0,064	-0,069
-362,912	61,660	-0,082	0,060
-361,898	-200,000	0,021	-0,119
-360,883	-45,036	0,059	0,021
-359,869	19,234	-0,038	0,022
-358,854	33,311	-0,041	-0,026
-357,839	800,000	0,012	0,025
-356,825	-111,911	0,092	0,014
-355,810	216,800	0,079	0,092
-354,796	60,384	0,085	0,062
-353,781	-39,708	-0,066	-0,025
-352,766	-84,653	0,067	-0,015
-351,752	-126,137	-0,042	0,005
-350,737	111,050	-0,016	-0,014
-349,723	68,061	0,036	0,027
-348,708	120,717	0,084	0,077
-347,693	-105,918	-0,103	-0,017
-346,679	-116,133	0,092	0,012
-345,664	800,000	0,066	0,172
-344,650	-37,285	-0,023	0,009
-343,635	800,000	0,017	-0,043
-342,620	-61,738	-0,081	0,025
-341,606	800,000	0,019	0,056
-340,591	100,054	0,036	-0,031
-339,577	55,690	-0,054	-0,039
-338,562	-200,000	-0,010	-0,172
-337,548	800,000	0,010	-0,023
-336,533	459,281	-0,075	0,123
-335,518	-80,128	-0,075	0,018
-334,504	156,048	0,088	-0,089
-333,489	-200,000	-0,014	-0,102
-332,475	800,000	-0,037	-0,083
-331,460	159,289	0,011	0,011
-330,445	31,409	-0,134	-0,084
-329,431	-88,766	0,123	-0,027
-328,416	-200,000	0,016	0,094
-327,402	-200,000	0,018	0,180
-326,387	-200,000	0,010	0,165
-325,372	29,583	-0,138	0,086
-324,358	-200,000	0,011	-0,056
-323,343	-200,000	0,010	0,074
-322,329	-200,000	-0,009	0,071
-321,314	124,613	0,136	0,125
-320,299	-26,231	-0,078	0,033
-319,285	-12,107	0,126	0,060
-318,270	204,712	0,025	0,028
-317,256	-127,003	-0,128	-0,014
-316,241	283,946	-0,029	0,039
-315,226	173,646	-0,027	0,029
-314,212	-39,550	0,150	0,057
-313,197	-195,422	0,040	-0,000
-312,183	800,000	0,019	-0,046
-311,168	-200,000	-0,006	-0,063
-310,153	-200,000	0,005	0,059
-309,139	-2,899	-0,041	-0,021
-308,124	80,150	-0,018	0,014
-307,110	-200,000	-0,022	-0,133
-306,095	-79,924	0,063	0,015
-305,080	-200,000	0,020	0,115
-304,066	-200,000	0,003	0,079
-303,051	27,920	0,067	0,041
-302,037	-159,844	-0,132	0,005
-301,022	255,993	-0,046	-0,058
-300,008	-136,907	0,030	-0,002
-298,993	370,762	-0,033	0,050
-297,978	411,656	-0,056	-0,088
-296,964	-17,926	-0,074	0,034
-295,949	-200,000	-0,023	-0,151
-294,935	-200,000	-0,011	-0,082
-293,920	-84,409	0,057	0,013
-292,905	-42,836	0,144	0,053
-291,891	-96,029	0,100	0,019
-290,876	-73,979	0,041	-0,011
-289,862	23,902	0,117	0,071
-288,847	725,833	0,011	-0,021
-287,832	-200,000	0,017	0,076
-286,818	-24,138	0,055	0,024
-285,803	-46,887	0,043	0,015
-284,789	35,502	0,110	0,070
-283,774	-48,446	0,034	-0,012
-282,759	-24,687	0,084	-0,036
-281,745	258,104	-0,058	-0,074
-280,730	-200,000	-0,001	0,052
-279,716	-200,000	-0,011	0,156
-278,701	246,565	-0,076	-0,095
-277,686	800,000	0,017	-0,037
-276,672	-200,000	-0,014	0,209
-275,657	-200,000	0,021	0,127
-274,643	254,320	-0,035	0,044
-273,628	-15,524	-0,121	-0,056
-272,613	-200,000	0,020	0,076
-271,599	-46,547	-0,144	0,051
-270,584	796,505	0,026	0,053
-269,570	97,328	0,037	-0,031
-268,555	23,122	-0,103	-0,062
-267,540	176,496	-0,067	-0,072
-266,526	-200,000	0,008	-0,051
-265,511	689,433	-0,037	0,072
-264,497	155,355	0,057	-0,057
-263,482	139,330	0,077	0,074
-262,467	-175,110	0,131	0,003
-261,453	800,000	0,075	-0,153
-260,438	-139,776	-0,020	-0,002
-259,424	800,000	-0,035	-0,073
-258,409	5,177	-0,013	-0,007
-257,395	800,000	-0,015	-0,048
-256,380	-95,272	-0,064	-0,013
-255,365	-84,547	0,052	-0,012
-254,351	-16,030	-0,133	0,061
-253,336	-200,000	-0,000	-0,032
-252,322	294,202	-0,066	-0,089
-251,307	125,320	-0,136	-0,126
-250,292	121,162	0,054	0,049
-249,278	-200,000	-0,028	0,137
-248,263	-41,928	-0,029	-0,011
-247,249	-200,000	0,008	0,055
-246,234	375,183	-0,046	-0,069
-245,219	-58,207	0,116	0,037
-244,205	800,000	-0,039	-0,118
-243,190	-73,016	0,054	0,014
-242,176	95,738	0,109	-0,091
-241,161	208,123	-0,104	-0,119
-240,146	-24,734	0,060	0,026
-239,132	-50,643	0,029	0,010
-238,117	291,299	0,095	-0,127
-237,103	-48,233	-0,205	-0,072
-236,088	-107,925	-0,143	-0,022
-235,073	800,000	0,051	-0,115
-234,059	549,551	0,022	0,038
-233,044	98,099	0,088	-0,074
-232,030	-122,780	-0,087	-0,010
-231,015	-37,140	-0,160	0,062
-230,000	103,648	0,069	-0,059
-228,986	-200,000	0,008	-0,060
-227,971	124,673	-0,011	-0,010
-226,957	-124,891	0,045	-0,005
-225,942	-200,000	0,024	-0,115
-224,927	800,000	-0,005	0,013
-223,913	-38,354	-0,099	0,038
-222,898	800,000	-0,030	-0,069
-221,884	-200,000	-0,005	-0,088
-220,869	73,742	0,123	0,094
-219,855	-154,526	-0,063	0,003
-218,840	-113,903	-0,089	-0,012
-217,825	84,106	0,082	0,065
-216,811	800,000	0,031	-0,075
-215,796	-200,000	-0,027	0,102
-214,782	460,075	-0,084	0,136
-213,767	50,298	0,140	0,097
-212,752	-72,435	-0,048	-0,013
-211,738	-200,000	-0,005	0,044
-210,723	800,000	0,013	0,028
-209,709	-200,000	-0,008	-0,106
-208,694	800,000	-0,020	-0,044
-207,679	13,975	-0,098	-0,055
-206,665	-92,997	0,168	-0,034
-205,650	237,138	0,045	-0,054
-204,636	-17,852	0,150	0,068
-203,621	-89,714	0,100	-0,021
-202,606	-200,000	0,018	-0,131
-201,592	164,552	-0,118	-0,121
-200,577	385,941	-0,055	-0,082
-199,563	-90,725	-0,112	-0,023
-198,548	-200,000	-0,005	0,034
-197,533	-200,000	0,016	-0,098
-196,519	-200,000	0,025	0,102
-195,504	147,082	-0,098	-0,096
-194,490	-200,000	-0,020	0,167
-193,475	-200,000	-0,033	-0,112
-192,460	-200,000	0,022	0,086
-191,446	631,479	0,067	-0,124
-190,431	-142,761	0,100	-0,007
-189,417	800,000	-0,063	0,185
-188,402	-200,000	-0,012	0,135
-187,387	512,350	-0,055	-0,094
-186,373	-200,000	0,053	-0,231
-185,358	-59,051	0,032	-0,010
-184,344	298,041	0,033	0,045
-183,329	32,641	-0,015	-0,009
-182,315	-32,154	0,117	-0,047
-181,300	350,363	-0,088	0,127
-180,285	549,405	0,080	-0,141
-179,271	-200,000	-0,019	-0,063
-178,256	800,000	0,046	0,119
-177,242	71,229	0,076	0,058
-176,227	800,000	-0,030	-0,086
-175,212	157,793	0,051	-0,051
-174,198	-39,684	-0,107	0,041
-173,183	800,000	0,022	-0,065
-172,169	-115,372	-0,078	-0,011
-171,154	-200,000	-0,005	-0,030
-170,139	97,973	-0,118	0,099
-169,125	-66,294	-0,084	0,024
-168,110	-137,110	-0,032	0,003
-167,096	-128,585	-0,206	-0,021
-166,081	-96,164	-0,123	-0,024
-165,066	454,701	-0,010	-0,016
-164,052	2,000	0,019	-0,010
-163,037	-200,000	0,014	0,107
-162,023	-200,000	0,021	-0,090
-161,008	800,000	-0,026	0,081
-159,993	120,988	0,025	0,022
-158,979	-119,511	0,124	0,015
-157,964	-15,895	-0,114	0,053
-156,950	800,000	-0,023	-0,057
-155,935	394,840	-0,030	0,046
-154,920	628,867	-0,037	0,068
-153,906	-21,990	-0,018	-0,008
-152,891	-200,000	-0,004	0,026
-151,877	10,580	-0,141	-0,078
-150,862	269,624	-0,028	-0,036
-149,847	205,351	0,080	-0,090
-148,833	-75,629	-0,152	-0,039
-147,818	503,677	-0,036	-0,062
-146,804	-75,688	0,054	0,014
-145,789	89,955	0,078	0,063
-144,775	56,507	-0,062	0,044
-143,760	303,247	-0,050	0,067
-142,745	-1,659	0,115	-0,059
-141,731	228,137	-0,062	-0,073
-140,716	199,511	0,114	0,128
-139,702	800,000	-0,014	0,032
-138,687	-99,054	-0,084	-0,015
-137,672	495,472	0,033	-0,055
-136,658	800,000	0,025	-0,079
-135,643	-160,481	-0,103	-0,004
-134,629	352,846	-0,069	-0,100
-133,614	122,449	0,033	0,030
-132,599	-47,593	0,090	0,032
-131,585	-200,000	0,014	0,098
-130,570	275,012	-0,016	0,021
-129,556	-200,000	-0,002	-0,065
-128,541	-200,000	-0,006	-0,095
-127,526	-174,515	0,055	0,001
-126,512	462,266	0,040	0,065
-125,497	-200,000	0,012	-0,143
-124,483	17,006	-0,021	-0,012
-123,468	-56,403	-0,092	-0,030
-122,453	-200,000	0,002	-0,069
-121,439	22,507	-0,068	0,040
-120,424	-153,890	-0,130	-0,006
-119,410	286,892	-0,026	0,035
-118,395	800,000	0,030	0,069
-117,380	0,803	0,098	0,051
-116,366	-200,000	-0,008	-0,037
-115,351	25,498	-0,059	-0,036
-114,337	-200,000	0,010	-0,078
-113,322	51,748	-0,137	-0,095
-112,307	-4,965	0,070	-0,035
-111,293	-146,752	0,061	-0,004
-110,278	-200,000	0,009	-0,063
-109,264	192,915	0,038	-0,042
-108,249	800,000	-0,035	-0,100
-107,234	-200,000	-0,012	-0,053
-106,220	-34,249	0,112	-0,044
-105,205	277,331	0,043	-0,056
-104,191	-149,728	0,100	0,006
-103,176	238,898	0,079	0,096
-102,162	333,518	0,031	0,044
-101,147	-200,000	0,011	0,050
-100,132	-200,000	-0,004	-0,028
-99,118	-26,782	-0,100	0,042
-98,103	800,000	0,031	-0,097
-97,089	733,889	0,045	0,088
-96,074	-200,000	0,038	0,282
-95,059	800,000	0,039	0,095
-94,045	-200,000	0,007	-0,074
-93,030	-200,000	-0,038	0,138
-92,016	800,000	-0,021	-0,058
-91,001	-99,433	0,083	-0,015
-89,986	-136,792	-0,052	-0,004
-88,972	270,000	0,019	-0,024
-87,957	800,000	0,033	-0,068
-86,943	242,468	0,082	0,100
-85,928	-200,000	-0,037	-0,157
-84,913	12,204	-0,086	-0,048
-83,899	131,765	-0,024	-0,022
-82,884	-200,000	-0,016	0,121
-81,870	-46,260	-0,011	-0,004
-80,855	282,344	0,071	0,093
-79,840	-200,000	0,047	-0,174
-78,826	-30,229	-0,205	-0,084
-77,811	-200,000	0,020	-0,084
-76,797	-200,000	0,024	-0,121
-75,782	-160,703	0,085	-0,003
-74,767	172,849	-0,041	0,043
-73,753	-200,000	0,027	0,116
-72,738	-200,000	0,001	0,124
-71,724	41,364	-0,149	-0,097
-70,709	195,786	-0,056	-0,062
-69,694	-200,000	-0,013	-0,066
-68,680	-200,000	-0,019	-0,071
-67,665	-127,870	0,128	0,013
-66,651	126,012	-0,068	0,063
-65,636	109,387	0,046	0,040
-64,622	336,589	-0,071	0,100
-63,607	-67,147	0,079	0,022
-62,592	-200,000	0,029	-0,230
-61,578	238,769	0,138	-0,166
-60,563	-200,000	-0,022	0,153
-59,549	33,071	0,015	0,010
-58,534	-130,534	-1,325	-0,128
-57,519	522,416	-0,918	-1,571
-56,505	-200,000	-0,881	-4,481
-55,490	91,806	0,506	-0,413
-54,476	800,000	5,029	11,998
-53,461	-200,000	13,684	252,971
-52,446	-200,000	689,982	2256,875
-51,432	590,170	1622,332	2915,163
-50,417	119,062	1635,066	1466,922
-49,403	73,089	1288,949	976,555
-48,388	37,927	1024,488	659,442
-47,373	24,262	981,924	587,095
-46,359	23,525	971,552	578,455
-45,344	22,467	967,271	572,424
-44,330	22,447	965,762	571,445
-43,315	22,318	964,344	570,161
-42,300	22,303	963,255	569,447
-41,286	22,310	962,434	568,961
-40,271	22,271	961,467	568,240
-39,257	22,305	960,466	567,735
-38,242	22,298	959,571	567,163
-37,227	22,307	958,803	566,715
-36,213	22,349	957,731	566,195
-35,198	22,246	957,001	565,408
-34,184	22,335	956,347	565,285
-33,169	22,303	955,437	564,623
-32,154	22,295	954,687	564,130
-31,140	22,344	953,497	563,565
-30,125	22,341	952,723	563,074
-29,111	22,359	951,909	562,628
-28,096	22,390	951,183	562,277
-27,082	22,392	950,672	561,957
-26,067	22,376	949,763	561,348
-25,052	22,334	949,157	560,833
-24,038	22,371	948,473	560,524
-23,023	22,342	947,960	560,105
-22,009	22,375	947,237	559,763
-20,994	22,355	946,634	559,320
-19,979	22,384	946,035	559,035
-18,965	22,363	945,414	558,580
-17,950	22,373	944,668	558,151
-16,936	22,304	944,087	557,565
-15,921	22,265	943,289	556,946
-14,906	22,195	942,651	556,326
-13,892	22,203	942,113	556,009
-12,877	22,206	941,479	555,624
-11,863	22,179	940,661	555,034
-10,848	22,247	940,149	554,925
-9,833	22,299	939,919	554,931
-8,819	22,271	939,092	554,334
-7,804	22,223	938,391	553,746
-6,790	22,186	938,053	553,408
-5,775	22,239	937,382	553,156
-4,760	22,202	936,763	552,652
-3,746	22,232	936,023	552,289
-2,731	22,086	935,378	551,426
-1,717	22,018	934,642	550,755
-0,702	22,083	933,881	550,490
0,313	21,882	933,329	550,361
1,327	24,964	931,444	558,892
2,342	34,903	795,813	503,972
3,356	32,901	451,996	283,196
4,371	1,728	294,283	153,231
5,386	-2,612	275,125	139,130
6,400	-4,183	269,201	134,663
7,415	-4,496	266,732	133,128
8,429	-4,405	265,586	132,628
9,444	-4,396	264,758	132,210
10,459	-4,409	264,062	131,839
11,473	-4,560	263,589	131,454
12,488	-4,678	263,006	131,044
13,502	-4,843	262,412	130,588
14,517	-4,550	261,934	130,602
15,531	-4,682	261,688	130,349
16,546	-4,358	261,150	130,362
17,561	-4,515	260,861	130,064
18,575	-4,478	260,530	129,921
19,590	-4,787	260,294	129,514
20,604	-4,570	259,828	129,465
21,619	-4,641	259,554	129,254
22,634	-4,559	259,246	129,162
23,648	-4,797	259,010	128,820
24,663	-4,727	258,656	128,695
25,677	-4,764	258,471	128,559
26,692	-4,882	258,301	128,357
27,707	-4,656	258,071	128,433
28,721	-4,724	257,672	128,163
29,736	-4,720	257,444	128,042
30,750	-4,835	257,084	127,749
31,765	-4,922	256,899	127,568
32,780	-4,819	256,811	127,605
33,794	-4,775	256,581	127,518
34,809	-4,762	256,098	127,278
35,823	-4,776	255,963	127,188
36,838	-4,968	255,815	126,933
37,853	-4,957	255,615	126,832
38,867	-4,899	255,319	126,725
39,882	-4,991	255,092	126,520
40,896	-4,940	254,895	126,456
41,911	-4,702	254,670	126,542
42,926	-4,747	254,426	126,369
43,940	-4,842	254,139	126,133
44,955	-4,974	253,887	125,881
45,969	-5,068	253,803	125,747
46,984	-5,382	253,361	125,242
47,999	-5,208	253,184	125,295
49,013	-5,324	252,932	125,059
50,028	-5,617	252,638	124,647
51,042	-5,643	252,360	124,476
52,057	-5,783	252,190	124,260
53,071	-5,476	251,889	124,367
54,086	-5,549	251,874	124,285
55,101	-5,349	251,664	124,343
56,115	-5,079	251,471	124,470
57,130	-4,715	251,542	124,809
58,144	-4,518	251,334	124,865
59,159	-4,685	251,171	124,628
60,174	-4,768	250,846	124,385
61,188	-4,588	250,726	124,469
62,203	-4,782	250,641	124,248
63,217	-4,739	250,247	124,079
64,232	-4,710	250,090	124,016
65,247	-4,561	249,812	123,995
66,261	-4,640	249,681	123,851
67,276	-4,696	249,226	123,566
68,290	-5,136	249,239	123,184
69,305	-5,282	248,867	122,865
70,320	-5,201	248,734	122,857
71,334	-4,841	248,570	123,073
72,349	-4,684	248,554	123,187
73,363	-4,453	248,284	123,240
74,378	-4,708	248,163	122,951
75,393	-4,773	247,883	122,747
76,407	-4,625	247,541	122,692
77,422	-4,739	247,489	122,559
78,436	-4,448	247,146	122,625
79,451	-4,668	246,991	122,351
80,466	-4,883	246,777	122,051
81,480	-4,907	246,506	121,886
82,495	-5,044	246,267	121,641
83,509	-4,805	246,198	121,798
84,524	-5,022	245,911	121,462
85,539	-5,146	245,780	121,282
86,553	-5,100	245,674	121,258
87,568	-5,000	245,453	121,222
88,582	-4,987	245,172	121,084
89,597	-5,007	245,088	121,014
90,611	-4,798	245,008	121,140
91,626	-4,696	244,782	121,102
92,641	-4,876	244,664	120,883
93,655	-4,837	244,316	120,733
94,670	-4,977	244,244	120,569
95,684	-4,674	243,840	120,612
96,699	-4,878	243,966	120,494
97,714	-4,905	243,635	120,297
98,728	-4,925	243,380	120,143
99,743	-5,237	243,142	119,755
100,757	-5,201	242,997	119,703
101,772	-5,102	242,766	119,660
102,787	-5,102	242,803	119,668
103,801	-4,889	242,460	119,665
104,816	-4,770	242,227	119,639
105,830	-4,940	242,367	119,556
106,845	-4,526	241,995	119,705
107,860	-4,781	241,855	119,414
108,874	-4,742	241,584	119,301
109,889	-4,910	241,466	119,093
110,903	-4,866	241,199	118,988
111,918	-4,995	240,990	118,768
112,933	-4,957	240,890	118,739
113,947	-4,734	240,704	118,821
114,962	-4,851	240,570	118,648
115,976	-4,792	240,522	118,662
116,991	-4,716	240,264	118,586
118,006	-4,643	239,897	118,454
119,020	-4,897	240,007	118,290
120,035	-4,767	239,757	118,263
121,049	-4,979	239,685	118,043
122,064	-4,760	239,449	118,095
123,079	-4,828	239,210	117,911
124,093	-5,024	239,063	117,668
125,108	-5,086	238,839	117,497
126,122	-5,198	238,584	117,270
127,137	-5,411	238,501	117,045
128,151	-5,174	238,287	117,122
129,166	-5,025	238,109	117,145
130,181	-5,004	237,771	116,986
131,195	-5,213	237,642	116,742
132,210	-4,907	237,610	116,965
133,224	-4,719	237,351	116,979
134,239	-4,897	237,243	116,771
135,254	-4,810	237,055	116,739
136,268	-5,080	236,892	116,430
137,283	-5,085	236,537	116,241
138,297	-5,223	236,447	116,074
139,312	-5,389	236,268	115,843
140,327	-4,964	236,119	116,101
141,341	-4,490	236,345	116,585
142,356	-4,469	235,958	116,400
143,370	-4,427	235,829	116,360
144,385	-4,295	235,665	116,375
145,400	-4,329	235,535	116,273
146,414	-4,496	235,330	116,027
147,429	-4,590	235,188	115,872
148,443	-4,408	235,006	115,918
149,458	-4,585	234,848	115,688
150,473	-4,445	234,633	115,683
151,487	-4,593	234,461	115,470
152,502	-4,583	234,421	115,448
153,516	-4,542	234,383	115,452
154,531	-4,538	233,982	115,247
155,546	-4,559	233,927	115,193
156,560	-4,624	233,816	115,076
157,575	-4,881	233,598	114,754
158,589	-4,485	233,064	114,796
159,604	-4,573	233,086	114,727
160,619	-4,423	232,952	114,769
161,633	-4,480	232,887	114,682
162,648	-4,524	232,755	114,572
163,662	-4,491	232,501	114,462
164,677	-4,723	232,432	114,235
165,692	-4,394	232,362	114,450
166,706	-4,621	232,227	114,195
167,721	-4,314	232,029	114,330
168,735	-4,099	231,801	114,376
169,750	-4,356	231,764	114,145
170,764	-4,516	231,578	113,917
171,779	-4,428	231,273	113,827
172,794	-4,308	231,317	113,932
173,808	-4,645	231,053	113,528
174,823	-5,062	230,732	113,033
175,837	-5,209	230,619	112,852
176,852	-4,742	230,469	113,135
177,867	-4,550	230,323	113,202
178,881	-4,265	230,284	113,396
179,896	-4,341	230,192	113,282
180,910	-4,360	229,944	113,135
181,925	-4,329	229,940	113,147
182,940	-4,269	229,664	113,047
183,954	-4,293	229,528	112,952
184,969	-4,260	229,309	112,860
185,983	-4,438	229,387	112,749
186,998	-4,347	229,266	112,751
188,013	-4,314	228,951	112,612
189,027	-4,310	228,706	112,485
190,042	-4,271	228,603	112,454
191,056	-4,080	228,385	112,485
192,071	-4,024	228,324	112,488
193,086	-4,294	228,097	112,157
194,100	-4,079	227,924	112,229
195,115	-4,370	227,469	111,769
196,129	-5,327	227,310	110,943
197,144	-2,031	228,244	113,942
198,159	2,270	229,570	117,936
199,173	4,240	230,068	119,712
200,188	4,194	230,038	119,650
201,202	4,226	229,689	119,483
202,217	4,359	229,809	119,637
203,232	4,751	229,494	119,767
204,246	4,697	229,591	119,765
205,261	4,958	229,301	119,804
206,275	4,871	229,234	119,691
207,290	4,991	229,202	119,757
208,304	5,232	229,028	119,841
209,319	4,970	228,727	119,471
210,334	4,811	228,645	119,295
211,348	4,783	228,320	119,093
212,363	4,288	228,034	118,553
213,377	3,995	227,900	118,248
214,392	4,204	227,584	118,234
215,407	4,209	227,442	118,153
216,421	4,144	227,341	118,040
217,436	4,493	227,114	118,179
218,450	3,908	226,977	117,650
219,465	3,793	226,767	117,442
220,480	3,715	226,761	117,369
221,494	3,864	226,574	117,376
222,509	4,048	226,455	117,444
223,523	3,969	226,368	117,329
224,538	3,793	226,213	117,104
225,553	4,149	226,029	117,269
226,567	4,290	225,854	117,275
227,582	4,498	225,887	117,440
228,596	4,538	225,772	117,400
229,611	4,307	225,452	117,048
230,626	4,061	225,265	116,754
231,640	4,124	225,139	116,726
232,655	4,243	225,091	116,780
233,669	4,790	224,997	117,135
234,684	4,680	224,982	117,034
235,699	4,591	224,639	116,778
236,713	4,248	224,524	116,448
237,728	4,088	224,378	116,242
238,742	3,963	224,054	115,969
239,757	4,184	223,908	116,049
240,772	4,077	223,758	115,881
241,786	3,943	223,750	115,766
242,801	4,256	223,566	115,895
243,815	4,370	223,418	115,894
244,830	4,704	223,351	116,100
245,844	4,358	223,140	115,720
246,859	4,206	223,086	115,568
247,874	4,530	222,958	115,734
248,888	4,727	222,723	115,749
249,903	4,117	222,589	115,213
250,917	4,376	222,353	115,274
251,932	4,333	222,287	115,198
252,947	4,073	222,196	114,946
253,961	4,155	221,903	114,845
254,976	4,133	221,886	114,810
255,990	4,210	221,762	114,793
257,005	4,201	221,671	114,729
258,020	4,220	221,550	114,670
259,034	4,548	221,408	114,830
260,049	4,422	221,305	114,673
261,063	4,279	221,187	114,495
262,078	4,589	220,889	114,561
263,093	4,732	220,713	114,565
264,107	4,568	220,628	114,389
265,122	4,343	220,544	114,169
266,136	4,509	220,443	114,229
267,151	4,406	220,334	114,087
268,166	3,938	220,118	113,619
269,180	4,069	219,666	113,472
270,195	4,042	219,537	113,375
271,209	4,201	219,481	113,453
272,224	4,113	219,397	113,335
273,239	4,237	219,356	113,395
274,253	4,068	219,154	113,156
275,268	4,072	218,811	112,972
276,282	4,033	218,593	112,820
277,297	3,923	218,606	112,737
278,312	3,863	218,540	112,649
279,326	3,773	218,462	112,532
280,341	4,153	218,187	112,659
281,355	4,020	218,118	112,516
282,370	3,924	218,072	112,412
283,384	3,921	217,857	112,289
284,399	3,849	217,669	112,130
285,414	3,901	217,431	112,035
286,428	4,271	217,504	112,332
287,443	4,346	217,383	112,314
288,457	4,273	217,208	112,161
289,472	4,171	216,975	111,956
290,487	3,766	216,805	111,564
291,501	3,721	216,645	111,439
292,516	3,971	216,547	111,560
293,530	3,934	216,362	111,428
294,545	4,012	216,273	111,429
295,560	4,115	216,158	111,435
296,574	4,065	215,961	111,287
297,589	4,003	215,901	111,201
298,603	4,332	215,668	111,309
299,618	4,162	215,724	111,205
300,633	3,955	215,572	110,968
301,647	4,126	215,561	111,075
302,662	4,266	215,383	111,074
303,676	4,165	215,183	110,889
304,691	4,366	214,943	110,899
305,706	4,163	214,937	110,741
306,720	4,233	214,747	110,683
307,735	4,258	214,491	110,559
308,749	4,016	214,427	110,343
309,764	4,186	214,325	110,402
310,779	4,661	214,109	110,621
311,793	4,409	214,041	110,396
312,808	4,258	213,872	110,191
313,822	4,320	213,689	110,131
314,837	4,009	213,543	109,824
315,852	4,059	213,411	109,782
316,866	4,013	213,368	109,718
317,881	4,157	213,238	109,744
318,895	4,241	213,117	109,731
319,910	4,044	212,997	109,519
320,925	3,865	212,676	109,217
321,939	3,751	212,383	108,976
322,954	3,822	212,321	108,985
323,968	4,193	212,520	109,341
324,983	4,288	212,259	109,264
325,997	4,421	212,133	109,284
327,012	4,454	211,946	109,200
328,027	4,283	211,907	109,050
329,041	4,522	211,716	109,112
330,056	4,728	211,610	109,192
331,070	4,265	211,337	108,716
332,085	4,111	211,145	108,498
333,100	3,894	211,163	108,345
334,114	4,221	210,991	108,477
335,129	4,336	210,773	108,436
336,143	3,960	210,813	108,182
337,158	3,841	210,525	107,942
338,173	4,039	210,386	108,000
339,187	4,052	210,216	107,912
340,202	4,035	210,100	107,831
341,216	3,609	209,999	107,471
342,231	3,792	209,873	107,525
343,246	3,824	209,711	107,455
344,260	4,156	209,588	107,614
345,275	4,037	209,552	107,503
346,289	4,099	209,474	107,497
347,304	4,310	209,288	107,539
348,319	4,247	209,198	107,439
349,333	4,150	208,960	107,239
350,348	4,237	208,793	107,205
351,362	4,284	208,961	107,315
352,377	4,192	208,775	107,145
353,392	3,975	208,514	106,851
354,406	3,939	208,368	106,742
355,421	194,355	1345,205	1435,254
356,435	155,090	1483,829	1435,377
