DTS Sentinel unit serial number:	SN410029Multiplexer serial number:	ORYXHardware model number:	OX2-SRSoftware version number:	ORYX F/W v4,00 Oryx Data Collector v3.7.2.0data status	okinstallation	B6 Nyhavnadifferential loss correction	single-endedforward channel	channel 2reverse channel	N/Adate	2023/12/10time	03:35:08forward acquisition time	300,00reverse acquisition time	0,00gamma	499,1914k internal	0,3125k external	0,3125temperature offset calibration	1,0000default loss term (dB/km)	0,3820temperature slope calibration	1,0000multiplexer offset coefficient	1,0000multiplexer slope coefficient	1,0000fibre end	0,00T internal ref (°C)	22,02T ext. ref 1 (°C)	5,96T ext. ref 2 (°C)	5,92length (m)	temperature (°C)	Stokes	anti-Stokes-744,400	397,192	-0,025	0,040
-743,385	195,414	-0,134	0,152
-742,371	-65,612	0,220	0,065
-741,356	-200,000	-0,046	0,205
-740,342	-76,414	-0,167	0,043
-739,327	73,444	-0,107	0,083
-738,312	235,602	-0,100	-0,123
-737,298	210,244	-0,145	0,169
-736,283	-125,770	-0,058	-0,006
-735,269	-123,361	-0,229	0,027
-734,254	-81,475	0,100	-0,024
-733,239	-134,010	-0,506	-0,046
-732,225	292,797	0,086	-0,118
-731,210	-47,593	-0,102	0,037
-730,196	-81,505	-0,033	0,008
-729,181	-134,908	0,079	0,007
-728,167	-200,000	-0,008	0,051
-727,152	-200,000	0,026	0,093
-726,137	-10,562	-0,090	-0,044
-725,123	-149,555	-0,093	0,005
-724,108	207,624	-0,071	0,082
-723,094	628,588	-0,079	-0,150
-722,079	191,650	-0,049	0,056
-721,064	-200,000	0,003	0,057
-720,050	46,579	-0,058	0,040
-719,035	221,823	-0,077	0,092
-718,021	-58,255	-0,027	-0,009
-717,006	-200,000	-0,024	-0,101
-715,991	-105,640	-0,149	0,025
-714,977	-89,058	-0,055	0,012
-713,962	447,067	-0,031	0,052
-712,948	53,496	0,037	0,026
-711,933	-138,624	0,076	0,006
-710,918	449,864	0,021	0,034
-709,904	-200,000	0,026	-0,169
-708,889	-200,000	-0,055	-0,209
-707,875	-200,000	-0,001	-0,104
-706,860	373,446	-0,095	-0,145
-705,845	800,000	-0,019	-0,051
-704,831	702,831	0,049	0,096
-703,816	136,250	-0,037	-0,036
-702,802	-50,573	-0,100	-0,035
-701,787	51,396	-0,105	-0,074
-700,772	42,053	0,033	-0,023
-699,758	659,205	0,061	-0,118
-698,743	-118,000	-0,067	-0,009
-697,729	-32,744	0,028	0,012
-696,714	388,335	0,071	0,110
-695,699	-200,000	0,008	0,036
-694,685	26,368	0,120	0,074
-693,670	466,709	-0,040	-0,067
-692,656	-31,492	-0,080	0,033
-691,641	800,000	-0,047	-0,133
-690,627	372,668	0,086	0,130
-689,612	25,545	-0,085	0,052
-688,597	-189,805	-0,100	0,001
-687,583	-139,918	-0,172	0,013
-686,568	34,214	-0,097	-0,063
-685,554	59,285	-0,064	-0,047
-684,539	-200,000	-0,021	-0,103
-683,524	-200,000	-0,015	-0,063
-682,510	-136,741	-0,153	0,013
-681,495	57,037	-0,095	-0,069
-680,481	-115,378	-0,101	0,014
-679,466	-90,234	-0,171	-0,037
-678,451	337,215	0,053	-0,077
-677,437	-200,000	-0,025	-0,144
-676,422	101,913	0,146	0,126
-675,408	215,119	-0,101	-0,119
-674,393	204,754	-0,084	0,097
-673,378	123,364	-0,069	-0,065
-672,364	-116,983	-0,011	-0,001
-671,349	93,317	0,095	-0,080
-670,335	-200,000	-0,012	-0,071
-669,320	-200,000	-0,009	-0,055
-668,305	288,988	0,061	-0,082
-667,291	-135,993	0,064	0,005
-666,276	-200,000	0,000	-0,102
-665,262	-55,385	-0,098	-0,032
-664,247	681,272	-0,025	0,048
-663,232	-51,495	-0,096	0,033
-662,218	18,669	0,117	-0,070
-661,203	-129,443	0,107	0,011
-660,189	75,485	0,040	-0,031
-659,174	-200,000	-0,014	-0,139
-658,159	628,164	0,045	-0,084
-657,145	-93,324	0,128	0,026
-656,130	567,897	-0,050	0,091
-655,116	302,592	0,110	0,151
-654,101	-200,000	0,085	-0,000
-653,086	-13,397	-0,112	0,054
-652,072	-200,000	0,028	-0,131
-651,057	286,386	0,035	-0,047
-650,043	-195,016	0,110	0,001
-649,028	-124,734	-0,099	-0,011
-648,014	62,941	-0,102	0,076
-646,999	-124,333	0,103	0,012
-645,984	112,914	-0,029	0,026
-644,970	-164,103	-0,152	-0,005
-643,955	-44,285	-0,052	0,019
-642,941	800,000	-0,039	-0,118
-641,926	-80,197	-0,056	-0,014
-640,911	-136,694	0,111	0,009
-639,897	154,062	0,073	0,074
-638,882	-77,224	0,109	-0,028
-637,868	-200,000	-0,002	0,113
-636,853	62,931	-0,088	-0,065
-635,838	673,266	0,052	-0,100
-634,824	800,000	0,053	-0,145
-633,809	-127,364	0,127	0,014
-632,795	-200,000	0,015	0,098
-631,780	66,414	-0,038	0,028
-630,765	57,822	-0,042	-0,030
-629,751	800,000	0,045	-0,131
-628,736	-166,645	-0,106	0,003
-627,722	800,000	-0,038	-0,114
-626,707	-152,079	-0,158	0,008
-625,692	-93,878	0,085	-0,017
-624,678	-125,721	-0,123	0,014
-623,663	-200,000	-0,001	-0,005
-622,649	-75,636	-0,126	-0,033
-621,634	-34,626	-0,014	0,006
-620,619	-200,000	0,017	-0,091
-619,605	105,179	-0,080	-0,070
-618,590	55,622	-0,027	0,020
-617,576	-99,860	-0,167	-0,031
-616,561	-200,000	0,014	0,092
-615,546	-200,000	-0,004	0,054
-614,532	136,651	0,072	-0,070
-613,517	-174,492	-0,050	0,001
-612,503	-167,765	-0,027	-0,001
-611,488	-23,558	-0,088	0,039
-610,474	-21,851	0,072	0,032
-609,459	-78,444	-0,078	-0,020
-608,444	-31,346	-0,112	-0,046
-607,430	-200,000	0,024	-0,091
-606,415	-200,000	-0,017	-0,117
-605,401	-200,000	0,040	-0,158
-604,386	-200,000	-0,003	-0,186
-603,371	-200,000	-0,004	0,103
-602,357	-46,394	-0,127	0,046
-601,342	-200,000	0,069	-0,234
-600,328	351,185	-0,059	-0,087
-599,313	25,326	0,020	0,012
-598,298	380,545	0,017	0,026
-597,284	129,694	0,024	0,023
-596,269	592,200	0,042	0,077
-595,255	-69,536	-0,077	-0,022
-594,240	66,622	-0,061	0,046
-593,225	-200,000	0,022	0,158
-592,211	-60,129	-0,075	-0,024
-591,196	-200,000	0,002	-0,024
-590,182	-100,811	0,035	0,006
-589,167	-200,000	0,042	0,235
-588,152	800,000	0,030	0,075
-587,138	800,000	-0,075	0,185
-586,123	415,381	-0,111	-0,176
-585,109	44,463	-0,033	0,022
-584,094	-8,143	-0,053	0,026
-583,079	305,865	0,037	0,051
-582,065	-8,946	0,055	-0,027
-581,050	-200,000	-0,024	0,154
-580,036	-199,207	0,093	-0,000
-579,021	-165,673	-0,036	0,001
-578,006	-30,033	-0,079	0,033
-576,992	-200,000	-0,020	-0,133
-575,977	-84,587	0,128	0,030
-574,963	-153,346	0,037	-0,002
-573,948	-154,922	-0,066	-0,003
-572,934	-34,154	0,048	-0,020
-571,919	75,487	-0,102	-0,080
-570,904	46,502	-0,100	0,069
-569,890	402,576	0,069	-0,108
-568,875	-43,829	-0,097	0,036
-567,861	126,518	-0,085	0,080
-566,846	800,000	-0,030	-0,078
-565,831	-4,293	0,121	0,062
-564,817	-200,000	-0,003	0,067
-563,802	-118,191	-0,053	-0,007
-562,788	-200,000	-0,033	-0,123
-561,773	132,164	-0,102	-0,097
-560,758	-111,441	0,152	0,023
-559,744	315,730	-0,028	-0,039
-558,729	-3,741	0,049	0,025
-557,715	315,859	-0,062	0,087
-556,700	-53,492	0,056	-0,019
-555,685	800,000	-0,021	-0,046
-554,671	-154,865	0,098	-0,005
-553,656	176,915	0,131	0,141
-552,642	-184,918	-0,051	-0,001
-551,627	-32,514	0,037	0,015
-550,612	-200,000	0,006	0,091
-549,598	800,000	0,021	-0,058
-548,583	-3,077	0,071	-0,036
-547,569	-200,000	0,024	-0,192
-546,554	-1,419	0,129	-0,067
-545,539	131,268	-0,083	0,079
-544,525	-30,656	0,096	0,040
-543,510	-200,000	-0,008	-0,095
-542,496	299,739	0,023	0,032
-541,481	-162,575	0,155	-0,006
-540,466	478,926	0,037	-0,062
-539,452	81,765	0,042	-0,034
-538,437	-13,156	-0,082	-0,039
-537,423	208,772	-0,053	-0,061
-536,408	-200,000	-0,013	-0,120
-535,393	-76,281	-0,057	-0,015
-534,379	-56,579	-0,081	-0,026
-533,364	800,000	0,029	0,093
-532,350	-200,000	0,000	-0,036
-531,335	113,380	-0,099	0,089
-530,321	-200,000	-0,018	-0,061
-529,306	-101,689	0,091	0,016
-528,291	-73,495	0,071	-0,019
-527,277	800,000	-0,021	-0,067
-526,262	76,760	0,100	-0,078
-525,248	-113,372	0,093	0,013
-524,233	-17,999	0,117	-0,054
-523,218	-200,000	-0,016	-0,113
-522,204	317,687	0,008	-0,011
-521,189	73,281	-0,057	-0,044
-520,175	-200,000	0,028	-0,121
-519,160	800,000	-0,042	-0,111
-518,145	-108,181	-0,068	0,011
-517,131	-93,857	-0,002	0,000
-516,116	800,000	-0,018	0,043
-515,102	162,606	-0,108	-0,112
-514,087	-26,065	-0,020	0,009
-513,072	124,233	0,069	0,064
-512,058	-81,799	-0,095	-0,023
-511,043	-200,000	-0,008	-0,069
-510,029	80,536	-0,089	0,071
-509,014	-98,318	-0,159	0,030
-507,999	191,812	0,035	-0,039
-506,985	-154,899	0,086	-0,004
-505,970	114,407	0,047	0,042
-504,956	-76,711	-0,183	0,047
-503,941	28,880	0,078	0,049
-502,926	-157,270	0,075	-0,003
-501,912	-200,000	0,002	-0,061
-500,897	102,012	0,068	0,059
-499,883	11,021	-0,086	-0,049
-498,868	-46,993	-0,088	-0,032
-497,853	-46,919	-0,112	-0,040
-496,839	-200,000	-0,016	-0,141
-495,824	-33,521	0,207	0,084
-494,810	-144,506	-0,076	-0,005
-493,795	-200,000	-0,002	-0,021
-492,781	62,234	-0,101	0,075
-491,766	-13,699	-0,052	0,025
-490,751	-189,316	0,017	-0,000
-489,737	-200,000	-0,014	-0,086
-488,722	-200,000	-0,018	-0,173
-487,708	-79,674	0,015	0,004
-486,693	154,528	0,064	0,065
-485,678	-200,000	0,001	0,009
-484,664	81,000	0,042	-0,033
-483,649	-200,000	-0,011	0,186
-482,635	-200,000	-0,021	-0,124
-481,620	-200,000	-0,001	-0,184
-480,605	166,416	-0,068	-0,071
-479,591	220,374	-0,066	0,078
-478,576	-93,922	0,163	0,033
-477,562	20,590	-0,054	-0,032
-476,547	-200,000	0,036	0,191
-475,532	-200,000	-0,019	0,110
-474,518	-138,894	-0,134	0,011
-473,503	391,217	0,028	0,043
-472,489	217,597	-0,103	0,121
-471,474	37,327	0,077	0,050
-470,459	-166,855	-0,101	0,003
-469,445	-200,000	0,001	0,013
-468,430	-61,210	-0,061	-0,019
-467,416	-200,000	0,042	-0,155
-466,401	-200,000	0,015	-0,072
-465,386	106,445	0,086	-0,075
-464,372	-200,000	0,042	-0,184
-463,357	-200,000	0,003	0,019
-462,343	800,000	-0,046	0,098
-461,328	-27,912	0,105	-0,045
-460,313	52,907	0,037	-0,026
-459,299	800,000	-0,038	0,079
-458,284	107,131	0,127	0,111
-457,270	-16,207	-0,124	0,058
-456,255	-99,990	-0,059	-0,011
-455,241	800,000	-0,030	-0,078
-454,226	-200,000	-0,009	-0,032
-453,211	283,919	0,061	0,082
-452,197	28,773	-0,045	-0,028
-451,182	257,270	-0,072	0,092
-450,168	234,211	-0,036	-0,044
-449,153	77,824	0,020	-0,016
-448,138	297,764	-0,105	-0,143
-447,124	800,000	0,002	-0,004
-446,109	16,020	0,066	0,038
-445,095	75,807	-0,084	0,065
-444,080	-137,529	0,123	-0,010
-443,065	776,430	-0,027	0,054
-442,051	-200,000	0,024	0,120
-441,036	800,000	-0,037	-0,106
-440,022	-32,157	-0,152	0,062
-439,007	-66,646	0,088	-0,025
-437,992	39,485	0,045	-0,030
-436,978	149,049	0,078	0,077
-435,963	-15,040	0,086	0,041
-434,949	41,000	-0,030	0,020
-433,934	350,355	-0,083	0,122
-432,919	54,836	0,060	-0,043
-431,905	-96,003	0,026	0,005
-430,890	74,561	0,045	-0,035
-429,876	800,000	-0,042	-0,096
-428,861	570,211	0,057	-0,102
-427,846	92,472	-0,036	0,030
-426,832	296,667	-0,103	-0,139
-425,817	-58,639	-0,047	0,015
-424,803	-200,000	0,005	-0,146
-423,788	-200,000	0,001	0,091
-422,773	32,784	-0,047	0,030
-421,759	-97,975	0,058	-0,011
-420,744	-57,728	-0,026	-0,008
-419,730	334,650	-0,050	-0,071
-418,715	800,000	0,004	-0,008
-417,701	264,432	0,029	0,037
-416,686	-200,000	-0,008	-0,028
-415,671	800,000	0,040	0,127
-414,657	-200,000	-0,024	0,152
-413,642	-200,000	0,018	0,120
-412,628	-141,700	-0,070	-0,005
-411,613	170,297	0,014	0,015
-410,598	-142,494	-0,116	0,008
-409,584	-110,696	-0,072	0,011
-408,569	-131,140	0,142	0,014
-407,555	260,518	-0,034	0,043
-406,540	-200,000	0,012	-0,117
-405,525	37,299	-0,109	-0,071
-404,511	74,498	-0,067	-0,052
-403,496	-50,014	-0,095	0,033
-402,482	-200,000	0,018	-0,072
-401,467	-200,000	0,019	0,215
-400,452	-94,003	-0,128	0,026
-399,438	38,346	-0,085	-0,055
-398,423	-200,000	0,069	0,274
-397,409	-200,000	-0,006	-0,052
-396,394	291,674	0,038	0,051
-395,379	-200,000	0,016	-0,085
-394,365	-119,320	0,082	0,010
-393,350	122,970	0,053	-0,049
-392,336	-200,000	0,003	0,025
-391,321	800,000	0,047	0,119
-390,306	71,128	-0,079	-0,060
-389,292	-35,878	0,090	0,035
-388,277	800,000	-0,025	0,079
-387,263	3,594	0,064	0,034
-386,248	800,000	-0,038	0,081
-385,233	102,679	-0,025	0,022
-384,219	376,151	-0,059	0,089
-383,204	-94,519	-0,101	0,020
-382,190	147,365	-0,022	0,022
-381,175	-90,644	-0,096	-0,020
-380,160	-161,917	-0,114	0,004
-379,146	557,589	0,048	0,086
-378,131	-126,691	0,078	0,008
-377,117	183,391	0,027	-0,029
-376,102	-200,000	0,014	-0,066
-375,088	17,761	0,114	0,067
-374,073	-21,165	-0,054	-0,024
-373,058	-135,679	0,120	0,010
-372,044	-200,000	0,022	-0,074
-371,029	325,313	0,078	0,110
-370,015	74,055	-0,063	0,048
-369,000	-135,818	-0,111	0,009
-367,985	-129,293	-0,117	0,012
-366,971	-9,154	0,125	-0,061
-365,956	62,333	0,129	-0,094
-364,942	345,311	-0,046	-0,067
-363,927	-151,851	0,156	-0,008
-362,912	-71,339	0,020	0,005
-361,898	91,658	-0,062	-0,052
-360,883	81,259	-0,087	-0,069
-359,869	-200,000	-0,009	-0,043
-358,854	-200,000	-0,022	-0,127
-357,839	-200,000	-0,016	0,127
-356,825	-200,000	0,025	0,155
-355,810	143,203	-0,025	-0,025
-354,796	-37,890	0,105	-0,041
-353,781	-139,063	-0,142	0,011
-352,766	186,075	-0,040	0,044
-351,752	407,396	-0,134	0,208
-350,737	455,059	0,097	0,158
-349,723	-130,206	-0,106	-0,010
-348,708	-200,000	-0,004	0,066
-347,693	612,699	0,037	-0,068
-346,679	-200,000	-0,003	-0,034
-345,664	-200,000	-0,035	-0,142
-344,650	162,945	-0,057	0,059
-343,635	-11,110	0,191	0,092
-342,620	-139,521	0,031	-0,002
-341,606	487,034	0,063	-0,106
-340,591	326,429	-0,020	0,029
-339,577	-72,546	0,145	0,039
-338,562	-137,455	0,099	0,008
-337,548	40,274	0,093	-0,061
-336,533	-200,000	0,011	0,053
-335,518	-200,000	0,015	0,138
-334,504	-200,000	-0,184	0,000
-333,489	502,703	0,033	0,056
-332,475	58,488	-0,122	-0,087
-331,460	454,329	0,032	-0,052
-330,445	800,000	-0,060	0,124
-329,431	131,192	-0,073	0,068
-328,416	800,000	-0,024	0,057
-327,402	-200,000	-0,005	-0,081
-326,387	462,944	-0,021	0,034
-325,372	800,000	-0,004	-0,009
-324,358	-200,000	0,003	-0,042
-323,343	105,011	-0,054	-0,046
-322,329	508,658	-0,093	0,158
-321,314	-142,441	0,086	0,006
-320,299	800,000	0,043	-0,120
-319,285	-200,000	-0,013	-0,051
-318,270	-200,000	-0,056	-0,194
-317,256	-79,905	0,099	-0,024
-316,241	-200,000	0,012	-0,067
-315,226	156,409	0,085	0,086
-314,212	18,217	0,076	-0,044
-313,197	514,884	0,061	0,105
-312,183	-3,371	0,129	-0,065
-311,168	-126,638	-0,129	0,014
-310,153	159,488	-0,026	-0,027
-309,139	-200,000	0,012	0,071
-308,124	397,534	0,086	0,131
-307,110	169,532	0,047	0,049
-306,095	210,115	-0,076	-0,087
-305,080	169,490	0,040	-0,041
-304,066	-115,971	-0,089	-0,012
-303,051	800,000	-0,040	-0,093
-302,037	-25,198	0,140	-0,060
-301,022	-200,000	-0,014	0,100
-300,008	456,386	0,038	0,062
-298,993	-200,000	-0,016	0,165
-297,978	250,819	0,058	-0,072
-296,964	274,699	-0,026	0,034
-295,949	350,687	0,093	0,135
-294,935	239,179	-0,111	-0,135
-293,920	800,000	0,035	0,109
-292,905	82,566	0,148	0,117
-291,891	-200,000	-0,006	-0,072
-290,876	-200,000	0,010	-0,066
-289,862	-0,222	0,057	0,029
-288,847	5,262	-0,036	-0,019
-287,832	-43,088	0,010	0,004
-286,818	324,775	0,026	0,036
-285,803	800,000	0,073	0,170
-284,789	214,872	0,008	-0,009
-283,774	254,296	-0,054	0,068
-282,759	59,169	-0,039	-0,028
-281,745	-38,012	-0,046	-0,018
-280,730	8,447	-0,094	-0,052
-279,716	10,381	0,062	0,035
-278,701	158,820	0,097	0,099
-277,686	117,994	0,085	-0,076
-276,672	711,134	0,051	-0,100
-275,657	258,006	0,081	0,103
-274,643	-102,922	-0,097	0,017
-273,628	-123,902	-0,066	-0,007
-272,613	315,631	0,081	0,112
-271,599	-123,445	0,060	0,007
-270,584	-27,756	0,163	0,069
-269,570	170,771	0,037	-0,039
-268,555	53,050	0,035	0,024
-267,540	-200,000	0,040	-0,135
-266,526	800,000	-0,053	-0,141
-265,511	551,828	0,035	-0,063
-264,497	742,437	0,034	-0,068
-263,482	800,000	0,047	0,147
-262,467	800,000	-0,017	0,053
-261,453	47,397	0,032	0,022
-260,438	800,000	-0,016	0,035
-259,424	-200,000	-0,023	-0,181
-258,409	19,359	0,071	-0,042
-257,395	340,090	0,073	0,104
-256,380	205,050	-0,048	-0,055
-255,365	-125,978	0,028	-0,003
-254,351	122,646	-0,085	-0,078
-253,336	-37,421	0,242	-0,094
-252,322	-64,213	0,054	0,016
-251,307	6,753	0,075	-0,041
-250,292	-102,319	0,142	-0,025
-249,278	-82,444	-0,060	-0,014
-248,263	97,829	0,100	0,084
-247,249	-40,704	0,061	0,023
-246,234	800,000	-0,013	-0,042
-245,219	421,611	-0,105	0,165
-244,205	301,929	0,007	0,009
-243,190	640,169	-0,064	0,120
-242,176	13,104	-0,041	0,023
-241,161	4,101	0,136	0,072
-240,146	71,204	-0,029	-0,022
-239,132	303,620	0,022	-0,029
-238,117	-42,907	0,046	0,017
-237,103	217,373	0,052	0,061
-236,088	800,000	0,049	-0,145
-235,073	-200,000	0,004	-0,095
-234,059	60,868	0,030	-0,021
-233,044	-85,216	0,138	0,031
-232,030	-200,000	0,011	0,074
-231,015	-63,531	0,079	-0,024
-230,000	800,000	-0,074	-0,171
-228,986	-124,237	0,104	-0,012
-227,971	-200,000	0,007	0,169
-226,957	197,020	0,086	0,095
-225,942	800,000	-0,038	0,120
-224,927	-200,000	0,013	-0,077
-223,913	-5,884	-0,102	-0,051
-222,898	306,323	0,015	0,020
-221,884	596,673	-0,024	-0,043
-220,869	41,441	-0,063	-0,042
-219,855	-77,482	-0,056	-0,014
-218,840	304,333	0,016	0,021
-217,825	800,000	-0,015	0,042
-216,811	43,971	-0,126	0,084
-215,796	414,094	0,018	0,028
-214,782	29,712	0,063	-0,039
-213,767	1,424	0,059	0,031
-212,752	-148,810	-0,079	0,005
-211,738	-103,374	0,082	0,014
-210,723	609,281	-0,060	0,109
-209,709	5,620	0,038	-0,021
-208,694	369,419	-0,025	-0,037
-207,679	94,011	-0,073	0,060
-206,665	-27,006	0,065	0,028
-205,650	40,570	0,086	-0,056
-204,636	-95,259	-0,210	0,041
-203,621	567,591	-0,044	0,079
-202,606	202,401	0,059	0,066
-201,592	85,796	-0,027	0,022
-200,577	28,194	0,121	-0,074
-199,563	-66,265	0,059	-0,017
-198,548	-155,685	0,059	-0,003
-197,533	-197,900	0,143	0,001
-196,519	-200,000	0,005	0,018
-195,504	404,563	-0,089	-0,138
-194,490	88,011	0,105	-0,085
-193,475	325,364	-0,087	-0,121
-192,460	530,334	-0,022	-0,038
-191,446	-33,360	-0,052	0,021
-190,431	422,320	0,056	0,087
-189,417	335,030	0,042	0,060
-188,402	-200,000	0,003	0,017
-187,387	-33,857	-0,093	0,037
-186,373	72,238	0,071	-0,054
-185,358	-16,312	0,050	-0,023
-184,344	-200,000	-0,012	-0,055
-183,329	-61,475	0,065	-0,020
-182,315	-200,000	-0,002	-0,203
-181,300	-200,000	-0,026	-0,100
-180,285	198,298	-0,013	0,015
-179,271	172,477	-0,080	-0,084
-178,256	13,186	-0,110	-0,062
-177,242	25,544	-0,056	-0,034
-176,227	-200,000	-0,006	0,190
-175,212	800,000	-0,048	0,108
-174,198	311,706	0,067	0,092
-173,183	-200,000	-0,004	-0,212
-172,169	47,443	-0,135	-0,091
-171,154	69,033	0,066	0,050
-170,139	94,691	0,046	0,038
-169,125	19,509	0,109	0,064
-168,110	150,611	-0,045	-0,045
-167,096	198,073	-0,024	0,027
-166,081	164,713	-0,054	0,056
-165,066	-5,625	-0,104	0,052
-164,052	107,767	0,083	-0,072
-163,037	800,000	-0,035	-0,081
-162,023	-200,000	0,021	0,121
-161,008	-69,574	-0,039	0,011
-159,993	-112,390	0,106	-0,015
-158,979	-74,922	0,063	0,016
-157,964	-200,000	0,006	-0,081
-156,950	399,768	-0,049	0,074
-155,935	370,860	-0,013	0,020
-154,920	19,528	-0,003	-0,002
-153,906	-200,000	0,008	0,054
-152,891	150,203	-0,077	0,076
-151,877	800,000	-0,012	0,033
-150,862	-200,000	-0,008	0,071
-149,847	491,762	-0,033	0,055
-148,833	156,818	0,053	-0,053
-147,818	-19,309	0,105	-0,047
-146,804	-200,000	0,034	0,111
-145,789	-200,000	0,009	-0,048
-144,775	-2,993	-0,055	0,028
-143,760	-200,000	0,050	-0,167
-142,745	-200,000	0,014	0,072
-141,731	-200,000	-0,016	0,111
-140,716	-107,211	0,159	-0,025
-139,702	697,984	-0,056	0,108
-138,687	-200,000	-0,001	0,020
-137,672	58,614	-0,110	0,078
-136,658	-200,000	0,034	-0,130
-135,643	138,671	0,062	-0,059
-134,629	643,912	0,036	0,068
-133,614	-18,361	0,140	0,063
-132,599	174,839	-0,061	-0,065
-131,585	800,000	0,053	-0,126
-130,570	800,000	0,048	0,149
-129,556	-53,488	-0,112	-0,037
-128,541	520,467	0,060	-0,102
-127,526	13,079	0,028	-0,016
-126,512	-200,000	0,030	0,149
-125,497	-200,000	-0,013	0,041
-124,483	800,000	-0,035	0,077
-123,468	-48,288	-0,027	0,010
-122,453	137,833	-0,072	-0,069
-121,439	350,354	-0,035	-0,050
-120,424	-48,234	0,097	-0,034
-119,410	800,000	0,016	0,051
-118,395	10,583	0,096	-0,053
-117,380	164,392	0,091	-0,094
-116,366	361,887	0,036	-0,052
-115,351	-56,073	-0,071	-0,023
-114,337	-143,529	-0,044	0,003
-113,322	800,000	-0,020	0,049
-112,307	466,965	0,101	-0,164
-111,293	81,070	-0,023	-0,018
-110,278	-121,326	0,101	-0,012
-109,264	800,000	-0,031	-0,094
-108,249	-11,701	-0,110	-0,052
-107,234	-83,213	0,073	-0,017
-106,220	-23,272	-0,047	-0,021
-105,205	800,000	-0,006	-0,014
-104,191	800,000	0,052	0,105
-103,176	-150,907	0,079	0,004
-102,162	-200,000	-0,013	-0,142
-101,147	-122,614	0,054	0,006
-100,132	-159,072	-0,044	0,002
-99,118	-110,460	-0,228	-0,034
-98,103	11,027	0,023	0,013
-97,089	-22,819	-0,170	0,074
-96,074	-200,000	-0,013	0,082
-95,059	340,141	0,023	-0,032
-94,045	-154,471	-0,071	-0,003
-93,030	412,567	-0,038	-0,059
-92,016	24,381	-0,091	-0,055
-91,001	87,574	-0,060	0,048
-89,986	224,361	-0,042	-0,050
-88,972	108,492	0,061	-0,053
-87,957	-14,941	0,060	-0,028
-86,943	-97,410	-0,116	0,022
-85,928	800,000	-0,029	-0,089
-84,913	-18,918	-0,056	0,025
-83,899	1,285	0,089	0,046
-82,884	800,000	-0,010	-0,026
-81,870	-16,441	0,094	-0,043
-80,855	-200,000	0,090	-0,000
-79,840	-200,000	-0,002	-0,041
-78,826	-134,204	-0,150	-0,013
-77,811	160,557	-0,146	-0,148
-76,797	800,000	-0,012	-0,035
-75,782	-147,321	0,129	0,008
-74,767	328,660	0,097	0,135
-73,753	-138,471	-0,131	0,010
-72,738	-113,776	0,174	0,024
-71,724	615,147	-0,032	0,058
-70,709	461,723	0,049	0,080
-69,694	-200,000	-0,004	0,039
-68,680	317,966	0,090	-0,125
-67,665	-67,872	-0,115	0,032
-66,651	143,554	-0,020	-0,019
-65,636	800,000	0,047	0,131
-64,622	-200,000	0,005	-0,097
-63,607	374,715	-0,057	-0,084
-62,592	-200,000	-0,020	0,065
-61,578	-53,689	-0,018	0,006
-60,563	-83,110	-0,030	0,007
-59,549	264,640	0,069	0,087
-58,534	-76,911	-1,424	-0,358
-57,519	645,589	-0,775	-1,441
-56,505	-200,000	-0,840	-4,457
-55,490	24,855	0,559	-0,335
-54,476	800,000	4,988	11,656
-53,461	-200,000	13,731	253,029
-52,446	-200,000	691,802	2242,224
-51,432	577,512	1622,799	2889,132
-50,417	117,822	1633,163	1458,360
-49,403	72,313	1287,171	971,422
-48,388	37,590	1023,199	657,035
-47,373	23,991	981,272	585,425
-46,359	23,308	970,688	576,850
-45,344	22,285	966,380	570,930
-44,330	22,183	965,129	569,836
-43,315	22,092	963,607	568,619
-42,300	22,050	962,443	567,773
-41,286	22,076	961,718	567,405
-40,271	22,045	960,545	566,591
-39,257	21,999	959,586	565,852
-38,242	22,028	958,782	565,450
-37,227	22,065	957,832	564,987
-36,213	22,039	956,988	564,383
-35,198	21,961	956,183	563,636
-34,184	22,000	955,674	563,439
-33,169	21,989	954,679	562,793
-32,154	22,063	953,690	562,427
-31,140	22,085	952,711	561,899
-30,125	22,130	951,978	561,588
-29,111	21,994	951,336	560,751
-28,096	22,104	950,459	560,564
-27,082	22,062	949,855	560,051
-26,067	22,079	949,162	559,674
-25,052	22,127	948,384	559,348
-24,038	22,025	947,940	558,736
-23,023	22,099	947,060	558,432
-22,009	22,094	946,410	558,011
-20,994	22,127	945,758	557,711
-19,979	22,063	945,166	557,134
-18,965	22,066	944,615	556,796
-17,950	22,053	943,955	556,344
-16,936	22,008	943,336	555,815
-15,921	21,950	942,539	555,138
-14,906	21,916	941,781	554,561
-13,892	21,978	941,124	554,349
-12,877	21,979	940,483	553,952
-11,863	21,918	939,863	553,373
-10,848	21,891	939,449	553,021
-9,833	22,014	939,094	553,181
-8,819	21,965	938,532	552,671
-7,804	21,978	937,736	552,222
-6,790	21,928	937,055	551,642
-5,775	22,023	936,463	551,572
-4,760	21,941	935,872	550,941
-3,746	21,934	935,200	550,501
-2,731	21,799	934,478	549,629
-1,717	21,712	933,895	548,993
-0,702	21,762	933,323	548,791
0,313	21,556	932,509	548,491
1,327	24,624	930,639	556,978
2,342	34,035	794,929	500,786
3,356	31,979	451,047	281,029
4,371	1,179	293,971	152,414
5,386	-3,203	274,842	138,336
6,400	-4,487	269,073	134,229
7,415	-4,838	266,776	132,748
8,429	-4,689	265,566	132,271
9,444	-4,728	264,650	131,767
10,459	-4,663	264,138	131,560
11,473	-4,605	263,602	131,334
12,488	-4,649	262,872	130,918
13,502	-5,010	262,484	130,386
14,517	-5,064	262,056	130,114
15,531	-5,051	261,595	129,885
16,546	-4,899	261,268	129,847
17,561	-4,918	260,878	129,626
18,575	-4,893	260,606	129,500
19,590	-4,890	260,173	129,277
20,604	-4,875	260,031	129,209
21,619	-4,954	259,615	128,920
22,634	-4,804	259,269	128,870
23,648	-4,798	258,926	128,693
24,663	-4,918	258,760	128,492
25,677	-4,814	258,429	128,409
26,692	-4,903	258,145	128,177
27,707	-4,779	257,981	128,195
28,721	-4,776	257,606	128,000
29,736	-4,988	257,586	127,790
30,750	-5,064	257,106	127,473
31,765	-4,872	256,876	127,518
32,780	-4,924	256,648	127,348
33,794	-4,867	256,398	127,262
34,809	-5,061	256,333	127,048
35,823	-4,878	255,892	126,979
36,838	-5,075	255,697	126,698
37,853	-5,003	255,625	126,714
38,867	-5,028	255,259	126,499
39,882	-5,109	255,117	126,346
40,896	-5,082	254,793	126,198
41,911	-5,042	254,721	126,187
42,926	-5,054	254,419	126,015
43,940	-5,018	254,132	125,893
44,955	-5,147	253,965	125,686
45,969	-5,181	253,716	125,523
46,984	-5,257	253,591	125,383
47,999	-5,333	253,301	125,162
49,013	-5,485	252,838	124,790
50,028	-5,607	252,649	124,580
51,042	-5,881	252,573	124,293
52,057	-5,579	252,323	124,421
53,071	-5,599	251,992	124,230
54,086	-5,686	251,890	124,093
55,101	-5,409	251,617	124,187
56,115	-5,283	251,647	124,299
57,130	-4,997	251,532	124,479
58,144	-4,513	251,306	124,774
59,159	-4,764	251,097	124,442
60,174	-4,690	250,920	124,408
61,188	-5,029	250,780	124,035
62,203	-4,996	250,552	123,940
63,217	-4,726	250,221	123,997
64,232	-4,860	250,176	123,848
65,247	-4,907	249,904	123,663
66,261	-4,899	249,626	123,521
67,276	-5,110	249,311	123,173
68,290	-5,120	249,108	123,054
69,305	-5,310	248,824	122,739
70,320	-5,349	248,727	122,648
71,334	-4,915	248,596	122,943
72,349	-4,756	248,460	123,000
73,363	-4,671	248,235	122,949
74,378	-4,858	248,064	122,695
75,393	-4,743	247,769	122,636
76,407	-5,301	247,826	122,179
77,422	-5,158	247,553	122,155
78,436	-4,814	247,165	122,244
79,451	-4,917	247,142	122,134
80,466	-4,869	246,728	121,959
81,480	-5,005	246,429	121,686
82,495	-5,067	246,371	121,594
83,509	-5,031	246,194	121,526
84,524	-5,240	246,142	121,313
85,539	-5,291	245,787	121,085
86,553	-5,327	245,631	120,967
87,568	-5,233	245,497	120,969
88,582	-5,127	245,240	120,921
89,597	-5,173	245,138	120,821
90,611	-5,139	244,927	120,735
91,626	-4,908	244,807	120,858
92,641	-4,997	244,738	120,739
93,655	-4,937	244,320	120,572
94,670	-5,210	244,122	120,236
95,684	-5,134	243,911	120,184
96,699	-5,014	243,786	120,212
97,714	-5,113	243,670	120,061
98,728	-5,361	243,476	119,749
99,743	-5,280	243,077	119,609
100,757	-5,378	243,019	119,489
101,772	-5,121	242,746	119,557
102,787	-5,090	242,614	119,507
103,801	-5,058	242,505	119,469
104,816	-4,897	242,229	119,456
105,830	-4,941	242,106	119,349
106,845	-4,660	241,914	119,476
107,860	-4,966	241,823	119,166
108,874	-4,967	241,653	119,072
109,889	-5,016	241,506	118,948
110,903	-5,019	241,218	118,793
111,918	-5,186	241,043	118,559
112,933	-5,017	240,906	118,620
113,947	-4,840	240,677	118,642
114,962	-4,891	240,605	118,555
115,976	-5,009	240,382	118,337
116,991	-4,976	240,116	118,222
118,006	-4,998	240,110	118,191
119,020	-4,995	240,072	118,164
120,035	-5,107	239,885	117,970
121,049	-4,851	239,708	118,082
122,064	-4,772	239,413	117,991
123,079	-4,986	239,283	117,741
124,093	-5,013	238,976	117,557
125,108	-5,268	238,869	117,286
126,122	-5,365	238,638	117,083
127,137	-5,302	238,381	116,998
128,151	-5,396	238,327	116,885
129,166	-5,091	238,150	117,036
130,181	-5,293	237,868	116,722
131,195	-5,364	237,736	116,590
132,210	-5,166	237,479	116,614
133,224	-4,872	237,416	116,811
134,239	-4,891	237,204	116,681
135,254	-5,140	237,172	116,453
136,268	-5,194	236,946	116,288
137,283	-5,148	236,571	116,131
138,297	-5,355	236,492	115,914
139,312	-5,570	236,322	115,648
140,327	-5,006	236,122	115,993
141,341	-4,618	236,126	116,297
142,356	-4,565	236,016	116,276
143,370	-4,911	235,878	115,919
144,385	-4,840	235,714	115,885
145,400	-4,657	235,550	115,941
146,414	-4,814	235,334	115,698
147,429	-4,777	235,184	115,644
148,443	-4,797	235,088	115,571
149,458	-4,750	234,883	115,497
150,473	-4,481	234,656	115,590
151,487	-4,790	234,474	115,243
152,502	-4,626	234,282	115,270
153,516	-4,687	234,215	115,178
154,531	-4,700	234,060	115,081
155,546	-4,458	233,705	115,089
156,560	-4,613	233,501	114,855
157,575	-4,813	233,397	114,635
158,589	-4,906	233,267	114,486
159,604	-4,638	233,034	114,574
160,619	-4,405	232,844	114,655
161,633	-4,550	232,844	114,531
162,648	-4,574	232,781	114,471
163,662	-4,791	232,673	114,235
164,677	-4,861	232,330	114,001
165,692	-4,757	232,351	114,084
166,706	-4,528	232,211	114,185
167,721	-4,699	231,869	113,872
168,735	-4,633	231,789	113,875
169,750	-4,490	231,508	113,839
170,764	-4,647	231,534	113,718
171,779	-4,671	231,327	113,588
172,794	-4,439	231,057	113,627
173,808	-4,571	230,993	113,482
174,823	-5,137	230,708	112,888
175,837	-5,280	230,531	112,679
176,852	-4,900	230,428	112,917
177,867	-4,628	230,418	113,114
178,881	-4,513	230,203	113,089
179,896	-4,584	230,116	112,980
180,910	-4,604	229,924	112,860
181,925	-4,607	229,846	112,810
182,940	-4,485	229,530	112,740
183,954	-4,428	229,496	112,758
184,969	-4,506	229,355	112,618
185,983	-4,516	229,296	112,570
186,998	-4,500	229,014	112,434
188,013	-4,235	228,850	112,550
189,027	-4,386	228,709	112,353
190,042	-4,407	228,585	112,266
191,056	-4,352	228,341	112,179
192,071	-4,529	228,239	111,981
193,086	-4,528	228,133	111,920
194,100	-4,594	227,986	111,787
195,115	-4,736	227,648	111,501
196,129	-5,252	227,523	111,032
197,144	-3,032	227,960	112,952
198,159	0,466	229,092	116,216
199,173	3,390	229,996	118,937
200,188	3,870	229,999	119,300
201,202	3,975	229,769	119,252
202,217	4,140	229,628	119,296
203,232	4,230	229,615	119,348
204,246	4,323	229,480	119,339
205,261	4,539	229,221	119,361
206,275	4,496	229,246	119,330
207,290	4,561	229,005	119,244
208,304	4,784	228,824	119,311
209,319	4,581	228,710	119,085
210,334	4,765	228,447	119,079
211,348	4,255	228,151	118,522
212,363	4,061	227,877	118,220
213,377	3,710	227,776	117,887
214,392	3,799	227,553	117,830
215,407	3,922	227,459	117,865
216,421	3,987	227,361	117,854
217,436	3,852	227,146	117,628
218,450	3,659	226,989	117,388
219,465	3,449	226,805	117,123
220,480	3,680	226,577	117,171
221,494	3,548	226,656	117,100
222,509	3,847	226,396	117,183
223,523	3,655	226,353	117,004
224,538	3,547	226,133	116,798
225,553	3,745	225,932	116,834
226,567	3,898	225,882	116,915
227,582	4,039	225,845	116,992
228,596	4,172	225,654	116,983
229,611	3,839	225,432	116,606
230,626	3,508	225,188	116,218
231,640	3,544	225,138	116,209
232,655	3,889	224,976	116,376
233,669	4,328	224,791	116,603
234,684	4,415	224,794	116,659
235,699	4,169	224,533	116,327
236,713	3,906	224,395	116,047
237,728	3,822	224,217	115,882
238,742	3,824	223,932	115,726
239,757	3,674	223,834	115,552
240,772	3,643	223,784	115,492
241,786	3,518	223,627	115,307
242,801	3,937	223,556	115,575
243,815	4,117	223,569	115,706
244,830	4,236	223,237	115,614
245,844	3,851	223,098	115,243
246,859	3,895	222,932	115,180
247,874	4,147	222,806	115,293
248,888	4,059	222,735	115,180
249,903	3,793	222,594	114,899
250,917	3,791	222,294	114,732
251,932	3,840	222,092	114,653
252,947	3,704	221,946	114,466
253,961	3,744	221,732	114,376
254,976	3,740	221,582	114,286
255,990	3,884	221,785	114,487
257,005	4,251	221,396	114,549
258,020	3,832	221,507	114,284
259,034	4,148	221,485	114,498
260,049	4,145	221,148	114,311
261,063	4,031	220,961	114,119
262,078	4,058	220,762	114,026
263,093	4,571	220,507	114,264
264,107	4,133	220,504	113,929
265,122	4,063	220,444	113,836
266,136	4,553	220,219	114,071
267,151	4,282	220,042	113,769
268,166	3,858	219,958	113,403
269,180	3,519	219,741	113,031
270,195	3,745	219,532	113,080
271,209	3,669	219,528	113,011
272,224	3,715	219,322	112,929
273,239	3,860	219,147	112,936
274,253	3,733	219,016	112,766
275,268	3,756	218,771	112,646
276,282	3,304	218,728	112,282
277,297	3,591	218,536	112,384
278,312	3,620	218,491	112,372
279,326	3,686	218,306	112,315
280,341	3,811	218,137	112,310
281,355	3,866	218,035	112,287
282,370	3,745	217,822	112,079
283,384	3,594	217,653	111,873
284,399	3,465	217,569	111,725
285,414	3,452	217,421	111,630
286,428	3,859	217,243	111,824
287,443	3,874	217,335	111,873
288,457	3,783	217,279	111,767
289,472	3,788	216,906	111,569
290,487	3,337	216,577	111,063
291,501	2,908	216,581	110,744
292,516	3,274	216,407	110,911
293,530	3,264	216,302	110,840
294,545	3,424	216,154	110,869
295,560	3,574	216,094	110,938
296,574	3,884	215,950	111,077
297,589	3,944	215,710	110,988
298,603	3,949	215,688	110,970
299,618	3,847	215,632	110,857
300,633	3,782	215,477	110,721
301,647	4,152	215,301	110,887
302,662	4,081	215,275	110,813
303,676	3,945	214,985	110,556
304,691	3,797	214,929	110,411
305,706	4,276	214,747	110,652
306,720	4,181	214,601	110,498
307,735	3,887	214,538	110,245
308,749	3,673	214,321	109,971
309,764	3,698	214,349	109,993
310,779	3,975	214,125	110,066
311,793	4,027	213,972	110,015
312,808	3,877	213,799	109,810
313,822	3,956	213,772	109,842
314,837	3,797	213,424	109,540
315,852	3,477	213,334	109,256
316,866	3,678	213,177	109,309
317,881	4,048	213,125	109,536
318,895	4,130	213,019	109,530
319,910	3,886	212,728	109,198
320,925	3,457	212,670	108,853
321,939	3,297	212,442	108,613
322,954	3,117	212,425	108,467
323,968	3,829	212,419	108,959
324,983	3,795	212,141	108,783
325,997	3,923	212,094	108,840
327,012	3,718	211,948	108,610
328,027	3,907	211,803	108,660
329,041	4,196	211,820	108,863
330,056	4,341	211,659	108,873
331,070	3,900	211,382	108,410
332,085	3,438	211,155	107,958
333,100	3,490	211,008	107,910
334,114	3,767	211,038	108,111
335,129	4,087	210,860	108,235
336,143	3,750	210,638	107,875
337,158	3,759	210,466	107,783
338,173	3,490	210,406	107,554
339,187	3,402	210,273	107,415
340,202	3,479	210,045	107,343
341,216	3,260	209,895	107,104
342,231	3,234	209,965	107,111
343,246	3,551	209,645	107,160
344,260	3,714	209,507	107,194
345,275	3,722	209,335	107,102
346,289	3,751	209,319	107,104
347,304	3,936	209,206	107,166
348,319	3,763	209,110	106,987
349,333	3,744	208,939	106,876
350,348	3,687	208,803	106,758
351,362	3,964	208,722	106,899
352,377	4,306	208,483	107,004
353,392	3,961	208,501	106,765
354,406	3,641	208,407	106,485
355,421	193,352	1345,305	1431,135
356,435	154,250	1483,925	1431,250
