DTS Sentinel unit serial number:	SN410029Multiplexer serial number:	ORYXHardware model number:	OX2-SRSoftware version number:	ORYX F/W v4,00 Oryx Data Collector v3.7.2.0data status	okinstallation	B6 Nyhavnadifferential loss correction	single-endedforward channel	channel 2reverse channel	N/Adate	2023/12/11time	00:45:08forward acquisition time	300,00reverse acquisition time	0,00gamma	499,1914k internal	0,3122k external	0,3122temperature offset calibration	1,0000default loss term (dB/km)	0,3820temperature slope calibration	1,0000multiplexer offset coefficient	1,0000multiplexer slope coefficient	1,0000fibre end	0,00T internal ref (°C)	22,28T ext. ref 1 (°C)	5,70T ext. ref 2 (°C)	5,73length (m)	temperature (°C)	Stokes	anti-Stokes-744,400	-200,000	-0,004	-0,106
-743,385	9,324	-0,209	-0,118
-742,371	-80,365	0,055	-0,014
-741,356	14,115	-0,230	0,133
-740,342	-37,484	0,091	0,036
-739,327	67,693	-0,206	0,157
-738,312	-77,039	-0,085	0,022
-737,298	-147,076	-0,263	-0,016
-736,283	63,477	0,098	-0,073
-735,269	745,217	-0,049	0,100
-734,254	800,000	0,073	-0,172
-733,239	-55,782	-0,433	-0,143
-732,225	-51,030	0,218	-0,076
-731,210	61,802	0,025	0,019
-730,196	314,422	-0,074	0,104
-729,181	167,036	0,056	0,059
-728,167	75,436	-0,080	-0,063
-727,152	-102,880	0,149	-0,026
-726,137	-154,248	-0,022	0,001
-725,123	168,564	-0,069	0,074
-724,108	-177,977	-0,201	0,003
-723,094	-200,000	-0,003	0,010
-722,079	-27,973	-0,040	0,017
-721,064	114,770	-0,108	0,098
-720,050	800,000	-0,013	-0,034
-719,035	-200,000	0,012	-0,064
-718,021	-102,966	0,147	-0,026
-717,006	-91,908	-0,004	-0,001
-715,991	-63,145	-0,022	0,007
-714,977	800,000	-0,045	-0,139
-713,962	-75,683	-0,227	-0,059
-712,948	800,000	-0,068	-0,167
-711,933	-48,022	0,036	-0,013
-710,918	-72,071	-0,122	0,033
-709,904	505,336	-0,018	-0,030
-708,889	-61,637	0,053	-0,016
-707,875	115,320	-0,123	-0,112
-706,860	800,000	0,029	-0,085
-705,845	-16,155	-0,061	-0,029
-704,831	188,717	-0,097	0,109
-703,816	170,292	-0,023	0,024
-702,802	283,102	-0,081	0,109
-701,787	447,881	-0,078	-0,129
-700,772	-152,233	-0,073	-0,004
-699,758	383,781	0,046	-0,071
-698,743	-74,809	-0,078	0,021
-697,729	-104,191	0,140	-0,024
-696,714	-200,000	-0,006	0,030
-695,699	178,707	-0,194	-0,211
-694,685	-200,000	0,012	0,047
-693,670	-200,000	-0,013	-0,185
-692,656	215,387	-0,036	0,042
-691,641	454,231	0,078	-0,129
-690,627	-200,000	-0,180	-0,001
-689,612	47,480	0,040	-0,028
-688,597	-60,753	-0,031	0,010
-687,583	304,112	-0,045	-0,062
-686,568	-69,452	-0,062	-0,018
-685,554	-63,582	0,063	-0,019
-684,539	800,000	-0,063	0,173
-683,524	144,723	0,054	0,053
-682,510	-200,000	0,014	0,059
-681,495	-142,511	-0,054	-0,004
-680,481	-7,106	-0,100	-0,050
-679,466	-200,000	0,025	-0,155
-678,451	-200,000	-0,012	-0,122
-677,437	535,124	-0,026	0,046
-676,422	-18,419	0,038	-0,018
-675,408	107,530	-0,056	0,050
-674,393	-200,000	0,002	-0,037
-673,378	-94,339	-0,066	0,013
-672,364	-91,445	-0,080	-0,017
-671,349	-104,249	0,126	0,022
-670,335	-200,000	0,020	0,135
-669,320	42,997	0,101	-0,068
-668,305	-100,555	0,037	0,007
-667,291	-38,227	0,076	-0,030
-666,276	165,331	-0,049	0,051
-665,262	53,379	-0,147	-0,104
-664,247	541,812	0,001	-0,001
-663,232	-200,000	0,001	0,086
-662,218	246,659	-0,062	0,077
-661,203	-60,516	-0,100	0,031
-660,189	-200,000	0,020	0,116
-659,174	70,366	-0,054	-0,041
-658,159	-99,218	-0,061	-0,011
-657,145	-45,358	0,048	0,018
-656,130	-173,586	0,068	-0,001
-655,116	-29,625	-0,051	-0,021
-654,101	800,000	-0,022	-0,073
-653,086	800,000	0,050	0,136
-652,072	800,000	-0,018	-0,050
-651,057	171,091	-0,084	-0,089
-650,043	0,828	0,081	0,043
-649,028	509,976	0,046	0,080
-648,014	64,193	0,086	0,065
-646,999	0,189	-0,145	0,076
-645,984	-31,870	0,162	-0,067
-644,970	115,813	-0,069	-0,063
-643,955	113,993	-0,045	0,041
-642,941	800,000	0,030	0,095
-641,926	109,355	-0,068	-0,061
-640,911	12,850	-0,032	0,018
-639,897	93,574	0,070	0,059
-638,882	61,107	-0,051	0,037
-637,868	325,808	0,063	-0,090
-636,853	-58,615	0,047	-0,015
-635,838	-200,000	0,023	-0,111
-634,824	5,948	-0,068	-0,037
-633,809	800,000	-0,040	0,126
-632,795	11,049	-0,023	-0,013
-631,780	254,754	0,053	0,068
-630,765	-107,221	-0,070	0,011
-629,751	147,251	-0,102	-0,102
-628,736	525,469	-0,070	-0,122
-627,722	-8,299	-0,035	-0,018
-626,707	800,000	0,044	0,096
-625,692	443,283	0,059	0,096
-624,678	-200,000	-0,010	-0,060
-623,663	21,313	-0,040	-0,024
-622,649	0,529	0,052	-0,027
-621,634	-200,000	-0,097	0,000
-620,619	-200,000	0,005	0,040
-619,605	4,804	-0,093	-0,051
-618,590	194,506	-0,023	-0,026
-617,576	29,104	-0,081	0,051
-616,561	-200,000	0,014	0,092
-615,546	165,256	-0,132	0,139
-614,532	-200,000	0,011	-0,067
-613,517	-200,000	0,015	-0,112
-612,503	619,140	-0,027	-0,051
-611,488	222,107	0,012	-0,014
-610,474	8,680	0,020	0,011
-609,459	-39,901	-0,172	-0,066
-608,444	24,223	0,047	0,029
-607,430	-73,733	0,117	-0,031
-606,415	-139,032	0,128	-0,010
-605,401	392,375	-0,117	0,182
-604,386	154,310	0,040	-0,041
-603,371	143,713	-0,064	0,063
-602,357	66,471	0,086	-0,065
-601,342	-200,000	0,007	-0,039
-600,328	526,522	0,071	-0,125
-599,313	102,139	-0,097	-0,084
-598,298	219,954	0,038	-0,045
-597,284	315,426	0,036	0,051
-596,269	800,000	-0,020	0,061
-595,255	-126,644	-0,141	-0,015
-594,240	194,796	-0,045	0,051
-593,225	-200,000	-0,031	-0,138
-592,211	145,041	-0,114	-0,113
-591,196	800,000	-0,025	-0,057
-590,182	-156,570	0,137	0,006
-589,167	-131,546	0,185	0,018
-588,152	-101,979	-0,071	-0,013
-587,138	611,839	-0,029	0,053
-586,123	-194,469	-0,098	0,001
-585,109	-200,000	0,006	-0,028
-584,094	-200,000	0,007	0,100
-583,079	-200,000	0,005	0,036
-582,065	-200,000	0,018	-0,062
-581,050	34,890	0,031	-0,020
-580,036	-200,000	0,014	-0,103
-579,021	194,463	-0,058	0,065
-578,006	-45,601	-0,163	0,060
-576,992	-200,000	-0,004	-0,084
-575,977	-200,000	0,021	-0,132
-574,963	147,005	-0,060	0,060
-573,948	-27,907	-0,087	0,037
-572,934	58,807	0,079	-0,057
-571,919	-94,958	0,010	0,002
-570,904	-97,169	-0,123	-0,024
-569,890	800,000	-0,089	-0,244
-568,875	457,036	-0,035	-0,058
-567,861	282,039	0,036	0,048
-566,846	82,527	-0,046	0,037
-565,831	-183,088	-0,124	-0,002
-564,817	241,262	0,074	-0,091
-563,802	-139,943	-0,094	-0,007
-562,788	-31,094	0,020	0,008
-561,773	-27,779	-0,015	-0,006
-560,758	187,125	0,094	0,104
-559,744	-77,921	0,141	0,036
-558,729	-158,115	0,089	0,004
-557,715	-7,847	-0,097	0,048
-556,700	2,989	-0,102	-0,055
-555,685	800,000	-0,021	-0,063
-554,671	-3,773	-0,082	0,042
-553,656	-200,000	0,008	-0,080
-552,642	-200,000	0,001	-0,044
-551,627	800,000	0,021	-0,056
-550,612	-73,083	-0,073	-0,020
-549,598	68,013	-0,116	-0,088
-548,583	212,204	-0,055	0,065
-547,569	-44,520	0,026	-0,010
-546,554	795,406	0,029	-0,059
-545,539	485,762	-0,029	0,050
-544,525	199,017	0,124	0,141
-543,510	268,374	-0,089	-0,115
-542,496	297,436	-0,110	-0,150
-541,481	-141,984	0,119	-0,009
-540,466	250,849	-0,033	0,042
-539,452	-200,000	0,002	-0,082
-538,437	-66,469	-0,064	-0,019
-537,423	-99,414	-0,040	-0,007
-536,408	443,846	-0,090	-0,146
-535,393	54,778	-0,104	0,074
-534,379	-110,737	0,067	0,010
-533,364	-45,150	-0,081	-0,030
-532,350	617,718	-0,017	0,032
-531,335	279,540	0,054	-0,072
-530,321	-200,000	-0,005	0,157
-529,306	91,657	-0,024	-0,020
-528,291	240,286	0,063	0,077
-527,277	-25,747	-0,084	-0,036
-526,262	800,000	-0,036	-0,097
-525,248	150,045	-0,034	0,034
-524,233	-70,592	-0,054	0,015
-523,218	120,786	-0,047	-0,043
-522,204	41,350	-0,059	-0,039
-521,189	33,607	-0,078	-0,050
-520,175	507,100	-0,045	-0,077
-519,160	82,231	0,109	-0,087
-518,145	-200,000	0,037	-0,147
-517,131	800,000	0,038	0,081
-516,116	-200,000	0,020	0,074
-515,102	-74,093	-0,017	-0,005
-514,087	800,000	-0,062	-0,200
-513,072	36,728	0,111	-0,072
-512,058	-43,892	-0,051	0,019
-511,043	-27,134	0,086	-0,037
-510,029	223,065	-0,065	-0,078
-509,014	-200,000	-0,016	-0,077
-507,999	-200,000	0,005	0,075
-506,985	800,000	0,012	-0,028
-505,970	-200,000	-0,004	-0,058
-504,956	201,662	0,103	-0,117
-503,941	800,000	-0,016	0,032
-502,926	800,000	-0,055	0,113
-501,912	-15,354	0,085	-0,040
-500,897	-31,655	-0,112	0,046
-499,883	-200,000	-0,020	0,065
-498,868	-74,200	-0,132	0,035
-497,853	-113,661	0,065	0,009
-496,839	-111,301	0,041	0,006
-495,824	98,742	-0,045	-0,039
-494,810	-92,224	0,132	-0,027
-493,795	-155,334	0,107	-0,005
-492,781	-91,126	0,141	0,030
-491,766	50,966	-0,110	0,077
-490,751	-90,548	0,128	-0,027
-489,737	70,343	-0,040	-0,031
-488,722	-200,000	0,022	0,096
-487,708	84,615	0,046	0,037
-486,693	-200,000	-0,010	0,104
-485,678	-174,923	0,073	-0,001
-484,664	239,682	0,060	-0,073
-483,649	-11,679	-0,030	0,014
-482,635	-64,165	-0,078	0,023
-481,620	550,497	-0,092	-0,163
-480,605	80,933	0,118	0,094
-479,591	342,998	-0,031	0,045
-478,576	-200,000	0,001	-0,068
-477,562	-137,281	0,067	0,006
-476,547	280,517	-0,050	0,066
-475,532	-200,000	-0,002	0,063
-474,518	329,323	0,032	-0,046
-473,503	-200,000	-0,005	0,083
-472,489	800,000	0,089	0,203
-471,474	-200,000	-0,002	0,113
-470,459	800,000	-0,045	0,109
-469,445	50,791	-0,028	0,019
-468,430	306,444	-0,047	0,064
-467,416	-60,006	-0,033	-0,010
-466,401	-200,000	0,007	-0,072
-465,386	736,704	-0,021	0,043
-464,372	-17,362	-0,102	-0,047
-463,357	46,646	-0,077	-0,053
-462,343	-109,451	0,040	-0,006
-461,328	115,956	0,071	-0,064
-460,313	-200,000	-0,038	-0,177
-459,299	790,594	-0,066	0,135
-458,284	-41,160	0,106	0,040
-457,270	-138,609	0,098	0,008
-456,255	86,321	0,064	-0,052
-455,241	-200,000	0,006	-0,114
-454,226	800,000	-0,006	0,018
-453,211	89,640	0,115	0,094
-452,197	271,583	-0,020	0,027
-451,182	-120,916	0,062	-0,008
-450,168	-200,000	0,022	-0,104
-449,153	-4,815	-0,054	0,028
-448,138	11,634	0,091	-0,051
-447,124	676,551	0,052	-0,099
-446,109	-32,159	-0,075	0,031
-445,095	398,573	0,031	0,048
-444,080	800,000	0,064	0,169
-443,065	517,319	0,057	0,098
-442,051	-148,682	-0,083	0,005
-441,036	-130,918	-0,118	-0,012
-440,022	-15,193	-0,091	0,043
-439,007	-200,000	-0,000	0,017
-437,992	41,325	0,169	0,113
-436,978	-86,376	0,016	0,004
-435,963	-147,059	-0,047	-0,003
-434,949	-133,527	-0,058	-0,005
-433,934	430,072	-0,087	-0,139
-432,919	-95,444	-0,028	-0,006
-431,905	-200,000	-0,006	-0,082
-430,890	148,762	0,095	-0,094
-429,876	-77,357	-0,059	0,015
-428,861	-133,074	0,094	0,009
-427,846	-94,202	0,131	-0,026
-426,832	176,817	-0,067	-0,072
-425,817	-200,000	-0,021	-0,088
-424,803	234,334	0,013	-0,016
-423,788	-200,000	0,018	0,088
-422,773	-61,739	0,097	-0,030
-421,759	74,938	-0,036	0,028
-420,744	-200,000	-0,015	0,088
-419,730	29,982	-0,034	-0,021
-418,715	-164,534	-0,088	-0,003
-417,701	-46,700	-0,109	0,039
-416,686	298,109	-0,083	0,113
-415,671	-160,935	0,056	-0,002
-414,657	-82,722	-0,098	0,023
-413,642	-200,000	0,007	-0,074
-412,628	-107,918	-0,226	-0,036
-411,613	-106,979	0,089	-0,014
-410,598	800,000	-0,028	-0,064
-409,584	-128,527	-0,102	0,010
-408,569	61,751	0,039	0,029
-407,555	8,933	0,201	-0,111
-406,540	635,585	-0,049	-0,092
-405,525	371,766	-0,063	0,094
-404,511	-59,286	-0,127	0,040
-403,496	-65,512	0,025	-0,007
-402,482	130,080	0,043	-0,041
-401,467	-107,773	-0,065	-0,010
-400,452	77,714	0,055	-0,043
-399,438	-200,000	-0,011	0,216
-398,423	-3,901	-0,078	-0,039
-397,409	85,235	0,127	-0,102
-396,394	-200,000	-0,021	-0,110
-395,379	-200,000	0,007	-0,096
-394,365	-200,000	0,011	0,048
-393,350	183,865	0,059	-0,064
-392,336	-200,000	-0,012	0,052
-391,321	67,870	0,010	-0,007
-390,306	-200,000	-0,010	-0,052
-389,292	-83,135	-0,062	-0,015
-388,277	6,545	0,146	0,079
-387,263	800,000	-0,002	0,006
-386,248	-200,000	0,017	-0,064
-385,233	124,562	0,088	-0,082
-384,219	-200,000	0,020	-0,084
-383,204	800,000	-0,009	0,022
-382,190	93,123	-0,010	-0,008
-381,175	800,000	-0,020	-0,063
-380,160	173,546	0,059	-0,063
-379,146	800,000	-0,013	-0,028
-378,131	-200,000	-0,001	-0,030
-377,117	-8,506	0,023	0,011
-376,102	39,236	-0,059	-0,039
-375,088	800,000	-0,019	-0,048
-374,073	-90,509	0,099	0,021
-373,058	184,426	0,052	0,057
-372,044	-200,000	0,012	-0,120
-371,029	686,213	0,067	0,129
-370,015	-79,663	0,027	-0,007
-369,000	263,504	-0,060	0,077
-367,985	218,226	-0,017	0,021
-366,971	627,269	0,053	-0,099
-365,956	68,962	0,066	-0,049
-364,942	709,457	0,025	-0,048
-363,927	-74,745	0,159	-0,042
-362,912	800,000	0,030	-0,066
-361,898	272,472	-0,042	0,055
-360,883	-200,000	0,019	-0,100
-359,869	270,648	0,023	-0,029
-358,854	-61,338	0,166	0,051
-357,839	800,000	0,013	-0,029
-356,825	344,180	-0,065	-0,094
-355,810	-139,702	-0,069	0,005
-354,796	-200,000	0,008	-0,071
-353,781	-200,000	0,014	0,163
-352,766	-200,000	-0,012	-0,098
-351,752	-200,000	0,008	0,053
-350,737	-112,481	0,048	0,007
-349,723	246,636	0,054	-0,067
-348,708	-200,000	-0,032	-0,106
-347,693	-200,000	0,012	-0,068
-346,679	-200,000	0,012	-0,056
-345,664	-200,000	-0,012	-0,063
-344,650	800,000	0,057	0,178
-343,635	131,085	0,122	0,115
-342,620	-131,490	-0,058	0,006
-341,606	-174,787	-0,017	0,000
-340,591	-200,000	0,023	0,087
-339,577	-200,000	0,008	-0,113
-338,562	-81,593	-0,111	0,027
-337,548	273,975	0,043	0,056
-336,533	97,477	-0,054	-0,045
-335,518	-40,147	0,231	0,088
-334,504	-21,049	-0,160	-0,072
-333,489	-200,000	0,028	-0,098
-332,475	-198,821	0,062	0,000
-331,460	424,443	-0,042	0,067
-330,445	-200,000	-0,025	0,091
-329,431	168,714	0,049	0,051
-328,416	15,028	0,135	-0,077
-327,402	800,000	0,003	0,007
-326,387	54,039	0,045	0,032
-325,372	330,552	-0,041	-0,058
-324,358	94,904	-0,082	0,068
-323,343	-4,960	-0,069	-0,035
-322,329	64,352	-0,115	-0,085
-321,314	-171,355	0,060	0,001
-320,299	-18,121	0,162	0,074
-319,285	-19,357	0,052	0,024
-318,270	800,000	-0,044	0,109
-317,256	-54,483	-0,118	0,039
-316,241	171,670	-0,081	-0,085
-315,226	-95,969	0,074	-0,014
-314,212	383,119	0,074	0,111
-313,197	335,111	0,043	-0,061
-312,183	72,011	-0,076	0,058
-311,168	532,378	0,038	0,065
-310,153	353,699	-0,051	0,074
-309,139	-99,123	0,109	-0,020
-308,124	174,923	0,049	0,052
-307,110	-106,485	0,158	-0,026
-306,095	-107,525	-0,046	0,007
-305,080	176,046	-0,066	-0,070
-304,066	-200,000	0,022	0,072
-303,051	-200,000	0,018	-0,069
-302,037	800,000	0,046	-0,101
-301,022	647,943	0,036	0,067
-300,008	481,492	0,070	0,118
-298,993	-200,000	-0,013	0,158
-297,978	104,523	-0,038	0,033
-296,964	216,174	-0,030	-0,035
-295,949	36,629	0,159	-0,103
-294,935	9,127	-0,020	-0,011
-293,920	-6,789	0,131	0,065
-292,905	800,000	-0,046	-0,102
-291,891	-200,000	-0,017	-0,069
-290,876	800,000	-0,008	-0,024
-289,862	800,000	-0,069	0,154
-288,847	-200,000	0,001	-0,082
-287,832	800,000	-0,027	0,077
-286,818	800,000	0,050	-0,115
-285,803	-200,000	0,006	0,067
-284,789	194,137	0,072	-0,080
-283,774	-200,000	-0,025	0,118
-282,759	-200,000	0,001	-0,131
-281,745	37,993	-0,110	-0,071
-280,730	676,473	0,005	0,009
-279,716	155,369	-0,008	-0,008
-278,701	242,037	-0,082	0,100
-277,686	644,472	0,045	0,084
-276,672	-119,640	0,099	-0,012
-275,657	622,526	-0,023	-0,042
-274,643	82,319	0,048	0,038
-273,628	65,971	-0,024	-0,018
-272,613	4,989	0,085	0,046
-271,599	125,552	-0,033	-0,031
-270,584	-169,610	0,144	-0,004
-269,570	157,720	-0,060	0,061
-268,555	328,496	-0,026	0,037
-267,540	102,802	0,078	-0,067
-266,526	800,000	0,044	-0,100
-265,511	326,134	-0,075	-0,105
-264,497	-180,206	0,088	0,001
-263,482	800,000	0,058	0,119
-262,467	99,688	0,061	0,052
-261,453	-52,936	0,058	-0,019
-260,438	394,200	-0,034	-0,053
-259,424	-96,438	0,056	0,011
-258,409	-148,254	-0,030	0,002
-257,395	800,000	-0,023	-0,061
-256,380	-200,000	-0,006	0,067
-255,365	6,386	-0,056	0,030
-254,351	59,240	0,174	0,125
-253,336	179,578	-0,037	0,040
-252,322	-1,878	-0,061	-0,031
-251,307	30,651	0,012	0,007
-250,292	58,494	0,054	-0,039
-249,278	-62,150	-0,111	-0,034
-248,263	-200,000	0,004	-0,018
-247,249	226,092	0,084	-0,100
-246,234	-120,798	0,122	0,015
-245,219	-200,000	0,018	0,068
-244,205	172,510	0,073	0,077
-243,190	-200,000	-0,038	0,124
-242,176	606,629	0,044	0,080
-241,161	800,000	0,023	0,054
-240,146	173,090	0,050	0,052
-239,132	453,504	-0,026	0,042
-238,117	5,594	0,072	0,039
-237,103	12,230	-0,029	-0,016
-236,088	-200,000	-0,002	0,037
-235,073	31,882	0,115	-0,072
-234,059	145,076	0,041	-0,040
-233,044	-99,776	0,115	0,021
-232,030	577,127	-0,034	0,062
-231,015	-200,000	-0,003	0,029
-230,000	-94,308	-0,081	0,016
-228,986	689,803	-0,028	0,053
-227,971	-200,000	0,034	-0,122
-226,957	-200,000	0,008	0,051
-225,942	-200,000	0,004	-0,051
-224,927	43,373	-0,098	0,065
-223,913	51,285	-0,023	0,016
-222,898	800,000	0,048	-0,110
-221,884	-177,257	-0,102	-0,002
-220,869	532,309	0,015	0,027
-219,855	-74,432	0,165	0,043
-218,840	339,368	-0,071	0,101
-217,825	-60,631	-0,061	-0,019
-216,811	103,153	-0,186	-0,159
-215,796	-90,861	-0,104	0,022
-214,782	32,500	-0,079	-0,050
-213,767	-49,737	-0,016	-0,005
-212,752	351,853	0,017	0,024
-211,738	581,102	0,082	0,147
-210,723	349,305	-0,026	0,037
-209,709	-94,529	-0,182	-0,036
-208,694	71,073	-0,143	0,108
-207,679	-36,018	-0,083	0,033
-206,665	115,175	-0,075	0,066
-205,650	-200,000	-0,061	0,217
-204,636	688,153	-0,026	0,051
-203,621	800,000	-0,042	0,111
-202,606	-93,759	-0,114	0,023
-201,592	250,579	-0,102	0,127
-200,577	-73,666	0,103	0,027
-199,563	-200,000	-0,002	-0,058
-198,548	42,266	-0,115	0,076
-197,533	-86,386	0,021	-0,005
-196,519	664,435	-0,013	-0,024
-195,504	238,001	-0,085	0,103
-194,490	-200,000	0,025	-0,141
-193,475	465,013	0,068	-0,111
-192,460	-200,000	0,002	0,023
-191,446	-200,000	0,011	0,052
-190,431	-200,000	-0,012	0,056
-189,417	748,597	0,006	-0,012
-188,402	181,885	0,038	-0,041
-187,387	-200,000	-0,002	0,009
-186,373	-200,000	-0,023	-0,109
-185,358	-3,479	0,086	-0,043
-184,344	243,021	0,117	0,144
-183,329	-132,756	0,126	-0,012
-182,315	-200,000	0,012	-0,115
-181,300	-130,882	-0,104	-0,010
-180,285	-82,497	-0,157	-0,037
-179,271	-200,000	-0,001	-0,022
-178,256	-57,013	0,141	0,045
-177,242	-33,914	-0,040	0,016
-176,227	-200,000	0,014	0,086
-175,212	-30,976	-0,125	0,051
-174,198	-115,231	0,059	-0,008
-173,183	-131,768	-0,056	-0,005
-172,169	46,707	0,078	-0,053
-171,154	-59,123	-0,105	-0,033
-170,139	-200,000	0,000	0,113
-169,125	-189,179	-0,061	-0,001
-168,110	581,789	0,068	0,123
-167,096	-200,000	-0,007	0,109
-166,081	206,892	0,032	0,036
-165,066	195,820	-0,066	-0,074
-164,052	-200,000	0,007	-0,088
-163,037	12,162	0,077	0,043
-162,023	-200,000	0,076	0,000
-161,008	227,594	0,033	0,039
-159,993	75,883	0,074	0,057
-158,979	800,000	0,054	0,153
-157,964	48,891	-0,041	0,028
-156,950	13,504	0,092	0,052
-155,935	109,205	-0,032	0,028
-154,920	-200,000	-0,019	-0,085
-153,906	-72,234	0,193	0,052
-152,891	-200,000	-0,010	0,038
-151,877	-109,660	-0,172	-0,026
-150,862	-40,240	0,036	0,014
-149,847	-102,867	0,125	0,021
-148,833	-114,591	-0,120	0,017
-147,818	455,843	-0,025	0,040
-146,804	-94,442	-0,053	0,011
-145,789	-27,185	0,060	-0,025
-144,775	-84,324	-0,065	-0,015
-143,760	-200,000	-0,022	-0,124
-142,745	-200,000	-0,009	0,133
-141,731	315,549	0,020	0,027
-140,716	-37,277	0,066	0,026
-139,702	-90,347	0,152	0,032
-138,687	99,205	-0,053	0,045
-137,672	688,191	-0,022	-0,042
-136,658	92,259	0,117	-0,096
-135,643	-5,809	-0,045	-0,022
-134,629	779,052	0,045	0,089
-133,614	-200,000	0,001	0,067
-132,599	302,771	0,086	0,116
-131,585	-200,000	0,011	0,114
-130,570	-176,555	-0,173	0,003
-129,556	-89,417	-0,040	-0,008
-128,541	800,000	-0,027	-0,082
-127,526	-39,565	0,039	0,015
-126,512	-174,389	0,017	0,000
-125,497	-200,000	0,014	-0,052
-124,483	-156,921	0,147	-0,006
-123,468	800,000	-0,034	0,072
-122,453	475,640	-0,057	-0,094
-121,439	206,891	-0,103	-0,117
-120,424	-200,000	-0,020	-0,069
-119,410	23,559	-0,076	0,045
-118,395	-200,000	0,005	0,102
-117,380	-120,473	-0,039	0,005
-116,366	-112,005	-0,135	-0,020
-115,351	469,836	0,024	0,040
-114,337	-90,467	-0,087	0,018
-113,322	115,839	0,140	-0,124
-112,307	-34,574	-0,140	0,055
-111,293	-152,692	0,179	0,009
-110,278	95,285	0,123	0,102
-109,264	138,006	-0,030	0,029
-108,249	-200,000	-0,066	0,242
-107,234	346,998	0,073	-0,105
-106,220	800,000	-0,025	0,063
-105,205	-200,000	0,005	0,016
-104,191	800,000	0,040	0,124
-103,176	-75,595	-0,053	-0,014
-102,162	-69,155	-0,137	-0,038
-101,147	722,036	0,034	0,066
-100,132	612,239	-0,014	0,026
-99,118	-200,000	-0,003	-0,066
-98,103	800,000	0,006	-0,018
-97,089	-151,199	-0,076	-0,004
-96,074	-70,349	0,191	0,052
-95,059	-46,563	-0,024	-0,009
-94,045	261,077	0,029	-0,037
-93,030	-84,670	0,033	0,007
-92,016	124,055	-0,056	-0,051
-91,001	-200,000	0,001	-0,044
-89,986	-99,896	0,120	0,022
-88,972	179,847	0,058	0,062
-87,957	-200,000	0,001	0,054
-86,943	-1,038	-0,145	-0,074
-85,928	86,726	0,044	0,036
-84,913	122,884	-0,082	0,075
-83,899	48,441	-0,056	0,038
-82,884	-77,176	0,203	0,051
-81,870	-9,305	-0,008	0,004
-80,855	285,937	0,081	-0,106
-79,840	-200,000	-0,010	0,140
-78,826	-200,000	-0,005	-0,081
-77,811	281,212	-0,118	-0,154
-76,797	-200,000	0,001	0,030
-75,782	-47,522	0,035	-0,012
-74,767	-200,000	0,009	0,039
-73,753	-98,088	-0,086	0,016
-72,738	800,000	0,028	0,067
-71,724	364,436	0,072	-0,106
-70,709	-200,000	-0,036	-0,191
-69,694	722,039	-0,062	-0,120
-68,680	-200,000	0,030	0,126
-67,665	-200,000	0,040	0,250
-66,651	648,638	0,039	0,073
-65,636	-200,000	-0,009	0,087
-64,622	-200,000	0,012	-0,086
-63,607	-40,821	-0,077	-0,029
-62,592	-103,770	-0,072	-0,012
-61,578	-200,000	-0,012	0,099
-60,563	800,000	0,004	0,009
-59,549	-200,000	0,004	0,106
-58,534	-122,246	-1,376	-0,161
-57,519	455,661	-0,830	-1,341
-56,505	-200,000	-0,916	-4,404
-55,490	139,793	0,523	-0,500
-54,476	800,000	5,025	11,966
-53,461	-200,000	13,617	253,228
-52,446	-200,000	690,624	2256,672
-51,432	588,969	1622,463	2913,806
-50,417	118,767	1634,675	1465,549
-49,403	73,067	1288,422	976,322
-48,388	37,975	1023,958	659,436
-47,373	24,306	981,746	587,288
-46,359	23,463	971,394	578,308
-45,344	22,494	967,230	572,637
-44,330	22,421	965,638	571,435
-43,315	22,345	964,191	570,308
-42,300	22,350	963,085	569,648
-41,286	22,303	962,356	569,040
-40,271	22,315	961,200	568,374
-39,257	22,335	960,285	567,874
-38,242	22,278	959,433	567,162
-37,227	22,303	958,424	566,624
-36,213	22,303	957,605	566,118
-35,198	22,190	957,012	565,380
-34,184	22,274	956,144	565,116
-33,169	22,264	955,384	564,610
-32,154	22,318	954,274	564,109
-31,140	22,308	953,354	563,510
-30,125	22,379	952,701	563,331
-29,111	22,345	951,743	562,633
-28,096	22,314	951,068	562,110
-27,082	22,362	950,344	561,815
-26,067	22,357	949,650	561,365
-25,052	22,322	948,918	560,797
-24,038	22,310	948,509	560,496
-23,023	22,295	947,855	560,040
-22,009	22,356	947,125	559,783
-20,994	22,371	946,484	559,430
-19,979	22,355	945,739	558,915
-18,965	22,319	945,158	558,434
-17,950	22,322	944,610	558,098
-16,936	22,305	943,793	557,540
-15,921	22,239	943,263	556,994
-14,906	22,239	942,393	556,459
-13,892	22,221	941,784	556,019
-12,877	22,214	941,292	555,684
-11,863	22,129	940,638	555,005
-10,848	22,173	940,140	554,828
-9,833	22,310	939,639	554,946
-8,819	22,297	938,840	554,410
-7,804	22,221	938,250	553,798
-6,790	22,255	937,628	553,517
-5,775	22,245	937,307	553,276
-4,760	22,227	936,416	552,671
-3,746	22,213	935,942	552,325
-2,731	22,042	935,269	551,365
-1,717	22,039	934,493	550,877
-0,702	21,976	933,881	550,295
0,313	21,857	933,148	550,319
1,327	25,078	930,959	559,105
2,342	34,775	795,646	503,659
3,356	32,625	451,603	282,607
4,371	1,482	293,941	152,844
5,386	-3,089	274,915	138,608
6,400	-4,652	269,194	134,258
7,415	-5,102	266,664	132,570
8,429	-4,840	265,393	132,167
9,444	-4,860	264,750	131,817
10,459	-4,806	264,010	131,486
11,473	-4,937	263,451	131,076
12,488	-4,892	262,963	130,863
13,502	-5,179	262,553	130,386
14,517	-4,968	262,135	130,359
15,531	-4,811	261,628	130,236
16,546	-4,780	261,156	130,018
17,561	-4,792	260,905	129,870
18,575	-4,750	260,552	129,721
19,590	-4,713	260,139	129,537
20,604	-4,648	259,892	129,461
21,619	-4,782	259,601	129,184
22,634	-4,754	259,324	129,060
23,648	-4,810	258,984	128,829
24,663	-4,889	258,629	128,570
25,677	-4,766	258,539	128,623
26,692	-4,770	258,304	128,492
27,707	-4,943	258,018	128,185
28,721	-4,928	257,833	128,094
29,736	-4,779	257,449	128,025
30,750	-4,777	257,251	127,917
31,765	-5,059	257,030	127,545
32,780	-4,800	256,869	127,684
33,794	-4,731	256,568	127,584
34,809	-4,887	256,368	127,335
35,823	-5,065	256,304	127,135
36,838	-4,846	255,761	127,046
37,853	-4,845	255,512	126,913
38,867	-4,977	255,274	126,667
39,882	-5,103	255,161	126,489
40,896	-5,147	255,019	126,369
41,911	-5,009	254,787	126,364
42,926	-5,015	254,377	126,144
43,940	-5,009	254,205	126,052
44,955	-5,172	254,122	125,857
45,969	-5,109	253,882	125,782
46,984	-5,494	253,626	125,308
47,999	-5,440	253,246	125,156
49,013	-5,530	252,947	124,919
50,028	-5,566	252,662	124,736
51,042	-5,805	252,600	124,486
52,057	-5,783	252,395	124,393
53,071	-5,910	252,105	124,129
54,086	-5,612	251,917	124,284
55,101	-5,559	251,847	124,284
56,115	-5,297	251,566	124,361
57,130	-4,916	251,475	124,634
58,144	-4,786	251,383	124,690
59,159	-4,574	251,149	124,746
60,174	-4,530	250,921	124,660
61,188	-4,785	250,656	124,296
62,203	-4,875	250,603	124,182
63,217	-4,856	250,382	124,078
64,232	-4,779	249,968	123,928
65,247	-4,990	249,977	123,740
66,261	-4,750	249,595	123,745
67,276	-4,978	249,438	123,461
68,290	-5,113	249,122	123,179
69,305	-5,480	248,984	122,786
70,320	-5,324	248,673	122,754
71,334	-4,942	248,627	123,046
72,349	-4,857	248,477	123,035
73,363	-4,689	248,317	123,087
74,378	-4,869	248,229	122,880
75,393	-4,739	247,835	122,784
76,407	-5,044	247,808	122,500
77,422	-4,972	247,532	122,413
78,436	-4,790	247,368	122,476
79,451	-4,681	247,063	122,407
80,466	-4,995	246,986	122,092
81,480	-4,934	246,614	121,948
82,495	-5,189	246,495	121,663
83,509	-5,065	246,346	121,683
84,524	-5,085	246,044	121,507
85,539	-5,219	245,791	121,258
86,553	-5,374	245,797	121,119
87,568	-5,146	245,534	121,171
88,582	-5,187	245,391	121,055
89,597	-5,231	245,177	120,902
90,611	-5,158	244,987	120,858
91,626	-4,967	244,777	120,905
92,641	-4,728	244,660	121,036
93,655	-4,805	244,319	120,792
94,670	-4,952	244,369	120,683
95,684	-4,899	243,891	120,481
96,699	-5,029	243,950	120,391
97,714	-5,065	243,593	120,173
98,728	-5,072	243,447	120,085
99,743	-5,198	243,248	119,871
100,757	-5,414	243,073	119,594
101,772	-5,237	242,822	119,607
102,787	-5,121	242,665	119,616
103,801	-5,137	242,514	119,517
104,816	-5,111	242,459	119,502
105,830	-4,946	242,413	119,605
106,845	-4,872	242,141	119,521
107,860	-4,774	241,766	119,406
108,874	-5,065	241,713	119,129
109,889	-5,287	241,479	118,820
110,903	-4,950	241,222	118,961
111,918	-5,171	241,102	118,708
112,933	-5,259	240,932	118,541
113,947	-4,890	240,740	118,741
114,962	-5,037	240,648	118,563
115,976	-4,701	240,466	118,740
116,991	-4,712	240,194	118,586
118,006	-4,859	240,042	118,380
119,020	-4,986	240,027	118,258
120,035	-4,815	239,773	118,262
121,049	-4,828	239,713	118,211
122,064	-4,879	239,484	118,046
123,079	-4,932	239,199	117,852
124,093	-5,038	238,987	117,650
125,108	-5,251	238,810	117,378
126,122	-5,519	238,759	117,124
127,137	-5,548	238,558	116,991
128,151	-5,320	238,333	117,056
129,166	-5,291	238,199	117,004
130,181	-5,211	237,984	116,952
131,195	-5,215	237,837	116,867
132,210	-4,956	237,579	116,940
133,224	-4,949	237,579	116,935
134,239	-5,018	237,165	116,665
135,254	-4,893	237,097	116,723
136,268	-5,117	236,881	116,425
137,283	-5,370	236,635	116,089
138,297	-5,513	236,528	115,910
139,312	-5,448	236,317	115,849
140,327	-5,353	236,276	115,895
141,341	-4,640	236,306	116,474
142,356	-4,571	236,010	116,374
143,370	-4,691	235,872	116,200
144,385	-4,579	235,742	116,215
145,400	-4,357	235,473	116,250
146,414	-4,494	235,501	116,143
147,429	-4,646	235,196	115,861
148,443	-4,811	235,093	115,667
149,458	-4,588	234,871	115,726
150,473	-4,805	234,685	115,451
151,487	-4,832	234,666	115,410
152,502	-4,834	234,430	115,282
153,516	-4,610	234,234	115,354
154,531	-4,728	233,988	115,128
155,546	-4,978	234,089	114,968
156,560	-4,789	233,775	114,954
157,575	-4,981	233,500	114,656
158,589	-4,814	233,373	114,716
159,604	-4,630	233,230	114,782
160,619	-4,640	233,210	114,754
161,633	-4,540	233,096	114,767
162,648	-4,342	232,728	114,733
163,662	-4,490	232,698	114,590
164,677	-4,787	232,482	114,238
165,692	-4,728	232,260	114,166
166,706	-4,512	232,118	114,257
167,721	-4,649	232,108	114,133
168,735	-4,534	231,810	114,068
169,750	-4,661	231,848	113,976
170,764	-4,784	231,583	113,738
171,779	-4,636	231,353	113,731
172,794	-4,556	231,270	113,744
173,808	-4,737	230,959	113,438
174,823	-5,223	230,725	112,931
175,837	-5,189	230,577	112,876
176,852	-5,146	230,657	112,939
177,867	-4,648	230,534	113,259
178,881	-4,795	230,388	113,062
179,896	-4,359	230,128	113,266
180,910	-4,435	230,017	113,141
181,925	-4,467	229,856	113,027
182,940	-4,436	229,682	112,956
183,954	-4,546	229,564	112,802
184,969	-4,464	229,416	112,783
185,983	-4,395	229,371	112,805
186,998	-4,372	229,062	112,660
188,013	-4,313	229,013	112,672
189,027	-4,625	228,841	112,335
190,042	-4,295	228,608	112,467
191,056	-4,247	228,260	112,323
192,071	-4,378	228,278	112,220
193,086	-4,713	228,180	111,902
194,100	-4,469	227,792	111,891
195,115	-5,008	227,704	111,420
196,129	-5,491	227,373	110,876
197,144	-1,838	228,472	114,234
198,159	2,306	229,671	118,046
199,173	4,217	230,154	119,770
200,188	4,294	230,041	119,760
201,202	4,389	229,819	119,708
202,217	4,628	229,772	119,858
203,232	4,663	229,719	119,847
204,246	4,848	229,386	119,806
205,261	4,858	229,435	119,829
206,275	4,924	229,314	119,805
207,290	5,263	229,079	119,934
208,304	5,183	228,952	119,795
209,319	5,021	228,732	119,544
210,334	4,921	228,534	119,353
211,348	4,526	228,302	118,917
212,363	4,471	228,155	118,788
213,377	4,092	227,759	118,279
214,392	4,106	227,754	118,278
215,407	4,204	227,650	118,288
216,421	4,438	227,517	118,387
217,436	4,284	227,286	118,139
218,450	4,027	227,074	117,822
219,465	3,896	226,895	117,618
220,480	3,980	226,755	117,599
221,494	3,907	226,765	117,539
222,509	4,002	226,597	117,513
223,523	4,119	226,304	117,440
224,538	4,103	226,276	117,403
225,553	4,000	226,160	117,254
226,567	4,239	226,129	117,409
227,582	4,505	225,807	117,434
228,596	4,691	225,642	117,479
229,611	4,215	225,650	117,111
230,626	4,151	225,369	116,906
231,640	4,042	225,184	116,718
232,655	4,293	225,228	116,920
233,669	4,680	225,123	117,148
234,684	4,798	225,043	117,185
235,699	4,547	224,856	116,888
236,713	4,313	224,624	116,580
237,728	4,165	224,448	116,366
238,742	3,995	224,180	116,089
239,757	4,086	224,092	116,101
240,772	4,205	223,869	116,065
241,786	3,988	223,853	115,883
242,801	4,077	223,727	115,875
243,815	4,700	223,579	116,256
244,830	4,555	223,539	116,116
245,844	4,218	223,199	115,676
246,859	4,271	223,080	115,644
247,874	4,317	223,137	115,697
248,888	4,501	222,860	115,681
249,903	4,272	222,696	115,414
250,917	3,933	222,575	115,087
251,932	4,125	222,334	115,096
252,947	4,018	222,091	114,881
253,961	3,953	221,957	114,753
254,976	3,963	221,824	114,680
255,990	4,185	221,847	114,848
257,005	4,280	221,697	114,831
258,020	4,313	221,602	114,796
259,034	4,359	221,610	114,824
260,049	4,559	221,146	114,722
261,063	4,345	221,029	114,492
262,078	4,549	220,923	114,578
263,093	4,473	220,996	114,550
264,107	4,573	220,654	114,436
265,122	4,516	220,505	114,306
266,136	4,469	220,511	114,265
267,151	4,778	220,220	114,332
268,166	4,601	219,981	114,067
269,180	3,960	219,755	113,467
270,195	4,047	219,646	113,464
271,209	4,098	219,480	113,407
272,224	4,152	219,526	113,460
273,239	4,244	219,381	113,442
274,253	4,047	219,180	113,183
275,268	4,064	218,946	113,065
276,282	3,702	218,949	112,791
277,297	3,976	218,694	112,850
278,312	4,122	218,488	112,841
279,326	4,166	218,481	112,860
280,341	3,918	218,415	112,634
281,355	4,135	218,292	112,719
282,370	4,105	217,835	112,451
283,384	4,093	217,901	112,466
284,399	3,907	217,816	112,277
285,414	3,790	217,731	112,137
286,428	4,219	217,624	112,385
287,443	4,450	217,274	112,363
288,457	4,327	217,253	112,253
289,472	4,075	217,106	111,982
290,487	3,870	216,866	111,700
291,501	3,802	216,664	111,537
292,516	3,864	216,697	111,589
293,530	3,806	216,610	111,492
294,545	3,951	216,422	111,490
295,560	3,967	216,296	111,427
296,574	3,937	216,109	111,300
297,589	4,070	215,914	111,285
298,603	4,216	215,818	111,331
299,618	4,209	215,666	111,238
300,633	4,155	215,706	111,210
301,647	4,344	215,682	111,323
302,662	4,571	215,318	111,290
303,676	4,425	215,284	111,156
304,691	4,285	215,317	111,063
305,706	4,293	215,107	110,951
306,720	4,301	214,793	110,785
307,735	4,326	214,564	110,674
308,749	4,170	214,530	110,535
309,764	4,332	214,315	110,530
310,779	4,291	214,313	110,490
311,793	4,466	214,093	110,492
312,808	4,149	213,926	110,170
313,822	4,385	213,547	110,133
314,837	4,209	213,584	110,016
315,852	4,087	213,427	109,839
316,866	4,036	213,385	109,771
317,881	4,260	213,347	109,902
318,895	4,268	213,218	109,830
319,910	4,212	212,941	109,639
320,925	4,113	212,746	109,458
321,939	3,701	212,588	109,074
322,954	3,798	212,435	109,055
323,968	4,188	212,489	109,349
324,983	4,405	212,245	109,368
325,997	4,388	212,252	109,350
327,012	4,302	212,022	109,161
328,027	4,117	211,873	108,943
329,041	4,624	211,845	109,278
330,056	4,725	211,726	109,278
331,070	4,191	211,418	108,733
332,085	3,884	211,308	108,450
333,100	4,081	211,188	108,518
334,114	4,294	211,029	108,576
335,129	4,078	210,818	108,307
336,143	3,612	210,678	107,897
337,158	3,854	210,666	108,051
338,173	4,103	210,439	108,100
339,187	3,839	210,216	107,790
340,202	3,853	210,177	107,770
341,216	3,719	210,021	107,587
342,231	3,669	209,905	107,483
343,246	3,879	209,800	107,567
344,260	4,088	209,629	107,616
345,275	4,165	209,400	107,542
346,289	4,111	209,461	107,526
347,304	4,249	209,373	107,568
348,319	4,192	209,214	107,437
349,333	4,015	209,071	107,230
350,348	4,033	208,975	107,184
351,362	4,108	208,921	107,199
352,377	4,438	208,879	107,398
353,392	4,306	208,692	107,200
354,406	4,360	208,421	107,089
355,421	194,031	1344,114	1433,403
356,435	154,824	1482,600	1433,525
