DTS Sentinel unit serial number:	SN410029Multiplexer serial number:	ORYXHardware model number:	OX2-SRSoftware version number:	ORYX F/W v4,00 Oryx Data Collector v3.7.2.0data status	okinstallation	B6 Nyhavnadifferential loss correction	single-endedforward channel	channel 2reverse channel	N/Adate	2023/12/09time	13:45:08forward acquisition time	300,00reverse acquisition time	0,00gamma	499,1914k internal	0,3135k external	0,3135temperature offset calibration	1,0000default loss term (dB/km)	0,3820temperature slope calibration	1,0000multiplexer offset coefficient	1,0000multiplexer slope coefficient	1,0000fibre end	0,00T internal ref (°C)	20,32T ext. ref 1 (°C)	4,48T ext. ref 2 (°C)	4,49length (m)	temperature (°C)	Stokes	anti-Stokes-744,400	102,458	0,032	-0,028
-743,385	168,622	-0,178	0,188
-742,371	800,000	-0,034	-0,076
-741,356	222,604	-0,106	0,127
-740,342	55,807	0,107	0,077
-739,327	-28,700	-0,182	0,077
-738,312	-152,573	0,088	-0,005
-737,298	-124,047	-0,306	0,035
-736,283	689,868	-0,045	-0,087
-735,269	-0,933	-0,286	0,150
-734,254	-21,735	0,045	0,020
-733,239	-149,257	-0,313	-0,018
-732,225	86,495	0,072	-0,059
-731,210	-139,983	0,034	-0,003
-730,196	-200,000	0,032	0,138
-729,181	-200,000	-0,017	0,119
-728,167	-200,000	-0,017	-0,096
-727,152	-100,458	0,044	0,008
-726,137	800,000	-0,028	-0,069
-725,123	800,000	-0,060	-0,173
-724,108	-6,102	-0,057	0,029
-723,094	-200,000	0,018	-0,130
-722,079	-30,298	-0,239	-0,100
-721,064	-200,000	-0,002	0,016
-720,050	-200,000	-0,041	-0,223
-719,035	222,326	-0,062	-0,074
-718,021	790,833	-0,005	-0,010
-717,006	66,373	-0,094	-0,070
-715,991	-77,424	-0,057	0,015
-714,977	-141,750	-0,084	-0,006
-713,962	-200,000	0,002	0,123
-712,948	-135,947	0,192	0,016
-711,933	-100,397	-0,178	0,032
-710,918	50,749	0,042	0,030
-709,904	-36,762	-0,165	0,065
-708,889	-200,000	0,003	-0,125
-707,875	50,684	-0,072	0,051
-706,860	800,000	-0,020	0,059
-705,845	451,787	0,017	-0,027
-704,831	68,249	0,073	0,055
-703,816	100,274	-0,027	-0,023
-702,802	737,301	-0,053	-0,105
-701,787	358,779	0,025	-0,038
-700,772	800,000	-0,033	-0,082
-699,758	800,000	-0,006	-0,017
-698,743	231,309	0,018	-0,022
-697,729	-200,000	-0,014	0,051
-696,714	-200,000	0,045	0,210
-695,699	800,000	0,026	0,073
-694,685	-122,039	0,028	0,003
-693,670	-47,698	-0,102	0,036
-692,656	60,230	0,054	-0,039
-691,641	-65,687	0,059	0,017
-690,627	800,000	-0,039	-0,110
-689,612	464,907	-0,035	-0,058
-688,597	278,054	0,068	-0,090
-687,583	160,374	-0,124	-0,129
-686,568	800,000	0,022	0,048
-685,554	-200,000	0,003	-0,047
-684,539	644,436	-0,016	0,030
-683,524	-200,000	0,026	0,193
-682,510	-9,978	-0,052	-0,025
-681,495	800,000	0,035	-0,107
-680,481	-106,800	0,080	-0,013
-679,466	-200,000	0,036	-0,154
-678,451	100,818	-0,019	-0,016
-677,437	-200,000	0,008	0,064
-676,422	-200,000	-0,051	0,174
-675,408	-170,436	0,118	0,003
-674,393	-200,000	-0,018	-0,066
-673,378	-78,194	-0,110	-0,028
-672,364	-200,000	-0,007	-0,033
-671,349	669,200	0,039	0,076
-670,335	512,930	-0,113	-0,196
-669,320	-200,000	0,007	-0,046
-668,305	-13,517	-0,066	-0,031
-667,291	-9,345	-0,186	-0,092
-666,276	-87,189	-0,084	0,019
-665,262	268,511	-0,103	-0,134
-664,247	135,979	0,091	-0,088
-663,232	182,169	0,023	0,025
-662,218	800,000	0,006	-0,018
-661,203	-200,000	-0,006	-0,172
-660,189	-200,000	0,020	0,117
-659,174	304,989	-0,113	-0,155
-658,159	14,445	-0,029	-0,017
-657,145	-200,000	-0,003	-0,153
-656,130	9,191	0,092	0,051
-655,116	-152,886	0,159	0,008
-654,101	-22,912	0,108	-0,048
-653,086	-177,528	0,033	-0,001
-652,072	215,734	-0,046	0,054
-651,057	227,873	-0,053	0,064
-650,043	437,896	0,013	0,021
-649,028	-64,867	-0,128	-0,038
-648,014	52,899	-0,029	-0,021
-646,999	689,392	0,014	0,028
-645,984	800,000	0,006	-0,016
-644,970	-200,000	-0,001	-0,007
-643,955	403,080	-0,033	-0,051
-642,941	465,516	0,067	-0,111
-641,926	258,148	0,026	-0,034
-640,911	40,996	0,107	0,071
-639,897	493,965	0,024	-0,041
-638,882	-200,000	-0,062	0,224
-637,868	735,978	-0,026	-0,053
-636,853	498,831	0,015	-0,026
-635,838	-198,728	-0,129	0,001
-634,824	-104,893	0,148	0,025
-633,809	173,414	-0,057	0,061
-632,795	800,000	0,034	-0,095
-631,780	714,379	0,051	-0,100
-630,765	-41,784	-0,207	-0,078
-629,751	-19,715	0,049	-0,022
-628,736	800,000	-0,043	-0,116
-627,722	-143,150	-0,161	0,011
-626,707	78,142	0,102	0,080
-625,692	-190,588	0,025	0,000
-624,678	-149,316	0,040	0,002
-623,663	800,000	-0,036	-0,093
-622,649	38,477	-0,053	0,035
-621,634	86,625	-0,085	-0,069
-620,619	-200,000	-0,009	0,058
-619,605	-200,000	0,005	-0,021
-618,590	-160,300	-0,073	-0,003
-617,576	-200,000	-0,002	0,042
-616,561	-200,000	-0,008	-0,029
-615,546	333,666	-0,081	0,116
-614,532	126,381	0,150	-0,141
-613,517	-114,875	-0,148	-0,021
-612,503	-43,230	-0,044	0,016
-611,488	-200,000	-0,023	0,109
-610,474	-181,646	0,020	0,000
-609,459	6,564	0,059	0,032
-608,444	695,559	-0,039	-0,076
-607,430	-134,701	-0,136	0,012
-606,415	-70,200	-0,128	0,036
-605,401	135,907	-0,078	-0,075
-604,386	157,507	-0,061	0,062
-603,371	759,352	0,070	0,140
-602,357	38,474	0,056	-0,037
-601,342	800,000	-0,053	-0,143
-600,328	508,035	0,057	-0,098
-599,313	283,939	-0,031	-0,041
-598,298	-142,101	0,041	0,003
-597,284	-200,000	-0,018	-0,139
-596,269	227,781	0,081	0,098
-595,255	63,966	0,050	-0,037
-594,240	-132,413	0,115	-0,011
-593,225	188,352	0,013	-0,014
-592,211	-3,243	-0,197	0,101
-591,196	-35,061	-0,032	-0,013
-590,182	118,670	-0,110	0,100
-589,167	783,380	-0,059	0,119
-588,152	-200,000	0,001	0,028
-587,138	800,000	-0,014	0,029
-586,123	-119,308	-0,049	-0,006
-585,109	-200,000	-0,009	-0,068
-584,094	-12,126	0,067	0,032
-583,079	217,221	0,054	-0,064
-582,065	338,180	-0,032	0,046
-581,050	131,344	0,037	-0,035
-580,036	-200,000	0,010	-0,072
-579,021	-200,000	0,007	-0,150
-578,006	800,000	0,051	-0,150
-576,992	41,823	0,033	-0,022
-575,977	385,915	-0,029	0,044
-574,963	-200,000	0,013	0,063
-573,948	410,598	-0,033	0,052
-572,934	-104,903	-0,142	0,024
-571,919	-194,646	-0,070	0,000
-570,904	-177,748	0,063	-0,001
-569,890	-83,534	0,092	-0,022
-568,875	800,000	0,020	0,043
-567,861	397,522	0,026	-0,040
-566,846	-70,105	-0,063	0,018
-565,831	-111,788	-0,190	0,028
-564,817	16,444	0,052	-0,030
-563,802	-67,464	-0,121	-0,035
-562,788	280,704	-0,046	0,061
-561,773	385,730	0,027	-0,042
-560,758	-200,000	-0,008	-0,084
-559,744	-14,091	0,085	-0,040
-558,729	-45,633	0,062	-0,022
-557,715	-70,609	-0,156	0,043
-556,700	800,000	0,076	-0,220
-555,685	-200,000	0,001	-0,079
-554,671	-9,826	0,079	0,039
-553,656	48,163	0,042	0,029
-552,642	800,000	0,060	0,134
-551,627	517,704	0,040	-0,069
-550,612	547,363	0,004	-0,007
-549,598	800,000	-0,017	0,036
-548,583	-200,000	0,006	-0,051
-547,569	219,648	0,075	-0,089
-546,554	18,658	0,099	-0,058
-545,539	44,665	-0,051	-0,035
-544,525	41,630	0,129	0,086
-543,510	-200,000	0,024	-0,102
-542,496	-41,919	-0,172	-0,065
-541,481	-200,000	-0,015	0,077
-540,466	800,000	0,020	-0,044
-539,452	-200,000	0,043	0,179
-538,437	47,481	0,126	0,086
-537,423	-200,000	0,002	0,027
-536,408	800,000	0,020	-0,057
-535,393	800,000	0,031	0,080
-534,379	-77,485	-0,072	-0,018
-533,364	88,669	-0,188	0,154
-532,350	-200,000	-0,005	0,055
-531,335	-200,000	-0,011	0,047
-530,321	-200,000	-0,026	0,146
-529,306	-200,000	-0,030	0,099
-528,291	800,000	0,039	0,092
-527,277	-157,946	-0,084	-0,004
-526,262	-85,600	-0,088	0,020
-525,248	-200,000	-0,023	-0,137
-524,233	-200,000	0,012	-0,109
-523,218	-200,000	-0,011	0,041
-522,204	40,006	-0,090	0,059
-521,189	-134,444	-0,116	0,010
-520,175	-13,167	-0,075	-0,036
-519,160	65,312	0,038	-0,029
-518,145	171,914	-0,010	0,011
-517,131	-35,981	-0,072	0,028
-516,116	74,934	0,011	0,008
-515,102	-98,435	-0,087	-0,016
-514,087	185,190	0,132	-0,144
-513,072	87,127	-0,183	-0,149
-512,058	147,945	0,048	0,047
-511,043	-34,653	-0,065	0,026
-510,029	285,414	0,089	-0,119
-509,014	800,000	-0,033	0,098
-507,999	63,168	0,043	0,031
-506,985	146,531	0,069	-0,068
-505,970	-2,018	-0,113	-0,058
-504,956	350,930	0,071	-0,103
-503,941	-143,613	0,218	0,015
-502,926	64,942	-0,055	-0,041
-501,912	800,000	-0,020	-0,052
-500,897	-21,985	0,061	-0,027
-499,883	-38,698	-0,054	-0,021
-498,868	800,000	0,053	-0,117
-497,853	95,896	-0,022	0,018
-496,839	427,308	0,058	0,093
-495,824	-200,000	-0,015	-0,100
-494,810	-124,525	-0,096	-0,011
-493,795	-90,673	0,035	0,007
-492,781	800,000	-0,044	-0,103
-491,766	638,914	-0,087	-0,164
-490,751	-200,000	-0,013	-0,078
-489,737	257,697	0,084	-0,107
-488,722	-113,141	0,058	0,008
-487,708	472,923	0,063	0,105
-486,693	-173,017	0,128	-0,003
-485,678	-99,006	-0,106	0,020
-484,664	-200,000	-0,000	-0,022
-483,649	-12,588	0,140	0,067
-482,635	-200,000	0,015	-0,078
-481,620	-107,908	0,037	0,006
-480,605	548,999	-0,037	-0,066
-479,591	-177,266	-0,053	0,001
-478,576	260,148	-0,028	-0,036
-477,562	201,315	0,032	0,037
-476,547	305,993	-0,022	-0,030
-475,532	17,266	0,123	-0,072
-474,518	-15,718	0,078	0,036
-473,503	59,593	-0,114	0,082
-472,489	-166,743	-0,100	0,003
-471,474	-83,949	-0,078	0,018
-470,459	560,469	0,023	-0,040
-469,445	613,237	0,016	-0,029
-468,430	-134,237	-0,107	0,010
-467,416	210,150	0,120	0,138
-466,401	143,411	0,156	0,152
-465,386	119,272	-0,057	0,052
-464,372	253,324	-0,059	-0,074
-463,357	800,000	0,029	0,078
-462,343	-136,143	-0,263	0,022
-461,328	53,312	0,074	0,052
-460,313	-200,000	0,050	-0,170
-459,299	76,193	0,038	0,029
-458,284	-90,994	0,143	-0,030
-457,270	800,000	0,027	0,064
-456,255	-76,843	0,049	0,013
-455,241	721,971	-0,024	-0,047
-454,226	490,066	-0,080	-0,134
-453,211	62,050	0,027	-0,020
-452,197	-200,000	-0,017	0,219
-451,182	180,293	0,161	0,174
-450,168	-105,518	0,115	0,019
-449,153	800,000	-0,048	-0,151
-448,138	-200,000	-0,017	-0,131
-447,124	14,345	0,027	-0,015
-446,109	344,907	0,044	0,064
-445,095	-165,045	-0,031	-0,001
-444,080	-200,000	0,001	0,005
-443,065	-69,751	0,058	0,016
-442,051	27,023	-0,110	-0,068
-441,036	800,000	0,072	-0,188
-440,022	94,332	-0,039	-0,032
-439,007	-200,000	0,018	0,089
-437,992	-200,000	-0,020	0,155
-436,978	184,703	-0,046	-0,050
-435,963	28,265	0,133	0,083
-434,949	-157,258	-0,049	0,002
-433,934	54,701	0,073	0,051
-432,919	115,158	-0,069	-0,062
-431,905	509,983	0,034	-0,058
-430,890	-200,000	-0,001	-0,169
-429,876	372,631	0,053	-0,079
-428,861	-0,009	0,100	0,052
-427,846	67,085	-0,136	0,102
-426,832	621,710	0,061	0,114
-425,817	-200,000	-0,018	-0,112
-424,803	-200,000	0,009	-0,036
-423,788	463,059	0,038	-0,063
-422,773	-200,000	-0,001	-0,195
-421,759	57,709	-0,101	0,072
-420,744	-94,237	-0,077	-0,015
-419,730	-70,487	0,041	-0,011
-418,715	800,000	-0,023	0,049
-417,701	-155,582	-0,116	0,005
-416,686	-15,841	0,241	0,112
-415,671	-44,312	-0,091	0,033
-414,657	-174,362	0,121	-0,003
-413,642	-200,000	-0,014	0,062
-412,628	-57,642	-0,102	0,033
-411,613	-200,000	0,009	-0,072
-410,598	44,573	0,167	0,112
-409,584	89,081	-0,029	-0,024
-408,569	-21,377	0,125	0,056
-407,555	-200,000	-0,022	0,083
-406,540	-61,385	-0,043	0,013
-405,525	62,218	0,051	-0,037
-404,511	386,774	-0,012	0,018
-403,496	-200,000	-0,023	0,082
-402,482	-52,901	0,048	-0,016
-401,467	-7,134	0,068	-0,034
-400,452	354,691	-0,061	0,089
-399,438	33,324	0,161	0,102
-398,423	158,616	0,146	-0,148
-397,409	-200,000	-0,025	-0,247
-396,394	-4,480	-0,050	-0,025
-395,379	-99,019	0,095	0,017
-394,365	-200,000	-0,008	0,089
-393,350	212,978	0,059	-0,068
-392,336	338,216	-0,043	0,061
-391,321	144,468	-0,118	-0,115
-390,306	432,686	-0,029	-0,045
-389,292	-200,000	-0,018	-0,065
-388,277	-61,581	-0,060	-0,018
-387,263	800,000	0,049	0,125
-386,248	-104,034	-0,169	0,029
-385,233	1,583	0,084	0,044
-384,219	-200,000	-0,034	0,123
-383,204	18,308	0,116	-0,068
-382,190	690,663	0,052	-0,100
-381,175	-67,921	-0,067	-0,019
-380,160	-51,698	0,083	-0,028
-379,146	-200,000	0,021	0,129
-378,131	-102,523	0,056	0,010
-377,117	-96,378	0,017	0,003
-376,102	347,483	0,037	0,054
-375,088	-13,198	-0,119	-0,056
-374,073	-111,537	-0,047	-0,007
-373,058	341,654	0,140	0,200
-372,044	69,358	-0,072	0,054
-371,029	800,000	0,072	0,196
-370,015	135,579	0,080	0,076
-369,000	-200,000	0,006	0,120
-367,985	-200,000	0,012	-0,040
-366,971	-200,000	-0,008	-0,237
-365,956	249,150	-0,043	-0,053
-364,942	-200,000	-0,010	0,049
-363,927	-86,067	0,166	0,037
-362,912	462,266	-0,041	-0,067
-361,898	-102,822	0,059	0,010
-360,883	477,502	-0,040	0,066
-359,869	-142,232	-0,082	-0,006
-358,854	196,101	0,042	0,047
-357,839	-27,415	-0,090	-0,038
-356,825	-200,000	0,016	0,108
-355,810	487,106	-0,032	0,054
-354,796	457,397	-0,034	-0,055
-353,781	-200,000	0,011	-0,131
-352,766	157,374	-0,049	-0,049
-351,752	-200,000	0,011	-0,097
-350,737	124,366	0,094	-0,087
-349,723	43,387	0,059	0,039
-348,708	-200,000	-0,003	0,014
-347,693	332,218	-0,026	-0,037
-346,679	127,557	0,045	0,042
-345,664	-200,000	-0,004	-0,050
-344,650	457,521	0,018	-0,029
-343,635	131,745	0,066	0,062
-342,620	-200,000	0,017	0,074
-341,606	124,717	-0,121	0,112
-340,591	87,130	-0,003	0,002
-339,577	510,638	-0,041	0,070
-338,562	-200,000	0,004	0,058
-337,548	10,663	0,031	-0,017
-336,533	-54,940	-0,072	-0,024
-335,518	-200,000	0,003	0,013
-334,504	-80,735	0,075	-0,018
-333,489	313,230	0,104	0,144
-332,475	-200,000	0,007	-0,120
-331,460	-39,739	-0,043	-0,016
-330,445	800,000	0,039	0,124
-329,431	-29,175	-0,049	-0,021
-328,416	800,000	0,059	0,176
-327,402	299,820	-0,065	-0,087
-326,387	109,595	-0,079	-0,069
-325,372	-200,000	-0,014	0,048
-324,358	-57,136	0,071	0,023
-323,343	-27,994	0,075	-0,032
-322,329	800,000	-0,042	0,129
-321,314	-95,184	-0,045	-0,009
-320,299	600,753	0,036	0,065
-319,285	86,072	0,117	0,094
-318,270	-141,804	-0,039	-0,003
-317,256	-56,201	-0,097	0,031
-316,241	800,000	-0,026	-0,079
-315,226	-57,716	-0,095	0,030
-314,212	-200,000	-0,005	0,122
-313,197	-125,045	0,077	-0,009
-312,183	800,000	0,010	0,023
-311,168	-143,946	-0,130	0,009
-310,153	202,103	0,038	-0,043
-309,139	800,000	0,005	0,016
-308,124	63,996	0,062	-0,045
-307,110	-200,000	-0,010	-0,071
-306,095	800,000	0,018	0,054
-305,080	-58,261	-0,107	0,034
-304,066	-200,000	-0,015	0,168
-303,051	-101,055	-0,156	0,028
-302,037	-58,869	-0,094	-0,030
-301,022	67,377	0,074	0,055
-300,008	243,139	0,072	0,089
-298,993	70,494	-0,093	0,070
-297,978	800,000	-0,037	0,077
-296,964	342,943	0,024	0,035
-295,949	738,698	-0,076	-0,149
-294,935	-200,000	-0,005	-0,046
-293,920	143,345	0,004	-0,004
-292,905	371,736	-0,023	0,034
-291,891	61,326	0,171	0,124
-290,876	53,630	0,067	-0,047
-289,862	-200,000	-0,022	-0,225
-288,847	-103,834	0,152	0,026
-287,832	-101,743	-0,063	0,011
-286,818	339,160	0,087	-0,124
-285,803	-200,000	0,000	0,065
-284,789	-200,000	0,010	0,073
-283,774	-200,000	-0,004	-0,111
-282,759	-119,077	0,035	-0,004
-281,745	-45,584	-0,129	0,046
-280,730	125,276	0,056	-0,052
-279,716	-140,644	0,060	0,004
-278,701	280,239	0,076	0,100
-277,686	-24,851	0,162	-0,070
-276,672	-200,000	0,003	-0,023
-275,657	121,274	-0,060	-0,055
-274,643	15,514	0,044	-0,025
-273,628	111,212	-0,024	0,021
-272,613	800,000	0,060	-0,140
-271,599	56,412	0,140	0,099
-270,584	-200,000	-0,010	0,065
-269,570	-135,963	0,027	-0,002
-268,555	-100,674	-0,162	-0,029
-267,540	-75,278	-0,068	-0,018
-266,526	-200,000	0,003	-0,013
-265,511	-200,000	0,013	0,064
-264,497	800,000	0,051	-0,109
-263,482	-200,000	-0,014	-0,056
-262,467	800,000	0,086	-0,176
-261,453	-30,950	-0,065	0,027
-260,438	708,987	-0,010	-0,020
-259,424	800,000	0,002	0,004
-258,409	-158,685	-0,127	-0,005
-257,395	-200,000	0,008	-0,061
-256,380	-29,211	-0,038	-0,016
-255,365	800,000	0,028	0,061
-254,351	-200,000	0,009	-0,054
-253,336	401,674	-0,074	-0,113
-252,322	28,581	-0,012	-0,008
-251,307	251,274	-0,082	0,102
-250,292	55,847	0,112	0,079
-249,278	125,411	0,012	-0,011
-248,263	-95,293	-0,148	0,029
-247,249	740,921	0,017	0,033
-246,234	-148,235	-0,147	0,009
-245,219	-18,278	-0,125	0,057
-244,205	63,313	-0,057	0,041
-243,190	243,761	-0,024	-0,030
-242,176	219,128	0,084	0,098
-241,161	742,517	-0,012	-0,024
-240,146	-136,273	-0,095	0,008
-239,132	-200,000	0,012	-0,067
-238,117	-30,880	-0,137	-0,056
-237,103	-173,366	-0,087	-0,002
-236,088	-147,981	-0,159	0,009
-235,073	800,000	0,044	0,101
-234,059	-70,927	0,137	0,037
-233,044	-200,000	0,016	0,125
-232,030	800,000	-0,054	0,145
-231,015	-200,000	0,017	-0,079
-230,000	-200,000	0,008	-0,107
-228,986	-164,420	-0,048	-0,002
-227,971	-30,167	0,103	-0,042
-226,957	102,270	0,122	0,104
-225,942	-131,072	-0,113	0,011
-224,927	-51,803	0,045	0,015
-223,913	275,796	-0,058	-0,075
-222,898	33,756	-0,080	-0,051
-221,884	-200,000	0,002	-0,009
-220,869	29,312	0,059	0,036
-219,855	-200,000	0,010	0,048
-218,840	-144,209	0,028	-0,002
-217,825	-200,000	-0,005	0,054
-216,811	146,634	-0,149	-0,145
-215,796	-108,599	0,087	-0,014
-214,782	-47,246	0,167	0,059
-213,767	-81,822	0,077	-0,018
-212,752	-68,771	0,030	-0,008
-211,738	-116,675	-0,113	0,015
-210,723	375,625	-0,062	-0,092
-209,709	800,000	-0,025	0,069
-208,694	551,721	0,020	0,035
-207,679	-200,000	-0,015	0,127
-206,665	-200,000	0,001	0,055
-205,650	800,000	0,051	0,131
-204,636	389,313	0,105	0,158
-203,621	-11,213	-0,057	-0,027
-202,606	260,035	-0,036	0,045
-201,592	44,859	0,043	0,028
-200,577	800,000	-0,024	0,059
-199,563	-99,593	-0,113	0,020
-198,548	-37,210	0,187	-0,072
-197,533	-116,949	-0,111	-0,015
-196,519	-200,000	-0,002	0,066
-195,504	-16,900	-0,097	0,045
-194,490	800,000	-0,050	-0,155
-193,475	-47,735	-0,117	-0,041
-192,460	-96,535	-0,109	0,021
-191,446	-87,089	-0,128	-0,028
-190,431	-36,483	0,150	-0,058
-189,417	-200,000	-0,001	0,117
-188,402	-200,000	-0,013	-0,072
-187,387	-200,000	-0,007	-0,077
-186,373	242,692	0,090	-0,109
-185,358	119,017	-0,086	0,078
-184,344	5,362	0,130	0,069
-183,329	-149,808	0,149	-0,008
-182,315	-200,000	0,001	0,108
-181,300	-164,400	0,094	-0,003
-180,285	247,223	0,076	-0,093
-179,271	-200,000	-0,030	-0,132
-178,256	539,157	0,023	-0,039
-177,242	-118,193	-0,041	0,005
-176,227	173,043	0,129	-0,135
-175,212	79,367	0,082	0,064
-174,198	302,936	-0,127	0,171
-173,183	-200,000	-0,017	-0,172
-172,169	-87,463	0,073	-0,016
-171,154	317,127	0,093	0,129
-170,139	800,000	-0,031	0,097
-169,125	-72,960	0,088	0,023
-168,110	-200,000	0,009	-0,038
-167,096	800,000	-0,032	0,096
-166,081	-30,453	-0,031	0,013
-165,066	-200,000	0,008	0,114
-164,052	95,652	0,028	-0,023
-163,037	-66,037	-0,023	-0,007
-162,023	800,000	0,067	-0,141
-161,008	-158,173	0,072	0,003
-159,993	272,454	0,077	-0,099
-158,979	-46,159	0,076	-0,027
-157,964	-17,245	-0,072	-0,033
-156,950	-36,155	0,096	-0,037
-155,935	-200,000	-0,013	-0,047
-154,920	-200,000	0,010	0,089
-153,906	-126,309	-0,069	0,007
-152,891	-200,000	0,016	-0,071
-151,877	-88,010	-0,234	-0,051
-150,862	-200,000	-0,021	-0,078
-149,847	800,000	-0,069	-0,162
-148,833	504,237	0,082	-0,139
-147,818	161,575	-0,173	-0,175
-146,804	135,695	0,073	0,069
-145,789	-112,599	0,130	-0,019
-144,775	-200,000	0,026	-0,095
-143,760	800,000	-0,056	-0,125
-142,745	-200,000	0,002	-0,059
-141,731	12,265	0,065	0,036
-140,716	37,468	0,015	0,010
-139,702	2,718	-0,039	0,021
-138,687	-22,098	0,089	-0,039
-137,672	-200,000	0,011	0,099
-136,658	-84,191	-0,077	-0,018
-135,643	-124,215	0,136	-0,015
-134,629	-85,877	0,104	-0,023
-133,614	-200,000	-0,039	0,125
-132,599	-183,088	0,260	-0,003
-131,585	174,602	0,026	-0,027
-130,570	-200,000	0,015	-0,055
-129,556	36,542	-0,063	-0,040
-128,541	-62,191	0,112	-0,033
-127,526	-200,000	-0,031	-0,128
-126,512	-43,177	-0,084	-0,031
-125,497	-131,871	0,151	0,014
-124,483	685,466	-0,061	0,116
-123,468	800,000	0,016	-0,035
-122,453	-200,000	-0,008	0,083
-121,439	344,496	0,059	-0,084
-120,424	-166,064	0,013	0,000
-119,410	386,355	-0,072	0,108
-118,395	800,000	0,028	-0,060
-117,380	800,000	-0,036	-0,085
-116,366	800,000	-0,049	0,106
-115,351	-94,738	-0,029	-0,006
-114,337	-49,942	-0,078	-0,027
-113,322	155,098	0,072	0,071
-112,307	98,147	-0,097	-0,081
-111,293	501,060	-0,042	0,070
-110,278	-200,000	0,026	0,106
-109,264	460,981	-0,037	0,061
-108,249	185,299	-0,117	-0,126
-107,234	800,000	-0,086	-0,236
-106,220	-200,000	-0,004	-0,047
-105,205	-200,000	-0,004	-0,156
-104,191	545,562	0,073	0,126
-103,176	-200,000	0,021	0,095
-102,162	475,639	0,078	-0,127
-101,147	-161,789	-0,112	-0,004
-100,132	776,779	0,048	-0,095
-99,118	-95,427	0,033	0,006
-98,103	262,438	-0,042	-0,053
-97,089	-200,000	-0,027	0,095
-96,074	800,000	0,064	0,199
-95,059	578,488	0,068	-0,121
-94,045	-200,000	0,021	-0,068
-93,030	6,910	-0,081	0,044
-92,016	-200,000	-0,002	0,023
-91,001	-148,353	-0,056	-0,003
-89,986	118,163	0,018	-0,016
-88,972	-200,000	0,004	0,087
-87,957	-74,334	0,062	-0,016
-86,943	-117,924	0,127	-0,016
-85,928	745,759	-0,044	-0,086
-84,913	39,124	-0,153	-0,099
-83,899	-200,000	-0,016	-0,116
-82,884	-118,091	-0,036	-0,005
-81,870	-200,000	-0,007	0,069
-80,855	98,627	-0,068	0,057
-79,840	538,643	-0,041	0,071
-78,826	800,000	-0,027	-0,077
-77,811	86,593	0,057	-0,045
-76,797	800,000	-0,009	-0,021
-75,782	-200,000	0,002	-0,079
-74,767	-200,000	0,002	-0,028
-73,753	-200,000	-0,030	0,169
-72,738	-200,000	-0,009	-0,059
-71,724	-88,081	0,078	-0,017
-70,709	-93,058	-0,072	-0,014
-69,694	-200,000	0,003	0,180
-68,680	179,679	0,032	0,034
-67,665	20,566	-0,039	-0,023
-66,651	-88,810	0,153	0,033
-65,636	-98,054	-0,105	0,019
-64,622	-16,851	-0,086	-0,039
-63,607	-200,000	0,005	0,071
-62,592	800,000	-0,032	0,100
-61,578	-77,216	-0,055	-0,014
-60,563	-85,685	0,074	0,016
-59,549	-200,000	-0,045	0,152
-58,534	-100,271	-1,508	-0,268
-57,519	800,000	-0,530	-1,162
-56,505	-200,000	-1,108	-4,647
-55,490	-106,884	0,675	-0,107
-54,476	800,000	5,115	12,092
-53,461	-200,000	14,902	263,036
-52,446	-200,000	699,123	2234,511
-51,432	563,439	1622,623	2851,563
-50,417	119,444	1628,684	1457,515
-49,403	77,049	1282,928	984,260
-48,388	37,368	1022,406	653,739
-47,373	22,749	982,159	580,031
-46,359	21,845	971,522	570,767
-45,344	20,591	967,094	564,055
-44,330	20,600	965,798	563,307
-43,315	20,443	964,209	561,847
-42,300	20,390	963,391	561,174
-41,286	20,379	962,325	560,497
-40,271	20,358	961,257	559,783
-39,257	20,413	960,292	559,378
-38,242	20,374	959,506	558,772
-37,227	20,370	958,722	558,279
-36,213	20,362	957,746	557,664
-35,198	20,274	957,020	556,936
-34,184	20,346	956,372	556,769
-33,169	20,295	955,218	555,910
-32,154	20,358	954,532	555,691
-31,140	20,387	953,444	555,128
-30,125	20,382	952,751	554,685
-29,111	20,407	951,917	554,259
-28,096	20,350	951,191	553,631
-27,082	20,316	950,549	553,126
-26,067	20,366	949,813	552,837
-25,052	20,337	949,054	552,282
-24,038	20,320	948,455	551,856
-23,023	20,362	947,778	551,576
-22,009	20,416	946,909	551,220
-20,994	20,367	946,340	550,709
-19,979	20,364	945,862	550,401
-18,965	20,387	945,307	550,128
-17,950	20,326	944,700	549,560
-16,936	20,271	943,952	548,929
-15,921	20,343	943,055	548,614
-14,906	20,290	942,576	548,144
-13,892	20,241	941,903	547,575
-12,877	20,183	941,235	546,982
-11,863	20,191	940,743	546,698
-10,848	20,216	940,253	546,473
-9,833	20,306	939,938	546,552
-8,819	20,302	939,269	546,128
-7,804	20,301	938,258	545,517
-6,790	20,263	937,902	545,166
-5,775	20,307	937,225	544,892
-4,760	20,204	936,827	544,314
-3,746	20,299	935,998	544,108
-2,731	20,125	935,484	543,240
-1,717	20,048	934,762	542,557
-0,702	20,137	934,069	542,414
0,313	19,874	933,159	541,874
1,327	22,919	931,558	550,458
2,342	32,258	792,950	493,301
3,356	29,765	449,701	276,000
4,371	-0,373	294,974	150,889
5,386	-4,714	276,275	137,190
6,400	-5,801	270,519	133,308
7,415	-6,299	268,012	131,602
8,429	-6,053	266,893	131,267
9,444	-6,075	265,981	130,786
10,459	-5,943	265,550	130,683
11,473	-6,273	264,938	130,070
12,488	-6,217	264,340	129,815
13,502	-6,400	263,614	129,281
14,517	-6,399	263,337	129,134
15,531	-6,289	262,995	129,055
16,546	-6,224	262,537	128,877
17,561	-6,507	262,238	128,464
18,575	-6,288	261,933	128,501
19,590	-6,360	261,543	128,233
20,604	-6,387	261,396	128,125
21,619	-6,283	260,972	127,999
22,634	-6,334	260,553	127,736
23,648	-6,593	260,418	127,427
24,663	-6,433	260,106	127,406
25,677	-6,459	259,670	127,158
26,692	-6,488	259,580	127,077
27,707	-6,219	259,248	127,143
28,721	-6,537	259,025	126,738
29,736	-6,523	258,678	126,570
30,750	-6,532	258,536	126,481
31,765	-6,602	258,287	126,286
32,780	-6,439	257,976	126,267
33,794	-6,482	257,726	126,095
34,809	-6,686	257,610	125,847
35,823	-6,657	257,447	125,782
36,838	-6,425	256,958	125,736
37,853	-6,553	256,821	125,545
38,867	-6,502	256,462	125,404
39,882	-6,412	256,374	125,428
40,896	-6,523	256,064	125,168
41,911	-6,619	255,990	125,037
42,926	-6,539	255,562	124,887
43,940	-6,628	255,470	124,752
44,955	-6,608	255,175	124,615
45,969	-6,631	255,015	124,505
46,984	-6,939	254,635	124,040
47,999	-7,146	254,521	123,792
49,013	-7,184	254,121	123,553
50,028	-7,260	254,033	123,434
51,042	-7,438	253,638	123,076
52,057	-7,568	253,434	122,853
53,071	-7,354	253,290	122,958
54,086	-7,372	253,104	122,841
55,101	-7,378	253,086	122,817
56,115	-7,150	252,892	122,908
57,130	-6,464	252,768	123,432
58,144	-6,106	252,758	123,726
59,159	-6,226	252,453	123,462
60,174	-6,304	252,280	123,298
61,188	-6,425	252,062	123,077
62,203	-6,385	251,806	122,975
63,217	-6,519	251,459	122,680
64,232	-6,313	251,335	122,785
65,247	-6,590	251,288	122,513
66,261	-6,477	250,919	122,419
67,276	-6,665	250,621	122,102
68,290	-7,067	250,364	121,620
69,305	-7,068	250,125	121,493
70,320	-6,959	250,071	121,550
71,334	-6,662	249,813	121,667
72,349	-6,524	249,788	121,762
73,363	-6,186	249,456	121,878
74,378	-6,219	249,330	121,778
75,393	-6,376	248,982	121,462
76,407	-6,349	248,756	121,365
77,422	-6,606	248,773	121,143
78,436	-6,326	248,336	121,158
79,451	-6,492	248,240	120,959
80,466	-6,498	247,977	120,815
81,480	-6,614	247,747	120,594
82,495	-6,716	247,663	120,456
83,509	-6,573	247,423	120,450
84,524	-6,803	247,267	120,168
85,539	-6,862	246,817	119,889
86,553	-6,920	246,812	119,827
87,568	-6,968	246,591	119,669
88,582	-6,852	246,343	119,636
89,597	-6,816	246,191	119,581
90,611	-6,665	246,129	119,667
91,626	-6,356	245,947	119,828
92,641	-6,594	245,787	119,539
93,655	-6,544	245,527	119,444
94,670	-6,654	245,349	119,254
95,684	-6,914	245,213	118,960
96,699	-6,762	244,982	118,964
97,714	-6,708	244,686	118,855
98,728	-6,840	244,463	118,626
99,743	-6,977	244,434	118,487
100,757	-6,998	244,096	118,295
101,772	-6,983	243,926	118,215
102,787	-6,732	243,699	118,303
103,801	-6,746	243,795	118,328
104,816	-6,488	243,462	118,369
105,830	-6,639	243,450	118,228
106,845	-6,316	243,137	118,334
107,860	-6,465	243,041	118,153
108,874	-6,682	242,730	117,812
109,889	-6,652	242,525	117,726
110,903	-6,653	242,374	117,641
111,918	-6,804	242,320	117,480
112,933	-6,624	242,157	117,539
113,947	-6,511	241,844	117,470
114,962	-6,374	241,649	117,478
115,976	-6,508	241,585	117,326
116,991	-6,495	241,384	117,228
118,006	-6,564	241,065	117,006
119,020	-6,456	241,176	117,138
120,035	-6,461	241,002	117,040
121,049	-6,367	240,778	116,997
122,064	-6,424	240,557	116,833
123,079	-6,665	240,455	116,575
124,093	-6,684	240,102	116,378
125,108	-6,801	239,883	116,166
126,122	-7,119	239,603	115,761
127,137	-6,916	239,418	115,826
128,151	-7,057	239,444	115,713
129,166	-6,828	239,168	115,757
130,181	-6,785	238,943	115,672
131,195	-6,768	238,714	115,564
132,210	-6,687	238,680	115,604
133,224	-6,748	238,656	115,532
134,239	-6,705	238,490	115,477
135,254	-6,662	238,281	115,400
136,268	-6,668	237,966	115,233
137,283	-7,026	237,760	114,833
138,297	-7,038	237,449	114,662
139,312	-7,119	237,324	114,527
140,327	-6,711	237,295	114,831
141,341	-6,325	237,356	115,163
142,356	-6,212	237,148	115,142
143,370	-6,156	236,934	115,074
144,385	-6,128	236,760	115,001
145,400	-6,176	236,730	114,938
146,414	-6,177	236,460	114,796
147,429	-6,293	236,222	114,577
148,443	-6,358	236,079	114,445
149,458	-6,277	235,960	114,442
150,473	-6,327	235,896	114,361
151,487	-6,205	235,563	114,287
152,502	-6,074	235,367	114,286
153,516	-6,232	235,325	114,129
154,531	-6,169	235,046	114,035
155,546	-6,325	234,984	113,869
156,560	-6,317	234,756	113,755
157,575	-6,465	234,534	113,519
158,589	-6,382	234,327	113,475
159,604	-6,082	234,330	113,705
160,619	-5,969	234,052	113,650
161,633	-6,263	234,013	113,388
162,648	-6,141	233,780	113,361
163,662	-6,364	233,646	113,110
164,677	-6,330	233,416	113,015
165,692	-6,351	233,329	112,946
166,706	-6,180	233,278	113,047
167,721	-6,087	233,047	112,998
168,735	-6,025	232,968	112,999
169,750	-6,015	232,773	112,902
170,764	-6,188	232,675	112,708
171,779	-6,099	232,405	112,637
172,794	-5,991	232,369	112,695
173,808	-6,048	231,993	112,458
174,823	-6,728	231,684	111,763
175,837	-6,951	231,511	111,495
176,852	-6,234	231,444	112,016
177,867	-6,078	231,447	112,129
178,881	-6,002	231,348	112,131
179,896	-6,055	231,240	112,027
180,910	-5,982	230,933	111,926
181,925	-6,268	230,885	111,668
182,940	-6,062	230,709	111,734
183,954	-6,051	230,642	111,701
184,969	-6,046	230,454	111,604
185,983	-6,055	230,392	111,556
186,998	-5,858	230,153	111,585
188,013	-5,775	230,010	111,570
189,027	-5,854	229,709	111,352
190,042	-5,835	229,611	111,310
191,056	-6,018	229,488	111,098
192,071	-6,094	229,479	111,025
193,086	-6,033	229,269	110,960
194,100	-5,834	228,999	110,974
195,115	-6,394	228,783	110,426
196,129	-6,898	228,500	109,890
197,144	-3,237	229,426	113,167
198,159	0,974	230,892	117,161
199,173	3,361	231,477	119,308
200,188	3,734	231,424	119,561
201,202	3,619	231,241	119,367
202,217	3,809	231,134	119,448
203,232	4,103	230,996	119,595
204,246	4,382	230,772	119,685
205,261	4,471	230,571	119,638
206,275	4,280	230,601	119,496
207,290	4,512	230,502	119,613
208,304	4,555	230,384	119,575
209,319	4,351	230,108	119,263
210,334	4,359	229,978	119,191
211,348	4,201	229,688	118,908
212,363	3,889	229,393	118,504
213,377	3,698	229,280	118,288
214,392	3,539	229,059	118,042
215,407	3,684	228,994	118,109
216,421	3,714	228,807	118,025
217,436	3,708	228,656	117,932
218,450	3,390	228,354	117,522
219,465	3,249	228,213	117,331
220,480	3,570	228,278	117,599
221,494	3,345	228,163	117,357
222,509	3,623	227,917	117,434
223,523	3,581	227,724	117,291
224,538	3,637	227,535	117,226
225,553	3,659	227,505	117,217
226,567	3,764	227,330	117,197
227,582	4,143	227,144	117,379
228,596	4,030	227,091	117,255
229,611	3,806	226,810	116,929
230,626	3,387	226,671	116,528
231,640	3,502	226,466	116,500
232,655	3,630	226,503	116,606
233,669	4,300	226,480	117,092
234,684	4,378	226,280	117,038
235,699	3,935	226,166	116,633
236,713	3,726	225,924	116,339
237,728	3,575	225,680	116,089
238,742	3,491	225,554	115,950
239,757	3,697	225,463	116,049
240,772	3,464	225,344	115,801
241,786	3,444	225,128	115,665
242,801	3,810	225,004	115,867
243,815	4,066	224,910	116,001
244,830	4,068	224,731	115,900
245,844	3,558	224,571	115,423
246,859	3,739	224,388	115,455
247,874	3,683	224,341	115,378
248,888	3,808	224,162	115,370
249,903	3,743	223,837	115,143
250,917	3,629	223,809	115,034
251,932	3,836	223,582	115,062
252,947	3,594	223,502	114,829
253,961	3,345	223,353	114,556
254,976	3,440	223,236	114,557
255,990	3,858	223,120	114,799
257,005	3,861	222,991	114,725
258,020	3,771	222,795	114,547
259,034	4,208	222,677	114,801
260,049	4,007	222,560	114,581
261,063	3,715	222,300	114,219
262,078	4,005	222,348	114,450
263,093	3,965	222,175	114,321
264,107	3,766	222,028	114,087
265,122	3,886	221,896	114,098
266,136	4,156	221,752	114,215
267,151	3,831	221,710	113,941
268,166	3,639	221,452	113,656
269,180	3,428	221,102	113,311
270,195	3,451	220,879	113,204
271,209	3,435	220,841	113,162
272,224	3,537	220,838	113,226
273,239	3,851	220,637	113,344
274,253	3,488	220,407	112,949
275,268	3,450	220,255	112,833
276,282	3,395	219,995	112,649
277,297	3,227	219,888	112,461
278,312	3,536	219,762	112,614
279,326	3,744	219,765	112,757
280,341	3,502	219,614	112,493
281,355	3,504	219,617	112,485
282,370	3,540	219,284	112,331
283,384	3,240	219,074	111,994
284,399	3,383	218,907	112,003
285,414	3,267	218,844	111,876
286,428	3,302	218,790	111,865
287,443	3,848	218,591	112,151
288,457	3,823	218,604	112,129
289,472	3,746	218,288	111,902
290,487	3,177	218,059	111,360
291,501	3,125	218,015	111,290
292,516	3,328	217,880	111,358
293,530	3,315	217,775	111,285
294,545	3,448	217,498	111,230
295,560	3,343	217,482	111,136
296,574	3,402	217,395	111,125
297,589	3,548	217,262	111,152
298,603	3,699	216,936	111,085
299,618	3,722	216,984	111,116
300,633	3,688	216,786	110,980
301,647	3,785	216,904	111,101
302,662	3,825	216,734	111,033
303,676	3,902	216,495	110,956
304,691	3,922	216,336	110,879
305,706	3,960	216,250	110,853
306,720	3,942	215,887	110,644
307,735	3,350	215,800	110,164
308,749	3,640	215,762	110,343
309,764	3,853	215,716	110,462
310,779	4,045	215,498	110,479
311,793	3,697	215,342	110,139
312,808	3,886	215,200	110,192
313,822	3,724	214,973	109,950
314,837	3,552	214,972	109,817
315,852	3,476	214,779	109,654
316,866	3,778	214,534	109,735
317,881	3,764	214,500	109,698
318,895	3,657	214,390	109,555
319,910	3,583	214,217	109,404
320,925	3,387	213,973	109,130
321,939	3,010	213,854	108,791
322,954	3,219	213,766	108,886
323,968	3,737	213,743	109,233
324,983	3,839	213,542	109,193
325,997	3,896	213,495	109,199
327,012	3,787	213,283	109,004
328,027	3,706	213,206	108,898
329,041	3,903	213,142	108,995
330,056	4,089	212,986	109,037
331,070	3,632	212,788	108,602
332,085	3,467	212,647	108,404
333,100	3,491	212,504	108,339
334,114	3,619	212,297	108,314
335,129	3,663	212,194	108,283
336,143	3,562	212,032	108,119
337,158	3,624	211,892	108,082
338,173	3,742	211,732	108,074
339,187	3,385	211,629	107,760
340,202	3,295	211,294	107,517
341,216	3,235	211,261	107,448
342,231	3,281	211,218	107,449
343,246	3,413	211,095	107,470
344,260	3,602	210,867	107,476
345,275	3,502	210,889	107,407
346,289	3,540	210,746	107,352
347,304	3,792	210,577	107,433
348,319	3,513	210,423	107,149
349,333	3,707	210,189	107,156
350,348	3,753	210,206	107,187
351,362	3,804	210,154	107,187
352,377	4,187	209,850	107,289
353,392	3,571	209,747	106,798
354,406	3,757	209,675	106,881
355,421	195,275	1342,860	1430,368
356,435	155,913	1480,993	1430,450
