DTS Sentinel unit serial number:	SN410029Multiplexer serial number:	ORYXHardware model number:	OX2-SRSoftware version number:	ORYX F/W v4,00 Oryx Data Collector v3.7.2.0data status	okinstallation	B6 Nyhavnadifferential loss correction	single-endedforward channel	channel 2reverse channel	N/Adate	2023/12/10time	02:20:08forward acquisition time	300,00reverse acquisition time	0,00gamma	499,1914k internal	0,3125k external	0,3125temperature offset calibration	1,0000default loss term (dB/km)	0,3820temperature slope calibration	1,0000multiplexer offset coefficient	1,0000multiplexer slope coefficient	1,0000fibre end	0,00T internal ref (°C)	21,94T ext. ref 1 (°C)	5,73T ext. ref 2 (°C)	5,72length (m)	temperature (°C)	Stokes	anti-Stokes-744,400	521,722	-0,016	0,028
-743,385	-36,427	-0,214	0,085
-742,371	-169,388	0,038	-0,001
-741,356	127,956	-0,207	0,196
-740,342	800,000	0,086	0,194
-739,327	63,792	-0,336	0,251
-738,312	-146,375	0,161	0,010
-737,298	-56,034	-0,358	0,118
-736,283	-74,815	-0,034	0,009
-735,269	58,895	-0,147	0,107
-734,254	611,004	-0,025	-0,046
-733,239	-164,176	-0,442	-0,015
-732,225	-103,747	0,132	-0,023
-731,210	537,790	-0,060	0,107
-730,196	-81,964	0,027	0,007
-729,181	32,161	-0,041	-0,026
-728,167	556,974	0,094	0,169
-727,152	800,000	-0,054	0,156
-726,137	277,497	-0,095	0,126
-725,123	-9,621	-0,158	-0,078
-724,108	134,137	-0,042	-0,041
-723,094	404,386	-0,042	0,066
-722,079	67,071	-0,043	-0,032
-721,064	-95,565	0,206	0,041
-720,050	-70,660	0,069	-0,019
-719,035	-47,375	-0,135	-0,049
-718,021	321,112	-0,039	0,056
-717,006	-5,124	-0,099	-0,050
-715,991	294,245	-0,094	-0,128
-714,977	-200,000	-0,013	-0,102
-713,962	-59,858	-0,102	-0,032
-712,948	42,743	0,034	0,023
-711,933	262,120	-0,090	-0,116
-710,918	-65,629	-0,168	-0,050
-709,904	188,835	0,054	-0,060
-708,889	-2,405	-0,076	-0,039
-707,875	157,055	0,054	-0,055
-706,860	-118,395	-0,069	-0,009
-705,845	800,000	-0,029	0,076
-704,831	-106,616	-0,046	0,008
-703,816	102,596	-0,146	0,127
-702,802	118,168	0,084	-0,077
-701,787	-108,237	-0,021	-0,003
-700,772	-157,490	-0,034	-0,001
-699,758	426,770	0,031	-0,050
-698,743	800,000	0,025	-0,059
-697,729	588,582	0,018	-0,033
-696,714	-76,547	-0,028	0,007
-695,699	-45,042	-0,087	-0,032
-694,685	340,808	-0,077	-0,113
-693,670	800,000	-0,035	-0,097
-692,656	283,974	0,083	-0,111
-691,641	800,000	0,033	0,100
-690,627	46,316	-0,097	0,067
-689,612	-200,000	-0,000	0,060
-688,597	453,715	-0,027	0,044
-687,583	-200,000	-0,007	-0,038
-686,568	-30,749	0,107	0,045
-685,554	-113,228	-0,073	-0,011
-684,539	194,499	0,018	0,020
-683,524	-166,178	0,029	-0,001
-682,510	604,908	-0,055	0,103
-681,495	426,987	-0,051	-0,082
-680,481	122,557	-0,008	-0,007
-679,466	-0,080	-0,103	0,054
-678,451	-45,863	-0,076	-0,028
-677,437	294,462	0,086	0,117
-676,422	-200,000	-0,003	0,176
-675,408	34,105	-0,055	-0,035
-674,393	-200,000	0,000	0,042
-673,378	537,719	0,065	0,114
-672,364	-87,586	0,076	-0,017
-671,349	592,888	-0,033	0,061
-670,335	626,560	-0,011	-0,021
-669,320	-137,397	0,162	-0,013
-668,305	33,099	0,016	-0,010
-667,291	800,000	-0,007	-0,021
-666,276	-74,559	-0,133	-0,035
-665,262	-58,267	-0,062	-0,020
-664,247	52,759	-0,209	-0,148
-663,232	-200,000	0,040	-0,139
-662,218	-200,000	-0,005	0,148
-661,203	448,585	0,120	-0,197
-660,189	800,000	-0,026	-0,063
-659,174	-187,994	-0,122	0,001
-658,159	175,380	0,007	-0,007
-657,145	-200,000	0,012	-0,085
-656,130	0,435	0,061	0,032
-655,116	-62,218	0,144	-0,044
-654,101	-200,000	-0,024	0,127
-653,086	800,000	-0,027	0,082
-652,072	-124,934	-0,162	-0,018
-651,057	-92,279	0,113	0,023
-650,043	-167,343	-0,188	-0,005
-649,028	-68,555	-0,082	0,023
-648,014	124,315	0,026	-0,024
-646,999	470,815	-0,044	-0,075
-645,984	800,000	-0,042	-0,095
-644,970	800,000	0,028	-0,079
-643,955	800,000	-0,024	0,059
-642,941	187,034	0,126	-0,140
-641,926	-200,000	-0,007	0,023
-640,911	-138,570	0,032	-0,003
-639,897	221,231	0,042	0,050
-638,882	689,231	0,048	0,093
-637,868	-200,000	0,022	0,084
-636,853	-19,807	0,016	-0,007
-635,838	498,016	-0,051	0,087
-634,824	28,324	-0,069	0,043
-633,809	-140,304	0,088	0,007
-632,795	-200,000	-0,011	-0,043
-631,780	374,639	0,065	-0,098
-630,765	19,779	-0,059	0,035
-629,751	-200,000	-0,028	-0,112
-628,736	584,936	-0,053	-0,096
-627,722	-124,836	0,026	0,003
-626,707	307,305	-0,024	-0,033
-625,692	-33,435	-0,036	-0,015
-624,678	-100,018	-0,089	-0,016
-623,663	-200,000	-0,000	0,013
-622,649	146,976	-0,083	-0,083
-621,634	481,720	0,050	-0,085
-620,619	-200,000	-0,006	-0,075
-619,605	390,493	-0,061	0,094
-618,590	454,797	0,049	0,081
-617,576	-200,000	-0,019	0,075
-616,561	56,544	-0,043	0,031
-615,546	447,040	0,074	0,121
-614,532	174,616	0,033	-0,036
-613,517	-200,000	0,002	-0,104
-612,503	61,702	0,067	0,049
-611,488	3,743	-0,066	0,036
-610,474	-144,243	-0,048	0,003
-609,459	-59,031	0,041	0,013
-608,444	-116,226	-0,145	-0,020
-607,430	733,674	-0,015	-0,031
-606,415	-200,000	-0,020	-0,083
-605,401	425,229	0,007	0,011
-604,386	-200,000	-0,032	0,127
-603,371	-200,000	0,002	-0,031
-602,357	81,960	0,037	0,030
-601,342	132,892	0,035	0,033
-600,328	37,550	-0,169	-0,111
-599,313	202,983	0,020	0,023
-598,298	-200,000	0,003	0,028
-597,284	-200,000	-0,017	-0,087
-596,269	371,487	-0,059	-0,090
-595,255	280,245	0,026	-0,035
-594,240	-1,753	-0,106	-0,055
-593,225	148,823	0,048	-0,048
-592,211	144,140	0,032	-0,032
-591,196	26,734	0,095	-0,059
-590,182	337,923	-0,056	0,080
-589,167	167,595	-0,045	0,047
-588,152	-200,000	0,025	0,157
-587,138	-200,000	0,000	-0,046
-586,123	348,822	-0,062	0,091
-585,109	730,715	-0,052	0,104
-584,094	-31,275	-0,109	0,045
-583,079	-34,013	0,143	-0,058
-582,065	-80,720	-0,092	0,023
-581,050	12,666	0,043	0,025
-580,036	-200,000	0,002	0,016
-579,021	78,215	0,049	-0,039
-578,006	-200,000	0,001	-0,053
-576,992	124,066	-0,097	0,090
-575,977	98,094	0,068	0,058
-574,963	-200,000	-0,016	0,137
-573,948	-90,206	-0,098	0,021
-572,934	-200,000	0,019	0,098
-571,919	-58,357	-0,115	0,037
-570,904	436,787	-0,071	-0,115
-569,890	239,751	-0,066	-0,081
-568,875	800,000	-0,044	0,134
-567,861	-63,875	0,093	0,028
-566,846	-100,797	0,080	0,014
-565,831	43,028	0,094	0,063
-564,817	74,849	-0,062	-0,048
-563,802	800,000	-0,021	-0,047
-562,788	-164,704	-0,057	0,002
-561,773	800,000	0,021	0,054
-560,758	-200,000	0,008	0,093
-559,744	-200,000	-0,042	0,146
-558,729	-200,000	-0,017	0,131
-557,715	67,492	-0,084	-0,064
-556,700	121,494	-0,066	-0,061
-555,685	482,321	0,040	-0,068
-554,671	-41,482	0,098	-0,037
-553,656	-102,834	-0,087	0,015
-552,642	-200,000	-0,034	0,132
-551,627	-5,516	-0,048	0,024
-550,612	-91,263	-0,041	0,009
-549,598	-57,450	-0,084	-0,027
-548,583	81,232	-0,105	-0,084
-547,569	-200,000	-0,021	-0,127
-546,554	106,128	0,035	0,031
-545,539	-121,530	-0,090	0,011
-544,525	230,171	-0,035	0,042
-543,510	41,080	-0,097	0,065
-542,496	-165,557	-0,041	-0,001
-541,481	19,731	-0,115	0,069
-540,466	-73,468	-0,131	-0,035
-539,452	-200,000	0,000	0,116
-538,437	800,000	0,036	-0,080
-537,423	101,423	0,013	-0,011
-536,408	178,391	-0,076	0,082
-535,393	153,227	-0,050	0,050
-534,379	219,118	0,016	-0,019
-533,364	30,277	0,040	0,025
-532,350	800,000	0,046	-0,109
-531,335	-200,000	-0,016	-0,098
-530,321	-187,049	-0,034	0,000
-529,306	27,031	-0,054	-0,033
-528,291	481,300	-0,044	0,073
-527,277	-102,015	-0,085	-0,015
-526,262	12,906	0,076	-0,043
-525,248	-100,821	-0,099	0,018
-524,233	33,478	0,178	0,114
-523,218	-112,783	0,078	-0,011
-522,204	119,730	-0,019	-0,018
-521,189	644,900	0,033	-0,062
-520,175	441,011	-0,101	-0,164
-519,160	-139,817	-0,089	0,007
-518,145	89,447	-0,040	0,033
-517,131	-200,000	-0,009	0,051
-516,116	-100,555	0,073	-0,013
-515,102	570,568	0,008	-0,014
-514,087	-28,091	-0,062	-0,026
-513,072	-200,000	-0,002	-0,086
-512,058	-200,000	-0,034	0,137
-511,043	-200,000	-0,003	-0,141
-510,029	-16,721	0,064	-0,030
-509,014	522,003	-0,010	0,017
-507,999	-49,689	0,015	0,005
-506,985	61,045	0,021	0,015
-505,970	-200,000	-0,016	0,058
-504,956	84,245	-0,137	-0,111
-503,941	-70,609	0,068	0,019
-502,926	663,114	0,027	0,052
-501,912	-141,678	0,055	0,004
-500,897	-200,000	0,007	0,073
-499,883	0,732	-0,046	0,024
-498,868	219,822	0,068	-0,080
-497,853	-200,000	0,024	-0,235
-496,839	-6,609	0,082	-0,041
-495,824	342,074	0,043	0,062
-494,810	88,154	0,078	0,064
-493,795	34,029	0,089	0,057
-492,781	238,938	0,067	0,083
-491,766	47,286	-0,129	-0,088
-490,751	76,705	0,074	0,058
-489,737	113,719	-0,042	0,038
-488,722	605,464	0,069	0,127
-487,708	-200,000	0,001	-0,064
-486,693	800,000	-0,047	-0,105
-485,678	83,594	-0,134	0,108
-484,664	-38,885	-0,049	0,019
-483,649	1,208	0,036	-0,019
-482,635	800,000	0,077	-0,193
-481,620	30,009	-0,120	-0,075
-480,605	-200,000	0,017	-0,073
-479,591	672,719	-0,065	-0,125
-478,576	-200,000	0,014	0,080
-477,562	-55,936	-0,127	0,042
-476,547	41,951	0,058	-0,039
-475,532	136,895	-0,029	0,028
-474,518	460,319	-0,047	-0,078
-473,503	-200,000	-0,010	-0,066
-472,489	-49,813	-0,057	0,020
-471,474	-200,000	-0,024	-0,097
-470,459	-200,000	0,008	-0,057
-469,445	47,599	-0,023	0,016
-468,430	-95,215	0,074	0,015
-467,416	181,790	0,039	0,042
-466,401	-147,051	-0,032	0,002
-465,386	26,864	0,132	-0,081
-464,372	97,005	-0,067	-0,056
-463,357	78,587	0,073	-0,058
-462,343	-19,156	0,072	0,033
-461,328	-108,632	0,084	0,013
-460,313	139,842	0,084	-0,082
-459,299	-112,166	-0,013	-0,002
-458,284	-200,000	-0,005	0,060
-457,270	-106,558	0,095	-0,015
-456,255	299,414	-0,047	-0,063
-455,241	118,094	-0,062	-0,057
-454,226	75,210	-0,092	0,072
-453,211	800,000	0,014	-0,030
-452,197	-63,776	0,086	-0,026
-451,182	335,092	0,085	0,121
-450,168	-200,000	-0,007	-0,027
-449,153	-171,845	0,019	0,000
-448,138	-80,453	-0,054	-0,013
-447,124	800,000	0,060	-0,170
-446,109	322,393	-0,032	-0,045
-445,095	-69,314	-0,078	0,022
-444,080	-200,000	0,141	-0,000
-443,065	-200,000	0,016	-0,083
-442,051	-94,402	0,067	-0,013
-441,036	-200,000	0,004	0,026
-440,022	-200,000	0,032	-0,185
-439,007	-149,401	0,008	0,000
-437,992	-200,000	-0,028	0,130
-436,978	231,990	0,101	-0,123
-435,963	100,493	-0,095	-0,081
-434,949	-200,000	-0,003	0,069
-433,934	-33,131	-0,028	-0,011
-432,919	267,829	-0,128	-0,165
-431,905	-200,000	0,008	0,067
-430,890	-200,000	0,009	0,033
-429,876	588,481	0,025	0,045
-428,861	43,661	-0,051	-0,034
-427,846	81,063	0,022	-0,017
-426,832	799,174	-0,079	-0,161
-425,817	-200,000	0,004	0,037
-424,803	-143,269	0,101	-0,007
-423,788	-200,000	0,011	-0,105
-422,773	350,549	0,079	0,115
-421,759	29,604	-0,040	-0,025
-420,744	-200,000	-0,005	0,078
-419,730	800,000	0,043	0,121
-418,715	-105,196	-0,090	0,015
-417,701	-200,000	-0,011	0,087
-416,686	633,704	0,064	0,121
-415,671	-167,026	-0,042	-0,001
-414,657	282,678	0,026	0,035
-413,642	800,000	-0,022	-0,048
-412,628	-200,000	-0,015	-0,137
-411,613	-94,138	0,054	-0,011
-410,598	-200,000	0,021	-0,072
-409,584	-89,196	0,077	-0,017
-408,569	-70,044	0,072	0,020
-407,555	-200,000	0,010	0,060
-406,540	-200,000	-0,010	-0,060
-405,525	-200,000	0,006	-0,165
-404,511	122,211	-0,159	-0,146
-403,496	-122,810	0,051	0,006
-402,482	-122,036	0,059	0,007
-401,467	-44,038	-0,098	0,036
-400,452	50,613	-0,025	-0,018
-399,438	193,845	0,053	-0,060
-398,423	37,831	-0,088	-0,057
-397,409	800,000	0,039	-0,084
-396,394	-32,966	-0,025	0,010
-395,379	36,834	0,064	-0,041
-394,365	-43,821	0,109	0,040
-393,350	195,218	0,089	0,099
-392,336	-118,214	-0,118	0,015
-391,321	-111,479	0,043	-0,006
-390,306	86,849	0,059	0,048
-389,292	304,092	0,053	0,072
-388,277	-174,591	-0,084	-0,002
-387,263	-164,475	-0,018	-0,001
-386,248	91,389	-0,039	-0,032
-385,233	-200,000	0,012	0,055
-384,219	-3,378	-0,043	-0,022
-383,204	-200,000	-0,008	-0,038
-382,190	-200,000	0,014	-0,051
-381,175	117,507	-0,058	0,052
-380,160	800,000	-0,035	0,083
-379,146	-200,000	-0,007	-0,048
-378,131	800,000	-0,038	-0,123
-377,117	1,735	0,107	0,056
-376,102	-2,319	0,119	0,061
-375,088	676,934	0,032	-0,061
-374,073	-200,000	-0,003	0,060
-373,058	800,000	-0,012	-0,025
-372,044	115,977	0,045	0,040
-371,029	-23,496	0,035	0,015
-370,015	405,268	-0,047	0,073
-369,000	666,281	0,060	-0,114
-367,985	-200,000	-0,055	-0,210
-366,971	342,723	0,061	-0,088
-365,956	-200,000	0,011	0,133
-364,942	-84,065	0,151	0,035
-363,927	800,000	0,015	0,046
-362,912	800,000	0,020	-0,058
-361,898	-15,702	-0,120	-0,056
-360,883	-200,000	-0,030	-0,132
-359,869	-200,000	0,014	0,054
-358,854	-10,803	0,090	-0,044
-357,839	149,991	0,076	0,075
-356,825	-200,000	-0,003	0,037
-355,810	-73,593	-0,044	-0,012
-354,796	-88,146	-0,106	-0,023
-353,781	-144,160	-0,130	0,009
-352,766	50,510	-0,080	-0,055
-351,752	800,000	0,016	0,039
-350,737	501,529	0,078	0,133
-349,723	-200,000	-0,022	0,099
-348,708	-200,000	0,000	0,021
-347,693	172,450	-0,060	0,063
-346,679	800,000	-0,034	0,105
-345,664	25,536	-0,047	-0,029
-344,650	-65,000	0,105	-0,031
-343,635	-29,921	-0,057	0,024
-342,620	-97,452	0,096	0,018
-341,606	382,821	0,043	0,065
-340,591	-200,000	0,023	-0,076
-339,577	-168,831	-0,127	-0,003
-338,562	-200,000	0,016	-0,062
-337,548	-200,000	0,006	-0,093
-336,533	34,126	0,055	-0,035
-335,518	-84,591	-0,027	-0,006
-334,504	544,095	0,016	0,028
-333,489	501,570	-0,026	0,044
-332,475	563,265	-0,025	0,044
-331,460	-200,000	0,012	-0,063
-330,445	-200,000	-0,028	-0,099
-329,431	24,652	0,050	0,030
-328,416	658,734	-0,031	0,059
-327,402	-84,362	0,024	0,005
-326,387	43,275	0,063	-0,042
-325,372	-7,495	0,041	-0,020
-324,358	-200,000	-0,008	0,169
-323,343	61,366	-0,099	-0,072
-322,329	-111,636	0,109	-0,016
-321,314	-91,904	-0,059	-0,012
-320,299	-113,542	-0,016	0,002
-319,285	2,162	0,107	0,057
-318,270	365,034	0,036	0,053
-317,256	-90,267	-0,110	-0,023
-316,241	-200,000	-0,014	0,168
-315,226	98,059	-0,019	0,016
-314,212	35,021	0,068	0,043
-313,197	167,606	0,062	0,064
-312,183	49,533	-0,030	0,021
-311,168	-123,350	-0,086	0,010
-310,153	-90,967	0,064	0,013
-309,139	-71,271	0,071	0,019
-308,124	-3,080	0,054	0,028
-307,110	294,513	0,043	-0,057
-306,095	399,432	0,074	0,113
-305,080	360,904	0,104	0,152
-304,066	9,439	-0,111	-0,062
-303,051	-120,314	-0,161	0,020
-302,037	-76,490	0,084	-0,022
-301,022	800,000	0,056	0,142
-300,008	-139,032	0,110	-0,009
-298,993	-200,000	0,013	-0,043
-297,978	-72,721	-0,066	-0,018
-296,964	-200,000	0,013	-0,088
-295,949	46,723	-0,086	-0,058
-294,935	-200,000	-0,011	-0,110
-293,920	-125,695	-0,089	-0,010
-292,905	800,000	-0,036	0,081
-291,891	-200,000	0,090	0,000
-290,876	-107,849	0,045	0,007
-289,862	-62,508	-0,070	-0,021
-288,847	800,000	-0,016	-0,043
-287,832	24,564	0,102	-0,061
-286,818	-200,000	-0,011	-0,073
-285,803	-133,254	0,117	0,011
-284,789	-64,845	0,090	0,026
-283,774	659,912	0,024	-0,046
-282,759	-200,000	-0,025	-0,149
-281,745	147,653	-0,038	-0,037
-280,730	57,007	0,105	-0,075
-279,716	106,420	0,067	0,058
-278,701	638,717	0,049	-0,091
-277,686	-200,000	-0,015	0,066
-276,672	800,000	0,033	0,103
-275,657	-159,774	0,179	-0,007
-274,643	-77,444	-0,118	0,030
-273,628	-108,230	-0,150	0,023
-272,613	299,386	-0,029	-0,039
-271,599	-6,229	-0,022	0,011
-270,584	-200,000	0,031	0,171
-269,570	275,893	0,043	0,055
-268,555	-200,000	-0,009	0,053
-267,540	765,170	0,036	-0,073
-266,526	216,562	0,067	0,078
-265,511	-200,000	0,012	-0,097
-264,497	800,000	0,043	0,109
-263,482	216,599	0,143	0,167
-262,467	63,311	0,052	-0,038
-261,453	-89,793	-0,128	0,027
-260,438	-200,000	0,003	0,060
-259,424	800,000	0,005	-0,010
-258,409	183,258	0,101	-0,109
-257,395	285,811	0,041	0,054
-256,380	462,024	0,082	0,135
-255,365	800,000	0,033	-0,080
-254,351	102,193	-0,041	-0,035
-253,336	-200,000	-0,016	-0,105
-252,322	-0,295	-0,096	-0,050
-251,307	-31,150	0,086	-0,035
-250,292	113,406	0,073	0,065
-249,278	800,000	0,018	0,050
-248,263	188,662	0,056	-0,061
-247,249	172,066	0,029	0,030
-246,234	147,750	-0,030	-0,030
-245,219	-155,243	-0,146	-0,007
-244,205	-200,000	0,014	0,083
-243,190	-131,908	-0,120	0,011
-242,176	-107,549	0,103	-0,016
-241,161	800,000	-0,025	-0,074
-240,146	-80,148	0,040	-0,010
-239,132	516,430	0,066	-0,114
-238,117	-200,000	-0,030	-0,118
-237,103	-6,221	-0,076	-0,038
-236,088	-102,119	-0,140	0,024
-235,073	-22,947	0,046	-0,020
-234,059	-200,000	0,012	-0,061
-233,044	-200,000	-0,040	0,178
-232,030	496,333	-0,054	0,091
-231,015	594,982	-0,035	-0,063
-230,000	800,000	0,044	-0,140
-228,986	237,809	-0,080	0,097
-227,971	800,000	0,053	0,120
-226,957	338,264	-0,071	0,100
-225,942	-200,000	-0,021	-0,142
-224,927	-140,573	0,104	0,008
-223,913	102,153	-0,153	-0,130
-222,898	273,632	0,104	0,135
-221,884	800,000	-0,024	0,056
-220,869	-68,274	0,099	-0,028
-219,855	437,920	0,078	0,125
-218,840	152,986	-0,048	0,047
-217,825	800,000	0,049	-0,132
-216,811	169,744	-0,035	-0,037
-215,796	-144,231	0,039	0,003
-214,782	-200,000	-0,003	0,031
-213,767	69,403	-0,062	-0,047
-212,752	-32,830	0,049	0,020
-211,738	170,067	0,054	0,056
-210,723	800,000	-0,032	0,091
-209,709	24,077	0,083	0,050
-208,694	-45,008	-0,076	-0,028
-207,679	-200,000	0,007	0,104
-206,665	-200,000	-0,002	-0,010
-205,650	-200,000	0,028	-0,143
-204,636	800,000	0,021	0,046
-203,621	336,834	0,025	-0,035
-202,606	434,865	-0,079	0,125
-201,592	-93,723	-0,056	-0,011
-200,577	-8,975	0,024	-0,012
-199,563	-24,601	-0,062	0,027
-198,548	162,888	0,034	0,035
-197,533	-131,336	0,082	0,008
-196,519	-29,134	-0,037	-0,015
-195,504	-144,536	0,034	-0,002
-194,490	397,968	-0,042	0,065
-193,475	800,000	0,046	-0,106
-192,460	311,129	0,016	-0,021
-191,446	-25,438	0,090	0,038
-190,431	-55,470	0,052	0,017
-189,417	-126,436	-0,123	0,013
-188,402	-200,000	-0,050	-0,176
-187,387	63,637	-0,073	-0,053
-186,373	237,144	0,037	-0,045
-185,358	-200,000	0,012	0,067
-184,344	22,028	-0,071	0,042
-183,329	-200,000	0,006	0,197
-182,315	-200,000	-0,047	0,171
-181,300	800,000	-0,032	0,098
-180,285	-200,000	-0,000	0,023
-179,271	-111,590	-0,108	0,016
-178,256	32,181	0,031	-0,019
-177,242	-95,927	0,131	0,025
-176,227	503,527	0,055	0,094
-175,212	8,755	0,134	0,074
-174,198	153,507	0,095	-0,095
-173,183	800,000	0,043	-0,134
-172,169	39,255	-0,143	-0,093
-171,154	170,114	0,133	-0,138
-170,139	-200,000	-0,021	0,095
-169,125	-149,875	-0,040	-0,002
-168,110	800,000	-0,019	0,049
-167,096	-18,481	0,138	-0,062
-166,081	800,000	-0,016	0,041
-165,066	98,091	-0,027	0,023
-164,052	-200,000	-0,015	0,094
-163,037	-85,052	0,095	0,022
-162,023	404,966	-0,057	-0,088
-161,008	800,000	-0,031	0,063
-159,993	479,123	0,021	0,035
-158,979	-124,524	-0,092	0,010
-157,964	417,679	0,081	-0,127
-156,950	800,000	-0,035	0,082
-155,935	327,457	0,058	-0,081
-154,920	-112,314	0,011	0,002
-153,906	611,249	0,068	0,125
-152,891	4,980	-0,127	0,068
-151,877	800,000	0,021	-0,048
-150,862	800,000	-0,063	-0,198
-149,847	-132,867	0,040	0,004
-148,833	-45,578	0,054	-0,019
-147,818	-75,432	0,164	0,042
-146,804	800,000	-0,045	0,123
-145,789	800,000	0,057	0,133
-144,775	-44,249	-0,083	0,030
-143,760	5,821	-0,051	0,028
-142,745	-56,693	-0,028	-0,009
-141,731	-200,000	0,013	0,090
-140,716	-60,673	-0,108	-0,033
-139,702	-129,661	0,210	0,021
-138,687	-200,000	0,013	0,044
-137,672	782,464	-0,066	-0,131
-136,658	308,929	-0,108	-0,148
-135,643	106,931	-0,080	-0,069
-134,629	-200,000	-0,028	-0,092
-133,614	-200,000	-0,035	0,117
-132,599	221,550	0,107	0,125
-131,585	-200,000	-0,015	-0,111
-130,570	222,283	-0,117	-0,137
-129,556	-33,226	-0,159	-0,064
-128,541	315,786	-0,035	0,048
-127,526	268,941	0,025	0,032
-126,512	-200,000	0,003	0,041
-125,497	800,000	-0,007	-0,021
-124,483	-30,652	0,100	-0,041
-123,468	-46,487	-0,095	-0,034
-122,453	-200,000	-0,043	-0,291
-121,439	-84,518	-0,140	0,032
-120,424	-93,004	-0,031	-0,006
-119,410	-200,000	-0,006	-0,050
-118,395	-200,000	0,001	0,157
-117,380	-79,050	0,068	-0,017
-116,366	91,803	-0,070	-0,058
-115,351	800,000	-0,054	0,109
-114,337	-60,240	-0,053	0,016
-113,322	-200,000	0,077	-0,000
-112,307	800,000	0,041	-0,104
-111,293	344,367	-0,082	0,117
-110,278	576,762	0,045	0,081
-109,264	8,246	0,067	-0,036
-108,249	95,432	-0,106	-0,088
-107,234	-200,000	-0,009	-0,186
-106,220	-200,000	0,013	-0,044
-105,205	-200,000	-0,011	-0,060
-104,191	253,653	0,054	0,067
-103,176	-200,000	0,008	0,079
-102,162	-29,052	0,108	-0,045
-101,147	-60,801	-0,090	0,028
-100,132	-200,000	0,021	-0,081
-99,118	228,221	-0,041	0,048
-98,103	800,000	0,070	-0,143
-97,089	154,220	0,057	-0,057
-96,074	-200,000	0,010	-0,091
-95,059	-159,902	0,126	-0,005
-94,045	-67,421	0,020	0,006
-93,030	-61,624	0,034	-0,010
-92,016	-200,000	-0,010	-0,151
-91,001	109,125	-0,117	0,102
-89,986	-200,000	0,008	0,078
-88,972	-75,397	0,014	0,004
-87,957	244,059	0,028	0,034
-86,943	-124,399	-0,086	0,010
-85,928	-19,508	-0,066	-0,029
-84,913	800,000	0,051	-0,113
-83,899	-200,000	0,022	-0,125
-82,884	92,261	0,075	-0,062
-81,870	-99,325	0,106	0,019
-80,855	47,883	0,046	0,031
-79,840	557,480	-0,038	0,066
-78,826	-95,619	0,025	-0,005
-77,811	-79,900	-0,049	-0,012
-76,797	-187,851	-0,030	0,000
-75,782	-103,697	0,176	-0,030
-74,767	-200,000	-0,020	-0,080
-73,753	-200,000	-0,012	-0,055
-72,738	363,749	-0,038	-0,055
-71,724	452,460	-0,035	-0,057
-70,709	222,392	-0,052	-0,060
-69,694	-181,488	-0,139	-0,002
-68,680	-119,489	0,070	0,009
-67,665	572,939	-0,045	0,080
-66,651	-71,125	-0,068	0,018
-65,636	-174,291	0,069	0,001
-64,622	618,079	-0,014	-0,026
-63,607	-133,073	0,028	0,002
-62,592	98,744	0,076	-0,064
-61,578	222,306	-0,051	-0,060
-60,563	-10,401	-0,106	-0,051
-59,549	-6,512	0,149	0,074
-58,534	-91,780	-1,351	-0,276
-57,519	767,786	-0,768	-1,523
-56,505	-200,000	-0,957	-4,525
-55,490	-9,121	0,583	-0,282
-54,476	800,000	5,025	11,624
-53,461	-200,000	13,893	253,204
-52,446	-200,000	693,042	2240,272
-51,432	575,331	1623,535	2885,927
-50,417	117,676	1632,991	1457,431
-49,403	72,353	1287,003	971,406
-48,388	37,462	1023,399	656,696
-47,373	23,906	981,343	585,154
-46,359	23,252	970,690	576,638
-45,344	22,169	966,360	570,508
-44,330	22,143	965,037	569,621
-43,315	21,957	963,840	568,286
-42,300	22,003	962,695	567,737
-41,286	21,959	961,860	567,078
-40,271	21,901	960,927	566,317
-39,257	21,982	959,766	565,875
-38,242	21,880	959,025	565,084
-37,227	21,978	958,101	564,836
-36,213	21,912	957,300	564,126
-35,198	21,913	956,316	563,528
-34,184	22,010	955,582	563,386
-33,169	21,912	954,648	562,496
-32,154	21,996	953,897	562,303
-31,140	22,012	952,888	561,737
-30,125	22,039	952,194	561,393
-29,111	21,974	951,302	560,634
-28,096	22,000	950,704	560,343
-27,082	21,958	949,932	559,730
-26,067	21,890	949,349	559,148
-25,052	21,983	948,392	558,861
-24,038	22,007	947,837	558,588
-23,023	22,003	947,183	558,166
-22,009	21,993	946,426	557,666
-20,994	21,996	945,942	557,369
-19,979	22,014	945,296	557,025
-18,965	21,958	944,665	556,451
-17,950	21,980	944,055	556,142
-16,936	21,978	943,283	555,656
-15,921	21,914	942,797	555,143
-14,906	21,870	942,051	554,545
-13,892	21,908	941,280	554,187
-12,877	21,832	940,468	553,448
-11,863	21,821	939,922	553,068
-10,848	21,803	939,825	552,934
-9,833	21,921	939,131	552,876
-8,819	21,944	938,506	552,560
-7,804	21,888	937,724	551,901
-6,790	21,853	937,116	551,409
-5,775	21,905	936,490	551,185
-4,760	21,829	936,069	550,675
-3,746	21,846	935,458	550,347
-2,731	21,788	934,483	549,568
-1,717	21,763	933,913	549,133
-0,702	21,690	933,331	548,539
0,313	21,485	932,669	548,331
1,327	24,538	930,753	556,748
2,342	34,070	795,001	500,896
3,356	32,023	450,830	280,944
4,371	1,082	293,733	152,184
5,386	-3,479	274,898	138,094
6,400	-4,767	269,308	134,078
7,415	-5,103	266,878	132,547
8,429	-4,840	265,637	132,160
9,444	-4,774	264,820	131,802
10,459	-4,813	264,302	131,497
11,473	-4,864	263,561	131,071
12,488	-4,880	263,038	130,784
13,502	-5,179	262,587	130,277
14,517	-5,023	262,129	130,180
15,531	-4,883	261,640	130,052
16,546	-4,937	261,264	129,805
17,561	-4,943	260,956	129,634
18,575	-4,794	260,796	129,678
19,590	-5,044	260,521	129,305
20,604	-4,763	260,111	129,342
21,619	-5,013	259,792	128,947
22,634	-5,030	259,422	128,737
23,648	-4,934	259,101	128,652
24,663	-5,164	258,846	128,309
25,677	-5,070	258,568	128,243
26,692	-4,990	258,250	128,145
27,707	-4,922	258,043	128,092
28,721	-5,139	257,937	127,835
29,736	-4,984	257,588	127,788
30,750	-5,010	257,295	127,608
31,765	-4,944	257,014	127,516
32,780	-5,128	256,943	127,307
33,794	-5,129	256,692	127,170
34,809	-5,166	256,500	127,031
35,823	-5,071	256,030	126,871
36,838	-4,980	255,965	126,907
37,853	-4,986	255,604	126,711
38,867	-5,017	255,400	126,571
39,882	-5,134	255,285	126,401
40,896	-5,075	255,221	126,409
41,911	-5,126	254,719	126,105
42,926	-5,141	254,594	126,019
43,940	-5,036	254,195	125,902
44,955	-5,361	254,102	125,561
45,969	-5,402	253,969	125,448
46,984	-5,503	253,627	125,180
47,999	-5,507	253,340	125,024
49,013	-5,738	253,218	124,750
50,028	-5,763	252,933	124,578
51,042	-5,925	252,554	124,239
52,057	-5,884	252,466	124,220
53,071	-5,688	252,248	124,272
54,086	-5,617	252,016	124,208
55,101	-5,560	251,979	124,228
56,115	-5,443	251,790	124,225
57,130	-4,847	251,615	124,643
58,144	-4,904	251,563	124,557
59,159	-4,860	251,414	124,510
60,174	-4,738	250,996	124,397
61,188	-4,998	250,945	124,136
62,203	-5,095	250,771	123,956
63,217	-4,922	250,462	123,940
64,232	-5,107	250,351	123,715
65,247	-4,922	249,988	123,684
66,261	-4,953	249,808	123,558
67,276	-5,115	249,656	123,333
68,290	-5,345	249,349	122,973
69,305	-5,499	249,203	122,758
70,320	-5,540	249,043	122,633
71,334	-5,141	248,791	122,839
72,349	-4,762	248,545	123,029
73,363	-4,610	248,320	123,037
74,378	-4,866	248,233	122,765
75,393	-4,856	247,960	122,628
76,407	-4,857	247,809	122,541
77,422	-4,993	247,538	122,280
78,436	-5,007	247,599	122,288
79,451	-5,037	247,452	122,179
80,466	-5,076	246,957	121,891
81,480	-5,114	246,703	121,722
82,495	-5,134	246,540	121,614
83,509	-5,105	246,402	121,560
84,524	-5,160	246,233	121,419
85,539	-5,338	246,080	121,182
86,553	-5,270	245,675	121,030
87,568	-5,310	245,652	120,974
88,582	-5,028	245,362	121,057
89,597	-5,336	245,231	120,723
90,611	-4,999	245,024	120,893
91,626	-5,157	245,004	120,740
92,641	-4,917	244,737	120,799
93,655	-5,127	244,631	120,560
94,670	-4,904	244,181	120,514
95,684	-5,040	244,184	120,391
96,699	-5,111	243,978	120,219
97,714	-5,210	243,784	120,030
98,728	-5,305	243,568	119,834
99,743	-5,294	243,366	119,733
100,757	-5,444	243,271	119,551
101,772	-5,387	243,004	119,456
102,787	-5,302	242,874	119,452
103,801	-5,050	242,679	119,555
104,816	-5,343	242,594	119,259
105,830	-5,078	242,487	119,416
106,845	-4,800	242,198	119,493
107,860	-5,076	241,985	119,149
108,874	-5,082	241,726	119,006
109,889	-5,211	241,567	118,811
110,903	-5,266	241,466	118,705
111,918	-5,289	241,293	118,591
112,933	-5,042	240,996	118,638
113,947	-4,970	240,860	118,619
114,962	-5,045	240,794	118,515
115,976	-4,979	240,555	118,441
116,991	-4,945	240,407	118,385
118,006	-4,970	240,148	118,226
119,020	-5,019	240,082	118,143
120,035	-5,117	240,102	118,062
121,049	-4,928	239,808	118,061
122,064	-4,835	239,569	118,010
123,079	-5,285	239,358	117,527
124,093	-5,325	239,163	117,388
125,108	-5,515	239,084	117,184
126,122	-5,371	238,648	117,077
127,137	-5,259	238,449	117,060
128,151	-5,404	238,616	117,013
129,166	-5,243	238,326	116,992
130,181	-5,160	238,177	116,975
131,195	-5,335	237,767	116,622
132,210	-5,210	237,851	116,754
133,224	-5,232	237,633	116,619
134,239	-4,904	237,472	116,796
135,254	-4,941	237,308	116,675
136,268	-5,016	237,019	116,461
137,283	-5,200	236,780	116,185
138,297	-5,416	236,592	115,908
139,312	-5,328	236,467	115,907
140,327	-5,263	236,477	115,955
141,341	-4,763	236,356	116,288
142,356	-4,925	236,322	116,130
143,370	-4,769	236,137	116,155
144,385	-4,810	235,974	116,031
145,400	-4,739	235,699	115,943
146,414	-4,704	235,414	115,820
147,429	-4,684	235,260	115,749
148,443	-4,791	235,265	115,656
149,458	-4,878	235,044	115,468
150,473	-4,919	234,974	115,390
151,487	-4,952	234,638	115,189
152,502	-4,862	234,547	115,205
153,516	-4,761	234,457	115,231
154,531	-4,784	234,210	115,081
155,546	-4,872	233,950	114,873
156,560	-4,832	233,855	114,848
157,575	-4,962	233,659	114,638
158,589	-4,852	233,520	114,648
159,604	-4,834	233,329	114,557
160,619	-4,736	233,158	114,542
161,633	-4,676	233,047	114,524
162,648	-4,530	232,927	114,571
163,662	-4,747	232,773	114,313
164,677	-4,885	232,601	114,109
165,692	-4,873	232,407	114,013
166,706	-4,619	232,214	114,108
167,721	-4,592	232,156	114,092
168,735	-4,538	231,987	114,041
169,750	-4,703	231,851	113,834
170,764	-4,711	231,561	113,675
171,779	-4,574	231,530	113,757
172,794	-4,453	231,389	113,773
173,808	-4,802	231,195	113,393
174,823	-5,110	230,803	112,950
175,837	-5,212	230,633	112,776
176,852	-4,819	230,612	113,064
177,867	-4,781	230,532	113,045
178,881	-4,756	230,483	113,030
179,896	-4,664	230,204	112,955
180,910	-4,701	230,281	112,953
181,925	-4,722	229,947	112,763
182,940	-4,665	229,884	112,767
183,954	-4,490	229,580	112,744
184,969	-4,687	229,556	112,569
185,983	-4,310	229,296	112,725
186,998	-4,513	229,214	112,517
188,013	-4,631	229,044	112,331
189,027	-4,605	228,785	112,214
190,042	-4,602	228,788	112,208
191,056	-4,454	228,580	112,211
192,071	-4,290	228,317	112,198
193,086	-4,613	228,281	111,920
194,100	-4,577	228,038	111,820
195,115	-4,716	227,799	111,585
196,129	-5,196	227,382	111,000
197,144	-3,014	228,336	113,146
198,159	1,078	229,531	116,908
199,173	3,678	230,215	119,268
200,188	4,137	230,057	119,531
201,202	4,034	229,923	119,371
202,217	4,159	229,782	119,384
203,232	4,253	229,695	119,401
204,246	4,452	229,584	119,486
205,261	4,469	229,544	119,469
206,275	4,539	229,409	119,441
207,290	4,694	229,155	119,418
208,304	4,719	229,050	119,372
209,319	4,434	228,830	119,027
210,334	4,636	228,669	119,089
211,348	4,289	228,389	118,665
212,363	3,847	228,277	118,256
213,377	3,702	228,056	118,019
214,392	3,729	227,784	117,889
215,407	3,770	227,670	117,851
216,421	4,030	227,507	117,955
217,436	3,736	227,351	117,639
218,450	3,688	227,177	117,501
219,465	3,504	226,985	117,251
220,480	3,700	226,921	117,358
221,494	3,467	226,752	117,082
222,509	3,544	226,823	117,166
223,523	3,751	226,500	117,147
224,538	3,811	226,311	117,085
225,553	3,797	226,113	116,961
226,567	3,880	226,100	117,007
227,582	3,925	225,985	116,972
228,596	4,078	225,945	117,056
229,611	3,925	225,719	116,813
230,626	3,604	225,392	116,390
231,640	3,621	225,360	116,376
232,655	4,123	225,228	116,678
233,669	4,459	225,238	116,927
234,684	4,367	224,971	116,709
235,699	4,146	224,976	116,533
236,713	3,824	224,728	116,151
237,728	3,803	224,514	116,015
238,742	3,769	224,364	115,901
239,757	4,146	223,940	115,956
240,772	3,838	223,892	115,689
241,786	3,624	223,831	115,486
242,801	3,918	223,784	115,672
243,815	4,229	223,682	115,843
244,830	4,159	223,529	115,701
245,844	3,896	223,268	115,358
246,859	4,045	223,165	115,406
247,874	4,030	223,127	115,365
248,888	4,239	222,929	115,409
249,903	3,982	222,880	115,180
250,917	3,706	222,706	114,874
251,932	4,083	222,441	115,009
252,947	3,718	222,284	114,645
253,961	3,565	222,081	114,416
254,976	3,670	221,876	114,379
255,990	4,218	221,911	114,795
257,005	3,983	221,659	114,479
258,020	4,101	221,642	114,548
259,034	4,297	221,526	114,623
260,049	4,192	221,184	114,358
261,063	3,990	221,219	114,216
262,078	4,115	221,069	114,221
263,093	4,095	221,107	114,216
264,107	4,214	220,890	114,181
265,122	4,163	220,649	114,010
266,136	4,370	220,585	114,119
267,151	4,284	220,382	113,940
268,166	3,981	220,261	113,644
269,180	3,685	219,937	113,249
270,195	3,741	219,793	113,205
271,209	3,669	219,663	113,075
272,224	3,821	219,537	113,112
273,239	3,915	219,408	113,105
274,253	3,961	219,208	113,025
275,268	3,424	219,157	112,594
276,282	3,667	218,812	112,585
277,297	3,672	218,687	112,515
278,312	3,613	218,585	112,409
279,326	3,708	218,540	112,446
280,341	3,728	218,476	112,417
281,355	3,812	218,343	112,400
282,370	3,831	218,156	112,308
283,384	3,589	217,889	111,984
284,399	3,384	217,748	111,752
285,414	3,562	217,713	111,854
286,428	3,741	217,598	111,915
287,443	3,725	217,449	111,816
288,457	4,050	217,368	112,001
289,472	3,758	217,058	111,620
290,487	3,438	216,822	111,257
291,501	3,266	216,717	111,067
292,516	3,377	216,630	111,094
293,530	3,317	216,518	110,982
294,545	3,432	216,323	110,956
295,560	3,654	216,371	111,131
296,574	3,807	216,243	111,166
297,589	3,843	216,153	111,136
298,603	3,976	215,953	111,120
299,618	3,887	215,774	110,954
300,633	3,834	215,675	110,855
301,647	4,252	215,580	111,097
302,662	3,973	215,443	110,816
303,676	3,938	215,303	110,708
304,691	3,962	215,189	110,657
305,706	4,093	215,072	110,682
306,720	4,253	214,907	110,702
307,735	3,996	214,600	110,349
308,749	3,814	214,508	110,161
309,764	4,066	214,352	110,252
310,779	3,957	214,440	110,210
311,793	3,699	214,280	109,932
312,808	3,986	214,035	110,002
313,822	4,089	213,793	109,942
314,837	3,731	213,835	109,698
315,852	3,703	213,451	109,471
316,866	3,807	213,493	109,557
317,881	3,986	213,405	109,630
318,895	3,845	213,172	109,400
319,910	4,048	213,033	109,463
320,925	3,471	212,873	108,961
321,939	3,162	212,675	108,631
322,954	3,382	212,525	108,701
323,968	3,852	212,471	108,996
324,983	3,896	212,343	108,953
325,997	4,178	212,406	109,175
327,012	3,892	212,172	108,842
328,027	3,870	212,080	108,770
329,041	4,209	212,025	108,972
330,056	4,229	211,873	108,898
331,070	3,926	211,672	108,571
332,085	3,763	211,334	108,273
333,100	3,739	211,196	108,176
334,114	3,825	211,183	108,220
335,129	3,895	211,014	108,173
336,143	3,682	210,809	107,909
337,158	3,718	210,725	107,881
338,173	3,772	210,654	107,873
339,187	3,542	210,422	107,584
340,202	3,632	210,229	107,538
341,216	3,462	210,092	107,340
342,231	3,363	210,144	107,288
343,246	3,440	209,827	107,170
344,260	3,669	209,601	107,205
345,275	3,702	209,676	107,257
346,289	4,168	209,527	107,496
347,304	3,991	209,398	107,297
348,319	3,746	209,334	107,084
349,333	3,772	209,189	107,018
350,348	3,975	208,993	107,049
351,362	3,820	209,019	106,945
352,377	4,097	208,859	107,047
353,392	3,788	208,694	106,738
354,406	3,906	208,578	106,751
355,421	192,966	1344,935	1429,396
356,435	153,931	1483,473	1429,492
