DTS Sentinel unit serial number:	SN410029Multiplexer serial number:	ORYXHardware model number:	OX2-SRSoftware version number:	ORYX F/W v4,00 Oryx Data Collector v3.7.2.0data status	okinstallation	B6 Nyhavnadifferential loss correction	single-endedforward channel	channel 2reverse channel	N/Adate	2023/12/09time	22:25:08forward acquisition time	300,00reverse acquisition time	0,00gamma	499,1914k internal	0,3127k external	0,3127temperature offset calibration	1,0000default loss term (dB/km)	0,3820temperature slope calibration	1,0000multiplexer offset coefficient	1,0000multiplexer slope coefficient	1,0000fibre end	0,00T internal ref (°C)	21,68T ext. ref 1 (°C)	5,43T ext. ref 2 (°C)	5,41length (m)	temperature (°C)	Stokes	anti-Stokes-744,400	800,000	0,053	-0,127
-743,385	-113,923	-0,251	0,036
-742,371	-100,998	0,173	-0,031
-741,356	-121,061	-0,202	0,025
-740,342	-77,528	0,035	0,009
-739,327	-20,889	-0,120	0,055
-738,312	-200,000	-0,044	-0,158
-737,298	-161,401	-0,332	-0,013
-736,283	-62,087	0,028	-0,009
-735,269	63,364	-0,223	0,167
-734,254	800,000	0,031	-0,076
-733,239	-34,092	-0,347	-0,141
-732,225	-200,000	0,023	0,118
-731,210	712,207	-0,035	0,069
-730,196	-200,000	-0,029	-0,177
-729,181	800,000	-0,046	-0,114
-728,167	-10,150	0,105	0,052
-727,152	35,560	-0,020	0,013
-726,137	-109,159	-0,103	-0,016
-725,123	29,761	0,072	0,045
-724,108	193,940	-0,151	-0,170
-723,094	147,944	-0,009	0,009
-722,079	-2,925	-0,094	-0,048
-721,064	-93,205	-0,146	-0,030
-720,050	232,387	-0,050	-0,061
-719,035	28,705	-0,011	-0,007
-718,021	-26,825	0,051	0,022
-717,006	72,030	-0,109	-0,084
-715,991	469,531	-0,020	0,034
-714,977	-200,000	-0,002	0,132
-713,962	210,271	-0,090	-0,105
-712,948	-116,391	0,074	-0,010
-711,933	-54,725	-0,051	-0,017
-710,918	-200,000	-0,010	-0,050
-709,904	-200,000	-0,002	-0,024
-708,889	-63,417	-0,143	-0,043
-707,875	262,787	0,098	-0,127
-706,860	260,212	-0,031	-0,040
-705,845	215,622	-0,078	-0,092
-704,831	800,000	0,002	0,005
-703,816	335,944	-0,053	0,077
-702,802	22,222	0,120	0,073
-701,787	382,636	0,079	-0,121
-700,772	42,867	-0,139	-0,094
-699,758	-31,705	-0,085	0,035
-698,743	-118,793	0,097	-0,013
-697,729	525,841	0,025	0,044
-696,714	61,829	-0,079	-0,058
-695,699	686,003	0,056	-0,109
-694,685	800,000	-0,045	0,130
-693,670	224,248	-0,062	-0,075
-692,656	-107,235	0,061	-0,010
-691,641	333,092	-0,072	-0,104
-690,627	20,152	0,068	0,041
-689,612	194,411	0,055	-0,062
-688,597	-90,846	0,023	-0,005
-687,583	-37,964	-0,131	-0,051
-686,568	357,018	0,084	-0,125
-685,554	15,306	-0,022	-0,013
-684,539	34,970	-0,071	-0,046
-683,524	651,019	-0,068	-0,130
-682,510	313,913	-0,032	0,045
-681,495	88,177	-0,025	0,021
-680,481	800,000	0,024	-0,075
-679,466	-200,000	-0,011	-0,095
-678,451	120,429	-0,062	0,057
-677,437	-200,000	0,014	0,049
-676,422	-200,000	-0,002	-0,031
-675,408	267,314	-0,054	-0,070
-674,393	250,113	-0,026	0,033
-673,378	-32,160	-0,152	-0,063
-672,364	239,526	-0,097	-0,120
-671,349	-200,000	0,008	-0,029
-670,335	-101,490	-0,068	-0,012
-669,320	98,246	-0,054	-0,046
-668,305	44,253	0,065	-0,044
-667,291	-109,147	-0,148	0,023
-666,276	39,823	-0,089	-0,059
-665,262	-200,000	-0,020	-0,072
-664,247	-112,586	0,040	-0,006
-663,232	-86,370	-0,200	0,045
-662,218	-200,000	-0,008	-0,041
-661,203	800,000	-0,057	0,144
-660,189	-200,000	-0,015	0,050
-659,174	208,223	-0,115	0,133
-658,159	773,049	0,019	0,038
-657,145	141,896	0,047	0,046
-656,130	58,770	0,059	-0,043
-655,116	80,854	-0,092	-0,073
-654,101	628,409	0,051	0,096
-653,086	74,112	-0,061	0,048
-652,072	800,000	0,033	-0,081
-651,057	800,000	-0,037	-0,085
-650,043	-9,439	-0,139	-0,069
-649,028	-200,000	-0,041	-0,141
-648,014	800,000	0,041	-0,101
-646,999	144,162	0,109	-0,108
-645,984	90,019	-0,092	0,076
-644,970	244,247	-0,066	-0,083
-643,955	-94,407	0,082	-0,017
-642,941	-114,208	-0,037	-0,005
-641,926	651,358	0,058	0,110
-640,911	319,972	0,059	-0,083
-639,897	-200,000	0,020	0,093
-638,882	800,000	-0,030	-0,076
-637,868	-200,000	0,024	-0,093
-636,853	-200,000	0,012	0,058
-635,838	-200,000	-0,008	-0,136
-634,824	-200,000	-0,038	-0,146
-633,809	-200,000	-0,014	-0,091
-632,795	367,912	-0,085	0,128
-631,780	-200,000	-0,004	0,089
-630,765	800,000	-0,048	0,126
-629,751	-200,000	0,020	-0,086
-628,736	-62,458	-0,060	-0,018
-627,722	800,000	-0,019	-0,042
-626,707	297,640	0,079	0,108
-625,692	-200,000	-0,010	-0,079
-624,678	587,430	-0,036	0,066
-623,663	237,952	-0,079	0,098
-622,649	800,000	-0,024	0,066
-621,634	-93,871	0,067	0,014
-620,619	132,216	0,055	-0,052
-619,605	55,301	0,081	0,058
-618,590	800,000	-0,045	0,106
-617,576	-200,000	-0,014	0,052
-616,561	37,851	0,104	-0,068
-615,546	800,000	-0,010	0,029
-614,532	-200,000	-0,018	-0,103
-613,517	-200,000	0,010	-0,037
-612,503	-200,000	-0,030	-0,120
-611,488	-200,000	0,016	-0,066
-610,474	14,453	0,022	0,013
-609,459	-200,000	0,015	-0,084
-608,444	388,854	-0,063	0,097
-607,430	-200,000	0,009	-0,096
-606,415	111,074	-0,100	0,089
-605,401	93,913	-0,045	0,038
-604,386	-9,654	0,058	0,029
-603,371	672,674	-0,055	0,107
-602,357	-200,000	-0,008	-0,028
-601,342	527,127	-0,091	-0,159
-600,328	311,399	-0,053	-0,074
-599,313	5,325	-0,147	-0,080
-598,298	-200,000	0,030	-0,186
-597,284	-200,000	0,001	-0,081
-596,269	224,847	-0,061	-0,073
-595,255	-200,000	0,022	0,091
-594,240	502,180	0,025	-0,042
-593,225	417,633	0,051	0,081
-592,211	-62,815	-0,065	-0,020
-591,196	-25,575	-0,117	-0,051
-590,182	800,000	0,078	0,186
-589,167	213,443	0,106	0,124
-588,152	249,260	-0,104	-0,131
-587,138	-75,330	-0,085	0,022
-586,123	123,262	-0,159	-0,148
-585,109	-123,954	0,071	-0,008
-584,094	39,423	-0,029	-0,019
-583,079	-200,000	-0,002	0,160
-582,065	242,726	0,008	-0,010
-581,050	18,957	0,108	0,064
-580,036	18,906	0,152	-0,090
-579,021	79,927	-0,049	0,039
-578,006	-200,000	-0,004	-0,068
-576,992	-83,062	0,114	0,027
-575,977	-4,230	-0,110	-0,056
-574,963	800,000	-0,026	0,073
-573,948	121,981	-0,024	-0,022
-572,934	-8,487	-0,029	0,014
-571,919	-200,000	-0,014	-0,133
-570,904	114,145	-0,006	0,006
-569,890	194,141	0,028	-0,031
-568,875	426,543	0,074	-0,119
-567,861	-125,677	0,049	0,005
-566,846	800,000	-0,052	0,154
-565,831	54,355	0,154	0,109
-564,817	-128,158	-0,046	0,005
-563,802	-76,023	-0,140	-0,036
-562,788	-200,000	-0,005	-0,019
-561,773	159,918	-0,168	-0,174
-560,758	-200,000	0,003	0,026
-559,744	147,607	-0,063	-0,063
-558,729	-200,000	-0,005	-0,023
-557,715	16,245	0,092	0,054
-556,700	-200,000	0,013	-0,061
-555,685	284,644	0,068	-0,091
-554,671	-35,326	0,051	-0,020
-553,656	115,706	-0,113	-0,103
-552,642	435,503	0,043	-0,069
-551,627	527,384	0,015	0,026
-550,612	-120,229	0,096	0,012
-549,598	239,670	0,009	0,011
-548,583	-181,748	0,172	0,002
-547,569	-64,460	-0,111	0,033
-546,554	237,995	-0,056	0,069
-545,539	521,251	0,023	-0,040
-544,525	-161,956	0,006	0,000
-543,510	238,991	0,058	-0,071
-542,496	-0,374	-0,069	0,036
-541,481	50,266	-0,045	0,032
-540,466	-200,000	0,009	0,081
-539,452	-56,248	0,189	0,062
-538,437	-30,783	0,086	-0,036
-537,423	-118,774	0,050	0,006
-536,408	150,645	0,098	-0,098
-535,393	149,161	-0,056	-0,056
-534,379	-200,000	-0,006	-0,078
-533,364	189,694	-0,046	-0,051
-532,350	427,767	0,027	0,043
-531,335	-42,938	0,079	-0,030
-530,321	-200,000	-0,007	-0,030
-529,306	-79,467	-0,012	-0,003
-528,291	41,335	-0,070	0,047
-527,277	-200,000	-0,010	0,169
-526,262	264,649	0,043	0,055
-525,248	596,368	-0,017	0,030
-524,233	-200,000	-0,023	0,103
-523,218	-132,451	0,044	0,004
-522,204	12,331	-0,094	-0,053
-521,189	-200,000	-0,002	-0,137
-520,175	298,014	-0,033	-0,045
-519,160	-28,396	-0,043	-0,018
-518,145	-200,000	0,042	0,157
-517,131	210,870	0,042	0,049
-516,116	-200,000	-0,001	0,099
-515,102	483,884	-0,088	0,148
-514,087	-30,539	-0,144	-0,060
-513,072	75,197	0,040	0,031
-512,058	-98,665	-0,051	0,010
-511,043	-80,414	0,062	-0,015
-510,029	131,917	-0,094	0,089
-509,014	134,464	0,075	-0,072
-507,999	117,746	0,092	0,083
-506,985	189,793	-0,048	-0,053
-505,970	-200,000	0,000	0,021
-504,956	-48,034	-0,062	0,022
-503,941	-55,035	0,102	0,034
-502,926	-79,150	0,033	-0,008
-501,912	-148,874	-0,133	0,008
-500,897	-200,000	0,034	0,193
-499,883	-135,854	-0,053	0,005
-498,868	800,000	-0,063	-0,138
-497,853	94,698	0,088	-0,073
-496,839	579,458	0,048	-0,087
-495,824	-200,000	-0,009	0,065
-494,810	-150,406	0,166	0,009
-493,795	-81,516	0,005	-0,001
-492,781	-200,000	-0,003	-0,017
-491,766	141,118	-0,053	-0,051
-490,751	-106,082	0,149	-0,024
-489,737	649,489	0,020	-0,038
-488,722	97,684	0,128	0,108
-487,708	-138,817	-0,018	0,001
-486,693	-36,312	-0,029	0,012
-485,678	573,589	0,048	-0,087
-484,664	-144,271	-0,045	-0,003
-483,649	529,036	0,029	-0,051
-482,635	502,615	-0,065	-0,111
-481,620	-200,000	-0,007	0,097
-480,605	-162,041	0,131	-0,005
-479,591	-200,000	0,013	0,058
-478,576	-200,000	-0,012	0,127
-477,562	25,836	-0,025	-0,016
-476,547	87,669	0,103	-0,084
-475,532	-1,488	-0,080	0,041
-474,518	-200,000	0,009	-0,053
-473,503	91,361	-0,054	-0,044
-472,489	-100,953	-0,127	0,023
-471,474	737,754	0,023	0,046
-470,459	7,501	0,109	-0,060
-469,445	569,810	0,083	-0,149
-468,430	800,000	0,062	-0,194
-467,416	-98,867	0,100	0,019
-466,401	-117,397	0,080	0,011
-465,386	136,373	0,103	-0,099
-464,372	25,917	-0,083	0,051
-463,357	-200,000	0,018	-0,108
-462,343	-200,000	0,013	-0,046
-461,328	800,000	0,041	-0,102
-460,313	-200,000	-0,002	0,082
-459,299	-183,080	-0,050	-0,001
-458,284	-85,037	-0,116	-0,027
-457,270	4,110	-0,058	-0,031
-456,255	150,349	0,073	-0,073
-455,241	10,980	0,107	0,060
-454,226	-200,000	-0,010	-0,048
-453,211	800,000	-0,034	-0,100
-452,197	-110,735	0,087	-0,013
-451,182	102,745	-0,117	-0,101
-450,168	-44,579	0,066	-0,024
-449,153	-200,000	-0,020	0,106
-448,138	800,000	-0,014	-0,030
-447,124	20,239	-0,008	0,005
-446,109	61,249	-0,136	0,099
-445,095	-142,997	0,136	0,010
-444,080	800,000	0,017	0,047
-443,065	-152,414	-0,141	-0,007
-442,051	-73,553	-0,041	0,011
-441,036	178,500	-0,050	-0,054
-440,022	-41,065	-0,079	-0,030
-439,007	3,111	0,105	-0,056
-437,992	-129,077	-0,080	0,008
-436,978	-8,934	0,132	0,065
-435,963	800,000	0,021	0,063
-434,949	35,681	-0,105	0,068
-433,934	-200,000	0,014	-0,091
-432,919	800,000	-0,020	-0,047
-431,905	-70,152	0,073	0,020
-430,890	200,321	-0,043	-0,048
-429,876	800,000	0,090	0,201
-428,861	-50,050	-0,042	0,015
-427,846	550,027	-0,039	0,068
-426,832	252,120	0,008	0,011
-425,817	-89,779	-0,052	-0,011
-424,803	242,252	0,078	-0,096
-423,788	138,167	0,085	0,082
-422,773	499,645	0,022	0,038
-421,759	157,883	-0,082	0,084
-420,744	38,521	0,081	-0,053
-419,730	44,394	-0,163	-0,110
-418,715	-33,609	0,074	0,030
-417,701	-6,794	-0,060	-0,030
-416,686	-39,906	0,092	-0,035
-415,671	-200,000	0,001	0,004
-414,657	-107,530	0,060	0,010
-413,642	438,385	0,011	-0,018
-412,628	800,000	-0,029	-0,076
-411,613	-200,000	-0,010	-0,190
-410,598	800,000	0,046	-0,131
-409,584	62,447	0,147	0,108
-408,569	800,000	-0,016	-0,050
-407,555	11,926	0,161	0,090
-406,540	548,917	-0,030	-0,053
-405,525	47,132	-0,128	-0,087
-404,511	800,000	-0,022	-0,066
-403,496	-123,222	-0,019	0,002
-402,482	84,380	-0,054	0,043
-401,467	-109,478	0,225	0,035
-400,452	408,234	0,037	0,058
-399,438	800,000	0,024	0,075
-398,423	-121,913	-0,081	-0,010
-397,409	190,613	-0,068	-0,075
-396,394	9,337	0,176	-0,097
-395,379	157,231	-0,045	0,045
-394,365	-31,086	0,072	0,030
-393,350	39,408	0,042	0,028
-392,336	-200,000	0,019	0,192
-391,321	-84,746	0,052	0,012
-390,306	211,970	-0,078	-0,090
-389,292	800,000	0,044	0,133
-388,277	-105,838	-0,021	0,003
-387,263	12,512	0,088	0,049
-386,248	-75,264	0,091	-0,024
-385,233	-200,000	-0,024	-0,093
-384,219	133,236	-0,061	-0,058
-383,204	-200,000	-0,011	0,035
-382,190	-139,177	-0,148	-0,012
-381,175	25,458	-0,104	-0,064
-380,160	800,000	-0,027	0,079
-379,146	800,000	0,067	0,174
-378,131	-108,114	0,127	0,020
-377,117	38,648	-0,047	-0,031
-376,102	289,623	-0,062	-0,083
-375,088	800,000	0,024	-0,073
-374,073	358,376	0,059	-0,086
-373,058	396,589	-0,021	-0,033
-372,044	-170,410	0,039	0,001
-371,029	573,917	-0,050	0,090
-370,015	800,000	0,050	0,127
-369,000	90,457	-0,095	-0,078
-367,985	-161,768	0,079	-0,003
-366,971	213,738	0,109	0,126
-365,956	427,933	-0,054	0,086
-364,942	526,408	0,035	0,061
-363,927	800,000	0,059	0,133
-362,912	-200,000	-0,002	-0,122
-361,898	-84,355	-0,058	-0,013
-360,883	800,000	-0,020	-0,043
-359,869	-68,284	-0,108	-0,031
-358,854	-124,430	0,083	-0,009
-357,839	-22,713	-0,026	0,012
-356,825	329,307	0,032	-0,045
-355,810	137,708	-0,021	0,020
-354,796	276,574	0,022	0,029
-353,781	-96,543	0,093	-0,018
-352,766	77,748	-0,073	-0,057
-351,752	566,763	0,056	-0,100
-350,737	-104,630	-0,126	-0,021
-349,723	100,868	0,046	-0,039
-348,708	-200,000	0,017	0,080
-347,693	-126,492	0,104	-0,011
-346,679	23,429	-0,093	0,056
-345,664	-200,000	0,017	-0,153
-344,650	-89,248	0,027	-0,006
-343,635	142,300	-0,035	0,034
-342,620	8,284	-0,078	0,043
-341,606	-132,910	-0,115	0,011
-340,591	-109,151	-0,097	-0,015
-339,577	-200,000	-0,008	-0,051
-338,562	351,955	-0,033	0,049
-337,548	1,574	-0,029	-0,015
-336,533	-98,052	0,065	0,012
-335,518	800,000	0,052	0,157
-334,504	-200,000	0,013	-0,200
-333,489	-97,654	-0,025	-0,005
-332,475	504,386	-0,041	0,070
-331,460	18,612	0,048	-0,028
-330,445	14,291	0,067	0,038
-329,431	-200,000	0,029	0,099
-328,416	153,349	-0,093	0,093
-327,402	-200,000	0,009	0,070
-326,387	-98,296	-0,042	0,008
-325,372	-121,215	-0,033	0,004
-324,358	-91,842	-0,196	-0,040
-323,343	228,811	-0,099	0,118
-322,329	-200,000	0,034	-0,118
-321,314	-67,759	0,148	-0,042
-320,299	-131,809	0,048	0,005
-319,285	-189,905	0,052	-0,000
-318,270	185,208	-0,071	0,077
-317,256	82,734	-0,132	-0,105
-316,241	-200,000	0,013	-0,059
-315,226	-200,000	-0,015	-0,127
-314,212	414,809	0,080	-0,126
-313,197	-87,007	0,092	-0,020
-312,183	130,248	-0,099	0,093
-311,168	228,540	-0,044	0,053
-310,153	26,004	0,045	-0,027
-309,139	800,000	-0,029	-0,080
-308,124	11,723	-0,098	0,055
-307,110	195,712	-0,036	0,040
-306,095	-30,216	0,073	-0,030
-305,080	178,521	0,003	-0,003
-304,066	800,000	0,021	-0,047
-303,051	-200,000	-0,031	-0,162
-302,037	-200,000	-0,001	-0,088
-301,022	-200,000	-0,015	0,123
-300,008	800,000	0,002	-0,007
-298,993	227,982	-0,035	0,042
-297,978	39,233	-0,091	-0,059
-296,964	19,965	-0,091	-0,054
-295,949	-200,000	0,021	-0,167
-294,935	-200,000	-0,022	0,103
-293,920	33,689	0,112	-0,071
-292,905	-33,395	0,049	-0,020
-291,891	214,483	0,041	-0,048
-290,876	195,402	-0,033	0,037
-289,862	-76,689	0,061	-0,016
-288,847	-101,208	0,056	0,010
-287,832	-23,161	-0,050	-0,022
-286,818	463,766	-0,046	-0,075
-285,803	12,188	0,091	0,051
-284,789	-200,000	-0,023	-0,126
-283,774	-82,151	0,042	-0,010
-282,759	-200,000	0,012	0,088
-281,745	54,480	-0,097	-0,068
-280,730	44,217	0,063	-0,042
-279,716	34,922	-0,046	-0,030
-278,701	-67,884	0,137	0,039
-277,686	-84,132	0,103	0,024
-276,672	-169,249	0,192	0,005
-275,657	192,756	0,033	-0,036
-274,643	289,076	-0,083	-0,110
-273,628	243,204	0,057	-0,070
-272,613	-200,000	0,005	0,062
-271,599	-200,000	0,042	0,146
-270,584	-12,244	0,100	0,048
-269,570	-84,226	-0,107	-0,025
-268,555	800,000	0,026	-0,056
-267,540	800,000	-0,038	-0,101
-266,526	166,717	-0,029	-0,030
-265,511	-200,000	0,024	-0,120
-264,497	129,493	-0,119	0,111
-263,482	-178,514	-0,039	-0,001
-262,467	800,000	0,032	0,066
-261,453	-200,000	0,028	0,162
-260,438	-52,686	-0,093	-0,031
-259,424	-200,000	-0,025	0,092
-258,409	154,652	-0,052	-0,052
-257,395	-200,000	0,020	0,066
-256,380	334,244	-0,062	-0,088
-255,365	-200,000	-0,003	0,012
-254,351	180,598	0,093	0,099
-253,336	-61,992	0,057	-0,017
-252,322	800,000	-0,054	-0,110
-251,307	-13,785	-0,061	-0,029
-250,292	-22,828	0,098	-0,043
-249,278	29,108	0,064	0,040
-248,263	296,567	0,058	0,078
-247,249	-89,563	-0,165	0,035
-246,234	530,542	-0,065	0,112
-245,219	-158,091	-0,028	0,001
-244,205	-167,699	-0,221	0,006
-243,190	169,247	-0,055	-0,057
-242,176	-72,692	-0,064	0,017
-241,161	-200,000	0,030	0,118
-240,146	-200,000	0,036	0,131
-239,132	109,736	0,047	0,041
-238,117	32,850	-0,098	-0,062
-237,103	255,053	0,036	-0,044
-236,088	-19,263	-0,056	-0,025
-235,073	48,655	0,061	0,042
-234,059	800,000	0,063	0,168
-233,044	146,453	-0,067	-0,066
-232,030	-200,000	-0,011	0,262
-231,015	231,813	0,011	-0,014
-230,000	-79,199	-0,120	0,029
-228,986	-57,159	0,062	-0,020
-227,971	444,150	0,031	0,050
-226,957	-200,000	0,007	0,136
-225,942	-169,825	0,037	-0,001
-224,927	-200,000	0,027	0,114
-223,913	50,419	-0,046	-0,032
-222,898	275,631	-0,137	-0,178
-221,884	-200,000	0,036	-0,119
-220,869	284,586	0,037	0,049
-219,855	-173,015	-0,108	0,002
-218,840	-200,000	0,018	0,075
-217,825	273,476	-0,035	0,045
-216,811	178,248	-0,080	0,086
-215,796	746,592	-0,035	0,069
-214,782	-14,538	0,064	0,030
-213,767	38,862	0,085	0,055
-212,752	321,093	-0,029	0,040
-211,738	-200,000	0,008	0,076
-210,723	-40,920	0,078	0,029
-209,709	-77,726	-0,065	-0,016
-208,694	-200,000	0,011	-0,053
-207,679	-96,179	-0,128	0,025
-206,665	800,000	0,015	-0,041
-205,650	437,811	-0,023	-0,036
-204,636	153,062	0,094	0,094
-203,621	-174,234	0,041	-0,001
-202,606	303,672	-0,059	0,080
-201,592	271,474	0,126	0,162
-200,577	-200,000	-0,005	0,027
-199,563	106,493	0,020	-0,017
-198,548	-200,000	0,019	0,151
-197,533	32,083	0,033	-0,021
-196,519	-6,835	0,034	0,017
-195,504	800,000	-0,004	0,008
-194,490	89,228	-0,026	0,021
-193,475	-159,047	0,048	-0,002
-192,460	-20,630	0,055	-0,025
-191,446	800,000	0,019	-0,056
-190,431	-52,368	0,073	-0,025
-189,417	87,819	0,011	-0,009
-188,402	-132,026	-0,073	0,007
-187,387	-123,053	-0,128	-0,015
-186,373	43,346	-0,079	-0,052
-185,358	639,535	0,047	-0,088
-184,344	-200,000	-0,020	0,086
-183,329	150,510	-0,040	0,039
-182,315	800,000	-0,047	0,113
-181,300	584,582	0,073	-0,130
-180,285	22,123	-0,013	-0,008
-179,271	352,018	-0,112	-0,162
-178,256	-200,000	0,006	-0,032
-177,242	686,287	0,050	0,096
-176,227	309,344	0,096	0,131
-175,212	-200,000	0,018	0,061
-174,198	-200,000	-0,015	0,142
-173,183	94,472	-0,161	-0,133
-172,169	-58,635	0,103	0,032
-171,154	800,000	-0,068	0,192
-170,139	800,000	-0,054	0,128
-169,125	-17,673	-0,024	0,011
-168,110	-47,785	0,037	-0,013
-167,096	212,825	-0,038	0,044
-166,081	142,041	-0,041	0,040
-165,066	-200,000	0,003	-0,130
-164,052	322,702	0,090	0,125
-163,037	196,879	-0,022	0,024
-162,023	-162,473	0,214	0,008
-161,008	-80,456	0,180	0,043
-159,993	128,629	-0,076	0,071
-158,979	-21,936	-0,189	-0,083
-157,964	-200,000	0,006	0,152
-156,950	-136,114	-0,088	-0,007
-155,935	800,000	-0,038	-0,077
-154,920	-13,070	0,125	-0,059
-153,906	100,872	-0,131	0,111
-152,891	-23,606	0,056	-0,024
-151,877	240,902	-0,038	-0,046
-150,862	106,664	-0,104	0,090
-149,847	201,612	-0,054	0,060
-148,833	800,000	-0,033	0,074
-147,818	425,021	0,064	0,100
-146,804	-200,000	0,034	0,172
-145,789	-42,675	-0,168	0,062
-144,775	-200,000	-0,003	-0,141
-143,760	800,000	-0,056	-0,146
-142,745	126,923	0,043	0,040
-141,731	167,649	-0,053	-0,055
-140,716	123,185	-0,091	-0,083
-139,702	800,000	0,030	0,090
-138,687	5,849	0,004	-0,002
-137,672	800,000	0,022	0,048
-136,658	-20,450	-0,111	-0,049
-135,643	128,166	0,062	-0,057
-134,629	-200,000	0,038	-0,125
-133,614	800,000	-0,030	-0,074
-132,599	800,000	0,044	0,138
-131,585	232,395	0,023	-0,027
-130,570	-200,000	0,003	0,025
-129,556	800,000	-0,031	0,071
-128,541	800,000	-0,028	-0,090
-127,526	-90,612	0,063	-0,013
-126,512	-200,000	0,003	0,025
-125,497	-200,000	-0,010	-0,037
-124,483	287,445	0,118	0,155
-123,468	-200,000	-0,005	0,025
-122,453	402,241	-0,018	0,028
-121,439	73,690	-0,080	-0,061
-120,424	190,602	-0,094	-0,102
-119,410	-200,000	-0,017	0,105
-118,395	-125,954	0,046	0,005
-117,380	-31,573	-0,145	0,059
-116,366	-89,040	0,150	-0,032
-115,351	388,377	-0,019	-0,028
-114,337	735,594	0,037	-0,073
-113,322	-69,766	-0,093	0,026
-112,307	-200,000	0,003	-0,120
-111,293	800,000	0,045	-0,116
-110,278	4,997	-0,096	0,051
-109,264	58,268	0,114	-0,081
-108,249	286,075	0,058	-0,076
-107,234	252,746	0,038	-0,047
-106,220	117,889	0,046	0,041
-105,205	-200,000	-0,010	-0,050
-104,191	124,545	0,089	0,081
-103,176	-23,380	-0,080	0,035
-102,162	233,531	-0,040	-0,047
-101,147	-200,000	-0,014	0,109
-100,132	354,825	-0,071	0,103
-99,118	-200,000	0,012	-0,087
-98,103	-200,000	-0,004	-0,019
-97,089	-92,253	-0,130	0,026
-96,074	297,697	-0,053	0,071
-95,059	181,440	0,121	0,129
-94,045	40,851	-0,017	0,011
-93,030	352,311	-0,026	-0,037
-92,016	4,442	0,190	-0,101
-91,001	800,000	0,025	-0,057
-89,986	87,550	0,094	0,076
-88,972	-103,067	0,141	0,024
-87,957	-15,062	-0,093	0,043
-86,943	-126,698	-0,023	-0,002
-85,928	-62,553	-0,127	0,038
-84,913	-17,221	0,040	0,018
-83,899	-200,000	0,003	-0,102
-82,884	800,000	0,025	0,077
-81,870	-200,000	0,004	-0,022
-80,855	125,367	0,055	-0,050
-79,840	28,496	-0,031	0,019
-78,826	-200,000	0,012	0,084
-77,811	249,540	0,074	0,092
-76,797	9,583	-0,081	0,044
-75,782	-200,000	0,029	0,103
-74,767	85,069	0,179	0,142
-73,753	49,423	-0,024	-0,017
-72,738	800,000	-0,035	0,075
-71,724	-11,597	-0,093	0,044
-70,709	226,868	-0,025	0,030
-69,694	-200,000	0,003	0,075
-68,680	390,679	-0,045	-0,068
-67,665	-53,314	-0,069	0,023
-66,651	-200,000	0,003	0,011
-65,636	120,437	-0,085	-0,076
-64,622	-200,000	0,025	0,109
-63,607	800,000	0,037	0,086
-62,592	-54,796	-0,073	-0,024
-61,578	-200,000	0,004	0,053
-60,563	-200,000	-0,005	0,086
-59,549	111,419	-0,100	-0,088
-58,534	-102,660	-1,382	-0,237
-57,519	774,827	-0,744	-1,478
-56,505	-200,000	-1,008	-4,327
-55,490	-110,261	0,824	-0,123
-54,476	800,000	5,106	11,617
-53,461	-200,000	14,193	252,845
-52,446	-200,000	695,535	2231,047
-51,432	568,390	1624,354	2871,753
-50,417	116,973	1631,286	1451,730
-49,403	72,842	1285,148	971,428
-48,388	37,425	1022,408	655,555
-47,373	23,739	980,683	583,872
-46,359	22,933	970,298	575,028
-45,344	21,916	966,008	569,146
-44,330	21,879	964,473	568,098
-43,315	21,704	963,105	566,702
-42,300	21,773	962,112	566,318
-41,286	21,734	961,238	565,656
-40,271	21,734	960,082	564,955
-39,257	21,706	959,342	564,405
-38,242	21,745	958,119	563,790
-37,227	21,663	957,493	563,134
-36,213	21,692	956,434	562,582
-35,198	21,632	955,692	561,929
-34,184	21,742	955,038	561,878
-33,169	21,665	954,047	561,024
-32,154	21,811	953,201	560,974
-31,140	21,731	952,318	560,174
-30,125	21,715	951,344	559,527
-29,111	21,699	950,745	559,103
-28,096	21,669	950,133	558,624
-27,082	21,693	949,441	558,271
-26,067	21,704	948,556	557,764
-25,052	21,713	947,889	557,380
-24,038	21,709	947,294	556,995
-23,023	21,754	946,440	556,614
-22,009	21,784	945,891	556,364
-20,994	21,778	945,123	555,872
-19,979	21,756	944,622	555,483
-18,965	21,707	944,099	554,998
-17,950	21,762	943,315	554,692
-16,936	21,717	942,673	554,148
-15,921	21,660	942,085	553,600
-14,906	21,583	941,298	552,871
-13,892	21,633	940,590	552,592
-12,877	21,562	940,078	552,042
-11,863	21,584	939,535	551,772
-10,848	21,558	939,045	551,380
-9,833	21,695	938,592	551,527
-8,819	21,664	937,819	550,951
-7,804	21,635	937,121	550,430
-6,790	21,577	936,792	550,028
-5,775	21,613	935,914	549,607
-4,760	21,641	935,401	549,370
-3,746	21,577	934,774	548,779
-2,731	21,452	934,132	547,988
-1,717	21,367	933,486	547,319
-0,702	21,487	932,537	547,118
0,313	21,253	932,122	546,964
1,327	24,166	930,035	554,831
2,342	33,354	793,484	497,759
3,356	30,807	450,566	278,789
4,371	0,633	294,670	152,127
5,386	-3,505	275,756	138,422
6,400	-4,810	270,039	134,325
7,415	-5,222	267,690	132,764
8,429	-5,021	266,623	132,408
9,444	-5,172	265,746	131,823
10,459	-4,743	265,058	131,861
11,473	-4,934	264,334	131,315
12,488	-4,971	263,938	131,073
13,502	-5,318	263,508	130,533
14,517	-5,220	263,052	130,384
15,531	-5,027	262,548	130,298
16,546	-5,008	262,310	130,185
17,561	-5,067	261,888	129,911
18,575	-4,964	261,623	129,861
19,590	-5,271	261,249	129,387
20,604	-5,066	260,989	129,431
21,619	-5,214	260,683	129,134
22,634	-5,144	260,208	128,951
23,648	-5,186	260,214	128,905
24,663	-5,075	259,709	128,742
25,677	-5,169	259,408	128,497
26,692	-5,231	259,330	128,392
27,707	-5,172	258,916	128,228
28,721	-5,098	258,625	128,139
29,736	-5,073	258,318	127,998
30,750	-5,223	258,134	127,761
31,765	-5,401	257,991	127,521
32,780	-5,187	257,736	127,574
33,794	-5,101	257,403	127,473
34,809	-5,290	257,276	127,232
35,823	-5,329	257,053	127,076
36,838	-5,347	256,819	126,933
37,853	-5,352	256,567	126,792
38,867	-5,389	256,316	126,625
39,882	-5,311	255,939	126,496
40,896	-5,060	255,816	126,644
41,911	-5,134	255,510	126,417
42,926	-5,452	255,455	126,099
43,940	-5,419	255,337	126,058
44,955	-5,143	254,820	126,034
45,969	-5,417	254,686	125,717
46,984	-5,369	254,379	125,595
47,999	-5,794	254,323	125,185
49,013	-5,773	253,964	125,016
50,028	-5,814	253,636	124,808
51,042	-6,035	253,453	124,514
52,057	-5,956	253,235	124,464
53,071	-5,830	253,082	124,487
54,086	-5,757	252,809	124,406
55,101	-5,759	252,649	124,314
56,115	-5,318	252,488	124,606
57,130	-5,145	252,384	124,694
58,144	-4,996	252,284	124,762
59,159	-4,926	252,041	124,692
60,174	-4,888	251,818	124,603
61,188	-5,076	251,667	124,355
62,203	-5,002	251,605	124,377
63,217	-5,236	251,216	123,972
64,232	-5,227	250,948	123,836
65,247	-5,225	250,941	123,824
66,261	-5,354	250,703	123,584
67,276	-5,163	250,237	123,508
68,290	-5,560	250,217	123,145
69,305	-5,611	249,826	122,899
70,320	-5,402	249,630	122,970
71,334	-5,326	249,593	123,006
72,349	-5,194	249,457	123,041
73,363	-5,022	249,181	123,040
74,378	-5,188	249,040	122,818
75,393	-5,039	248,779	122,805
76,407	-5,128	248,494	122,578
77,422	-4,992	248,398	122,636
78,436	-5,001	248,159	122,499
79,451	-4,976	247,921	122,392
80,466	-5,116	247,806	122,205
81,480	-5,569	247,544	121,681
82,495	-5,550	247,375	121,604
83,509	-5,270	247,168	121,728
84,524	-5,247	246,940	121,624
85,539	-5,587	246,581	121,149
86,553	-5,589	246,523	121,109
87,568	-5,386	246,413	121,214
88,582	-5,380	246,140	121,074
89,597	-5,373	245,981	120,992
90,611	-5,171	245,972	121,146
91,626	-5,128	245,729	121,052
92,641	-5,172	245,450	120,867
93,655	-5,182	245,262	120,755
94,670	-5,257	245,183	120,642
95,684	-5,266	244,961	120,515
96,699	-5,256	244,769	120,418
97,714	-5,227	244,500	120,299
98,728	-5,552	244,488	120,011
99,743	-5,542	244,051	119,794
100,757	-5,387	243,960	119,868
101,772	-5,354	243,782	119,797
102,787	-5,333	243,565	119,698
103,801	-5,349	243,417	119,601
104,816	-5,107	243,154	119,662
105,830	-5,268	243,200	119,540
106,845	-5,121	243,043	119,574
107,860	-5,183	242,687	119,337
108,874	-5,145	242,561	119,296
109,889	-5,393	242,460	119,030
110,903	-5,366	242,166	118,897
111,918	-5,526	242,088	118,717
112,933	-5,241	241,867	118,833
113,947	-5,187	241,647	118,759
114,962	-5,139	241,364	118,649
115,976	-5,089	241,249	118,623
116,991	-5,126	241,180	118,548
118,006	-5,309	241,099	118,347
119,020	-5,122	240,797	118,342
120,035	-5,171	240,782	118,283
121,049	-5,170	240,563	118,166
122,064	-5,222	240,305	117,987
123,079	-5,097	240,015	117,936
124,093	-5,306	240,044	117,768
125,108	-5,321	239,630	117,543
126,122	-5,449	239,550	117,388
127,137	-5,578	239,325	117,162
128,151	-5,282	239,113	117,289
129,166	-5,341	239,005	117,178
130,181	-5,444	238,767	116,967
131,195	-5,532	238,697	116,851
132,210	-5,400	238,550	116,875
133,224	-5,264	238,389	116,897
134,239	-5,239	238,166	116,797
135,254	-5,325	238,059	116,664
136,268	-5,256	237,863	116,614
137,283	-5,501	237,672	116,312
138,297	-5,577	237,493	116,152
139,312	-5,410	237,155	116,111
140,327	-5,343	237,081	116,119
141,341	-4,945	237,065	116,423
142,356	-4,948	236,901	116,329
143,370	-4,978	236,852	116,270
144,385	-4,950	236,612	116,164
145,400	-4,839	236,543	116,210
146,414	-4,956	236,313	115,992
147,429	-5,043	236,129	115,822
148,443	-5,007	235,903	115,730
149,458	-4,921	235,651	115,664
150,473	-4,961	235,676	115,634
151,487	-5,153	235,440	115,354
152,502	-4,927	235,230	115,422
153,516	-4,876	235,096	115,387
154,531	-5,082	234,922	115,126
155,546	-5,173	234,675	114,923
156,560	-5,160	234,568	114,871
157,575	-5,057	234,321	114,822
158,589	-5,026	234,249	114,801
159,604	-5,195	234,011	114,539
160,619	-4,980	233,941	114,665
161,633	-4,830	233,739	114,675
162,648	-4,829	233,637	114,616
163,662	-4,939	233,466	114,435
164,677	-4,894	233,208	114,334
165,692	-4,949	233,120	114,236
166,706	-4,943	232,904	114,125
167,721	-4,863	232,826	114,140
168,735	-4,642	232,717	114,252
169,750	-4,765	232,649	114,111
170,764	-4,932	232,407	113,850
171,779	-5,100	232,381	113,695
172,794	-4,831	232,242	113,828
173,808	-5,032	231,802	113,444
174,823	-5,234	231,566	113,160
175,837	-5,526	231,362	112,821
176,852	-5,387	231,539	113,006
177,867	-5,068	231,274	113,117
178,881	-4,932	231,115	113,137
179,896	-4,787	231,045	113,206
180,910	-4,729	230,679	113,062
181,925	-4,661	230,614	113,073
182,940	-4,757	230,498	112,931
183,954	-4,790	230,296	112,796
184,969	-4,680	230,213	112,831
185,983	-4,686	230,016	112,720
186,998	-4,891	229,833	112,461
188,013	-4,719	229,845	112,591
189,027	-4,477	229,518	112,609
190,042	-4,766	229,532	112,381
191,056	-4,866	229,421	112,238
192,071	-4,792	229,172	112,164
193,086	-4,795	228,889	112,013
194,100	-4,844	228,935	111,988
195,115	-5,071	228,493	111,585
196,129	-5,607	228,426	111,127
197,144	-2,983	229,147	113,507
198,159	1,420	230,284	117,490
199,173	3,770	230,878	119,614
200,188	4,011	230,801	119,751
201,202	4,218	230,536	119,764
202,217	4,284	230,424	119,746
203,232	4,442	230,502	119,898
204,246	4,377	230,336	119,751
205,261	4,332	230,287	119,679
206,275	4,473	230,310	119,790
207,290	4,820	229,935	119,853
208,304	4,787	229,764	119,728
209,319	4,638	229,586	119,509
210,334	4,592	229,350	119,340
211,348	4,244	229,116	118,940
212,363	4,003	229,096	118,733
213,377	3,722	228,814	118,359
214,392	3,628	228,617	118,174
215,407	3,835	228,512	118,269
216,421	4,125	228,312	118,378
217,436	3,746	228,161	117,998
218,450	3,559	228,010	117,766
219,465	3,495	227,738	117,565
220,480	3,414	227,787	117,518
221,494	3,638	227,461	117,512
222,509	3,678	227,375	117,487
223,523	3,719	227,227	117,432
224,538	3,764	226,942	117,308
225,553	3,818	227,039	117,389
226,567	3,994	226,691	117,333
227,582	4,003	226,724	117,346
228,596	4,069	226,650	117,348
229,611	3,960	226,371	117,109
230,626	3,436	226,205	116,615
231,640	3,612	226,119	116,694
232,655	3,919	226,018	116,865
233,669	4,416	225,979	117,212
234,684	4,492	225,759	117,145
235,699	4,122	225,543	116,742
236,713	3,880	225,379	116,464
237,728	3,731	225,318	116,308
238,742	3,832	224,983	116,201
239,757	3,953	224,782	116,179
240,772	3,858	224,597	116,001
241,786	3,761	224,532	115,884
242,801	3,902	224,548	115,989
243,815	4,108	224,440	116,077
244,830	4,028	224,230	115,898
245,844	3,914	223,995	115,681
246,859	4,209	223,748	115,764
247,874	4,209	223,703	115,731
248,888	4,244	223,647	115,718
249,903	3,998	223,403	115,397
250,917	4,084	223,259	115,376
251,932	3,841	223,208	115,158
252,947	3,692	223,004	114,931
253,961	3,693	222,869	114,852
254,976	3,569	222,788	114,707
255,990	3,932	222,528	114,834
257,005	4,012	222,498	114,868
258,020	4,024	222,480	114,857
259,034	4,208	222,289	114,886
260,049	4,150	222,087	114,728
261,063	3,944	221,906	114,471
262,078	4,282	221,760	114,637
263,093	4,312	221,555	114,543
264,107	4,323	221,511	114,518
265,122	4,186	221,261	114,277
266,136	4,381	221,249	114,405
267,151	4,164	221,226	114,222
268,166	3,945	220,875	113,869
269,180	3,529	220,616	113,417
270,195	3,901	220,411	113,577
271,209	3,825	220,386	113,498
272,224	3,472	220,223	113,143
273,239	3,887	220,133	113,393
274,253	3,896	219,917	113,278
275,268	3,907	219,690	113,159
276,282	3,631	219,593	112,896
277,297	3,578	219,434	112,765
278,312	3,461	219,417	112,660
279,326	3,984	219,162	112,903
280,341	3,732	219,107	112,680
281,355	3,756	219,219	112,745
282,370	3,775	218,763	112,514
283,384	3,467	218,665	112,228
284,399	3,558	218,461	112,180
285,414	3,499	218,369	112,080
286,428	3,630	218,370	112,166
287,443	3,862	218,195	112,236
288,457	3,701	218,050	112,034
289,472	3,750	217,833	111,948
290,487	3,225	217,571	111,421
291,501	3,284	217,494	111,414
292,516	3,528	217,339	111,503
293,530	3,562	217,274	111,484
294,545	3,494	217,119	111,346
295,560	3,483	217,047	111,291
296,574	3,576	216,862	111,253
297,589	3,624	216,820	111,256
298,603	3,958	216,636	111,394
299,618	3,969	216,471	111,307
300,633	3,993	216,370	111,262
301,647	3,968	216,409	111,254
302,662	3,772	216,291	111,042
303,676	3,920	216,134	111,059
304,691	3,784	215,942	110,852
305,706	3,954	215,666	110,823
306,720	3,944	215,528	110,735
307,735	3,842	215,413	110,592
308,749	3,711	215,303	110,433
309,764	3,855	215,127	110,436
310,779	3,952	214,991	110,425
311,793	4,058	214,792	110,389
312,808	4,150	214,599	110,346
313,822	3,935	214,508	110,136
314,837	3,805	214,505	110,032
315,852	3,600	214,294	109,767
316,866	3,772	214,078	109,769
317,881	3,993	214,049	109,902
318,895	3,948	213,955	109,812
319,910	3,877	213,715	109,629
320,925	3,760	213,463	109,406
321,939	2,985	213,388	108,806
322,954	3,227	213,243	108,894
323,968	3,751	213,172	109,222
324,983	3,770	213,262	109,271
325,997	3,918	213,044	109,255
327,012	3,960	212,916	109,209
328,027	3,956	212,774	109,124
329,041	4,295	212,609	109,270
330,056	4,347	212,484	109,233
331,070	3,832	212,218	108,722
332,085	3,620	211,958	108,429
333,100	3,961	211,881	108,621
334,114	3,981	211,866	108,617
335,129	3,623	211,756	108,299
336,143	3,545	211,447	108,077
337,158	3,752	211,305	108,140
338,173	3,807	211,168	108,099
339,187	3,678	211,140	107,984
340,202	3,694	210,857	107,841
341,216	3,453	210,752	107,608
342,231	3,742	210,564	107,706
343,246	3,566	210,620	107,602
344,260	3,551	210,562	107,552
345,275	3,666	210,310	107,493
346,289	3,893	210,319	107,647
347,304	3,885	210,060	107,500
348,319	3,744	209,960	107,340
349,333	3,947	209,844	107,414
350,348	3,989	209,603	107,310
351,362	4,067	209,599	107,352
352,377	3,853	209,452	107,118
353,392	3,626	209,442	106,946
354,406	3,612	209,325	106,866
355,421	193,223	1346,084	1430,639
356,435	154,161	1484,683	1430,733
