DTS Sentinel unit serial number:	SN410029Multiplexer serial number:	ORYXHardware model number:	OX2-SRSoftware version number:	ORYX F/W v4,00 Oryx Data Collector v3.7.2.0data status	okinstallation	B6 Nyhavnadifferential loss correction	single-endedforward channel	channel 2reverse channel	N/Adate	2023/12/08time	22:45:08forward acquisition time	300,00reverse acquisition time	0,00gamma	499,1914k internal	0,3158k external	0,3158temperature offset calibration	1,0000default loss term (dB/km)	0,3820temperature slope calibration	1,0000multiplexer offset coefficient	1,0000multiplexer slope coefficient	1,0000fibre end	0,00T internal ref (°C)	15,38T ext. ref 1 (°C)	-1,02T ext. ref 2 (°C)	-1,01length (m)	temperature (°C)	Stokes	anti-Stokes-744,400	-121,035	0,176	0,021
-743,385	-58,401	-0,463	-0,147
-742,371	-57,801	0,117	0,037
-741,356	-31,056	-0,233	0,097
-740,342	26,162	0,105	-0,064
-739,327	-9,964	-0,224	-0,109
-738,312	-181,551	-0,070	0,001
-737,298	-179,205	-0,433	0,007
-736,283	800,000	0,030	0,071
-735,269	74,805	-0,279	0,216
-734,254	-102,842	0,106	-0,018
-733,239	-58,273	-0,480	-0,153
-732,225	-121,264	0,045	0,006
-731,210	476,981	0,025	-0,041
-730,196	-34,091	0,068	-0,027
-729,181	-200,000	0,013	-0,137
-728,167	71,461	-0,065	-0,050
-727,152	-23,566	0,074	-0,032
-726,137	800,000	-0,054	-0,134
-725,123	800,000	-0,046	-0,125
-724,108	-181,332	-0,069	0,001
-723,094	53,501	-0,083	-0,059
-722,079	-200,000	-0,042	-0,140
-721,064	-200,000	-0,017	0,156
-720,050	-139,639	-0,155	0,012
-719,035	-30,246	-0,142	0,059
-718,021	37,281	-0,073	0,047
-717,006	183,335	-0,167	-0,182
-715,991	800,000	-0,070	-0,185
-714,977	366,404	-0,024	-0,036
-713,962	-200,000	0,004	-0,140
-712,948	100,636	-0,148	-0,126
-711,933	-200,000	-0,006	-0,039
-710,918	418,794	0,071	-0,112
-709,904	114,989	-0,057	0,052
-708,889	800,000	0,033	-0,072
-707,875	226,241	-0,096	-0,114
-706,860	-5,920	-0,051	-0,026
-705,845	524,737	0,063	-0,109
-704,831	253,573	0,070	-0,089
-703,816	-200,000	0,124	-0,000
-702,802	119,378	-0,041	-0,038
-701,787	-89,224	-0,111	0,024
-700,772	-200,000	-0,006	-0,084
-699,758	800,000	0,051	0,119
-698,743	-75,582	-0,084	0,022
-697,729	800,000	0,014	0,042
-696,714	4,606	0,090	-0,048
-695,699	-20,877	0,038	-0,017
-694,685	112,774	-0,028	-0,025
-693,670	46,300	-0,067	-0,046
-692,656	-68,745	0,093	0,026
-691,641	104,174	-0,060	0,052
-690,627	-150,963	-0,015	-0,001
-689,612	194,015	0,043	-0,048
-688,597	120,324	0,107	-0,097
-687,583	405,155	-0,035	-0,055
-686,568	-37,905	-0,106	-0,041
-685,554	800,000	0,089	-0,195
-684,539	800,000	0,017	-0,037
-683,524	800,000	0,030	0,094
-682,510	285,729	0,060	-0,080
-681,495	-28,997	-0,015	0,006
-680,481	-26,619	0,094	0,040
-679,466	-134,518	-0,134	-0,012
-678,451	12,938	0,016	-0,009
-677,437	25,006	0,023	-0,014
-676,422	362,750	0,018	-0,026
-675,408	-15,343	-0,108	-0,050
-674,393	-146,097	-0,091	-0,006
-673,378	-200,000	0,031	-0,114
-672,364	800,000	0,025	0,072
-671,349	377,863	-0,024	-0,036
-670,335	800,000	0,020	-0,059
-669,320	-173,697	0,161	0,003
-668,305	-72,967	-0,090	-0,024
-667,291	351,329	-0,017	-0,024
-666,276	-23,173	-0,040	0,018
-665,262	-144,550	-0,119	-0,008
-664,247	487,649	-0,025	0,043
-663,232	-200,000	0,025	0,099
-662,218	746,442	-0,069	0,137
-661,203	800,000	0,005	0,017
-660,189	7,305	-0,123	0,067
-659,174	-188,591	-0,060	-0,001
-658,159	-126,708	-0,054	0,006
-657,145	-9,052	-0,054	0,027
-656,130	-154,651	-0,098	-0,005
-655,116	44,787	0,117	0,079
-654,101	-134,166	-0,134	-0,012
-653,086	8,636	-0,084	-0,047
-652,072	-200,000	-0,015	0,070
-651,057	373,339	-0,021	-0,031
-650,043	140,285	0,048	-0,047
-649,028	-200,000	0,010	-0,139
-648,014	-200,000	0,001	-0,020
-646,999	-89,861	0,053	0,011
-645,984	-112,148	0,074	0,011
-644,970	45,906	-0,116	-0,079
-643,955	117,362	-0,110	-0,100
-642,941	800,000	-0,016	0,050
-641,926	-200,000	0,015	-0,051
-640,911	-200,000	-0,001	-0,008
-639,897	-92,009	-0,165	-0,034
-638,882	-200,000	0,020	0,138
-637,868	-155,694	-0,011	-0,001
-636,853	-200,000	0,013	-0,077
-635,838	-1,849	-0,029	-0,015
-634,824	-200,000	-0,007	0,149
-633,809	-200,000	-0,001	0,093
-632,795	463,397	-0,071	0,117
-631,780	415,274	-0,012	0,019
-630,765	-37,051	0,121	-0,047
-629,751	70,703	-0,119	-0,090
-628,736	80,639	-0,040	-0,032
-627,722	-75,815	0,121	-0,031
-626,707	-200,000	0,016	-0,070
-625,692	800,000	-0,012	0,024
-624,678	-2,741	-0,018	-0,009
-623,663	402,496	0,013	-0,021
-622,649	-200,000	-0,001	0,053
-621,634	-74,769	-0,151	0,040
-620,619	800,000	0,050	-0,107
-619,605	-200,000	-0,008	-0,188
-618,590	800,000	0,028	0,092
-617,576	-109,663	-0,104	-0,016
-616,561	-89,578	-0,014	-0,003
-615,546	-38,032	-0,127	0,049
-614,532	-13,401	-0,197	0,093
-613,517	-200,000	0,015	0,068
-612,503	-1,965	-0,080	-0,041
-611,488	82,667	-0,068	0,054
-610,474	90,389	0,098	0,080
-609,459	43,311	0,142	0,095
-608,444	-196,224	-0,089	0,000
-607,430	-38,591	-0,020	0,008
-606,415	-36,971	-0,075	-0,029
-605,401	43,906	-0,082	-0,055
-604,386	800,000	0,076	0,167
-603,371	-200,000	0,019	0,082
-602,357	64,733	0,081	0,060
-601,342	-200,000	0,024	-0,097
-600,328	-51,738	-0,090	-0,030
-599,313	-103,879	0,092	0,016
-598,298	72,415	-0,077	-0,059
-597,284	-101,806	0,071	-0,012
-596,269	-200,000	-0,007	-0,076
-595,255	-7,718	0,016	0,008
-594,240	800,000	0,026	0,070
-593,225	-200,000	-0,004	-0,086
-592,211	73,559	-0,033	-0,025
-591,196	311,727	0,094	0,130
-590,182	-100,694	0,026	-0,005
-589,167	338,511	0,058	0,083
-588,152	-200,000	0,009	-0,186
-587,138	21,564	0,081	-0,048
-586,123	249,876	-0,068	-0,085
-585,109	317,521	-0,084	-0,117
-584,094	19,461	0,100	0,059
-583,079	-126,500	0,099	0,011
-582,065	-200,000	-0,010	0,081
-581,050	-102,897	0,024	-0,004
-580,036	169,460	-0,078	0,081
-579,021	210,433	-0,051	0,059
-578,006	-200,000	-0,016	-0,122
-576,992	-115,583	-0,160	0,022
-575,977	-73,656	-0,141	-0,037
-574,963	-152,700	0,106	0,005
-573,948	239,746	0,054	0,066
-572,934	-64,448	-0,157	0,046
-571,919	351,869	-0,055	0,080
-570,904	393,611	-0,078	-0,120
-569,890	-121,743	0,076	0,009
-568,875	34,006	0,059	-0,037
-567,861	364,642	0,085	0,125
-566,846	252,416	-0,033	-0,042
-565,831	122,437	0,181	-0,165
-564,817	-23,224	-0,076	-0,033
-563,802	800,000	0,043	-0,127
-562,788	218,122	0,099	-0,116
-561,773	449,153	-0,059	-0,095
-560,758	428,737	0,061	-0,096
-559,744	-37,260	0,188	0,073
-558,729	477,119	-0,034	0,057
-557,715	-29,968	-0,055	0,023
-556,700	-200,000	-0,019	-0,091
-555,685	-11,778	-0,078	0,037
-554,671	800,000	-0,024	-0,051
-553,656	503,147	0,097	0,165
-552,642	-200,000	0,012	0,110
-551,627	-200,000	-0,046	0,169
-550,612	134,954	0,025	-0,024
-549,598	-110,799	0,108	-0,016
-548,583	800,000	-0,034	-0,073
-547,569	291,203	-0,016	-0,021
-546,554	-12,431	0,178	-0,085
-545,539	219,800	-0,052	0,061
-544,525	193,394	0,049	0,054
-543,510	-63,840	0,097	0,029
-542,496	386,844	-0,110	-0,167
-541,481	-83,693	-0,110	-0,025
-540,466	78,056	0,015	-0,012
-539,452	-82,594	0,076	0,018
-538,437	-75,939	0,072	0,019
-537,423	-117,217	-0,093	0,012
-536,408	800,000	-0,087	0,199
-535,393	62,027	-0,023	-0,017
-534,379	175,484	0,079	0,084
-533,364	-184,138	0,028	0,000
-532,350	-93,261	0,129	0,026
-531,335	466,154	-0,118	0,194
-530,321	622,844	0,024	0,044
-529,306	800,000	-0,056	-0,166
-528,291	692,295	-0,039	0,075
-527,277	135,321	-0,051	-0,049
-526,262	664,009	-0,071	-0,135
-525,248	311,588	0,110	-0,151
-524,233	800,000	0,018	-0,056
-523,218	-21,015	-0,040	0,018
-522,204	800,000	-0,013	0,036
-521,189	-116,239	-0,039	-0,005
-520,175	-127,086	0,068	-0,007
-519,160	-200,000	-0,006	-0,061
-518,145	124,626	0,088	-0,081
-517,131	-78,071	0,052	0,013
-516,116	-89,271	-0,137	0,029
-515,102	25,240	-0,114	-0,069
-514,087	355,921	-0,088	0,128
-513,072	17,244	0,025	0,014
-512,058	68,871	-0,074	0,055
-511,043	-200,000	-0,002	-0,021
-510,029	-83,034	0,066	-0,015
-509,014	-84,812	0,140	0,032
-507,999	248,127	0,041	-0,050
-506,985	-73,960	0,098	-0,026
-505,970	-200,000	0,014	-0,058
-504,956	269,095	-0,009	-0,012
-503,941	-6,496	0,012	0,006
-502,926	338,473	0,065	0,093
-501,912	800,000	0,038	0,081
-500,897	-12,801	-0,122	0,058
-499,883	2,442	0,044	0,023
-498,868	-109,979	0,047	-0,007
-497,853	-200,000	-0,020	-0,135
-496,839	90,047	-0,105	0,086
-495,824	-87,624	0,077	0,017
-494,810	800,000	0,011	-0,034
-493,795	273,372	0,058	0,075
-492,781	612,444	-0,062	-0,114
-491,766	-19,082	-0,147	0,067
-490,751	20,328	-0,110	-0,065
-489,737	-45,543	-0,042	0,015
-488,722	142,851	0,021	0,021
-487,708	-135,371	0,084	-0,007
-486,693	-148,461	-0,052	0,003
-485,678	-144,281	-0,029	-0,002
-484,664	-98,587	0,069	-0,013
-483,649	-21,060	0,091	0,040
-482,635	119,238	-0,045	-0,040
-481,620	10,884	-0,117	-0,065
-480,605	13,031	0,146	-0,082
-479,591	17,209	0,058	0,033
-478,576	95,471	-0,047	0,039
-477,562	80,396	-0,122	-0,096
-476,547	118,675	-0,156	-0,141
-475,532	647,602	-0,044	0,083
-474,518	431,347	-0,010	0,017
-473,503	445,640	0,023	0,037
-472,489	-200,000	0,018	0,110
-471,474	-200,000	0,026	0,189
-470,459	130,120	-0,054	-0,051
-469,445	540,192	0,021	0,036
-468,430	367,601	0,011	0,016
-467,416	-3,714	0,143	0,072
-466,401	-118,580	0,031	0,004
-465,386	-195,494	0,037	-0,000
-464,372	-147,421	0,050	-0,003
-463,357	46,494	0,053	-0,036
-462,343	-15,590	-0,071	0,033
-461,328	-9,559	0,072	-0,035
-460,313	-17,324	-0,046	-0,021
-459,299	-200,000	-0,004	0,042
-458,284	141,472	0,106	0,103
-457,270	-200,000	-0,003	0,027
-456,255	-170,155	0,094	0,002
-455,241	247,495	-0,067	0,082
-454,226	-200,000	-0,004	0,039
-453,211	-111,114	0,066	-0,010
-452,197	29,414	0,043	-0,027
-451,182	-200,000	-0,017	0,086
-450,168	-131,755	-0,110	0,010
-449,153	800,000	-0,036	-0,080
-448,138	800,000	-0,029	0,088
-447,124	74,385	0,120	-0,092
-446,109	-37,648	0,042	0,016
-445,095	-44,777	0,166	0,060
-444,080	-200,000	0,008	0,036
-443,065	-22,914	-0,116	0,051
-442,051	410,443	0,011	0,018
-441,036	-200,000	-0,015	-0,131
-440,022	-34,673	0,095	-0,038
-439,007	-6,322	-0,038	0,019
-437,992	-140,687	0,233	-0,017
-436,978	337,982	-0,059	0,084
-435,963	-200,000	-0,013	-0,085
-434,949	-200,000	0,006	0,084
-433,934	-41,337	-0,040	-0,015
-432,919	-92,743	-0,034	0,007
-431,905	343,129	0,063	-0,090
-430,890	-200,000	-0,002	0,034
-429,876	36,724	0,103	0,066
-428,861	-200,000	-0,011	0,066
-427,846	527,385	-0,001	-0,002
-426,832	83,073	0,116	-0,092
-425,817	-200,000	-0,005	-0,088
-424,803	-200,000	0,024	-0,110
-423,788	-45,476	-0,110	-0,039
-422,773	140,859	-0,016	0,015
-421,759	800,000	-0,056	0,114
-420,744	-103,537	-0,260	0,044
-419,730	-200,000	0,047	-0,163
-418,715	800,000	0,031	-0,067
-417,701	-19,566	-0,046	-0,021
-416,686	798,232	0,027	-0,055
-415,671	-200,000	0,010	0,047
-414,657	187,459	-0,049	0,053
-413,642	-200,000	-0,001	-0,156
-412,628	66,362	-0,121	-0,089
-411,613	800,000	0,047	0,144
-410,598	-200,000	0,003	-0,066
-409,584	477,123	-0,058	-0,095
-408,569	800,000	0,024	0,066
-407,555	800,000	0,070	-0,143
-406,540	167,503	-0,026	0,027
-405,525	800,000	-0,064	-0,152
-404,511	800,000	-0,044	-0,129
-403,496	800,000	0,028	-0,079
-402,482	-112,123	0,053	-0,008
-401,467	-66,852	0,073	-0,021
-400,452	800,000	0,068	0,163
-399,438	-59,145	-0,095	0,029
-398,423	361,796	-0,062	-0,091
-397,409	800,000	0,015	0,039
-396,394	-200,000	-0,027	0,135
-395,379	-200,000	0,013	0,063
-394,365	249,479	0,101	0,125
-393,350	142,727	-0,052	0,051
-392,336	19,152	-0,105	-0,061
-391,321	-200,000	-0,031	-0,185
-390,306	-200,000	0,002	-0,102
-389,292	-85,248	-0,028	0,006
-388,277	142,019	-0,121	0,116
-387,263	-48,674	-0,081	-0,028
-386,248	-92,846	0,147	-0,030
-385,233	-110,022	0,046	-0,007
-384,219	800,000	-0,083	-0,241
-383,204	-121,721	-0,075	-0,009
-382,190	800,000	0,040	-0,114
-381,175	433,829	0,050	-0,080
-380,160	215,755	0,031	-0,036
-379,146	-75,905	0,166	0,042
-378,131	65,884	-0,058	-0,043
-377,117	-61,968	-0,147	-0,044
-376,102	276,893	0,043	-0,055
-375,088	-200,000	-0,008	0,053
-374,073	132,538	-0,052	-0,048
-373,058	800,000	0,026	0,075
-372,044	-111,478	0,122	-0,018
-371,029	65,032	0,124	0,091
-370,015	187,956	-0,072	-0,079
-369,000	-200,000	0,007	-0,045
-367,985	-200,000	-0,018	0,067
-366,971	-25,963	-0,038	0,016
-365,956	34,791	0,076	0,048
-364,942	-65,223	-0,074	0,022
-363,927	736,588	0,033	0,064
-362,912	-26,523	-0,073	0,031
-361,898	411,042	-0,057	-0,088
-360,883	739,705	-0,059	-0,115
-359,869	238,670	-0,035	-0,042
-358,854	-113,704	0,052	-0,007
-357,839	487,699	0,108	0,180
-356,825	34,626	0,134	-0,085
-355,810	0,304	-0,084	-0,043
-354,796	-6,332	0,068	-0,034
-353,781	186,666	0,027	0,030
-352,766	-200,000	-0,084	0,000
-351,752	800,000	-0,013	-0,040
-350,737	-27,413	0,125	-0,052
-349,723	-29,432	-0,096	0,040
-348,708	-49,445	0,146	-0,050
-347,693	800,000	-0,040	-0,083
-346,679	-118,616	-0,181	0,023
-345,664	596,204	0,042	0,076
-344,650	503,228	0,036	0,060
-343,635	-33,482	0,126	0,050
-342,620	62,215	0,084	0,061
-341,606	-200,000	-0,015	-0,064
-340,591	-116,036	0,084	-0,011
-339,577	169,134	-0,070	0,072
-338,562	276,933	0,081	-0,104
-337,548	288,569	0,031	0,040
-336,533	800,000	-0,041	0,088
-335,518	32,055	0,146	0,091
-334,504	298,379	0,058	0,078
-333,489	131,194	0,056	-0,053
-332,475	-77,344	0,042	0,011
-331,460	438,111	0,050	0,079
-330,445	213,935	-0,015	-0,017
-329,431	-116,004	-0,106	0,014
-328,416	-135,807	-0,091	-0,008
-327,402	15,971	0,088	0,050
-326,387	800,000	-0,009	0,019
-325,372	-174,530	0,095	-0,002
-324,358	-98,998	-0,197	-0,036
-323,343	114,728	-0,197	-0,175
-322,329	-200,000	0,002	-0,010
-321,314	800,000	-0,012	0,027
-320,299	544,378	0,068	0,118
-319,285	43,338	0,048	-0,032
-318,270	800,000	-0,030	-0,086
-317,256	-3,788	-0,083	0,042
-316,241	5,958	0,034	0,018
-315,226	194,835	0,058	-0,064
-314,212	-127,333	0,166	0,017
-313,197	-200,000	-0,003	0,034
-312,183	-121,013	-0,102	-0,012
-311,168	66,661	0,077	0,056
-310,153	-82,856	-0,109	0,025
-309,139	48,725	-0,088	0,059
-308,124	-200,000	-0,001	0,021
-307,110	334,873	0,033	0,046
-306,095	739,139	-0,048	0,093
-305,080	290,343	0,056	0,074
-304,066	107,488	0,126	0,109
-303,051	-8,457	-0,075	0,036
-302,037	-33,440	-0,061	-0,024
-301,022	69,208	-0,058	-0,043
-300,008	-200,000	0,001	-0,071
-298,993	-53,032	0,028	0,009
-297,978	707,805	-0,073	0,141
-296,964	242,828	0,057	-0,069
-295,949	8,121	0,066	0,036
-294,935	-200,000	0,005	-0,168
-293,920	373,306	0,028	0,041
-292,905	660,754	0,079	0,148
-291,891	-200,000	-0,006	0,065
-290,876	-69,643	0,086	0,024
-289,862	135,443	0,021	-0,019
-288,847	-106,184	-0,046	-0,007
-287,832	312,096	-0,082	-0,112
-286,818	16,107	-0,061	0,034
-285,803	208,629	0,034	-0,038
-284,789	-186,823	-0,002	0,000
-283,774	-200,000	0,012	-0,116
-282,759	226,852	0,068	0,081
-281,745	184,676	-0,055	0,059
-280,730	489,558	-0,013	0,022
-279,716	-104,891	0,094	-0,016
-278,701	800,000	-0,047	0,095
-277,686	-200,000	0,002	0,065
-276,672	-135,226	0,117	-0,010
-275,657	50,839	-0,054	0,037
-274,643	-200,000	0,012	-0,093
-273,628	800,000	0,085	-0,255
-272,613	800,000	0,028	-0,080
-271,599	374,522	0,064	0,094
-270,584	15,829	0,105	-0,060
-269,570	65,716	-0,067	-0,049
-268,555	73,423	0,117	-0,089
-267,540	-45,705	-0,035	-0,012
-266,526	747,234	-0,078	-0,152
-265,511	-20,801	-0,043	0,019
-264,497	250,067	-0,068	-0,084
-263,482	-200,000	0,027	0,132
-262,467	-200,000	-0,018	0,100
-261,453	144,119	0,056	-0,054
-260,438	800,000	0,021	-0,047
-259,424	147,049	0,028	0,027
-258,409	-146,351	-0,052	0,003
-257,395	225,125	0,011	-0,013
-256,380	-107,223	-0,172	-0,027
-255,365	800,000	-0,033	0,087
-254,351	800,000	0,022	-0,054
-253,336	-37,623	-0,132	-0,051
-252,322	642,678	0,044	0,081
-251,307	800,000	0,038	-0,087
-250,292	320,367	0,024	0,033
-249,278	-109,331	-0,125	0,019
-248,263	800,000	-0,050	0,129
-247,249	708,460	0,037	-0,072
-246,234	74,625	-0,027	-0,021
-245,219	289,360	0,045	-0,059
-244,205	284,936	0,105	-0,137
-243,190	66,934	-0,070	-0,052
-242,176	-200,000	-0,021	0,078
-241,161	307,500	0,022	0,030
-240,146	-200,000	-0,019	0,083
-239,132	29,851	-0,056	-0,034
-238,117	-200,000	-0,001	-0,135
-237,103	-200,000	0,018	-0,096
-236,088	117,891	0,055	0,049
-235,073	41,798	-0,057	0,037
-234,059	502,201	-0,038	0,064
-233,044	491,791	0,035	0,058
-232,030	-172,388	-0,119	-0,003
-231,015	38,887	-0,089	-0,058
-230,000	-200,000	0,008	-0,098
-228,986	-200,000	-0,009	-0,128
-227,971	-26,303	0,086	-0,036
-226,957	800,000	0,009	-0,023
-225,942	-17,166	0,062	-0,028
-224,927	-200,000	0,004	-0,166
-223,913	-200,000	0,019	-0,067
-222,898	-200,000	-0,008	-0,069
-221,884	800,000	0,057	0,127
-220,869	800,000	-0,019	0,056
-219,855	800,000	0,032	-0,084
-218,840	-200,000	0,038	0,129
-217,825	137,613	0,047	-0,044
-216,811	170,766	0,049	-0,050
-215,796	-107,822	-0,099	0,015
-214,782	-4,837	-0,126	0,062
-213,767	-194,630	-0,074	-0,000
-212,752	-200,000	0,039	0,132
-211,738	-200,000	0,013	-0,120
-210,723	-112,366	-0,057	0,008
-209,709	-200,000	-0,021	-0,108
-208,694	800,000	0,022	-0,049
-207,679	-94,739	-0,122	0,024
-206,665	-200,000	0,013	-0,096
-205,650	-159,563	-0,121	0,005
-204,636	176,389	0,042	0,044
-203,621	-200,000	0,022	0,145
-202,606	800,000	0,023	0,061
-201,592	42,807	0,103	-0,068
-200,577	-130,695	-0,219	0,021
-199,563	230,330	0,050	0,059
-198,548	-200,000	-0,009	0,104
-197,533	13,199	0,184	-0,102
-196,519	-200,000	-0,012	-0,055
-195,504	-95,343	0,082	0,016
-194,490	-200,000	0,032	-0,104
-193,475	234,620	-0,039	0,046
-192,460	711,159	0,035	0,068
-191,446	-16,831	-0,042	-0,019
-190,431	-200,000	0,007	-0,027
-189,417	260,399	-0,094	0,117
-188,402	-33,578	-0,086	0,034
-187,387	342,104	-0,069	0,098
-186,373	42,967	-0,066	-0,043
-185,358	-33,069	0,030	0,012
-184,344	-200,000	-0,003	-0,065
-183,329	248,720	-0,020	-0,024
-182,315	-32,282	-0,061	-0,024
-181,300	154,206	0,111	0,110
-180,285	-200,000	0,010	0,076
-179,271	337,914	0,035	-0,050
-178,256	18,457	-0,041	-0,024
-177,242	-171,355	0,132	-0,003
-176,227	-118,975	0,125	-0,016
-175,212	800,000	-0,048	-0,125
-174,198	519,006	0,072	0,122
-173,183	-65,074	0,046	-0,013
-172,169	-200,000	-0,007	-0,038
-171,154	-200,000	0,020	-0,100
-170,139	112,560	-0,046	0,040
-169,125	-156,957	0,058	0,003
-168,110	800,000	-0,013	-0,028
-167,096	-200,000	0,005	0,081
-166,081	-200,000	0,010	0,116
-165,066	-200,000	0,019	0,063
-164,052	-200,000	0,005	0,092
-163,037	374,388	-0,154	0,226
-162,023	579,629	0,084	0,148
-161,008	461,985	-0,020	0,032
-159,993	800,000	-0,051	0,114
-158,979	-68,233	-0,154	0,043
-157,964	-96,769	0,208	0,039
-156,950	-9,532	-0,057	-0,027
-155,935	-153,724	0,106	-0,005
-154,920	102,980	-0,058	0,049
-153,906	424,901	0,090	0,141
-152,891	308,010	-0,040	0,054
-151,877	-60,943	0,069	-0,021
-150,862	43,050	0,051	-0,033
-149,847	75,602	0,026	0,020
-148,833	-65,027	0,062	-0,018
-147,818	-0,772	0,111	-0,056
-146,804	800,000	0,024	-0,053
-145,789	39,542	-0,168	-0,108
-144,775	-15,776	0,188	0,086
-143,760	17,883	-0,022	-0,013
-142,745	-11,750	-0,012	0,006
-141,731	397,368	0,018	-0,027
-140,716	285,901	-0,028	-0,036
-139,702	77,183	0,089	-0,068
-138,687	358,225	-0,049	0,071
-137,672	-200,000	0,004	-0,084
-136,658	-200,000	-0,011	-0,065
-135,643	-132,361	-0,088	-0,008
-134,629	-200,000	0,024	0,095
-133,614	800,000	0,022	-0,063
-132,599	800,000	-0,022	0,044
-131,585	-200,000	-0,002	0,032
-130,570	622,417	-0,036	0,066
-129,556	-7,223	0,087	-0,042
-128,541	61,747	-0,083	-0,059
-127,526	240,383	0,064	0,077
-126,512	40,688	0,064	0,041
-125,497	-114,974	0,069	0,009
-124,483	-200,000	0,019	0,062
-123,468	-200,000	-0,002	-0,107
-122,453	86,003	0,086	-0,068
-121,439	-92,074	-0,044	-0,009
-120,424	-200,000	0,018	-0,096
-119,410	326,200	-0,030	-0,042
-118,395	175,661	0,026	-0,027
-117,380	-182,073	0,139	0,002
-116,366	398,222	0,057	0,085
-115,351	109,915	0,050	-0,043
-114,337	-200,000	0,028	-0,105
-113,322	-31,443	-0,036	-0,014
-112,307	-41,160	0,088	-0,033
-111,293	-158,792	0,029	-0,001
-110,278	98,621	0,071	0,059
-109,264	-19,708	-0,034	-0,015
-108,249	-15,510	-0,151	-0,069
-107,234	800,000	-0,047	-0,106
-106,220	-27,236	-0,128	-0,053
-105,205	322,042	0,036	0,049
-104,191	167,076	0,105	0,107
-103,176	33,022	0,094	0,059
-102,162	-200,000	-0,001	0,019
-101,147	-200,000	-0,028	0,120
-100,132	26,771	-0,189	-0,113
-99,118	-66,014	0,054	-0,015
-98,103	-83,717	0,032	0,007
-97,089	800,000	-0,048	0,098
-96,074	36,167	-0,083	-0,052
-95,059	-42,434	0,085	-0,031
-94,045	-200,000	-0,022	-0,160
-93,030	-22,813	-0,076	-0,033
-92,016	34,518	-0,048	0,030
-91,001	-0,299	0,082	-0,042
-89,986	326,694	0,011	0,015
-88,972	356,627	-0,022	0,032
-87,957	-200,000	-0,004	-0,074
-86,943	-92,247	-0,052	0,010
-85,928	800,000	-0,039	-0,113
-84,913	20,792	0,083	-0,048
-83,899	-200,000	-0,027	0,186
-82,884	-118,659	0,189	-0,024
-81,870	45,981	0,101	-0,067
-80,855	-189,905	0,109	-0,001
-79,840	139,883	-0,067	-0,064
-78,826	414,538	-0,066	-0,101
-77,811	240,065	0,015	0,018
-76,797	-200,000	-0,004	0,059
-75,782	800,000	0,035	0,087
-74,767	-86,685	0,109	0,024
-73,753	130,140	0,130	0,120
-72,738	99,605	-0,078	0,065
-71,724	739,798	0,035	0,068
-70,709	-200,000	0,018	-0,074
-69,694	312,467	0,080	-0,108
-68,680	180,488	0,071	0,075
-67,665	-25,286	-0,115	0,049
-66,651	267,114	-0,029	-0,037
-65,636	800,000	-0,074	-0,169
-64,622	-200,000	-0,009	-0,108
-63,607	800,000	-0,082	-0,207
-62,592	800,000	0,017	-0,035
-61,578	127,498	0,131	0,119
-60,563	-84,220	0,051	-0,012
-59,549	-200,000	-0,009	0,124
-58,534	14,581	-1,975	-1,104
-57,519	-200,000	-0,094	-0,810
-56,505	-200,000	-1,315	-5,171
-55,490	35,243	0,822	0,516
-54,476	800,000	5,352	12,005
-53,461	-200,000	17,776	289,450
-52,446	800,000	725,053	2233,832
-51,432	540,184	1638,014	2809,185
-50,417	110,531	1628,458	1404,533
-49,403	74,068	1283,364	965,493
-48,388	31,949	1026,346	633,113
-47,373	19,918	988,418	570,085
-46,359	18,320	976,445	557,924
-45,344	15,722	972,523	547,167
-44,330	15,906	971,139	546,966
-43,315	15,428	969,333	544,368
-42,300	15,400	968,243	543,643
-41,286	15,393	967,232	543,032
-40,271	15,358	966,148	542,289
-39,257	15,425	965,483	542,111
-38,242	15,412	964,443	541,462
-37,227	15,451	963,734	541,170
-36,213	15,419	962,871	540,562
-35,198	15,343	962,049	539,831
-34,184	15,405	961,432	539,664
-33,169	15,428	960,231	539,043
-32,154	15,472	959,128	538,545
-31,140	15,466	958,508	538,155
-30,125	15,439	957,705	537,597
-29,111	15,398	956,940	537,013
-28,096	15,402	956,438	536,724
-27,082	15,396	955,782	536,316
-26,067	15,455	954,943	536,013
-25,052	15,444	953,927	535,387
-24,038	15,441	953,268	534,985
-23,023	15,429	952,763	534,643
-22,009	15,411	952,084	534,184
-20,994	15,415	951,607	533,906
-19,979	15,409	951,190	533,630
-18,965	15,390	950,177	532,980
-17,950	15,384	949,839	532,753
-16,936	15,349	949,179	532,250
-15,921	15,339	948,371	531,742
-14,906	15,342	947,589	531,291
-13,892	15,298	947,055	530,832
-12,877	15,302	946,572	530,552
-11,863	15,259	945,821	529,973
-10,848	15,264	945,215	529,630
-9,833	15,352	944,758	529,631
-8,819	15,372	944,169	529,345
-7,804	15,326	943,465	528,783
-6,790	15,228	943,007	528,192
-5,775	15,348	942,213	528,108
-4,760	15,375	941,604	527,832
-3,746	15,299	941,175	527,329
-2,731	15,140	940,482	526,417
-1,717	15,139	939,749	525,982
-0,702	15,123	939,167	525,587
0,313	15,010	938,418	525,603
1,327	18,405	936,387	535,105
2,342	27,587	790,375	475,864
3,356	24,329	444,519	262,787
4,371	-5,336	294,744	144,676
5,386	-9,375	276,454	131,868
6,400	-10,515	270,749	128,079
7,415	-10,883	268,467	126,650
8,429	-10,725	267,067	126,123
9,444	-10,880	266,313	125,614
10,459	-10,850	265,659	125,321
11,473	-10,984	265,139	124,943
12,488	-10,916	264,370	124,632
13,502	-11,173	263,818	124,128
14,517	-11,101	263,407	123,988
15,531	-11,068	263,147	123,885
16,546	-10,902	262,530	123,733
17,561	-11,018	262,340	123,528
18,575	-10,997	262,006	123,378
19,590	-10,953	261,565	123,199
20,604	-10,981	261,338	123,056
21,619	-11,201	260,941	122,662
22,634	-10,955	260,615	122,717
23,648	-11,186	260,304	122,354
24,663	-11,019	260,127	122,409
25,677	-11,188	259,938	122,159
26,692	-10,997	259,468	122,096
27,707	-11,009	259,300	121,995
28,721	-11,221	259,163	121,732
29,736	-11,108	258,730	121,618
30,750	-11,190	258,507	121,430
31,765	-11,281	258,308	121,245
32,780	-11,021	258,065	121,349
33,794	-11,180	257,848	121,097
34,809	-11,247	257,543	120,883
35,823	-10,986	257,257	120,968
36,838	-11,183	256,992	120,660
37,853	-11,234	256,808	120,518
38,867	-11,265	256,567	120,367
39,882	-11,228	256,251	120,240
40,896	-11,179	255,994	120,152
41,911	-11,319	255,779	119,918
42,926	-11,260	255,662	119,905
43,940	-11,332	255,455	119,733
44,955	-11,254	255,234	119,687
45,969	-11,230	254,940	119,560
46,984	-11,548	254,734	119,176
47,999	-11,774	254,411	118,818
49,013	-11,896	254,231	118,618
50,028	-12,005	253,945	118,378
51,042	-12,160	253,657	118,100
52,057	-12,185	253,348	117,924
53,071	-12,014	253,120	117,955
54,086	-12,216	252,983	117,706
55,101	-11,876	253,023	118,008
56,115	-11,416	252,687	118,237
57,130	-11,257	252,720	118,379
58,144	-10,822	252,437	118,610
59,159	-10,869	252,307	118,498
60,174	-10,950	252,166	118,351
61,188	-10,883	251,852	118,251
62,203	-11,039	251,677	118,024
63,217	-11,276	251,476	117,716
64,232	-11,092	251,331	117,796
65,247	-11,020	250,919	117,654
66,261	-11,184	250,684	117,393
67,276	-11,379	250,423	117,094
68,290	-11,595	250,118	116,757
69,305	-11,607	249,989	116,676
70,320	-11,560	249,770	116,604
71,334	-11,410	249,664	116,671
72,349	-11,106	249,536	116,859
73,363	-10,935	249,315	116,890
74,378	-11,002	249,249	116,792
75,393	-11,105	248,934	116,547
76,407	-11,318	248,788	116,288
77,422	-11,146	248,351	116,218
78,436	-11,047	248,301	116,269
79,451	-11,210	248,240	116,092
80,466	-11,341	247,853	115,790
81,480	-11,284	247,502	115,664
82,495	-11,482	247,336	115,409
83,509	-11,421	247,312	115,439
84,524	-11,432	246,973	115,262
85,539	-11,653	246,706	114,941
86,553	-11,818	246,615	114,750
87,568	-11,382	246,299	114,958
88,582	-11,509	246,244	114,816
89,597	-11,479	246,031	114,731
90,611	-11,218	245,762	114,814
91,626	-11,036	245,742	114,946
92,641	-11,092	245,493	114,773
93,655	-11,253	245,320	114,547
94,670	-11,375	245,172	114,366
95,684	-11,364	244,964	114,268
96,699	-11,270	244,674	114,201
97,714	-11,388	244,526	114,024
98,728	-11,423	244,263	113,862
99,743	-11,655	244,162	113,612
100,757	-11,721	243,980	113,462
101,772	-11,516	243,662	113,474
102,787	-11,606	243,626	113,373
103,801	-11,379	243,507	113,495
104,816	-11,548	243,372	113,282
105,830	-11,149	243,068	113,460
106,845	-11,147	242,937	113,391
107,860	-11,190	242,625	113,199
108,874	-11,219	242,476	113,095
109,889	-11,226	242,406	113,047
110,903	-11,175	242,067	112,921
111,918	-11,520	242,072	112,630
112,933	-11,261	241,827	112,718
113,947	-11,348	241,663	112,560
114,962	-11,384	241,496	112,443
115,976	-11,165	241,447	112,590
116,991	-11,390	241,250	112,304
118,006	-11,267	240,826	112,197
119,020	-11,406	240,895	112,105
120,035	-11,099	240,726	112,267
121,049	-11,128	240,577	112,164
122,064	-11,278	240,251	111,880
123,079	-11,190	240,070	111,857
124,093	-11,376	239,866	111,601
125,108	-11,542	239,749	111,402
126,122	-11,656	239,487	111,178
127,137	-11,713	239,241	111,007
128,151	-11,693	239,033	110,917
129,166	-11,619	238,956	110,931
130,181	-11,684	238,623	110,714
131,195	-11,680	238,519	110,659
132,210	-11,329	238,327	110,844
133,224	-11,339	238,268	110,798
134,239	-11,387	238,171	110,705
135,254	-11,247	237,962	110,710
136,268	-11,450	237,603	110,370
137,283	-11,687	237,470	110,108
138,297	-11,913	237,259	109,818
139,312	-11,883	237,021	109,723
140,327	-11,345	236,922	110,098
141,341	-10,884	236,974	110,483
142,356	-10,833	236,782	110,424
143,370	-10,915	236,791	110,353
144,385	-10,843	236,466	110,249
145,400	-10,625	236,331	110,351
146,414	-10,976	236,187	109,994
147,429	-10,931	235,955	109,911
148,443	-11,113	235,931	109,745
149,458	-10,891	235,500	109,712
150,473	-10,802	235,415	109,734
151,487	-11,181	235,367	109,399
152,502	-11,031	235,080	109,375
153,516	-10,893	234,996	109,436
154,531	-10,738	234,769	109,444
155,546	-10,830	234,516	109,243
156,560	-11,094	234,515	109,024
157,575	-11,084	234,111	108,834
158,589	-11,202	234,053	108,704
159,604	-10,892	233,925	108,880
160,619	-10,578	233,786	109,054
161,633	-10,713	233,554	108,829
162,648	-10,652	233,529	108,856
163,662	-10,864	233,320	108,582
164,677	-11,237	233,158	108,203
165,692	-11,033	233,028	108,294
166,706	-10,718	232,928	108,485
167,721	-10,717	232,714	108,377
168,735	-10,567	232,575	108,420
169,750	-10,791	232,383	108,145
170,764	-10,757	232,192	108,073
171,779	-10,615	231,990	108,081
172,794	-10,837	232,054	107,927
173,808	-10,957	231,669	107,644
174,823	-11,577	231,445	107,047
175,837	-11,397	231,142	107,037
176,852	-11,209	231,354	107,273
177,867	-11,088	231,110	107,245
178,881	-10,826	230,909	107,346
179,896	-10,937	230,727	107,165
180,910	-10,889	230,621	107,143
181,925	-10,635	230,559	107,303
182,940	-10,660	230,326	107,166
183,954	-10,903	230,266	106,939
184,969	-10,650	230,090	107,044
185,983	-10,614	229,952	106,998
186,998	-10,525	229,666	106,925
188,013	-10,744	229,626	106,727
189,027	-10,571	229,459	106,774
190,042	-10,531	229,124	106,639
191,056	-10,484	229,118	106,662
192,071	-10,593	229,030	106,528
193,086	-10,691	228,727	106,303
194,100	-10,764	228,710	106,229
195,115	-10,948	228,225	105,853
196,129	-11,019	228,467	105,901
197,144	-5,428	230,347	111,094
198,159	0,573	231,911	116,505
199,173	3,144	232,544	118,812
200,188	3,327	232,453	118,897
201,202	3,201	232,387	118,755
202,217	3,634	232,416	119,095
203,232	3,785	232,139	119,059
204,246	3,857	232,229	119,151
205,261	4,013	231,965	119,126
206,275	4,106	231,833	119,119
207,290	4,161	231,674	119,069
208,304	4,402	231,454	119,132
209,319	4,124	231,286	118,820
210,334	4,067	231,142	118,692
211,348	3,765	230,858	118,303
212,363	3,531	230,621	117,991
213,377	3,257	230,625	117,771
214,392	3,270	230,291	117,600
215,407	3,330	230,157	117,567
216,421	3,378	230,077	117,553
217,436	3,079	229,908	117,227
218,450	2,868	229,719	116,958
219,465	2,966	229,628	116,977
220,480	3,113	229,351	116,937
221,494	3,074	229,327	116,885
222,509	3,100	229,191	116,825
223,523	3,337	228,982	116,889
224,538	3,321	228,726	116,736
225,553	3,182	228,598	116,554
226,567	3,318	228,473	116,583
227,582	3,590	228,522	116,805
228,596	3,764	228,317	116,822
229,611	3,460	228,112	116,476
230,626	3,120	227,741	116,018
231,640	3,312	227,625	116,094
232,655	3,437	227,764	116,250
233,669	3,608	227,655	116,313
234,684	3,787	227,556	116,388
235,699	3,680	227,313	116,172
236,713	3,636	227,075	116,007
237,728	3,376	226,917	115,720
238,742	3,138	226,713	115,426
239,757	3,349	226,532	115,482
240,772	3,039	226,443	115,193
241,786	3,195	226,256	115,205
242,801	3,485	226,055	115,310
243,815	3,642	226,156	115,470
244,830	3,648	226,027	115,399
245,844	3,526	225,666	115,113
246,859	3,440	225,628	115,018
247,874	3,607	225,436	115,035
248,888	3,652	225,319	114,999
249,903	3,330	225,048	114,609
250,917	3,451	224,971	114,650
251,932	3,316	224,843	114,474
252,947	3,187	224,568	114,227
253,961	3,210	224,441	114,170
254,976	3,395	224,311	114,231
255,990	3,322	224,267	114,144
257,005	3,575	224,297	114,338
258,020	3,339	223,989	113,995
259,034	3,541	223,944	114,113
260,049	3,551	223,761	114,016
261,063	3,463	223,657	113,888
262,078	3,573	223,532	113,896
263,093	3,758	223,357	113,934
264,107	3,539	223,219	113,691
265,122	3,657	223,188	113,752
266,136	3,700	222,949	113,652
267,151	3,904	222,651	113,641
268,166	3,440	222,483	113,202
269,180	3,145	222,333	112,898
270,195	3,177	222,136	112,812
271,209	3,020	221,931	112,582
272,224	3,313	222,107	112,877
273,239	3,337	221,775	112,716
274,253	3,216	221,619	112,538
275,268	2,924	221,511	112,258
276,282	3,144	221,266	112,286
277,297	3,043	221,117	112,126
278,312	2,937	221,073	112,016
279,326	3,373	220,784	112,178
280,341	3,412	220,811	112,211
281,355	3,472	220,630	112,153
282,370	3,105	220,546	111,832
283,384	2,986	220,377	111,650
284,399	2,888	220,271	111,514
285,414	3,112	220,069	111,565
286,428	3,173	219,955	111,542
287,443	3,363	219,821	111,602
288,457	3,419	219,599	111,521
289,472	3,209	219,735	111,427
290,487	2,773	219,274	110,866
291,501	2,951	219,066	110,881
292,516	2,991	218,914	110,822
293,530	3,087	218,864	110,857
294,545	3,041	218,819	110,791
295,560	3,300	218,701	110,909
296,574	3,337	218,467	110,807
297,589	3,291	218,335	110,697
298,603	3,594	218,314	110,896
299,618	3,380	218,156	110,650
300,633	3,447	218,023	110,622
301,647	3,658	217,941	110,722
302,662	3,526	217,721	110,506
303,676	3,470	217,572	110,380
304,691	3,848	217,339	110,524
305,706	3,461	217,272	110,202
306,720	3,542	217,130	110,178
307,735	3,390	216,928	109,957
308,749	3,366	216,850	109,890
309,764	3,347	216,853	109,868
310,779	3,564	216,738	109,956
311,793	3,368	216,565	109,717
312,808	3,425	216,230	109,579
313,822	3,500	216,207	109,611
314,837	3,231	216,026	109,317
315,852	3,048	215,931	109,129
316,866	3,213	215,771	109,156
317,881	3,491	215,617	109,267
318,895	3,508	215,580	109,250
319,910	3,277	215,343	108,956
320,925	2,898	215,137	108,572
321,939	2,866	214,981	108,462
322,954	2,801	214,913	108,371
323,968	2,900	214,783	108,366
324,983	3,289	214,675	108,578
325,997	3,693	214,669	108,852
327,012	3,492	214,448	108,588
328,027	3,599	214,306	108,581
329,041	3,720	214,359	108,685
330,056	3,785	214,153	108,616
331,070	3,218	213,898	108,077
332,085	2,999	213,675	107,800
333,100	3,275	213,542	107,918
334,114	3,362	213,446	107,921
335,129	3,607	213,141	107,930
336,143	3,137	213,077	107,557
337,158	3,421	212,971	107,694
338,173	3,225	212,843	107,481
339,187	3,129	212,727	107,346
340,202	3,063	212,501	107,176
341,216	3,111	212,403	107,151
342,231	3,169	212,234	107,097
343,246	3,218	212,175	107,092
344,260	3,137	212,090	106,983
345,275	3,100	212,011	106,907
346,289	3,139	211,927	106,883
347,304	3,340	211,792	106,945
348,319	3,303	211,505	106,765
349,333	3,363	211,351	106,719
350,348	3,295	211,338	106,656
351,362	3,459	211,257	106,720
352,377	3,290	211,230	106,579
353,392	3,218	211,017	106,412
354,406	3,357	210,880	106,430
355,421	196,522	1339,874	1420,749
356,435	157,005	1477,405	1420,720
