DTS Sentinel unit serial number:	SN410029Multiplexer serial number:	ORYXHardware model number:	OX2-SRSoftware version number:	ORYX F/W v4,00 Oryx Data Collector v3.7.2.0data status	okinstallation	B6 Nyhavnadifferential loss correction	single-endedforward channel	channel 2reverse channel	N/Adate	2023/12/09time	00:10:08forward acquisition time	300,00reverse acquisition time	0,00gamma	499,1914k internal	0,3157k external	0,3157temperature offset calibration	1,0000default loss term (dB/km)	0,3820temperature slope calibration	1,0000multiplexer offset coefficient	1,0000multiplexer slope coefficient	1,0000fibre end	0,00T internal ref (°C)	15,56T ext. ref 1 (°C)	-0,86T ext. ref 2 (°C)	-0,86length (m)	temperature (°C)	Stokes	anti-Stokes-744,400	612,271	0,074	-0,137
-743,385	-45,056	-0,197	-0,072
-742,371	-53,884	0,072	0,024
-741,356	-30,190	-0,251	-0,105
-740,342	-193,161	0,178	-0,001
-739,327	-112,778	-0,326	-0,047
-738,312	74,881	0,111	0,086
-737,298	-60,495	-0,273	0,085
-736,283	-133,610	0,094	-0,009
-735,269	-185,648	-0,137	0,001
-734,254	455,481	0,102	0,167
-733,239	20,450	-0,535	-0,318
-732,225	-82,775	0,085	0,020
-731,210	420,793	0,052	0,082
-730,196	800,000	-0,024	-0,065
-729,181	436,298	0,047	-0,076
-728,167	154,258	-0,095	-0,096
-727,152	742,270	-0,041	0,081
-726,137	-21,722	-0,048	0,022
-725,123	-200,000	-0,003	-0,013
-724,108	107,092	-0,116	0,102
-723,094	79,156	-0,057	-0,045
-722,079	616,899	-0,055	-0,101
-721,064	-200,000	0,006	0,070
-720,050	-127,376	-0,092	0,010
-719,035	-107,684	-0,173	0,028
-718,021	18,993	-0,141	-0,083
-717,006	-63,284	-0,196	0,059
-715,991	800,000	0,005	0,013
-714,977	-89,786	0,064	0,014
-713,962	-200,000	-0,019	0,066
-712,948	433,802	-0,085	0,136
-711,933	36,746	-0,149	0,097
-710,918	-200,000	-0,015	-0,090
-709,904	-122,217	-0,260	-0,031
-708,889	333,996	-0,044	0,063
-707,875	-49,727	-0,074	-0,026
-706,860	-156,245	-0,072	-0,003
-705,845	-137,273	-0,074	-0,006
-704,831	-85,606	0,090	-0,020
-703,816	289,145	-0,044	-0,059
-702,802	-42,345	-0,070	-0,026
-701,787	-71,075	-0,081	0,022
-700,772	10,806	0,099	-0,056
-699,758	-200,000	-0,009	0,071
-698,743	360,321	-0,043	-0,064
-697,729	382,871	0,075	0,114
-696,714	-200,000	-0,037	0,165
-695,699	89,942	-0,052	0,043
-694,685	-200,000	-0,008	-0,053
-693,670	800,000	-0,022	-0,058
-692,656	-200,000	-0,029	0,118
-691,641	-39,870	0,125	0,048
-690,627	-200,000	-0,007	-0,111
-689,612	-200,000	-0,001	-0,014
-688,597	375,349	0,053	-0,080
-687,583	800,000	-0,047	-0,100
-686,568	83,866	-0,055	-0,044
-685,554	-5,889	-0,120	-0,060
-684,539	473,438	0,046	-0,076
-683,524	22,237	-0,066	0,040
-682,510	800,000	0,040	0,119
-681,495	601,378	-0,049	0,091
-680,481	315,484	0,057	-0,079
-679,466	-125,659	-0,140	-0,015
-678,451	168,669	0,022	-0,023
-677,437	800,000	-0,032	-0,070
-676,422	-200,000	0,049	0,161
-675,408	434,450	-0,074	-0,119
-674,393	37,644	-0,127	0,083
-673,378	280,700	0,025	-0,032
-672,364	-61,853	-0,010	0,003
-671,349	-22,622	-0,162	-0,072
-670,335	-200,000	0,014	0,117
-669,320	210,165	0,025	0,029
-668,305	284,219	0,011	-0,015
-667,291	-16,519	-0,156	-0,073
-666,276	-200,000	-0,012	0,088
-665,262	48,020	0,055	0,038
-664,247	-138,625	-0,070	0,006
-663,232	125,880	-0,026	0,024
-662,218	479,571	0,061	-0,102
-661,203	8,874	0,016	-0,009
-660,189	-200,000	-0,013	-0,056
-659,174	546,530	0,060	0,106
-658,159	-146,179	-0,195	0,012
-657,145	-200,000	0,011	0,045
-656,130	800,000	-0,014	0,043
-655,116	64,757	0,026	0,019
-654,101	144,722	-0,089	-0,088
-653,086	17,493	-0,023	0,013
-652,072	-200,000	-0,039	0,130
-651,057	800,000	-0,004	-0,012
-650,043	-130,305	-0,052	0,005
-649,028	-71,700	-0,101	0,028
-648,014	-200,000	0,004	-0,046
-646,999	-17,995	0,098	0,045
-645,984	800,000	0,030	0,088
-644,970	-81,587	0,079	0,019
-643,955	-26,369	-0,090	-0,039
-642,941	800,000	-0,083	-0,211
-641,926	-200,000	-0,006	-0,052
-640,911	-200,000	0,035	-0,158
-639,897	800,000	-0,020	-0,051
-638,882	-66,784	0,041	-0,012
-637,868	-36,934	0,030	-0,012
-636,853	-68,498	-0,127	-0,036
-635,838	316,546	0,024	0,033
-634,824	558,875	0,016	-0,028
-633,809	-200,000	-0,003	0,024
-632,795	-200,000	-0,010	0,074
-631,780	363,217	-0,054	0,080
-630,765	800,000	0,025	0,065
-629,751	-200,000	-0,021	-0,113
-628,736	56,581	-0,081	-0,058
-627,722	198,958	0,036	-0,041
-626,707	-79,047	0,095	-0,024
-625,692	171,241	-0,033	-0,035
-624,678	115,418	0,056	0,050
-623,663	396,438	0,060	-0,092
-622,649	38,248	-0,040	0,026
-621,634	-200,000	-0,013	0,062
-620,619	-93,923	-0,030	0,006
-619,605	800,000	-0,059	-0,124
-618,590	55,097	0,041	0,029
-617,576	-78,185	0,124	0,031
-616,561	-139,162	-0,099	-0,008
-615,546	-56,727	-0,188	0,061
-614,532	-121,869	0,063	0,008
-613,517	-93,442	-0,168	0,034
-612,503	-56,886	-0,074	0,024
-611,488	-158,647	-0,128	-0,005
-610,474	250,502	-0,022	0,027
-609,459	-200,000	-0,005	-0,022
-608,444	42,449	0,048	-0,032
-607,430	-200,000	0,010	-0,090
-606,415	742,026	-0,030	-0,059
-605,401	-200,000	-0,001	-0,034
-604,386	-200,000	-0,005	-0,084
-603,371	-16,495	-0,142	0,066
-602,357	207,144	-0,044	-0,051
-601,342	-200,000	0,007	-0,095
-600,328	-181,001	-0,072	0,001
-599,313	302,439	-0,050	-0,068
-598,298	396,418	0,021	0,032
-597,284	-17,456	-0,082	0,038
-596,269	446,939	-0,058	-0,095
-595,255	800,000	0,018	-0,058
-594,240	100,123	-0,022	-0,019
-593,225	160,670	-0,150	-0,153
-592,211	-200,000	0,040	-0,138
-591,196	800,000	-0,018	0,052
-590,182	622,517	-0,047	0,086
-589,167	246,696	-0,062	0,077
-588,152	-42,302	-0,137	-0,051
-587,138	-200,000	0,021	0,103
-586,123	48,007	-0,170	0,116
-585,109	229,009	-0,073	0,087
-584,094	-62,178	-0,076	-0,023
-583,079	22,452	0,080	0,048
-582,065	76,593	0,056	0,044
-581,050	-200,000	-0,012	0,052
-580,036	22,941	0,052	0,031
-579,021	-37,726	0,077	-0,030
-578,006	-89,608	-0,107	0,023
-576,992	800,000	-0,004	-0,012
-575,977	279,118	0,030	0,040
-574,963	462,337	0,019	-0,031
-573,948	-141,128	0,033	0,002
-572,934	374,161	-0,059	-0,088
-571,919	130,731	-0,092	0,086
-570,904	217,090	-0,064	0,074
-569,890	-68,434	-0,053	-0,015
-568,875	800,000	0,056	-0,174
-567,861	-70,939	-0,060	-0,016
-566,846	-200,000	0,045	0,152
-565,831	-159,473	-0,079	-0,003
-564,817	-23,779	0,075	-0,033
-563,802	-116,894	-0,079	0,010
-562,788	-172,736	-0,105	0,002
-561,773	-16,172	0,098	-0,045
-560,758	800,000	-0,021	-0,067
-559,744	119,923	0,046	0,042
-558,729	-74,815	0,046	-0,012
-557,715	102,978	-0,062	0,053
-556,700	21,244	0,020	-0,012
-555,685	-163,767	-0,124	0,004
-554,671	-20,554	0,078	0,035
-553,656	292,323	0,092	-0,123
-552,642	43,973	0,119	0,080
-551,627	128,181	0,083	0,077
-550,612	214,821	-0,112	-0,130
-549,598	716,559	-0,007	-0,015
-548,583	-200,000	0,004	0,041
-547,569	457,553	0,084	-0,137
-546,554	800,000	0,018	-0,039
-545,539	-82,649	0,134	0,031
-544,525	275,262	0,050	0,065
-543,510	44,220	-0,067	-0,045
-542,496	157,034	0,030	0,031
-541,481	140,749	0,071	0,068
-540,466	-200,000	-0,004	0,123
-539,452	800,000	0,020	-0,062
-538,437	-156,393	0,078	-0,003
-537,423	84,104	-0,038	-0,030
-536,408	800,000	0,074	-0,193
-535,393	-94,325	-0,045	0,009
-534,379	-74,538	-0,080	0,021
-533,364	272,822	-0,106	-0,138
-532,350	381,098	-0,061	0,091
-531,335	-128,763	0,280	0,028
-530,321	-200,000	-0,014	0,130
-529,306	423,206	-0,016	-0,025
-528,291	800,000	-0,074	-0,176
-527,277	44,238	-0,137	0,092
-526,262	-114,161	-0,028	0,004
-525,248	-200,000	-0,017	0,057
-524,233	-200,000	-0,013	-0,061
-523,218	800,000	0,036	0,091
-522,204	80,650	0,115	0,091
-521,189	114,282	-0,057	-0,051
-520,175	444,486	-0,100	-0,161
-519,160	-200,000	-0,017	0,064
-518,145	317,291	-0,044	0,061
-517,131	-159,908	0,202	0,008
-516,116	-15,600	0,114	-0,053
-515,102	-51,993	0,055	0,018
-514,087	-104,372	0,060	0,010
-513,072	-200,000	0,008	-0,093
-512,058	78,481	-0,071	-0,056
-511,043	-41,012	0,061	-0,023
-510,029	129,567	-0,117	-0,109
-509,014	608,844	-0,029	0,053
-507,999	-200,000	0,005	0,147
-506,985	-41,259	0,158	0,059
-505,970	-81,142	-0,137	-0,033
-504,956	-45,666	-0,036	0,013
-503,941	800,000	0,017	0,042
-502,926	656,624	0,098	0,184
-501,912	800,000	0,060	0,127
-500,897	-87,071	-0,071	-0,016
-499,883	800,000	-0,005	-0,013
-498,868	-200,000	-0,007	0,073
-497,853	-99,632	-0,110	-0,020
-496,839	540,940	0,048	-0,083
-495,824	-200,000	0,007	0,035
-494,810	58,406	0,085	0,061
-493,795	367,982	-0,097	0,143
-492,781	-15,181	0,037	-0,017
-491,766	-200,000	-0,018	-0,121
-490,751	-200,000	0,005	-0,127
-489,737	-153,521	-0,074	-0,004
-488,722	-200,000	0,008	0,070
-487,708	-47,120	-0,075	0,027
-486,693	203,217	0,042	0,047
-485,678	-200,000	-0,009	0,033
-484,664	187,380	0,100	-0,109
-483,649	-84,604	-0,058	0,013
-482,635	569,928	-0,043	0,076
-481,620	-91,035	0,056	0,012
-480,605	800,000	-0,025	-0,060
-479,591	143,284	0,038	-0,037
-478,576	7,016	0,109	0,059
-477,562	-18,380	-0,069	-0,031
-476,547	-160,281	-0,119	0,005
-475,532	-34,959	-0,006	-0,003
-474,518	-200,000	-0,013	-0,149
-473,503	-200,000	0,003	-0,020
-472,489	5,944	-0,017	-0,009
-471,474	-200,000	0,015	0,085
-470,459	-144,830	-0,197	-0,013
-469,445	10,386	-0,101	-0,056
-468,430	715,934	0,050	-0,098
-467,416	265,113	0,055	0,070
-466,401	277,156	0,063	0,082
-465,386	-37,437	0,124	0,048
-464,372	-200,000	-0,003	0,043
-463,357	222,835	-0,082	-0,097
-462,343	-200,000	0,023	-0,090
-461,328	800,000	0,029	0,075
-460,313	800,000	0,030	0,093
-459,299	611,486	-0,039	-0,072
-458,284	-38,581	0,165	-0,063
-457,270	-64,296	-0,081	-0,024
-456,255	-96,918	-0,024	-0,005
-455,241	219,900	-0,081	-0,094
-454,226	-43,588	-0,141	0,052
-453,211	-118,490	0,121	0,015
-452,197	170,638	-0,045	0,047
-451,182	-45,217	-0,117	0,042
-450,168	-200,000	0,021	0,000
-449,153	378,745	-0,058	-0,086
-448,138	49,009	-0,102	-0,070
-447,124	-188,578	0,083	0,001
-446,109	198,798	-0,071	0,080
-445,095	-79,410	-0,166	0,041
-444,080	193,032	0,129	-0,143
-443,065	-200,000	-0,009	0,042
-442,051	-200,000	-0,004	-0,025
-441,036	235,100	-0,043	-0,052
-440,022	-54,211	0,037	0,012
-439,007	-200,000	-0,013	0,058
-437,992	-19,499	0,154	0,069
-436,978	136,156	0,066	0,063
-435,963	800,000	-0,043	0,106
-434,949	276,260	-0,042	0,054
-433,934	478,867	-0,013	0,021
-432,919	57,346	-0,095	-0,068
-431,905	52,875	-0,104	0,072
-430,890	-200,000	0,027	0,118
-429,876	124,508	0,036	0,033
-428,861	800,000	0,037	0,112
-427,846	7,548	-0,053	0,029
-426,832	121,032	0,047	-0,043
-425,817	31,652	0,062	-0,038
-424,803	-138,006	0,162	-0,013
-423,788	124,829	0,082	0,075
-422,773	-12,462	0,066	0,031
-421,759	57,965	0,064	0,046
-420,744	112,120	0,076	-0,067
-419,730	800,000	-0,056	-0,172
-418,715	-200,000	0,004	0,066
-417,701	800,000	0,024	0,051
-416,686	-132,699	0,027	0,002
-415,671	-200,000	0,045	0,145
-414,657	656,565	0,061	-0,114
-413,642	800,000	-0,037	0,078
-412,628	441,631	0,017	-0,027
-411,613	-200,000	0,015	-0,133
-410,598	295,347	0,073	-0,098
-409,584	800,000	-0,034	0,074
-408,569	-94,276	0,101	-0,020
-407,555	-200,000	-0,020	-0,067
-406,540	-80,422	-0,089	-0,022
-405,525	-154,999	-0,114	0,005
-404,511	800,000	-0,004	0,013
-403,496	800,000	0,024	-0,061
-402,482	17,671	0,106	-0,061
-401,467	-200,000	-0,010	0,039
-400,452	116,295	0,156	0,139
-399,438	477,249	0,022	-0,037
-398,423	-200,000	-0,003	-0,083
-397,409	800,000	-0,034	0,072
-396,394	415,592	-0,039	-0,061
-395,379	245,798	-0,042	0,052
-394,365	269,833	-0,032	0,041
-393,350	-110,440	-0,045	-0,007
-392,336	-200,000	-0,011	0,063
-391,321	-28,654	0,107	0,045
-390,306	-200,000	0,028	-0,097
-389,292	-200,000	0,005	-0,045
-388,277	-107,279	0,075	-0,012
-387,263	-48,998	-0,113	0,039
-386,248	-54,507	0,142	-0,047
-385,233	-58,563	0,088	0,028
-384,219	800,000	0,031	0,086
-383,204	-200,000	0,000	-0,026
-382,190	168,092	-0,114	-0,118
-381,175	123,496	-0,045	-0,041
-380,160	761,466	-0,062	0,123
-379,146	250,345	0,081	0,101
-378,131	-119,178	0,176	-0,022
-377,117	425,986	-0,013	0,021
-376,102	551,617	0,062	-0,108
-375,088	139,212	-0,093	-0,089
-374,073	-200,000	0,001	0,093
-373,058	800,000	0,037	0,088
-372,044	-200,000	-0,008	0,065
-371,029	-200,000	-0,001	0,003
-370,015	-200,000	-0,003	0,137
-369,000	562,534	-0,078	0,138
-367,985	392,209	0,084	-0,127
-366,971	-200,000	-0,023	-0,117
-365,956	-115,425	-0,036	0,005
-364,942	-21,793	0,036	-0,016
-363,927	-121,822	0,100	0,012
-362,912	295,533	0,064	0,085
-361,898	-200,000	-0,001	-0,069
-360,883	98,956	0,055	-0,046
-359,869	800,000	0,041	0,112
-358,854	-144,812	0,111	0,007
-357,839	-106,575	-0,015	0,002
-356,825	163,664	0,087	0,089
-355,810	-200,000	0,025	0,116
-354,796	366,840	0,035	0,051
-353,781	207,268	-0,044	-0,050
-352,766	-109,564	-0,072	0,011
-351,752	-59,135	0,184	0,057
-350,737	-119,445	0,087	0,011
-349,723	-200,000	0,035	0,158
-348,708	192,155	0,062	0,068
-347,693	-116,962	0,143	-0,019
-346,679	-131,011	0,059	-0,006
-345,664	-184,191	-0,025	0,000
-344,650	770,629	-0,052	0,103
-343,635	34,746	0,086	0,055
-342,620	-136,231	0,057	-0,005
-341,606	92,238	-0,103	-0,084
-340,591	-91,234	-0,061	-0,013
-339,577	49,957	-0,137	0,094
-338,562	459,145	-0,056	0,090
-337,548	92,673	-0,047	0,039
-336,533	-113,103	0,116	0,016
-335,518	800,000	0,047	0,098
-334,504	-50,468	-0,102	-0,035
-333,489	4,362	0,029	0,015
-332,475	0,696	0,045	-0,023
-331,460	-200,000	0,022	-0,110
-330,445	32,431	0,029	0,018
-329,431	-130,279	0,076	0,007
-328,416	-200,000	-0,005	0,072
-327,402	180,273	-0,034	-0,036
-326,387	182,684	-0,078	-0,083
-325,372	-72,488	-0,099	0,026
-324,358	-200,000	-0,022	-0,091
-323,343	-132,424	0,055	-0,005
-322,329	327,662	-0,014	-0,020
-321,314	-133,490	-0,086	-0,008
-320,299	-200,000	0,010	0,204
-319,285	88,595	-0,140	0,113
-318,270	-200,000	-0,002	-0,080
-317,256	-200,000	0,010	-0,050
-316,241	-27,250	0,137	0,057
-315,226	225,762	0,055	0,065
-314,212	251,924	0,084	0,104
-313,197	-68,121	0,028	0,008
-312,183	-48,667	0,046	0,016
-311,168	-200,000	0,012	0,090
-310,153	682,791	-0,051	-0,096
-309,139	-200,000	0,015	-0,239
-308,124	82,801	-0,068	-0,053
-307,110	-200,000	0,033	0,116
-306,095	-88,953	0,151	0,032
-305,080	-95,973	0,048	0,009
-304,066	17,270	-0,023	0,013
-303,051	-17,923	-0,061	-0,027
-302,037	211,167	-0,028	-0,032
-301,022	168,592	-0,072	-0,075
-300,008	-111,351	0,125	-0,018
-298,993	154,743	0,170	0,170
-297,978	-52,597	-0,103	-0,034
-296,964	290,205	-0,035	-0,047
-295,949	800,000	-0,066	-0,183
-294,935	-105,197	-0,076	0,012
-293,920	800,000	0,001	0,002
-292,905	-200,000	0,013	0,177
-291,891	46,101	0,121	0,081
-290,876	221,541	0,115	-0,134
-289,862	800,000	-0,014	0,042
-288,847	433,821	-0,026	0,042
-287,832	20,388	-0,072	-0,042
-286,818	88,434	-0,041	0,033
-285,803	-200,000	-0,021	0,120
-284,789	46,204	0,084	0,056
-283,774	-200,000	0,008	0,107
-282,759	80,479	-0,089	-0,069
-281,745	-94,096	-0,228	-0,045
-280,730	565,085	0,010	0,018
-279,716	-118,543	0,069	-0,009
-278,701	61,247	-0,016	-0,011
-277,686	26,254	0,096	0,058
-276,672	800,000	0,027	0,084
-275,657	800,000	0,047	-0,107
-274,643	29,550	0,025	0,015
-273,628	-119,599	-0,027	0,003
-272,613	-60,005	0,037	-0,011
-271,599	-200,000	-0,040	0,153
-270,584	800,000	-0,017	0,040
-269,570	390,321	0,007	0,011
-268,555	800,000	0,015	0,037
-267,540	113,140	0,131	-0,115
-266,526	-200,000	-0,002	-0,056
-265,511	642,730	0,023	-0,043
-264,497	371,404	-0,053	-0,078
-263,482	-200,000	0,008	0,104
-262,467	800,000	0,074	0,185
-261,453	-103,166	-0,158	-0,027
-260,438	-200,000	0,021	-0,118
-259,424	-102,046	-0,191	0,033
-258,409	61,338	0,080	0,057
-257,395	3,798	-0,105	-0,055
-256,380	8,470	0,036	-0,019
-255,365	-200,000	-0,036	0,153
-254,351	-105,893	-0,091	-0,015
-253,336	-90,824	0,055	-0,011
-252,322	-200,000	0,020	0,077
-251,307	800,000	-0,055	0,138
-250,292	-40,695	-0,020	-0,007
-249,278	-200,000	0,002	0,079
-248,263	-200,000	0,031	0,118
-247,249	800,000	-0,049	0,113
-246,234	800,000	0,038	-0,081
-245,219	61,884	-0,042	-0,030
-244,205	-117,349	-0,088	0,011
-243,190	-200,000	0,014	0,045
-242,176	-50,985	0,133	-0,045
-241,161	-170,010	0,143	-0,004
-240,146	-78,662	0,029	-0,007
-239,132	-19,269	0,032	-0,014
-238,117	65,611	0,030	-0,022
-237,103	800,000	-0,024	0,054
-236,088	800,000	0,020	0,061
-235,073	2,649	0,079	-0,041
-234,059	800,000	0,003	-0,010
-233,044	800,000	-0,038	0,085
-232,030	68,823	-0,069	0,051
-231,015	-45,802	0,025	-0,009
-230,000	-156,270	-0,125	0,006
-228,986	7,469	0,055	-0,030
-227,971	800,000	-0,028	0,084
-226,957	186,272	0,039	-0,042
-225,942	-200,000	0,001	0,031
-224,927	-161,788	-0,166	-0,006
-223,913	197,102	-0,094	-0,104
-222,898	116,851	-0,086	-0,077
-221,884	236,353	-0,068	0,081
-220,869	-121,908	0,100	-0,012
-219,855	800,000	0,001	-0,003
-218,840	-77,725	-0,176	-0,044
-217,825	-132,964	0,119	-0,011
-216,811	31,517	-0,081	-0,050
-215,796	20,348	-0,099	-0,058
-214,782	740,084	0,071	0,138
-213,767	-51,685	-0,052	-0,017
-212,752	800,000	0,065	0,132
-211,738	222,115	0,023	0,027
-210,723	-53,264	0,158	0,052
-209,709	-160,012	-0,069	0,003
-208,694	148,675	0,026	-0,025
-207,679	800,000	0,018	-0,040
-206,665	643,110	0,014	-0,026
-205,650	79,966	0,055	0,043
-204,636	800,000	0,044	-0,093
-203,621	-125,895	-0,051	-0,005
-202,606	800,000	0,023	-0,069
-201,592	204,068	-0,054	-0,060
-200,577	535,201	0,012	-0,021
-199,563	-200,000	-0,003	-0,089
-198,548	-60,693	-0,078	-0,024
-197,533	364,636	0,039	-0,057
-196,519	108,589	0,059	-0,051
-195,504	800,000	0,030	-0,062
-194,490	800,000	0,039	-0,085
-193,475	17,934	-0,074	-0,042
-192,460	-36,511	0,048	-0,019
-191,446	-191,901	0,106	0,001
-190,431	-200,000	-0,012	0,158
-189,417	-96,768	0,169	-0,032
-188,402	145,939	-0,056	-0,054
-187,387	800,000	-0,066	-0,163
-186,373	540,745	-0,034	-0,059
-185,358	-200,000	-0,010	-0,063
-184,344	110,143	-0,139	-0,120
-183,329	263,198	-0,020	0,025
-182,315	-200,000	0,008	-0,069
-181,300	167,059	0,063	0,064
-180,285	-7,176	-0,130	-0,063
-179,271	-85,513	-0,024	-0,005
-178,256	248,236	-0,049	0,060
-177,242	75,246	0,196	-0,149
-176,227	6,764	0,059	-0,032
-175,212	800,000	0,059	-0,118
-174,198	392,867	-0,050	0,075
-173,183	305,272	-0,109	0,147
-172,169	737,348	-0,074	-0,144
-171,154	-200,000	-0,001	-0,098
-170,139	-90,424	0,084	-0,017
-169,125	-28,272	-0,067	0,028
-168,110	417,691	-0,052	-0,081
-167,096	-103,077	0,098	-0,017
-166,081	-200,000	-0,025	-0,162
-165,066	-200,000	0,003	0,014
-164,052	800,000	-0,024	-0,052
-163,037	-200,000	-0,011	-0,098
-162,023	52,013	0,093	-0,064
-161,008	381,298	0,029	0,043
-159,993	-130,251	0,132	-0,013
-158,979	537,563	0,018	0,030
-157,964	-200,000	0,002	-0,137
-156,950	-2,292	-0,025	0,012
-155,935	800,000	0,073	-0,181
-154,920	-66,184	0,107	0,031
-153,906	-48,377	-0,066	0,023
-152,891	-117,092	-0,081	0,011
-151,877	242,131	-0,014	-0,017
-150,862	-200,000	0,028	-0,113
-149,847	446,845	-0,030	0,047
-148,833	-200,000	-0,001	0,134
-147,818	800,000	-0,082	0,238
-146,804	327,656	0,045	0,062
-145,789	-100,851	0,082	0,014
-144,775	800,000	-0,032	0,067
-143,760	-146,999	-0,088	-0,005
-142,745	453,210	-0,097	0,155
-141,731	-200,000	-0,007	-0,059
-140,716	-62,713	-0,124	-0,037
-139,702	800,000	0,050	-0,100
-138,687	-200,000	0,001	0,050
-137,672	345,009	-0,060	0,085
-136,658	-200,000	-0,002	0,058
-135,643	-5,071	-0,116	-0,057
-134,629	116,024	0,033	-0,029
-133,614	615,355	0,087	0,157
-132,599	-200,000	0,002	-0,107
-131,585	-125,305	0,179	-0,019
-130,570	40,606	0,065	0,042
-129,556	-85,140	-0,103	0,023
-128,541	800,000	-0,022	-0,044
-127,526	-45,445	-0,219	-0,078
-126,512	185,026	0,116	-0,124
-125,497	547,311	-0,074	0,128
-124,483	541,668	0,069	0,119
-123,468	-200,000	0,001	0,056
-122,453	-200,000	-0,001	-0,061
-121,439	27,568	0,025	-0,015
-120,424	-175,357	-0,183	0,004
-119,410	-200,000	0,018	0,184
-118,395	-41,834	0,089	-0,033
-117,380	-200,000	0,037	0,203
-116,366	402,383	0,064	0,097
-115,351	-200,000	0,002	0,036
-114,337	81,043	-0,044	0,034
-113,322	-77,911	0,084	-0,021
-112,307	17,756	-0,030	0,017
-111,293	284,328	0,061	-0,079
-110,278	800,000	-0,073	0,218
-109,264	-72,164	-0,082	-0,022
-108,249	-200,000	-0,004	-0,023
-107,234	-149,876	-0,161	-0,009
-106,220	-17,457	0,038	-0,017
-105,205	-200,000	0,010	-0,082
-104,191	-156,377	-0,075	0,003
-103,176	401,530	-0,034	0,051
-102,162	-200,000	0,012	0,070
-101,147	-159,497	-0,101	0,004
-100,132	63,154	-0,184	0,132
-99,118	800,000	-0,071	-0,142
-98,103	-36,940	-0,085	-0,032
-97,089	-200,000	-0,005	0,116
-96,074	640,696	-0,109	0,200
-95,059	642,532	0,052	0,095
-94,045	-68,777	0,115	-0,032
-93,030	-66,549	-0,063	-0,018
-92,016	800,000	0,037	-0,082
-91,001	59,052	-0,132	-0,093
-89,986	800,000	-0,020	0,061
-88,972	86,342	0,071	0,056
-87,957	-200,000	0,008	-0,038
-86,943	35,458	0,113	0,071
-85,928	273,578	-0,071	-0,090
-84,913	-200,000	-0,038	-0,123
-83,899	194,642	0,043	0,047
-82,884	-200,000	0,022	0,071
-81,870	800,000	0,075	0,155
-80,855	20,791	0,104	-0,060
-79,840	800,000	0,030	-0,095
-78,826	491,347	0,075	-0,124
-77,811	800,000	0,045	-0,128
-76,797	800,000	0,023	-0,072
-75,782	-94,540	-0,051	-0,010
-74,767	208,750	0,008	-0,009
-73,753	-200,000	-0,023	-0,122
-72,738	172,197	0,062	0,064
-71,724	108,504	-0,044	0,038
-70,709	-200,000	-0,013	-0,045
-69,694	-28,919	-0,119	0,049
-68,680	662,259	-0,039	0,072
-67,665	344,661	-0,028	0,040
-66,651	43,647	0,093	-0,061
-65,636	-24,747	-0,105	-0,045
-64,622	4,213	-0,181	-0,095
-63,607	800,000	0,046	-0,112
-62,592	-5,901	0,141	0,069
-61,578	40,838	-0,126	0,081
-60,563	19,532	-0,219	0,126
-59,549	227,636	0,024	0,029
-58,534	18,804	-1,906	-1,093
-57,519	-200,000	-0,213	-0,934
-56,505	-200,000	-1,224	-4,920
-55,490	16,452	0,850	0,481
-54,476	800,000	5,304	12,084
-53,461	-200,000	17,501	288,491
-52,446	800,000	723,481	2233,620
-51,432	541,595	1636,875	2810,884
-50,417	111,174	1628,217	1407,718
-49,403	74,555	1283,988	968,142
-48,388	32,241	1027,093	634,718
-47,373	19,996	989,387	571,037
-46,359	18,515	977,312	559,191
-45,344	15,904	973,669	548,538
-44,330	16,075	971,988	548,128
-43,315	15,639	970,258	545,708
-42,300	15,525	969,254	544,749
-41,286	15,512	968,364	544,184
-40,271	15,579	967,103	543,672
-39,257	15,601	966,320	543,282
-38,242	15,597	965,430	542,748
-37,227	15,639	964,518	542,351
-36,213	15,568	963,919	541,760
-35,198	15,552	962,930	541,132
-34,184	15,571	962,261	540,797
-33,169	15,578	961,080	540,133
-32,154	15,592	960,280	539,708
-31,140	15,617	959,394	539,268
-30,125	15,575	958,782	538,767
-29,111	15,569	957,806	538,179
-28,096	15,653	957,201	538,088
-27,082	15,633	956,631	537,681
-26,067	15,615	955,589	537,018
-25,052	15,591	955,119	536,654
-24,038	15,575	954,309	536,126
-23,023	15,547	953,785	535,722
-22,009	15,574	953,038	535,367
-20,994	15,608	952,352	535,069
-19,979	15,637	951,845	534,856
-18,965	15,550	951,118	534,147
-17,950	15,589	950,626	533,974
-16,936	15,537	950,102	533,495
-15,921	15,519	949,487	533,069
-14,906	15,422	948,593	532,237
-13,892	15,480	947,944	532,037
-12,877	15,443	947,312	531,543
-11,863	15,455	946,803	531,274
-10,848	15,486	946,119	530,968
-9,833	15,556	945,567	530,861
-8,819	15,526	945,030	530,442
-7,804	15,524	944,429	530,076
-6,790	15,501	943,800	529,632
-5,775	15,580	943,112	529,473
-4,760	15,484	942,482	528,797
-3,746	15,504	941,857	528,487
-2,731	15,319	941,227	527,525
-1,717	15,359	940,542	527,249
-0,702	15,361	940,007	526,933
0,313	15,093	939,273	526,471
1,327	18,622	937,260	536,415
2,342	27,974	791,322	477,564
3,356	24,773	445,477	264,077
4,371	-5,143	295,457	145,255
5,386	-9,173	276,922	132,314
6,400	-10,406	271,135	128,393
7,415	-10,552	268,841	127,162
8,429	-10,620	267,482	126,445
9,444	-10,675	266,734	126,029
10,459	-10,400	265,816	125,835
11,473	-10,651	265,452	125,424
12,488	-10,776	264,667	124,928
13,502	-10,989	264,427	124,611
14,517	-10,827	263,841	124,470
15,531	-10,831	263,476	124,283
16,546	-10,966	262,986	123,919
17,561	-10,815	262,603	123,863
18,575	-10,867	262,435	123,726
19,590	-10,947	262,093	123,482
20,604	-10,696	261,730	123,526
21,619	-10,640	261,355	123,388
22,634	-10,916	261,036	122,979
23,648	-11,131	260,945	122,734
24,663	-10,778	260,397	122,779
25,677	-10,937	260,306	122,583
26,692	-11,021	260,093	122,397
27,707	-10,831	259,783	122,409
28,721	-10,949	259,498	122,160
29,736	-11,173	259,260	121,839
30,750	-10,965	258,963	121,872
31,765	-10,933	258,784	121,806
32,780	-10,942	258,536	121,670
33,794	-11,188	258,332	121,346
34,809	-10,982	257,902	121,314
35,823	-10,988	257,849	121,273
36,838	-10,991	257,463	121,079
37,853	-11,138	257,193	120,812
38,867	-11,154	257,149	120,766
39,882	-11,191	256,760	120,540
40,896	-11,096	256,571	120,524
41,911	-11,121	256,332	120,380
42,926	-11,179	256,146	120,230
43,940	-11,083	255,684	120,087
44,955	-11,099	255,476	119,965
45,969	-11,207	255,267	119,762
46,984	-11,528	255,219	119,448
47,999	-11,525	254,679	119,188
49,013	-11,795	254,645	118,927
50,028	-11,985	254,256	118,570
51,042	-11,879	253,936	118,501
52,057	-11,922	253,715	118,350
53,071	-11,881	253,636	118,338
54,086	-11,657	253,400	118,411
55,101	-11,722	253,398	118,344
56,115	-11,443	253,081	118,426
57,130	-11,090	253,042	118,702
58,144	-10,868	253,011	118,868
59,159	-10,580	252,677	118,949
60,174	-10,814	252,425	118,619
61,188	-11,025	252,403	118,416
62,203	-10,721	251,985	118,471
63,217	-10,911	251,825	118,221
64,232	-10,959	251,665	118,094
65,247	-10,963	251,459	117,984
66,261	-10,821	251,050	117,903
67,276	-11,175	250,869	117,505
68,290	-11,473	250,455	117,046
69,305	-11,584	250,379	116,905
70,320	-11,318	250,105	116,994
71,334	-11,053	250,031	117,175
72,349	-10,980	249,962	117,194
73,363	-10,740	249,719	117,273
74,378	-10,811	249,558	117,127
75,393	-10,807	249,194	116,949
76,407	-10,929	249,142	116,811
77,422	-10,910	248,926	116,715
78,436	-10,922	248,816	116,643
79,451	-10,805	248,262	116,472
80,466	-11,038	248,186	116,229
81,480	-11,218	247,928	115,946
82,495	-11,172	247,718	115,877
83,509	-11,153	247,564	115,811
84,524	-11,460	247,539	115,530
85,539	-11,543	247,136	115,261
86,553	-11,235	246,874	115,387
87,568	-11,281	246,801	115,305
88,582	-11,267	246,588	115,206
89,597	-11,444	246,247	114,888
90,611	-11,176	246,413	115,180
91,626	-10,983	246,168	115,217
92,641	-11,158	246,067	115,013
93,655	-11,111	245,734	114,887
94,670	-11,355	245,587	114,604
95,684	-11,046	245,267	114,702
96,699	-11,143	245,164	114,563
97,714	-10,979	244,819	114,527
98,728	-11,264	244,683	114,217
99,743	-11,407	244,499	114,002
100,757	-11,339	244,206	113,912
101,772	-11,484	244,081	113,723
102,787	-11,267	243,987	113,849
103,801	-11,185	243,738	113,791
104,816	-11,231	243,522	113,642
105,830	-11,254	243,664	113,678
106,845	-10,801	243,304	113,875
107,860	-11,010	243,093	113,593
108,874	-11,182	242,886	113,345
109,889	-11,138	242,592	113,234
110,903	-11,272	242,459	113,051
111,918	-11,155	242,353	113,088
112,933	-11,198	242,224	112,982
113,947	-11,010	241,965	113,006
114,962	-11,189	241,926	112,831
115,976	-11,224	241,671	112,673
116,991	-11,016	241,606	112,803
118,006	-11,135	241,386	112,593
119,020	-11,124	241,151	112,482
120,035	-11,213	241,126	112,387
121,049	-10,955	240,972	112,516
122,064	-10,945	240,723	112,398
123,079	-11,122	240,412	112,099
124,093	-11,199	240,279	111,964
125,108	-11,418	240,029	111,659
126,122	-11,350	239,670	111,538
127,137	-11,654	239,636	111,265
128,151	-11,407	239,493	111,389
129,166	-11,241	239,107	111,334
130,181	-11,522	239,009	111,051
131,195	-11,292	238,714	111,090
132,210	-11,417	238,879	111,056
133,224	-11,253	238,459	110,983
134,239	-11,169	238,508	111,064
135,254	-11,042	238,206	111,016
136,268	-11,324	237,999	110,682
137,283	-11,722	237,867	110,291
138,297	-11,530	237,637	110,328
139,312	-11,523	237,415	110,221
140,327	-11,328	237,369	110,347
141,341	-10,827	237,363	110,737
142,356	-10,822	237,220	110,664
143,370	-10,639	237,060	110,726
144,385	-10,790	236,851	110,498
145,400	-10,603	236,640	110,539
146,414	-10,699	236,449	110,363
147,429	-10,903	236,281	110,112
148,443	-10,532	235,961	110,249
149,458	-10,883	235,907	109,934
150,473	-10,762	235,820	109,980
151,487	-10,786	235,560	109,830
152,502	-10,624	235,303	109,829
153,516	-10,743	235,330	109,737
154,531	-10,768	235,128	109,614
155,546	-10,762	234,992	109,545
156,560	-10,907	234,759	109,312
157,575	-10,957	234,385	109,088
158,589	-11,004	234,224	108,966
159,604	-10,715	234,285	109,214
160,619	-10,649	234,163	109,199
161,633	-10,517	234,014	109,225
162,648	-10,438	233,772	109,164
163,662	-10,667	233,632	108,908
164,677	-10,964	233,473	108,591
165,692	-10,784	233,499	108,734
166,706	-10,743	233,195	108,616
167,721	-10,609	233,080	108,657
168,735	-10,594	232,955	108,602
169,750	-10,538	232,764	108,547
170,764	-10,866	232,651	108,227
171,779	-10,695	232,568	108,313
172,794	-10,607	232,401	108,294
173,808	-10,777	231,973	107,952
174,823	-11,364	231,740	107,376
175,837	-11,433	231,586	107,240
176,852	-11,088	231,648	107,529
177,867	-10,587	231,511	107,848
178,881	-10,756	231,230	107,575
179,896	-10,517	231,218	107,746
180,910	-10,536	230,963	107,603
181,925	-10,741	230,924	107,416
182,940	-10,531	230,678	107,455
183,954	-10,490	230,552	107,418
184,969	-10,549	230,303	107,247
185,983	-10,224	230,244	107,462
186,998	-10,571	230,224	107,174
188,013	-10,455	229,958	107,130
189,027	-10,479	229,878	107,065
190,042	-10,445	229,613	106,959
191,056	-10,348	229,452	106,948
192,071	-10,289	229,231	106,882
193,086	-10,671	229,243	106,583
194,100	-10,473	228,969	106,599
195,115	-10,825	228,795	106,237
196,129	-11,092	228,709	105,982
197,144	-5,639	230,323	110,946
198,159	0,240	232,140	116,389
199,173	3,243	232,892	119,095
200,188	3,518	232,780	119,241
201,202	3,531	232,541	119,118
202,217	3,650	232,622	119,241
203,232	3,743	232,444	119,212
204,246	3,995	232,345	119,346
205,261	3,976	232,209	119,251
206,275	4,124	232,126	119,312
207,290	4,091	232,073	119,248
208,304	4,213	231,871	119,229
209,319	4,260	231,583	119,106
210,334	4,107	231,459	118,914
211,348	3,898	231,252	118,635
212,363	3,494	231,105	118,238
213,377	3,225	230,590	117,757
214,392	3,328	230,561	117,811
215,407	3,394	230,374	117,756
216,421	3,340	230,233	117,631
217,436	3,512	230,209	117,740
218,450	3,118	229,776	117,206
219,465	3,059	229,733	117,129
220,480	3,152	229,674	117,160
221,494	3,195	229,380	117,032
222,509	3,487	229,346	117,227
223,523	3,435	229,252	117,129
224,538	3,068	228,974	116,697
225,553	3,312	228,847	116,808
226,567	3,454	228,728	116,845
227,582	3,581	228,683	116,909
228,596	3,740	228,607	116,980
229,611	3,465	228,417	116,663
230,626	3,271	228,108	116,348
231,640	3,359	228,088	116,394
232,655	3,480	228,012	116,437
233,669	3,867	227,981	116,704
234,684	4,000	227,731	116,667
235,699	3,788	227,579	116,418
236,713	3,725	227,268	116,200
237,728	3,363	227,043	115,802
238,742	3,183	226,945	115,605
239,757	3,431	226,708	115,661
240,772	3,541	226,610	115,684
241,786	3,316	226,416	115,405
242,801	3,430	226,480	115,513
243,815	3,540	226,356	115,523
244,830	3,395	226,314	115,382
245,844	3,320	225,926	115,118
246,859	3,141	225,842	114,929
247,874	3,580	225,702	115,178
248,888	3,818	225,498	115,243
249,903	3,424	225,441	114,907
250,917	3,195	225,304	114,656
251,932	3,244	225,115	114,586
252,947	3,172	224,966	114,446
253,961	3,148	224,627	114,246
254,976	3,295	224,727	114,396
255,990	3,427	224,689	114,465
257,005	3,498	224,367	114,344
258,020	3,433	224,353	114,278
259,034	3,920	224,185	114,545
260,049	3,571	224,080	114,221
261,063	3,429	223,833	113,980
262,078	3,692	223,773	114,134
263,093	3,602	223,558	113,948
264,107	3,432	223,418	113,740
265,122	3,582	223,306	113,784
266,136	3,800	223,200	113,881
267,151	3,805	223,029	113,788
268,166	3,574	222,764	113,471
269,180	3,140	222,589	113,052
270,195	3,087	222,513	112,964
271,209	3,144	222,267	112,871
272,224	3,356	222,240	113,003
273,239	3,164	222,114	112,788
274,253	3,267	221,927	112,759
275,268	3,220	221,679	112,588
276,282	3,035	221,547	112,374
277,297	3,010	221,471	112,308
278,312	3,381	221,193	112,429
279,326	3,356	221,173	112,391
280,341	3,369	221,035	112,320
281,355	3,336	220,896	112,216
282,370	3,032	220,970	112,020
283,384	3,087	220,598	111,861
284,399	2,919	220,360	111,608
285,414	2,995	220,188	111,566
286,428	3,272	220,227	111,779
287,443	3,541	220,043	111,871
288,457	3,343	220,046	111,719
289,472	3,318	219,798	111,565
290,487	3,166	219,504	111,295
291,501	2,780	219,373	110,938
292,516	3,088	219,296	111,113
293,530	3,138	219,136	111,058
294,545	2,984	219,107	110,922
295,560	3,265	219,025	111,074
296,574	3,419	218,803	111,063
297,589	3,539	218,594	111,034
298,603	3,457	218,554	110,945
299,618	3,303	218,400	110,745
300,633	3,324	218,356	110,728
301,647	3,632	218,273	110,899
302,662	3,915	217,982	110,946
303,676	3,735	217,842	110,735
304,691	3,461	217,865	110,538
305,706	3,507	217,723	110,490
306,720	3,484	217,614	110,408
307,735	3,155	217,386	110,046
308,749	3,132	217,179	109,915
309,764	3,683	217,007	110,213
310,779	3,753	216,917	110,208
311,793	3,617	216,756	110,019
312,808	3,434	216,640	109,819
313,822	3,398	216,462	109,694
314,837	3,209	216,320	109,476
315,852	3,272	216,171	109,437
316,866	3,367	216,092	109,455
317,881	3,691	215,928	109,593
318,895	3,425	215,877	109,368
319,910	3,061	215,701	109,009
320,925	3,138	215,408	108,906
321,939	3,035	215,162	108,699
322,954	2,704	215,223	108,484
323,968	3,128	215,147	108,738
324,983	3,679	214,874	108,981
325,997	3,743	215,018	109,090
327,012	3,640	214,746	108,869
328,027	3,575	214,628	108,754
329,041	3,801	214,511	108,845
330,056	3,864	214,360	108,803
331,070	3,365	214,151	108,334
332,085	3,115	213,949	108,046
333,100	3,236	213,746	108,020
334,114	3,419	213,566	108,048
335,129	3,404	213,531	108,010
336,143	3,302	213,365	107,844
337,158	3,508	213,345	107,969
338,173	3,362	213,274	107,821
339,187	3,412	212,960	107,688
340,202	3,291	212,736	107,481
341,216	3,109	212,663	107,306
342,231	3,071	212,575	107,225
343,246	3,324	212,467	107,339
344,260	3,116	212,371	107,136
345,275	3,317	212,130	107,144
346,289	3,542	212,156	107,306
347,304	3,432	211,949	107,114
348,319	3,375	211,799	106,989
349,333	3,059	211,735	106,726
350,348	3,433	211,567	106,893
351,362	3,539	211,436	106,892
352,377	3,527	211,335	106,822
353,392	3,495	211,272	106,759
354,406	3,446	211,191	106,674
355,421	196,039	1340,520	1420,216
356,435	156,608	1478,090	1420,195
