DTS Sentinel unit serial number:	SN410029Multiplexer serial number:	ORYXHardware model number:	OX2-SRSoftware version number:	ORYX F/W v4,00 Oryx Data Collector v3.7.2.0data status	okinstallation	B6 Nyhavnadifferential loss correction	single-endedforward channel	channel 2reverse channel	N/Adate	2023/12/09time	11:45:08forward acquisition time	300,00reverse acquisition time	0,00gamma	499,1914k internal	0,3139k external	0,3139temperature offset calibration	1,0000default loss term (dB/km)	0,3820temperature slope calibration	1,0000multiplexer offset coefficient	1,0000multiplexer slope coefficient	1,0000fibre end	0,00T internal ref (°C)	18,95T ext. ref 1 (°C)	3,01T ext. ref 2 (°C)	3,00length (m)	temperature (°C)	Stokes	anti-Stokes-744,400	-200,000	-0,013	-0,118
-743,385	-107,119	-0,313	0,051
-742,371	118,654	0,039	-0,036
-741,356	-8,302	-0,369	0,184
-740,342	45,346	0,109	-0,075
-739,327	-36,730	-0,252	0,100
-738,312	-37,125	0,085	-0,034
-737,298	-171,619	-0,280	-0,007
-736,283	-47,997	0,166	-0,059
-735,269	40,293	-0,252	0,168
-734,254	-167,653	0,162	-0,005
-733,239	-9,423	-0,485	-0,239
-732,225	-141,415	0,181	-0,013
-731,210	7,751	0,022	-0,012
-730,196	426,100	-0,040	-0,063
-729,181	98,086	-0,021	0,018
-728,167	800,000	-0,076	-0,174
-727,152	-82,942	-0,084	0,020
-726,137	-7,405	-0,037	-0,019
-725,123	-160,602	-0,094	0,004
-724,108	-50,125	-0,047	-0,016
-723,094	-73,272	-0,079	0,021
-722,079	-200,000	-0,009	-0,123
-721,064	-200,000	-0,001	-0,037
-720,050	-72,194	0,076	0,021
-719,035	30,885	0,031	-0,020
-718,021	-114,838	-0,113	0,016
-717,006	800,000	0,035	-0,115
-715,991	45,518	-0,080	-0,054
-714,977	-200,000	-0,006	-0,023
-713,962	-30,659	-0,150	-0,063
-712,948	800,000	-0,005	-0,012
-711,933	-1,687	0,035	-0,018
-710,918	-200,000	-0,008	0,092
-709,904	5,758	0,081	0,044
-708,889	-65,178	-0,015	0,005
-707,875	211,681	0,067	-0,079
-706,860	-13,074	-0,162	0,078
-705,845	689,120	0,062	-0,121
-704,831	207,700	0,029	-0,034
-703,816	-200,000	-0,053	-0,187
-702,802	-61,007	-0,090	-0,028
-701,787	165,125	-0,146	-0,153
-700,772	358,157	-0,049	0,073
-699,758	61,375	-0,015	0,011
-698,743	451,989	-0,063	0,103
-697,729	-200,000	-0,071	-0,000
-696,714	-200,000	0,021	0,117
-695,699	-26,689	-0,167	0,072
-694,685	-200,000	0,018	0,075
-693,670	46,467	0,066	-0,045
-692,656	800,000	0,063	-0,133
-691,641	-200,000	-0,009	0,082
-690,627	-152,662	-0,025	-0,001
-689,612	467,732	-0,046	-0,077
-688,597	124,665	-0,038	0,035
-687,583	-200,000	-0,031	-0,124
-686,568	265,546	-0,075	-0,097
-685,554	800,000	0,013	-0,043
-684,539	152,690	-0,027	0,028
-683,524	800,000	-0,017	0,038
-682,510	-5,097	-0,093	-0,047
-681,495	278,100	0,045	-0,059
-680,481	45,409	0,057	-0,039
-679,466	270,503	-0,108	-0,140
-678,451	281,250	-0,034	-0,045
-677,437	-101,161	0,057	-0,010
-676,422	143,671	-0,093	0,092
-675,408	-200,000	0,000	-0,207
-674,393	729,410	-0,084	0,167
-673,378	-200,000	-0,004	-0,099
-672,364	41,180	-0,082	-0,055
-671,349	-200,000	-0,030	-0,121
-670,335	569,819	0,058	-0,105
-669,320	-200,000	0,022	0,110
-668,305	178,865	-0,032	0,034
-667,291	24,124	-0,131	-0,080
-666,276	441,314	-0,050	0,082
-665,262	800,000	-0,047	-0,122
-664,247	-59,929	-0,028	-0,009
-663,232	591,051	0,023	0,043
-662,218	2,588	0,039	0,021
-661,203	-87,660	-0,162	0,036
-660,189	800,000	-0,098	0,232
-659,174	-177,493	-0,078	0,001
-658,159	-56,303	-0,103	0,034
-657,145	-4,829	-0,036	0,018
-656,130	296,226	0,013	-0,018
-655,116	166,729	0,047	0,049
-654,101	333,151	-0,055	-0,079
-653,086	53,490	0,074	-0,052
-652,072	-78,234	0,052	-0,013
-651,057	91,153	-0,183	0,152
-650,043	34,846	-0,115	-0,074
-649,028	800,000	0,070	-0,188
-648,014	-200,000	0,039	0,222
-646,999	-96,603	-0,115	0,022
-645,984	-34,453	-0,070	-0,028
-644,970	-83,574	-0,042	0,010
-643,955	-200,000	-0,013	-0,082
-642,941	-146,803	-0,089	0,006
-641,926	229,480	-0,065	-0,079
-640,911	0,325	0,084	0,044
-639,897	-200,000	0,030	0,119
-638,882	-183,874	0,051	0,001
-637,868	-200,000	-0,030	0,120
-636,853	651,255	0,073	-0,140
-635,838	799,658	-0,033	-0,068
-634,824	800,000	0,055	-0,150
-633,809	291,723	0,088	-0,119
-632,795	-200,000	-0,003	-0,038
-631,780	132,667	-0,067	0,063
-630,765	-200,000	0,026	-0,115
-629,751	180,171	-0,077	-0,083
-628,736	-52,163	0,096	-0,033
-627,722	542,633	0,066	-0,116
-626,707	800,000	0,033	0,069
-625,692	-56,421	0,065	0,021
-624,678	-126,218	-0,101	0,011
-623,663	-200,000	0,016	0,063
-622,649	-200,000	0,022	-0,174
-621,634	-69,025	-0,044	0,013
-620,619	115,394	0,037	-0,033
-619,605	-200,000	0,030	0,101
-618,590	353,104	0,046	0,068
-617,576	-168,208	0,140	-0,004
-616,561	-73,078	-0,021	0,006
-615,546	-124,574	0,052	-0,006
-614,532	-35,645	-0,071	0,028
-613,517	213,847	-0,004	-0,005
-612,503	94,808	-0,089	-0,074
-611,488	-200,000	0,026	0,101
-610,474	383,349	0,014	0,021
-609,459	60,868	0,076	0,056
-608,444	69,527	0,068	0,052
-607,430	-102,488	-0,103	-0,018
-606,415	167,082	0,073	0,076
-605,401	-200,000	0,021	0,100
-604,386	419,033	0,076	-0,120
-603,371	-13,266	0,192	0,091
-602,357	392,434	-0,093	0,142
-601,342	-182,596	-0,092	-0,001
-600,328	116,906	0,058	0,053
-599,313	150,188	0,091	-0,092
-598,298	-41,787	0,104	0,039
-597,284	29,132	0,061	-0,038
-596,269	-200,000	-0,003	0,097
-595,255	174,863	-0,035	-0,038
-594,240	77,770	-0,021	-0,016
-593,225	800,000	-0,033	-0,073
-592,211	-29,358	-0,133	-0,056
-591,196	6,625	0,112	0,061
-590,182	-200,000	0,010	0,165
-589,167	-162,789	0,056	-0,002
-588,152	-98,201	-0,128	-0,024
-587,138	-200,000	-0,012	-0,056
-586,123	512,421	-0,027	0,047
-585,109	93,274	-0,155	-0,129
-584,094	210,436	-0,112	-0,130
-583,079	78,935	0,067	-0,053
-582,065	26,747	0,079	0,049
-581,050	-200,000	0,004	0,062
-580,036	-111,057	0,133	-0,020
-579,021	-166,192	-0,117	-0,004
-578,006	800,000	0,044	-0,101
-576,992	-25,271	-0,080	-0,035
-575,977	72,721	-0,095	-0,073
-574,963	49,060	0,178	0,123
-573,948	-200,000	0,017	0,112
-572,934	140,230	-0,047	0,046
-571,919	117,168	0,109	-0,098
-570,904	-200,000	0,002	-0,041
-569,890	-200,000	-0,007	0,112
-568,875	-17,099	0,088	-0,041
-567,861	-200,000	-0,011	0,098
-566,846	-73,441	0,179	-0,048
-565,831	-44,908	-0,179	0,065
-564,817	800,000	0,026	0,073
-563,802	-179,304	-0,073	0,001
-562,788	-200,000	-0,022	-0,083
-561,773	277,669	-0,067	-0,088
-560,758	88,037	-0,059	-0,048
-559,744	3,165	-0,098	0,052
-558,729	-200,000	0,008	-0,040
-557,715	800,000	-0,031	-0,072
-556,700	-93,674	-0,126	0,025
-555,685	74,631	0,071	-0,055
-554,671	401,840	-0,025	-0,039
-553,656	-150,412	-0,040	0,002
-552,642	800,000	-0,004	0,010
-551,627	86,540	-0,009	-0,007
-550,612	4,283	-0,115	-0,062
-549,598	37,386	0,069	0,045
-548,583	-200,000	0,004	0,075
-547,569	82,364	-0,091	0,073
-546,554	606,869	0,043	0,079
-545,539	147,410	-0,015	-0,015
-544,525	-94,568	0,105	0,021
-543,510	-76,238	-0,056	-0,014
-542,496	-87,448	0,069	0,015
-541,481	-200,000	0,008	-0,185
-540,466	800,000	0,014	-0,031
-539,452	113,814	0,103	-0,092
-538,437	128,241	-0,085	0,080
-537,423	800,000	0,046	-0,101
-536,408	213,819	0,067	0,078
-535,393	-143,614	-0,103	0,007
-534,379	90,469	-0,058	-0,048
-533,364	-200,000	-0,021	-0,102
-532,350	-200,000	0,006	0,035
-531,335	572,685	0,025	-0,045
-530,321	315,834	0,117	0,162
-529,306	-27,149	-0,100	0,043
-528,291	187,807	-0,061	0,067
-527,277	-55,548	-0,135	0,044
-526,262	191,618	-0,039	0,043
-525,248	800,000	0,031	-0,090
-524,233	182,031	-0,072	-0,078
-523,218	79,037	-0,045	0,035
-522,204	-87,798	0,085	0,019
-521,189	-200,000	0,030	0,102
-520,175	84,941	-0,066	-0,053
-519,160	507,749	0,036	0,062
-518,145	-12,786	0,098	0,047
-517,131	31,548	-0,121	0,076
-516,116	-132,555	-0,046	0,004
-515,102	62,768	0,032	0,024
-514,087	79,226	-0,072	-0,057
-513,072	390,200	0,074	-0,113
-512,058	-83,122	0,097	-0,023
-511,043	-28,831	-0,046	-0,019
-510,029	29,132	0,110	0,069
-509,014	-200,000	-0,012	-0,102
-507,999	-134,469	0,060	-0,005
-506,985	271,753	-0,066	-0,086
-505,970	44,301	0,074	-0,050
-504,956	-19,782	-0,059	-0,027
-503,941	85,485	-0,043	-0,035
-502,926	173,716	-0,075	0,079
-501,912	15,418	-0,170	-0,098
-500,897	-200,000	-0,015	-0,080
-499,883	133,170	-0,053	0,051
-498,868	-50,346	-0,129	0,044
-497,853	141,836	-0,094	-0,091
-496,839	26,448	0,110	0,067
-495,824	-136,167	-0,100	-0,008
-494,810	170,883	0,107	0,113
-493,795	-200,000	0,006	-0,022
-492,781	800,000	-0,037	0,095
-491,766	-59,729	0,139	0,043
-490,751	-200,000	0,003	0,071
-489,737	55,975	0,097	0,069
-488,722	-200,000	-0,002	0,087
-487,708	-200,000	-0,005	0,045
-486,693	-200,000	-0,018	0,075
-485,678	-41,403	0,082	-0,031
-484,664	-95,651	-0,103	-0,020
-483,649	3,854	-0,121	-0,065
-482,635	-200,000	-0,031	-0,108
-481,620	800,000	-0,049	-0,118
-480,605	-200,000	-0,020	-0,099
-479,591	-200,000	-0,003	0,052
-478,576	-200,000	-0,006	-0,019
-477,562	-157,988	-0,099	0,004
-476,547	-144,158	-0,069	-0,005
-475,532	-200,000	-0,001	-0,078
-474,518	-79,609	0,099	-0,024
-473,503	-200,000	0,025	-0,094
-472,489	367,786	0,051	-0,075
-471,474	-147,687	0,039	0,002
-470,459	316,939	0,018	0,025
-469,445	-41,007	-0,090	0,034
-468,430	-49,161	-0,073	-0,025
-467,416	-200,000	-0,009	0,041
-466,401	-46,716	-0,079	-0,028
-465,386	-37,376	0,083	-0,032
-464,372	53,515	0,046	-0,032
-463,357	-200,000	0,020	0,136
-462,343	-140,971	-0,157	0,012
-461,328	412,818	-0,048	-0,075
-460,313	-179,000	-0,022	-0,000
-459,299	-28,464	-0,100	0,042
-458,284	-200,000	0,008	0,112
-457,270	-53,318	0,164	0,055
-456,255	-127,625	-0,114	-0,012
-455,241	31,697	-0,087	-0,055
-454,226	-71,774	0,026	-0,007
-453,211	-200,000	0,023	-0,125
-452,197	-200,000	0,037	0,169
-451,182	539,370	-0,027	0,047
-450,168	-146,909	-0,014	-0,001
-449,153	-200,000	-0,005	0,017
-448,138	-164,041	0,166	-0,006
-447,124	-18,591	0,120	-0,054
-446,109	396,906	-0,033	-0,051
-445,095	1,131	-0,055	0,029
-444,080	-29,940	-0,052	-0,022
-443,065	-13,198	0,098	-0,046
-442,051	-17,030	-0,190	-0,088
-441,036	697,245	-0,019	-0,037
-440,022	9,533	-0,045	-0,025
-439,007	101,313	0,058	-0,049
-437,992	723,470	0,063	-0,124
-436,978	-200,000	-0,003	0,054
-435,963	-66,825	-0,180	-0,052
-434,949	800,000	-0,044	0,104
-433,934	139,253	0,010	-0,010
-432,919	-69,273	-0,134	0,037
-431,905	-200,000	0,006	0,018
-430,890	-176,088	0,142	0,003
-429,876	-200,000	-0,002	-0,018
-428,861	220,711	0,056	-0,066
-427,846	-200,000	-0,026	0,186
-426,832	-200,000	0,014	-0,088
-425,817	98,628	0,037	0,031
-424,803	17,263	-0,142	0,082
-423,788	-39,493	0,113	-0,043
-422,773	800,000	0,058	0,170
-421,759	417,754	0,060	-0,094
-420,744	-90,814	-0,097	-0,020
-419,730	15,550	-0,054	-0,031
-418,715	156,330	0,137	-0,138
-417,701	-109,675	0,169	-0,026
-416,686	144,523	-0,050	0,049
-415,671	353,936	0,051	0,074
-414,657	-200,000	0,015	0,000
-413,642	-200,000	0,009	-0,074
-412,628	800,000	0,052	-0,111
-411,613	800,000	0,048	-0,099
-410,598	-200,000	-0,015	0,084
-409,584	28,284	0,049	-0,030
-408,569	-65,487	0,042	-0,012
-407,555	39,542	0,169	0,111
-406,540	-200,000	-0,029	0,246
-405,525	245,686	0,018	-0,022
-404,511	-200,000	-0,015	-0,083
-403,496	128,768	0,070	-0,065
-402,482	312,091	0,025	0,035
-401,467	118,282	-0,098	-0,088
-400,452	696,009	-0,029	0,056
-399,438	100,578	0,041	0,035
-398,423	39,592	-0,037	0,024
-397,409	328,613	0,066	-0,092
-396,394	688,663	0,009	0,017
-395,379	-91,413	-0,122	0,025
-394,365	-80,238	-0,140	-0,034
-393,350	800,000	0,044	0,114
-392,336	800,000	-0,036	0,090
-391,321	-200,000	-0,016	-0,069
-390,306	82,538	-0,139	-0,110
-389,292	-139,022	0,043	-0,003
-388,277	-45,266	-0,132	-0,048
-387,263	-113,346	0,078	0,011
-386,248	377,987	0,010	-0,015
-385,233	-133,478	-0,080	-0,007
-384,219	800,000	0,062	0,157
-383,204	32,523	-0,067	-0,042
-382,190	-200,000	-0,034	0,124
-381,175	218,062	0,086	0,101
-380,160	-54,034	-0,086	-0,029
-379,146	800,000	0,010	-0,028
-378,131	-176,556	-0,051	0,001
-377,117	-111,977	-0,095	0,014
-376,102	424,482	0,037	0,058
-375,088	107,791	0,047	0,041
-374,073	110,067	-0,038	0,033
-373,058	800,000	0,035	0,102
-372,044	-128,970	0,068	0,007
-371,029	149,944	-0,034	0,034
-370,015	-96,144	-0,066	-0,013
-369,000	-123,603	-0,009	0,001
-367,985	-200,000	-0,013	-0,114
-366,971	-89,740	0,200	-0,042
-365,956	800,000	-0,077	-0,169
-364,942	137,452	0,049	0,047
-363,927	800,000	-0,026	0,066
-362,912	382,466	0,056	0,085
-361,898	36,234	0,039	0,025
-360,883	-200,000	0,012	-0,045
-359,869	48,148	0,069	-0,047
-358,854	-200,000	0,021	-0,082
-357,839	-54,556	-0,117	-0,039
-356,825	318,287	-0,082	-0,114
-355,810	-60,112	0,052	-0,016
-354,796	-71,322	0,027	-0,007
-353,781	-200,000	0,001	0,040
-352,766	23,885	-0,134	-0,081
-351,752	-200,000	0,000	-0,020
-350,737	134,508	0,072	0,068
-349,723	366,747	0,039	0,057
-348,708	137,815	-0,099	0,095
-347,693	-200,000	0,017	-0,095
-346,679	800,000	-0,033	0,089
-345,664	800,000	0,038	-0,115
-344,650	-98,457	0,137	-0,025
-343,635	252,072	0,039	0,049
-342,620	-116,837	0,138	-0,018
-341,606	-37,790	-0,170	-0,066
-340,591	449,051	-0,062	-0,100
-339,577	359,580	0,071	-0,104
-338,562	343,863	0,037	0,053
-337,548	266,086	0,124	-0,159
-336,533	178,684	0,079	-0,085
-335,518	-200,000	-0,013	0,070
-334,504	47,324	0,138	0,094
-333,489	231,209	-0,117	0,141
-332,475	73,547	0,061	0,046
-331,460	-84,051	0,056	-0,013
-330,445	-74,158	0,119	0,031
-329,431	385,676	0,075	0,113
-328,416	345,681	-0,059	0,085
-327,402	800,000	0,027	0,084
-326,387	201,389	0,104	-0,117
-325,372	-200,000	-0,025	0,127
-324,358	180,382	-0,030	-0,032
-323,343	-153,038	0,052	-0,003
-322,329	-200,000	-0,000	0,031
-321,314	145,871	0,047	0,046
-320,299	-200,000	0,002	0,024
-319,285	-105,114	-0,062	-0,010
-318,270	-102,322	0,026	-0,005
-317,256	-200,000	-0,006	-0,076
-316,241	-16,820	0,121	-0,056
-315,226	-200,000	-0,020	-0,083
-314,212	44,971	0,146	0,098
-313,197	-200,000	0,007	0,193
-312,183	-200,000	-0,018	0,074
-311,168	-9,409	-0,041	-0,020
-310,153	-55,055	0,041	-0,013
-309,139	-200,000	0,009	-0,039
-308,124	139,140	-0,045	-0,044
-307,110	221,670	-0,053	0,062
-306,095	-57,348	-0,075	0,024
-305,080	181,893	-0,031	-0,033
-304,066	398,965	-0,016	0,025
-303,051	800,000	-0,042	-0,100
-302,037	-102,452	0,069	-0,012
-301,022	-124,885	0,130	-0,014
-300,008	-113,761	0,076	-0,011
-298,993	-140,870	0,174	0,013
-297,978	114,154	-0,028	0,025
-296,964	-200,000	-0,014	0,094
-295,949	278,840	-0,053	-0,070
-294,935	-200,000	0,012	-0,167
-293,920	-22,009	0,109	0,048
-292,905	-200,000	0,017	0,074
-291,891	-127,415	0,118	0,012
-290,876	800,000	0,021	-0,052
-289,862	-80,587	-0,106	0,025
-288,847	-67,909	-0,010	-0,003
-287,832	-84,666	0,064	0,015
-286,818	77,688	0,066	0,051
-285,803	608,937	0,019	-0,034
-284,789	-200,000	-0,006	-0,120
-283,774	-3,472	0,168	0,085
-282,759	-106,207	-0,059	0,009
-281,745	-48,873	-0,072	0,025
-280,730	-3,886	-0,039	-0,020
-279,716	185,599	-0,082	-0,088
-278,701	122,430	0,025	-0,023
-277,686	800,000	-0,053	0,132
-276,672	46,707	-0,051	-0,034
-275,657	655,961	0,008	0,016
-274,643	-200,000	-0,012	-0,098
-273,628	-200,000	-0,014	-0,061
-272,613	80,133	0,093	-0,073
-271,599	-39,200	0,068	-0,026
-270,584	-200,000	0,005	-0,123
-269,570	-49,530	0,132	-0,045
-268,555	-200,000	-0,020	-0,067
-267,540	800,000	0,043	0,107
-266,526	-87,256	-0,054	0,012
-265,511	-61,459	0,043	0,013
-264,497	-14,811	0,096	-0,045
-263,482	800,000	-0,042	0,093
-262,467	-143,439	0,085	0,006
-261,453	-200,000	0,024	-0,124
-260,438	-200,000	0,017	-0,099
-259,424	100,585	-0,130	-0,110
-258,409	-72,342	-0,065	-0,017
-257,395	25,333	-0,039	-0,023
-256,380	-200,000	-0,005	0,071
-255,365	-200,000	-0,002	0,140
-254,351	50,435	0,019	-0,013
-253,336	-41,148	0,051	0,019
-252,322	-200,000	-0,016	0,056
-251,307	-200,000	0,022	-0,109
-250,292	264,933	0,069	0,088
-249,278	353,357	-0,081	0,117
-248,263	138,798	0,038	0,036
-247,249	485,590	-0,045	-0,075
-246,234	800,000	0,040	0,099
-245,219	-65,015	-0,111	-0,033
-244,205	16,363	0,070	-0,040
-243,190	427,636	0,039	0,062
-242,176	9,432	0,019	0,011
-241,161	472,567	0,097	0,160
-240,146	-200,000	-0,011	0,046
-239,132	45,147	-0,024	0,016
-238,117	-127,401	-0,096	0,010
-237,103	176,949	-0,073	-0,077
-236,088	-200,000	-0,001	-0,139
-235,073	800,000	-0,041	0,099
-234,059	-138,424	-0,132	0,010
-233,044	78,589	-0,058	0,045
-232,030	176,875	0,015	-0,016
-231,015	-153,029	-0,094	0,005
-230,000	10,841	-0,136	-0,075
-228,986	63,977	0,098	0,071
-227,971	-200,000	0,009	0,030
-226,957	-73,401	0,035	0,009
-225,942	800,000	-0,052	0,145
-224,927	-31,486	0,133	-0,054
-223,913	-68,249	-0,049	-0,014
-222,898	239,923	0,047	-0,057
-221,884	-68,718	-0,140	-0,039
-220,869	-115,506	-0,159	-0,022
-219,855	-49,208	0,029	-0,010
-218,840	-200,000	0,018	-0,122
-217,825	19,650	-0,070	0,041
-216,811	67,867	-0,086	-0,064
-215,796	-182,871	0,108	0,001
-214,782	58,392	0,071	0,051
-213,767	396,030	0,064	0,098
-212,752	-200,000	0,027	-0,089
-211,738	-37,857	0,021	-0,008
-210,723	800,000	-0,016	0,048
-209,709	111,845	0,022	0,020
-208,694	800,000	0,035	-0,084
-207,679	119,344	-0,047	-0,042
-206,665	-200,000	-0,021	-0,080
-205,650	-28,328	-0,008	-0,003
-204,636	800,000	0,033	0,072
-203,621	-200,000	0,009	0,045
-202,606	264,748	-0,054	-0,069
-201,592	-70,949	-0,047	-0,013
-200,577	4,656	-0,060	0,032
-199,563	180,901	-0,016	0,017
-198,548	-106,084	0,069	0,011
-197,533	306,376	0,063	-0,086
-196,519	-200,000	-0,010	0,091
-195,504	549,722	-0,048	-0,083
-194,490	73,657	-0,099	-0,075
-193,475	305,610	-0,070	-0,094
-192,460	0,976	0,124	-0,064
-191,446	-43,556	-0,103	0,037
-190,431	800,000	0,025	-0,058
-189,417	453,594	0,046	0,074
-188,402	800,000	0,006	-0,017
-187,387	-200,000	-0,001	-0,015
-186,373	800,000	-0,037	0,090
-185,358	-200,000	-0,014	-0,159
-184,344	-200,000	0,030	0,167
-183,329	483,280	-0,059	0,098
-182,315	-200,000	-0,007	-0,038
-181,300	1,113	0,098	0,051
-180,285	-139,299	-0,141	-0,011
-179,271	169,615	-0,050	-0,052
-178,256	163,020	-0,046	0,047
-177,242	-123,102	-0,078	-0,009
-176,227	353,729	-0,062	0,089
-175,212	-176,233	0,115	0,002
-174,198	-95,221	-0,127	-0,025
-173,183	-200,000	-0,020	-0,092
-172,169	-58,842	-0,058	-0,018
-171,154	-200,000	0,031	0,108
-170,139	682,350	-0,021	-0,040
-169,125	-200,000	-0,007	0,044
-168,110	800,000	-0,067	0,193
-167,096	800,000	-0,017	-0,047
-166,081	-200,000	-0,003	-0,083
-165,066	-36,515	-0,020	0,008
-164,052	310,038	-0,004	-0,006
-163,037	0,018	0,045	0,023
-162,023	415,952	0,057	0,088
-161,008	88,007	0,078	0,062
-159,993	404,747	-0,052	0,080
-158,979	-200,000	0,002	-0,037
-157,964	-169,774	0,151	0,004
-156,950	763,668	-0,059	-0,117
-155,935	555,472	-0,079	0,139
-154,920	95,253	0,115	0,095
-153,906	-200,000	0,010	0,064
-152,891	800,000	-0,034	0,105
-151,877	800,000	0,035	0,107
-150,862	-3,314	0,165	-0,083
-149,847	-200,000	0,013	0,065
-148,833	459,921	-0,061	0,099
-147,818	8,329	0,053	-0,029
-146,804	-153,266	0,129	-0,006
-145,789	-59,864	-0,069	-0,021
-144,775	-200,000	0,003	-0,037
-143,760	749,266	0,029	-0,057
-142,745	-200,000	0,010	0,058
-141,731	391,067	0,056	-0,084
-140,716	111,295	0,082	0,071
-139,702	53,367	-0,059	0,041
-138,687	-200,000	0,001	0,125
-137,672	-106,388	-0,121	-0,019
-136,658	452,328	0,041	-0,066
-135,643	800,000	0,016	0,049
-134,629	-200,000	-0,002	-0,028
-133,614	-144,711	0,109	-0,007
-132,599	800,000	0,039	0,117
-131,585	-200,000	0,010	0,103
-130,570	-200,000	0,011	0,104
-129,556	431,756	-0,031	0,050
-128,541	-144,578	0,075	0,005
-127,526	-200,000	-0,022	-0,107
-126,512	-88,062	0,032	-0,007
-125,497	438,225	0,008	0,013
-124,483	-92,286	0,134	-0,027
-123,468	44,636	-0,109	-0,072
-122,453	160,892	-0,114	-0,115
-121,439	-200,000	0,012	0,089
-120,424	800,000	-0,039	0,095
-119,410	284,429	0,058	0,075
-118,395	-50,058	-0,139	0,047
-117,380	398,864	-0,081	-0,124
-116,366	201,759	-0,078	-0,087
-115,351	800,000	0,030	-0,079
-114,337	-200,000	-0,022	0,088
-113,322	794,172	-0,040	-0,080
-112,307	-200,000	0,015	-0,066
-111,293	800,000	-0,034	0,074
-110,278	-74,250	0,101	0,026
-109,264	128,652	0,051	0,047
-108,249	183,155	-0,070	0,075
-107,234	113,694	-0,068	-0,060
-106,220	-144,790	-0,200	-0,013
-105,205	-200,000	0,012	-0,119
-104,191	13,656	0,055	-0,031
-103,176	-200,000	-0,007	-0,040
-102,162	-36,268	-0,074	0,029
-101,147	75,348	-0,046	-0,035
-100,132	800,000	0,053	-0,156
-99,118	800,000	-0,040	-0,090
-98,103	-152,284	-0,107	0,005
-97,089	9,209	-0,031	0,017
-96,074	-123,431	0,040	-0,005
-95,059	800,000	-0,064	0,199
-94,045	-200,000	0,012	-0,050
-93,030	83,445	0,079	0,062
-92,016	230,911	-0,035	0,041
-91,001	90,164	-0,090	-0,073
-89,986	81,105	0,080	-0,062
-88,972	-200,000	0,007	0,090
-87,957	-200,000	0,013	-0,118
-86,943	-124,723	0,030	0,003
-85,928	-46,726	-0,064	-0,022
-84,913	-124,403	0,100	0,011
-83,899	800,000	-0,030	-0,072
-82,884	-62,211	-0,110	-0,033
-81,870	-196,519	0,063	0,000
-80,855	-92,348	-0,106	0,021
-79,840	122,217	-0,038	0,034
-78,826	-200,000	-0,003	0,013
-77,811	11,667	0,079	-0,044
-76,797	82,545	0,029	-0,022
-75,782	215,590	0,040	0,046
-74,767	712,042	-0,029	0,056
-73,753	193,421	0,133	0,145
-72,738	435,144	-0,023	-0,036
-71,724	-0,292	0,070	-0,036
-70,709	800,000	0,026	-0,064
-69,694	-143,931	-0,201	0,013
-68,680	577,449	-0,046	0,081
-67,665	-200,000	-0,046	0,187
-66,651	-27,405	-0,038	-0,016
-65,636	7,587	-0,036	0,019
-64,622	-19,176	-0,139	-0,062
-63,607	-148,537	-0,031	0,002
-62,592	476,915	0,007	0,012
-61,578	-80,663	-0,032	-0,008
-60,563	109,552	0,057	0,049
-59,549	-122,009	0,037	-0,004
-58,534	-49,745	-1,660	-0,566
-57,519	800,000	-0,564	-1,205
-56,505	-200,000	-1,037	-4,678
-55,490	-109,506	0,607	-0,092
-54,476	800,000	5,144	12,159
-53,461	-200,000	15,308	272,138
-52,446	800,000	700,542	2228,824
-51,432	558,910	1617,751	2829,488
-50,417	120,281	1624,297	1455,321
-49,403	80,017	1283,726	995,234
-48,388	36,783	1026,771	653,549
-47,373	21,767	988,574	579,670
-46,359	20,794	977,209	569,782
-45,344	19,239	973,118	562,273
-44,330	19,246	971,964	561,608
-43,315	19,024	970,131	559,798
-42,300	19,020	968,980	559,099
-41,286	19,011	968,256	558,631
-40,271	19,033	966,988	557,949
-39,257	19,051	966,226	557,545
-38,242	18,971	965,567	556,881
-37,227	18,995	964,696	556,434
-36,213	18,980	963,870	555,888
-35,198	18,982	962,872	555,297
-34,184	19,038	962,274	555,111
-33,169	18,966	961,304	554,295
-32,154	19,023	960,553	554,026
-31,140	19,008	959,631	553,425
-30,125	18,995	958,873	552,924
-29,111	19,039	957,955	552,514
-28,096	18,994	957,522	552,095
-27,082	18,973	956,844	551,615
-26,067	18,959	956,026	551,078
-25,052	18,938	955,210	550,517
-24,038	18,963	954,675	550,267
-23,023	18,934	953,901	549,708
-22,009	19,035	953,121	549,559
-20,994	19,069	952,382	549,221
-19,979	19,011	951,922	548,749
-18,965	18,991	951,196	548,243
-17,950	18,991	950,601	547,879
-16,936	18,910	950,102	547,309
-15,921	18,885	949,488	546,856
-14,906	18,865	948,637	546,277
-13,892	18,827	948,014	545,777
-12,877	18,888	947,217	545,491
-11,863	18,815	946,706	544,942
-10,848	18,862	946,206	544,782
-9,833	18,946	945,758	544,771
-8,819	18,969	945,178	544,489
-7,804	18,881	944,528	543,811
-6,790	18,903	943,941	543,522
-5,775	18,903	943,244	543,099
-4,760	18,835	942,850	542,636
-3,746	18,894	942,020	542,324
-2,731	18,786	941,128	541,448
-1,717	18,672	940,652	540,788
-0,702	18,709	939,915	540,463
0,313	18,520	939,332	540,343
1,327	21,512	937,592	548,747
2,342	30,508	795,819	489,701
3,356	27,787	449,443	272,458
4,371	-1,517	294,914	149,473
5,386	-5,687	276,246	136,045
6,400	-6,807	270,466	132,145
7,415	-7,173	268,033	130,607
8,429	-7,092	266,726	130,033
9,444	-7,195	265,843	129,497
10,459	-7,133	265,280	129,267
11,473	-7,299	264,700	128,823
12,488	-7,438	264,239	128,460
13,502	-7,439	263,531	128,103
14,517	-7,525	263,164	127,837
15,531	-7,570	262,798	127,606
16,546	-7,572	262,218	127,311
17,561	-7,462	261,922	127,255
18,575	-7,500	261,689	127,097
19,590	-7,739	261,278	126,671
20,604	-7,707	261,027	126,567
21,619	-7,432	260,643	126,616
22,634	-7,654	260,482	126,327
23,648	-7,647	260,056	126,116
24,663	-7,652	259,804	125,979
25,677	-7,724	259,522	125,766
26,692	-7,802	259,355	125,605
27,707	-7,819	259,076	125,443
28,721	-7,829	258,724	125,253
29,736	-7,759	258,597	125,242
30,750	-7,857	258,247	124,974
31,765	-7,684	257,908	124,952
32,780	-7,745	257,860	124,864
33,794	-7,874	257,577	124,602
34,809	-7,824	257,423	124,560
35,823	-7,692	256,989	124,456
36,838	-7,887	256,758	124,161
37,853	-7,942	256,605	124,027
38,867	-7,864	256,293	123,934
39,882	-7,815	256,234	123,938
40,896	-7,900	255,895	123,688
41,911	-7,838	255,688	123,632
42,926	-8,080	255,507	123,321
43,940	-7,932	255,279	123,329
44,955	-7,895	255,030	123,230
45,969	-8,095	254,796	122,932
46,984	-8,168	254,446	122,688
47,999	-8,502	254,434	122,380
49,013	-8,558	254,052	122,136
50,028	-8,374	253,666	122,100
51,042	-8,419	253,314	121,881
52,057	-8,696	253,271	121,609
53,071	-8,763	253,141	121,477
54,086	-8,462	253,020	121,669
55,101	-8,453	252,752	121,538
56,115	-8,250	252,578	121,619
57,130	-7,863	252,535	121,922
58,144	-7,461	252,469	122,226
59,159	-7,533	252,269	122,056
60,174	-7,522	251,921	121,887
61,188	-7,508	251,822	121,840
62,203	-7,824	251,581	121,441
63,217	-7,763	251,285	121,339
64,232	-7,824	251,209	121,240
65,247	-7,600	250,909	121,275
66,261	-7,651	250,776	121,157
67,276	-7,803	250,399	120,834
68,290	-8,083	250,086	120,433
69,305	-8,262	249,914	120,186
70,320	-8,297	249,721	120,053
71,334	-8,075	249,551	120,150
72,349	-7,632	249,543	120,513
73,363	-7,602	249,301	120,411
74,378	-7,559	249,197	120,387
75,393	-7,575	248,866	120,202
76,407	-7,800	248,777	119,958
77,422	-7,716	248,529	119,899
78,436	-7,742	248,328	119,769
79,451	-7,770	248,104	119,626
80,466	-7,961	247,882	119,347
81,480	-8,078	247,513	119,060
82,495	-8,134	247,530	119,009
83,509	-7,894	247,339	119,110
84,524	-7,907	246,967	118,910
85,539	-8,083	246,697	118,621
86,553	-8,132	246,663	118,553
87,568	-8,319	246,582	118,346
88,582	-8,071	246,156	118,339
89,597	-8,296	246,043	118,084
90,611	-7,936	245,843	118,281
91,626	-7,785	245,801	118,376
92,641	-7,831	245,614	118,237
93,655	-7,960	245,386	118,009
94,670	-8,036	245,172	117,832
95,684	-7,930	244,966	117,811
96,699	-7,979	244,924	117,739
97,714	-8,124	244,603	117,453
98,728	-8,086	244,374	117,364
99,743	-8,219	244,176	117,148
100,757	-8,221	243,987	117,046
101,772	-8,235	244,063	117,060
102,787	-8,078	243,760	117,034
103,801	-8,177	243,598	116,865
104,816	-7,937	243,435	116,975
105,830	-7,739	243,256	117,043
106,845	-7,684	243,097	117,001
107,860	-7,640	242,896	116,930
108,874	-7,744	242,696	116,738
109,889	-7,952	242,445	116,435
110,903	-7,859	242,321	116,442
111,918	-7,829	242,069	116,335
112,933	-7,843	242,006	116,283
113,947	-7,817	241,697	116,146
114,962	-7,641	241,678	116,271
115,976	-7,797	241,438	116,016
116,991	-7,754	241,265	115,959
118,006	-7,855	241,021	115,748
119,020	-7,825	240,954	115,730
120,035	-7,792	240,814	115,680
121,049	-7,725	240,620	115,631
122,064	-7,646	240,494	115,625
123,079	-7,832	240,257	115,348
124,093	-7,802	239,911	115,197
125,108	-8,074	239,871	114,945
126,122	-8,161	239,592	114,730
127,137	-8,232	239,450	114,594
128,151	-8,266	239,280	114,475
129,166	-8,172	239,084	114,447
130,181	-8,208	238,881	114,310
131,195	-8,261	238,738	114,189
132,210	-7,858	238,609	114,444
133,224	-7,883	238,527	114,375
134,239	-7,779	238,249	114,315
135,254	-7,750	238,043	114,230
136,268	-7,615	237,695	114,162
137,283	-8,104	237,649	113,734
138,297	-8,330	237,384	113,415
139,312	-8,114	237,184	113,483
140,327	-7,960	237,219	113,615
141,341	-7,667	237,186	113,824
142,356	-7,696	237,116	113,757
143,370	-7,463	236,917	113,839
144,385	-7,416	236,746	113,785
145,400	-7,535	236,515	113,568
146,414	-7,319	236,352	113,653
147,429	-7,352	235,969	113,432
148,443	-7,517	235,911	113,262
149,458	-7,462	235,854	113,268
150,473	-7,452	235,629	113,159
151,487	-7,529	235,405	112,979
152,502	-7,184	235,198	113,145
153,516	-7,517	235,169	112,856
154,531	-7,412	235,041	112,867
155,546	-7,640	234,722	112,523
156,560	-7,804	234,687	112,365
157,575	-7,554	234,267	112,353
158,589	-7,509	234,211	112,352
159,604	-7,114	233,990	112,549
160,619	-7,148	233,915	112,476
161,633	-7,141	233,793	112,413
162,648	-7,376	233,794	112,217
163,662	-7,586	233,575	111,936
164,677	-7,623	233,414	111,819
165,692	-7,428	233,206	111,864
166,706	-7,391	233,055	111,811
167,721	-7,177	232,868	111,880
168,735	-7,398	232,798	111,662
169,750	-7,504	232,698	111,521
170,764	-7,484	232,488	111,426
171,779	-7,473	232,369	111,367
172,794	-7,330	232,237	111,406
173,808	-7,421	231,931	111,178
174,823	-8,006	231,720	110,608
175,837	-7,962	231,469	110,513
176,852	-7,518	231,408	110,822
177,867	-7,535	231,422	110,805
178,881	-7,246	231,320	110,973
179,896	-7,140	231,029	110,907
180,910	-7,440	230,914	110,607
181,925	-7,326	230,752	110,609
182,940	-7,203	230,463	110,557
183,954	-7,300	230,531	110,503
184,969	-7,141	230,361	110,536
185,983	-7,213	230,130	110,359
186,998	-7,120	229,981	110,350
188,013	-6,973	229,802	110,369
189,027	-7,025	229,664	110,252
190,042	-6,941	229,402	110,182
191,056	-7,147	229,317	109,971
192,071	-7,030	229,150	109,972
193,086	-7,254	229,064	109,747
194,100	-7,032	229,074	109,914
195,115	-6,795	228,608	109,864
196,129	-7,172	228,704	109,609
197,144	-3,187	229,977	113,305
198,159	1,629	231,483	117,794
199,173	3,538	231,733	119,397
200,188	3,865	231,585	119,565
201,202	3,798	231,450	119,432
202,217	3,858	231,492	119,490
203,232	4,001	231,396	119,541
204,246	4,408	231,210	119,750
205,261	4,290	230,964	119,521
206,275	4,541	230,939	119,691
207,290	4,466	230,821	119,562
208,304	4,362	230,740	119,428
209,319	4,374	230,399	119,250
210,334	4,416	230,290	119,216
211,348	4,112	230,022	118,832
212,363	3,759	229,724	118,395
213,377	3,618	229,531	118,176
214,392	3,576	229,430	118,082
215,407	3,677	229,205	118,034
216,421	3,505	229,437	118,010
217,436	3,622	228,922	117,824
218,450	3,249	228,827	117,478
219,465	3,185	228,565	117,284
220,480	3,368	228,646	117,456
221,494	3,413	228,382	117,344
222,509	3,514	228,225	117,330
223,523	3,736	228,001	117,374
224,538	3,434	228,017	117,141
225,553	3,457	227,981	117,131
226,567	3,693	227,670	117,140
227,582	4,016	227,547	117,312
228,596	3,964	227,542	117,260
229,611	3,639	227,361	116,908
230,626	3,575	226,953	116,640
231,640	3,483	226,867	116,515
232,655	3,799	226,754	116,686
233,669	4,398	226,807	117,159
234,684	4,322	226,680	117,025
235,699	4,040	226,324	116,617
236,713	3,834	226,286	116,431
237,728	3,561	226,099	116,118
238,742	3,455	225,959	115,956
239,757	3,500	225,744	115,868
240,772	3,393	225,617	115,712
241,786	3,424	225,374	115,601
242,801	3,681	225,387	115,791
243,815	3,726	225,323	115,782
244,830	3,897	225,177	115,825
245,844	3,642	224,923	115,492
246,859	3,723	224,631	115,393
247,874	3,782	224,545	115,383
248,888	3,934	224,447	115,436
249,903	3,611	224,434	115,176
250,917	3,648	224,245	115,097
251,932	3,468	224,070	114,862
252,947	3,615	223,668	114,756
253,961	3,439	223,631	114,595
254,976	3,428	223,551	114,535
255,990	3,855	223,541	114,839
257,005	3,822	223,167	114,612
258,020	3,960	223,227	114,736
259,034	3,899	223,103	114,616
260,049	3,722	222,949	114,395
261,063	3,604	222,839	114,240
262,078	3,895	222,713	114,383
263,093	4,033	222,376	114,302
264,107	3,967	222,428	114,269
265,122	3,607	222,267	113,909
266,136	4,264	222,075	114,287
267,151	4,109	221,989	114,119
268,166	3,526	221,702	113,529
269,180	3,454	221,520	113,372
270,195	3,426	221,506	113,334
271,209	3,467	221,283	113,240
272,224	3,588	221,202	113,278
273,239	3,803	220,893	113,269
274,253	3,556	220,858	113,059
275,268	3,466	220,657	112,879
276,282	3,351	220,401	112,654
277,297	3,155	220,289	112,443
278,312	3,322	220,279	112,550
279,326	3,523	220,228	112,661
280,341	3,712	219,887	112,616
281,355	3,684	219,836	112,559
282,370	3,539	219,738	112,392
283,384	3,418	219,413	112,128
284,399	3,116	219,450	111,915
285,414	3,415	219,280	112,038
286,428	3,705	219,203	112,200
287,443	3,830	219,087	112,222
288,457	3,601	219,059	112,030
289,472	3,496	218,716	111,769
290,487	3,172	218,530	111,427
291,501	3,228	218,270	111,325
292,516	3,375	218,244	111,409
293,530	3,334	218,091	111,291
294,545	3,473	217,929	111,300
295,560	3,436	217,848	111,222
296,574	3,545	217,748	111,239
297,589	3,666	217,562	111,223
298,603	3,664	217,624	111,243
299,618	3,681	217,457	111,160
300,633	3,716	217,256	111,073
301,647	3,712	217,070	110,965
302,662	3,817	217,047	111,019
303,676	3,713	216,881	110,849
304,691	3,843	216,730	110,855
305,706	3,778	216,669	110,768
306,720	3,850	216,467	110,707
307,735	3,561	216,249	110,377
308,749	3,431	216,155	110,226
309,764	3,724	216,007	110,351
310,779	4,116	215,970	110,604
311,793	3,951	215,745	110,361
312,808	3,773	215,640	110,169
313,822	3,597	215,376	109,898
314,837	3,570	215,219	109,789
315,852	3,567	215,141	109,737
316,866	3,667	214,974	109,714
317,881	3,898	214,949	109,856
318,895	3,787	214,827	109,705
319,910	3,620	214,632	109,477
320,925	3,282	214,363	109,089
321,939	3,341	214,195	109,036
322,954	3,039	214,313	108,871
323,968	3,415	214,186	109,064
324,983	3,642	214,043	109,143
325,997	3,873	213,771	109,159
327,012	3,824	213,578	109,015
328,027	3,656	213,582	108,889
329,041	4,009	213,520	109,098
330,056	4,021	213,320	108,994
331,070	3,678	213,189	108,675
332,085	3,400	212,905	108,324
333,100	3,491	212,784	108,317
334,114	3,679	212,765	108,431
335,129	3,666	212,543	108,298
336,143	3,433	212,394	108,049
337,158	3,284	212,389	107,931
338,173	3,397	212,247	107,929
339,187	3,539	212,076	107,933
340,202	3,457	211,729	107,689
341,216	3,171	211,630	107,428
342,231	3,467	211,520	107,570
343,246	3,351	211,406	107,421
344,260	3,564	211,295	107,505
345,275	3,543	211,058	107,360
346,289	3,713	211,156	107,519
347,304	3,726	211,133	107,507
348,319	3,351	210,822	107,077
349,333	3,807	210,526	107,235
350,348	3,746	210,439	107,139
351,362	3,604	210,612	107,118
352,377	3,797	210,381	107,126
353,392	3,621	210,153	106,877
354,406	3,958	209,919	106,984
355,421	195,850	1343,313	1430,552
356,435	156,404	1481,438	1430,613
