DTS Sentinel unit serial number:	SN410029Multiplexer serial number:	ORYXHardware model number:	OX2-SRSoftware version number:	ORYX F/W v4,00 Oryx Data Collector v3.7.2.0data status	okinstallation	B6 Nyhavnadifferential loss correction	single-endedforward channel	channel 2reverse channel	N/Adate	2023/12/08time	08:40:08forward acquisition time	300,00reverse acquisition time	0,00gamma	499,1914k internal	0,3170k external	0,3170temperature offset calibration	1,0000default loss term (dB/km)	0,3820temperature slope calibration	1,0000multiplexer offset coefficient	1,0000multiplexer slope coefficient	1,0000fibre end	0,00T internal ref (°C)	12,12T ext. ref 1 (°C)	-2,33T ext. ref 2 (°C)	-2,28length (m)	temperature (°C)	Stokes	anti-Stokes-744,400	-12,435	0,165	0,079
-743,385	-44,237	-0,341	0,125
-742,371	-115,238	0,113	-0,015
-741,356	-121,381	-0,254	0,031
-740,342	800,000	0,061	0,131
-739,327	-51,006	-0,414	0,142
-738,312	-133,665	0,081	0,007
-737,298	-126,733	-0,452	-0,048
-736,283	291,732	0,088	-0,118
-735,269	-186,128	-0,165	-0,002
-734,254	539,063	0,047	-0,082
-733,239	-47,220	-0,540	-0,192
-732,225	-32,737	0,125	0,051
-731,210	-25,530	0,020	0,009
-730,196	42,889	-0,165	-0,110
-729,181	35,557	-0,029	-0,019
-728,167	-33,236	-0,122	0,049
-727,152	-150,732	0,061	-0,003
-726,137	-200,000	-0,031	0,115
-725,123	332,630	-0,074	0,105
-724,108	30,456	-0,125	-0,078
-723,094	-121,817	-0,088	-0,011
-722,079	-200,000	-0,004	-0,066
-721,064	-148,165	0,076	-0,005
-720,050	-84,847	0,023	0,005
-719,035	-64,564	0,059	-0,018
-718,021	-200,000	-0,015	-0,094
-717,006	-200,000	-0,014	-0,129
-715,991	-65,238	-0,123	0,036
-714,977	-140,166	-0,108	0,008
-713,962	154,381	0,046	-0,047
-712,948	-83,419	-0,024	-0,006
-711,933	-39,473	-0,200	-0,077
-710,918	800,000	-0,069	0,145
-709,904	-200,000	0,008	-0,115
-708,889	-22,856	0,100	0,044
-707,875	-0,374	0,066	0,034
-706,860	-8,115	-0,072	0,035
-705,845	205,151	0,170	0,193
-704,831	-200,000	0,038	0,124
-703,816	-46,029	0,022	-0,008
-702,802	33,818	-0,158	-0,101
-701,787	-67,732	-0,092	-0,026
-700,772	419,049	-0,092	-0,144
-699,758	800,000	0,013	-0,037
-698,743	-5,721	0,010	-0,005
-697,729	245,033	0,053	0,065
-696,714	800,000	-0,087	0,206
-695,699	27,091	-0,069	0,042
-694,685	95,293	-0,059	0,049
-693,670	28,902	0,045	0,028
-692,656	-24,163	-0,025	-0,011
-691,641	275,118	-0,060	0,078
-690,627	-67,458	-0,133	0,038
-689,612	21,591	0,086	-0,051
-688,597	-200,000	0,006	-0,123
-687,583	174,493	-0,150	-0,159
-686,568	-200,000	-0,039	0,133
-685,554	-126,182	-0,163	-0,018
-684,539	72,544	0,113	-0,086
-683,524	-122,221	0,060	0,007
-682,510	254,336	0,007	-0,009
-681,495	-46,136	-0,105	0,038
-680,481	-114,088	-0,171	-0,024
-679,466	-113,383	0,060	0,008
-678,451	800,000	-0,014	0,038
-677,437	-70,307	-0,112	0,031
-676,422	800,000	0,031	0,082
-675,408	-100,314	0,084	-0,015
-674,393	-107,297	-0,038	0,006
-673,378	-200,000	-0,020	-0,117
-672,364	464,988	-0,067	-0,110
-671,349	497,729	0,022	0,037
-670,335	-154,427	0,004	0,000
-669,320	-32,827	0,043	0,018
-668,305	15,171	0,093	0,053
-667,291	22,778	-0,210	0,126
-666,276	-57,735	-0,076	-0,024
-665,262	631,966	0,088	-0,164
-664,247	-14,598	0,061	-0,028
-663,232	183,079	-0,043	0,046
-662,218	436,289	0,097	0,156
-661,203	-200,000	0,005	-0,024
-660,189	296,843	0,037	-0,050
-659,174	800,000	0,033	-0,100
-658,159	24,650	0,033	0,020
-657,145	19,066	-0,170	-0,100
-656,130	-60,586	-0,028	0,009
-655,116	246,109	0,062	0,077
-654,101	211,910	0,085	0,098
-653,086	687,355	-0,082	-0,157
-652,072	17,608	-0,109	-0,063
-651,057	272,961	-0,042	-0,054
-650,043	-152,965	-0,053	0,003
-649,028	266,542	-0,051	0,065
-648,014	300,327	-0,005	0,007
-646,999	756,272	-0,022	-0,044
-645,984	-6,578	-0,129	0,064
-644,970	-200,000	-0,001	-0,007
-643,955	800,000	0,012	0,033
-642,941	511,027	-0,070	-0,119
-641,926	173,186	-0,103	-0,109
-640,911	-97,739	0,012	-0,002
-639,897	800,000	0,042	0,097
-638,882	-200,000	0,028	-0,114
-637,868	800,000	-0,036	-0,097
-636,853	-82,438	0,119	-0,028
-635,838	560,672	-0,143	-0,254
-634,824	58,885	-0,080	0,057
-633,809	800,000	-0,020	-0,058
-632,795	800,000	0,039	0,112
-631,780	-200,000	0,029	-0,105
-630,765	-129,009	0,156	-0,016
-629,751	-200,000	0,001	-0,225
-628,736	115,876	-0,018	-0,016
-627,722	-54,639	0,069	-0,023
-626,707	-52,444	0,065	-0,022
-625,692	-200,000	0,001	-0,050
-624,678	-16,579	-0,036	0,017
-623,663	-130,291	-0,015	-0,002
-622,649	-200,000	-0,020	-0,069
-621,634	-200,000	-0,021	0,073
-620,619	-88,860	-0,093	0,020
-619,605	800,000	-0,014	0,042
-618,590	406,692	-0,056	0,087
-617,576	-200,000	0,012	0,139
-616,561	-88,325	-0,066	-0,014
-615,546	-78,330	-0,023	-0,006
-614,532	-77,467	-0,149	0,037
-613,517	800,000	-0,042	-0,102
-612,503	-156,322	0,049	0,002
-611,488	-36,256	-0,045	0,018
-610,474	507,928	-0,040	-0,069
-609,459	530,635	0,047	0,081
-608,444	780,350	0,040	-0,081
-607,430	-200,000	0,008	-0,072
-606,415	25,159	-0,122	0,074
-605,401	262,909	-0,048	0,061
-604,386	800,000	0,014	-0,039
-603,371	24,247	0,067	0,040
-602,357	-3,957	-0,035	-0,018
-601,342	-200,000	0,001	-0,146
-600,328	88,082	-0,122	-0,099
-599,313	729,820	0,013	-0,026
-598,298	-200,000	0,032	-0,162
-597,284	68,748	0,082	-0,061
-596,269	800,000	-0,060	0,160
-595,255	-120,347	0,167	-0,021
-594,240	-120,131	-0,139	0,017
-593,225	66,597	-0,008	0,006
-592,211	-200,000	-0,006	-0,039
-591,196	-153,155	-0,043	0,002
-590,182	467,520	0,063	-0,103
-589,167	103,784	0,095	0,082
-588,152	-200,000	-0,016	-0,056
-587,138	-51,688	-0,143	0,048
-586,123	255,026	-0,052	0,065
-585,109	-200,000	0,041	-0,184
-584,094	394,034	-0,068	0,104
-583,079	800,000	0,040	-0,097
-582,065	719,014	0,035	0,069
-581,050	-200,000	-0,028	0,111
-580,036	-200,000	0,005	-0,143
-579,021	-81,472	0,131	0,031
-578,006	-200,000	-0,010	0,081
-576,992	451,073	0,066	0,107
-575,977	-200,000	-0,000	-0,083
-574,963	29,804	-0,067	-0,041
-573,948	225,148	0,043	-0,050
-572,934	-119,067	-0,020	0,002
-571,919	377,159	-0,048	0,072
-570,904	221,652	-0,028	0,033
-569,890	-36,170	0,045	-0,018
-568,875	800,000	0,004	0,010
-567,861	-200,000	-0,019	0,110
-566,846	-101,421	0,083	0,015
-565,831	-15,890	-0,053	0,025
-564,817	112,013	-0,075	-0,066
-563,802	267,109	-0,066	-0,084
-562,788	-200,000	-0,024	-0,097
-561,773	533,562	0,043	0,075
-560,758	102,005	0,025	0,021
-559,744	-157,562	0,064	0,003
-558,729	-200,000	-0,002	-0,067
-557,715	24,422	-0,074	0,045
-556,700	-65,726	-0,049	-0,014
-555,685	421,887	-0,058	0,092
-554,671	-126,551	0,080	0,009
-553,656	21,632	-0,037	0,022
-552,642	-200,000	-0,024	0,086
-551,627	800,000	0,027	0,066
-550,612	-200,000	0,001	-0,046
-549,598	86,190	-0,126	0,101
-548,583	-200,000	-0,012	-0,081
-547,569	9,491	0,119	-0,065
-546,554	-200,000	0,007	0,087
-545,539	800,000	0,014	0,031
-544,525	-105,807	0,042	-0,007
-543,510	528,241	-0,052	-0,091
-542,496	34,266	0,063	-0,040
-541,481	-35,195	-0,051	-0,020
-540,466	120,625	-0,039	0,035
-539,452	120,724	0,027	0,025
-538,437	216,441	0,051	-0,059
-537,423	-146,900	-0,043	-0,003
-536,408	201,817	-0,069	-0,078
-535,393	-200,000	0,016	-0,067
-534,379	-73,027	-0,078	0,021
-533,364	272,092	-0,068	-0,088
-532,350	362,719	0,058	-0,086
-531,335	24,047	0,049	0,030
-530,321	69,791	-0,132	0,099
-529,306	-71,223	0,067	0,018
-528,291	392,638	-0,097	-0,148
-527,277	-50,377	-0,122	-0,042
-526,262	-23,370	0,147	0,064
-525,248	396,040	-0,016	-0,025
-524,233	-116,393	0,175	-0,023
-523,218	-34,613	-0,052	-0,021
-522,204	800,000	0,046	0,113
-521,189	-46,997	-0,102	0,036
-520,175	-54,553	-0,151	-0,050
-519,160	-113,742	0,046	0,006
-518,145	-106,290	0,147	0,024
-517,131	800,000	0,030	0,066
-516,116	26,052	-0,017	0,010
-515,102	-200,000	0,005	0,116
-514,087	-136,247	-0,075	-0,006
-513,072	800,000	-0,031	-0,062
-512,058	214,304	0,022	0,026
-511,043	-78,220	0,197	0,049
-510,029	-47,290	0,090	0,032
-509,014	-35,971	0,077	-0,030
-507,999	-200,000	-0,011	-0,085
-506,985	158,918	-0,051	-0,052
-505,970	-178,501	-0,151	0,002
-504,956	309,122	-0,058	0,079
-503,941	98,015	0,087	0,073
-502,926	800,000	-0,018	0,038
-501,912	-200,000	-0,003	-0,030
-500,897	-200,000	0,009	-0,080
-499,883	530,941	-0,062	0,106
-498,868	-200,000	-0,012	0,084
-497,853	-85,296	-0,024	-0,005
-496,839	36,396	0,079	0,050
-495,824	-200,000	0,004	0,117
-494,810	173,721	0,058	0,061
-493,795	236,062	-0,024	0,029
-492,781	-200,000	-0,014	0,088
-491,766	-51,985	0,081	-0,027
-490,751	-200,000	-0,048	-0,193
-489,737	230,580	0,073	-0,087
-488,722	59,417	0,064	0,046
-487,708	-200,000	0,012	0,108
-486,693	-200,000	0,017	0,129
-485,678	55,119	0,203	0,142
-484,664	63,838	0,054	-0,040
-483,649	-153,531	0,111	0,006
-482,635	800,000	-0,016	0,040
-481,620	259,295	0,060	-0,076
-480,605	191,018	-0,037	-0,041
-479,591	800,000	0,021	0,053
-478,576	-100,164	-0,078	-0,014
-477,562	422,622	-0,068	-0,107
-476,547	-200,000	0,028	0,224
-475,532	-146,507	0,114	0,007
-474,518	108,261	-0,069	0,060
-473,503	-98,086	0,044	0,008
-472,489	-56,743	0,041	-0,013
-471,474	248,110	-0,132	-0,163
-470,459	-25,999	-0,065	-0,028
-469,445	-200,000	-0,010	0,074
-468,430	-195,467	-0,052	-0,000
-467,416	-115,380	-0,053	-0,007
-466,401	127,735	0,146	-0,135
-465,386	136,749	0,019	-0,018
-464,372	276,115	0,073	-0,094
-463,357	22,223	0,071	0,042
-462,343	700,389	0,046	-0,089
-461,328	-200,000	-0,036	-0,229
-460,313	-200,000	-0,036	0,169
-459,299	363,798	0,053	0,078
-458,284	20,180	0,086	0,051
-457,270	134,361	-0,032	-0,030
-456,255	-200,000	-0,024	-0,094
-455,241	23,666	0,097	-0,058
-454,226	800,000	0,021	0,051
-453,211	-133,534	-0,051	-0,005
-452,197	91,758	0,084	0,069
-451,182	727,611	0,032	0,063
-450,168	0,079	0,129	-0,067
-449,153	183,155	-0,035	0,038
-448,138	539,182	0,081	-0,141
-447,124	-19,681	-0,036	0,016
-446,109	-75,762	-0,078	0,020
-445,095	800,000	-0,009	-0,019
-444,080	209,746	-0,027	0,031
-443,065	-200,000	0,002	0,029
-442,051	-200,000	-0,019	-0,107
-441,036	14,369	-0,059	-0,033
-440,022	65,627	0,110	0,081
-439,007	-135,172	0,085	-0,007
-437,992	-129,869	0,080	-0,008
-436,978	160,735	0,093	0,094
-435,963	241,880	-0,097	-0,117
-434,949	-200,000	0,040	0,136
-433,934	-200,000	0,002	0,044
-432,919	800,000	0,046	-0,101
-431,905	-200,000	-0,023	0,185
-430,890	145,685	0,099	0,096
-429,876	-200,000	0,029	0,000
-428,861	295,440	0,033	0,044
-427,846	800,000	-0,034	-0,089
-426,832	15,316	-0,061	0,035
-425,817	174,293	0,003	0,003
-424,803	-200,000	0,008	0,091
-423,788	99,086	0,050	-0,042
-422,773	288,243	-0,042	-0,056
-421,759	-49,656	0,034	-0,012
-420,744	-144,278	0,019	0,001
-419,730	-127,240	-0,034	0,004
-418,715	121,630	0,046	-0,042
-417,701	800,000	0,036	-0,083
-416,686	374,323	-0,063	-0,093
-415,671	157,974	-0,032	0,032
-414,657	216,814	0,107	0,123
-413,642	-200,000	0,013	0,050
-412,628	142,870	-0,021	-0,021
-411,613	-119,656	0,117	0,015
-410,598	426,988	0,026	-0,041
-409,584	145,318	-0,087	0,084
-408,569	119,401	-0,122	0,110
-407,555	104,988	0,064	0,054
-406,540	-170,950	-0,058	-0,001
-405,525	329,895	0,040	0,055
-404,511	444,488	0,030	-0,048
-403,496	800,000	-0,071	-0,198
-402,482	77,207	-0,105	-0,081
-401,467	-16,366	0,197	0,090
-400,452	-41,114	-0,152	0,056
-399,438	62,794	0,084	0,061
-398,423	166,219	-0,131	0,134
-397,409	-200,000	0,028	-0,159
-396,394	-42,579	0,017	0,006
-395,379	203,925	0,053	-0,059
-394,365	-21,202	0,060	0,027
-393,350	24,654	-0,110	-0,066
-392,336	-101,261	0,145	-0,025
-391,321	31,994	0,118	0,074
-390,306	2,986	-0,090	-0,047
-389,292	-48,083	0,030	0,011
-388,277	110,532	0,046	0,040
-387,263	-200,000	0,000	0,004
-386,248	379,567	-0,062	0,092
-385,233	-200,000	0,004	0,066
-384,219	800,000	-0,071	-0,148
-383,204	-66,071	0,096	-0,028
-382,190	800,000	-0,041	-0,126
-381,175	208,186	0,067	-0,076
-380,160	345,369	0,023	-0,032
-379,146	-200,000	0,003	-0,080
-378,131	-160,619	-0,026	0,001
-377,117	598,888	0,031	-0,055
-376,102	-200,000	0,012	0,130
-375,088	-200,000	0,014	-0,116
-374,073	800,000	-0,029	0,088
-373,058	-38,683	0,098	0,037
-372,044	190,168	-0,076	0,082
-371,029	510,719	0,048	0,081
-370,015	-119,524	-0,253	-0,031
-369,000	-200,000	-0,009	-0,138
-367,985	800,000	-0,035	-0,078
-366,971	800,000	-0,014	-0,032
-365,956	-92,617	-0,104	0,021
-364,942	28,976	0,060	0,037
-363,927	74,139	0,106	-0,081
-362,912	49,093	-0,095	0,065
-361,898	800,000	-0,045	-0,108
-360,883	800,000	0,008	-0,025
-359,869	55,656	0,064	-0,045
-358,854	-200,000	-0,006	0,025
-357,839	-200,000	0,016	0,125
-356,825	-124,396	0,059	0,007
-355,810	346,287	0,021	0,030
-354,796	800,000	0,032	-0,092
-353,781	209,895	-0,020	-0,022
-352,766	-200,000	-0,013	0,123
-351,752	-185,805	0,184	0,002
-350,737	391,594	0,034	-0,051
-349,723	681,221	0,069	0,131
-348,708	-124,549	-0,017	0,002
-347,693	-176,250	0,105	-0,002
-346,679	-25,505	-0,057	0,024
-345,664	-157,976	-0,191	0,008
-344,650	800,000	-0,038	-0,103
-343,635	800,000	0,034	0,097
-342,620	-146,318	0,082	0,005
-341,606	-156,055	-0,082	-0,004
-340,591	231,016	0,124	0,147
-339,577	-200,000	0,011	-0,042
-338,562	-144,251	0,025	-0,002
-337,548	14,485	0,109	-0,062
-336,533	-117,409	0,086	0,011
-335,518	800,000	-0,093	0,202
-334,504	-200,000	-0,028	0,185
-333,489	44,033	-0,111	0,073
-332,475	275,994	-0,065	0,083
-331,460	-5,474	-0,143	-0,071
-330,445	229,721	0,030	-0,036
-329,431	800,000	0,043	-0,135
-328,416	-80,100	0,140	0,034
-327,402	-200,000	0,018	0,057
-326,387	370,104	-0,049	-0,071
-325,372	-164,509	-0,044	-0,001
-324,358	16,367	0,085	-0,049
-323,343	800,000	0,060	0,127
-322,329	-189,959	-0,130	-0,001
-321,314	-200,000	0,020	-0,079
-320,299	352,620	-0,041	-0,059
-319,285	-72,230	-0,108	0,029
-318,270	400,929	0,038	0,057
-317,256	-200,000	0,002	0,063
-316,241	-180,592	0,108	0,002
-315,226	-86,612	0,181	0,040
-314,212	-74,097	0,086	0,022
-313,197	-200,000	-0,005	-0,024
-312,183	-78,220	-0,094	-0,023
-311,168	-200,000	0,010	0,082
-310,153	-39,333	-0,138	0,052
-309,139	381,990	0,054	0,080
-308,124	92,163	0,063	-0,051
-307,110	82,316	-0,039	0,031
-306,095	646,489	0,052	0,096
-305,080	50,783	-0,065	0,044
-304,066	262,379	0,012	0,015
-303,051	30,298	-0,010	-0,006
-302,037	-63,933	-0,043	-0,012
-301,022	-41,629	0,020	0,007
-300,008	-171,149	-0,093	-0,002
-298,993	144,973	-0,089	0,086
-297,978	800,000	-0,045	0,110
-296,964	800,000	-0,022	-0,045
-295,949	20,048	0,020	0,012
-294,935	-200,000	-0,021	-0,155
-293,920	406,707	-0,036	-0,055
-292,905	186,014	0,050	-0,053
-291,891	-200,000	0,003	0,105
-290,876	-120,987	-0,107	0,013
-289,862	-200,000	-0,008	-0,123
-288,847	328,062	0,089	-0,123
-287,832	-200,000	-0,051	-0,190
-286,818	115,671	0,038	-0,034
-285,803	-200,000	0,006	-0,100
-284,789	-200,000	0,016	-0,128
-283,774	33,176	-0,101	-0,063
-282,759	435,899	0,140	0,221
-281,745	182,749	-0,116	-0,124
-280,730	-147,011	0,101	-0,006
-279,716	125,430	-0,103	0,093
-278,701	203,040	0,051	-0,057
-277,686	800,000	0,018	0,047
-276,672	346,480	0,036	0,051
-275,657	-177,930	-0,067	0,001
-274,643	373,494	-0,070	0,103
-273,628	156,912	0,069	-0,068
-272,613	203,845	-0,107	0,120
-271,599	26,433	0,098	-0,059
-270,584	800,000	-0,029	0,086
-269,570	800,000	0,031	0,090
-268,555	-95,615	0,067	0,013
-267,540	-122,085	-0,122	0,014
-266,526	-200,000	-0,026	-0,087
-265,511	62,141	0,094	-0,067
-264,497	26,167	0,143	0,086
-263,482	0,714	-0,057	-0,030
-262,467	136,618	-0,055	-0,052
-261,453	237,052	0,117	0,140
-260,438	147,664	-0,061	0,060
-259,424	-200,000	0,017	-0,080
-258,409	-170,115	-0,069	0,002
-257,395	-200,000	0,014	0,076
-256,380	-137,135	0,168	-0,014
-255,365	-200,000	0,024	0,140
-254,351	172,999	0,036	0,037
-253,336	-200,000	-0,015	0,079
-252,322	-14,919	-0,048	-0,022
-251,307	-200,000	-0,013	-0,046
-250,292	-200,000	-0,019	-0,100
-249,278	10,781	0,048	0,026
-248,263	90,598	0,082	0,067
-247,249	-200,000	0,008	0,086
-246,234	-148,022	-0,185	-0,011
-245,219	316,252	-0,061	-0,083
-244,205	800,000	-0,053	-0,157
-243,190	155,320	0,022	0,022
-242,176	-149,553	-0,058	0,003
-241,161	-67,691	-0,028	-0,008
-240,146	330,454	0,119	0,165
-239,132	-159,688	0,101	0,004
-238,117	201,674	-0,095	0,106
-237,103	-200,000	0,004	-0,063
-236,088	478,631	-0,051	-0,083
-235,073	-200,000	-0,009	0,083
-234,059	11,415	-0,051	-0,028
-233,044	-21,063	-0,018	0,008
-232,030	-57,754	-0,045	0,014
-231,015	800,000	-0,042	-0,125
-230,000	283,388	-0,055	-0,072
-228,986	-200,000	0,018	-0,117
-227,971	-117,340	0,096	0,012
-226,957	800,000	-0,061	0,125
-225,942	-15,493	0,175	0,080
-224,927	-71,771	0,042	-0,011
-223,913	-51,460	-0,181	-0,060
-222,898	-107,518	-0,111	0,017
-221,884	-163,157	-0,063	0,002
-220,869	223,506	0,043	0,050
-219,855	-200,000	0,023	0,108
-218,840	2,148	0,074	0,038
-217,825	-76,515	-0,124	-0,031
-216,811	741,948	0,034	0,065
-215,796	-28,989	0,012	-0,005
-214,782	7,595	-0,059	-0,032
-213,767	55,387	-0,056	-0,039
-212,752	-200,000	-0,011	-0,064
-211,738	50,444	0,107	0,073
-210,723	800,000	0,034	0,105
-209,709	-46,877	-0,145	-0,051
-208,694	-15,286	-0,085	-0,039
-207,679	69,207	-0,071	-0,052
-206,665	-14,835	-0,057	0,026
-205,650	-200,000	0,010	0,064
-204,636	-122,799	0,109	-0,012
-203,621	800,000	0,071	0,159
-202,606	-200,000	-0,026	0,109
-201,592	-161,539	0,215	-0,008
-200,577	-29,575	-0,092	0,038
-199,563	205,214	0,079	-0,088
-198,548	-77,331	0,057	0,014
-197,533	-61,774	-0,098	-0,029
-196,519	102,600	-0,107	0,090
-195,504	-45,885	0,065	-0,023
-194,490	800,000	0,030	-0,075
-193,475	-7,114	-0,047	0,023
-192,460	-200,000	-0,008	0,151
-191,446	493,130	0,011	0,018
-190,431	-135,879	-0,134	-0,011
-189,417	-29,147	0,066	0,027
-188,402	54,819	-0,115	-0,080
-187,387	800,000	-0,048	-0,146
-186,373	800,000	0,050	-0,123
-185,358	-142,304	0,037	0,003
-184,344	11,340	0,059	0,032
-183,329	189,447	0,068	0,073
-182,315	800,000	-0,005	-0,016
-181,300	780,854	-0,080	-0,158
-180,285	344,771	-0,045	-0,064
-179,271	57,673	0,027	-0,019
-178,256	23,145	-0,139	0,082
-177,242	-200,000	-0,000	0,019
-176,227	-60,383	-0,058	0,018
-175,212	-174,126	0,137	-0,003
-174,198	-104,537	0,067	0,011
-173,183	-16,557	-0,144	-0,065
-172,169	395,699	-0,070	-0,105
-171,154	788,258	-0,058	-0,116
-170,139	86,448	0,101	0,080
-169,125	53,858	-0,109	0,075
-168,110	156,522	-0,101	-0,101
-167,096	-133,213	-0,034	-0,003
-166,081	800,000	0,037	-0,089
-165,066	800,000	-0,031	-0,078
-164,052	800,000	-0,019	0,050
-163,037	71,360	0,108	-0,081
-162,023	-200,000	-0,006	-0,019
-161,008	-63,755	0,150	0,044
-159,993	-200,000	0,025	-0,131
-158,979	800,000	-0,030	-0,080
-157,964	-2,593	0,057	0,028
-156,950	-109,620	0,079	0,012
-155,935	61,435	0,066	0,047
-154,920	155,745	-0,084	0,083
-153,906	649,528	-0,040	-0,075
-152,891	609,696	0,046	0,083
-151,877	30,548	0,136	-0,083
-150,862	154,118	-0,073	-0,071
-149,847	48,728	-0,129	-0,087
-148,833	-61,698	0,030	0,009
-147,818	-200,000	0,011	-0,034
-146,804	-1,695	-0,145	0,073
-145,789	800,000	0,044	0,117
-144,775	193,975	-0,076	0,083
-143,760	800,000	0,039	0,080
-142,745	172,700	0,026	-0,027
-141,731	-67,571	-0,085	0,024
-140,716	-136,206	0,097	-0,008
-139,702	-200,000	-0,019	-0,108
-138,687	338,171	-0,143	-0,200
-137,672	-27,361	0,037	0,015
-136,658	-2,744	-0,060	0,030
-135,643	-200,000	0,013	0,119
-134,629	-62,949	0,040	0,012
-133,614	32,210	0,062	0,038
-132,599	343,814	0,129	0,181
-131,585	-19,455	-0,032	-0,014
-130,570	15,153	-0,231	0,130
-129,556	-200,000	-0,001	-0,118
-128,541	127,041	0,180	0,164
-127,526	-23,943	-0,134	0,057
-126,512	41,187	-0,004	0,003
-125,497	-66,376	0,105	0,030
-124,483	640,464	-0,123	-0,226
-123,468	-127,356	-0,100	-0,010
-122,453	470,945	-0,052	0,083
-121,439	-30,969	0,098	-0,039
-120,424	-168,012	-0,079	0,002
-119,410	-74,398	-0,109	0,028
-118,395	107,917	0,157	-0,134
-117,380	800,000	0,067	0,170
-116,366	800,000	-0,022	0,050
-115,351	-27,200	-0,202	-0,084
-114,337	-83,808	-0,099	-0,022
-113,322	-200,000	0,008	-0,091
-112,307	-200,000	-0,013	0,087
-111,293	-200,000	0,038	0,137
-110,278	-9,561	-0,063	0,030
-109,264	-158,275	-0,112	-0,005
-108,249	-200,000	0,005	-0,090
-107,234	110,785	-0,076	-0,066
-106,220	-200,000	0,008	0,067
-105,205	190,992	-0,050	0,054
-104,191	314,755	0,076	-0,102
-103,176	95,719	0,038	0,031
-102,162	800,000	0,055	0,151
-101,147	533,037	0,038	-0,064
-100,132	800,000	-0,049	-0,129
-99,118	197,112	0,042	0,046
-98,103	385,164	-0,047	-0,069
-97,089	35,976	0,066	0,041
-96,074	47,329	-0,114	0,076
-95,059	-200,000	0,025	0,179
-94,045	-141,642	0,067	-0,005
-93,030	648,826	0,071	-0,131
-92,016	453,566	0,062	-0,099
-91,001	238,003	0,033	-0,039
-89,986	-143,157	0,038	0,003
-88,972	-200,000	0,001	-0,023
-87,957	-14,366	0,050	0,023
-86,943	551,138	0,041	-0,071
-85,928	800,000	0,023	0,055
-84,913	-111,844	0,067	-0,010
-83,899	273,666	0,045	-0,057
-82,884	-200,000	-0,028	0,134
-81,870	-200,000	0,021	0,105
-80,855	41,106	0,099	-0,064
-79,840	466,258	-0,061	0,098
-78,826	67,587	0,060	0,044
-77,811	-200,000	-0,011	-0,085
-76,797	386,671	-0,048	-0,072
-75,782	7,515	-0,072	-0,039
-74,767	168,819	0,125	0,128
-73,753	798,903	0,018	-0,036
-72,738	-116,296	0,027	0,004
-71,724	-200,000	0,032	-0,115
-70,709	-19,038	-0,056	-0,025
-69,694	68,007	-0,109	0,080
-68,680	-200,000	0,064	-0,301
-67,665	-17,723	0,140	-0,063
-66,651	59,386	0,048	0,034
-65,636	92,235	0,071	0,057
-64,622	525,143	-0,061	-0,104
-63,607	800,000	0,080	-0,189
-62,592	110,925	-0,031	-0,027
-61,578	325,123	0,046	0,063
-60,563	-95,120	-0,065	0,012
-59,549	330,641	0,035	-0,048
-58,534	53,916	-2,353	-1,614
-57,519	-200,000	0,132	-0,644
-56,505	-200,000	-1,531	-5,267
-55,490	134,271	0,958	0,888
-54,476	800,000	5,499	12,341
-53,461	-200,000	19,437	328,612
-52,446	800,000	745,912	2322,254
-51,432	545,529	1654,474	2838,034
-50,417	114,255	1634,913	1422,446
-49,403	80,301	1284,204	987,187
-48,388	30,466	1025,688	625,298
-47,373	19,142	988,594	565,468
-46,359	15,961	976,457	548,106
-45,344	12,622	972,936	535,203
-44,330	12,988	971,309	535,482
-43,315	12,241	969,311	531,923
-42,300	12,157	968,376	531,114
-41,286	12,123	967,495	530,500
-40,271	12,104	966,455	529,849
-39,257	12,145	965,500	529,438
-38,242	12,140	964,640	528,928
-37,227	12,113	963,732	528,322
-36,213	12,140	962,871	527,916
-35,198	12,078	962,130	527,288
-34,184	12,113	961,387	526,974
-33,169	12,071	960,459	526,309
-32,154	12,119	959,567	525,954
-31,140	12,201	958,534	525,629
-30,125	12,193	957,843	525,204
-29,111	12,155	956,825	524,503
-28,096	12,171	956,373	524,287
-27,082	12,100	955,542	523,580
-26,067	12,156	954,906	523,391
-25,052	12,160	954,200	522,997
-24,038	12,139	953,467	522,507
-23,023	12,121	952,881	522,109
-22,009	12,181	952,274	521,946
-20,994	12,206	951,462	521,561
-19,979	12,161	951,123	521,211
-18,965	12,195	950,496	520,956
-17,950	12,210	949,767	520,581
-16,936	12,135	949,135	519,976
-15,921	12,096	948,434	519,447
-14,906	12,059	947,655	518,881
-13,892	12,038	946,951	518,409
-12,877	11,986	946,512	517,983
-11,863	12,016	945,660	517,592
-10,848	12,020	945,363	517,421
-9,833	12,134	944,881	517,500
-8,819	12,124	944,024	516,977
-7,804	12,106	943,417	516,567
-6,790	12,011	942,967	515,997
-5,775	12,084	942,476	515,940
-4,760	12,136	941,693	515,656
-3,746	12,027	941,010	514,916
-2,731	11,877	940,459	514,121
-1,717	11,806	939,787	513,509
-0,702	11,900	938,949	513,329
0,313	11,712	938,347	513,182
1,327	15,493	936,289	523,898
2,342	25,163	786,877	465,644
3,356	21,864	442,844	257,177
4,371	-6,562	297,159	144,069
5,386	-10,345	279,129	131,718
6,400	-11,463	273,450	127,983
7,415	-11,361	271,026	126,931
8,429	-11,620	269,452	125,945
9,444	-11,829	268,479	125,288
10,459	-11,905	267,918	124,945
11,473	-11,940	267,306	124,617
12,488	-12,217	266,653	124,049
13,502	-12,228	266,003	123,726
14,517	-12,230	265,659	123,553
15,531	-12,285	265,064	123,216
16,546	-12,356	264,936	123,081
17,561	-12,273	264,278	122,839
18,575	-12,416	264,156	122,643
19,590	-12,249	263,701	122,570
20,604	-12,378	263,541	122,370
21,619	-12,384	263,249	122,218
22,634	-12,285	262,593	121,991
23,648	-12,406	262,415	121,789
24,663	-12,463	262,224	121,638
25,677	-12,446	261,854	121,471
26,692	-12,576	261,669	121,259
27,707	-12,447	261,440	121,256
28,721	-12,443	261,085	121,085
29,736	-12,373	260,780	120,995
30,750	-12,555	260,579	120,729
31,765	-12,417	260,207	120,669
32,780	-12,509	260,157	120,553
33,794	-12,492	259,809	120,396
34,809	-12,523	259,531	120,229
35,823	-12,568	259,396	120,116
36,838	-12,552	259,061	119,965
37,853	-12,647	258,699	119,702
38,867	-12,630	258,518	119,623
39,882	-12,571	258,321	119,573
40,896	-12,662	258,155	119,406
41,911	-12,715	257,753	119,163
42,926	-12,652	257,591	119,132
43,940	-12,696	257,324	118,960
44,955	-12,699	257,059	118,824
45,969	-12,744	256,989	118,741
46,984	-13,245	256,547	118,090
47,999	-13,200	256,424	118,062
49,013	-13,229	256,051	117,854
50,028	-13,414	255,839	117,585
51,042	-13,393	255,605	117,486
52,057	-13,357	255,203	117,322
53,071	-13,599	255,216	117,107
54,086	-13,438	254,990	117,132
55,101	-13,316	254,882	117,178
56,115	-12,835	254,701	117,500
57,130	-12,549	254,732	117,752
58,144	-12,089	254,450	118,009
59,159	-12,024	254,145	117,913
60,174	-12,242	254,091	117,689
61,188	-12,266	253,762	117,506
62,203	-12,432	253,563	117,260
63,217	-12,556	253,529	117,128
64,232	-12,436	253,200	117,068
65,247	-12,319	252,997	117,064
66,261	-12,357	252,651	116,861
67,276	-12,692	252,312	116,407
68,290	-12,930	252,250	116,164
69,305	-12,763	251,687	116,037
70,320	-12,978	251,657	115,830
71,334	-12,379	251,527	116,270
72,349	-12,223	251,396	116,332
73,363	-12,180	251,303	116,316
74,378	-12,296	251,051	116,090
75,393	-12,319	250,723	115,909
76,407	-12,291	250,477	115,808
77,422	-12,563	250,358	115,512
78,436	-12,362	250,200	115,599
79,451	-12,388	249,887	115,422
80,466	-12,689	249,669	115,057
81,480	-12,978	249,555	114,749
82,495	-12,756	249,178	114,753
83,509	-12,659	249,030	114,757
84,524	-12,873	248,799	114,460
85,539	-12,907	248,628	114,342
86,553	-13,036	248,454	114,144
87,568	-12,794	248,162	114,202
88,582	-12,978	248,161	114,037
89,597	-12,993	247,926	113,906
90,611	-12,456	247,731	114,257
91,626	-12,767	247,774	114,006
92,641	-12,464	247,365	114,061
93,655	-12,631	247,173	113,823
94,670	-12,579	246,870	113,717
95,684	-12,786	246,846	113,523
96,699	-12,787	246,568	113,384
97,714	-12,683	246,242	113,310
98,728	-12,857	246,083	113,082
99,743	-13,011	245,903	112,860
100,757	-12,869	245,607	112,833
101,772	-12,782	245,541	112,865
102,787	-12,707	245,397	112,851
103,801	-12,704	245,304	112,801
104,816	-12,574	245,151	112,829
105,830	-12,428	244,910	112,828
106,845	-12,232	244,848	112,952
107,860	-12,381	244,460	112,640
108,874	-12,449	244,318	112,507
109,889	-12,622	244,131	112,269
110,903	-12,653	243,921	112,137
111,918	-12,776	243,730	111,938
112,933	-12,794	243,705	111,901
113,947	-12,467	243,375	112,009
114,962	-12,597	243,201	111,812
115,976	-12,539	243,167	111,834
116,991	-12,508	242,917	111,734
118,006	-12,656	242,804	111,551
119,020	-12,521	242,534	111,528
120,035	-12,486	242,402	111,486
121,049	-12,643	242,330	111,315
122,064	-12,419	241,946	111,311
123,079	-12,428	241,904	111,274
124,093	-12,792	241,634	110,843
125,108	-12,830	241,213	110,609
126,122	-12,916	241,132	110,492
127,137	-13,143	240,957	110,218
128,151	-13,091	240,761	110,160
129,166	-12,797	240,604	110,317
130,181	-12,693	240,377	110,288
131,195	-12,908	240,260	110,050
132,210	-12,687	240,122	110,156
133,224	-12,531	239,962	110,199
134,239	-12,479	239,858	110,183
135,254	-12,487	239,788	110,135
136,268	-12,577	239,418	109,883
137,283	-12,869	239,046	109,467
138,297	-13,045	238,864	109,232
139,312	-12,965	238,870	109,289
140,327	-12,701	238,689	109,410
141,341	-11,896	238,538	109,978
142,356	-12,028	238,501	109,845
143,370	-11,892	238,349	109,875
144,385	-12,061	238,387	109,746
145,400	-12,099	238,148	109,595
146,414	-12,058	237,871	109,491
147,429	-12,310	237,729	109,214
148,443	-12,243	237,431	109,121
149,458	-12,376	237,465	109,021
150,473	-12,146	237,114	109,034
151,487	-12,349	237,032	108,824
152,502	-12,231	236,799	108,802
153,516	-12,065	236,640	108,851
154,531	-12,140	236,355	108,651
155,546	-12,382	236,311	108,428
156,560	-12,274	236,141	108,426
157,575	-12,478	235,897	108,143
158,589	-12,184	235,755	108,301
159,604	-12,106	235,678	108,318
160,619	-12,069	235,425	108,221
161,633	-11,821	235,184	108,298
162,648	-12,084	235,205	108,089
163,662	-12,102	234,956	107,951
164,677	-12,273	234,721	107,698
165,692	-12,251	234,694	107,693
166,706	-11,909	234,506	107,868
167,721	-12,032	234,366	107,697
168,735	-11,861	234,128	107,712
169,750	-12,060	234,127	107,546
170,764	-12,067	233,820	107,389
171,779	-12,093	233,600	107,258
172,794	-11,784	233,616	107,499
173,808	-12,032	233,364	107,178
174,823	-12,596	232,980	106,551
175,837	-12,773	232,781	106,312
176,852	-12,486	232,918	106,590
177,867	-12,207	232,834	106,761
178,881	-12,069	232,547	106,727
179,896	-11,984	232,329	106,684
180,910	-12,043	232,282	106,607
181,925	-11,856	232,126	106,671
182,940	-12,057	231,907	106,404
183,954	-11,758	231,935	106,641
184,969	-11,934	231,741	106,406
185,983	-11,796	231,627	106,450
186,998	-11,828	231,377	106,302
188,013	-11,773	231,297	106,298
189,027	-11,788	231,078	106,176
190,042	-11,750	230,815	106,075
191,056	-11,916	230,788	105,925
192,071	-11,795	230,558	105,904
193,086	-11,838	230,414	105,795
194,100	-11,507	230,434	106,051
195,115	-11,703	230,072	105,723
196,129	-11,294	230,442	106,200
197,144	-5,681	231,875	111,212
198,159	-0,522	233,656	116,085
199,173	2,462	234,476	118,814
200,188	2,784	234,413	119,023
201,202	2,831	234,239	118,960
202,217	3,010	234,126	119,032
203,232	3,392	233,991	119,250
204,246	3,297	234,014	119,177
205,261	3,564	233,689	119,208
206,275	3,765	233,630	119,324
207,290	3,890	233,517	119,352
208,304	3,530	233,425	119,015
209,319	3,595	233,241	118,962
210,334	3,351	233,011	118,644
211,348	3,318	232,718	118,459
212,363	3,076	232,477	118,138
213,377	2,865	232,254	117,852
214,392	2,545	232,227	117,581
215,407	2,987	232,059	117,826
216,421	3,052	231,916	117,793
217,436	3,045	231,630	117,632
218,450	2,639	231,553	117,270
219,465	2,479	231,476	117,098
220,480	2,541	231,310	117,051
221,494	2,490	230,978	116,833
222,509	2,763	231,070	117,079
223,523	2,989	230,925	117,169
224,538	2,914	230,628	116,950
225,553	2,891	230,514	116,864
226,567	3,101	230,317	116,914
227,582	3,028	230,325	116,852
228,596	3,134	230,248	116,883
229,611	2,609	230,056	116,374
230,626	2,663	229,700	116,226
231,640	2,663	229,465	116,096
232,655	3,107	229,448	116,416
233,669	3,298	229,454	116,554
234,684	3,587	229,212	116,640
235,699	3,314	229,071	116,350
236,713	2,887	228,996	115,977
237,728	2,720	228,792	115,737
238,742	2,580	228,574	115,510
239,757	2,907	228,261	115,589
240,772	2,857	228,208	115,514
241,786	2,726	228,145	115,373
242,801	2,928	228,110	115,498
243,815	3,411	228,084	115,840
244,830	3,298	227,859	115,630
245,844	2,885	227,615	115,184
246,859	2,917	227,326	115,051
247,874	3,140	227,245	115,168
248,888	3,287	227,151	115,221
249,903	3,287	227,011	115,140
250,917	2,780	226,874	114,679
251,932	2,900	226,600	114,620
252,947	2,458	226,597	114,276
253,961	2,951	226,216	114,444
254,976	2,935	226,187	114,407
255,990	3,080	226,096	114,459
257,005	2,963	225,977	114,301
258,020	3,133	225,894	114,376
259,034	3,292	225,748	114,411
260,049	3,225	225,462	114,206
261,063	2,983	225,412	113,990
262,078	3,263	225,215	114,089
263,093	3,289	225,094	114,036
264,107	3,217	224,961	113,906
265,122	3,272	224,940	113,926
266,136	3,329	224,718	113,845
267,151	3,246	224,648	113,738
268,166	2,882	224,382	113,323
269,180	2,651	224,038	112,968
270,195	2,989	223,983	113,180
271,209	2,663	223,859	112,866
272,224	2,737	223,850	112,906
273,239	2,999	223,555	112,941
274,253	2,836	223,557	112,812
275,268	2,643	223,422	112,591
276,282	2,561	223,091	112,353
277,297	2,486	222,945	112,215
278,312	2,872	222,880	112,456
279,326	2,890	222,799	112,419
280,341	2,809	222,601	112,249
281,355	3,084	222,474	112,378
282,370	3,105	222,382	112,337
283,384	2,659	222,008	111,810
284,399	2,674	221,883	111,749
285,414	2,627	221,859	111,692
286,428	2,889	221,726	111,807
287,443	2,923	221,691	111,804
288,457	3,094	221,507	111,826
289,472	2,882	221,268	111,541
290,487	2,409	221,050	111,076
291,501	2,544	220,907	111,093
292,516	2,526	220,752	110,992
293,530	2,651	220,666	111,030
294,545	2,741	220,463	110,983
295,560	2,785	220,456	111,001
296,574	2,733	220,543	110,998
297,589	2,792	220,125	110,820
298,603	2,765	220,083	110,770
299,618	2,986	220,034	110,896
300,633	2,993	219,828	110,787
301,647	3,209	219,642	110,839
302,662	3,004	219,587	110,653
303,676	3,025	219,399	110,564
304,691	3,102	219,491	110,657
305,706	3,220	219,039	110,504
306,720	2,981	219,071	110,338
307,735	2,780	218,726	110,009
308,749	2,629	218,585	109,819
309,764	2,812	218,660	109,979
310,779	3,044	218,519	110,066
311,793	3,198	218,118	109,965
312,808	2,955	218,035	109,738
313,822	3,209	217,876	109,831
314,837	2,945	217,727	109,556
315,852	2,617	217,650	109,273
316,866	2,847	217,503	109,354
317,881	3,292	217,451	109,637
318,895	3,040	217,331	109,387
319,910	2,840	217,087	109,111
320,925	2,777	216,839	108,931
321,939	2,529	216,652	108,650
322,954	2,554	216,701	108,683
323,968	2,990	216,597	108,933
324,983	3,016	216,436	108,860
325,997	3,189	216,361	108,936
327,012	3,016	216,072	108,658
328,027	3,038	216,106	108,681
329,041	3,167	216,068	108,744
330,056	3,493	215,773	108,817
331,070	2,854	215,517	108,225
332,085	2,560	215,367	107,932
333,100	2,421	215,169	107,724
334,114	2,759	214,984	107,862
335,129	2,877	215,204	108,046
336,143	2,968	214,999	107,997
337,158	2,963	214,840	107,905
338,173	2,941	214,633	107,775
339,187	2,935	214,447	107,668
340,202	2,821	214,336	107,523
341,216	2,610	214,227	107,310
342,231	2,874	214,000	107,372
343,246	2,723	213,861	107,187
344,260	2,669	213,786	107,102
345,275	3,000	213,712	107,288
346,289	3,015	213,737	107,301
347,304	3,200	213,399	107,252
348,319	2,876	213,211	106,920
349,333	2,702	213,409	106,888
350,348	3,069	212,973	106,916
351,362	3,220	213,055	107,054
352,377	3,076	212,944	106,888
353,392	2,918	212,627	106,609
354,406	3,076	212,582	106,687
355,421	197,547	1334,844	1413,332
356,435	157,940	1471,500	1413,246
