DTS Sentinel unit serial number:	SN410029Multiplexer serial number:	ORYXHardware model number:	OX2-SRSoftware version number:	ORYX F/W v4,00 Oryx Data Collector v3.7.2.0data status	okinstallation	B6 Nyhavnadifferential loss correction	single-endedforward channel	channel 2reverse channel	N/Adate	2023/12/09time	10:55:08forward acquisition time	300,00reverse acquisition time	0,00gamma	499,1914k internal	0,3139k external	0,3139temperature offset calibration	1,0000default loss term (dB/km)	0,3820temperature slope calibration	1,0000multiplexer offset coefficient	1,0000multiplexer slope coefficient	1,0000fibre end	0,00T internal ref (°C)	18,66T ext. ref 1 (°C)	2,49T ext. ref 2 (°C)	2,47length (m)	temperature (°C)	Stokes	anti-Stokes-744,400	-55,468	0,085	-0,028
-743,385	-90,888	-0,357	0,076
-742,371	0,597	0,095	0,050
-741,356	60,412	-0,235	0,172
-740,342	410,688	-0,023	0,036
-739,327	-103,109	-0,194	0,034
-738,312	100,331	0,157	0,135
-737,298	-26,799	-0,325	0,140
-736,283	328,398	0,085	-0,122
-735,269	37,686	-0,177	0,117
-734,254	-9,687	0,109	0,054
-733,239	-90,511	-0,361	-0,077
-732,225	-105,224	0,222	0,037
-731,210	-200,000	-0,014	0,047
-730,196	-10,737	-0,105	0,051
-729,181	256,202	-0,018	-0,023
-728,167	-51,405	-0,060	-0,021
-727,152	-200,000	0,022	-0,134
-726,137	-74,710	-0,056	-0,015
-725,123	-90,974	-0,141	-0,030
-724,108	800,000	-0,016	-0,042
-723,094	-24,983	-0,024	0,011
-722,079	-200,000	0,034	-0,159
-721,064	-52,601	0,031	0,010
-720,050	8,901	-0,025	0,014
-719,035	577,257	0,100	-0,181
-718,021	352,143	0,053	-0,078
-717,006	51,542	-0,057	-0,040
-715,991	13,231	-0,170	-0,097
-714,977	-200,000	0,028	-0,176
-713,962	-200,000	0,007	-0,027
-712,948	50,143	-0,089	-0,062
-711,933	-39,933	0,075	-0,029
-710,918	118,239	-0,080	-0,073
-709,904	-200,000	0,007	-0,092
-708,889	-182,266	-0,103	0,001
-707,875	-119,671	0,037	0,005
-706,860	-102,261	-0,050	-0,009
-705,845	-4,957	0,080	-0,041
-704,831	94,474	0,075	0,063
-703,816	410,203	-0,034	0,053
-702,802	107,341	-0,023	0,020
-701,787	800,000	0,036	-0,081
-700,772	263,405	0,132	-0,170
-699,758	-200,000	0,008	0,109
-698,743	599,389	-0,040	0,075
-697,729	-5,737	0,044	-0,022
-696,714	187,915	-0,021	-0,023
-695,699	773,270	-0,028	-0,056
-694,685	-200,000	-0,007	-0,201
-693,670	800,000	0,018	0,045
-692,656	244,737	-0,008	0,009
-691,641	445,799	0,033	0,053
-690,627	642,228	-0,039	0,074
-689,612	-176,545	-0,064	0,001
-688,597	220,654	0,082	0,097
-687,583	-119,110	-0,127	0,016
-686,568	-200,000	0,023	0,146
-685,554	675,765	0,046	-0,088
-684,539	-200,000	-0,037	-0,135
-683,524	132,616	0,061	-0,058
-682,510	-9,123	-0,150	0,074
-681,495	-90,232	-0,020	0,004
-680,481	106,879	0,040	0,035
-679,466	-138,838	-0,073	-0,006
-678,451	-42,846	0,137	-0,051
-677,437	21,919	0,103	0,062
-676,422	-103,183	0,034	0,006
-675,408	338,228	-0,046	-0,066
-674,393	-109,069	-0,069	0,011
-673,378	139,546	0,103	-0,101
-672,364	-92,888	-0,155	-0,032
-671,349	8,302	0,007	-0,004
-670,335	-107,331	0,054	-0,009
-669,320	-200,000	-0,013	0,109
-668,305	-133,091	-0,116	-0,011
-667,291	-62,407	-0,124	0,038
-666,276	-200,000	0,019	-0,063
-665,262	800,000	-0,053	-0,144
-664,247	800,000	-0,008	-0,017
-663,232	547,308	0,071	-0,126
-662,218	-200,000	0,022	-0,071
-661,203	21,542	0,073	0,044
-660,189	500,810	-0,091	0,156
-659,174	-200,000	0,012	-0,063
-658,159	8,009	0,060	-0,033
-657,145	-200,000	0,002	0,063
-656,130	212,245	-0,041	0,048
-655,116	199,600	0,031	0,036
-654,101	52,509	-0,093	0,066
-653,086	-24,542	-0,040	0,017
-652,072	-104,168	0,070	0,012
-651,057	70,521	-0,156	-0,119
-650,043	264,145	-0,098	-0,126
-649,028	44,314	-0,093	0,063
-648,014	-55,859	-0,081	0,026
-646,999	231,780	0,121	0,147
-645,984	289,075	-0,100	0,134
-644,970	221,296	-0,109	-0,129
-643,955	-33,677	0,094	-0,038
-642,941	259,123	-0,042	-0,054
-641,926	47,207	-0,113	-0,077
-640,911	376,804	-0,036	0,055
-639,897	357,866	0,087	-0,128
-638,882	26,676	-0,086	-0,053
-637,868	-60,782	0,053	-0,016
-636,853	197,008	-0,121	-0,137
-635,838	-92,523	-0,097	-0,020
-634,824	-142,774	0,100	0,007
-633,809	25,674	0,034	0,021
-632,795	123,297	-0,051	-0,048
-631,780	800,000	0,043	0,117
-630,765	552,420	-0,036	0,064
-629,751	-119,086	-0,011	0,001
-628,736	-200,000	0,025	-0,141
-627,722	49,269	-0,036	0,025
-626,707	-44,956	-0,080	-0,029
-625,692	-200,000	0,006	0,038
-624,678	345,415	0,057	0,083
-623,663	-53,609	0,150	0,050
-622,649	28,507	-0,155	-0,097
-621,634	45,314	0,078	-0,053
-620,619	-48,948	-0,125	0,044
-619,605	36,764	0,109	0,071
-618,590	800,000	-0,068	0,177
-617,576	52,574	-0,092	-0,064
-616,561	70,098	-0,107	-0,082
-615,546	-141,155	-0,113	0,008
-614,532	-53,348	-0,108	-0,036
-613,517	577,797	0,081	-0,147
-612,503	2,601	0,012	-0,006
-611,488	-83,558	0,056	-0,013
-610,474	-200,000	0,014	-0,085
-609,459	-107,833	0,117	-0,019
-608,444	-200,000	-0,030	0,114
-607,430	-159,916	-0,073	0,003
-606,415	800,000	-0,026	-0,084
-605,401	46,894	-0,033	-0,023
-604,386	-82,191	0,108	0,026
-603,371	46,678	0,007	0,005
-602,357	160,029	0,129	-0,133
-601,342	139,834	-0,071	-0,069
-600,328	49,874	-0,143	0,099
-599,313	-165,589	-0,104	-0,003
-598,298	-200,000	0,004	0,042
-597,284	382,506	-0,042	-0,063
-596,269	800,000	0,042	-0,110
-595,255	225,957	0,037	0,045
-594,240	502,494	-0,024	0,041
-593,225	-65,730	0,050	0,015
-592,211	108,337	0,043	-0,038
-591,196	-200,000	0,006	0,055
-590,182	41,002	-0,113	0,075
-589,167	280,685	0,058	0,076
-588,152	463,389	-0,026	0,043
-587,138	-175,010	-0,090	0,002
-586,123	-200,000	-0,008	-0,057
-585,109	250,204	-0,017	-0,021
-584,094	386,617	-0,018	0,027
-583,079	-200,000	-0,000	0,030
-582,065	295,800	-0,053	-0,072
-581,050	-109,932	0,023	-0,003
-580,036	-81,906	-0,046	-0,011
-579,021	-118,768	-0,115	-0,015
-578,006	-200,000	-0,000	-0,023
-576,992	-37,223	-0,044	-0,017
-575,977	-110,630	0,067	-0,010
-574,963	-130,190	0,106	0,010
-573,948	457,907	0,010	0,016
-572,934	800,000	-0,028	0,064
-571,919	-200,000	0,019	0,145
-570,904	-200,000	0,000	-0,039
-569,890	119,413	0,041	0,038
-568,875	-200,000	-0,018	0,120
-567,861	21,745	0,081	-0,048
-566,846	292,398	0,087	-0,118
-565,831	-200,000	0,004	-0,126
-564,817	-104,453	0,058	0,010
-563,802	180,288	-0,070	-0,075
-562,788	89,731	-0,090	-0,074
-561,773	800,000	0,031	0,094
-560,758	-155,410	-0,055	0,003
-559,744	-37,174	-0,160	0,063
-558,729	658,204	-0,043	-0,081
-557,715	669,654	0,090	-0,173
-556,700	-50,495	0,092	0,032
-555,685	-200,000	-0,020	-0,158
-554,671	-171,701	-0,055	-0,001
-553,656	-128,545	0,148	-0,015
-552,642	619,793	0,041	0,077
-551,627	-200,000	0,011	0,142
-550,612	-200,000	-0,018	-0,063
-549,598	1,635	-0,054	0,029
-548,583	-200,000	0,012	0,080
-547,569	637,465	0,024	0,046
-546,554	-200,000	0,004	0,059
-545,539	75,597	-0,039	0,031
-544,525	99,158	-0,054	-0,046
-543,510	341,022	-0,038	-0,055
-542,496	-173,070	0,131	0,003
-541,481	233,901	-0,082	-0,100
-540,466	-123,635	0,126	0,015
-539,452	33,977	0,063	0,040
-538,437	223,720	0,011	-0,013
-537,423	9,889	0,051	0,028
-536,408	193,177	-0,046	-0,052
-535,393	-200,000	-0,012	0,071
-534,379	153,109	-0,119	-0,120
-533,364	124,163	0,117	-0,108
-532,350	126,130	0,089	-0,083
-531,335	-10,582	-0,081	-0,039
-530,321	406,382	0,081	0,126
-529,306	1,046	-0,091	-0,048
-528,291	-200,000	-0,001	0,131
-527,277	-127,531	0,078	-0,008
-526,262	169,849	-0,132	-0,139
-525,248	-143,751	0,105	0,007
-524,233	-200,000	0,011	-0,071
-523,218	800,000	0,046	0,101
-522,204	-12,709	0,145	-0,069
-521,189	0,721	-0,078	-0,041
-520,175	800,000	-0,033	-0,084
-519,160	409,135	-0,125	-0,195
-518,145	-145,037	-0,067	-0,004
-517,131	-200,000	0,018	-0,079
-516,116	124,992	0,052	0,049
-515,102	100,599	0,092	0,079
-514,087	200,318	0,043	-0,048
-513,072	559,897	-0,052	-0,093
-512,058	687,556	0,046	-0,089
-511,043	-96,714	-0,087	0,017
-510,029	46,103	0,091	0,062
-509,014	-185,837	0,041	-0,000
-507,999	-200,000	-0,017	0,069
-506,985	147,687	-0,004	-0,004
-505,970	545,396	-0,053	0,094
-504,956	361,179	0,009	0,014
-503,941	-85,561	0,133	-0,030
-502,926	-200,000	0,005	0,106
-501,912	95,449	-0,101	-0,085
-500,897	8,661	-0,075	-0,041
-499,883	71,687	-0,070	0,053
-498,868	800,000	-0,015	-0,034
-497,853	-145,054	0,090	0,006
-496,839	-178,707	-0,065	0,001
-495,824	-172,206	0,074	0,002
-494,810	140,774	0,092	-0,089
-493,795	228,269	-0,037	-0,045
-492,781	-17,377	-0,042	0,019
-491,766	-71,604	0,051	0,014
-490,751	-200,000	0,128	0,000
-489,737	4,580	0,143	-0,077
-488,722	35,533	-0,039	0,025
-487,708	-2,688	0,023	0,012
-486,693	251,817	0,046	0,057
-485,678	172,074	0,046	0,049
-484,664	-26,595	0,078	-0,033
-483,649	800,000	-0,031	0,074
-482,635	800,000	0,034	0,075
-481,620	10,266	0,049	0,028
-480,605	800,000	0,050	0,125
-479,591	-200,000	-0,005	0,039
-478,576	131,304	-0,041	-0,038
-477,562	196,419	-0,088	-0,099
-476,547	-61,794	-0,088	-0,027
-475,532	308,250	0,011	0,015
-474,518	-102,270	0,077	-0,013
-473,503	72,115	-0,203	0,155
-472,489	280,868	0,061	-0,081
-471,474	-53,179	0,086	0,029
-470,459	242,528	-0,032	0,040
-469,445	-200,000	-0,005	-0,046
-468,430	800,000	-0,043	0,111
-467,416	367,840	0,066	0,098
-466,401	307,160	0,011	-0,015
-465,386	56,428	0,023	0,017
-464,372	-86,670	-0,142	-0,032
-463,357	-165,048	-0,051	-0,002
-462,343	137,547	0,048	-0,046
-461,328	-17,530	-0,063	-0,029
-460,313	-16,597	0,169	-0,078
-459,299	-28,835	0,157	0,066
-458,284	443,470	-0,040	-0,064
-457,270	-45,403	-0,046	0,017
-456,255	16,409	0,087	-0,050
-455,241	159,331	-0,138	-0,141
-454,226	-200,000	-0,004	-0,177
-453,211	-200,000	0,004	-0,076
-452,197	-137,137	0,064	0,005
-451,182	169,132	0,094	0,099
-450,168	-23,398	-0,023	-0,010
-449,153	138,059	-0,021	0,021
-448,138	136,608	0,080	-0,077
-447,124	405,563	-0,084	-0,130
-446,109	703,131	0,032	0,062
-445,095	-57,065	0,104	-0,033
-444,080	105,632	-0,080	-0,069
-443,065	109,343	-0,006	-0,006
-442,051	331,739	-0,051	0,072
-441,036	512,677	-0,035	-0,060
-440,022	800,000	-0,039	-0,106
-439,007	170,761	0,099	-0,104
-437,992	633,559	0,055	0,103
-436,978	-200,000	0,008	0,032
-435,963	-200,000	0,007	0,097
-434,949	286,207	0,063	0,083
-433,934	-164,246	0,134	-0,004
-432,919	94,168	-0,027	-0,022
-431,905	-200,000	-0,004	-0,067
-430,890	123,238	-0,029	-0,027
-429,876	-200,000	0,019	0,072
-428,861	253,159	-0,120	0,150
-427,846	-135,388	-0,073	-0,006
-426,832	259,207	0,135	-0,171
-425,817	39,553	0,071	-0,046
-424,803	-107,250	0,029	-0,005
-423,788	581,820	0,065	-0,117
-422,773	-83,225	-0,013	0,003
-421,759	79,079	0,051	-0,040
-420,744	-70,118	0,031	0,009
-419,730	-72,290	-0,163	-0,044
-418,715	-200,000	0,017	-0,100
-417,701	-200,000	0,002	-0,049
-416,686	-94,763	-0,073	0,014
-415,671	256,179	0,107	-0,135
-414,657	552,160	0,060	-0,106
-413,642	606,357	0,036	0,065
-412,628	162,448	-0,073	-0,075
-411,613	-200,000	-0,019	-0,109
-410,598	26,469	-0,168	0,103
-409,584	316,217	0,038	-0,053
-408,569	471,779	0,107	0,177
-407,555	153,017	0,020	0,020
-406,540	800,000	-0,023	0,057
-405,525	-200,000	0,011	0,058
-404,511	351,732	-0,092	-0,134
-403,496	-200,000	0,012	-0,042
-402,482	-59,556	0,041	-0,013
-401,467	48,977	-0,060	0,041
-400,452	166,743	0,059	0,062
-399,438	-200,000	0,014	-0,055
-398,423	254,722	-0,062	-0,078
-397,409	236,457	0,060	-0,073
-396,394	-200,000	-0,007	0,037
-395,379	773,636	0,016	-0,032
-394,365	724,750	-0,053	0,103
-393,350	-200,000	-0,039	0,225
-392,336	27,067	-0,110	-0,067
-391,321	109,243	0,058	0,051
-390,306	-29,507	-0,055	0,023
-389,292	-5,875	-0,166	-0,083
-388,277	25,762	-0,072	-0,044
-387,263	251,665	-0,033	0,041
-386,248	9,960	0,097	-0,054
-385,233	-6,742	0,048	0,024
-384,219	-200,000	0,012	0,083
-383,204	-21,351	-0,040	-0,018
-382,190	-200,000	-0,038	-0,185
-381,175	148,910	0,048	0,047
-380,160	47,056	-0,103	0,070
-379,146	76,249	0,101	-0,078
-378,131	-99,670	0,002	0,000
-377,117	-19,600	0,076	0,034
-376,102	0,198	0,059	-0,031
-375,088	75,949	-0,058	-0,044
-374,073	-200,000	0,006	-0,046
-373,058	410,664	0,037	0,058
-372,044	65,067	0,037	-0,027
-371,029	24,432	0,102	-0,061
-370,015	22,020	0,064	0,038
-369,000	-51,729	0,058	-0,020
-367,985	68,623	0,036	0,027
-366,971	317,755	0,009	0,013
-365,956	-25,532	-0,056	0,024
-364,942	-200,000	0,048	0,167
-363,927	-130,884	0,091	-0,009
-362,912	800,000	-0,080	0,167
-361,898	-200,000	0,007	0,075
-360,883	-200,000	0,036	-0,171
-359,869	-200,000	-0,018	0,092
-358,854	131,244	0,059	-0,056
-357,839	84,330	0,134	-0,107
-356,825	215,806	-0,042	0,049
-355,810	338,339	-0,030	-0,043
-354,796	-32,706	-0,251	-0,101
-353,781	-18,800	-0,099	-0,045
-352,766	-76,536	0,032	-0,008
-351,752	398,548	0,040	0,061
-350,737	-200,000	-0,014	-0,089
-349,723	-156,160	0,036	-0,002
-348,708	-54,290	0,138	-0,045
-347,693	558,316	-0,026	0,046
-346,679	23,926	-0,179	-0,108
-345,664	-65,995	0,114	-0,033
-344,650	-139,513	-0,088	-0,007
-343,635	800,000	-0,023	0,057
-342,620	-120,175	0,225	-0,028
-341,606	-200,000	0,017	-0,113
-340,591	404,313	-0,083	0,128
-339,577	800,000	-0,057	-0,125
-338,562	103,543	0,062	0,053
-337,548	-162,431	-0,010	-0,000
-336,533	-62,399	-0,035	0,010
-335,518	32,336	0,072	0,045
-334,504	191,549	-0,048	0,053
-333,489	-200,000	-0,005	-0,143
-332,475	-200,000	0,006	0,029
-331,460	-70,806	-0,173	-0,047
-330,445	-200,000	-0,002	-0,081
-329,431	-174,180	0,041	0,001
-328,416	-200,000	-0,004	0,087
-327,402	800,000	-0,043	0,094
-326,387	29,114	-0,067	-0,041
-325,372	-41,433	-0,079	0,029
-324,358	405,814	0,012	0,019
-323,343	-200,000	-0,003	0,102
-322,329	463,479	0,086	-0,141
-321,314	-52,393	0,211	0,071
-320,299	-200,000	0,008	0,057
-319,285	-70,634	-0,122	-0,033
-318,270	-200,000	-0,024	0,077
-317,256	-24,079	0,029	0,012
-316,241	-200,000	-0,025	0,141
-315,226	-20,224	-0,046	0,021
-314,212	33,091	-0,061	0,039
-313,197	-200,000	-0,005	0,046
-312,183	-200,000	0,001	-0,057
-311,168	-93,467	-0,116	0,023
-310,153	224,375	-0,086	0,101
-309,139	258,277	-0,044	0,056
-308,124	800,000	0,049	0,121
-307,110	800,000	0,027	0,060
-306,095	-192,581	0,147	0,001
-305,080	-94,756	0,153	-0,030
-304,066	182,871	-0,061	-0,066
-303,051	100,693	0,058	0,049
-302,037	-141,058	-0,026	-0,002
-301,022	-92,673	0,083	0,017
-300,008	-200,000	0,036	0,202
-298,993	-200,000	0,050	0,174
-297,978	67,362	0,125	-0,093
-296,964	-200,000	-0,005	0,093
-295,949	134,452	0,057	-0,054
-294,935	88,139	-0,034	-0,028
-293,920	-200,000	0,002	-0,067
-292,905	-35,744	0,077	0,030
-291,891	33,718	-0,063	0,040
-290,876	32,583	0,137	0,086
-289,862	800,000	0,014	-0,031
-288,847	-200,000	0,006	-0,128
-287,832	114,040	0,088	-0,078
-286,818	7,211	0,115	0,063
-285,803	230,518	0,118	0,140
-284,789	15,868	-0,071	0,040
-283,774	347,502	0,009	-0,013
-282,759	-12,532	0,097	-0,046
-281,745	-93,057	-0,064	0,013
-280,730	87,163	-0,060	-0,048
-279,716	105,672	-0,030	0,026
-278,701	-88,402	0,088	0,019
-277,686	346,723	0,065	0,093
-276,672	372,886	-0,077	0,115
-275,657	-200,000	0,000	0,065
-274,643	367,828	-0,036	-0,053
-273,628	800,000	-0,080	-0,166
-272,613	-200,000	-0,035	-0,147
-271,599	14,729	0,003	0,002
-270,584	-111,781	0,086	0,013
-269,570	-93,802	0,147	-0,029
-268,555	-200,000	-0,015	-0,097
-267,540	-71,030	-0,059	-0,016
-266,526	-200,000	0,005	0,088
-265,511	160,705	-0,048	-0,049
-264,497	-114,236	0,121	0,017
-263,482	-200,000	0,037	-0,166
-262,467	658,697	0,033	0,062
-261,453	-200,000	0,003	-0,023
-260,438	-200,000	-0,027	0,093
-259,424	-45,575	-0,030	-0,011
-258,409	-159,124	-0,116	-0,005
-257,395	-200,000	-0,025	0,141
-256,380	-67,739	0,092	0,026
-255,365	-133,075	0,157	0,014
-254,351	-121,475	-0,131	0,016
-253,336	-191,701	-0,047	-0,000
-252,322	57,096	-0,120	0,085
-251,307	374,793	-0,050	0,074
-250,292	10,362	-0,105	0,058
-249,278	-91,918	0,035	0,007
-248,263	597,134	0,065	0,119
-247,249	-200,000	-0,008	0,065
-246,234	3,513	-0,087	0,046
-245,219	-101,107	-0,084	-0,015
-244,205	-148,024	0,108	-0,006
-243,190	-107,826	0,076	0,012
-242,176	304,696	0,032	0,044
-241,161	143,462	-0,033	0,032
-240,146	800,000	-0,022	-0,045
-239,132	116,287	-0,166	0,148
-238,117	2,975	-0,164	-0,087
-237,103	-200,000	-0,014	-0,110
-236,088	-58,341	0,146	0,046
-235,073	-200,000	-0,005	0,027
-234,059	367,113	-0,028	0,042
-233,044	601,786	0,081	0,147
-232,030	249,346	-0,041	0,050
-231,015	-185,102	-0,205	-0,002
-230,000	468,214	0,034	-0,056
-228,986	283,433	-0,060	-0,078
-227,971	377,408	-0,027	-0,040
-226,957	-104,616	-0,055	-0,009
-225,942	-200,000	0,011	-0,131
-224,927	-200,000	0,043	0,142
-223,913	-200,000	-0,014	-0,075
-222,898	-52,943	-0,067	0,022
-221,884	-29,815	-0,142	0,059
-220,869	-97,398	0,039	0,007
-219,855	684,999	-0,072	-0,137
-218,840	-200,000	0,007	-0,034
-217,825	216,798	0,034	0,039
-216,811	-97,702	0,053	-0,010
-215,796	-200,000	-0,101	-0,000
-214,782	135,154	0,124	-0,117
-213,767	-200,000	0,016	0,104
-212,752	-200,000	0,011	0,211
-211,738	-200,000	0,018	0,114
-210,723	239,275	0,084	0,102
-209,709	-200,000	-0,017	0,147
-208,694	518,332	-0,012	0,020
-207,679	800,000	-0,053	-0,155
-206,665	-147,014	0,123	0,008
-205,650	62,287	0,046	0,033
-204,636	257,764	0,032	0,040
-203,621	800,000	-0,022	0,044
-202,606	696,671	-0,020	-0,039
-201,592	-76,090	-0,066	-0,017
-200,577	521,078	-0,080	-0,137
-199,563	-110,942	0,132	-0,020
-198,548	634,129	-0,035	0,065
-197,533	-200,000	0,005	-0,017
-196,519	800,000	-0,024	0,067
-195,504	-116,516	-0,205	0,027
-194,490	175,235	-0,071	-0,075
-193,475	-9,441	0,101	-0,049
-192,460	10,758	-0,113	0,062
-191,446	-200,000	0,002	0,089
-190,431	-25,045	0,089	0,038
-189,417	30,708	-0,118	-0,073
-188,402	-184,064	0,054	0,001
-187,387	-6,129	-0,130	-0,064
-186,373	-37,974	0,047	0,018
-185,358	-200,000	-0,004	0,109
-184,344	515,629	0,062	0,105
-183,329	-63,732	-0,047	0,014
-182,315	-60,416	0,030	-0,009
-181,300	800,000	0,020	0,046
-180,285	516,511	0,020	-0,034
-179,271	-200,000	-0,016	0,157
-178,256	-200,000	-0,035	0,127
-177,242	-77,917	0,047	-0,012
-176,227	-200,000	0,010	-0,034
-175,212	800,000	0,009	-0,025
-174,198	800,000	0,045	0,095
-173,183	-200,000	0,016	-0,228
-172,169	-76,297	-0,190	0,048
-171,154	-188,094	-0,074	-0,001
-170,139	89,787	0,110	0,089
-169,125	-44,220	0,065	-0,023
-168,110	-200,000	0,021	0,128
-167,096	387,880	-0,073	0,110
-166,081	103,683	0,061	0,052
-165,066	1,714	0,130	-0,068
-164,052	275,949	0,028	-0,037
-163,037	67,453	0,020	-0,015
-162,023	-1,689	0,099	-0,050
-161,008	492,038	0,057	0,095
-159,993	105,308	-0,138	-0,118
-158,979	-200,000	-0,046	-0,223
-157,964	45,916	-0,068	-0,045
-156,950	326,629	-0,083	-0,116
-155,935	-200,000	-0,024	0,100
-154,920	-98,398	0,080	0,015
-153,906	-143,149	0,074	0,005
-152,891	800,000	-0,044	-0,104
-151,877	56,316	0,099	-0,070
-150,862	800,000	-0,055	-0,137
-149,847	-160,768	-0,112	-0,004
-148,833	191,718	-0,114	-0,125
-147,818	-200,000	0,034	0,198
-146,804	-200,000	-0,013	0,163
-145,789	645,789	-0,053	0,099
-144,775	-91,075	-0,113	-0,023
-143,760	-149,318	0,112	-0,006
-142,745	11,320	0,016	-0,009
-141,731	800,000	0,011	0,024
-140,716	2,286	-0,015	0,008
-139,702	100,158	0,060	0,050
-138,687	62,615	0,113	0,082
-137,672	-131,787	-0,132	-0,012
-136,658	-185,419	-0,068	0,001
-135,643	-140,265	-0,045	0,003
-134,629	-36,317	-0,036	-0,014
-133,614	121,520	0,097	0,088
-132,599	800,000	0,061	-0,152
-131,585	800,000	-0,056	0,116
-130,570	374,816	0,017	-0,025
-129,556	-65,758	-0,147	0,042
-128,541	177,318	0,079	-0,083
-127,526	-200,000	0,030	-0,172
-126,512	523,939	-0,035	-0,060
-125,497	25,064	-0,102	-0,061
-124,483	-200,000	0,021	0,100
-123,468	800,000	-0,006	0,020
-122,453	-102,757	0,019	0,003
-121,439	-6,347	-0,106	0,052
-120,424	-200,000	0,025	-0,191
-119,410	613,376	0,033	-0,060
-118,395	-19,689	0,028	-0,013
-117,380	796,759	0,018	0,036
-116,366	-200,000	0,004	-0,032
-115,351	54,918	-0,034	-0,024
-114,337	-107,558	-0,066	-0,010
-113,322	-200,000	0,011	0,049
-112,307	-51,326	0,109	-0,037
-111,293	179,844	-0,080	-0,085
-110,278	-200,000	0,025	0,191
-109,264	800,000	-0,010	-0,021
-108,249	800,000	0,054	0,117
-107,234	-32,221	-0,089	-0,036
-106,220	-35,652	-0,106	-0,041
-105,205	-82,389	-0,078	-0,018
-104,191	22,397	0,142	0,084
-103,176	-200,000	0,017	0,112
-102,162	-91,574	0,153	0,031
-101,147	800,000	-0,066	0,169
-100,132	671,424	-0,017	-0,032
-99,118	6,777	-0,044	-0,023
-98,103	681,799	-0,032	0,061
-97,089	-39,832	-0,120	0,045
-96,074	-179,462	0,062	0,001
-95,059	-200,000	0,011	0,068
-94,045	-60,108	-0,145	-0,045
-93,030	-200,000	-0,005	-0,074
-92,016	188,903	-0,096	-0,104
-91,001	-130,893	0,153	-0,015
-89,986	-200,000	-0,018	0,128
-88,972	79,622	-0,106	-0,083
-87,957	-56,250	0,026	0,008
-86,943	124,675	-0,088	0,080
-85,928	-200,000	0,016	0,120
-84,913	64,958	-0,035	-0,025
-83,899	-200,000	-0,015	0,053
-82,884	-16,235	0,016	0,007
-81,870	-200,000	-0,010	0,042
-80,855	800,000	-0,022	-0,054
-79,840	-200,000	-0,053	-0,203
-78,826	-200,000	0,001	-0,166
-77,811	311,848	-0,048	0,066
-76,797	-121,793	0,086	-0,010
-75,782	492,647	0,019	0,032
-74,767	-200,000	0,014	0,060
-73,753	-114,877	-0,060	-0,008
-72,738	298,043	0,075	-0,100
-71,724	-200,000	-0,014	-0,091
-70,709	3,858	-0,111	-0,058
-69,694	-200,000	-0,006	0,082
-68,680	463,800	-0,051	-0,082
-67,665	-43,150	-0,111	0,041
-66,651	800,000	-0,034	0,099
-65,636	-200,000	-0,037	0,176
-64,622	110,164	-0,064	-0,055
-63,607	544,738	-0,041	-0,072
-62,592	-27,550	0,120	-0,050
-61,578	262,573	-0,047	0,059
-60,563	-84,753	0,070	-0,016
-59,549	-200,000	0,019	0,093
-58,534	-61,930	-1,664	-0,499
-57,519	800,000	-0,556	-1,266
-56,505	-200,000	-1,102	-4,873
-55,490	-75,651	0,703	0,179
-54,476	800,000	5,245	12,148
-53,461	-200,000	15,795	277,819
-52,446	-200,000	702,728	2245,453
-51,432	562,636	1619,004	2839,801
-50,417	121,040	1623,120	1458,098
-49,403	81,176	1283,479	999,843
-48,388	36,698	1027,599	653,912
-47,373	21,666	989,467	579,968
-46,359	20,521	978,294	569,622
-45,344	18,946	974,024	561,940
-44,330	19,024	972,579	561,341
-43,315	18,736	971,176	559,563
-42,300	18,765	970,039	558,982
-41,286	18,718	968,949	558,178
-40,271	18,706	967,932	557,530
-39,257	18,660	967,335	557,015
-38,242	18,708	966,407	556,615
-37,227	18,706	965,677	556,166
-36,213	18,622	964,970	555,463
-35,198	18,668	963,960	555,007
-34,184	18,745	963,138	554,763
-33,169	18,629	962,334	553,903
-32,154	18,763	961,485	553,826
-31,140	18,727	960,428	553,079
-30,125	18,747	959,741	552,726
-29,111	18,746	958,921	552,228
-28,096	18,638	958,493	551,612
-27,082	18,685	957,799	551,342
-26,067	18,731	956,787	550,884
-25,052	18,698	956,122	550,375
-24,038	18,728	955,271	549,958
-23,023	18,694	954,783	549,546
-22,009	18,708	954,147	549,204
-20,994	18,739	953,353	548,823
-19,979	18,670	953,083	548,426
-18,965	18,677	952,147	547,887
-17,950	18,771	951,385	547,729
-16,936	18,682	950,929	547,159
-15,921	18,686	950,172	546,716
-14,906	18,538	949,690	545,941
-13,892	18,537	948,862	545,440
-12,877	18,555	948,195	545,093
-11,863	18,515	947,750	544,688
-10,848	18,551	947,045	544,377
-9,833	18,656	946,644	544,459
-8,819	18,621	946,066	543,995
-7,804	18,599	945,333	543,481
-6,790	18,586	944,753	543,086
-5,775	18,585	944,331	542,817
-4,760	18,608	943,532	542,407
-3,746	18,576	942,893	541,919
-2,731	18,428	942,132	540,989
-1,717	18,418	941,434	540,535
-0,702	18,398	940,829	540,104
0,313	18,223	940,162	539,982
1,327	21,196	938,558	548,421
2,342	30,279	795,865	489,215
3,356	27,424	449,179	271,804
4,371	-2,115	295,359	149,121
5,386	-6,288	276,724	135,734
6,400	-7,524	271,049	131,787
7,415	-7,888	268,714	130,303
8,429	-7,542	267,282	129,915
9,444	-7,682	266,544	129,417
10,459	-7,735	265,806	128,998
11,473	-7,976	265,234	128,490
12,488	-8,047	264,700	128,155
13,502	-8,146	264,200	127,811
14,517	-8,065	263,683	127,623
15,531	-8,089	263,369	127,438
16,546	-7,917	263,031	127,419
17,561	-8,079	262,507	127,007
18,575	-7,945	262,273	127,004
19,590	-8,058	261,931	126,725
20,604	-7,935	261,624	126,675
21,619	-7,974	261,124	126,387
22,634	-8,198	260,903	126,068
23,648	-8,167	260,568	125,922
24,663	-7,908	260,359	126,042
25,677	-8,125	260,182	125,751
26,692	-8,084	259,838	125,610
27,707	-8,186	259,697	125,441
28,721	-8,143	259,323	125,286
29,736	-8,126	258,975	125,122
30,750	-8,173	258,816	124,993
31,765	-8,196	258,464	124,791
32,780	-8,037	258,349	124,865
33,794	-8,141	258,128	124,655
34,809	-8,096	257,905	124,577
35,823	-8,279	257,708	124,308
36,838	-8,305	257,484	124,166
37,853	-8,245	257,088	124,018
38,867	-8,328	256,983	123,882
39,882	-8,268	256,703	123,789
40,896	-8,396	256,404	123,522
41,911	-8,211	256,204	123,577
42,926	-8,317	256,091	123,417
43,940	-8,358	255,699	123,182
44,955	-8,426	255,568	123,048
45,969	-8,457	255,327	122,894
46,984	-8,500	255,006	122,691
47,999	-8,722	254,881	122,426
49,013	-8,885	254,579	122,127
50,028	-8,970	254,195	121,859
51,042	-9,144	253,987	121,597
52,057	-9,224	253,784	121,419
53,071	-9,235	253,722	121,369
54,086	-8,758	253,489	121,661
55,101	-8,819	253,286	121,500
56,115	-8,617	253,148	121,598
57,130	-8,214	253,122	121,925
58,144	-7,898	252,851	122,056
59,159	-8,017	252,751	121,894
60,174	-8,053	252,557	121,758
61,188	-8,080	252,260	121,581
62,203	-8,071	252,056	121,479
63,217	-8,208	251,822	121,238
64,232	-8,241	251,661	121,121
65,247	-8,159	251,509	121,108
66,261	-8,033	251,153	121,034
67,276	-8,260	250,760	120,639
68,290	-8,578	250,662	120,308
69,305	-8,523	250,501	120,268
70,320	-8,727	250,221	119,947
71,334	-8,224	250,131	120,324
72,349	-7,971	250,005	120,470
73,363	-7,898	249,854	120,448
74,378	-7,855	249,520	120,313
75,393	-8,028	249,424	120,108
76,407	-8,072	249,196	119,950
77,422	-8,305	249,141	119,714
78,436	-8,142	248,814	119,686
79,451	-8,156	248,636	119,577
80,466	-8,195	248,356	119,399
81,480	-8,552	248,127	118,976
82,495	-8,415	247,864	118,955
83,509	-8,403	247,886	118,965
84,524	-8,468	247,682	118,801
85,539	-8,370	247,182	118,634
86,553	-8,693	247,132	118,327
87,568	-8,550	246,956	118,353
88,582	-8,403	246,790	118,386
89,597	-8,451	246,670	118,277
90,611	-8,507	246,582	118,178
91,626	-8,272	246,375	118,266
92,641	-8,120	246,181	118,290
93,655	-8,457	245,982	117,900
94,670	-8,373	245,626	117,790
95,684	-8,332	245,490	117,749
96,699	-8,236	245,341	117,747
97,714	-8,383	245,030	117,464
98,728	-8,414	244,869	117,351
99,743	-8,790	244,812	116,999
100,757	-8,781	244,520	116,856
101,772	-8,502	244,293	116,970
102,787	-8,473	244,312	116,993
103,801	-8,356	243,950	116,906
104,816	-8,476	243,914	116,779
105,830	-8,256	243,721	116,859
106,845	-8,260	243,699	116,835
107,860	-8,156	243,400	116,767
108,874	-8,378	243,268	116,509
109,889	-8,316	242,950	116,398
110,903	-8,378	242,800	116,264
111,918	-8,594	242,669	116,012
112,933	-8,383	242,620	116,154
113,947	-8,280	242,303	116,076
114,962	-7,994	242,047	116,180
115,976	-8,223	241,896	115,908
116,991	-8,371	241,783	115,722
118,006	-8,271	241,683	115,745
119,020	-8,241	241,388	115,618
120,035	-8,313	241,350	115,530
121,049	-8,100	241,129	115,590
122,064	-8,344	241,059	115,345
123,079	-8,290	240,750	115,232
124,093	-8,299	240,554	115,120
125,108	-8,567	240,388	114,811
126,122	-8,731	240,080	114,519
127,137	-8,827	239,816	114,305
128,151	-8,435	239,819	114,616
129,166	-8,656	239,605	114,323
130,181	-8,586	239,462	114,302
131,195	-8,577	239,112	114,132
132,210	-8,398	239,047	114,237
133,224	-8,212	238,881	114,298
134,239	-8,329	238,863	114,184
135,254	-8,137	238,599	114,204
136,268	-8,396	238,378	113,877
137,283	-8,643	238,124	113,547
138,297	-8,540	237,824	113,477
139,312	-8,741	237,750	113,269
140,327	-8,228	237,610	113,607
141,341	-7,868	237,627	113,895
142,356	-7,898	237,598	113,847
143,370	-7,789	237,404	113,832
144,385	-7,613	237,083	113,809
145,400	-7,703	236,940	113,658
146,414	-7,837	236,792	113,469
147,429	-8,107	236,678	113,187
148,443	-7,952	236,551	113,241
149,458	-7,932	236,297	113,126
150,473	-7,966	236,115	113,001
151,487	-7,774	235,835	113,010
152,502	-7,880	235,731	112,866
153,516	-7,753	235,679	112,933
154,531	-7,853	235,291	112,657
155,546	-7,932	235,257	112,567
156,560	-8,224	235,137	112,267
157,575	-8,196	234,930	112,180
158,589	-8,099	234,710	112,142
159,604	-7,825	234,658	112,326
160,619	-7,760	234,425	112,256
161,633	-7,674	234,373	112,289
162,648	-7,741	234,239	112,162
163,662	-7,961	234,036	111,880
164,677	-8,096	233,899	111,697
165,692	-7,869	233,632	111,740
166,706	-7,956	233,626	111,658
167,721	-7,881	233,557	111,675
168,735	-7,712	233,320	111,685
169,750	-7,741	233,073	111,534
170,764	-7,792	232,977	111,437
171,779	-7,750	232,928	111,438
172,794	-7,777	232,739	111,315
173,808	-7,786	232,471	111,171
174,823	-8,414	232,145	110,511
175,837	-8,551	231,932	110,292
176,852	-8,185	231,989	110,597
177,867	-7,798	231,821	110,811
178,881	-7,980	231,814	110,655
179,896	-7,742	231,425	110,646
180,910	-7,392	231,373	110,885
181,925	-7,741	231,337	110,585
182,940	-7,874	231,039	110,328
183,954	-7,756	231,014	110,399
184,969	-7,828	230,892	110,274
185,983	-7,589	230,699	110,359
186,998	-7,681	230,612	110,236
188,013	-7,695	230,413	110,120
189,027	-7,727	230,237	110,001
190,042	-7,761	230,040	109,870
191,056	-7,575	229,796	109,889
192,071	-7,691	229,847	109,813
193,086	-7,515	229,544	109,796
194,100	-7,694	229,613	109,680
195,115	-7,707	229,205	109,465
196,129	-8,067	229,081	109,117
197,144	-3,507	230,478	113,324
198,159	1,459	232,045	117,969
199,173	3,493	232,340	119,698
200,188	3,696	232,218	119,783
201,202	3,606	232,021	119,600
202,217	3,858	231,941	119,744
203,232	4,025	231,857	119,821
204,246	4,213	231,797	119,925
205,261	4,121	231,660	119,772
206,275	4,300	231,606	119,873
207,290	4,245	231,516	119,773
208,304	4,398	231,235	119,735
209,319	4,316	231,053	119,567
210,334	4,109	230,981	119,358
211,348	3,955	230,636	119,050
212,363	3,600	230,420	118,654
213,377	3,266	230,150	118,246
214,392	3,469	229,978	118,304
215,407	3,792	229,887	118,496
216,421	3,679	229,759	118,332
217,436	3,537	229,582	118,121
218,450	3,330	229,418	117,866
219,465	3,115	229,273	117,616
220,480	3,126	229,190	117,572
221,494	3,095	229,043	117,462
222,509	3,513	228,893	117,696
223,523	3,457	228,673	117,529
224,538	3,354	228,555	117,378
225,553	3,371	228,439	117,322
226,567	3,382	228,358	117,278
227,582	3,770	228,300	117,535
228,596	3,959	228,059	117,545
229,611	3,599	227,810	117,131
230,626	3,271	227,703	116,815
231,640	3,496	227,364	116,802
232,655	3,617	227,430	116,918
233,669	3,950	227,403	117,148
234,684	4,111	227,378	117,247
235,699	3,762	227,049	116,801
236,713	3,531	226,873	116,525
237,728	3,414	226,767	116,370
238,742	3,378	226,364	116,127
239,757	3,314	226,236	116,002
240,772	3,485	226,081	116,041
241,786	3,396	225,975	115,910
242,801	3,750	225,999	116,179
243,815	3,874	226,047	116,287
244,830	3,955	225,709	116,164
245,844	3,574	225,441	115,729
246,859	3,605	225,399	115,720
247,874	3,735	225,232	115,722
248,888	3,597	225,096	115,538
249,903	3,731	224,880	115,518
250,917	3,620	224,694	115,328
251,932	3,304	224,666	115,066
252,947	3,382	224,418	114,988
253,961	3,251	224,264	114,800
254,976	3,448	224,093	114,850
255,990	3,684	224,034	114,986
257,005	3,908	223,988	115,120
258,020	3,617	223,945	114,870
259,034	4,139	223,724	115,136
260,049	3,654	223,700	114,751
261,063	3,562	223,590	114,616
262,078	3,746	223,220	114,554
263,093	3,897	223,154	114,621
264,107	3,856	222,911	114,456
265,122	3,845	222,817	114,390
266,136	3,875	222,810	114,399
267,151	3,892	222,644	114,315
268,166	3,553	222,389	113,923
269,180	3,140	222,109	113,462
270,195	3,354	221,877	113,492
271,209	3,347	221,814	113,445
272,224	3,311	221,804	113,403
273,239	3,566	221,519	113,436
274,253	3,544	221,305	113,300
275,268	3,351	221,178	113,083
276,282	3,115	221,229	112,924
277,297	2,993	221,022	112,718
278,312	3,199	220,816	112,755
279,326	3,356	220,757	112,831
280,341	3,577	220,540	112,872
281,355	3,296	220,542	112,657
282,370	3,552	220,116	112,617
283,384	3,308	220,010	112,373
284,399	3,043	220,062	112,195
285,414	3,257	219,757	112,186
286,428	3,567	219,826	112,439
287,443	3,704	219,488	112,357
288,457	3,456	219,539	112,191
289,472	3,466	219,187	112,009
290,487	2,754	219,058	111,412
291,501	3,071	218,906	111,556
292,516	2,930	218,795	111,388
293,530	3,240	218,586	111,496
294,545	3,098	218,592	111,386
295,560	3,402	218,355	111,477
296,574	3,364	218,304	111,413
297,589	3,325	218,191	111,317
298,603	3,613	218,075	111,457
299,618	3,483	217,865	111,246
300,633	3,619	217,697	111,248
301,647	3,714	217,695	111,306
302,662	3,848	217,480	111,284
303,676	3,758	217,401	111,169
304,691	3,811	217,243	111,116
305,706	3,986	217,120	111,170
306,720	3,649	216,995	110,852
307,735	3,581	216,851	110,720
308,749	3,275	216,705	110,414
309,764	3,674	216,615	110,646
310,779	3,590	216,512	110,524
311,793	3,887	216,287	110,613
312,808	3,656	216,071	110,326
313,822	3,816	216,038	110,414
314,837	3,535	215,752	110,057
315,852	3,247	215,611	109,769
316,866	3,437	215,660	109,920
317,881	3,738	215,456	110,022
318,895	3,587	215,284	109,816
319,910	3,604	215,088	109,718
320,925	3,094	214,830	109,213
321,939	2,679	214,819	108,901
322,954	3,311	214,563	109,213
323,968	3,488	214,601	109,348
324,983	3,665	214,425	109,375
325,997	3,788	214,421	109,451
327,012	3,520	214,254	109,165
328,027	3,556	214,141	109,123
329,041	3,844	214,102	109,299
330,056	3,906	213,943	109,252
331,070	3,557	213,646	108,843
332,085	3,248	213,425	108,501
333,100	3,528	213,248	108,600
334,114	3,422	213,215	108,498
335,129	3,432	213,142	108,458
336,143	3,415	212,937	108,333
337,158	3,351	212,803	108,209
338,173	3,347	212,708	108,148
339,187	3,374	212,454	108,029
340,202	3,223	212,234	107,801
341,216	3,189	212,175	107,737
342,231	3,206	212,139	107,722
343,246	3,131	212,010	107,594
344,260	3,232	211,913	107,606
345,275	3,472	211,685	107,650
346,289	3,597	211,594	107,682
347,304	3,586	211,517	107,625
348,319	3,521	211,331	107,475
349,333	3,291	211,119	107,196
350,348	3,780	211,088	107,513
351,362	3,852	211,071	107,546
352,377	3,868	210,826	107,422
353,392	3,357	210,826	107,056
354,406	3,661	210,592	107,139
355,421	194,937	1341,731	1426,175
356,435	155,663	1479,573	1426,218
