DTS Sentinel unit serial number:	SN410029Multiplexer serial number:	ORYXHardware model number:	OX2-SRSoftware version number:	ORYX F/W v4,00 Oryx Data Collector v3.7.2.0data status	okinstallation	B6 Nyhavnadifferential loss correction	single-endedforward channel	channel 2reverse channel	N/Adate	2023/12/07time	12:30:08forward acquisition time	300,00reverse acquisition time	0,00gamma	499,1914k internal	0,3203k external	0,3203temperature offset calibration	1,0000default loss term (dB/km)	0,3820temperature slope calibration	1,0000multiplexer offset coefficient	1,0000multiplexer slope coefficient	1,0000fibre end	0,00T internal ref (°C)	10,19T ext. ref 1 (°C)	-3,32T ext. ref 2 (°C)	-3,30length (m)	temperature (°C)	Stokes	anti-Stokes-744,400	-19,995	0,159	0,071
-743,385	34,861	-0,308	-0,195
-742,371	-200,000	-0,004	0,050
-741,356	-52,557	-0,400	-0,134
-740,342	-144,775	0,166	-0,011
-739,327	-95,339	-0,463	-0,090
-738,312	-66,200	0,057	0,016
-737,298	-64,926	-0,379	-0,111
-736,283	19,931	-0,064	0,037
-735,269	-35,746	-0,359	-0,141
-734,254	93,463	0,183	0,151
-733,239	-47,560	-0,436	-0,153
-732,225	-143,888	0,317	0,021
-731,210	97,212	0,073	-0,061
-730,196	800,000	-0,072	-0,213
-729,181	-5,384	0,019	0,010
-728,167	-25,908	-0,086	-0,037
-727,152	-200,000	-0,012	-0,164
-726,137	-200,000	-0,017	-0,066
-725,123	-164,676	-0,212	-0,007
-724,108	380,313	-0,016	0,024
-723,094	-35,823	-0,212	-0,083
-722,079	800,000	-0,026	-0,064
-721,064	-200,000	-0,024	-0,187
-720,050	163,609	0,014	-0,014
-719,035	515,783	-0,052	-0,088
-718,021	628,721	0,059	-0,109
-717,006	341,131	-0,052	-0,074
-715,991	-200,000	-0,005	-0,081
-714,977	414,305	-0,091	-0,141
-713,962	800,000	-0,024	-0,061
-712,948	178,063	-0,049	0,052
-711,933	-17,722	-0,080	-0,036
-710,918	481,132	0,025	0,042
-709,904	-76,001	-0,107	0,027
-708,889	-200,000	0,000	-0,077
-707,875	232,766	0,085	0,102
-706,860	-200,000	-0,026	0,113
-705,845	-22,451	0,056	-0,025
-704,831	-200,000	-0,001	0,036
-703,816	-200,000	0,000	-0,006
-702,802	-99,133	-0,078	0,014
-701,787	495,972	-0,067	-0,112
-700,772	69,672	-0,149	-0,111
-699,758	-170,062	-0,038	-0,001
-698,743	227,658	-0,061	0,072
-697,729	800,000	-0,034	-0,103
-696,714	-9,943	-0,068	0,033
-695,699	235,900	-0,104	0,125
-694,685	359,581	-0,028	-0,041
-693,670	398,150	0,047	-0,071
-692,656	-143,820	0,101	-0,007
-691,641	-39,805	0,081	-0,031
-690,627	-200,000	-0,002	0,035
-689,612	38,295	0,022	0,014
-688,597	19,248	0,161	0,093
-687,583	800,000	-0,074	-0,184
-686,568	800,000	-0,050	-0,152
-685,554	100,419	-0,044	0,037
-684,539	11,932	0,164	-0,091
-683,524	768,550	-0,031	0,061
-682,510	-22,734	0,182	-0,079
-681,495	800,000	0,071	-0,195
-680,481	-200,000	-0,010	0,109
-679,466	800,000	0,062	-0,130
-678,451	-200,000	0,031	-0,110
-677,437	82,822	-0,074	0,058
-676,422	-200,000	-0,008	0,117
-675,408	52,328	-0,030	-0,021
-674,393	274,798	0,100	0,129
-673,378	-70,365	0,068	0,019
-672,364	156,400	-0,066	-0,066
-671,349	-42,351	0,066	-0,024
-670,335	-43,127	-0,091	-0,033
-669,320	535,809	-0,036	0,063
-668,305	314,402	0,087	0,119
-667,291	-200,000	0,011	-0,101
-666,276	-27,214	-0,166	0,070
-665,262	133,324	-0,056	-0,053
-664,247	-200,000	-0,002	-0,088
-663,232	51,254	-0,020	-0,014
-662,218	-116,148	-0,159	-0,021
-661,203	124,886	0,102	0,093
-660,189	306,569	-0,089	-0,120
-659,174	19,763	0,086	-0,050
-658,159	-200,000	-0,006	-0,156
-657,145	-200,000	-0,009	-0,097
-656,130	22,772	0,084	-0,050
-655,116	-82,113	-0,130	-0,031
-654,101	800,000	0,071	0,157
-653,086	23,101	-0,027	0,016
-652,072	-145,570	-0,090	-0,006
-651,057	-56,468	-0,026	-0,008
-650,043	-200,000	0,001	-0,044
-649,028	-200,000	-0,000	-0,095
-648,014	-56,898	-0,067	-0,021
-646,999	-200,000	-0,001	-0,152
-645,984	-127,079	0,057	0,006
-644,970	96,138	-0,041	-0,034
-643,955	-200,000	0,043	-0,224
-642,941	141,056	-0,059	-0,056
-641,926	-129,844	-0,083	0,008
-640,911	-76,763	0,032	0,008
-639,897	72,579	-0,021	-0,016
-638,882	369,918	0,058	-0,085
-637,868	642,672	0,038	0,071
-636,853	-93,923	-0,031	0,006
-635,838	-87,054	-0,108	-0,024
-634,824	-97,707	-0,018	0,003
-633,809	609,915	0,021	0,039
-632,795	800,000	0,036	-0,086
-631,780	99,422	-0,065	0,054
-630,765	212,547	-0,090	0,103
-629,751	-194,052	0,135	-0,001
-628,736	-200,000	0,002	-0,097
-627,722	10,650	-0,138	0,076
-626,707	-200,000	-0,005	-0,019
-625,692	556,872	-0,037	0,064
-624,678	98,984	0,107	0,089
-623,663	-106,163	-0,140	0,023
-622,649	-111,931	0,039	0,006
-621,634	-200,000	0,003	-0,060
-620,619	-88,613	0,089	-0,019
-619,605	-128,757	0,117	-0,012
-618,590	-200,000	0,033	0,125
-617,576	337,520	0,043	0,061
-616,561	-156,589	-0,176	-0,008
-615,546	-73,591	-0,107	-0,028
-614,532	-62,423	-0,101	-0,030
-613,517	339,985	-0,066	-0,093
-612,503	-200,000	0,013	-0,113
-611,488	800,000	-0,017	0,039
-610,474	-51,969	0,123	0,041
-609,459	-121,534	-0,059	0,007
-608,444	119,299	0,076	-0,068
-607,430	-200,000	-0,025	-0,146
-606,415	-161,469	-0,198	-0,007
-605,401	521,214	0,053	-0,091
-604,386	-28,390	0,015	-0,006
-603,371	-39,676	-0,049	-0,018
-602,357	-101,749	0,156	0,027
-601,342	-191,081	-0,004	0,000
-600,328	567,162	-0,033	0,057
-599,313	12,914	-0,105	-0,059
-598,298	423,867	0,042	0,065
-597,284	-116,708	-0,147	0,019
-596,269	340,592	0,074	-0,104
-595,255	92,204	-0,063	-0,051
-594,240	433,086	-0,032	0,051
-593,225	-200,000	0,023	-0,089
-592,211	-127,885	0,093	-0,010
-591,196	239,869	0,075	0,090
-590,182	23,891	-0,029	0,017
-589,167	-200,000	-0,005	-0,029
-588,152	-200,000	-0,011	-0,082
-587,138	-83,645	0,054	-0,012
-586,123	-21,967	-0,119	-0,052
-585,109	800,000	0,042	-0,089
-584,094	-94,115	-0,092	-0,018
-583,079	48,360	0,082	0,055
-582,065	-14,476	0,072	0,033
-581,050	-198,149	-0,072	0,000
-580,036	50,285	-0,094	-0,064
-579,021	-200,000	0,003	-0,073
-578,006	105,077	-0,079	0,068
-576,992	-84,744	-0,036	-0,008
-575,977	46,849	0,084	0,056
-574,963	800,000	0,020	-0,042
-573,948	142,487	0,104	-0,099
-572,934	58,358	0,071	-0,050
-571,919	-113,982	-0,014	-0,002
-570,904	-110,580	-0,059	-0,009
-569,890	-23,362	-0,164	0,071
-568,875	-200,000	0,020	0,147
-567,861	78,151	0,041	0,031
-566,846	-200,000	0,051	0,190
-565,831	-75,941	-0,031	-0,008
-564,817	356,578	-0,048	-0,069
-563,802	243,319	0,040	0,048
-562,788	-157,970	-0,066	0,003
-561,773	63,196	0,096	-0,069
-560,758	138,606	0,120	0,114
-559,744	-200,000	0,061	0,198
-558,729	-112,754	-0,053	-0,007
-557,715	-200,000	0,013	-0,074
-556,700	-143,501	0,087	0,006
-555,685	-29,123	-0,056	0,023
-554,671	-7,053	-0,068	-0,033
-553,656	210,850	0,053	0,060
-552,642	-200,000	-0,030	-0,101
-551,627	-200,000	-0,003	-0,041
-550,612	-200,000	0,058	0,000
-549,598	-200,000	-0,000	-0,066
-548,583	-40,594	0,048	0,018
-547,569	800,000	0,007	0,022
-546,554	-98,656	0,093	0,017
-545,539	800,000	0,017	-0,039
-544,525	-19,502	0,038	0,017
-543,510	-140,063	0,032	0,002
-542,496	-200,000	-0,013	-0,097
-541,481	56,083	-0,087	-0,061
-540,466	10,556	0,035	-0,019
-539,452	-165,074	0,083	-0,003
-538,437	411,434	0,034	0,051
-537,423	-26,972	0,119	0,050
-536,408	-200,000	0,005	0,218
-535,393	-145,819	-0,118	0,007
-534,379	173,219	0,056	-0,058
-533,364	-200,000	-0,004	-0,129
-532,350	-200,000	0,026	0,092
-531,335	73,210	0,032	-0,024
-530,321	-152,961	0,011	-0,001
-529,306	-118,690	-0,143	-0,018
-528,291	-200,000	0,001	0,021
-527,277	55,357	0,019	-0,013
-526,262	46,673	0,094	-0,063
-525,248	-174,788	-0,054	0,001
-524,233	-77,882	0,065	0,016
-523,218	-113,535	0,109	0,015
-522,204	26,058	-0,096	-0,058
-521,189	-167,729	-0,093	-0,003
-520,175	-200,000	0,016	-0,073
-519,160	-200,000	-0,004	-0,033
-518,145	57,800	-0,088	-0,062
-517,131	-51,382	0,152	0,051
-516,116	271,991	0,059	-0,075
-515,102	-200,000	-0,015	0,060
-514,087	-26,054	0,068	-0,029
-513,072	-123,827	-0,096	0,011
-512,058	-50,949	-0,126	0,042
-511,043	441,872	-0,031	0,049
-510,029	103,635	0,099	-0,083
-509,014	457,463	-0,009	-0,015
-507,999	-4,513	0,079	0,039
-506,985	-6,758	-0,123	-0,060
-505,970	418,879	-0,032	0,049
-504,956	800,000	-0,028	0,063
-503,941	-21,690	-0,010	0,005
-502,926	-77,621	-0,129	-0,032
-501,912	-200,000	0,006	0,054
-500,897	-41,829	0,057	-0,021
-499,883	-67,815	0,050	0,014
-498,868	-117,593	-0,083	-0,011
-497,853	158,262	-0,048	-0,048
-496,839	-200,000	0,017	0,075
-495,824	155,648	0,052	0,052
-494,810	-104,854	-0,157	-0,026
-493,795	800,000	0,008	-0,024
-492,781	36,343	0,025	-0,016
-491,766	-95,674	0,075	-0,014
-490,751	51,311	-0,180	0,123
-489,737	163,612	0,104	-0,105
-488,722	-200,000	0,007	-0,046
-487,708	-140,349	0,186	-0,014
-486,693	800,000	0,046	0,130
-485,678	19,057	-0,051	0,030
-484,664	142,544	-0,061	0,059
-483,649	-200,000	-0,011	0,075
-482,635	-200,000	-0,013	-0,064
-481,620	-200,000	-0,005	0,063
-480,605	-21,789	0,087	0,038
-479,591	799,244	0,041	0,083
-478,576	-148,135	-0,181	0,011
-477,562	11,001	0,090	-0,049
-476,547	-200,000	0,012	-0,079
-475,532	46,146	-0,029	-0,020
-474,518	71,779	0,038	-0,029
-473,503	295,639	0,013	0,017
-472,489	-200,000	0,022	0,075
-471,474	224,326	-0,102	-0,119
-470,459	-73,004	0,084	-0,022
-469,445	-200,000	-0,004	0,025
-468,430	-107,850	-0,112	-0,017
-467,416	-42,597	0,081	0,030
-466,401	-200,000	0,019	0,093
-465,386	-200,000	0,028	-0,135
-464,372	96,979	0,059	-0,049
-463,357	49,251	0,083	-0,056
-462,343	235,275	-0,097	-0,115
-461,328	-18,509	0,037	-0,016
-460,313	800,000	0,065	-0,145
-459,299	-200,000	-0,022	-0,079
-458,284	441,642	0,020	0,031
-457,270	103,588	-0,033	-0,028
-456,255	-200,000	0,014	-0,049
-455,241	0,766	0,171	-0,088
-454,226	-83,159	0,076	-0,017
-453,211	-152,696	0,070	0,004
-452,197	69,795	0,105	0,078
-451,182	218,649	-0,114	0,131
-450,168	-139,341	-0,128	-0,010
-449,153	185,643	-0,065	-0,070
-448,138	77,472	-0,083	-0,064
-447,124	-148,448	-0,072	0,004
-446,109	83,507	0,046	-0,036
-445,095	800,000	-0,012	0,027
-444,080	-114,134	0,108	-0,015
-443,065	34,747	0,098	-0,061
-442,051	-59,698	-0,146	0,045
-441,036	44,731	-0,001	-0,001
-440,022	131,808	-0,056	-0,052
-439,007	-0,201	0,168	0,086
-437,992	-67,746	0,080	0,022
-436,978	116,545	0,036	0,032
-435,963	-200,000	0,038	0,144
-434,949	-93,418	0,038	0,007
-433,934	-7,428	-0,115	-0,056
-432,919	-154,679	-0,113	-0,005
-431,905	-41,214	0,054	0,020
-430,890	800,000	0,028	0,066
-429,876	-115,304	0,043	0,006
-428,861	-91,901	-0,010	-0,002
-427,846	-200,000	0,002	0,101
-426,832	57,787	-0,027	0,019
-425,817	-122,942	-0,070	0,008
-424,803	-200,000	0,016	0,094
-423,788	205,771	-0,030	-0,034
-422,773	-153,115	-0,069	0,003
-421,759	161,337	0,092	0,093
-420,744	626,329	0,096	0,175
-419,730	743,141	0,048	-0,093
-418,715	-70,797	-0,134	-0,036
-417,701	130,589	0,077	-0,071
-416,686	-200,000	0,011	-0,080
-415,671	800,000	0,054	-0,149
-414,657	64,233	-0,071	0,051
-413,642	800,000	0,025	0,058
-412,628	43,541	-0,121	-0,079
-411,613	-200,000	-0,014	-0,094
-410,598	-75,061	0,096	0,025
-409,584	-200,000	-0,013	0,054
-408,569	-200,000	-0,026	0,000
-407,555	-200,000	-0,001	0,018
-406,540	-168,318	0,023	0,001
-405,525	167,465	-0,102	0,104
-404,511	-200,000	-0,003	-0,124
-403,496	96,397	0,060	-0,049
-402,482	-57,574	0,098	0,031
-401,467	-200,000	-0,039	0,173
-400,452	121,702	-0,158	0,142
-399,438	48,481	0,088	0,059
-398,423	400,219	-0,055	-0,083
-397,409	345,466	0,048	-0,068
-396,394	-105,267	-0,094	-0,015
-395,379	10,349	0,134	0,073
-394,365	-200,000	0,007	-0,135
-393,350	-200,000	0,018	0,081
-392,336	-200,000	-0,003	0,030
-391,321	-62,517	-0,036	0,011
-390,306	-168,330	-0,073	-0,002
-389,292	-200,000	-0,003	0,044
-388,277	800,000	-0,030	0,062
-387,263	142,232	0,130	0,123
-386,248	-200,000	-0,025	0,136
-385,233	-129,975	0,038	0,004
-384,219	131,385	-0,076	-0,070
-383,204	-200,000	0,030	-0,096
-382,190	62,260	-0,031	-0,022
-381,175	-36,333	0,154	-0,059
-380,160	66,242	0,018	0,013
-379,146	-200,000	0,006	0,043
-378,131	-82,872	0,066	-0,015
-377,117	-20,529	0,062	0,027
-376,102	-161,974	0,072	0,003
-375,088	-200,000	0,009	-0,059
-374,073	593,656	0,020	-0,035
-373,058	99,332	0,147	-0,122
-372,044	-181,283	0,073	-0,001
-371,029	-46,039	-0,131	0,046
-370,015	-12,759	-0,116	0,054
-369,000	322,629	-0,063	-0,086
-367,985	800,000	0,087	0,189
-366,971	208,930	-0,078	-0,088
-365,956	348,863	-0,027	-0,038
-364,942	30,308	0,022	-0,014
-363,927	-200,000	-0,033	0,108
-362,912	208,533	0,027	-0,031
-361,898	242,753	0,009	-0,011
-360,883	220,547	-0,068	-0,078
-359,869	-200,000	-0,004	-0,023
-358,854	-29,021	0,064	0,026
-357,839	-33,115	0,063	0,025
-356,825	-53,070	-0,052	0,017
-355,810	-74,059	0,044	0,011
-354,796	-61,633	0,085	0,025
-353,781	-200,000	-0,014	-0,103
-352,766	-189,021	-0,013	0,000
-351,752	-200,000	-0,046	-0,160
-350,737	6,626	0,040	-0,021
-349,723	-87,898	0,088	-0,019
-348,708	-25,550	0,018	-0,008
-347,693	62,011	-0,053	0,037
-346,679	144,761	-0,068	-0,065
-345,664	-200,000	0,028	-0,128
-344,650	-69,855	0,115	0,031
-343,635	-121,660	-0,086	-0,010
-342,620	-28,203	0,161	0,066
-341,606	334,362	-0,057	-0,079
-340,591	-5,993	0,070	-0,034
-339,577	-7,292	-0,064	-0,031
-338,562	-24,650	-0,041	0,017
-337,548	800,000	0,057	-0,164
-336,533	248,186	0,048	-0,058
-335,518	-98,727	-0,031	-0,006
-334,504	-81,242	0,021	0,005
-333,489	-126,122	-0,141	-0,015
-332,475	427,896	0,048	0,074
-331,460	-200,000	-0,046	0,150
-330,445	800,000	0,104	-0,223
-329,431	253,200	0,065	0,079
-328,416	51,360	-0,082	0,056
-327,402	-200,000	0,018	0,183
-326,387	-65,196	-0,109	0,031
-325,372	132,172	0,035	-0,032
-324,358	23,801	-0,094	0,055
-323,343	23,825	0,090	0,053
-322,329	-200,000	0,002	0,045
-321,314	81,237	0,058	0,044
-320,299	405,685	-0,079	-0,119
-319,285	-200,000	-0,018	-0,085
-318,270	-13,331	0,100	-0,046
-317,256	99,312	-0,072	-0,059
-316,241	240,588	-0,014	0,017
-315,226	182,323	-0,018	0,019
-314,212	-200,000	-0,005	0,199
-313,197	-77,979	0,082	0,020
-312,183	-200,000	0,027	-0,150
-311,168	263,443	0,016	-0,020
-310,153	118,741	-0,072	0,063
-309,139	-200,000	-0,001	0,013
-308,124	-200,000	0,013	0,061
-307,110	-200,000	0,018	-0,095
-306,095	800,000	0,030	0,086
-305,080	-200,000	-0,016	0,082
-304,066	126,708	0,027	0,025
-303,051	-124,221	-0,077	-0,008
-302,037	-200,000	0,022	0,088
-301,022	-200,000	-0,032	-0,173
-300,008	-69,843	0,026	-0,007
-298,993	-194,070	0,043	-0,000
-297,978	676,629	0,014	-0,027
-296,964	-200,000	0,003	-0,037
-295,949	800,000	-0,071	-0,148
-294,935	-200,000	-0,017	0,085
-293,920	-38,133	-0,103	-0,039
-292,905	9,965	0,084	-0,045
-291,891	-200,000	0,003	-0,025
-290,876	63,880	0,119	-0,086
-289,862	6,037	-0,028	-0,015
-288,847	-140,606	-0,119	0,009
-287,832	298,927	-0,079	-0,104
-286,818	800,000	0,004	0,010
-285,803	800,000	-0,051	0,126
-284,789	-200,000	0,017	0,062
-283,774	604,654	0,053	0,094
-282,759	24,951	-0,105	-0,062
-281,745	133,696	0,050	-0,046
-280,730	-86,593	-0,054	-0,012
-279,716	800,000	0,045	-0,107
-278,701	417,422	0,068	-0,103
-277,686	100,155	-0,021	-0,017
-276,672	-9,878	-0,077	-0,036
-275,657	35,101	0,097	0,061
-274,643	55,266	-0,070	0,049
-273,628	800,000	0,017	0,050
-272,613	-200,000	0,043	0,147
-271,599	-200,000	-0,013	0,126
-270,584	157,688	0,056	0,056
-269,570	-200,000	-0,017	0,098
-268,555	-83,304	-0,179	-0,041
-267,540	-80,409	-0,122	-0,029
-266,526	-200,000	0,021	-0,155
-265,511	-200,000	0,011	0,141
-264,497	800,000	0,051	0,148
-263,482	108,469	-0,084	-0,071
-262,467	131,979	0,110	0,101
-261,453	-200,000	0,015	-0,055
-260,438	-200,000	-0,003	-0,105
-259,424	-76,559	-0,036	-0,009
-258,409	-36,879	0,136	-0,052
-257,395	393,921	0,023	-0,034
-256,380	-164,049	0,079	0,003
-255,365	-6,154	0,037	0,018
-254,351	76,751	-0,123	0,093
-253,336	208,436	-0,032	-0,035
-252,322	800,000	-0,025	0,065
-251,307	122,886	0,027	-0,024
-250,292	111,884	-0,071	-0,061
-249,278	-200,000	0,019	-0,190
-248,263	-22,035	0,063	0,027
-247,249	325,241	-0,028	0,039
-246,234	-28,268	-0,092	-0,038
-245,219	800,000	0,035	0,101
-244,205	800,000	0,042	-0,103
-243,190	-49,414	-0,039	0,013
-242,176	800,000	0,030	-0,084
-241,161	-200,000	0,019	-0,152
-240,146	-200,000	0,045	0,171
-239,132	5,738	-0,021	-0,011
-238,117	726,205	-0,016	-0,031
-237,103	86,207	-0,095	0,075
-236,088	-96,770	-0,185	0,034
-235,073	-160,278	0,006	0,000
-234,059	-200,000	0,005	0,043
-233,044	-200,000	0,003	-0,093
-232,030	139,447	-0,002	-0,002
-231,015	800,000	-0,056	0,111
-230,000	800,000	-0,013	-0,029
-228,986	-122,442	0,065	-0,007
-227,971	-111,668	0,093	-0,013
-226,957	-70,001	-0,011	0,003
-225,942	96,669	0,099	0,081
-224,927	331,909	0,081	-0,111
-223,913	800,000	-0,012	-0,030
-222,898	-200,000	0,025	-0,159
-221,884	-200,000	0,022	-0,082
-220,869	40,238	0,122	0,078
-219,855	127,186	0,039	0,035
-218,840	800,000	0,057	0,119
-217,825	-157,811	-0,097	-0,004
-216,811	210,792	-0,052	-0,058
-215,796	137,968	-0,045	0,042
-214,782	-200,000	0,005	0,044
-213,767	219,229	0,038	0,043
-212,752	53,443	-0,051	-0,034
-211,738	-76,132	0,129	0,032
-210,723	-95,934	-0,064	0,012
-209,709	84,504	0,024	-0,019
-208,694	-87,935	-0,071	0,015
-207,679	-72,463	0,061	0,016
-206,665	350,830	0,044	0,062
-205,650	304,789	0,045	0,060
-204,636	-200,000	-0,021	0,176
-203,621	-200,000	-0,008	0,119
-202,606	-200,000	0,030	0,096
-201,592	-36,281	-0,235	0,090
-200,577	25,621	-0,059	0,035
-199,563	135,355	0,097	0,090
-198,548	750,522	0,025	0,048
-197,533	104,256	-0,082	0,069
-196,519	62,405	0,141	0,100
-195,504	-200,000	0,011	0,076
-194,490	67,387	-0,026	0,019
-193,475	-200,000	0,020	0,084
-192,460	-200,000	0,004	0,067
-191,446	613,116	-0,008	0,014
-190,431	800,000	-0,028	0,069
-189,417	313,075	0,052	-0,069
-188,402	434,583	0,091	-0,142
-187,387	37,321	-0,077	0,048
-186,373	800,000	-0,059	0,120
-185,358	-48,973	0,118	0,040
-184,344	71,199	0,131	-0,097
-183,329	101,845	-0,099	0,082
-182,315	-200,000	-0,045	0,158
-181,300	-9,005	-0,080	0,038
-180,285	800,000	-0,027	-0,082
-179,271	91,896	0,041	-0,033
-178,256	-8,125	0,079	-0,038
-177,242	-200,000	0,145	0,000
-176,227	800,000	0,044	0,095
-175,212	63,788	-0,050	-0,036
-174,198	-27,419	-0,117	0,048
-173,183	624,306	-0,027	-0,049
-172,169	796,441	-0,013	-0,026
-171,154	-123,011	-0,060	0,007
-170,139	-189,757	-0,151	0,001
-169,125	115,845	0,029	0,025
-168,110	-200,000	-0,002	-0,009
-167,096	30,685	-0,068	-0,041
-166,081	-125,404	-0,087	-0,009
-165,066	252,362	-0,032	0,039
-164,052	800,000	-0,040	-0,092
-163,037	-200,000	0,034	-0,113
-162,023	577,328	-0,031	0,054
-161,008	233,266	-0,056	0,066
-159,993	-117,769	-0,011	-0,001
-158,979	90,327	0,078	0,062
-157,964	535,657	-0,027	-0,046
-156,950	283,670	-0,057	-0,072
-155,935	800,000	0,052	-0,148
-154,920	800,000	-0,025	-0,067
-153,906	-200,000	-0,012	0,095
-152,891	-49,221	-0,040	0,014
-151,877	30,891	-0,094	0,057
-150,862	-200,000	0,002	0,034
-149,847	-141,596	-0,043	-0,003
-148,833	-200,000	-0,006	-0,116
-147,818	-200,000	-0,000	-0,013
-146,804	-200,000	0,013	-0,087
-145,789	513,248	-0,027	-0,046
-144,775	-200,000	0,025	-0,080
-143,760	-200,000	-0,026	-0,126
-142,745	-86,331	-0,064	0,014
-141,731	-200,000	-0,020	0,086
-140,716	364,067	-0,046	-0,066
-139,702	-149,373	0,111	-0,006
-138,687	62,561	-0,088	-0,063
-137,672	44,082	-0,066	-0,043
-136,658	-34,128	-0,036	-0,014
-135,643	-200,000	-0,018	-0,070
-134,629	184,799	0,018	-0,019
-133,614	-98,873	0,085	-0,015
-132,599	511,403	0,045	0,074
-131,585	-200,000	-0,008	0,136
-130,570	-75,301	-0,153	-0,038
-129,556	317,388	0,029	-0,039
-128,541	156,943	-0,054	-0,053
-127,526	-200,000	0,017	-0,059
-126,512	-200,000	-0,028	0,125
-125,497	495,759	-0,034	0,056
-124,483	-200,000	-0,014	0,147
-123,468	-200,000	0,010	0,137
-122,453	-1,808	-0,114	-0,057
-121,439	-196,046	-0,112	-0,001
-120,424	367,988	0,062	-0,090
-119,410	240,891	0,055	0,065
-118,395	800,000	0,019	0,048
-117,380	-118,497	-0,063	-0,008
-116,366	-200,000	-0,008	-0,130
-115,351	-200,000	-0,006	-0,025
-114,337	260,715	-0,040	-0,049
-113,322	-200,000	0,015	-0,095
-112,307	140,379	0,103	0,097
-111,293	-124,272	0,061	-0,007
-110,278	-52,434	-0,109	-0,036
-109,264	-200,000	0,006	0,100
-108,249	60,827	-0,069	0,048
-107,234	31,146	-0,084	0,051
-106,220	-55,652	-0,084	-0,026
-105,205	-200,000	-0,010	0,104
-104,191	-133,744	0,154	-0,013
-103,176	-200,000	0,015	0,058
-102,162	-200,000	-0,006	0,098
-101,147	-183,797	-0,055	0,001
-100,132	-200,000	-0,008	0,098
-99,118	179,674	-0,069	0,072
-98,103	-200,000	-0,010	0,093
-97,089	-15,508	0,017	0,007
-96,074	-200,000	-0,001	0,013
-95,059	-88,817	-0,073	-0,015
-94,045	142,314	-0,129	-0,121
-93,030	36,408	0,160	0,100
-92,016	-150,782	0,129	-0,007
-91,001	-200,000	-0,011	0,046
-89,986	226,521	-0,106	-0,122
-88,972	-39,791	0,045	0,017
-87,957	-200,000	0,017	0,079
-86,943	-200,000	0,031	-0,148
-85,928	-5,339	-0,069	0,033
-84,913	87,316	-0,132	0,104
-83,899	116,257	0,062	0,054
-82,884	501,163	-0,018	0,030
-81,870	16,345	0,119	-0,066
-80,855	237,821	0,080	-0,095
-79,840	-151,047	0,078	0,004
-78,826	-27,782	0,100	0,041
-77,811	108,336	0,024	-0,020
-76,797	754,801	-0,044	0,084
-75,782	-93,560	0,109	-0,021
-74,767	7,365	-0,114	-0,060
-73,753	-98,369	-0,048	0,009
-72,738	43,716	0,073	0,047
-71,724	-200,000	0,020	-0,138
-70,709	4,855	-0,040	-0,021
-69,694	-13,701	-0,162	0,074
-68,680	253,297	0,062	0,075
-67,665	211,939	-0,062	0,069
-66,651	-200,000	0,000	-0,021
-65,636	-200,000	-0,032	0,207
-64,622	-40,012	-0,076	0,028
-63,607	0,316	0,061	-0,031
-62,592	-78,491	-0,114	0,027
-61,578	-199,781	-0,023	0,000
-60,563	-200,000	0,014	0,130
-59,549	800,000	0,018	0,053
-58,534	84,507	-2,504	-1,937
-57,519	800,000	0,215	-0,508
-56,505	-200,000	-1,610	-5,409
-55,490	239,437	1,142	1,347
-54,476	800,000	5,355	11,809
-53,461	-200,000	20,828	336,389
-52,446	800,000	759,056	2321,830
-51,432	533,844	1663,905	2799,969
-50,417	71,111	1677,499	1229,060
-49,403	17,084	1598,084	893,855
-48,388	11,774	1552,141	840,738
-47,373	18,778	1545,449	873,014
-46,359	15,193	1534,386	848,497
-45,344	10,414	1530,238	821,840
-44,330	10,282	1528,580	820,241
-43,315	10,262	1526,701	819,102
-42,300	10,192	1525,123	817,864
-41,286	10,236	1523,473	817,170
-40,271	10,175	1522,030	816,054
-39,257	10,188	1520,511	815,273
-38,242	10,272	1519,023	814,868
-37,227	10,173	1517,981	813,777
-36,213	10,143	1516,934	813,034
-35,198	10,157	1515,385	812,240
-34,184	10,220	1513,955	811,761
-33,169	10,223	1512,606	811,020
-32,154	10,262	1511,061	810,354
-31,140	10,269	1509,532	809,538
-30,125	10,284	1508,331	808,935
-29,111	10,319	1507,090	808,416
-28,096	10,299	1506,127	807,765
-27,082	10,280	1505,287	807,190
-26,067	10,243	1503,917	806,239
-25,052	10,244	1502,669	805,543
-24,038	10,182	1501,403	804,522
-23,023	10,227	1500,304	804,125
-22,009	10,213	1499,497	803,591
-20,994	10,229	1498,599	803,158
-19,979	10,199	1497,316	802,288
-18,965	10,215	1496,565	801,931
-17,950	10,189	1495,660	801,287
-16,936	10,162	1494,680	800,595
-15,921	10,162	1493,422	799,888
-14,906	10,143	1492,022	799,016
-13,892	10,131	1491,028	798,391
-12,877	10,098	1490,259	797,781
-11,863	10,064	1489,146	796,987
-10,848	10,098	1488,449	796,749
-9,833	10,228	1487,303	796,749
-8,819	10,190	1486,448	796,073
-7,804	10,153	1485,312	795,248
-6,790	10,128	1484,832	794,835
-5,775	10,145	1483,557	794,209
-4,760	10,163	1482,707	793,809
-3,746	10,129	1481,457	792,940
-2,731	10,010	1480,266	791,684
-1,717	9,948	1479,292	790,828
-0,702	9,931	1478,425	790,249
0,313	9,784	1477,438	790,191
1,327	13,475	1474,566	806,705
2,342	22,786	1235,067	713,675
3,356	19,176	693,357	392,357
4,371	-9,023	467,375	220,380
5,386	-12,382	439,550	202,258
6,400	-13,624	430,621	196,325
7,415	-13,279	426,795	195,060
8,429	-14,663	424,140	191,845
9,444	-14,847	422,660	190,897
10,459	-15,023	421,455	190,085
11,473	-15,014	420,271	189,547
12,488	-15,275	419,389	188,763
13,502	-15,368	418,578	188,249
14,517	-15,618	417,520	187,403
15,531	-15,865	416,855	186,741
16,546	-15,858	415,961	186,334
17,561	-15,939	415,518	186,005
18,575	-15,899	414,751	185,701
19,590	-16,048	414,377	185,309
20,604	-15,956	413,804	185,164
21,619	-16,042	413,126	184,723
22,634	-16,068	412,830	184,539
23,648	-16,122	412,154	184,145
24,663	-16,096	411,727	183,975
25,677	-16,094	411,309	183,773
26,692	-16,045	410,866	183,627
27,707	-16,152	410,477	183,289
28,721	-16,122	410,031	183,115
29,736	-16,298	409,593	182,659
30,750	-16,260	409,039	182,448
31,765	-16,216	408,675	182,331
32,780	-16,256	408,327	182,105
33,794	-16,256	408,000	181,942
34,809	-16,090	407,513	181,938
35,823	-16,240	407,129	181,544
36,838	-16,262	406,928	181,408
37,853	-16,380	406,380	180,985
38,867	-16,324	406,023	180,886
39,882	-16,257	405,449	180,706
40,896	-16,222	405,170	180,614
41,911	-16,262	404,848	180,400
42,926	-16,076	404,389	180,432
43,940	-16,297	404,028	179,954
44,955	-16,412	403,792	179,676
45,969	-16,422	403,218	179,392
46,984	-16,533	402,935	179,099
47,999	-16,565	402,531	178,860
49,013	-16,644	402,092	178,542
50,028	-16,636	401,664	178,348
51,042	-16,756	401,379	178,042
52,057	-16,700	400,864	177,874
53,071	-16,714	400,614	177,728
54,086	-16,623	400,316	177,703
55,101	-16,636	400,155	177,597
56,115	-16,257	399,759	177,917
57,130	-15,927	399,750	178,341
58,144	-15,800	399,255	178,274
59,159	-15,739	398,981	178,219
60,174	-15,740	398,657	178,056
61,188	-15,905	398,374	177,692
62,203	-15,901	397,865	177,455
63,217	-15,970	397,458	177,165
64,232	-15,969	397,316	177,088
65,247	-15,663	396,982	177,332
66,261	-15,821	396,632	176,948
67,276	-16,223	395,958	176,097
68,290	-16,400	395,556	175,667
69,305	-16,370	395,368	175,608
70,320	-16,371	394,916	175,391
71,334	-16,100	394,678	175,628
72,349	-15,841	394,539	175,895
73,363	-15,781	394,121	175,772
74,378	-15,904	393,915	175,501
75,393	-15,860	393,531	175,372
76,407	-16,044	393,215	174,973
77,422	-16,062	392,840	174,767
78,436	-15,911	392,382	174,746
79,451	-15,822	392,043	174,698
80,466	-16,105	391,647	174,133
81,480	-16,229	391,356	173,825
82,495	-16,296	391,112	173,613
83,509	-16,134	390,791	173,668
84,524	-16,254	390,403	173,322
85,539	-16,329	390,038	173,047
86,553	-16,470	389,742	172,715
87,568	-16,329	389,406	172,735
88,582	-16,201	389,100	172,752
89,597	-16,223	388,863	172,603
90,611	-16,120	388,811	172,698
91,626	-15,986	388,339	172,649
92,641	-16,156	388,184	172,343
93,655	-16,109	387,745	172,192
94,670	-16,078	387,205	171,978
95,684	-16,185	387,095	171,775
96,699	-16,089	386,864	171,781
97,714	-16,201	386,337	171,387
98,728	-16,240	385,867	171,113
99,743	-16,364	385,793	170,905
100,757	-16,388	385,410	170,689
101,772	-16,294	385,118	170,665
102,787	-16,218	384,797	170,606
103,801	-16,130	384,588	170,612
104,816	-16,060	384,337	170,575
105,830	-15,891	384,095	170,670
106,845	-15,883	383,725	170,501
107,860	-15,946	383,682	170,386
108,874	-16,005	383,123	170,047
109,889	-15,869	382,776	170,052
110,903	-15,969	382,508	169,790
111,918	-16,016	382,214	169,584
112,933	-16,026	382,084	169,498
113,947	-15,941	381,740	169,439
114,962	-15,840	381,425	169,413
115,976	-15,860	381,011	169,189
116,991	-16,077	380,867	168,832
118,006	-15,958	380,488	168,801
119,020	-16,049	380,433	168,646
120,035	-15,856	380,125	168,740
121,049	-15,826	379,911	168,668
122,064	-15,692	379,391	168,592
123,079	-15,903	379,235	168,239
124,093	-16,039	378,774	167,848
125,108	-16,184	378,378	167,474
126,122	-16,267	377,975	167,176
127,137	-16,463	377,670	166,778
128,151	-16,295	377,298	166,812
129,166	-16,088	377,136	166,986
130,181	-16,244	376,764	166,610
131,195	-16,291	376,492	166,415
132,210	-15,955	376,277	166,728
133,224	-15,915	376,259	166,756
134,239	-15,679	375,718	166,798
135,254	-15,681	375,493	166,680
136,268	-15,891	375,180	166,263
137,283	-16,247	374,707	165,593
138,297	-16,355	374,446	165,328
139,312	-16,225	374,226	165,379
140,327	-15,962	374,218	165,689
141,341	-15,644	373,893	165,927
142,356	-15,642	373,719	165,838
143,370	-15,493	373,342	165,841
144,385	-15,459	372,999	165,717
145,400	-15,486	372,732	165,549
146,414	-15,607	372,563	165,309
147,429	-15,773	372,323	164,982
148,443	-15,707	372,148	164,972
149,458	-15,620	371,665	164,851
150,473	-15,729	371,497	164,626
151,487	-15,576	371,216	164,676
152,502	-15,746	371,073	164,389
153,516	-15,727	370,692	164,228
154,531	-15,621	370,229	164,140
155,546	-15,665	370,102	164,015
156,560	-15,597	369,758	163,930
157,575	-15,688	369,322	163,611
158,589	-15,593	369,336	163,719
159,604	-15,392	368,842	163,733
160,619	-15,471	368,609	163,518
161,633	-15,594	368,419	163,268
162,648	-15,580	368,290	163,214
163,662	-15,495	367,856	163,111
164,677	-15,661	367,831	162,882
165,692	-15,512	367,540	162,921
166,706	-15,506	367,193	162,760
167,721	-15,409	367,124	162,833
168,735	-15,371	367,020	162,820
169,750	-15,405	366,635	162,592
170,764	-15,518	366,373	162,324
171,779	-15,501	366,127	162,222
172,794	-15,413	365,817	162,176
173,808	-15,539	365,657	161,938
174,823	-15,965	364,903	161,071
175,837	-16,008	364,752	160,938
176,852	-15,621	364,783	161,408
177,867	-15,404	364,666	161,606
178,881	-15,440	364,349	161,406
179,896	-15,431	364,103	161,294
180,910	-15,460	363,708	161,070
181,925	-15,498	363,523	160,927
182,940	-15,322	363,247	161,003
183,954	-15,258	363,067	160,986
184,969	-15,442	362,839	160,649
185,983	-15,323	362,504	160,630
186,998	-15,395	362,404	160,484
188,013	-15,306	362,162	160,471
189,027	-15,214	361,639	160,334
190,042	-15,272	361,544	160,209
191,056	-15,251	361,459	160,182
192,071	-15,126	361,141	160,177
193,086	-14,963	360,872	160,239
194,100	-14,510	361,068	160,856
195,115	-13,706	361,083	161,813
196,129	-12,733	361,771	163,277
197,144	-8,827	363,649	168,824
198,159	-5,245	364,950	173,745
199,173	-2,458	366,413	177,805
200,188	-2,004	366,187	178,229
201,202	-2,334	365,843	177,647
202,217	-2,118	365,481	177,716
203,232	-1,851	365,437	178,000
204,246	-1,639	365,463	178,254
205,261	-1,470	365,390	178,406
206,275	-1,267	365,097	178,492
207,290	-1,435	364,760	178,108
208,304	-1,551	364,424	177,789
209,319	-1,527	364,136	177,662
210,334	-1,580	363,874	177,454
211,348	-1,520	363,726	177,438
212,363	-1,620	363,279	177,084
213,377	-1,571	363,057	177,019
214,392	-1,393	363,011	177,195
215,407	-1,307	362,825	177,190
216,421	-0,951	362,470	177,427
217,436	-1,231	362,392	177,039
218,450	-1,371	361,922	176,626
219,465	-1,629	361,697	176,192
220,480	-1,552	361,605	176,224
221,494	-1,601	361,367	176,034
222,509	-1,260	361,392	176,437
223,523	-1,160	361,073	176,384
224,538	-1,263	360,762	176,094
225,553	-1,544	360,410	175,573
226,567	-1,305	360,243	175,760
227,582	-1,004	360,105	176,034
228,596	-0,898	359,972	176,078
229,611	-1,000	359,715	175,817
230,626	-1,540	359,258	174,938
231,640	-1,463	359,046	174,911
232,655	-1,183	358,971	175,189
233,669	-0,857	358,799	175,475
234,684	-0,611	358,603	175,654
235,699	-1,048	358,265	174,957
236,713	-1,363	357,881	174,384
237,728	-1,581	357,686	174,016
238,742	-1,618	357,444	173,839
239,757	-1,562	357,089	173,717
240,772	-1,566	356,867	173,588
241,786	-1,413	356,513	173,580
242,801	-1,258	356,530	173,754
243,815	-0,996	356,346	173,958
244,830	-1,136	355,938	173,578
245,844	-1,553	355,640	172,930
246,859	-1,531	355,334	172,791
247,874	-1,229	355,377	173,149
248,888	-1,165	355,155	173,101
249,903	-1,147	355,032	173,047
250,917	-1,268	354,646	172,701
251,932	-1,321	354,326	172,469
252,947	-1,422	353,895	172,127
253,961	-1,418	353,755	172,047
254,976	-1,430	353,797	172,039
255,990	-1,152	353,424	172,164
257,005	-1,124	353,287	172,116
258,020	-1,113	353,079	172,011
259,034	-1,106	352,930	171,932
260,049	-1,235	352,734	171,672
261,063	-1,276	352,406	171,449
262,078	-0,957	352,102	171,654
263,093	-0,744	352,129	171,899
264,107	-0,815	351,910	171,694
265,122	-1,091	351,423	171,122
266,136	-1,065	351,312	171,084
267,151	-1,091	351,074	170,923
268,166	-1,429	350,665	170,319
269,180	-1,570	350,273	169,952
270,195	-1,518	350,164	169,943
271,209	-1,343	350,006	170,052
272,224	-1,229	349,789	170,062
273,239	-1,142	349,669	170,089
274,253	-1,339	349,450	169,741
275,268	-1,432	348,948	169,375
276,282	-1,465	348,798	169,250
277,297	-1,309	348,478	169,258
278,312	-1,061	348,301	169,440
279,326	-1,199	348,077	169,159
280,341	-1,299	347,922	168,954
281,355	-1,064	347,766	169,131
282,370	-0,966	347,553	169,124
283,384	-1,314	347,209	168,545
284,399	-1,466	346,963	168,238
285,414	-1,575	346,724	167,983
286,428	-1,223	346,652	168,333
287,443	-0,817	346,494	168,703
288,457	-0,932	346,326	168,476
289,472	-1,234	345,825	167,874
290,487	-1,428	345,563	167,513
291,501	-1,555	345,406	167,278
292,516	-1,631	345,172	167,064
293,530	-1,429	344,924	167,157
294,545	-1,440	344,875	167,106
295,560	-1,270	344,553	167,127
296,574	-1,180	344,606	167,239
297,589	-1,243	344,203	166,957
298,603	-1,180	344,041	166,935
299,618	-1,179	343,794	166,802
300,633	-1,188	343,578	166,672
301,647	-1,040	343,455	166,764
302,662	-0,821	343,271	166,905
303,676	-0,948	343,103	166,667
304,691	-0,950	342,875	166,538
305,706	-0,882	342,367	166,353
306,720	-1,022	342,306	166,152
307,735	-1,293	341,931	165,652
308,749	-1,202	341,821	165,686
309,764	-1,000	341,657	165,817
310,779	-0,928	341,284	165,702
311,793	-1,281	341,122	165,214
312,808	-1,033	340,980	165,408
313,822	-1,091	340,762	165,223
314,837	-1,143	340,407	164,978
315,852	-1,270	340,211	164,727
316,866	-0,892	339,920	164,992
317,881	-0,909	339,863	164,930
318,895	-1,048	339,613	164,640
319,910	-1,270	339,185	164,171
320,925	-1,326	338,876	163,945
321,939	-1,447	338,718	163,720
322,954	-1,415	338,640	163,703
323,968	-0,938	338,501	164,149
324,983	-0,777	338,447	164,286
325,997	-0,708	338,350	164,300
327,012	-0,809	337,978	163,994
328,027	-0,903	337,898	163,836
329,041	-0,506	337,656	164,143
330,056	-0,778	337,319	163,665
331,070	-1,000	336,991	163,246
332,085	-1,152	336,560	162,856
333,100	-0,990	336,302	162,894
334,114	-0,967	336,263	162,886
335,129	-0,869	336,131	162,915
336,143	-1,030	335,816	162,572
337,158	-0,820	335,623	162,693
338,173	-0,840	335,586	162,640
339,187	-0,926	335,204	162,346
340,202	-1,042	334,950	162,081
341,216	-0,999	334,695	161,990
342,231	-1,015	334,614	161,919
343,246	-1,064	334,312	161,706
344,260	-1,354	334,143	161,293
345,275	-1,032	334,095	161,607
346,289	-1,020	333,778	161,452
347,304	-0,969	333,393	161,307
348,319	-1,147	333,365	161,085
349,333	-0,859	333,174	161,291
350,348	-0,686	333,081	161,419
351,362	-0,486	332,966	161,567
352,377	-0,729	332,718	161,168
353,392	-0,818	332,440	160,923
354,406	-0,826	332,352	160,857
355,421	195,796	1326,912	1384,958
356,435	160,263	1447,930	1384,846
