DTS Sentinel unit serial number:	SN410029Multiplexer serial number:	ORYXHardware model number:	OX2-SRSoftware version number:	ORYX F/W v4,00 Oryx Data Collector v3.7.2.0data status	okinstallation	B6 Nyhavnadifferential loss correction	single-endedforward channel	channel 2reverse channel	N/Adate	2023/12/11time	00:55:08forward acquisition time	300,00reverse acquisition time	0,00gamma	499,1914k internal	0,3122k external	0,3122temperature offset calibration	1,0000default loss term (dB/km)	0,3820temperature slope calibration	1,0000multiplexer offset coefficient	1,0000multiplexer slope coefficient	1,0000fibre end	0,00T internal ref (°C)	22,25T ext. ref 1 (°C)	5,61T ext. ref 2 (°C)	5,65length (m)	temperature (°C)	Stokes	anti-Stokes-744,400	324,165	0,046	-0,065
-743,385	272,865	-0,195	0,258
-742,371	50,917	-0,021	-0,015
-741,356	249,526	-0,201	0,255
-740,342	-44,291	0,040	-0,015
-739,327	-26,586	-0,224	0,097
-738,312	658,886	-0,076	-0,146
-737,298	-119,792	-0,196	0,025
-736,283	491,385	0,003	-0,005
-735,269	-33,722	-0,259	0,106
-734,254	364,577	-0,028	0,043
-733,239	-49,200	-0,323	-0,114
-732,225	-100,966	0,230	0,042
-731,210	353,525	-0,041	0,061
-730,196	800,000	-0,030	0,085
-729,181	14,276	-0,155	-0,090
-728,167	-34,332	0,125	-0,051
-727,152	-200,000	-0,016	0,106
-726,137	413,048	-0,032	-0,052
-725,123	-200,000	0,009	-0,089
-724,108	450,212	-0,025	-0,041
-723,094	385,351	-0,098	-0,152
-722,079	-200,000	-0,073	-0,262
-721,064	743,333	-0,044	0,088
-720,050	-200,000	0,001	-0,091
-719,035	-101,445	0,048	-0,009
-718,021	-11,254	0,041	-0,020
-717,006	-127,882	-0,184	-0,020
-715,991	270,726	-0,070	0,092
-714,977	169,912	-0,058	0,062
-713,962	-200,000	0,031	-0,150
-712,948	270,795	0,077	0,101
-711,933	800,000	0,037	-0,113
-710,918	800,000	-0,032	0,084
-709,904	-27,455	-0,097	-0,042
-708,889	506,602	0,023	0,041
-707,875	-200,000	-0,009	-0,087
-706,860	13,669	-0,108	-0,062
-705,845	202,427	0,056	-0,064
-704,831	-17,431	0,102	0,047
-703,816	-200,000	-0,020	-0,140
-702,802	327,546	0,023	-0,034
-701,787	-200,000	-0,018	-0,059
-700,772	382,546	-0,030	-0,046
-699,758	800,000	0,041	0,091
-698,743	103,933	0,074	-0,065
-697,729	800,000	0,010	-0,032
-696,714	-84,915	0,069	-0,016
-695,699	-22,171	-0,302	-0,136
-694,685	-88,871	-0,126	-0,028
-693,670	471,325	0,062	-0,105
-692,656	-200,000	-0,022	-0,105
-691,641	-131,872	0,055	-0,005
-690,627	-84,541	0,065	0,015
-689,612	-32,331	-0,063	-0,026
-688,597	-66,924	-0,108	-0,031
-687,583	320,416	-0,073	-0,103
-686,568	-200,000	0,002	-0,031
-685,554	142,254	0,123	-0,121
-684,539	-27,841	0,029	-0,013
-683,524	9,938	0,084	-0,047
-682,510	502,745	0,043	-0,074
-681,495	439,788	0,014	-0,023
-680,481	135,278	0,064	-0,062
-679,466	69,776	-0,046	-0,035
-678,451	-49,815	-0,099	-0,035
-677,437	154,522	-0,123	-0,126
-676,422	184,898	-0,108	0,119
-675,408	-48,139	-0,072	-0,026
-674,393	-200,000	-0,029	-0,116
-673,378	2,359	-0,032	0,017
-672,364	-77,112	-0,063	0,016
-671,349	232,195	-0,077	-0,094
-670,335	800,000	0,031	0,072
-669,320	-154,501	0,112	-0,005
-668,305	800,000	-0,022	-0,072
-667,291	14,276	-0,078	-0,045
-666,276	31,440	-0,072	-0,046
-665,262	800,000	-0,011	-0,031
-664,247	-137,709	-0,040	-0,003
-663,232	800,000	0,057	-0,164
-662,218	55,077	-0,062	-0,045
-661,203	4,288	-0,122	-0,066
-660,189	396,176	-0,038	0,059
-659,174	-85,380	-0,031	0,007
-658,159	22,866	-0,068	0,041
-657,145	-97,838	-0,141	-0,027
-656,130	-72,306	0,094	0,026
-655,116	44,057	-0,072	-0,049
-654,101	800,000	0,026	-0,068
-653,086	-9,164	-0,025	-0,012
-652,072	-200,000	-0,023	0,105
-651,057	20,254	0,093	-0,056
-650,043	458,451	-0,081	-0,135
-649,028	-147,273	0,100	-0,006
-648,014	800,000	0,031	0,091
-646,999	51,005	0,069	-0,048
-645,984	800,000	0,094	0,206
-644,970	-62,510	-0,125	-0,038
-643,955	332,911	-0,010	-0,014
-642,941	-200,000	-0,037	-0,166
-641,926	-32,609	-0,110	-0,045
-640,911	75,475	0,052	-0,041
-639,897	6,784	0,055	-0,031
-638,882	591,289	0,049	0,089
-637,868	-77,694	-0,055	-0,014
-636,853	-20,161	-0,063	0,029
-635,838	-200,000	0,020	-0,073
-634,824	-3,289	0,103	-0,053
-633,809	-17,516	0,061	0,029
-632,795	286,320	0,062	0,084
-631,780	25,270	0,081	-0,050
-630,765	-169,005	-0,089	0,002
-629,751	354,864	0,024	-0,035
-628,736	-200,000	0,001	-0,121
-627,722	-200,000	0,002	0,150
-626,707	206,581	-0,025	-0,029
-625,692	-95,393	0,111	-0,022
-624,678	5,305	-0,088	-0,048
-623,663	800,000	0,029	-0,075
-622,649	113,743	-0,108	-0,097
-621,634	259,037	-0,074	0,095
-620,619	-34,665	-0,141	-0,057
-619,605	112,570	0,050	-0,045
-618,590	641,807	-0,038	-0,071
-617,576	-129,829	0,048	-0,005
-616,561	-200,000	0,027	-0,089
-615,546	-148,482	0,168	0,010
-614,532	-138,259	-0,136	-0,011
-613,517	-45,954	0,070	-0,025
-612,503	365,211	0,069	0,103
-611,488	-200,000	-0,006	0,101
-610,474	-52,510	-0,027	0,009
-609,459	-38,856	-0,027	-0,011
-608,444	-5,196	0,086	0,044
-607,430	-200,000	0,000	-0,163
-606,415	170,978	-0,046	-0,049
-605,401	-200,000	-0,030	0,127
-604,386	379,010	0,046	-0,070
-603,371	800,000	-0,105	0,220
-602,357	214,886	0,036	0,043
-601,342	266,064	0,051	-0,066
-600,328	800,000	-0,011	0,025
-599,313	-33,447	-0,125	-0,051
-598,298	-200,000	-0,003	-0,065
-597,284	218,696	0,131	0,155
-596,269	-85,919	-0,069	-0,016
-595,255	-200,000	0,001	0,025
-594,240	6,512	-0,028	-0,016
-593,225	-100,738	0,039	-0,007
-592,211	-200,000	0,016	0,072
-591,196	703,917	-0,041	0,080
-590,182	362,364	0,039	0,059
-589,167	-200,000	0,017	0,062
-588,152	-200,000	-0,029	0,140
-587,138	-200,000	-0,003	-0,015
-586,123	430,362	-0,031	-0,049
-585,109	800,000	0,034	-0,107
-584,094	-19,560	0,075	0,034
-583,079	511,641	-0,049	-0,085
-582,065	-200,000	0,024	-0,116
-581,050	102,497	-0,132	0,114
-580,036	800,000	0,042	0,123
-579,021	147,199	-0,034	0,034
-578,006	-122,663	0,035	-0,004
-576,992	-200,000	0,003	-0,094
-575,977	-88,555	0,017	-0,004
-574,963	-187,438	-0,031	-0,000
-573,948	266,917	-0,025	0,032
-572,934	-200,000	-0,001	-0,005
-571,919	609,197	0,090	-0,167
-570,904	-200,000	0,004	-0,036
-569,890	-166,095	-0,097	-0,003
-568,875	586,990	0,053	0,096
-567,861	-200,000	-0,000	-0,024
-566,846	-128,854	0,112	0,011
-565,831	453,621	-0,027	0,044
-564,817	68,811	-0,084	-0,063
-563,802	800,000	-0,054	-0,141
-562,788	-200,000	-0,008	-0,056
-561,773	430,272	-0,026	0,041
-560,758	-90,256	0,089	0,019
-559,744	214,085	-0,102	0,120
-558,729	-104,338	0,097	0,016
-557,715	530,750	0,096	-0,169
-556,700	800,000	0,068	-0,171
-555,685	800,000	-0,022	0,068
-554,671	178,438	-0,021	-0,023
-553,656	-200,000	-0,004	0,105
-552,642	-182,806	0,027	0,000
-551,627	-66,064	-0,079	0,023
-550,612	54,916	0,135	-0,097
-549,598	-138,950	-0,107	-0,008
-548,583	-200,000	0,013	0,100
-547,569	705,309	0,015	-0,030
-546,554	800,000	-0,015	-0,033
-545,539	-48,230	-0,054	0,019
-544,525	7,595	0,115	0,063
-543,510	431,152	0,029	0,046
-542,496	25,060	-0,144	0,088
-541,481	-198,064	-0,143	-0,001
-540,466	51,041	0,053	0,037
-539,452	800,000	-0,061	0,139
-538,437	38,299	0,090	-0,059
-537,423	800,000	-0,057	0,142
-536,408	-200,000	-0,023	-0,142
-535,393	-1,824	-0,123	-0,064
-534,379	-200,000	-0,021	-0,095
-533,364	800,000	0,023	0,053
-532,350	434,480	-0,012	-0,020
-531,335	-172,957	0,127	0,003
-530,321	-200,000	-0,021	0,080
-529,306	-10,512	-0,120	0,059
-528,291	-37,175	0,045	-0,018
-527,277	182,062	-0,114	-0,124
-526,262	216,177	0,010	0,012
-525,248	146,333	-0,076	-0,075
-524,233	16,991	0,023	0,014
-523,218	-66,595	-0,075	0,022
-522,204	5,763	0,070	-0,038
-521,189	800,000	-0,027	-0,057
-520,175	-37,212	0,079	-0,031
-519,160	308,628	-0,031	0,043
-518,145	61,182	-0,021	0,015
-517,131	96,558	0,072	-0,061
-516,116	-121,675	0,083	0,010
-515,102	-200,000	-0,022	0,136
-514,087	81,491	-0,074	-0,059
-513,072	352,036	0,083	-0,121
-512,058	174,158	0,047	-0,050
-511,043	176,842	0,090	-0,096
-510,029	49,353	0,048	0,033
-509,014	73,026	0,087	-0,067
-507,999	800,000	-0,045	0,110
-506,985	253,937	-0,060	-0,076
-505,970	-41,380	-0,074	-0,028
-504,956	542,310	0,026	0,046
-503,941	615,861	0,059	0,109
-502,926	422,547	0,049	0,078
-501,912	541,535	-0,102	0,180
-500,897	-200,000	-0,001	0,139
-499,883	-82,332	0,026	0,006
-498,868	185,010	-0,084	-0,092
-497,853	800,000	0,004	-0,009
-496,839	-200,000	0,011	0,121
-495,824	-101,209	-0,156	0,028
-494,810	28,847	0,031	0,020
-493,795	-200,000	0,004	-0,038
-492,781	-200,000	0,003	-0,055
-491,766	-142,711	0,035	0,003
-490,751	-200,000	-0,022	-0,149
-489,737	800,000	0,038	-0,116
-488,722	-195,691	0,075	-0,000
-487,708	-200,000	-0,019	-0,097
-486,693	-200,000	0,004	0,014
-485,678	274,237	0,031	-0,041
-484,664	-77,309	0,029	0,007
-483,649	119,715	0,041	-0,037
-482,635	-200,000	-0,011	0,099
-481,620	166,622	0,123	-0,128
-480,605	138,771	0,051	0,049
-479,591	-83,180	-0,027	-0,006
-478,576	-200,000	-0,014	0,052
-477,562	58,597	0,077	-0,055
-476,547	-200,000	-0,025	-0,124
-475,532	800,000	0,039	-0,087
-474,518	-142,180	-0,050	0,004
-473,503	-200,000	0,020	0,170
-472,489	-139,879	0,138	-0,011
-471,474	65,902	-0,059	0,044
-470,459	800,000	0,068	-0,163
-469,445	7,058	-0,152	-0,083
-468,430	80,707	-0,019	-0,015
-467,416	-35,628	0,048	0,019
-466,401	690,679	0,083	0,160
-465,386	54,418	-0,075	-0,053
-464,372	75,867	0,078	0,061
-463,357	-54,545	-0,033	0,011
-462,343	55,891	-0,055	-0,039
-461,328	291,758	-0,066	-0,088
-460,313	800,000	0,024	-0,052
-459,299	-200,000	-0,021	0,104
-458,284	800,000	0,057	0,150
-457,270	-58,750	-0,050	0,016
-456,255	40,390	0,080	-0,053
-455,241	-90,837	-0,142	-0,030
-454,226	637,201	-0,079	-0,149
-453,211	-200,000	-0,026	0,090
-452,197	10,149	0,075	0,042
-451,182	-148,244	-0,074	0,004
-450,168	-155,141	0,026	0,001
-449,153	551,911	0,037	-0,065
-448,138	-38,930	-0,053	-0,021
-447,124	438,341	0,084	0,136
-446,109	106,117	0,011	-0,010
-445,095	-110,738	0,086	0,013
-444,080	4,677	-0,034	0,019
-443,065	137,401	-0,062	-0,059
-442,051	-39,432	-0,057	-0,022
-441,036	-61,916	0,017	-0,005
-440,022	-57,602	-0,142	-0,046
-439,007	67,035	-0,021	0,015
-437,992	-200,000	0,021	0,070
-436,978	-200,000	-0,004	0,024
-435,963	-27,081	0,119	0,051
-434,949	-84,557	-0,129	-0,030
-433,934	35,047	0,093	0,060
-432,919	-37,249	-0,091	0,036
-431,905	582,533	0,036	-0,066
-430,890	-200,000	0,002	-0,051
-429,876	-38,237	0,204	0,079
-428,861	-54,194	0,077	0,026
-427,846	324,972	-0,091	0,129
-426,832	270,348	0,024	-0,031
-425,817	237,867	0,127	-0,156
-424,803	42,438	-0,128	0,086
-423,788	311,023	0,056	-0,077
-422,773	24,974	-0,033	0,020
-421,759	399,024	-0,057	0,088
-420,744	-200,000	0,033	0,114
-419,730	800,000	0,040	-0,114
-418,715	800,000	-0,038	-0,087
-417,701	85,784	0,131	0,106
-416,686	-184,547	0,058	0,001
-415,671	-125,839	-0,008	-0,001
-414,657	-20,335	0,136	0,061
-413,642	-191,326	0,095	0,001
-412,628	-46,828	-0,158	-0,056
-411,613	-39,189	-0,166	0,064
-410,598	800,000	-0,012	-0,034
-409,584	-200,000	0,011	-0,092
-408,569	-72,350	0,008	0,002
-407,555	-39,278	0,081	-0,031
-406,540	12,615	0,060	0,034
-405,525	85,547	-0,079	0,064
-404,511	345,092	-0,059	-0,085
-403,496	-0,856	0,055	-0,028
-402,482	800,000	0,031	-0,068
-401,467	28,640	0,084	-0,052
-400,452	-39,484	0,074	-0,028
-399,438	354,596	-0,028	0,042
-398,423	350,294	0,044	0,064
-397,409	-90,052	-0,046	-0,010
-396,394	-141,313	0,104	-0,008
-395,379	800,000	0,023	0,066
-394,365	-200,000	-0,044	0,143
-393,350	-91,666	0,108	0,022
-392,336	241,577	-0,077	-0,095
-391,321	350,525	-0,074	-0,109
-390,306	782,211	0,045	-0,090
-389,292	-54,794	-0,018	-0,006
-388,277	800,000	0,029	0,063
-387,263	-200,000	0,035	0,203
-386,248	131,796	-0,106	0,101
-385,233	588,583	-0,024	0,043
-384,219	-105,585	-0,007	0,001
-383,204	-15,672	0,023	-0,011
-382,190	-48,031	-0,165	-0,058
-381,175	86,229	-0,156	-0,126
-380,160	590,433	-0,015	0,027
-379,146	800,000	0,026	0,056
-378,131	393,810	-0,025	-0,039
-377,117	-200,000	0,020	-0,134
-376,102	-7,050	-0,124	-0,062
-375,088	337,717	-0,060	-0,086
-374,073	-200,000	0,015	-0,088
-373,058	-200,000	-0,023	-0,090
-372,044	430,213	-0,013	0,021
-371,029	800,000	0,021	0,049
-370,015	800,000	-0,037	0,082
-369,000	-200,000	-0,002	-0,019
-367,985	55,523	-0,033	-0,024
-366,971	58,832	-0,104	-0,075
-365,956	776,575	-0,019	-0,038
-364,942	305,840	-0,024	-0,032
-363,927	235,983	-0,082	0,100
-362,912	272,576	0,070	0,091
-361,898	-192,925	0,121	0,001
-360,883	180,230	-0,054	-0,058
-359,869	-200,000	-0,011	0,052
-358,854	-200,000	0,011	0,108
-357,839	800,000	0,031	0,093
-356,825	-200,000	0,023	0,109
-355,810	800,000	-0,053	0,123
-354,796	800,000	0,020	-0,049
-353,781	7,132	-0,032	0,018
-352,766	565,556	0,036	0,064
-351,752	250,445	0,030	0,037
-350,737	-22,656	-0,064	0,028
-349,723	-184,386	0,053	-0,001
-348,708	-138,821	-0,113	-0,009
-347,693	-51,284	-0,175	0,060
-346,679	169,534	-0,053	-0,055
-345,664	-127,526	-0,091	-0,010
-344,650	-128,658	0,061	-0,006
-343,635	142,787	-0,100	-0,098
-342,620	68,959	0,080	0,060
-341,606	181,928	-0,069	-0,075
-340,591	-85,370	-0,086	0,019
-339,577	34,336	-0,088	-0,056
-338,562	374,708	-0,028	-0,042
-337,548	-200,000	0,015	0,099
-336,533	45,854	-0,057	0,038
-335,518	-192,423	0,100	0,001
-334,504	800,000	0,023	-0,072
-333,489	-77,532	0,141	-0,036
-332,475	631,238	0,079	-0,148
-331,460	299,969	0,107	-0,145
-330,445	800,000	-0,038	0,095
-329,431	363,267	-0,026	-0,038
-328,416	449,952	0,067	0,110
-327,402	-13,426	-0,071	-0,034
-326,387	-130,880	0,066	0,006
-325,372	-200,000	-0,047	-0,155
-324,358	86,931	-0,128	-0,103
-323,343	-200,000	-0,001	0,049
-322,329	413,444	0,031	0,048
-321,314	-200,000	0,036	0,121
-320,299	78,459	0,057	-0,045
-319,285	-200,000	0,004	-0,161
-318,270	-80,718	-0,147	-0,036
-317,256	800,000	-0,059	-0,169
-316,241	-110,618	0,064	0,010
-315,226	10,788	-0,063	-0,035
-314,212	568,345	-0,092	0,164
-313,197	-136,493	0,088	0,007
-312,183	721,881	-0,023	0,045
-311,168	-106,062	-0,081	0,013
-310,153	800,000	0,033	-0,085
-309,139	-149,759	-0,082	0,005
-308,124	35,903	0,027	-0,017
-307,110	800,000	0,026	0,071
-306,095	-200,000	0,028	-0,113
-305,080	15,566	-0,104	-0,060
-304,066	-45,549	-0,144	0,052
-303,051	-155,869	-0,069	0,003
-302,037	-200,000	0,037	-0,120
-301,022	-142,439	0,038	0,003
-300,008	-55,931	0,140	0,046
-298,993	346,255	0,036	-0,052
-297,978	126,654	-0,042	0,039
-296,964	2,270	-0,151	-0,080
-295,949	800,000	-0,042	-0,089
-294,935	-36,668	0,064	-0,025
-293,920	-127,940	-0,129	0,013
-292,905	58,935	0,037	0,026
-291,891	-27,007	0,050	-0,021
-290,876	-176,517	0,063	-0,001
-289,862	800,000	0,047	0,151
-288,847	-163,773	-0,054	-0,002
-287,832	-115,703	-0,042	-0,006
-286,818	-62,681	-0,073	-0,022
-285,803	400,311	0,070	-0,109
-284,789	-106,161	0,134	-0,022
-283,774	161,614	0,025	-0,026
-282,759	-105,614	-0,063	-0,010
-281,745	494,178	0,028	-0,048
-280,730	-200,000	0,006	-0,037
-279,716	482,723	-0,005	-0,008
-278,701	-101,231	-0,020	-0,004
-277,686	102,758	0,064	0,055
-276,672	19,903	0,044	0,026
-275,657	99,131	-0,095	-0,080
-274,643	-84,147	0,190	0,044
-273,628	800,000	-0,008	0,025
-272,613	-200,000	-0,015	0,102
-271,599	-140,537	-0,156	0,012
-270,584	59,581	0,084	0,060
-269,570	387,451	-0,076	0,115
-268,555	-200,000	0,001	-0,061
-267,540	-124,793	-0,041	0,005
-266,526	-200,000	-0,019	0,078
-265,511	-52,080	-0,067	-0,023
-264,497	28,916	0,004	-0,003
-263,482	59,454	0,176	0,127
-262,467	203,219	-0,047	0,054
-261,453	5,182	0,042	0,023
-260,438	-141,703	0,099	0,007
-259,424	-134,061	0,188	-0,017
-258,409	563,931	-0,085	0,150
-257,395	-200,000	0,042	0,178
-256,380	158,008	-0,089	0,090
-255,365	30,039	-0,028	0,018
-254,351	433,075	-0,092	-0,147
-253,336	800,000	0,065	0,136
-252,322	61,498	0,160	0,116
-251,307	-200,000	0,003	0,017
-250,292	-158,475	0,168	-0,007
-249,278	-88,367	-0,023	-0,005
-248,263	-200,000	-0,006	0,082
-247,249	-200,000	-0,034	-0,142
-246,234	-200,000	0,011	-0,035
-245,219	-120,265	-0,083	0,010
-244,205	-200,000	0,007	-0,085
-243,190	800,000	-0,054	0,123
-242,176	-47,673	0,209	0,074
-241,161	45,972	0,049	0,033
-240,146	94,456	0,058	0,048
-239,132	108,405	0,026	-0,023
-238,117	-36,486	-0,093	-0,036
-237,103	-72,692	-0,100	-0,027
-236,088	151,465	0,119	-0,119
-235,073	-71,614	0,197	0,053
-234,059	800,000	0,038	0,113
-233,044	110,580	-0,046	0,041
-232,030	160,395	-0,079	-0,080
-231,015	105,291	-0,072	-0,062
-230,000	-87,480	-0,058	-0,013
-228,986	800,000	-0,024	0,067
-227,971	696,464	-0,069	-0,134
-226,957	-113,505	-0,036	-0,005
-225,942	800,000	0,052	0,124
-224,927	-200,000	-0,014	0,128
-223,913	-200,000	0,008	-0,072
-222,898	800,000	-0,058	-0,123
-221,884	-200,000	0,014	0,077
-220,869	470,649	-0,032	0,053
-219,855	800,000	-0,031	0,076
-218,840	60,044	0,074	0,053
-217,825	-24,032	-0,034	0,015
-216,811	-200,000	0,022	0,098
-215,796	-200,000	-0,025	-0,122
-214,782	-200,000	-0,004	-0,130
-213,767	-200,000	0,005	-0,053
-212,752	-200,000	-0,009	-0,082
-211,738	204,015	-0,087	0,099
-210,723	800,000	0,040	0,117
-209,709	443,537	0,018	-0,029
-208,694	58,946	-0,113	-0,081
-207,679	136,916	0,107	-0,102
-206,665	-22,795	0,087	-0,038
-205,650	327,557	-0,052	0,072
-204,636	-200,000	-0,000	0,081
-203,621	-200,000	0,005	0,087
-202,606	-146,511	-0,165	0,010
-201,592	679,678	0,054	-0,102
-200,577	732,818	-0,098	-0,193
-199,563	800,000	-0,048	0,109
-198,548	800,000	0,061	0,139
-197,533	83,924	-0,005	-0,004
-196,519	162,260	0,067	0,068
-195,504	-200,000	0,018	-0,074
-194,490	-200,000	0,019	-0,070
-193,475	-14,296	-0,119	-0,056
-192,460	-200,000	0,004	-0,039
-191,446	800,000	0,076	0,178
-190,431	-200,000	-0,027	0,197
-189,417	800,000	-0,050	0,112
-188,402	159,683	0,052	-0,053
-187,387	800,000	-0,041	-0,113
-186,373	45,258	-0,064	-0,043
-185,358	-105,486	0,064	-0,011
-184,344	777,240	0,061	-0,123
-183,329	30,428	-0,079	0,049
-182,315	-200,000	0,003	-0,044
-181,300	21,009	0,130	-0,077
-180,285	-200,000	-0,002	0,079
-179,271	620,818	-0,074	0,136
-178,256	-36,141	0,086	0,034
-177,242	691,387	-0,009	0,017
-176,227	332,391	0,081	0,114
-175,212	-200,000	0,010	-0,063
-174,198	28,789	-0,088	-0,054
-173,183	-2,996	-0,040	0,020
-172,169	-152,244	0,072	-0,004
-171,154	-60,805	0,127	-0,039
-170,139	692,358	0,055	0,105
-169,125	-200,000	0,021	0,099
-168,110	13,411	0,046	0,026
-167,096	-1,118	-0,100	-0,052
-166,081	25,064	0,160	-0,097
-165,066	-200,000	0,005	-0,098
-164,052	-21,257	-0,091	0,040
-163,037	-200,000	0,009	0,116
-162,023	-11,875	0,074	-0,035
-161,008	63,415	-0,029	0,021
-159,993	-200,000	-0,034	-0,146
-158,979	-200,000	0,002	-0,071
-157,964	-200,000	-0,018	0,090
-156,950	-200,000	-0,005	-0,180
-155,935	-200,000	0,004	-0,093
-154,920	654,338	-0,063	0,118
-153,906	-146,223	0,172	-0,011
-152,891	536,134	0,071	-0,122
-151,877	44,417	-0,114	0,076
-150,862	-129,508	-0,046	0,005
-149,847	141,237	-0,058	0,056
-148,833	800,000	-0,059	-0,172
-147,818	24,702	0,073	-0,044
-146,804	800,000	0,046	-0,128
-145,789	163,395	0,133	0,136
-144,775	34,066	-0,024	0,015
-143,760	-73,784	-0,084	0,022
-142,745	72,906	-0,035	0,027
-141,731	135,197	0,057	-0,054
-140,716	200,084	0,122	0,136
-139,702	356,904	0,032	0,046
-138,687	731,711	0,054	0,106
-137,672	800,000	0,043	0,092
-136,658	-200,000	0,006	-0,095
-135,643	-116,885	0,047	0,006
-134,629	-33,624	0,038	0,015
-133,614	-153,415	-0,101	-0,005
-132,599	6,550	0,111	0,060
-131,585	141,926	-0,025	-0,024
-130,570	-200,000	-0,016	-0,087
-129,556	800,000	0,031	-0,093
-128,541	-135,066	-0,061	-0,005
-127,526	50,510	0,015	-0,010
-126,512	128,349	-0,088	0,082
-125,497	105,231	0,070	-0,061
-124,483	-200,000	-0,015	0,143
-123,468	149,161	0,029	-0,029
-122,453	798,374	-0,044	-0,090
-121,439	36,678	-0,015	0,010
-120,424	178,505	-0,076	-0,081
-119,410	800,000	-0,016	-0,042
-118,395	22,750	0,068	0,041
-117,380	223,084	0,096	0,112
-116,366	-18,635	-0,057	-0,026
-115,351	46,430	-0,066	-0,045
-114,337	183,720	-0,053	-0,057
-113,322	-200,000	0,012	-0,116
-112,307	346,913	0,131	-0,188
-111,293	182,804	0,088	0,095
-110,278	-200,000	0,020	0,099
-109,264	-200,000	0,006	0,023
-108,249	117,437	0,074	-0,066
-107,234	-146,109	-0,068	-0,004
-106,220	-48,201	0,141	0,049
-105,205	-200,000	-0,010	0,082
-104,191	-56,908	0,076	-0,024
-103,176	-16,278	0,147	-0,068
-102,162	106,722	-0,038	0,032
-101,147	19,386	0,082	0,048
-100,132	246,372	0,021	-0,026
-99,118	-200,000	0,022	-0,105
-98,103	-200,000	-0,004	-0,015
-97,089	32,749	0,094	0,059
-96,074	800,000	-0,060	-0,141
-95,059	599,896	-0,055	-0,100
-94,045	-100,957	-0,097	0,017
-93,030	651,293	0,042	-0,079
-92,016	-200,000	0,048	-0,162
-91,001	-200,000	-0,018	-0,105
-89,986	-13,330	-0,155	0,073
-88,972	-200,000	0,000	-0,005
-87,957	-42,918	-0,037	-0,013
-86,943	-200,000	0,029	0,116
-85,928	239,960	0,015	0,018
-84,913	-200,000	0,032	-0,112
-83,899	800,000	0,032	-0,065
-82,884	-142,639	0,006	-0,000
-81,870	754,249	-0,019	0,038
-80,855	25,181	0,093	0,056
-79,840	492,940	-0,046	0,077
-78,826	-200,000	0,025	-0,112
-77,811	172,864	0,037	0,039
-76,797	-57,328	0,121	0,038
-75,782	800,000	0,024	-0,062
-74,767	206,668	-0,067	0,076
-73,753	800,000	-0,015	0,048
-72,738	43,892	-0,040	0,027
-71,724	800,000	-0,031	-0,073
-70,709	-200,000	-0,000	-0,012
-69,694	-200,000	0,014	-0,171
-68,680	-200,000	0,018	-0,086
-67,665	-61,641	0,118	-0,036
-66,651	491,050	-0,097	0,162
-65,636	-55,792	0,089	-0,029
-64,622	384,179	0,037	0,056
-63,607	515,130	-0,060	-0,102
-62,592	800,000	0,030	0,075
-61,578	253,672	0,027	-0,033
-60,563	27,639	0,118	0,072
-59,549	-144,079	0,105	0,007
-58,534	-105,801	-1,444	-0,234
-57,519	791,774	-0,712	-1,427
-56,505	-200,000	-0,946	-4,499
-55,490	79,028	0,563	-0,437
-54,476	800,000	4,981	11,971
-53,461	-200,000	13,625	253,392
-52,446	-200,000	690,784	2255,623
-51,432	587,794	1622,757	2912,011
-50,417	118,714	1634,235	1464,892
-49,403	73,015	1288,473	976,142
-48,388	37,906	1023,977	659,207
-47,373	24,234	981,640	586,981
-46,359	23,435	971,321	578,169
-45,344	22,434	967,234	572,440
-44,330	22,427	965,598	571,426
-43,315	22,343	964,242	570,326
-42,300	22,312	963,121	569,541
-41,286	22,233	962,528	568,911
-40,271	22,259	961,347	568,272
-39,257	22,220	960,438	567,586
-38,242	22,250	959,383	567,039
-37,227	22,224	958,740	566,551
-36,213	22,196	957,641	565,787
-35,198	22,184	956,846	565,259
-34,184	22,264	956,083	565,044
-33,169	22,218	955,400	564,469
-32,154	22,290	954,292	564,022
-31,140	22,299	953,457	563,537
-30,125	22,317	952,552	563,036
-29,111	22,304	951,900	562,587
-28,096	22,307	951,186	562,154
-27,082	22,265	950,450	561,560
-26,067	22,291	949,715	561,187
-25,052	22,263	949,057	560,689
-24,038	22,285	948,335	560,309
-23,023	22,342	947,659	560,069
-22,009	22,354	947,036	559,717
-20,994	22,375	946,481	559,436
-19,979	22,335	946,021	559,014
-18,965	22,293	945,117	558,322
-17,950	22,303	944,513	557,976
-16,936	22,243	943,948	557,429
-15,921	22,227	943,184	556,903
-14,906	22,141	942,483	556,193
-13,892	22,187	941,879	555,963
-12,877	22,171	941,321	555,559
-11,863	22,156	940,541	555,030
-10,848	22,148	940,130	554,739
-9,833	22,266	939,598	554,779
-8,819	22,284	938,917	554,411
-7,804	22,227	938,344	553,868
-6,790	22,214	937,678	553,415
-5,775	22,230	937,055	553,073
-4,760	22,226	936,392	552,648
-3,746	22,128	936,080	552,132
-2,731	22,036	935,252	551,332
-1,717	21,969	934,672	550,757
-0,702	22,018	933,870	550,418
0,313	21,748	933,240	550,024
1,327	24,912	931,102	558,666
2,342	34,569	795,707	503,147
3,356	32,511	451,330	282,264
4,371	1,349	293,800	152,635
5,386	-3,031	274,817	138,612
6,400	-4,673	268,990	134,136
7,415	-5,214	266,623	132,445
8,429	-4,725	265,297	132,224
9,444	-4,890	264,590	131,709
10,459	-4,807	263,969	131,463
11,473	-4,902	263,321	131,042
12,488	-4,866	262,781	130,794
13,502	-5,286	262,352	130,189
14,517	-4,888	261,880	130,303
15,531	-4,879	261,502	130,112
16,546	-4,870	261,329	130,022
17,561	-4,761	260,833	129,862
18,575	-4,661	260,429	129,739
19,590	-4,801	260,053	129,414
20,604	-4,851	260,066	129,365
21,619	-4,821	259,496	129,096
22,634	-4,892	259,204	128,876
23,648	-4,996	258,869	128,605
24,663	-4,704	258,573	128,707
25,677	-4,752	258,431	128,582
26,692	-4,870	258,178	128,339
27,707	-4,754	257,839	128,263
28,721	-4,747	257,590	128,134
29,736	-4,860	257,228	127,841
30,750	-5,051	257,098	127,596
31,765	-4,969	256,928	127,573
32,780	-4,831	256,554	127,498
33,794	-4,824	256,377	127,405
34,809	-4,920	256,254	127,249
35,823	-4,963	255,935	127,040
36,838	-5,035	255,666	126,832
37,853	-4,947	255,383	126,758
38,867	-5,015	255,340	126,665
39,882	-4,877	255,043	126,627
40,896	-4,965	254,819	126,428
41,911	-4,982	254,639	126,313
42,926	-4,786	254,245	126,278
43,940	-4,891	253,901	126,004
44,955	-4,973	253,736	125,839
45,969	-4,981	253,760	125,833
46,984	-5,385	253,446	125,314
47,999	-5,363	253,198	125,199
49,013	-5,671	252,862	124,753
50,028	-5,812	252,679	124,529
51,042	-5,842	252,506	124,407
52,057	-5,806	252,030	124,193
53,071	-5,589	251,964	124,337
54,086	-5,825	251,927	124,103
55,101	-5,476	251,627	124,246
56,115	-5,144	251,442	124,431
57,130	-4,769	251,386	124,716
58,144	-4,633	251,207	124,734
59,159	-4,916	251,114	124,432
60,174	-4,791	250,788	124,367
61,188	-4,737	250,787	124,402
62,203	-4,943	250,487	124,065
63,217	-4,938	250,381	124,006
64,232	-5,064	250,153	123,774
65,247	-4,717	249,795	123,883
66,261	-4,732	249,429	123,678
67,276	-4,995	249,414	123,434
68,290	-5,151	249,030	123,100
69,305	-5,362	248,776	122,783
70,320	-5,176	248,658	122,873
71,334	-5,054	248,504	122,889
72,349	-4,829	248,322	122,980
73,363	-4,797	248,212	122,942
74,378	-4,541	247,931	123,010
75,393	-5,102	247,772	122,443
76,407	-5,098	247,740	122,419
77,422	-4,975	247,469	122,379
78,436	-4,932	247,176	122,260
79,451	-5,000	246,991	122,100
80,466	-5,123	246,701	121,841
81,480	-5,257	246,623	121,679
82,495	-5,170	246,399	121,631
83,509	-5,174	246,163	121,500
84,524	-5,324	246,047	121,305
85,539	-5,504	245,871	121,056
86,553	-5,244	245,370	121,017
87,568	-5,251	245,360	120,996
88,582	-5,131	245,234	121,023
89,597	-5,381	245,004	120,690
90,611	-5,080	244,904	120,882
91,626	-4,930	244,728	120,911
92,641	-4,810	244,453	120,864
93,655	-5,095	244,418	120,598
94,670	-5,174	244,155	120,391
95,684	-4,824	243,838	120,516
96,699	-5,153	243,820	120,222
97,714	-5,217	243,447	119,974
98,728	-5,352	243,361	119,808
99,743	-5,359	243,104	119,665
100,757	-5,358	242,950	119,580
101,772	-5,271	242,758	119,547
102,787	-5,247	242,642	119,499
103,801	-5,153	242,461	119,477
104,816	-5,281	242,476	119,367
105,830	-5,018	242,254	119,466
106,845	-4,893	242,077	119,471
107,860	-4,957	241,726	119,234
108,874	-5,074	241,559	119,044
109,889	-5,099	241,378	118,924
110,903	-5,248	241,167	118,687
111,918	-5,225	241,049	118,637
112,933	-5,013	240,829	118,693
113,947	-5,198	240,761	118,496
114,962	-5,034	240,585	118,534
115,976	-5,052	240,453	118,444
116,991	-4,970	240,128	118,341
118,006	-5,129	239,855	118,065
119,020	-4,900	239,898	118,263
120,035	-5,080	239,840	118,077
121,049	-4,980	239,648	118,053
122,064	-4,961	239,472	117,972
123,079	-4,943	239,262	117,873
124,093	-5,129	238,935	117,549
125,108	-5,240	238,865	117,413
126,122	-5,557	238,722	117,074
127,137	-5,479	238,507	117,021
128,151	-5,405	238,202	116,922
129,166	-5,305	238,204	116,994
130,181	-5,525	237,847	116,629
131,195	-5,485	237,677	116,568
132,210	-5,190	237,640	116,779
133,224	-4,893	237,403	116,893
134,239	-5,007	237,216	116,698
135,254	-5,112	237,199	116,595
136,268	-5,307	236,974	116,316
137,283	-5,370	236,497	116,020
138,297	-5,551	236,459	115,845
139,312	-5,532	236,128	115,688
140,327	-5,140	236,135	115,997
141,341	-4,637	236,167	116,408
142,356	-4,734	236,058	116,266
143,370	-4,575	235,752	116,233
144,385	-4,624	235,794	116,203
145,400	-4,671	235,516	116,019
146,414	-4,510	235,306	116,034
147,429	-4,518	235,206	115,967
148,443	-4,649	234,931	115,717
149,458	-4,766	234,811	115,554
150,473	-4,837	234,773	115,468
151,487	-4,821	234,421	115,297
152,502	-4,964	234,236	115,082
153,516	-4,684	234,220	115,287
154,531	-4,787	233,983	115,077
155,546	-4,820	233,849	114,975
156,560	-4,751	233,605	114,900
157,575	-5,062	233,420	114,552
158,589	-4,859	233,236	114,612
159,604	-4,715	233,183	114,690
160,619	-4,700	233,051	114,627
161,633	-4,635	232,888	114,589
162,648	-4,613	232,673	114,490
163,662	-4,825	232,549	114,251
164,677	-4,800	232,275	114,126
165,692	-4,743	232,226	114,137
166,706	-4,778	232,088	114,030
167,721	-4,610	231,933	114,077
168,735	-4,494	231,780	114,083
169,750	-4,528	231,658	113,986
170,764	-4,733	231,579	113,776
171,779	-4,832	231,276	113,538
172,794	-4,656	231,144	113,602
173,808	-4,690	230,941	113,466
174,823	-5,299	230,507	112,765
175,837	-5,370	230,457	112,674
176,852	-5,006	230,530	112,986
177,867	-4,736	230,399	113,123
178,881	-4,768	230,209	112,994
179,896	-4,559	230,048	113,069
180,910	-4,547	229,818	112,955
181,925	-4,707	229,752	112,787
182,940	-4,543	229,488	112,776
183,954	-4,431	229,400	112,810
184,969	-4,491	229,404	112,755
185,983	-4,422	229,226	112,711
186,998	-4,358	229,083	112,680
188,013	-4,487	228,880	112,470
189,027	-4,433	228,716	112,422
190,042	-4,615	228,591	112,209
191,056	-4,510	228,462	112,217
192,071	-4,440	228,168	112,117
193,086	-4,677	227,948	111,815
194,100	-4,744	227,845	111,703
195,115	-5,064	227,555	111,303
196,129	-5,606	227,207	110,705
197,144	-1,891	228,426	114,169
198,159	2,379	229,577	118,054
199,173	4,268	230,050	119,755
200,188	4,149	229,975	119,612
201,202	4,338	229,798	119,656
202,217	4,429	229,792	119,713
203,232	4,750	229,501	119,800
204,246	4,658	229,364	119,646
205,261	4,898	229,199	119,735
206,275	5,193	229,070	119,885
207,290	5,023	229,122	119,770
208,304	4,729	228,922	119,428
209,319	4,988	228,767	119,537
210,334	4,904	228,629	119,389
211,348	4,758	228,352	119,121
212,363	4,322	228,084	118,635
213,377	4,067	227,898	118,332
214,392	4,228	227,681	118,332
215,407	4,308	227,551	118,316
216,421	4,172	227,610	118,231
217,436	4,212	227,174	118,025
218,450	4,128	226,973	117,845
219,465	4,047	226,793	117,680
220,480	3,828	226,870	117,541
221,494	3,985	226,588	117,505
222,509	3,989	226,671	117,541
223,523	4,239	226,298	117,528
224,538	3,952	226,244	117,270
225,553	3,870	226,143	117,145
226,567	4,240	225,957	117,320
227,582	4,385	225,914	117,397
228,596	4,373	225,772	117,304
229,611	4,264	225,513	117,076
230,626	4,187	225,279	116,886
231,640	4,077	225,208	116,755
232,655	4,320	225,071	116,857
233,669	4,822	225,027	117,205
234,684	4,667	224,955	117,039
235,699	4,642	224,587	116,819
236,713	4,423	224,511	116,603
237,728	4,235	224,282	116,332
238,742	4,092	224,095	116,116
239,757	4,146	223,838	116,014
240,772	3,997	223,847	115,896
241,786	4,220	223,651	115,952
242,801	4,439	223,698	116,131
243,815	4,576	223,522	116,132
244,830	4,588	223,382	116,058
245,844	4,176	223,218	115,653
246,859	4,183	223,039	115,555
247,874	4,389	222,957	115,657
248,888	4,618	222,889	115,783
249,903	4,293	222,601	115,380
250,917	4,271	222,359	115,227
251,932	4,314	222,219	115,177
252,947	4,118	222,091	114,955
253,961	4,049	221,903	114,795
254,976	4,148	221,759	114,784
255,990	4,277	221,798	114,890
257,005	4,281	221,707	114,836
258,020	4,224	221,592	114,724
259,034	4,687	221,486	115,003
260,049	4,363	221,267	114,638
261,063	4,277	221,066	114,460
262,078	4,504	220,852	114,507
263,093	4,743	220,800	114,647
264,107	4,486	220,734	114,412
265,122	4,700	220,462	114,419
266,136	4,727	220,406	114,400
267,151	4,538	220,348	114,220
268,166	4,277	219,932	113,802
269,180	3,995	219,680	113,454
270,195	4,002	219,572	113,392
271,209	3,872	219,528	113,264
272,224	4,172	219,405	113,411
273,239	4,163	219,332	113,357
274,253	4,078	219,219	113,226
275,268	3,819	219,058	112,942
276,282	3,910	218,818	112,875
277,297	3,754	218,605	112,641
278,312	3,857	218,516	112,660
279,326	4,185	218,413	112,837
280,341	4,064	218,315	112,688
281,355	4,014	218,178	112,571
282,370	4,335	217,958	112,682
283,384	4,267	217,733	112,505
284,399	3,955	217,706	112,255
285,414	4,052	217,516	112,217
286,428	4,041	217,527	112,205
287,443	4,392	217,359	112,364
288,457	4,113	217,147	112,041
289,472	4,260	216,976	112,050
290,487	3,728	216,648	111,484
291,501	3,656	216,642	111,419
292,516	3,890	216,453	111,481
293,530	3,992	216,382	111,509
294,545	3,854	216,227	111,319
295,560	3,798	216,241	111,275
296,574	3,933	216,226	111,356
297,589	4,078	216,131	111,402
298,603	3,939	215,964	111,205
299,618	4,090	215,532	111,082
300,633	4,174	215,456	111,093
301,647	4,499	215,563	111,373
302,662	4,359	215,342	111,148
303,676	4,384	215,200	111,083
304,691	4,254	215,033	110,893
305,706	4,338	214,962	110,907
306,720	4,457	214,805	110,902
307,735	4,308	214,637	110,698
308,749	4,050	214,386	110,374
309,764	4,357	214,304	110,542
310,779	4,354	214,255	110,505
311,793	4,351	214,100	110,412
312,808	4,287	213,940	110,275
313,822	4,370	213,616	110,157
314,837	4,069	213,542	109,894
315,852	3,825	213,411	109,643
316,866	4,064	213,284	109,738
317,881	4,286	213,220	109,854
318,895	4,332	212,998	109,763
319,910	4,112	212,993	109,593
320,925	3,813	212,675	109,208
321,939	3,669	212,426	108,968
322,954	3,731	212,324	108,950
323,968	4,324	212,325	109,361
324,983	4,009	212,327	109,129
325,997	4,309	212,210	109,271
327,012	4,131	212,098	109,078
328,027	4,266	211,785	109,003
329,041	4,596	211,805	109,237
330,056	4,521	211,670	109,105
331,070	4,386	211,397	108,859
332,085	3,987	211,184	108,458
333,100	4,025	211,067	108,415
334,114	4,134	210,990	108,443
335,129	4,070	210,910	108,347
336,143	3,898	210,785	108,152
337,158	3,819	210,563	107,973
338,173	3,997	210,475	108,043
339,187	3,896	210,185	107,814
340,202	3,710	210,123	107,642
341,216	3,775	209,818	107,521
342,231	3,891	209,834	107,602
343,246	3,809	209,724	107,478
344,260	3,878	209,613	107,460
345,275	4,000	209,488	107,471
346,289	4,050	209,479	107,492
347,304	4,147	209,445	107,533
348,319	4,126	209,026	107,293
349,333	4,090	208,958	107,224
350,348	4,163	208,936	107,254
351,362	4,325	208,765	107,269
352,377	4,236	208,709	107,169
353,392	4,163	208,489	106,996
354,406	4,150	208,432	106,948
355,421	193,360	1345,197	1432,342
356,435	154,262	1483,793	1432,466
