DTS Sentinel unit serial number:	SN410029Multiplexer serial number:	ORYXHardware model number:	OX2-SRSoftware version number:	ORYX F/W v4,00 Oryx Data Collector v3.7.2.0data status	okinstallation	B6 Nyhavnadifferential loss correction	single-endedforward channel	channel 2reverse channel	N/Adate	2023/12/09time	09:50:08forward acquisition time	300,00reverse acquisition time	0,00gamma	499,1914k internal	0,3139k external	0,3139temperature offset calibration	1,0000default loss term (dB/km)	0,3820temperature slope calibration	1,0000multiplexer offset coefficient	1,0000multiplexer slope coefficient	1,0000fibre end	0,00T internal ref (°C)	18,50T ext. ref 1 (°C)	2,11T ext. ref 2 (°C)	2,11length (m)	temperature (°C)	Stokes	anti-Stokes-744,400	-91,242	0,111	-0,023
-743,385	-44,088	-0,231	0,086
-742,371	21,669	0,054	-0,033
-741,356	284,209	-0,067	0,089
-740,342	800,000	0,082	0,183
-739,327	-24,387	-0,156	0,069
-738,312	282,657	-0,027	-0,037
-737,298	-71,258	-0,300	0,083
-736,283	-43,308	0,114	0,043
-735,269	-146,857	-0,279	-0,018
-734,254	800,000	-0,046	-0,109
-733,239	-73,806	-0,427	-0,114
-732,225	-146,506	0,231	0,015
-731,210	172,724	-0,081	0,087
-730,196	-200,000	0,001	-0,031
-729,181	800,000	0,036	0,074
-728,167	458,969	-0,087	0,143
-727,152	194,968	-0,092	0,104
-726,137	-37,457	-0,151	-0,059
-725,123	153,742	-0,096	-0,097
-724,108	709,502	-0,111	-0,218
-723,094	-200,000	-0,044	-0,149
-722,079	-69,229	0,087	0,024
-721,064	234,138	-0,066	-0,080
-720,050	614,966	-0,038	-0,072
-719,035	110,692	-0,056	-0,050
-718,021	800,000	-0,018	-0,051
-717,006	105,692	-0,044	0,039
-715,991	-173,903	-0,133	-0,003
-714,977	800,000	0,013	-0,039
-713,962	-15,748	-0,090	0,042
-712,948	-200,000	-0,002	-0,039
-711,933	154,437	0,067	-0,069
-710,918	242,618	0,022	0,027
-709,904	-3,865	-0,079	-0,040
-708,889	-200,000	-0,001	-0,029
-707,875	-111,718	-0,105	0,016
-706,860	97,201	-0,035	-0,030
-705,845	-146,884	-0,068	0,004
-704,831	-200,000	-0,006	0,069
-703,816	272,727	0,064	0,084
-702,802	44,675	-0,083	0,057
-701,787	53,168	-0,066	0,047
-700,772	-200,000	0,012	0,054
-699,758	252,119	0,036	0,045
-698,743	-74,766	0,045	-0,012
-697,729	-105,550	-0,117	0,019
-696,714	308,499	-0,007	-0,009
-695,699	284,013	-0,054	0,072
-694,685	800,000	0,048	-0,137
-693,670	212,941	-0,109	-0,127
-692,656	-200,000	0,009	0,044
-691,641	-200,000	0,015	0,117
-690,627	-200,000	-0,016	0,076
-689,612	-84,920	0,065	-0,015
-688,597	401,390	-0,052	-0,081
-687,583	-200,000	-0,005	-0,211
-686,568	-200,000	0,016	0,053
-685,554	-152,711	-0,043	0,002
-684,539	-200,000	0,003	-0,056
-683,524	406,021	-0,030	0,047
-682,510	-107,686	0,053	0,008
-681,495	-200,000	-0,014	-0,105
-680,481	-200,000	-0,024	0,081
-679,466	-77,239	0,029	-0,007
-678,451	129,872	0,073	-0,069
-677,437	-12,594	0,079	0,038
-676,422	-159,553	-0,082	0,003
-675,408	800,000	0,020	0,059
-674,393	-200,000	-0,009	-0,206
-673,378	-200,000	0,002	0,019
-672,364	-151,838	0,007	-0,000
-671,349	124,957	0,057	-0,053
-670,335	-167,562	0,092	0,003
-669,320	-200,000	0,000	-0,087
-668,305	74,385	-0,039	0,031
-667,291	371,253	-0,077	-0,115
-666,276	800,000	0,053	-0,125
-665,262	15,052	-0,051	-0,030
-664,247	261,344	-0,086	-0,111
-663,232	545,925	0,051	0,091
-662,218	63,513	0,106	0,079
-661,203	39,458	0,107	-0,071
-660,189	-200,000	-0,001	-0,088
-659,174	-200,000	0,016	-0,107
-658,159	188,551	-0,027	0,029
-657,145	185,339	0,010	-0,011
-656,130	800,000	0,046	0,130
-655,116	-73,355	0,064	0,017
-654,101	-149,820	0,168	0,010
-653,086	79,279	0,124	0,098
-652,072	-78,333	-0,064	-0,016
-651,057	-141,446	-0,260	-0,019
-650,043	800,000	-0,021	-0,067
-649,028	-200,000	-0,008	-0,044
-648,014	-31,329	-0,104	-0,043
-646,999	-16,156	0,091	-0,043
-645,984	-200,000	-0,007	-0,079
-644,970	441,999	0,071	-0,116
-643,955	1,133	0,069	-0,036
-642,941	209,893	-0,124	-0,144
-641,926	44,859	-0,045	0,031
-640,911	256,139	0,071	0,090
-639,897	131,075	0,064	0,060
-638,882	-200,000	0,003	0,036
-637,868	155,585	0,095	-0,096
-636,853	800,000	0,005	0,011
-635,838	-200,000	0,011	-0,057
-634,824	207,606	-0,056	-0,064
-633,809	447,962	0,012	0,020
-632,795	-94,284	0,061	-0,012
-631,780	-183,563	-0,109	-0,001
-630,765	-27,688	-0,212	0,090
-629,751	58,683	-0,032	0,023
-628,736	-49,850	-0,058	0,020
-627,722	22,161	0,068	0,041
-626,707	-200,000	0,026	-0,096
-625,692	-161,357	-0,134	0,005
-624,678	-58,334	0,150	-0,048
-623,663	-52,210	0,009	-0,003
-622,649	-120,735	-0,176	-0,022
-621,634	48,250	-0,180	-0,124
-620,619	-200,000	0,008	-0,084
-619,605	-115,479	-0,050	-0,007
-618,590	-39,360	0,130	0,050
-617,576	800,000	0,033	-0,075
-616,561	-160,926	0,064	0,002
-615,546	-40,271	-0,136	0,052
-614,532	-200,000	0,008	-0,136
-613,517	0,889	0,138	0,073
-612,503	596,440	-0,026	-0,047
-611,488	-67,500	0,016	-0,005
-610,474	800,000	0,019	-0,060
-609,459	-200,000	0,003	0,101
-608,444	-200,000	-0,003	-0,089
-607,430	-200,000	0,013	0,097
-606,415	693,204	-0,085	-0,166
-605,401	800,000	0,008	0,018
-604,386	-200,000	-0,016	0,071
-603,371	167,024	0,108	0,113
-602,357	-136,027	-0,051	-0,004
-601,342	-86,566	0,155	0,035
-600,328	-42,871	-0,105	0,039
-599,313	-123,451	0,102	0,012
-598,298	-48,271	-0,082	0,029
-597,284	172,363	-0,015	-0,015
-596,269	84,888	0,142	0,115
-595,255	-120,295	-0,077	0,010
-594,240	800,000	-0,031	-0,073
-593,225	-200,000	0,007	-0,188
-592,211	-33,679	0,121	-0,049
-591,196	406,144	0,096	0,150
-590,182	800,000	0,032	-0,079
-589,167	800,000	0,028	-0,079
-588,152	800,000	-0,022	-0,068
-587,138	-93,691	0,050	0,010
-586,123	-0,681	0,039	-0,021
-585,109	-52,627	0,142	-0,048
-584,094	800,000	-0,029	-0,071
-583,079	-200,000	-0,005	-0,179
-582,065	-200,000	0,006	-0,077
-581,050	-200,000	-0,008	0,055
-580,036	385,276	-0,028	-0,042
-579,021	-200,000	0,008	-0,053
-578,006	62,078	-0,067	-0,049
-576,992	-5,928	0,118	-0,059
-575,977	117,371	-0,098	0,088
-574,963	168,568	0,063	0,066
-573,948	478,835	-0,065	0,108
-572,934	800,000	-0,044	-0,097
-571,919	-107,404	0,125	0,020
-570,904	-122,623	-0,159	-0,019
-569,890	-200,000	-0,028	0,125
-568,875	-34,625	0,075	-0,030
-567,861	537,544	-0,043	0,075
-566,846	-200,000	0,032	-0,120
-565,831	-80,219	-0,037	-0,009
-564,817	-196,053	-0,119	-0,001
-563,802	-114,143	-0,037	0,005
-562,788	-74,183	-0,031	0,008
-561,773	-200,000	-0,024	-0,081
-560,758	13,848	-0,045	0,026
-559,744	52,888	-0,031	-0,022
-558,729	390,350	0,043	0,066
-557,715	34,771	-0,053	-0,034
-556,700	31,603	0,039	-0,025
-555,685	-68,358	-0,084	-0,024
-554,671	800,000	-0,054	0,145
-553,656	-71,200	0,127	0,035
-552,642	-200,000	-0,034	0,125
-551,627	524,909	-0,076	-0,132
-550,612	-26,344	-0,077	-0,033
-549,598	-109,978	-0,094	-0,014
-548,583	-200,000	0,026	-0,157
-547,569	800,000	0,029	-0,070
-546,554	492,935	0,078	0,132
-545,539	430,813	0,095	0,152
-544,525	557,624	0,028	0,050
-543,510	-200,000	0,001	0,085
-542,496	187,358	0,098	-0,108
-541,481	33,074	-0,130	0,083
-540,466	-79,932	-0,115	-0,028
-539,452	-2,443	0,095	-0,049
-538,437	-200,000	-0,003	0,010
-537,423	-139,546	-0,037	-0,003
-536,408	366,567	0,044	-0,066
-535,393	-136,091	-0,036	-0,003
-534,379	800,000	0,053	-0,169
-533,364	-94,633	0,059	0,012
-532,350	-4,087	-0,115	-0,058
-531,335	-200,000	-0,035	0,136
-530,321	489,230	0,036	0,060
-529,306	-34,925	-0,113	0,045
-528,291	-200,000	-0,001	0,004
-527,277	-200,000	0,013	-0,089
-526,262	43,706	0,034	-0,023
-525,248	-1,684	0,170	0,088
-524,233	1,624	-0,132	-0,070
-523,218	223,287	0,092	0,109
-522,204	133,353	0,082	-0,078
-521,189	-3,997	-0,073	-0,037
-520,175	654,119	-0,026	-0,050
-519,160	-200,000	-0,007	-0,084
-518,145	-200,000	-0,008	-0,037
-517,131	800,000	-0,025	0,077
-516,116	-87,776	-0,127	0,028
-515,102	302,398	-0,048	0,066
-514,087	62,161	-0,059	0,043
-513,072	167,688	0,003	0,003
-512,058	430,561	0,025	0,041
-511,043	-173,945	0,085	0,002
-510,029	-24,582	0,138	-0,060
-509,014	118,175	0,018	-0,017
-507,999	-94,760	-0,043	0,008
-506,985	284,193	-0,054	-0,072
-505,970	-200,000	0,001	-0,023
-504,956	83,289	0,036	-0,028
-503,941	-158,764	0,077	-0,003
-502,926	-200,000	-0,002	-0,045
-501,912	-62,562	-0,016	-0,005
-500,897	-200,000	-0,012	-0,109
-499,883	43,763	-0,033	-0,022
-498,868	321,923	-0,045	0,063
-497,853	-200,000	0,003	-0,053
-496,839	32,274	-0,064	-0,040
-495,824	-200,000	0,024	-0,119
-494,810	800,000	-0,015	0,042
-493,795	306,159	-0,030	-0,042
-492,781	449,061	-0,057	0,093
-491,766	328,862	-0,061	-0,087
-490,751	-144,342	-0,108	-0,007
-489,737	86,827	0,024	0,019
-488,722	-200,000	0,027	0,137
-487,708	223,697	-0,071	0,084
-486,693	130,031	0,059	0,055
-485,678	-40,111	0,064	0,024
-484,664	126,847	-0,136	-0,126
-483,649	207,521	0,017	-0,019
-482,635	64,928	0,052	-0,039
-481,620	-46,706	0,163	-0,058
-480,605	-200,000	-0,027	0,099
-479,591	-34,555	0,080	-0,032
-478,576	-200,000	0,001	-0,155
-477,562	-77,130	-0,096	0,024
-476,547	363,618	-0,118	-0,174
-475,532	80,012	0,035	-0,027
-474,518	-200,000	-0,005	-0,051
-473,503	-49,602	0,053	0,018
-472,489	709,764	0,054	-0,106
-471,474	19,333	-0,053	-0,031
-470,459	800,000	0,027	0,059
-469,445	-48,893	0,023	0,008
-468,430	-200,000	0,004	-0,054
-467,416	111,266	0,085	-0,075
-466,401	36,424	0,134	0,087
-465,386	-95,803	0,110	-0,021
-464,372	-200,000	0,001	0,106
-463,357	181,174	0,023	-0,024
-462,343	800,000	0,047	0,098
-461,328	43,971	0,032	0,021
-460,313	-104,354	-0,028	0,005
-459,299	407,188	-0,070	0,108
-458,284	128,823	0,077	-0,072
-457,270	-200,000	0,034	0,155
-456,255	800,000	0,005	0,012
-455,241	281,857	-0,076	-0,100
-454,226	-53,382	-0,182	0,061
-453,211	-19,695	-0,039	0,018
-452,197	-131,793	-0,092	-0,009
-451,182	-148,419	-0,078	0,005
-450,168	800,000	-0,050	-0,139
-449,153	-180,004	-0,046	0,001
-448,138	-162,799	-0,137	0,005
-447,124	35,517	0,024	0,015
-446,109	-69,423	-0,084	-0,023
-445,095	423,877	-0,083	-0,132
-444,080	328,077	0,063	0,088
-443,065	800,000	0,056	0,166
-442,051	-200,000	-0,006	0,029
-441,036	-22,437	0,106	-0,047
-440,022	-101,055	-0,060	0,011
-439,007	-187,758	0,052	0,000
-437,992	334,302	0,046	0,066
-436,978	781,619	0,026	0,053
-435,963	-200,000	0,018	0,086
-434,949	223,542	-0,055	0,065
-433,934	-88,210	-0,132	0,029
-432,919	-41,702	0,120	0,045
-431,905	144,667	0,035	0,034
-430,890	-34,743	0,106	-0,042
-429,876	-35,620	0,105	0,042
-428,861	665,411	-0,040	0,076
-427,846	276,458	-0,062	0,081
-426,832	325,888	-0,079	-0,111
-425,817	800,000	-0,043	-0,089
-424,803	226,822	0,040	0,047
-423,788	-35,122	-0,014	0,006
-422,773	-47,421	0,106	0,038
-421,759	-176,921	-0,080	-0,001
-420,744	-200,000	-0,025	0,227
-419,730	513,116	-0,033	0,057
-418,715	-200,000	-0,003	-0,017
-417,701	320,495	0,042	0,058
-416,686	26,753	0,036	-0,022
-415,671	-200,000	-0,016	-0,072
-414,657	406,763	-0,047	-0,073
-413,642	-166,232	0,232	-0,007
-412,628	312,839	0,026	0,036
-411,613	236,473	-0,043	-0,053
-410,598	129,846	-0,050	-0,047
-409,584	91,897	0,017	0,014
-408,569	800,000	0,085	0,214
-407,555	-24,096	0,116	0,051
-406,540	19,152	0,173	0,101
-405,525	-41,660	0,113	0,042
-404,511	-121,970	-0,186	0,022
-403,496	-200,000	-0,033	-0,190
-402,482	-83,052	-0,052	-0,012
-401,467	43,199	0,097	0,065
-400,452	-200,000	0,010	0,145
-399,438	10,416	0,063	-0,035
-398,423	62,632	-0,022	0,016
-397,409	306,674	0,052	0,071
-396,394	800,000	0,061	-0,155
-395,379	669,673	0,052	0,099
-394,365	-104,547	-0,086	0,014
-393,350	-40,309	-0,089	-0,034
-392,336	110,068	-0,050	0,044
-391,321	-46,763	-0,034	0,012
-390,306	83,422	0,108	0,086
-389,292	457,893	-0,060	-0,098
-388,277	-200,000	0,001	-0,003
-387,263	615,117	-0,037	0,068
-386,248	120,022	0,019	-0,017
-385,233	29,547	-0,028	0,017
-384,219	800,000	0,048	0,144
-383,204	800,000	-0,030	0,062
-382,190	-200,000	-0,030	-0,177
-381,175	207,632	0,059	-0,067
-380,160	-200,000	0,009	-0,062
-379,146	459,857	-0,041	0,067
-378,131	-15,370	0,119	-0,055
-377,117	-194,060	-0,098	-0,001
-376,102	409,853	-0,048	0,075
-375,088	-96,443	0,055	-0,011
-374,073	221,973	-0,062	0,073
-373,058	-200,000	0,026	0,129
-372,044	-96,129	0,165	0,032
-371,029	-7,501	-0,091	-0,045
-370,015	-142,741	-0,084	0,006
-369,000	800,000	-0,024	0,059
-367,985	-200,000	0,041	0,194
-366,971	-9,113	-0,021	-0,010
-365,956	556,547	0,023	0,040
-364,942	101,406	-0,041	0,035
-363,927	800,000	-0,076	0,168
-362,912	-17,667	-0,037	-0,017
-361,898	46,324	-0,084	0,057
-360,883	-116,736	0,030	-0,004
-359,869	795,103	0,039	0,079
-358,854	800,000	-0,011	0,031
-357,839	-123,807	-0,038	0,004
-356,825	800,000	0,037	0,086
-355,810	-44,486	0,041	-0,015
-354,796	-165,138	0,025	-0,001
-353,781	431,925	-0,028	0,045
-352,766	114,270	0,073	0,065
-351,752	-200,000	-0,027	0,131
-350,737	112,185	-0,027	-0,024
-349,723	345,514	0,048	-0,069
-348,708	199,229	0,123	0,138
-347,693	533,661	0,012	0,021
-346,679	363,733	-0,046	0,068
-345,664	23,304	-0,059	0,035
-344,650	-200,000	0,017	0,085
-343,635	-47,208	0,078	0,028
-342,620	-200,000	0,030	0,129
-341,606	-31,559	0,088	0,036
-340,591	-100,723	0,057	0,010
-339,577	260,307	-0,064	-0,081
-338,562	-28,177	0,059	-0,025
-337,548	267,346	-0,067	-0,086
-336,533	-84,617	0,139	-0,032
-335,518	-200,000	-0,009	0,069
-334,504	-4,462	-0,058	-0,029
-333,489	-2,656	-0,120	-0,061
-332,475	800,000	0,046	0,100
-331,460	-23,347	0,064	-0,028
-330,445	800,000	-0,029	0,076
-329,431	27,513	-0,042	0,026
-328,416	-96,995	0,146	0,028
-327,402	516,348	-0,009	-0,015
-326,387	14,705	-0,049	-0,028
-325,372	14,653	-0,128	-0,073
-324,358	800,000	-0,028	-0,085
-323,343	-40,313	-0,046	0,017
-322,329	-200,000	-0,019	-0,112
-321,314	-71,786	0,035	-0,010
-320,299	240,478	-0,157	0,191
-319,285	-200,000	0,005	0,038
-318,270	-54,663	0,127	-0,042
-317,256	73,601	0,103	-0,078
-316,241	-162,666	-0,099	-0,003
-315,226	-60,401	0,016	0,005
-314,212	92,291	0,089	0,073
-313,197	-61,846	-0,087	0,026
-312,183	-200,000	0,029	0,157
-311,168	175,022	0,039	-0,041
-310,153	-200,000	-0,023	-0,127
-309,139	-95,934	-0,155	0,030
-308,124	800,000	-0,026	0,069
-307,110	-145,254	0,162	0,011
-306,095	19,424	-0,074	-0,043
-305,080	405,772	-0,053	0,082
-304,066	-200,000	0,014	-0,059
-303,051	-25,247	-0,128	-0,055
-302,037	24,425	0,026	0,015
-301,022	202,838	-0,060	0,067
-300,008	-2,990	0,070	-0,036
-298,993	-55,020	0,059	0,019
-297,978	-132,874	-0,134	0,012
-296,964	800,000	-0,106	-0,226
-295,949	602,885	-0,097	-0,176
-294,935	-173,063	-0,125	-0,003
-293,920	82,557	0,053	0,042
-292,905	302,387	0,094	0,126
-291,891	2,335	0,128	-0,067
-290,876	-130,448	-0,053	-0,005
-289,862	-77,486	-0,065	0,016
-288,847	-200,000	0,018	-0,103
-287,832	-57,081	-0,078	-0,025
-286,818	531,619	0,017	0,030
-285,803	-85,505	0,045	-0,010
-284,789	154,878	0,091	0,092
-283,774	133,822	-0,091	0,086
-282,759	-79,700	-0,068	0,017
-281,745	-60,668	0,075	-0,023
-280,730	-200,000	-0,029	-0,142
-279,716	530,326	-0,071	-0,122
-278,701	53,494	0,069	0,048
-277,686	-200,000	-0,017	0,093
-276,672	9,832	0,064	-0,035
-275,657	77,933	-0,046	-0,036
-274,643	-200,000	0,004	-0,078
-273,628	-200,000	0,074	-0,249
-272,613	800,000	0,013	-0,032
-271,599	140,729	0,046	-0,044
-270,584	543,324	0,045	-0,079
-269,570	696,647	0,081	0,155
-268,555	-56,979	0,057	0,018
-267,540	-22,512	0,140	0,061
-266,526	246,518	-0,056	0,069
-265,511	-200,000	-0,019	-0,065
-264,497	-86,995	-0,059	0,013
-263,482	-200,000	0,020	0,147
-262,467	800,000	0,067	0,137
-261,453	-106,954	-0,061	0,010
-260,438	-200,000	0,010	-0,195
-259,424	-200,000	-0,033	-0,189
-258,409	436,623	-0,072	-0,115
-257,395	800,000	0,022	-0,058
-256,380	-122,276	0,109	-0,013
-255,365	576,547	0,040	-0,071
-254,351	800,000	0,041	-0,103
-253,336	266,437	0,024	-0,030
-252,322	113,891	-0,061	0,054
-251,307	27,118	0,034	-0,021
-250,292	544,607	0,033	0,058
-249,278	-200,000	0,029	0,145
-248,263	800,000	-0,018	-0,048
-247,249	-80,049	0,077	0,019
-246,234	-97,054	-0,107	-0,020
-245,219	-56,519	0,094	-0,030
-244,205	40,291	-0,074	0,048
-243,190	46,884	-0,086	0,058
-242,176	5,870	0,121	0,065
-241,161	306,114	-0,030	0,041
-240,146	-104,717	-0,120	-0,020
-239,132	-200,000	0,026	-0,162
-238,117	325,583	-0,087	-0,121
-237,103	0,970	0,086	-0,045
-236,088	40,035	-0,046	0,030
-235,073	233,646	0,040	0,048
-234,059	-79,976	0,149	0,036
-233,044	54,391	0,052	-0,037
-232,030	230,601	0,012	0,014
-231,015	262,702	-0,018	0,022
-230,000	800,000	0,037	-0,086
-228,986	652,703	-0,020	0,037
-227,971	-200,000	-0,013	0,097
-226,957	173,825	-0,055	-0,058
-225,942	-2,226	-0,032	-0,016
-224,927	-200,000	-0,026	0,138
-223,913	27,833	-0,024	-0,015
-222,898	800,000	-0,036	-0,097
-221,884	-200,000	0,023	-0,090
-220,869	-200,000	0,001	0,090
-219,855	122,417	0,120	0,109
-218,840	72,828	0,054	0,041
-217,825	9,904	0,142	0,078
-216,811	-200,000	0,013	0,124
-215,796	133,188	-0,037	-0,034
-214,782	45,599	-0,086	0,057
-213,767	185,060	0,134	0,144
-212,752	-100,761	0,120	-0,021
-211,738	-200,000	-0,006	-0,092
-210,723	-28,163	0,110	-0,046
-209,709	-113,803	-0,109	-0,015
-208,694	-67,494	-0,170	-0,048
-207,679	111,569	0,055	-0,048
-206,665	-200,000	0,001	-0,056
-205,650	800,000	0,017	-0,038
-204,636	-200,000	-0,001	-0,077
-203,621	67,564	-0,089	0,066
-202,606	-69,207	-0,158	-0,044
-201,592	-62,904	0,118	0,035
-200,577	300,758	0,076	0,102
-199,563	-52,424	-0,018	0,006
-198,548	-36,059	0,175	0,068
-197,533	-200,000	-0,002	-0,083
-196,519	161,275	0,048	-0,049
-195,504	-78,145	-0,099	-0,025
-194,490	800,000	-0,029	-0,086
-193,475	431,562	-0,082	-0,129
-192,460	-98,791	-0,070	0,013
-191,446	-88,140	0,093	-0,020
-190,431	-137,069	-0,098	-0,008
-189,417	-200,000	0,016	-0,098
-188,402	-200,000	0,029	-0,095
-187,387	800,000	-0,024	-0,062
-186,373	-71,731	-0,159	0,043
-185,358	800,000	-0,032	-0,072
-184,344	92,461	0,119	0,097
-183,329	-4,414	-0,090	-0,045
-182,315	264,772	0,041	0,053
-181,300	146,607	-0,099	0,096
-180,285	-91,102	0,109	0,022
-179,271	-200,000	-0,006	0,030
-178,256	-131,102	-0,055	0,005
-177,242	-109,163	0,133	0,020
-176,227	-60,672	-0,163	0,050
-175,212	-200,000	0,016	-0,056
-174,198	119,183	0,141	0,127
-173,183	-175,151	-0,228	-0,004
-172,169	49,655	0,176	-0,120
-171,154	-22,016	0,047	-0,021
-170,139	-28,514	0,067	0,028
-169,125	-200,000	0,039	0,163
-168,110	-115,280	0,155	0,021
-167,096	-94,489	0,126	-0,025
-166,081	-200,000	0,012	-0,146
-165,066	-165,487	-0,155	0,005
-164,052	35,365	-0,039	-0,025
-163,037	518,235	-0,057	-0,098
-162,023	-4,989	0,037	-0,018
-161,008	-7,406	-0,090	0,044
-159,993	-200,000	0,016	-0,095
-158,979	82,863	-0,078	0,061
-157,964	161,154	-0,082	-0,083
-156,950	-200,000	0,050	0,166
-155,935	325,137	-0,017	0,024
-154,920	-136,275	-0,080	0,007
-153,906	800,000	-0,023	0,048
-152,891	208,690	-0,050	0,056
-151,877	-200,000	-0,135	0,000
-150,862	280,017	0,022	-0,029
-149,847	46,916	-0,127	0,086
-148,833	50,703	0,067	-0,046
-147,818	-63,717	0,037	0,011
-146,804	-7,302	0,110	0,054
-145,789	109,631	0,068	0,059
-144,775	737,179	-0,098	0,191
-143,760	441,834	-0,054	-0,086
-142,745	631,019	0,044	0,080
-141,731	-169,727	0,049	0,001
-140,716	-200,000	0,019	0,079
-139,702	360,215	0,110	0,160
-138,687	420,233	-0,023	0,036
-137,672	154,268	-0,107	-0,106
-136,658	44,901	-0,060	0,040
-135,643	266,339	0,090	-0,115
-134,629	-200,000	-0,009	-0,058
-133,614	187,454	0,085	0,092
-132,599	-200,000	0,057	0,000
-131,585	-73,523	-0,023	-0,006
-130,570	-200,000	-0,005	-0,134
-129,556	73,863	-0,069	0,052
-128,541	800,000	-0,017	0,049
-127,526	-127,068	0,048	0,005
-126,512	-138,296	0,095	0,008
-125,497	-10,223	0,137	0,066
-124,483	-200,000	0,024	-0,080
-123,468	67,206	-0,066	-0,048
-122,453	204,924	0,076	0,085
-121,439	-25,915	-0,112	-0,048
-120,424	800,000	0,031	-0,072
-119,410	-200,000	0,031	-0,215
-118,395	101,663	-0,043	0,036
-117,380	562,789	0,084	0,148
-116,366	-102,769	-0,086	-0,015
-115,351	-200,000	0,024	0,099
-114,337	-200,000	-0,034	-0,174
-113,322	-200,000	0,005	-0,040
-112,307	-44,756	-0,017	-0,006
-111,293	-200,000	0,019	-0,073
-110,278	800,000	-0,058	0,165
-109,264	-84,129	0,109	-0,025
-108,249	-85,720	-0,056	0,012
-107,234	-13,676	0,085	-0,040
-106,220	192,668	0,061	0,066
-105,205	632,376	-0,029	-0,054
-104,191	-200,000	0,000	0,073
-103,176	-67,635	0,020	-0,006
-102,162	-69,641	-0,058	0,016
-101,147	523,212	0,035	0,060
-100,132	-64,846	0,059	-0,017
-99,118	-58,734	0,018	0,006
-98,103	305,190	-0,010	-0,014
-97,089	89,039	0,132	0,107
-96,074	-200,000	0,006	0,040
-95,059	-200,000	-0,013	-0,077
-94,045	104,905	-0,103	0,088
-93,030	115,638	-0,064	-0,056
-92,016	309,074	0,054	-0,073
-91,001	-107,965	0,105	-0,016
-89,986	800,000	-0,051	0,154
-88,972	-22,594	0,067	0,029
-87,957	-62,391	0,112	0,033
-86,943	-81,109	-0,062	-0,015
-85,928	-200,000	-0,012	0,055
-84,913	-200,000	-0,004	-0,012
-83,899	-77,076	0,030	-0,008
-82,884	75,988	-0,111	0,085
-81,870	800,000	0,039	0,107
-80,855	101,634	-0,056	0,047
-79,840	725,307	-0,076	-0,148
-78,826	-200,000	0,014	0,095
-77,811	437,316	-0,023	0,036
-76,797	-30,526	0,071	-0,029
-75,782	-84,200	-0,042	-0,009
-74,767	-200,000	-0,013	0,083
-73,753	-14,391	0,062	-0,029
-72,738	439,334	-0,041	0,064
-71,724	-60,482	-0,189	-0,058
-70,709	-82,582	-0,091	-0,021
-69,694	168,699	0,066	-0,068
-68,680	-200,000	0,016	-0,151
-67,665	787,501	0,029	0,058
-66,651	800,000	0,074	0,205
-65,636	-200,000	-0,006	0,117
-64,622	-36,387	0,095	0,037
-63,607	800,000	-0,066	0,135
-62,592	-200,000	0,012	-0,072
-61,578	198,716	0,068	0,076
-60,563	-136,175	-0,041	-0,003
-59,549	800,000	-0,032	0,095
-58,534	-41,834	-1,649	-0,608
-57,519	800,000	-0,509	-1,164
-56,505	-200,000	-1,166	-4,693
-55,490	-88,760	0,623	0,133
-54,476	800,000	5,243	12,329
-53,461	-200,000	15,996	278,977
-52,446	-200,000	702,756	2250,490
-51,432	565,667	1619,088	2845,738
-50,417	122,009	1623,003	1462,350
-49,403	82,761	1283,982	1006,406
-48,388	36,968	1028,140	655,095
-47,373	21,601	990,346	580,195
-46,359	20,480	978,935	569,792
-45,344	18,739	974,833	561,657
-44,330	18,856	973,440	561,215
-43,315	18,636	971,700	559,470
-42,300	18,512	970,716	558,475
-41,286	18,576	969,623	558,033
-40,271	18,567	968,525	557,348
-39,257	18,584	967,856	556,996
-38,242	18,568	967,129	556,506
-37,227	18,541	966,348	555,945
-36,213	18,533	965,363	555,330
-35,198	18,524	964,539	554,804
-34,184	18,492	964,099	554,426
-33,169	18,547	962,900	553,893
-32,154	18,568	962,109	553,484
-31,140	18,639	961,007	553,058
-30,125	18,548	960,495	552,446
-29,111	18,615	959,599	552,127
-28,096	18,588	958,985	551,666
-27,082	18,520	958,503	551,145
-26,067	18,525	957,592	550,614
-25,052	18,482	956,928	550,074
-24,038	18,457	956,209	549,557
-23,023	18,524	955,318	549,241
-22,009	18,621	954,655	549,149
-20,994	18,604	954,123	548,768
-19,979	18,559	953,451	548,213
-18,965	18,479	952,871	547,602
-17,950	18,524	952,289	547,389
-16,936	18,462	951,668	546,812
-15,921	18,430	951,058	546,336
-14,906	18,383	950,245	545,697
-13,892	18,507	949,410	545,593
-12,877	18,402	948,891	544,937
-11,863	18,339	948,313	544,382
-10,848	18,401	947,724	544,221
-9,833	18,480	947,313	544,217
-8,819	18,453	946,709	543,762
-7,804	18,449	945,979	543,308
-6,790	18,362	945,492	542,730
-5,775	18,452	944,768	542,579
-4,760	18,385	944,356	542,108
-3,746	18,430	943,610	541,799
-2,731	18,345	942,679	540,973
-1,717	18,256	942,247	540,420
-0,702	18,301	941,458	540,091
0,313	18,068	940,976	539,890
1,327	21,210	939,141	548,739
2,342	30,339	796,659	489,804
3,356	27,443	449,599	272,053
4,371	-2,414	295,494	148,867
5,386	-6,538	276,863	135,548
6,400	-7,709	271,144	131,644
7,415	-8,317	268,843	129,953
8,429	-7,928	267,578	129,688
9,444	-7,989	266,687	129,189
10,459	-8,083	266,036	128,776
11,473	-7,961	265,300	128,519
12,488	-8,199	264,851	128,074
13,502	-8,391	264,324	127,633
14,517	-8,587	264,001	127,287
15,531	-8,394	263,575	127,245
16,546	-8,125	262,949	127,175
17,561	-8,355	262,709	126,841
18,575	-8,222	262,444	126,821
19,590	-8,426	262,148	126,483
20,604	-8,309	261,844	126,430
21,619	-8,218	261,454	126,312
22,634	-8,328	261,093	126,028
23,648	-8,511	260,908	125,764
24,663	-8,436	260,615	125,678
25,677	-8,249	260,278	125,672
26,692	-8,339	260,155	125,520
27,707	-8,138	259,662	125,451
28,721	-8,561	259,551	125,009
29,736	-8,702	259,318	124,760
30,750	-8,510	259,090	124,810
31,765	-8,443	258,742	124,691
32,780	-8,607	258,675	124,502
33,794	-8,325	258,179	124,502
34,809	-8,508	257,962	124,224
35,823	-8,401	257,852	124,255
36,838	-8,549	257,484	123,936
37,853	-8,446	257,221	123,889
38,867	-8,618	257,131	123,682
39,882	-8,483	256,872	123,666
40,896	-8,419	256,459	123,512
41,911	-8,464	256,461	123,463
42,926	-8,467	256,064	123,258
43,940	-8,592	256,001	123,107
44,955	-8,744	255,688	122,812
45,969	-8,605	255,499	122,832
46,984	-9,022	255,299	122,360
47,999	-9,038	255,015	122,199
49,013	-9,230	254,661	121,851
50,028	-9,345	254,373	121,602
51,042	-9,410	254,207	121,455
52,057	-9,511	254,022	121,268
53,071	-9,351	253,829	121,304
54,086	-9,261	253,639	121,281
55,101	-9,302	253,519	121,177
56,115	-8,897	253,395	121,458
57,130	-8,485	253,175	121,700
58,144	-8,281	253,309	121,930
59,159	-8,215	252,827	121,744
60,174	-8,246	252,620	121,607
61,188	-8,177	252,336	121,519
62,203	-8,236	252,173	121,379
63,217	-8,204	251,999	121,312
64,232	-8,364	251,966	121,147
65,247	-8,361	251,474	120,903
66,261	-8,540	251,412	120,708
67,276	-8,600	250,984	120,440
68,290	-8,656	250,765	120,277
69,305	-8,841	250,438	119,950
70,320	-9,087	250,482	119,749
71,334	-8,514	250,153	120,072
72,349	-8,307	250,034	120,181
73,363	-8,284	250,044	120,194
74,378	-8,289	249,800	120,062
75,393	-8,389	249,535	119,840
76,407	-8,277	249,313	119,818
77,422	-8,407	249,129	119,608
78,436	-8,341	248,995	119,589
79,451	-8,470	248,717	119,335
80,466	-8,682	248,493	119,037
81,480	-8,616	248,087	118,888
82,495	-8,745	248,143	118,794
83,509	-8,629	247,827	118,730
84,524	-8,684	247,483	118,509
85,539	-8,894	247,469	118,314
86,553	-8,778	247,337	118,339
87,568	-8,851	247,045	118,126
88,582	-8,673	246,893	118,193
89,597	-8,692	246,639	118,045
90,611	-8,552	246,504	118,088
91,626	-8,431	246,546	118,200
92,641	-8,333	246,209	118,110
93,655	-8,641	246,103	117,789
94,670	-8,734	245,916	117,612
95,684	-8,466	245,507	117,630
96,699	-8,693	245,511	117,431
97,714	-8,870	245,328	117,185
98,728	-8,815	245,157	117,139
99,743	-8,972	244,806	116,829
100,757	-9,067	244,654	116,667
101,772	-8,968	244,481	116,657
102,787	-8,871	244,320	116,651
103,801	-8,710	244,221	116,727
104,816	-8,719	244,099	116,650
105,830	-8,475	243,859	116,729
106,845	-8,460	243,684	116,647
107,860	-8,642	243,467	116,381
108,874	-8,776	243,350	116,204
109,889	-8,618	242,969	116,143
110,903	-8,673	242,861	116,036
111,918	-8,556	242,663	116,027
112,933	-8,744	242,430	115,750
113,947	-8,722	242,377	115,733
114,962	-8,335	242,138	115,927
115,976	-8,828	242,209	115,544
116,991	-8,565	241,894	115,600
118,006	-8,441	241,772	115,633
119,020	-8,694	241,573	115,320
120,035	-8,685	241,602	115,331
121,049	-8,390	241,212	115,377
122,064	-8,341	240,988	115,300
123,079	-8,509	240,890	115,105
124,093	-8,728	240,546	114,750
125,108	-8,812	240,415	114,609
126,122	-8,925	240,286	114,445
127,137	-9,022	239,953	114,197
128,151	-8,764	239,838	114,343
129,166	-8,866	239,625	114,148
130,181	-9,088	239,513	113,903
131,195	-8,832	239,245	113,974
132,210	-8,554	239,134	114,137
133,224	-8,534	239,001	114,080
134,239	-8,534	238,812	113,980
135,254	-8,470	238,773	114,003
136,268	-8,721	238,480	113,649
137,283	-8,917	238,142	113,319
138,297	-9,001	238,073	113,208
139,312	-9,077	237,895	113,052
140,327	-8,649	237,841	113,363
141,341	-8,004	237,655	113,785
142,356	-8,324	237,695	113,535
143,370	-8,196	237,453	113,513
144,385	-7,979	237,265	113,588
145,400	-8,126	237,052	113,358
146,414	-8,303	236,959	113,160
147,429	-8,219	236,764	113,124
148,443	-8,361	236,636	112,939
149,458	-8,345	236,373	112,817
150,473	-8,122	236,181	112,894
151,487	-8,278	236,046	112,694
152,502	-8,255	235,909	112,637
153,516	-8,200	235,783	112,611
154,531	-8,323	235,513	112,373
155,546	-8,264	235,412	112,362
156,560	-8,388	235,210	112,157
157,575	-8,612	234,887	111,814
158,589	-8,378	234,851	111,974
159,604	-7,998	234,509	112,103
160,619	-7,965	234,626	112,175
161,633	-7,892	234,392	112,111
162,648	-8,242	234,340	111,798
163,662	-8,193	234,042	111,685
164,677	-8,331	234,003	111,547
165,692	-8,254	233,880	111,539
166,706	-8,255	233,678	111,432
167,721	-8,057	233,516	111,502
168,735	-8,132	233,400	111,377
169,750	-8,050	233,160	111,318
170,764	-8,083	232,934	111,174
171,779	-8,098	232,912	111,142
172,794	-8,119	232,792	111,058
173,808	-8,242	232,524	110,823
174,823	-8,854	232,167	110,161
175,837	-8,935	232,026	110,021
176,852	-8,413	231,984	110,402
177,867	-8,193	231,973	110,559
178,881	-8,221	231,805	110,448
179,896	-8,055	231,642	110,491
180,910	-8,120	231,375	110,302
181,925	-8,026	231,186	110,276
182,940	-8,229	231,195	110,111
183,954	-7,990	231,027	110,208
184,969	-7,948	230,865	110,154
185,983	-7,870	230,820	110,184
186,998	-7,932	230,635	110,037
188,013	-8,049	230,529	109,886
189,027	-7,886	230,248	109,869
190,042	-7,940	230,055	109,725
191,056	-8,028	230,015	109,628
192,071	-8,170	229,756	109,384
193,086	-7,833	229,550	109,538
194,100	-7,770	229,336	109,474
195,115	-8,187	229,214	109,084
196,129	-8,692	228,809	108,490
197,144	-4,205	230,463	112,760
198,159	1,373	232,184	117,958
199,173	3,204	232,483	119,531
200,188	3,495	232,301	119,654
201,202	3,502	232,182	119,587
202,217	3,710	232,055	119,673
203,232	3,785	232,134	119,762
204,246	3,884	231,980	119,749
205,261	4,242	231,768	119,907
206,275	4,276	231,714	119,895
207,290	4,345	231,649	119,904
208,304	4,329	231,410	119,758
209,319	4,311	231,214	119,632
210,334	4,461	230,946	119,598
211,348	3,857	230,764	119,026
212,363	3,489	230,511	118,601
213,377	3,359	230,393	118,428
214,392	3,303	230,256	118,304
215,407	3,399	230,131	118,303
216,421	3,450	229,940	118,235
217,436	3,217	229,881	118,013
218,450	3,109	229,453	117,700
219,465	2,975	229,514	117,618
220,480	3,107	229,294	117,597
221,494	3,019	229,159	117,449
222,509	3,450	228,973	117,674
223,523	3,352	228,876	117,539
224,538	3,281	228,807	117,438
225,553	3,430	228,605	117,438
226,567	3,363	228,475	117,309
227,582	3,641	228,491	117,520
228,596	3,790	228,302	117,526
229,611	3,515	227,972	117,135
230,626	3,070	227,784	116,689
231,640	3,080	227,757	116,672
232,655	3,688	227,554	117,021
233,669	3,953	227,710	117,293
234,684	4,031	227,510	117,240
235,699	3,808	227,212	116,906
236,713	3,641	227,093	116,707
237,728	3,383	226,872	116,387
238,742	3,323	226,617	116,200
239,757	3,137	226,466	115,971
240,772	3,166	226,415	115,957
241,786	3,414	226,209	116,029
242,801	3,511	226,198	116,087
243,815	3,762	226,134	116,234
244,830	3,783	225,974	116,156
245,844	3,537	225,804	115,873
246,859	3,607	225,589	115,805
247,874	3,646	225,426	115,740
248,888	3,648	225,318	115,676
249,903	3,568	225,157	115,523
250,917	3,718	224,929	115,509
251,932	3,450	224,694	115,177
252,947	3,453	224,663	115,152
253,961	3,397	224,442	114,987
254,976	3,450	224,306	114,947
255,990	3,633	224,220	115,029
257,005	3,719	223,969	114,955
258,020	3,684	223,936	114,901
259,034	3,668	223,940	114,881
260,049	3,946	223,686	114,948
261,063	3,859	223,533	114,795
262,078	3,849	223,380	114,698
263,093	3,783	223,268	114,581
264,107	3,824	223,091	114,511
265,122	3,811	222,977	114,432
266,136	3,749	223,062	114,420
267,151	3,704	222,790	114,236
268,166	3,414	222,381	113,802
269,180	3,113	222,337	113,545
270,195	3,271	222,143	113,553
271,209	3,185	221,946	113,379
272,224	3,449	221,887	113,534
273,239	3,328	221,754	113,366
274,253	3,461	221,451	113,300
275,268	3,027	221,342	112,912
276,282	3,249	221,263	113,026
277,297	3,232	221,089	112,915
278,312	3,209	221,101	112,894
279,326	3,469	220,820	112,932
280,341	3,286	220,800	112,777
281,355	3,379	220,676	112,772
282,370	3,260	220,594	112,632
283,384	3,150	220,164	112,322
284,399	2,934	220,135	112,139
285,414	3,186	219,987	112,238
286,428	3,398	219,833	112,305
287,443	3,464	219,762	112,308
288,457	3,689	219,747	112,454
289,472	3,369	219,427	112,047
290,487	2,983	219,201	111,639
291,501	2,903	219,117	111,528
292,516	2,982	219,021	111,526
293,530	3,209	218,845	111,593
294,545	3,043	218,745	111,411
295,560	3,037	218,631	111,339
296,574	3,327	218,676	111,563
297,589	3,206	218,412	111,330
298,603	3,542	218,272	111,493
299,618	3,598	217,976	111,372
300,633	3,481	218,021	111,301
301,647	3,744	217,952	111,447
302,662	3,893	217,575	111,352
303,676	3,763	217,560	111,240
304,691	3,633	217,431	111,070
305,706	3,471	217,483	110,969
306,720	3,542	217,326	110,930
307,735	3,274	217,005	110,563
308,749	3,295	216,823	110,476
309,764	3,260	216,848	110,454
310,779	3,792	216,544	110,672
311,793	3,637	216,394	110,474
312,808	3,651	216,301	110,426
313,822	3,351	216,211	110,155
314,837	3,596	215,938	110,182
315,852	3,358	215,902	109,983
316,866	3,367	215,698	109,876
317,881	3,743	215,650	110,111
318,895	3,355	215,648	109,822
319,910	3,476	215,262	109,702
320,925	3,172	215,186	109,437
321,939	3,049	214,787	109,136
322,954	2,980	214,797	109,082
323,968	3,586	214,787	109,500
324,983	3,669	214,670	109,489
325,997	3,839	214,530	109,529
327,012	3,687	214,280	109,284
328,027	3,340	214,259	109,016
329,041	3,585	214,398	109,252
330,056	3,930	214,073	109,322
331,070	3,499	213,750	108,842
332,085	3,277	213,628	108,612
333,100	3,432	213,492	108,643
334,114	3,467	213,379	108,601
335,129	3,468	213,249	108,525
336,143	3,167	213,186	108,271
337,158	3,286	212,972	108,236
338,173	3,311	212,876	108,196
339,187	3,365	212,655	108,112
340,202	3,026	212,566	107,818
341,216	3,194	212,356	107,820
342,231	3,241	212,243	107,786
343,246	2,970	212,223	107,576
344,260	3,057	212,007	107,518
345,275	3,195	212,017	107,610
346,289	3,208	211,920	107,561
347,304	3,542	211,576	107,610
348,319	3,512	211,493	107,538
349,333	3,173	211,437	107,262
350,348	3,340	211,300	107,300
351,362	3,708	211,135	107,465
352,377	3,664	211,097	107,404
353,392	3,517	210,806	107,144
354,406	3,529	210,755	107,117
355,421	194,906	1342,044	1426,231
356,435	155,639	1479,905	1426,269
