DTS Sentinel unit serial number:	SN410029Multiplexer serial number:	ORYXHardware model number:	OX2-SRSoftware version number:	ORYX F/W v4,00 Oryx Data Collector v3.7.2.0data status	okinstallation	B6 Nyhavnadifferential loss correction	single-endedforward channel	channel 2reverse channel	N/Adate	2023/12/07time	16:30:08forward acquisition time	300,00reverse acquisition time	0,00gamma	499,1914k internal	0,3164k external	0,3164temperature offset calibration	1,0000default loss term (dB/km)	0,3820temperature slope calibration	1,0000multiplexer offset coefficient	1,0000multiplexer slope coefficient	1,0000fibre end	0,00T internal ref (°C)	14,52T ext. ref 1 (°C)	-2,15T ext. ref 2 (°C)	-2,15length (m)	temperature (°C)	Stokes	anti-Stokes-744,400	82,717	0,090	0,072
-743,385	-119,779	-0,269	0,034
-742,371	-117,510	0,114	-0,015
-741,356	-80,711	-0,256	0,062
-740,342	-26,345	0,159	0,068
-739,327	-158,523	-0,254	-0,011
-738,312	220,612	0,126	0,149
-737,298	-200,000	-0,359	0,000
-736,283	-97,055	0,127	-0,024
-735,269	-119,174	-0,422	-0,054
-734,254	-13,646	0,048	-0,023
-733,239	-78,220	-0,550	-0,138
-732,225	-130,434	0,152	0,015
-731,210	-62,397	0,072	0,022
-730,196	-90,047	-0,070	-0,015
-729,181	-200,000	0,006	-0,069
-728,167	626,699	-0,083	-0,155
-727,152	66,442	-0,097	-0,072
-726,137	55,926	-0,068	0,049
-725,123	-133,699	-0,163	0,015
-724,108	-200,000	-0,003	-0,199
-723,094	-200,000	-0,040	-0,166
-722,079	-29,199	-0,131	-0,055
-721,064	800,000	0,036	-0,084
-720,050	800,000	0,018	-0,046
-719,035	-200,000	0,005	-0,067
-718,021	-61,830	-0,134	-0,041
-717,006	800,000	0,044	0,125
-715,991	306,604	-0,129	-0,177
-714,977	800,000	0,040	-0,094
-713,962	-73,394	-0,066	0,018
-712,948	-163,981	0,104	-0,003
-711,933	189,672	0,029	-0,032
-710,918	122,141	-0,034	-0,031
-709,904	-200,000	-0,021	-0,161
-708,889	-150,567	-0,019	0,001
-707,875	-156,307	-0,120	0,005
-706,860	-8,483	-0,099	-0,049
-705,845	-200,000	0,005	0,080
-704,831	-200,000	0,003	-0,033
-703,816	-4,706	-0,094	-0,048
-702,802	-19,336	0,066	-0,030
-701,787	-200,000	-0,022	-0,107
-700,772	615,649	0,024	0,044
-699,758	2,531	0,105	0,056
-698,743	140,533	-0,016	0,015
-697,729	-200,000	-0,017	0,078
-696,714	179,416	0,047	-0,051
-695,699	-200,000	0,005	0,030
-694,685	113,659	-0,071	0,064
-693,670	302,763	0,045	-0,062
-692,656	33,367	-0,012	0,007
-691,641	-191,938	-0,071	-0,000
-690,627	-74,032	-0,058	-0,015
-689,612	86,092	0,018	0,015
-688,597	-68,368	-0,041	0,012
-687,583	-61,516	-0,103	0,031
-686,568	-105,751	0,081	-0,013
-685,554	247,919	0,069	-0,086
-684,539	-66,530	0,151	0,044
-683,524	-200,000	-0,007	0,090
-682,510	26,771	-0,055	-0,034
-681,495	-200,000	-0,027	-0,093
-680,481	212,882	-0,079	-0,091
-679,466	-1,170	-0,066	0,034
-678,451	-60,605	-0,123	-0,038
-677,437	179,605	-0,062	0,066
-676,422	-200,000	-0,027	0,145
-675,408	-200,000	-0,031	-0,120
-674,393	-132,616	-0,076	-0,007
-673,378	661,729	-0,033	0,063
-672,364	-200,000	0,010	0,083
-671,349	-200,000	0,011	0,112
-670,335	-26,581	-0,133	0,057
-669,320	-59,545	0,085	-0,027
-668,305	-183,604	-0,028	-0,000
-667,291	-44,915	-0,117	-0,043
-666,276	41,260	-0,030	0,020
-665,262	800,000	0,075	-0,160
-664,247	-200,000	0,002	-0,148
-663,232	-144,415	0,078	0,005
-662,218	96,937	0,104	0,088
-661,203	-72,876	-0,068	-0,018
-660,189	-46,146	-0,121	-0,043
-659,174	-200,000	-0,042	-0,144
-658,159	525,970	-0,076	-0,132
-657,145	-200,000	-0,005	-0,097
-656,130	800,000	-0,033	-0,083
-655,116	-42,308	-0,073	-0,027
-654,101	-36,140	-0,083	-0,033
-653,086	63,730	-0,094	-0,069
-652,072	-44,155	-0,118	-0,043
-651,057	-13,790	-0,031	-0,015
-650,043	292,423	-0,043	0,057
-649,028	335,825	-0,032	0,046
-648,014	-200,000	-0,018	-0,065
-646,999	627,518	-0,027	-0,049
-645,984	-128,249	0,087	0,009
-644,970	-62,029	-0,184	0,056
-643,955	183,630	-0,129	-0,139
-642,941	-200,000	-0,001	-0,142
-641,926	800,000	0,019	0,053
-640,911	-200,000	-0,032	-0,178
-639,897	255,366	0,075	0,095
-638,882	800,000	-0,037	-0,107
-637,868	130,314	-0,029	0,027
-636,853	17,690	-0,206	-0,120
-635,838	-89,193	-0,028	0,006
-634,824	-200,000	0,044	-0,151
-633,809	-200,000	0,027	-0,115
-632,795	89,753	-0,009	-0,008
-631,780	10,770	-0,070	-0,039
-630,765	-200,000	0,020	0,142
-629,751	377,706	0,026	0,040
-628,736	238,081	-0,079	-0,096
-627,722	-200,000	0,025	0,088
-626,707	-112,770	0,028	-0,004
-625,692	52,809	0,164	0,115
-624,678	-200,000	0,008	0,115
-623,663	-200,000	0,003	0,027
-622,649	-13,248	0,109	0,052
-621,634	59,990	-0,035	-0,025
-620,619	188,178	-0,031	-0,034
-619,605	324,840	-0,051	-0,071
-618,590	-14,866	0,169	0,079
-617,576	800,000	-0,045	-0,127
-616,561	132,623	0,085	-0,080
-615,546	37,729	-0,024	0,016
-614,532	800,000	-0,014	-0,030
-613,517	244,589	0,074	-0,092
-612,503	191,865	0,037	-0,041
-611,488	295,666	0,063	-0,084
-610,474	-200,000	-0,010	-0,108
-609,459	-30,603	-0,095	0,039
-608,444	183,952	-0,035	0,038
-607,430	764,610	-0,046	-0,093
-606,415	-131,501	-0,074	-0,007
-605,401	-18,189	0,057	-0,026
-604,386	-200,000	-0,044	-0,171
-603,371	-134,191	0,041	0,004
-602,357	-200,000	-0,028	0,184
-601,342	-83,187	0,079	0,018
-600,328	135,819	0,070	-0,067
-599,313	154,410	-0,065	-0,065
-598,298	800,000	0,028	-0,070
-597,284	-117,505	0,027	0,004
-596,269	-58,416	-0,106	-0,034
-595,255	65,771	0,047	0,035
-594,240	-200,000	0,017	-0,081
-593,225	-200,000	-0,003	-0,112
-592,211	150,562	-0,123	0,123
-591,196	800,000	-0,011	0,026
-590,182	87,207	-0,032	0,026
-589,167	-100,911	0,063	-0,011
-588,152	-97,889	0,091	0,017
-587,138	-41,733	-0,059	-0,022
-586,123	-200,000	-0,017	-0,081
-585,109	768,634	-0,014	-0,029
-584,094	-44,683	0,073	0,027
-583,079	295,953	0,026	0,035
-582,065	-136,914	-0,067	0,006
-581,050	91,495	0,075	-0,062
-580,036	203,182	0,107	0,121
-579,021	13,083	0,032	-0,018
-578,006	403,272	-0,051	-0,079
-576,992	800,000	0,030	-0,067
-575,977	-138,898	0,105	-0,008
-574,963	72,380	0,055	0,042
-573,948	73,048	0,074	0,057
-572,934	18,369	-0,098	-0,057
-571,919	-200,000	-0,011	-0,099
-570,904	-200,000	-0,038	-0,216
-569,890	800,000	-0,018	0,055
-568,875	12,960	-0,067	0,038
-567,861	-200,000	0,006	-0,039
-566,846	475,572	0,059	0,098
-565,831	99,432	-0,086	0,073
-564,817	-35,647	-0,043	-0,017
-563,802	9,348	0,044	0,024
-562,788	8,366	-0,055	-0,030
-561,773	503,927	0,021	-0,036
-560,758	-74,741	0,111	0,029
-559,744	-200,000	0,026	0,115
-558,729	-200,000	-0,014	0,071
-557,715	800,000	-0,031	-0,092
-556,700	-97,626	-0,075	-0,014
-555,685	-200,000	-0,049	-0,193
-554,671	-30,963	-0,069	0,028
-553,656	-200,000	0,002	-0,029
-552,642	-200,000	0,006	0,229
-551,627	211,688	0,047	0,055
-550,612	61,989	-0,016	0,011
-549,598	-103,532	-0,048	0,008
-548,583	676,108	-0,040	-0,076
-547,569	-136,636	0,041	-0,003
-546,554	-200,000	0,015	0,078
-545,539	-48,017	0,178	0,062
-544,525	69,888	-0,083	0,062
-543,510	83,409	-0,040	-0,032
-542,496	43,087	0,062	-0,041
-541,481	337,442	0,031	0,044
-540,466	-200,000	-0,014	0,124
-539,452	0,379	-0,036	-0,019
-538,437	414,835	-0,014	-0,021
-537,423	-50,976	-0,162	0,055
-536,408	-9,091	0,054	-0,026
-535,393	337,608	0,018	-0,026
-534,379	127,262	-0,079	-0,073
-533,364	-128,707	0,037	0,004
-532,350	-64,262	0,146	0,043
-531,335	58,307	0,067	-0,048
-530,321	-49,116	0,031	-0,011
-529,306	-200,000	0,025	-0,123
-528,291	163,845	0,102	-0,105
-527,277	-1,976	-0,048	0,024
-526,262	-89,797	0,013	0,003
-525,248	-200,000	0,019	0,101
-524,233	-200,000	0,077	0,273
-523,218	53,956	-0,145	0,102
-522,204	5,434	0,054	-0,029
-521,189	-157,858	-0,047	-0,002
-520,175	354,152	-0,077	-0,112
-519,160	-200,000	-0,002	-0,049
-518,145	-200,000	0,008	0,092
-517,131	69,730	0,041	-0,031
-516,116	140,428	-0,036	0,035
-515,102	-200,000	-0,011	0,063
-514,087	-57,513	0,069	-0,022
-513,072	-200,000	-0,004	0,087
-512,058	43,586	0,052	0,035
-511,043	800,000	0,022	-0,045
-510,029	1,174	0,076	0,040
-509,014	-117,294	0,092	0,012
-507,999	-134,910	-0,085	-0,007
-506,985	15,257	-0,073	0,042
-505,970	71,621	-0,125	-0,094
-504,956	474,849	-0,058	0,096
-503,941	-174,304	0,095	-0,002
-502,926	-8,547	0,067	0,033
-501,912	-200,000	-0,017	0,102
-500,897	98,995	0,087	0,073
-499,883	434,099	-0,055	-0,088
-498,868	729,494	0,040	0,078
-497,853	-79,951	-0,149	-0,036
-496,839	357,054	-0,022	-0,031
-495,824	203,270	-0,033	0,037
-494,810	132,744	0,066	0,062
-493,795	-161,994	-0,052	-0,002
-492,781	-27,177	0,050	-0,021
-491,766	800,000	-0,018	0,057
-490,751	-200,000	0,009	-0,044
-489,737	157,660	-0,075	0,075
-488,722	307,751	-0,065	0,089
-487,708	-200,000	-0,004	-0,060
-486,693	257,161	-0,051	-0,064
-485,678	376,787	-0,114	-0,171
-484,664	-200,000	0,002	0,006
-483,649	-142,451	0,150	-0,011
-482,635	570,564	-0,013	0,023
-481,620	-200,000	0,033	0,000
-480,605	391,976	-0,059	0,089
-479,591	-165,977	0,102	0,003
-478,576	76,544	-0,099	0,077
-477,562	-9,514	0,086	-0,042
-476,547	371,664	-0,120	-0,178
-475,532	-200,000	-0,004	0,037
-474,518	282,922	0,037	-0,049
-473,503	-81,640	0,094	0,022
-472,489	-132,437	-0,124	-0,012
-471,474	800,000	0,030	-0,064
-470,459	-200,000	0,015	-0,127
-469,445	-200,000	-0,023	0,077
-468,430	-200,000	-0,015	0,061
-467,416	97,449	-0,028	-0,023
-466,401	38,949	0,149	0,097
-465,386	-200,000	-0,016	-0,054
-464,372	-200,000	0,006	-0,083
-463,357	800,000	0,018	0,038
-462,343	-200,000	-0,013	-0,057
-461,328	224,733	-0,031	0,036
-460,313	2,499	0,064	0,034
-459,299	47,122	0,064	0,043
-458,284	-66,348	0,161	-0,046
-457,270	-24,217	0,059	0,026
-456,255	-121,907	0,069	-0,008
-455,241	-56,169	0,130	0,042
-454,226	-124,204	-0,176	-0,020
-453,211	800,000	-0,077	-0,170
-452,197	182,278	-0,067	-0,072
-451,182	-184,258	0,044	0,001
-450,168	-60,943	0,100	-0,031
-449,153	-200,000	0,084	0,000
-448,138	-200,000	0,020	-0,080
-447,124	1,834	-0,105	-0,055
-446,109	-102,233	0,113	-0,020
-445,095	-200,000	-0,026	0,084
-444,080	463,235	0,057	0,093
-443,065	-141,247	-0,116	-0,008
-442,051	543,540	-0,061	-0,106
-441,036	-37,706	-0,025	-0,010
-440,022	40,629	0,058	-0,038
-439,007	-200,000	-0,003	0,096
-437,992	160,934	0,102	0,104
-436,978	-200,000	-0,006	-0,086
-435,963	302,073	0,118	-0,158
-434,949	-103,178	-0,148	-0,025
-433,934	800,000	0,022	0,067
-432,919	-135,314	-0,117	-0,010
-431,905	31,453	-0,068	0,042
-430,890	-200,000	0,024	0,109
-429,876	113,699	0,081	-0,071
-428,861	-200,000	0,026	0,152
-427,846	-138,232	0,042	-0,003
-426,832	-56,863	-0,121	0,039
-425,817	623,713	-0,025	0,046
-424,803	-5,082	0,042	0,021
-423,788	194,894	-0,045	0,050
-422,773	800,000	0,040	0,102
-421,759	-152,775	0,084	0,004
-420,744	-200,000	-0,014	0,054
-419,730	800,000	0,058	-0,124
-418,715	531,511	0,054	-0,093
-417,701	82,861	0,117	-0,092
-416,686	-114,629	0,089	0,012
-415,671	800,000	-0,036	0,094
-414,657	-114,838	0,061	0,008
-413,642	-172,951	0,110	0,002
-412,628	-60,230	-0,111	0,034
-411,613	-200,000	-0,010	-0,111
-410,598	800,000	0,044	-0,126
-409,584	102,950	-0,030	0,026
-408,569	800,000	-0,017	-0,038
-407,555	128,231	0,141	0,130
-406,540	130,620	-0,065	0,060
-405,525	558,853	-0,015	0,027
-404,511	-200,000	-0,018	-0,153
-403,496	389,034	-0,043	0,065
-402,482	800,000	0,012	-0,027
-401,467	115,109	0,104	-0,092
-400,452	20,643	-0,159	0,093
-399,438	-148,283	-0,045	-0,003
-398,423	-80,087	-0,156	0,038
-397,409	-30,282	0,053	0,022
-396,394	126,913	0,071	0,065
-395,379	800,000	-0,081	0,174
-394,365	181,179	0,094	0,100
-393,350	-153,765	-0,074	-0,004
-392,336	-200,000	-0,014	0,080
-391,321	226,987	0,036	0,042
-390,306	9,190	-0,078	0,043
-389,292	172,232	-0,101	-0,105
-388,277	-200,000	0,006	-0,037
-387,263	800,000	-0,051	0,154
-386,248	-135,276	0,070	-0,006
-385,233	771,280	-0,045	0,089
-384,219	182,039	-0,020	0,021
-383,204	317,070	-0,016	0,022
-382,190	453,037	0,028	0,046
-381,175	81,334	0,104	0,082
-380,160	-200,000	0,006	0,084
-379,146	-127,033	0,054	0,006
-378,131	-18,474	0,048	-0,022
-377,117	-200,000	-0,005	0,085
-376,102	800,000	-0,003	0,009
-375,088	124,945	0,072	-0,066
-374,073	-200,000	-0,016	0,113
-373,058	800,000	-0,044	0,133
-372,044	71,155	0,076	-0,057
-371,029	-200,000	0,012	0,071
-370,015	-200,000	-0,004	-0,053
-369,000	15,164	-0,150	-0,085
-367,985	-89,249	-0,106	-0,022
-366,971	-117,623	-0,042	-0,005
-365,956	-200,000	-0,000	-0,106
-364,942	409,406	0,027	0,041
-363,927	-71,262	0,065	0,018
-362,912	192,677	-0,080	0,088
-361,898	-200,000	0,001	0,036
-360,883	95,954	-0,105	-0,087
-359,869	-23,748	-0,032	0,014
-358,854	-200,000	0,014	0,044
-357,839	-2,586	0,034	-0,017
-356,825	-92,946	-0,028	-0,006
-355,810	-200,000	-0,018	0,087
-354,796	200,050	-0,055	-0,062
-353,781	800,000	-0,071	-0,168
-352,766	800,000	0,020	-0,052
-351,752	61,021	0,151	-0,109
-350,737	-118,859	-0,050	-0,006
-349,723	-64,954	0,074	0,022
-348,708	41,935	0,083	0,054
-347,693	40,609	-0,062	0,040
-346,679	152,937	0,078	-0,078
-345,664	-200,000	0,049	-0,250
-344,650	19,283	0,057	0,033
-343,635	-200,000	0,004	-0,018
-342,620	800,000	0,048	0,132
-341,606	0,283	0,044	-0,023
-340,591	-200,000	-0,005	0,097
-339,577	210,295	-0,032	0,036
-338,562	-200,000	-0,025	-0,100
-337,548	182,160	-0,026	0,028
-336,533	-55,162	0,137	-0,044
-335,518	-56,497	0,049	-0,016
-334,504	-200,000	-0,021	0,098
-333,489	-70,221	-0,136	-0,037
-332,475	-82,698	-0,091	-0,021
-331,460	-66,444	0,102	0,029
-330,445	308,208	0,061	-0,083
-329,431	-200,000	0,000	0,165
-328,416	-98,588	-0,044	-0,008
-327,402	0,173	-0,083	-0,042
-326,387	-200,000	0,006	0,150
-325,372	-84,830	-0,185	-0,042
-324,358	800,000	0,018	-0,050
-323,343	-147,761	0,128	0,008
-322,329	800,000	0,011	0,025
-321,314	132,783	-0,047	0,043
-320,299	-58,761	0,102	-0,032
-319,285	-200,000	0,001	-0,019
-318,270	800,000	-0,051	0,104
-317,256	84,951	-0,069	-0,054
-316,241	-200,000	-0,011	-0,045
-315,226	-200,000	-0,009	-0,142
-314,212	275,026	0,013	-0,017
-313,197	800,000	-0,034	0,070
-312,183	170,699	0,068	-0,071
-311,168	-4,782	0,028	-0,014
-310,153	-200,000	0,024	-0,137
-309,139	222,544	0,074	-0,086
-308,124	97,460	0,091	-0,076
-307,110	-79,512	0,047	-0,011
-306,095	-54,844	0,034	-0,011
-305,080	-86,937	-0,064	-0,014
-304,066	16,979	-0,156	-0,089
-303,051	445,828	0,081	-0,130
-302,037	59,848	-0,087	-0,062
-301,022	-200,000	0,016	0,149
-300,008	-200,000	0,001	0,133
-298,993	89,602	-0,053	0,042
-297,978	13,136	0,080	-0,045
-296,964	501,574	0,016	0,026
-295,949	-139,148	0,017	0,001
-294,935	-6,040	0,090	-0,044
-293,920	132,865	-0,100	-0,093
-292,905	-200,000	0,016	-0,055
-291,891	477,459	-0,084	0,138
-290,876	102,739	-0,140	0,119
-289,862	-200,000	-0,035	-0,119
-288,847	-200,000	0,014	-0,139
-287,832	641,157	-0,031	-0,058
-286,818	-200,000	-0,002	0,080
-285,803	-62,057	0,029	-0,009
-284,789	-134,083	0,107	-0,009
-283,774	750,162	-0,044	0,086
-282,759	-200,000	-0,011	0,057
-281,745	800,000	-0,050	-0,123
-280,730	-197,569	-0,155	-0,001
-279,716	80,201	-0,074	0,058
-278,701	109,940	0,081	-0,070
-277,686	67,229	-0,041	0,030
-276,672	-200,000	-0,045	-0,222
-275,657	-105,744	-0,117	0,019
-274,643	90,800	0,100	0,081
-273,628	-200,000	0,035	0,206
-272,613	800,000	-0,037	0,100
-271,599	-200,000	0,013	0,127
-270,584	-12,532	-0,154	0,072
-269,570	800,000	0,037	0,116
-268,555	-42,888	0,075	0,027
-267,540	-12,809	-0,173	0,081
-266,526	-139,836	0,072	-0,005
-265,511	148,614	-0,112	-0,109
-264,497	-73,539	0,008	0,002
-263,482	221,912	0,078	-0,091
-262,467	800,000	-0,034	0,083
-261,453	-200,000	-0,010	0,034
-260,438	-49,237	-0,116	0,040
-259,424	271,914	-0,044	0,056
-258,409	322,465	0,110	-0,151
-257,395	-18,324	0,090	0,040
-256,380	-21,667	0,111	-0,049
-255,365	337,871	-0,072	0,102
-254,351	-41,001	0,057	0,021
-253,336	-110,112	0,074	0,011
-252,322	-21,584	0,048	-0,021
-251,307	474,647	0,009	0,015
-250,292	-70,987	0,062	0,017
-249,278	211,047	0,119	0,135
-248,263	243,116	0,065	0,078
-247,249	442,714	0,011	0,018
-246,234	-105,948	-0,100	-0,016
-245,219	800,000	-0,021	-0,064
-244,205	85,619	-0,107	0,085
-243,190	294,718	0,035	0,046
-242,176	-200,000	-0,003	0,040
-241,161	-200,000	0,012	0,067
-240,146	800,000	0,010	0,031
-239,132	-200,000	-0,008	-0,077
-238,117	-200,000	0,000	-0,069
-237,103	350,971	-0,039	-0,056
-236,088	-43,492	-0,099	-0,036
-235,073	42,289	-0,025	-0,016
-234,059	67,083	-0,042	0,031
-233,044	61,125	0,049	-0,035
-232,030	-145,266	0,101	0,006
-231,015	-154,845	-0,160	-0,008
-230,000	-3,241	-0,135	-0,068
-228,986	139,626	-0,038	-0,036
-227,971	-200,000	0,035	-0,148
-226,957	-117,455	0,056	-0,007
-225,942	-14,807	0,129	0,060
-224,927	36,802	0,087	0,056
-223,913	-200,000	0,036	-0,147
-222,898	800,000	-0,055	0,154
-221,884	-200,000	-0,003	0,061
-220,869	800,000	-0,025	-0,060
-219,855	92,875	0,060	0,049
-218,840	-25,712	0,057	0,024
-217,825	521,668	0,017	0,029
-216,811	146,039	0,018	-0,017
-215,796	-200,000	-0,005	-0,028
-214,782	-57,491	0,067	0,021
-213,767	-92,800	0,103	0,021
-212,752	-120,051	0,047	0,006
-211,738	11,797	0,079	0,043
-210,723	-177,827	-0,105	0,002
-209,709	30,504	-0,048	0,029
-208,694	-158,894	-0,052	0,002
-207,679	752,975	-0,081	-0,158
-206,665	39,762	0,051	0,033
-205,650	-145,456	0,025	0,002
-204,636	33,969	0,069	-0,043
-203,621	800,000	-0,038	0,077
-202,606	111,177	-0,101	0,088
-201,592	119,990	-0,061	0,055
-200,577	-200,000	-0,021	-0,078
-199,563	-135,106	0,115	0,010
-198,548	-4,071	-0,042	-0,021
-197,533	2,001	-0,057	-0,030
-196,519	-52,364	0,089	0,030
-195,504	-91,723	0,051	0,010
-194,490	-76,111	0,089	0,022
-193,475	-83,979	-0,012	0,003
-192,460	428,488	0,044	0,068
-191,446	-37,411	-0,254	0,097
-190,431	-84,912	0,032	0,007
-189,417	800,000	0,068	0,166
-188,402	-200,000	-0,021	-0,080
-187,387	-119,326	-0,068	0,008
-186,373	-200,000	-0,011	-0,070
-185,358	-200,000	-0,004	0,041
-184,344	-200,000	-0,040	-0,129
-183,329	433,644	-0,077	-0,120
-182,315	-200,000	0,002	0,031
-181,300	-71,793	0,132	0,035
-180,285	-200,000	-0,003	-0,150
-179,271	76,718	0,097	0,074
-178,256	-200,000	0,015	-0,084
-177,242	36,501	-0,055	0,035
-176,227	736,432	0,034	-0,065
-175,212	-200,000	0,001	-0,022
-174,198	-107,321	0,055	0,009
-173,183	-13,978	-0,160	-0,074
-172,169	31,868	0,047	0,029
-171,154	-200,000	0,015	-0,052
-170,139	-200,000	-0,004	-0,039
-169,125	-200,000	-0,036	0,157
-168,110	206,376	0,018	0,020
-167,096	220,564	0,076	-0,088
-166,081	-43,201	-0,106	0,038
-165,066	-200,000	-0,008	-0,034
-164,052	-156,850	-0,061	-0,003
-163,037	487,822	-0,039	0,064
-162,023	701,283	0,034	0,064
-161,008	-128,397	0,150	-0,015
-159,993	244,242	0,102	-0,124
-158,979	441,832	-0,032	-0,050
-157,964	-25,556	-0,075	0,032
-156,950	88,629	-0,070	0,056
-155,935	-76,887	-0,051	-0,013
-154,920	431,026	0,022	0,035
-153,906	287,393	-0,072	0,094
-152,891	800,000	-0,021	-0,043
-151,877	33,364	-0,084	0,053
-150,862	35,559	0,097	-0,061
-149,847	-200,000	-0,003	0,095
-148,833	-152,952	-0,137	-0,007
-147,818	85,476	0,161	0,127
-146,804	-200,000	-0,004	0,166
-145,789	-69,674	0,056	0,015
-144,775	48,320	0,064	-0,043
-143,760	-18,168	-0,110	-0,049
-142,745	-200,000	0,008	-0,137
-141,731	-200,000	0,014	-0,057
-140,716	-200,000	-0,037	-0,118
-139,702	800,000	0,016	0,046
-138,687	-200,000	0,007	0,127
-137,672	-200,000	-0,000	0,053
-136,658	800,000	-0,052	-0,112
-135,643	226,623	0,034	0,040
-134,629	-200,000	0,006	0,059
-133,614	143,424	0,089	0,085
-132,599	800,000	-0,013	-0,031
-131,585	-4,925	-0,081	0,040
-130,570	27,328	0,099	0,060
-129,556	-49,807	0,027	0,009
-128,541	800,000	0,052	-0,140
-127,526	800,000	-0,029	-0,079
-126,512	-66,396	-0,048	0,014
-125,497	-200,000	-0,010	0,058
-124,483	145,394	0,107	-0,103
-123,468	-200,000	0,010	-0,103
-122,453	-200,000	0,002	0,010
-121,439	634,860	-0,042	-0,077
-120,424	800,000	0,034	-0,087
-119,410	800,000	-0,047	-0,101
-118,395	-174,041	0,072	0,001
-117,380	-156,626	-0,011	0,000
-116,366	120,011	0,022	-0,020
-115,351	800,000	-0,030	0,061
-114,337	-33,163	0,084	0,033
-113,322	76,477	0,067	-0,051
-112,307	-176,480	-0,061	-0,001
-111,293	141,036	-0,068	0,064
-110,278	408,358	0,044	0,067
-109,264	46,072	-0,075	0,050
-108,249	12,114	0,051	-0,028
-107,234	782,736	0,049	-0,097
-106,220	779,150	-0,081	-0,159
-105,205	232,015	0,068	-0,081
-104,191	78,949	-0,090	0,069
-103,176	-57,133	0,095	-0,030
-102,162	-79,725	-0,035	0,008
-101,147	139,847	0,047	0,044
-100,132	736,086	0,004	-0,008
-99,118	744,254	-0,040	-0,078
-98,103	-7,678	-0,102	-0,049
-97,089	22,841	0,105	0,061
-96,074	-200,000	0,031	-0,120
-95,059	-200,000	-0,027	0,111
-94,045	432,581	-0,042	0,066
-93,030	-200,000	0,008	-0,027
-92,016	39,747	-0,035	-0,022
-91,001	-165,896	-0,177	-0,005
-89,986	800,000	0,013	-0,029
-88,972	355,594	0,027	0,038
-87,957	89,914	-0,050	-0,040
-86,943	416,317	-0,087	0,134
-85,928	-136,505	-0,163	0,013
-84,913	-200,000	0,023	-0,076
-83,899	-1,809	-0,152	-0,076
-82,884	-200,000	0,002	-0,073
-81,870	101,273	0,096	0,080
-80,855	-200,000	-0,011	-0,113
-79,840	800,000	0,034	0,069
-78,826	-165,691	-0,055	-0,002
-77,811	-200,000	-0,010	-0,059
-76,797	141,542	-0,094	0,089
-75,782	800,000	-0,026	-0,070
-74,767	800,000	-0,024	-0,066
-73,753	228,560	0,086	-0,101
-72,738	-200,000	-0,011	0,047
-71,724	-200,000	0,006	0,082
-70,709	-104,543	-0,060	0,010
-69,694	-6,701	-0,029	0,014
-68,680	-59,645	-0,083	0,025
-67,665	75,166	0,122	0,092
-66,651	-200,000	-0,033	0,214
-65,636	-27,170	-0,100	-0,041
-64,622	-137,822	-0,099	-0,008
-63,607	38,617	-0,065	-0,041
-62,592	-106,912	0,013	0,002
-61,578	381,173	0,026	0,038
-60,563	800,000	-0,033	0,068
-59,549	800,000	0,036	0,100
-58,534	42,568	-2,021	-1,315
-57,519	800,000	-0,328	-0,786
-56,505	-200,000	-1,425	-5,080
-55,490	109,267	0,846	0,725
-54,476	800,000	5,276	12,034
-53,461	-200,000	18,125	290,777
-52,446	800,000	729,231	2215,209
-51,432	524,027	1641,540	2774,859
-50,417	107,703	1630,514	1389,997
-49,403	72,268	1283,075	956,156
-48,388	30,693	1024,654	626,550
-47,373	19,765	986,524	567,350
-46,359	17,954	974,336	554,408
-45,344	14,874	970,399	542,112
-44,330	15,119	968,819	542,006
-43,315	14,654	966,958	539,432
-42,300	14,513	965,813	538,315
-41,286	14,564	964,985	537,998
-40,271	14,537	964,168	537,434
-39,257	14,505	963,108	536,717
-38,242	14,517	962,244	536,254
-37,227	14,526	961,488	535,841
-36,213	14,541	960,558	535,350
-35,198	14,496	959,790	534,754
-34,184	14,597	958,897	534,560
-33,169	14,517	957,994	533,779
-32,154	14,541	956,980	533,270
-31,140	14,544	956,089	532,762
-30,125	14,509	955,564	532,335
-29,111	14,557	954,576	531,919
-28,096	14,582	953,947	531,628
-27,082	14,558	953,237	531,132
-26,067	14,582	952,487	530,771
-25,052	14,494	951,827	530,099
-24,038	14,547	951,117	529,853
-23,023	14,499	950,371	529,262
-22,009	14,528	950,009	529,135
-20,994	14,594	949,169	528,856
-19,979	14,544	948,598	528,357
-18,965	14,562	947,949	528,031
-17,950	14,545	947,428	527,666
-16,936	14,589	946,742	527,402
-15,921	14,594	945,907	526,932
-14,906	14,493	945,256	526,228
-13,892	14,488	944,605	525,829
-12,877	14,426	944,069	525,315
-11,863	14,396	943,410	524,832
-10,848	14,472	942,966	524,803
-9,833	14,520	942,616	524,739
-8,819	14,549	941,813	524,365
-7,804	14,455	941,256	523,735
-6,790	14,473	940,603	523,408
-5,775	14,452	939,971	522,970
-4,760	14,429	939,449	522,586
-3,746	14,486	938,630	522,290
-2,731	14,292	938,043	521,332
-1,717	14,273	937,432	520,912
-0,702	14,281	936,828	520,579
0,313	14,086	936,153	520,377
1,327	17,405	933,768	529,411
2,342	26,195	787,183	469,356
3,356	22,388	442,943	258,467
4,371	-6,641	295,113	143,253
5,386	-10,442	276,919	130,816
6,400	-11,828	271,147	126,794
7,415	-11,961	268,936	125,626
8,429	-11,997	267,472	124,899
9,444	-12,090	266,601	124,395
10,459	-12,039	265,910	124,108
11,473	-12,244	265,329	123,640
12,488	-12,346	264,672	123,231
13,502	-12,567	264,272	122,835
14,517	-12,351	263,930	122,859
15,531	-12,573	263,413	122,408
16,546	-12,416	263,041	122,365
17,561	-12,507	262,690	122,109
18,575	-12,329	262,369	122,109
19,590	-12,501	262,009	121,776
20,604	-12,393	261,753	121,743
21,619	-12,420	261,404	121,546
22,634	-12,552	261,073	121,263
23,648	-12,484	260,691	121,136
24,663	-12,599	260,461	120,916
25,677	-12,657	260,245	120,754
26,692	-12,562	260,009	120,718
27,707	-12,464	259,600	120,603
28,721	-12,623	259,418	120,368
29,736	-12,649	259,119	120,195
30,750	-12,407	258,906	120,299
31,765	-12,428	258,572	120,114
32,780	-12,600	258,327	119,839
33,794	-12,765	258,278	119,660
34,809	-12,656	257,904	119,572
35,823	-12,475	257,537	119,550
36,838	-12,689	257,386	119,282
37,853	-12,663	257,144	119,181
38,867	-12,667	256,964	119,084
39,882	-12,732	256,697	118,893
40,896	-12,598	256,557	118,935
41,911	-12,468	256,169	118,857
42,926	-12,481	255,848	118,686
43,940	-12,740	255,665	118,365
44,955	-12,601	255,471	118,386
45,969	-12,807	255,328	118,130
46,984	-12,876	255,140	117,973
47,999	-12,868	254,699	117,765
49,013	-12,793	254,425	117,693
50,028	-12,939	253,999	117,359
51,042	-13,438	254,054	116,942
52,057	-13,419	253,642	116,758
53,071	-13,171	253,545	116,918
54,086	-13,257	253,386	116,759
55,101	-13,027	253,126	116,828
56,115	-12,872	253,161	116,967
57,130	-12,436	253,029	117,271
58,144	-12,318	252,766	117,240
59,159	-12,132	252,444	117,240
60,174	-12,379	252,359	116,978
61,188	-12,467	252,111	116,777
62,203	-12,286	251,900	116,824
63,217	-12,423	251,682	116,595
64,232	-12,502	251,419	116,396
65,247	-12,257	251,205	116,496
66,261	-12,440	251,044	116,254
67,276	-12,795	250,926	115,887
68,290	-12,791	250,609	115,733
69,305	-12,774	250,275	115,583
70,320	-12,849	250,122	115,439
71,334	-12,580	249,959	115,581
72,349	-12,410	249,867	115,672
73,363	-12,360	249,655	115,606
74,378	-12,477	249,385	115,372
75,393	-12,533	249,141	115,202
76,407	-12,575	249,029	115,103
77,422	-12,423	248,753	115,094
78,436	-12,693	248,665	114,815
79,451	-12,293	248,250	114,950
80,466	-12,356	248,078	114,808
81,480	-12,649	247,818	114,431
82,495	-12,626	247,727	114,398
83,509	-12,524	247,491	114,364
84,524	-12,713	247,250	114,084
85,539	-12,756	246,990	113,918
86,553	-12,896	246,912	113,754
87,568	-12,891	246,798	113,696
88,582	-12,612	246,394	113,734
89,597	-12,768	246,346	113,570
90,611	-12,629	245,998	113,516
91,626	-12,396	245,954	113,680
92,641	-12,584	245,884	113,480
93,655	-12,545	245,557	113,352
94,670	-12,495	245,349	113,288
95,684	-12,678	245,268	113,088
96,699	-12,807	244,977	112,836
97,714	-12,563	244,844	112,968
98,728	-12,768	244,709	112,725
99,743	-12,742	244,461	112,622
100,757	-12,850	244,202	112,404
101,772	-12,741	243,987	112,385
102,787	-12,808	243,915	112,287
103,801	-12,743	243,750	112,254
104,816	-12,485	243,455	112,320
105,830	-12,497	243,479	112,312
106,845	-12,331	243,117	112,272
107,860	-12,391	243,016	112,166
108,874	-12,393	242,685	112,002
109,889	-12,868	242,666	111,592
110,903	-12,714	242,395	111,584
111,918	-12,635	242,251	111,573
112,933	-12,727	242,101	111,418
113,947	-12,507	241,897	111,494
114,962	-12,458	241,584	111,380
115,976	-12,638	241,483	111,177
116,991	-12,613	241,318	111,111
118,006	-12,429	241,188	111,192
119,020	-12,530	241,061	111,041
120,035	-12,354	240,806	111,057
121,049	-12,393	240,730	110,980
122,064	-12,529	240,659	110,827
123,079	-12,250	240,172	110,819
124,093	-12,532	240,129	110,561
125,108	-12,684	239,902	110,323
126,122	-12,860	239,669	110,063
127,137	-13,035	239,519	109,842
128,151	-12,812	239,378	109,949
129,166	-12,837	239,176	109,826
130,181	-12,897	238,858	109,621
131,195	-12,819	238,633	109,571
132,210	-12,794	238,672	109,600
133,224	-12,650	238,570	109,659
134,239	-12,217	238,321	109,884
135,254	-12,305	237,916	109,617
136,268	-12,704	238,029	109,338
137,283	-12,983	237,723	108,964
138,297	-12,877	237,430	108,904
139,312	-12,932	237,235	108,762
140,327	-12,452	237,070	109,060
141,341	-12,179	237,172	109,317
142,356	-12,190	237,030	109,232
143,370	-12,203	236,931	109,166
144,385	-12,128	236,645	109,086
145,400	-12,132	236,483	108,998
146,414	-12,373	236,299	108,711
147,429	-12,449	235,962	108,485
148,443	-12,339	235,775	108,478
149,458	-12,242	235,701	108,511
150,473	-12,159	235,554	108,499
151,487	-12,340	235,373	108,263
152,502	-12,257	235,312	108,291
153,516	-12,093	235,118	108,322
154,531	-12,364	234,881	107,989
155,546	-12,507	234,816	107,836
156,560	-12,461	234,561	107,745
157,575	-12,483	234,371	107,631
158,589	-12,394	234,136	107,584
159,604	-12,189	234,067	107,705
160,619	-12,144	233,943	107,673
161,633	-12,197	233,731	107,524
162,648	-12,095	233,664	107,565
163,662	-12,508	233,438	107,125
164,677	-12,286	233,178	107,171
165,692	-12,417	233,083	107,015
166,706	-11,932	232,984	107,341
167,721	-12,022	232,905	107,224
168,735	-11,919	232,615	107,162
169,750	-12,202	232,552	106,902
170,764	-12,359	232,330	106,667
171,779	-12,212	232,320	106,768
172,794	-12,174	232,108	106,691
173,808	-12,192	231,787	106,519
174,823	-12,811	231,565	105,925
175,837	-12,863	231,346	105,775
176,852	-12,694	231,462	105,951
177,867	-12,313	231,171	106,105
178,881	-12,410	231,086	105,981
179,896	-12,315	230,863	105,943
180,910	-12,193	230,760	105,981
181,925	-12,160	230,562	105,906
182,940	-12,246	230,397	105,754
183,954	-12,011	230,285	105,875
184,969	-12,205	230,223	105,687
185,983	-12,073	230,026	105,689
186,998	-11,804	229,892	105,826
188,013	-12,043	229,781	105,581
189,027	-12,258	229,635	105,338
190,042	-12,213	229,346	105,231
191,056	-12,031	229,197	105,294
192,071	-12,019	229,157	105,275
193,086	-11,945	228,758	105,139
194,100	-11,855	228,763	105,202
195,115	-11,891	228,341	104,971
196,129	-12,167	228,641	104,887
197,144	-7,283	230,015	109,281
198,159	-2,822	231,474	113,425
199,173	0,991	232,406	116,834
200,188	1,608	232,437	117,318
201,202	1,304	232,151	116,928
202,217	1,431	232,071	116,975
203,232	1,645	231,847	117,017
204,246	1,716	231,753	117,014
205,261	1,871	231,709	117,102
206,275	2,077	231,563	117,176
207,290	1,999	231,414	117,030
208,304	2,070	231,296	117,015
209,319	1,853	231,104	116,740
210,334	1,867	230,899	116,637
211,348	1,617	230,756	116,362
212,363	1,447	230,422	116,052
213,377	1,207	230,245	115,769
214,392	1,430	230,241	115,928
215,407	1,510	229,996	115,855
216,421	1,470	230,025	115,829
217,436	1,362	229,835	115,640
218,450	1,231	229,571	115,397
219,465	1,200	229,429	115,291
220,480	1,227	229,167	115,170
221,494	1,104	229,150	115,057
222,509	1,514	229,134	115,352
223,523	1,386	229,012	115,183
224,538	1,362	228,588	114,941
225,553	1,268	228,558	114,844
226,567	1,342	228,427	114,824
227,582	1,469	228,394	114,895
228,596	1,776	228,155	114,997
229,611	1,607	228,032	114,797
230,626	1,098	227,656	114,211
231,640	1,210	227,582	114,249
232,655	1,686	227,500	114,557
233,669	1,831	227,403	114,608
234,684	1,881	227,355	114,612
235,699	1,661	227,284	114,399
236,713	1,362	227,020	114,030
237,728	1,156	226,778	113,743
238,742	1,178	226,514	113,617
239,757	1,331	226,333	113,632
240,772	1,184	226,296	113,492
241,786	1,231	226,135	113,437
242,801	1,617	226,118	113,709
243,815	1,914	225,953	113,838
244,830	1,693	225,863	113,617
245,844	1,657	225,571	113,432
246,859	1,269	225,303	112,997
247,874	1,640	225,147	113,187
248,888	1,816	225,194	113,332
249,903	1,447	225,170	113,034
250,917	1,446	225,007	112,941
251,932	1,303	224,654	112,647
252,947	1,202	224,338	112,404
253,961	1,140	224,252	112,303
254,976	1,240	224,172	112,329
255,990	1,602	224,022	112,513
257,005	1,764	224,116	112,670
258,020	1,664	223,978	112,516
259,034	1,564	223,855	112,370
260,049	1,666	223,599	112,308
261,063	1,501	223,438	112,094
262,078	1,807	223,378	112,281
263,093	2,015	223,229	112,350
264,107	1,909	223,000	112,147
265,122	1,644	222,905	111,893
266,136	1,863	222,805	111,995
267,151	1,659	222,701	111,781
268,166	1,594	222,321	111,533
269,180	1,073	222,123	111,039
270,195	1,437	221,945	111,208
271,209	1,345	221,955	111,136
272,224	1,559	221,856	111,234
273,239	1,573	221,667	111,140
274,253	1,371	221,503	110,899
275,268	1,211	221,283	110,662
276,282	1,178	221,180	110,576
277,297	1,195	220,850	110,414
278,312	1,286	220,836	110,463
279,326	1,730	220,751	110,736
280,341	1,481	220,763	110,550
281,355	1,500	220,572	110,458
282,370	1,484	220,424	110,363
283,384	1,346	220,071	110,076
284,399	0,975	220,009	109,764
285,414	1,222	219,832	109,846
286,428	1,412	219,791	109,954
287,443	1,626	219,652	110,030
288,457	1,862	219,469	110,100
289,472	1,235	219,280	109,540
290,487	0,958	219,154	109,266
291,501	1,107	218,956	109,266
292,516	0,889	218,934	109,087
293,530	1,168	218,665	109,146
294,545	1,203	218,596	109,127
295,560	1,525	218,397	109,250
296,574	1,293	218,443	109,096
297,589	1,423	218,289	109,103
298,603	1,393	218,123	108,989
299,618	1,461	218,011	108,972
300,633	1,330	218,016	108,871
301,647	1,647	217,793	108,978
302,662	1,669	217,614	108,894
303,676	1,917	217,395	108,954
304,691	1,872	217,380	108,904
305,706	1,528	217,220	108,567
306,720	1,437	217,079	108,422
307,735	1,328	216,866	108,227
308,749	1,340	216,737	108,162
309,764	1,551	216,792	108,331
310,779	1,778	216,516	108,345
311,793	1,671	216,298	108,150
312,808	1,512	216,259	108,008
313,822	1,579	216,086	107,960
314,837	1,461	215,886	107,766
315,852	1,503	215,667	107,677
316,866	1,517	215,644	107,666
317,881	1,666	215,507	107,694
318,895	1,492	215,483	107,548
319,910	1,293	215,135	107,224
320,925	1,027	214,880	106,899
321,939	0,873	214,775	106,727
322,954	1,126	214,802	106,911
323,968	1,553	214,737	107,172
324,983	1,921	214,563	107,336
325,997	1,841	214,425	107,201
327,012	1,713	214,239	107,007
328,027	1,778	214,289	107,069
329,041	1,707	214,020	106,875
330,056	1,459	213,760	106,561
331,070	1,380	213,338	106,285
332,085	1,046	213,480	106,111
333,100	1,785	213,411	106,587
334,114	1,698	213,433	106,528
335,129	1,587	213,185	106,316
336,143	1,660	213,031	106,281
337,158	1,616	212,853	106,152
338,173	1,575	212,732	106,054
339,187	1,435	212,563	105,862
340,202	1,128	212,447	105,580
341,216	1,141	212,280	105,496
342,231	1,463	212,205	105,675
343,246	1,384	212,022	105,519
344,260	1,281	211,850	105,352
345,275	1,298	211,963	105,411
346,289	2,099	211,930	105,944
347,304	2,056	211,643	105,762
348,319	1,940	211,507	105,604
349,333	1,750	211,371	105,394
350,348	1,809	211,167	105,323
351,362	1,785	211,037	105,233
352,377	1,634	211,044	105,122
353,392	1,400	210,862	104,860
354,406	1,724	210,665	104,977
355,421	197,143	1314,993	1393,526
356,435	157,640	1449,514	1393,489
