DTS Sentinel unit serial number:	SN410029Multiplexer serial number:	ORYXHardware model number:	OX2-SRSoftware version number:	ORYX F/W v4,00 Oryx Data Collector v3.7.2.0data status	okinstallation	B6 Nyhavnadifferential loss correction	single-endedforward channel	channel 2reverse channel	N/Adate	2023/12/09time	12:00:08forward acquisition time	300,00reverse acquisition time	0,00gamma	499,1914k internal	0,3140k external	0,3140temperature offset calibration	1,0000default loss term (dB/km)	0,3820temperature slope calibration	1,0000multiplexer offset coefficient	1,0000multiplexer slope coefficient	1,0000fibre end	0,00T internal ref (°C)	19,12T ext. ref 1 (°C)	3,40T ext. ref 2 (°C)	3,38length (m)	temperature (°C)	Stokes	anti-Stokes-744,400	-81,427	0,103	-0,025
-743,385	-83,298	-0,374	-0,088
-742,371	-7,656	0,133	0,066
-741,356	-38,999	-0,272	0,106
-740,342	-67,719	0,018	-0,005
-739,327	-29,130	-0,323	0,137
-738,312	339,194	-0,049	-0,071
-737,298	-135,235	-0,245	0,022
-736,283	-200,000	0,006	-0,032
-735,269	-170,129	-0,264	-0,007
-734,254	-109,110	-0,046	0,007
-733,239	-83,725	-0,441	-0,103
-732,225	105,187	0,062	-0,054
-731,210	-32,709	-0,110	0,045
-730,196	315,317	-0,039	0,055
-729,181	-120,247	-0,107	0,013
-728,167	-59,423	-0,061	0,019
-727,152	146,690	0,092	0,092
-726,137	-102,296	-0,080	-0,014
-725,123	-200,000	-0,041	-0,221
-724,108	76,926	-0,144	-0,113
-723,094	10,366	-0,098	-0,055
-722,079	-200,000	0,005	-0,094
-721,064	-148,470	-0,080	0,005
-720,050	-95,903	-0,029	-0,006
-719,035	800,000	-0,042	-0,131
-718,021	16,762	-0,081	-0,048
-717,006	-91,932	0,122	-0,025
-715,991	-26,536	-0,199	-0,086
-714,977	-200,000	0,024	-0,091
-713,962	422,667	-0,051	0,082
-712,948	-55,135	0,084	-0,028
-711,933	-200,000	0,023	0,091
-710,918	-30,084	-0,124	0,052
-709,904	-95,883	0,076	-0,015
-708,889	-200,000	-0,013	-0,139
-707,875	800,000	0,006	-0,017
-706,860	71,458	-0,069	-0,053
-705,845	-44,747	0,029	-0,011
-704,831	-200,000	0,018	-0,095
-703,816	165,166	0,036	0,038
-702,802	-35,739	-0,133	-0,053
-701,787	62,313	-0,125	-0,092
-700,772	-51,816	-0,034	-0,012
-699,758	43,653	-0,023	-0,015
-698,743	615,573	-0,049	-0,092
-697,729	-15,875	0,014	-0,006
-696,714	163,949	0,059	-0,061
-695,699	800,000	0,021	-0,068
-694,685	-27,743	-0,080	0,034
-693,670	-200,000	-0,130	0,000
-692,656	-200,000	-0,034	-0,149
-691,641	39,350	0,033	0,022
-690,627	509,657	0,062	0,107
-689,612	-200,000	-0,001	-0,102
-688,597	-83,708	-0,073	0,017
-687,583	208,117	-0,123	-0,143
-686,568	-200,000	0,036	-0,182
-685,554	-22,932	-0,141	-0,063
-684,539	800,000	0,036	0,092
-683,524	456,234	-0,105	0,173
-682,510	106,552	0,104	0,091
-681,495	-200,000	-0,009	-0,113
-680,481	-80,454	-0,054	-0,013
-679,466	800,000	-0,019	-0,045
-678,451	-17,447	0,025	-0,012
-677,437	164,484	0,107	-0,111
-676,422	-15,732	0,120	-0,056
-675,408	-200,000	-0,007	0,110
-674,393	-89,591	-0,123	0,026
-673,378	241,758	0,099	-0,122
-672,364	597,907	0,088	0,161
-671,349	226,617	0,017	-0,020
-670,335	336,229	-0,028	-0,041
-669,320	11,731	0,119	-0,067
-668,305	269,750	-0,019	0,025
-667,291	-200,000	-0,012	0,066
-666,276	800,000	-0,046	-0,147
-665,262	105,237	-0,033	-0,029
-664,247	800,000	0,061	-0,135
-663,232	-49,790	-0,111	-0,039
-662,218	51,487	-0,111	-0,078
-661,203	-167,893	0,106	0,003
-660,189	-200,000	0,016	-0,101
-659,174	-200,000	-0,007	-0,065
-658,159	800,000	0,029	-0,074
-657,145	-52,029	-0,107	0,037
-656,130	72,053	-0,054	-0,041
-655,116	-200,000	-0,012	-0,139
-654,101	61,073	0,070	-0,051
-653,086	8,510	-0,033	-0,018
-652,072	301,036	-0,037	-0,051
-651,057	-200,000	-0,012	0,068
-650,043	-31,118	0,089	0,037
-649,028	51,946	0,136	-0,096
-648,014	200,743	-0,094	0,107
-646,999	20,655	0,039	-0,023
-645,984	433,440	-0,061	0,099
-644,970	-35,519	0,052	0,021
-643,955	150,870	-0,051	-0,051
-642,941	104,120	0,116	-0,101
-641,926	-22,431	-0,166	-0,074
-640,911	-56,267	0,174	0,057
-639,897	303,229	-0,107	0,147
-638,882	-17,165	-0,154	0,071
-637,868	-47,568	0,047	0,017
-636,853	800,000	-0,041	-0,120
-635,838	-200,000	0,014	-0,179
-634,824	-200,000	-0,002	-0,025
-633,809	257,468	-0,063	0,080
-632,795	222,291	-0,026	-0,031
-631,780	36,640	0,023	0,015
-630,765	-200,000	-0,005	-0,052
-629,751	800,000	-0,060	0,141
-628,736	800,000	0,015	-0,048
-627,722	414,518	0,014	-0,023
-626,707	-154,838	0,033	0,002
-625,692	-150,953	0,160	0,009
-624,678	-200,000	-0,024	-0,119
-623,663	650,726	-0,040	-0,075
-622,649	81,692	0,042	-0,033
-621,634	15,911	0,058	0,033
-620,619	-76,755	-0,208	-0,053
-619,605	-44,527	0,133	-0,049
-618,590	-200,000	-0,010	0,062
-617,576	58,367	-0,042	-0,030
-616,561	40,123	-0,032	0,021
-615,546	800,000	-0,007	-0,017
-614,532	-200,000	0,004	0,062
-613,517	-16,777	-0,073	-0,034
-612,503	638,858	0,058	-0,109
-611,488	81,150	0,104	0,083
-610,474	52,087	-0,100	-0,071
-609,459	208,953	0,112	0,129
-608,444	30,133	-0,114	0,072
-607,430	800,000	-0,056	-0,128
-606,415	184,448	0,051	-0,055
-605,401	800,000	-0,030	0,074
-604,386	10,714	0,086	-0,048
-603,371	-124,490	0,113	-0,013
-602,357	-200,000	-0,029	-0,113
-601,342	-85,333	0,051	-0,012
-600,328	800,000	-0,016	0,046
-599,313	743,780	-0,048	-0,095
-598,298	800,000	-0,004	-0,011
-597,284	-109,834	-0,100	0,015
-596,269	37,648	0,068	-0,045
-595,255	-200,000	-0,017	0,112
-594,240	130,952	0,074	-0,070
-593,225	-139,734	-0,097	0,007
-592,211	800,000	-0,018	0,041
-591,196	-8,301	0,026	-0,013
-590,182	189,568	0,062	0,068
-589,167	800,000	0,042	-0,106
-588,152	-111,327	-0,004	-0,001
-587,138	-37,951	0,039	-0,015
-586,123	107,284	0,030	-0,026
-585,109	9,520	-0,079	-0,044
-584,094	-200,000	0,010	-0,080
-583,079	-76,964	0,149	-0,038
-582,065	315,898	-0,051	0,071
-581,050	-102,619	-0,022	-0,004
-580,036	-200,000	0,017	-0,141
-579,021	391,638	-0,008	-0,012
-578,006	-122,709	-0,104	-0,012
-576,992	23,229	0,102	0,062
-575,977	-96,293	0,115	-0,022
-574,963	-19,635	0,047	0,021
-573,948	-81,939	-0,064	-0,015
-572,934	-200,000	0,018	-0,080
-571,919	68,151	0,010	-0,007
-570,904	-189,529	-0,107	0,001
-569,890	-92,034	-0,109	-0,022
-568,875	-200,000	0,012	-0,082
-567,861	-152,217	0,068	-0,004
-566,846	108,531	-0,061	-0,054
-565,831	-200,000	-0,003	0,019
-564,817	-200,000	0,007	-0,055
-563,802	-200,000	0,003	-0,078
-562,788	800,000	-0,011	0,026
-561,773	-153,169	-0,074	0,004
-560,758	155,054	-0,077	-0,078
-559,744	-200,000	-0,004	-0,056
-558,729	-76,769	0,155	0,040
-557,715	-53,109	-0,134	0,045
-556,700	-100,141	-0,061	-0,011
-555,685	-200,000	-0,013	0,098
-554,671	-131,813	0,097	0,009
-553,656	16,683	-0,021	0,012
-552,642	460,015	-0,023	0,038
-551,627	-8,474	-0,063	-0,031
-550,612	800,000	-0,022	0,065
-549,598	163,418	-0,147	-0,153
-548,583	-95,528	0,060	-0,012
-547,569	105,274	0,077	-0,067
-546,554	-138,761	0,071	0,006
-545,539	-200,000	0,006	0,106
-544,525	-97,481	-0,143	0,027
-543,510	-68,450	0,091	-0,026
-542,496	-78,141	-0,102	0,026
-541,481	-1,745	0,134	-0,069
-540,466	800,000	-0,035	0,082
-539,452	-107,467	-0,030	-0,005
-538,437	-200,000	-0,020	0,086
-537,423	380,973	-0,020	0,031
-536,408	-200,000	-0,049	-0,180
-535,393	-150,475	0,092	-0,005
-534,379	800,000	0,011	0,029
-533,364	425,291	-0,018	-0,029
-532,350	44,122	0,031	-0,021
-531,335	-63,159	0,027	-0,008
-530,321	48,429	-0,051	-0,035
-529,306	-200,000	-0,004	-0,028
-528,291	-200,000	-0,002	-0,037
-527,277	-14,862	-0,092	-0,043
-526,262	-150,997	-0,168	-0,009
-525,248	-44,601	0,007	0,003
-524,233	-128,031	0,150	0,016
-523,218	609,829	-0,036	0,066
-522,204	-200,000	-0,012	0,055
-521,189	-200,000	0,003	-0,042
-520,175	39,896	-0,093	0,061
-519,160	264,145	0,027	-0,035
-518,145	93,119	0,061	0,050
-517,131	-200,000	-0,005	0,083
-516,116	-39,793	0,064	-0,024
-515,102	197,132	-0,065	0,073
-514,087	201,961	-0,068	-0,078
-513,072	-39,607	0,035	0,013
-512,058	33,828	-0,162	-0,103
-511,043	337,591	-0,038	0,055
-510,029	-65,009	-0,127	-0,037
-509,014	-179,361	0,117	-0,002
-507,999	-200,000	0,006	-0,043
-506,985	-134,164	-0,100	-0,009
-505,970	266,015	0,043	-0,055
-504,956	-38,725	-0,071	0,028
-503,941	84,610	-0,067	-0,054
-502,926	421,419	0,028	0,045
-501,912	800,000	-0,018	0,054
-500,897	-122,869	-0,058	0,007
-499,883	200,910	0,038	-0,043
-498,868	-2,627	-0,070	0,036
-497,853	287,860	-0,059	0,079
-496,839	100,998	-0,017	-0,014
-495,824	-98,214	0,152	-0,028
-494,810	-76,293	0,050	-0,013
-493,795	-129,886	-0,031	0,003
-492,781	-65,933	0,068	0,020
-491,766	654,959	-0,025	-0,047
-490,751	-85,420	-0,015	-0,003
-489,737	722,730	-0,028	-0,054
-488,722	24,673	-0,049	-0,030
-487,708	800,000	0,069	0,155
-486,693	-116,784	0,034	0,005
-485,678	154,853	-0,121	0,122
-484,664	535,348	-0,070	-0,121
-483,649	800,000	-0,025	-0,061
-482,635	-200,000	-0,001	-0,009
-481,620	-146,677	0,041	-0,003
-480,605	-200,000	-0,003	-0,117
-479,591	69,967	0,127	0,096
-478,576	-93,143	-0,129	-0,026
-477,562	-200,000	0,023	-0,083
-476,547	-23,522	-0,010	0,004
-475,532	-134,171	-0,110	-0,010
-474,518	-191,503	0,108	-0,001
-473,503	408,531	-0,034	-0,053
-472,489	-121,789	0,159	0,019
-471,474	-200,000	-0,020	0,116
-470,459	-200,000	0,002	-0,094
-469,445	800,000	0,041	-0,125
-468,430	800,000	-0,027	-0,068
-467,416	800,000	-0,046	0,119
-466,401	-200,000	0,008	-0,059
-465,386	12,948	0,072	-0,041
-464,372	422,011	0,029	0,046
-463,357	800,000	0,030	0,087
-462,343	-156,607	0,070	0,003
-461,328	178,484	-0,028	0,030
-460,313	-51,277	0,056	-0,019
-459,299	494,385	0,039	0,066
-458,284	10,001	0,026	0,014
-457,270	-81,057	0,085	-0,020
-456,255	800,000	0,035	0,077
-455,241	-161,214	0,043	-0,002
-454,226	-55,821	-0,089	0,029
-453,211	1,797	0,099	-0,052
-452,197	333,257	0,052	0,075
-451,182	23,397	0,089	0,054
-450,168	448,959	0,045	0,072
-449,153	3,407	0,049	0,026
-448,138	89,413	-0,105	-0,085
-447,124	2,104	-0,027	-0,014
-446,109	65,697	-0,087	0,064
-445,095	50,336	-0,074	-0,051
-444,080	-200,000	-0,006	0,190
-443,065	-116,868	0,124	-0,016
-442,051	257,659	-0,078	0,099
-441,036	258,466	0,186	-0,236
-440,022	-70,204	0,093	-0,026
-439,007	15,010	-0,134	0,077
-437,992	-198,857	0,106	0,000
-436,978	425,871	0,065	0,103
-435,963	238,514	-0,025	-0,030
-434,949	262,276	-0,078	0,099
-433,934	317,361	-0,034	-0,047
-432,919	345,696	0,134	0,193
-431,905	-142,528	-0,040	-0,003
-430,890	-40,972	0,067	0,025
-429,876	1,963	0,051	-0,027
-428,861	-200,000	-0,012	-0,106
-427,846	264,015	-0,091	0,116
-426,832	-200,000	0,018	-0,108
-425,817	800,000	0,061	-0,147
-424,803	141,198	-0,096	0,093
-423,788	-200,000	0,003	-0,018
-422,773	-200,000	-0,012	0,134
-421,759	96,212	-0,131	0,110
-420,744	86,580	-0,082	0,067
-419,730	365,922	0,022	-0,033
-418,715	800,000	-0,021	0,054
-417,701	-200,000	0,011	-0,080
-416,686	101,313	-0,028	0,024
-415,671	-200,000	0,001	-0,053
-414,657	800,000	-0,033	0,093
-413,642	-106,260	-0,103	0,017
-412,628	-100,066	-0,129	-0,023
-411,613	-111,184	-0,075	0,011
-410,598	-200,000	-0,008	-0,029
-409,584	114,829	0,065	-0,058
-408,569	358,478	0,055	0,081
-407,555	165,001	-0,010	0,010
-406,540	800,000	-0,023	-0,070
-405,525	-200,000	-0,010	-0,050
-404,511	-8,178	0,023	-0,011
-403,496	257,798	-0,089	0,112
-402,482	109,228	0,097	-0,085
-401,467	114,838	0,106	0,095
-400,452	7,530	0,167	0,091
-399,438	391,512	-0,036	0,056
-398,423	800,000	-0,018	-0,048
-397,409	43,034	-0,110	-0,073
-396,394	485,526	-0,047	-0,078
-395,379	-87,635	-0,046	0,010
-394,365	-51,086	0,098	-0,033
-393,350	800,000	0,046	0,136
-392,336	-200,000	0,021	0,090
-391,321	-200,000	-0,009	0,055
-390,306	-200,000	-0,001	0,078
-389,292	36,064	-0,081	-0,052
-388,277	-200,000	-0,018	-0,100
-387,263	800,000	0,071	-0,196
-386,248	81,140	0,056	0,044
-385,233	71,344	0,084	0,064
-384,219	31,644	0,093	-0,058
-383,204	800,000	0,026	-0,065
-382,190	-6,109	-0,048	-0,024
-381,175	-26,503	0,127	-0,054
-380,160	69,966	0,141	0,107
-379,146	269,407	-0,028	0,036
-378,131	118,851	-0,051	-0,046
-377,117	-200,000	-0,014	0,063
-376,102	528,224	0,042	-0,072
-375,088	370,076	-0,097	-0,144
-374,073	489,830	-0,039	-0,066
-373,058	-64,262	0,052	-0,015
-372,044	-160,719	0,087	-0,003
-371,029	-48,855	0,113	-0,039
-370,015	-85,285	-0,121	-0,027
-369,000	-92,231	0,019	0,004
-367,985	-200,000	-0,002	0,020
-366,971	-200,000	0,012	-0,068
-365,956	76,342	-0,031	-0,024
-364,942	2,033	0,053	-0,028
-363,927	-200,000	0,009	0,064
-362,912	-82,200	-0,154	-0,036
-361,898	204,937	-0,071	0,080
-360,883	392,795	0,022	-0,034
-359,869	-200,000	0,014	0,082
-358,854	5,055	0,102	0,055
-357,839	-200,000	-0,015	0,164
-356,825	75,256	-0,057	0,044
-355,810	-35,875	-0,052	0,021
-354,796	-200,000	0,024	0,082
-353,781	-84,067	-0,199	0,046
-352,766	-200,000	-0,013	0,130
-351,752	-60,729	0,037	0,011
-350,737	349,439	0,052	-0,075
-349,723	565,284	0,090	0,160
-348,708	178,117	0,100	0,107
-347,693	-77,771	-0,077	0,019
-346,679	-73,976	-0,102	-0,027
-345,664	-8,082	0,127	0,062
-344,650	-33,300	0,015	-0,006
-343,635	91,146	0,048	0,039
-342,620	-131,414	0,077	-0,007
-341,606	275,273	-0,063	0,081
-340,591	800,000	-0,056	-0,119
-339,577	736,492	0,025	-0,049
-338,562	130,026	-0,072	0,067
-337,548	131,792	0,077	0,072
-336,533	800,000	-0,016	-0,047
-335,518	-200,000	0,013	-0,114
-334,504	461,496	0,050	0,081
-333,489	-200,000	-0,024	-0,146
-332,475	-119,611	0,041	-0,005
-331,460	-200,000	-0,008	-0,048
-330,445	520,240	0,047	-0,081
-329,431	322,014	0,030	0,042
-328,416	-200,000	-0,024	-0,096
-327,402	76,882	-0,057	0,044
-326,387	-159,529	-0,071	-0,003
-325,372	216,903	0,032	0,037
-324,358	419,175	0,029	0,045
-323,343	354,267	-0,041	-0,059
-322,329	35,304	-0,053	0,034
-321,314	-84,963	0,036	0,008
-320,299	261,009	0,050	0,064
-319,285	-152,538	-0,136	-0,007
-318,270	-200,000	-0,011	0,114
-317,256	71,751	0,056	-0,043
-316,241	-25,392	-0,030	0,013
-315,226	212,051	0,058	0,067
-314,212	34,919	-0,103	0,065
-313,197	41,621	-0,070	-0,046
-312,183	-137,422	0,096	-0,008
-311,168	-13,182	-0,059	-0,028
-310,153	-200,000	-0,010	0,071
-309,139	-55,749	0,160	-0,052
-308,124	800,000	-0,023	-0,052
-307,110	-23,638	-0,113	0,049
-306,095	108,665	0,099	0,086
-305,080	685,641	0,054	-0,103
-304,066	800,000	-0,010	-0,030
-303,051	800,000	0,071	-0,181
-302,037	113,657	-0,103	-0,091
-301,022	92,132	0,032	-0,026
-300,008	-200,000	0,003	0,098
-298,993	167,729	0,058	0,060
-297,978	-74,931	0,105	0,027
-296,964	9,588	-0,085	-0,047
-295,949	-200,000	0,026	-0,150
-294,935	800,000	-0,023	-0,050
-293,920	53,358	-0,100	0,070
-292,905	4,684	0,084	-0,045
-291,891	-23,132	-0,024	-0,011
-290,876	-68,393	-0,073	0,020
-289,862	-200,000	0,010	-0,037
-288,847	-120,669	-0,067	-0,008
-287,832	-200,000	-0,019	-0,086
-286,818	-52,912	-0,134	0,045
-285,803	-200,000	0,179	0,000
-284,789	297,386	-0,078	0,104
-283,774	424,773	0,025	0,039
-282,759	-200,000	-0,007	0,024
-281,745	51,340	-0,146	-0,101
-280,730	0,403	0,065	0,033
-279,716	-200,000	0,018	0,069
-278,701	766,715	-0,052	-0,104
-277,686	-55,174	-0,056	-0,018
-276,672	194,064	-0,058	0,064
-275,657	219,083	0,094	0,109
-274,643	63,518	0,044	-0,032
-273,628	800,000	-0,035	-0,092
-272,613	365,151	0,072	-0,105
-271,599	800,000	0,037	0,095
-270,584	800,000	-0,042	-0,085
-269,570	128,465	0,060	0,055
-268,555	55,321	-0,055	-0,039
-267,540	-125,226	-0,058	0,006
-266,526	315,510	0,078	-0,108
-265,511	361,209	-0,049	0,071
-264,497	-200,000	0,012	0,087
-263,482	-200,000	-0,003	0,039
-262,467	-88,627	0,033	-0,007
-261,453	-41,810	0,044	-0,016
-260,438	32,487	-0,079	-0,050
-259,424	800,000	-0,030	0,062
-258,409	-200,000	-0,002	-0,031
-257,395	-200,000	-0,025	-0,091
-256,380	-73,195	0,193	-0,051
-255,365	130,041	0,192	0,179
-254,351	-179,227	-0,149	-0,002
-253,336	-200,000	-0,015	0,091
-252,322	800,000	0,023	0,071
-251,307	15,291	-0,201	-0,114
-250,292	-200,000	-0,004	0,095
-249,278	95,071	0,064	0,053
-248,263	106,535	0,052	-0,045
-247,249	-178,562	0,133	-0,002
-246,234	53,814	-0,030	-0,021
-245,219	-52,522	-0,120	0,040
-244,205	-200,000	-0,007	0,038
-243,190	-56,539	0,068	-0,022
-242,176	-200,000	-0,022	-0,077
-241,161	800,000	0,047	0,098
-240,146	-6,920	-0,133	0,065
-239,132	238,685	0,080	0,097
-238,117	-138,340	0,053	0,004
-237,103	800,000	-0,016	0,049
-236,088	160,320	-0,049	0,050
-235,073	-84,341	0,035	-0,008
-234,059	-200,000	0,020	0,067
-233,044	-200,000	0,013	-0,048
-232,030	-34,699	-0,101	-0,040
-231,015	-200,000	0,005	0,023
-230,000	-178,255	-0,102	-0,002
-228,986	-63,722	0,099	-0,029
-227,971	-29,432	0,021	0,009
-226,957	-22,695	0,061	0,027
-225,942	-200,000	-0,018	0,062
-224,927	-107,121	0,106	0,017
-223,913	-179,810	-0,051	0,001
-222,898	98,088	0,049	-0,041
-221,884	166,803	0,098	-0,101
-220,869	60,670	-0,105	0,076
-219,855	219,296	-0,058	-0,067
-218,840	9,706	-0,114	-0,063
-217,825	89,898	0,075	-0,060
-216,811	338,235	0,050	0,070
-215,796	116,223	0,020	0,018
-214,782	696,866	0,042	-0,080
-213,767	800,000	0,043	-0,138
-212,752	289,473	-0,016	0,021
-211,738	-200,000	-0,002	0,018
-210,723	-18,497	-0,041	0,019
-209,709	128,128	0,075	-0,069
-208,694	-200,000	0,010	-0,078
-207,679	425,816	-0,036	-0,057
-206,665	101,525	0,127	0,107
-205,650	63,750	0,042	0,030
-204,636	340,183	0,036	0,051
-203,621	20,293	-0,069	-0,041
-202,606	219,780	0,018	0,020
-201,592	-200,000	0,009	-0,046
-200,577	-76,919	0,100	-0,025
-199,563	0,365	0,017	-0,009
-198,548	-62,122	-0,106	0,032
-197,533	-84,843	0,115	0,026
-196,519	301,501	-0,034	-0,046
-195,504	-200,000	0,035	-0,154
-194,490	214,974	-0,066	-0,075
-193,475	-18,224	0,057	-0,026
-192,460	296,685	-0,061	-0,081
-191,446	-200,000	-0,024	0,103
-190,431	-200,000	0,053	0,186
-189,417	-200,000	0,010	-0,061
-188,402	51,491	0,048	-0,033
-187,387	-200,000	0,002	-0,070
-186,373	800,000	-0,042	-0,123
-185,358	75,364	-0,028	0,021
-184,344	-200,000	-0,025	-0,106
-183,329	318,275	0,082	0,112
-182,315	163,963	-0,021	-0,022
-181,300	-56,523	-0,158	0,050
-180,285	-200,000	0,001	-0,049
-179,271	360,676	-0,035	0,052
-178,256	-160,946	-0,095	0,004
-177,242	56,670	0,050	-0,035
-176,227	133,512	0,013	0,012
-175,212	-200,000	0,005	-0,024
-174,198	-200,000	-0,039	0,214
-173,183	-200,000	0,003	-0,023
-172,169	461,907	-0,067	-0,108
-171,154	183,098	-0,105	0,112
-170,139	-200,000	0,027	0,108
-169,125	17,958	0,196	0,113
-168,110	-200,000	0,010	-0,058
-167,096	650,916	-0,012	0,022
-166,081	336,204	-0,076	0,107
-165,066	800,000	0,075	-0,156
-164,052	800,000	0,049	0,107
-163,037	-76,269	0,068	-0,017
-162,023	-200,000	-0,008	0,050
-161,008	-93,623	0,100	0,020
-159,993	-30,954	-0,122	0,050
-158,979	49,710	-0,056	0,038
-157,964	-41,628	-0,017	0,006
-156,950	69,251	-0,126	-0,094
-155,935	-156,051	0,099	-0,004
-154,920	800,000	-0,053	0,117
-153,906	593,098	-0,058	0,104
-152,891	-9,371	0,087	-0,042
-151,877	-71,344	0,077	-0,021
-150,862	-200,000	0,026	-0,152
-149,847	-200,000	0,013	-0,075
-148,833	-200,000	0,016	-0,060
-147,818	-30,517	0,114	0,047
-146,804	-185,154	0,090	0,001
-145,789	699,720	0,020	-0,039
-144,775	-12,113	0,029	-0,014
-143,760	-107,829	0,161	-0,025
-142,745	67,020	-0,095	-0,070
-141,731	590,290	-0,047	0,084
-140,716	6,563	-0,007	-0,004
-139,702	83,904	-0,099	-0,078
-138,687	70,580	0,097	0,073
-137,672	94,774	-0,118	-0,097
-136,658	-30,688	-0,043	-0,018
-135,643	251,327	-0,029	-0,036
-134,629	464,082	0,069	0,112
-133,614	-116,963	0,043	0,006
-132,599	-200,000	-0,013	-0,088
-131,585	-159,028	0,086	-0,003
-130,570	145,826	0,082	0,080
-129,556	34,816	0,084	-0,053
-128,541	345,840	0,093	-0,133
-127,526	23,608	0,063	-0,037
-126,512	-200,000	0,019	0,111
-125,497	-50,654	0,072	0,024
-124,483	800,000	0,037	0,075
-123,468	-200,000	0,032	0,132
-122,453	359,745	0,018	-0,025
-121,439	168,246	-0,081	-0,084
-120,424	-200,000	-0,041	0,150
-119,410	-200,000	0,012	-0,151
-118,395	-200,000	0,000	-0,030
-117,380	297,254	-0,104	-0,138
-116,366	-156,568	-0,107	-0,005
-115,351	800,000	0,022	0,061
-114,337	800,000	-0,026	-0,063
-113,322	131,402	0,036	0,033
-112,307	-110,957	-0,029	-0,004
-111,293	213,430	-0,019	0,021
-110,278	48,377	0,122	0,082
-109,264	-68,320	-0,156	-0,043
-108,249	73,116	0,079	0,060
-107,234	192,206	-0,053	-0,058
-106,220	-112,511	0,122	-0,017
-105,205	13,885	0,087	-0,049
-104,191	137,826	0,086	-0,081
-103,176	322,758	-0,067	0,092
-102,162	-22,936	-0,049	-0,021
-101,147	-71,309	0,111	0,030
-100,132	-200,000	0,013	-0,091
-99,118	-200,000	-0,018	-0,081
-98,103	800,000	0,006	0,020
-97,089	800,000	-0,039	0,087
-96,074	-128,028	0,135	0,014
-95,059	48,576	-0,048	0,032
-94,045	-200,000	-0,003	-0,020
-93,030	177,184	0,057	-0,060
-92,016	-21,430	-0,156	-0,069
-91,001	-200,000	-0,005	0,047
-89,986	-200,000	-0,032	0,142
-88,972	44,424	0,052	0,034
-87,957	36,621	-0,083	-0,053
-86,943	-200,000	0,018	0,124
-85,928	800,000	-0,005	0,013
-84,913	-200,000	0,044	-0,174
-83,899	-47,049	0,054	-0,019
-82,884	306,965	0,031	-0,042
-81,870	-1,620	0,073	0,037
-80,855	56,771	0,058	-0,041
-79,840	90,199	-0,078	0,063
-78,826	-39,876	0,145	0,055
-77,811	-200,000	-0,031	-0,174
-76,797	682,553	0,026	0,050
-75,782	-114,917	-0,088	0,012
-74,767	461,421	0,080	0,130
-73,753	404,476	-0,079	-0,121
-72,738	17,080	-0,088	0,050
-71,724	73,276	-0,069	0,052
-70,709	-200,000	0,026	0,101
-69,694	47,035	0,124	-0,083
-68,680	149,485	0,057	0,056
-67,665	45,418	0,109	0,073
-66,651	-157,392	-0,079	-0,003
-65,636	353,616	-0,073	-0,104
-64,622	54,891	-0,048	-0,033
-63,607	-200,000	-0,001	0,048
-62,592	-74,880	0,044	-0,011
-61,578	-48,393	-0,026	0,009
-60,563	548,838	0,071	-0,123
-59,549	286,337	0,062	0,081
-58,534	-37,672	-1,641	-0,628
-57,519	800,000	-0,551	-1,365
-56,505	-200,000	-1,044	-4,710
-55,490	-77,228	0,614	-0,153
-54,476	800,000	5,220	12,207
-53,461	-200,000	15,418	270,133
-52,446	800,000	699,221	2219,427
-51,432	556,338	1617,178	2822,581
-50,417	119,932	1624,779	1453,776
-49,403	79,393	1284,104	992,811
-48,388	36,766	1026,657	653,269
-47,373	21,894	988,051	579,652
-46,359	20,936	976,696	569,819
-45,344	19,396	972,631	562,378
-44,330	19,395	971,505	561,702
-43,315	19,160	969,769	559,906
-42,300	19,173	968,619	559,262
-41,286	19,159	967,532	558,568
-40,271	19,167	966,733	558,110
-39,257	19,169	965,796	557,554
-38,242	19,158	964,909	556,985
-37,227	19,110	964,341	556,477
-36,213	19,146	963,465	556,065
-35,198	19,144	962,610	555,546
-34,184	19,119	961,808	554,977
-33,169	19,147	960,705	554,409
-32,154	19,208	960,000	554,180
-31,140	19,192	959,108	553,590
-30,125	19,177	958,385	553,103
-29,111	19,157	957,621	552,576
-28,096	19,120	957,036	552,095
-27,082	19,163	956,265	551,769
-26,067	19,149	955,475	551,246
-25,052	19,178	954,625	550,825
-24,038	19,174	954,068	550,472
-23,023	19,120	953,439	549,911
-22,009	19,211	952,551	549,670
-20,994	19,184	952,040	549,267
-19,979	19,136	951,585	548,829
-18,965	19,229	950,794	548,648
-17,950	19,189	950,171	548,139
-16,936	19,129	949,492	547,533
-15,921	19,104	948,771	547,017
-14,906	19,030	948,340	546,510
-13,892	18,985	947,580	545,905
-12,877	19,030	946,927	545,653
-11,863	19,054	946,206	545,292
-10,848	19,018	945,815	544,930
-9,833	19,119	945,310	544,939
-8,819	19,121	944,720	544,583
-7,804	19,078	944,196	544,123
-6,790	19,001	943,524	543,471
-5,775	19,059	942,783	543,206
-4,760	19,114	942,018	542,916
-3,746	18,996	941,603	542,283
-2,731	18,930	940,811	541,595
-1,717	18,776	940,293	540,788
-0,702	18,842	939,540	540,543
0,313	18,652	938,935	540,409
1,327	21,629	937,328	548,836
2,342	30,742	795,634	490,096
3,356	28,151	449,793	273,154
4,371	-1,167	295,593	150,138
5,386	-5,164	276,786	136,776
6,400	-6,264	271,104	132,932
7,415	-6,790	268,849	131,328
8,429	-6,742	267,390	130,648
9,444	-6,966	266,588	130,040
10,459	-6,789	265,945	129,877
11,473	-6,975	265,295	129,378
12,488	-7,047	264,724	129,022
13,502	-7,267	264,212	128,561
14,517	-7,546	264,011	128,200
15,531	-7,427	263,421	128,009
16,546	-7,394	262,961	127,804
17,561	-7,485	262,615	127,542
18,575	-7,406	262,410	127,502
19,590	-7,742	261,982	126,981
20,604	-7,332	261,654	127,179
21,619	-7,631	261,357	126,755
22,634	-7,449	260,950	126,709
23,648	-7,639	260,812	126,460
24,663	-7,453	260,484	126,457
25,677	-7,533	260,083	126,179
26,692	-7,496	259,795	126,062
27,707	-7,421	259,471	125,960
28,721	-7,659	259,294	125,650
29,736	-7,716	259,129	125,509
30,750	-7,769	258,869	125,325
31,765	-7,654	258,492	125,233
32,780	-7,625	258,268	125,139
33,794	-7,634	258,066	125,022
34,809	-7,657	257,873	124,897
35,823	-7,637	257,502	124,724
36,838	-7,809	257,441	124,532
37,853	-7,641	256,932	124,422
38,867	-7,633	256,699	124,306
39,882	-7,794	256,770	124,186
40,896	-7,519	256,348	124,214
41,911	-7,632	256,248	124,055
42,926	-7,863	256,031	123,736
43,940	-7,840	255,805	123,636
44,955	-7,902	255,597	123,470
45,969	-7,752	255,162	123,380
46,984	-8,056	254,952	123,002
47,999	-8,241	254,724	122,719
49,013	-8,149	254,482	122,672
50,028	-8,470	254,348	122,317
51,042	-8,693	254,014	121,951
52,057	-8,631	253,750	121,867
53,071	-8,573	253,655	121,861
54,086	-8,434	253,369	121,833
55,101	-8,281	253,316	121,930
56,115	-7,995	253,186	122,104
57,130	-7,749	253,078	122,255
58,144	-7,266	252,968	122,609
59,159	-7,369	252,649	122,354
60,174	-7,296	252,430	122,300
61,188	-7,268	252,295	122,248
62,203	-7,381	251,956	121,975
63,217	-7,700	251,979	121,701
64,232	-7,377	251,670	121,819
65,247	-7,388	251,455	121,694
66,261	-7,357	251,241	121,607
67,276	-7,742	250,846	121,074
68,290	-7,895	250,672	120,848
69,305	-7,982	250,456	120,659
70,320	-8,107	250,310	120,471
71,334	-7,702	250,134	120,722
72,349	-7,319	249,992	120,970
73,363	-7,360	249,796	120,829
74,378	-7,381	249,738	120,772
75,393	-7,535	249,368	120,452
76,407	-7,627	249,273	120,316
77,422	-7,614	249,055	120,211
78,436	-7,477	248,823	120,205
79,451	-7,454	248,607	120,110
80,466	-7,468	248,376	119,976
81,480	-7,652	247,952	119,604
82,495	-7,841	247,771	119,346
83,509	-7,870	247,832	119,341
84,524	-7,736	247,378	119,224
85,539	-8,093	247,342	118,895
86,553	-7,978	247,071	118,851
87,568	-7,841	246,797	118,824
88,582	-7,844	246,698	118,764
89,597	-7,875	246,617	118,688
90,611	-7,770	246,539	118,728
91,626	-7,438	246,265	118,864
92,641	-7,563	246,087	118,663
93,655	-7,733	245,865	118,402
94,670	-7,749	245,599	118,251
95,684	-7,782	245,479	118,155
96,699	-7,727	245,265	118,087
97,714	-7,936	245,162	117,852
98,728	-7,824	244,857	117,788
99,743	-7,744	244,606	117,724
100,757	-8,095	244,537	117,388
101,772	-7,913	244,443	117,484
102,787	-7,902	244,063	117,300
103,801	-7,904	244,089	117,300
104,816	-7,699	243,766	117,305
105,830	-7,441	243,672	117,463
106,845	-7,657	243,709	117,291
107,860	-7,527	243,357	117,219
108,874	-7,587	243,120	117,045
109,889	-7,821	242,888	116,729
110,903	-7,880	242,761	116,609
111,918	-7,837	242,676	116,593
112,933	-7,681	242,425	116,591
113,947	-7,698	242,227	116,472
114,962	-7,448	242,149	116,630
115,976	-7,828	241,932	116,202
116,991	-7,725	241,812	116,219
118,006	-7,811	241,562	116,018
119,020	-7,538	241,430	116,168
120,035	-7,533	241,292	116,096
121,049	-7,605	241,105	115,936
122,064	-7,468	241,018	115,996
123,079	-7,419	240,755	115,900
124,093	-7,544	240,480	115,654
125,108	-7,828	240,352	115,350
126,122	-7,967	239,980	115,048
127,137	-8,241	239,901	114,776
128,151	-7,903	239,605	114,899
129,166	-7,891	239,492	114,845
130,181	-7,940	239,415	114,758
131,195	-8,070	239,173	114,526
132,210	-7,851	239,103	114,660
133,224	-7,629	238,942	114,754
134,239	-7,722	238,843	114,620
135,254	-7,671	238,718	114,591
136,268	-7,763	238,214	114,264
137,283	-8,019	238,226	114,053
138,297	-8,193	237,891	113,742
139,312	-7,972	237,638	113,789
140,327	-7,629	237,552	114,014
141,341	-7,325	237,649	114,296
142,356	-7,164	237,531	114,359
143,370	-7,248	237,387	114,212
144,385	-7,446	237,156	113,931
145,400	-7,226	236,932	113,991
146,414	-7,102	236,833	114,033
147,429	-7,282	236,633	113,782
148,443	-7,345	236,428	113,622
149,458	-7,346	236,310	113,555
150,473	-7,276	236,164	113,531
151,487	-7,218	235,887	113,434
152,502	-7,147	235,783	113,430
153,516	-7,413	235,599	113,119
154,531	-7,150	235,523	113,282
155,546	-7,290	235,254	113,031
156,560	-7,379	235,139	112,895
157,575	-7,619	234,905	112,582
158,589	-7,526	234,795	112,592
159,604	-7,154	234,541	112,757
160,619	-7,126	234,393	112,698
161,633	-7,253	234,349	112,566
162,648	-7,030	234,116	112,621
163,662	-7,331	233,968	112,301
164,677	-7,322	233,848	112,241
165,692	-7,216	233,640	112,215
166,706	-7,089	233,599	112,285
167,721	-7,144	233,436	112,153
168,735	-7,033	233,354	112,192
169,750	-7,169	233,117	111,960
170,764	-7,299	232,938	111,762
171,779	-7,163	232,719	111,753
172,794	-7,359	232,745	111,602
173,808	-7,272	232,316	111,454
174,823	-7,907	232,048	110,817
175,837	-8,053	231,966	110,653
176,852	-7,441	232,076	111,177
177,867	-7,242	231,965	111,270
178,881	-7,050	231,586	111,229
179,896	-6,926	231,562	111,305
180,910	-7,069	231,342	111,077
181,925	-7,110	231,306	111,018
182,940	-7,110	230,988	110,856
183,954	-7,072	231,020	110,890
184,969	-7,117	230,832	110,755
185,983	-6,914	230,704	110,843
186,998	-7,020	230,406	110,606
188,013	-6,798	230,186	110,664
189,027	-6,902	230,053	110,509
190,042	-6,825	229,905	110,488
191,056	-6,925	229,855	110,377
192,071	-6,799	229,765	110,422
193,086	-6,895	229,551	110,234
194,100	-6,699	229,504	110,354
195,115	-6,600	229,296	110,321
196,129	-6,802	229,157	110,087
197,144	-2,963	230,405	113,664
198,159	1,817	231,773	118,060
199,173	3,448	232,042	119,459
200,188	3,671	232,005	119,604
201,202	3,946	231,932	119,769
202,217	3,966	231,953	119,785
203,232	4,188	231,675	119,803
204,246	4,223	231,494	119,726
205,261	4,338	231,413	119,762
206,275	4,322	231,422	119,744
207,290	4,448	231,172	119,702
208,304	4,441	231,057	119,626
209,319	4,456	230,819	119,504
210,334	4,448	230,698	119,424
211,348	4,043	230,506	119,001
212,363	3,744	230,200	118,602
213,377	3,689	230,073	118,483
214,392	3,689	229,907	118,388
215,407	3,868	229,670	118,393
216,421	3,839	229,545	118,295
217,436	3,677	229,444	118,108
218,450	3,539	229,142	117,836
219,465	3,335	228,855	117,521
220,480	3,347	228,963	117,576
221,494	3,403	228,825	117,537
222,509	3,581	228,686	117,592
223,523	3,690	228,561	117,600
224,538	3,546	228,350	117,371
225,553	3,534	228,214	117,282
226,567	3,672	228,036	117,285
227,582	3,958	227,961	117,455
228,596	4,119	227,827	117,498
229,611	3,717	227,629	117,079
230,626	3,374	227,417	116,698
231,640	3,372	227,257	116,604
232,655	3,778	227,256	116,902
233,669	4,009	227,157	117,016
234,684	4,262	227,086	117,162
235,699	3,900	226,804	116,731
236,713	3,802	226,661	116,573
237,728	3,665	226,404	116,326
238,742	3,436	226,332	116,106
239,757	3,376	226,141	115,952
240,772	3,561	225,900	115,958
241,786	3,623	225,799	115,942
242,801	3,813	225,707	116,029
243,815	4,111	225,681	116,229
244,830	3,799	225,576	115,929
245,844	3,551	225,301	115,591
246,859	3,687	225,087	115,574
247,874	3,816	224,909	115,569
248,888	3,939	224,837	115,614
249,903	3,867	224,677	115,467
250,917	3,822	224,408	115,285
251,932	3,438	224,358	114,961
252,947	3,483	224,091	114,848
253,961	3,445	224,056	114,791
254,976	3,568	223,935	114,811
255,990	3,806	223,882	114,951
257,005	3,925	223,619	114,895
258,020	3,609	223,587	114,632
259,034	4,181	223,476	114,992
260,049	3,744	223,375	114,604
261,063	3,783	223,119	114,492
262,078	4,037	222,969	114,594
263,093	4,015	222,880	114,521
264,107	3,737	222,788	114,257
265,122	3,788	222,611	114,194
266,136	4,119	222,452	114,347
267,151	4,310	222,371	114,438
268,166	3,847	222,072	113,930
269,180	3,450	221,849	113,511
270,195	3,695	221,669	113,590
271,209	3,471	221,621	113,390
272,224	3,668	221,495	113,462
273,239	3,633	221,347	113,350
274,253	3,509	221,204	113,175
275,268	3,436	220,973	112,992
276,282	3,289	220,763	112,767
277,297	3,502	220,573	112,817
278,312	3,540	220,597	112,847
279,326	3,506	220,569	112,798
280,341	3,426	220,447	112,666
281,355	3,595	220,309	112,710
282,370	3,812	219,984	112,692
283,384	3,592	219,733	112,393
284,399	3,011	219,752	111,967
285,414	3,456	219,588	112,199
286,428	3,704	219,519	112,335
287,443	3,582	219,492	112,222
288,457	3,765	219,249	112,222
289,472	3,434	219,094	111,891
290,487	3,342	218,792	111,659
291,501	3,247	218,589	111,476
292,516	3,406	218,418	111,495
293,530	3,454	218,295	111,458
294,545	3,171	218,366	111,278
295,560	3,481	218,128	111,372
296,574	3,573	218,047	111,387
297,589	3,615	217,899	111,333
298,603	3,560	217,842	111,254
299,618	3,495	217,730	111,139
300,633	3,652	217,622	111,188
301,647	3,890	217,564	111,320
302,662	4,058	217,335	111,315
303,676	3,809	217,153	111,032
304,691	3,787	217,147	111,003
305,706	3,814	217,001	110,938
306,720	3,975	216,745	110,913
307,735	3,725	216,522	110,609
308,749	3,326	216,459	110,280
309,764	3,561	216,427	110,423
310,779	4,041	216,228	110,657
311,793	3,821	216,032	110,389
312,808	3,851	215,907	110,336
313,822	3,623	215,854	110,136
314,837	3,647	215,533	109,979
315,852	3,463	215,427	109,784
316,866	3,274	215,557	109,705
317,881	3,859	215,380	110,024
318,895	3,987	215,083	109,954
319,910	3,763	214,891	109,685
320,925	3,493	214,682	109,377
321,939	3,301	214,639	109,208
322,954	3,300	214,300	109,025
323,968	3,678	214,382	109,326
324,983	3,822	214,363	109,409
325,997	3,710	214,307	109,292
327,012	3,771	214,064	109,201
328,027	3,816	213,907	109,143
329,041	3,955	213,972	109,265
330,056	4,216	213,725	109,315
331,070	4,067	213,375	109,020
332,085	3,661	213,253	108,661
333,100	3,500	213,206	108,513
334,114	3,708	213,057	108,575
335,129	3,606	212,929	108,428
336,143	3,541	212,632	108,221
337,158	3,424	212,679	108,153
338,173	3,649	212,464	108,192
339,187	3,263	212,360	107,858
340,202	3,332	212,209	107,820
341,216	3,370	212,002	107,732
342,231	3,397	211,874	107,677
343,246	3,368	211,696	107,556
344,260	3,467	211,618	107,576
345,275	3,624	211,516	107,625
346,289	3,823	211,269	107,629
347,304	3,839	211,271	107,632
348,319	3,801	211,145	107,531
349,333	3,638	210,991	107,330
350,348	3,741	210,878	107,335
351,362	3,995	210,787	107,456
352,377	3,943	210,544	107,286
353,392	3,727	210,488	107,097
354,406	3,806	210,292	107,043
355,421	196,089	1341,245	1428,797
356,435	156,623	1479,077	1428,851
