DTS Sentinel unit serial number:	SN410029Multiplexer serial number:	ORYXHardware model number:	OX2-SRSoftware version number:	ORYX F/W v4,00 Oryx Data Collector v3.7.2.0data status	okinstallation	B6 Nyhavnadifferential loss correction	single-endedforward channel	channel 2reverse channel	N/Adate	2023/12/08time	02:50:08forward acquisition time	300,00reverse acquisition time	0,00gamma	499,1914k internal	0,3165k external	0,3165temperature offset calibration	1,0000default loss term (dB/km)	0,3820temperature slope calibration	1,0000multiplexer offset coefficient	1,0000multiplexer slope coefficient	1,0000fibre end	0,00T internal ref (°C)	13,15T ext. ref 1 (°C)	-3,68T ext. ref 2 (°C)	-3,69length (m)	temperature (°C)	Stokes	anti-Stokes-744,400	800,000	0,031	0,100
-743,385	-47,999	-0,408	-0,144
-742,371	34,615	0,198	0,127
-741,356	12,550	-0,184	0,104
-740,342	-14,238	0,067	-0,032
-739,327	-92,844	-0,307	-0,063
-738,312	178,652	0,039	0,042
-737,298	-19,361	-0,287	-0,130
-736,283	-115,048	0,158	-0,022
-735,269	-118,665	-0,251	-0,032
-734,254	604,086	0,101	0,186
-733,239	-31,878	-0,503	-0,206
-732,225	-56,827	0,039	-0,013
-731,210	757,876	-0,071	0,143
-730,196	-191,342	-0,184	-0,001
-729,181	465,204	-0,015	-0,025
-728,167	800,000	-0,048	0,124
-727,152	-123,596	0,051	0,006
-726,137	134,853	0,023	0,022
-725,123	345,111	-0,107	-0,155
-724,108	147,151	-0,108	-0,106
-723,094	800,000	0,098	-0,222
-722,079	-22,187	-0,062	0,028
-721,064	48,004	-0,160	0,110
-720,050	116,407	-0,085	-0,077
-719,035	-93,749	0,061	0,012
-718,021	108,431	-0,085	0,075
-717,006	-69,491	-0,040	0,011
-715,991	327,727	0,019	-0,027
-714,977	206,669	-0,077	0,089
-713,962	275,874	-0,053	-0,069
-712,948	-200,000	-0,009	-0,057
-711,933	-15,918	-0,066	-0,031
-710,918	-200,000	-0,002	0,073
-709,904	-141,040	-0,056	-0,004
-708,889	-120,271	-0,015	-0,002
-707,875	458,177	-0,032	-0,052
-706,860	-200,000	0,010	-0,072
-705,845	64,102	-0,109	0,080
-704,831	348,293	0,076	-0,111
-703,816	800,000	0,047	0,099
-702,802	-30,279	-0,129	-0,054
-701,787	-200,000	-0,021	-0,138
-700,772	492,263	-0,028	0,047
-699,758	-200,000	-0,023	0,102
-698,743	800,000	0,056	0,141
-697,729	-39,240	0,132	-0,051
-696,714	102,145	0,047	0,040
-695,699	10,936	-0,029	0,016
-694,685	-95,303	-0,076	0,015
-693,670	219,685	-0,027	0,031
-692,656	-126,163	-0,060	-0,007
-691,641	-174,973	-0,040	-0,001
-690,627	31,982	0,057	0,036
-689,612	-157,585	-0,146	-0,006
-688,597	54,137	-0,046	0,032
-687,583	45,368	0,059	-0,040
-686,568	349,618	-0,075	-0,109
-685,554	-200,000	0,011	-0,087
-684,539	-24,091	0,120	-0,053
-683,524	50,972	-0,057	0,040
-682,510	-97,563	0,054	-0,010
-681,495	540,016	-0,055	-0,097
-680,481	8,539	-0,048	0,026
-679,466	89,076	-0,078	0,064
-678,451	-135,584	-0,065	-0,006
-677,437	-20,392	0,107	0,048
-676,422	-109,336	0,214	0,033
-675,408	105,655	-0,089	0,077
-674,393	-11,584	-0,012	-0,006
-673,378	-99,878	-0,130	-0,024
-672,364	-7,175	0,151	0,075
-671,349	48,645	-0,056	-0,038
-670,335	100,345	0,044	0,037
-669,320	-42,680	-0,084	0,031
-668,305	-17,512	-0,140	-0,064
-667,291	800,000	0,011	0,023
-666,276	-200,000	-0,007	-0,105
-665,262	551,956	-0,020	-0,035
-664,247	638,774	0,006	-0,012
-663,232	800,000	-0,008	0,019
-662,218	800,000	-0,024	0,060
-661,203	800,000	0,016	0,042
-660,189	800,000	-0,046	0,098
-659,174	-200,000	-0,002	-0,065
-658,159	800,000	-0,016	-0,035
-657,145	-109,919	-0,067	-0,010
-656,130	-200,000	0,024	0,177
-655,116	-22,783	0,048	-0,021
-654,101	19,077	-0,085	-0,050
-653,086	34,092	-0,037	-0,024
-652,072	-200,000	-0,007	-0,083
-651,057	303,573	-0,054	0,074
-650,043	33,014	-0,032	-0,020
-649,028	800,000	-0,023	-0,053
-648,014	-125,682	-0,195	0,021
-646,999	-162,788	0,045	0,002
-645,984	51,439	-0,062	0,043
-644,970	193,374	0,031	-0,034
-643,955	-200,000	-0,005	-0,024
-642,941	190,948	-0,015	-0,017
-641,926	169,486	0,086	0,090
-640,911	234,197	-0,059	-0,072
-639,897	168,339	-0,066	-0,069
-638,882	-120,744	-0,097	-0,012
-637,868	800,000	-0,044	-0,092
-636,853	800,000	0,054	-0,148
-635,838	-200,000	-0,025	-0,117
-634,824	-24,320	-0,084	0,037
-633,809	-5,074	0,028	0,014
-632,795	800,000	-0,013	0,039
-631,780	300,706	-0,041	-0,056
-630,765	46,888	-0,107	-0,073
-629,751	442,167	-0,047	-0,076
-628,736	101,118	-0,088	-0,075
-627,722	727,646	0,025	0,050
-626,707	-136,984	-0,242	-0,020
-625,692	279,976	0,084	-0,111
-624,678	0,257	-0,147	0,077
-623,663	-106,835	-0,092	-0,015
-622,649	104,647	0,031	0,027
-621,634	165,174	-0,127	-0,131
-620,619	-148,192	-0,036	0,002
-619,605	234,814	-0,020	-0,024
-618,590	-57,020	-0,083	-0,027
-617,576	-200,000	-0,009	-0,177
-616,561	-200,000	0,033	-0,134
-615,546	-68,588	-0,167	-0,047
-614,532	363,985	0,021	-0,030
-613,517	800,000	-0,009	-0,019
-612,503	800,000	-0,050	-0,101
-611,488	-30,620	0,014	-0,006
-610,474	143,290	0,079	0,077
-609,459	800,000	0,013	-0,029
-608,444	-86,429	-0,064	-0,014
-607,430	144,984	-0,089	0,087
-606,415	-200,000	0,025	-0,098
-605,401	55,478	-0,103	-0,073
-604,386	110,625	0,117	0,103
-603,371	800,000	-0,035	0,081
-602,357	28,333	-0,111	-0,068
-601,342	-200,000	0,021	0,097
-600,328	-14,890	-0,211	-0,098
-599,313	550,398	0,035	-0,062
-598,298	800,000	-0,038	-0,077
-597,284	-200,000	0,003	-0,075
-596,269	-48,945	-0,163	-0,057
-595,255	-26,047	0,103	-0,044
-594,240	66,455	-0,042	0,031
-593,225	148,116	-0,078	0,077
-592,211	229,193	0,027	-0,032
-591,196	-87,586	0,077	0,017
-590,182	-200,000	0,010	-0,113
-589,167	0,737	-0,055	0,029
-588,152	-200,000	0,015	-0,057
-587,138	45,334	-0,059	-0,040
-586,123	-59,555	-0,100	0,031
-585,109	-133,411	-0,097	-0,009
-584,094	115,874	0,039	0,035
-583,079	-154,581	0,084	0,004
-582,065	-11,414	0,005	0,003
-581,050	-200,000	0,007	0,065
-580,036	-200,000	-0,030	-0,140
-579,021	-200,000	0,024	-0,114
-578,006	800,000	-0,068	-0,208
-576,992	49,400	-0,036	-0,025
-575,977	-200,000	-0,011	0,138
-574,963	-47,532	0,056	0,020
-573,948	-200,000	-0,003	-0,052
-572,934	-200,000	0,004	-0,044
-571,919	-33,596	0,119	-0,048
-570,904	-154,222	0,016	0,001
-569,890	-200,000	0,008	0,038
-568,875	154,251	-0,071	-0,072
-567,861	800,000	-0,064	-0,149
-566,846	-106,136	0,124	-0,020
-565,831	91,279	0,047	-0,038
-564,817	-200,000	-0,007	-0,075
-563,802	-65,603	-0,081	-0,024
-562,788	-200,000	0,026	-0,120
-561,773	208,785	-0,077	-0,088
-560,758	682,832	0,018	-0,034
-559,744	658,950	-0,023	0,043
-558,729	26,813	0,152	0,093
-557,715	-200,000	-0,055	0,000
-556,700	-147,828	-0,033	0,002
-555,685	-182,339	0,070	0,001
-554,671	800,000	0,030	0,076
-553,656	-127,415	0,075	0,008
-552,642	385,410	-0,049	-0,074
-551,627	685,479	-0,029	0,056
-550,612	71,265	0,106	0,080
-549,598	-200,000	0,014	-0,047
-548,583	-48,172	0,018	0,006
-547,569	-200,000	0,002	0,139
-546,554	-4,528	-0,067	0,034
-545,539	-81,329	-0,010	-0,002
-544,525	-200,000	-0,018	-0,081
-543,510	-121,364	-0,114	-0,014
-542,496	-200,000	-0,002	-0,039
-541,481	209,638	-0,107	0,122
-540,466	315,413	-0,063	-0,088
-539,452	296,449	0,039	0,053
-538,437	63,182	-0,059	0,043
-537,423	-110,160	0,095	0,014
-536,408	800,000	-0,039	-0,085
-535,393	-13,362	-0,177	-0,083
-534,379	800,000	0,057	-0,135
-533,364	-29,723	-0,128	-0,053
-532,350	800,000	0,033	0,071
-531,335	13,269	0,040	0,022
-530,321	422,226	0,038	-0,059
-529,306	738,212	0,042	-0,083
-528,291	-200,000	-0,026	-0,117
-527,277	234,958	-0,089	-0,107
-526,262	-11,164	-0,093	-0,045
-525,248	269,450	-0,014	0,018
-524,233	800,000	-0,023	0,052
-523,218	503,344	0,077	0,130
-522,204	-163,910	-0,128	-0,004
-521,189	-89,717	0,069	0,015
-520,175	8,883	-0,068	0,037
-519,160	725,485	0,035	-0,068
-518,145	125,978	0,063	-0,058
-517,131	800,000	-0,019	0,053
-516,116	65,433	0,037	-0,027
-515,102	560,187	-0,043	-0,077
-514,087	17,279	0,045	-0,026
-513,072	800,000	-0,022	-0,049
-512,058	800,000	0,012	-0,039
-511,043	-200,000	0,016	0,078
-510,029	-117,940	0,067	0,009
-509,014	540,341	-0,016	0,028
-507,999	10,824	-0,046	-0,026
-506,985	63,139	0,062	-0,045
-505,970	800,000	-0,071	-0,178
-504,956	574,830	-0,042	0,076
-503,941	-49,295	0,220	-0,076
-502,926	126,668	-0,031	-0,029
-501,912	800,000	-0,006	0,018
-500,897	-41,732	-0,043	0,016
-499,883	-200,000	-0,002	-0,161
-498,868	261,732	0,064	-0,081
-497,853	35,668	-0,114	0,073
-496,839	-200,000	0,010	-0,053
-495,824	-200,000	0,012	0,042
-494,810	-72,277	0,117	-0,031
-493,795	800,000	-0,010	-0,027
-492,781	161,072	0,064	-0,065
-491,766	-152,815	-0,086	-0,004
-490,751	-110,172	-0,084	-0,013
-489,737	177,958	-0,113	-0,120
-488,722	-64,006	0,091	-0,027
-487,708	75,309	0,051	0,039
-486,693	-200,000	-0,012	-0,048
-485,678	72,736	0,089	0,068
-484,664	147,003	-0,108	0,106
-483,649	-200,000	0,004	-0,037
-482,635	113,451	-0,036	0,032
-481,620	-200,000	-0,023	-0,143
-480,605	-38,547	0,258	0,099
-479,591	423,294	-0,085	-0,133
-478,576	79,653	-0,028	-0,022
-477,562	770,355	-0,023	0,047
-476,547	405,164	-0,073	-0,112
-475,532	-163,442	-0,074	0,003
-474,518	-200,000	-0,003	0,010
-473,503	28,920	0,161	0,099
-472,489	80,113	-0,094	0,074
-471,474	214,627	-0,047	0,054
-470,459	-31,739	-0,144	0,059
-469,445	-200,000	-0,003	0,053
-468,430	-200,000	0,004	-0,080
-467,416	10,417	0,054	-0,030
-466,401	705,999	-0,017	0,032
-465,386	9,545	-0,112	0,062
-464,372	158,096	-0,100	0,101
-463,357	-113,273	-0,140	0,020
-462,343	193,048	0,111	-0,123
-461,328	-200,000	-0,025	-0,158
-460,313	-132,991	0,185	0,017
-459,299	-158,408	-0,043	0,002
-458,284	-26,386	0,116	-0,049
-457,270	-67,406	-0,020	-0,006
-456,255	-161,091	0,034	0,001
-455,241	-69,542	0,043	0,012
-454,226	800,000	0,031	-0,079
-453,211	-200,000	-0,014	0,066
-452,197	171,180	0,037	-0,039
-451,182	263,117	0,079	-0,100
-450,168	-149,363	-0,154	-0,009
-449,153	-200,000	0,033	0,120
-448,138	-84,967	0,057	-0,013
-447,124	353,995	-0,038	0,054
-446,109	146,821	0,047	0,046
-445,095	604,615	0,020	0,036
-444,080	-155,323	0,209	0,010
-443,065	-200,000	0,013	-0,080
-442,051	222,426	0,088	-0,103
-441,036	800,000	-0,021	0,046
-440,022	99,710	-0,059	-0,050
-439,007	-55,208	-0,036	0,012
-437,992	184,632	0,107	-0,116
-436,978	-200,000	-0,007	0,077
-435,963	73,043	0,078	0,059
-434,949	-132,283	0,028	0,003
-433,934	800,000	-0,033	0,068
-432,919	-97,783	-0,059	0,011
-431,905	-4,907	-0,026	0,013
-430,890	-135,480	0,110	-0,009
-429,876	282,689	-0,045	-0,058
-428,861	-198,671	0,073	-0,000
-427,846	-200,000	-0,006	0,128
-426,832	-200,000	-0,015	-0,182
-425,817	-200,000	0,000	0,101
-424,803	74,944	-0,095	0,072
-423,788	-200,000	0,013	0,042
-422,773	717,540	0,030	-0,058
-421,759	565,870	0,086	0,151
-420,744	800,000	0,007	-0,019
-419,730	32,086	0,118	-0,074
-418,715	-178,633	-0,069	0,001
-417,701	-47,262	-0,129	-0,046
-416,686	-14,957	0,077	0,036
-415,671	42,569	0,035	0,023
-414,657	-200,000	-0,013	0,058
-413,642	519,965	0,044	0,075
-412,628	-0,801	0,058	-0,030
-411,613	-200,000	0,017	0,227
-410,598	15,528	-0,079	-0,045
-409,584	-107,184	0,131	0,021
-408,569	734,905	0,011	0,021
-407,555	454,772	0,097	0,157
-406,540	-200,000	-0,012	0,059
-405,525	309,179	0,031	-0,042
-404,511	-200,000	0,004	0,107
-403,496	-200,000	-0,001	-0,080
-402,482	263,470	-0,038	-0,048
-401,467	-56,541	0,102	-0,033
-400,452	-200,000	-0,003	-0,084
-399,438	153,173	-0,053	0,052
-398,423	119,367	-0,084	0,076
-397,409	171,802	-0,030	0,031
-396,394	-64,841	-0,055	0,016
-395,379	634,562	-0,039	-0,073
-394,365	800,000	0,041	0,128
-393,350	234,335	-0,100	0,120
-392,336	247,090	-0,035	0,042
-391,321	19,763	-0,086	0,050
-390,306	-57,419	0,066	0,021
-389,292	-4,656	0,142	-0,071
-388,277	-200,000	-0,045	0,153
-387,263	180,843	0,132	0,141
-386,248	-181,667	0,058	0,001
-385,233	104,897	0,074	0,063
-384,219	-108,404	-0,023	0,004
-383,204	800,000	0,027	0,058
-382,190	51,077	0,081	0,055
-381,175	659,701	-0,016	0,031
-380,160	-46,047	0,068	0,024
-379,146	450,353	-0,083	0,133
-378,131	-34,482	0,092	-0,037
-377,117	-146,805	-0,087	0,005
-376,102	270,359	0,058	-0,075
-375,088	163,114	0,056	-0,057
-374,073	608,965	0,054	0,098
-373,058	800,000	0,039	-0,088
-372,044	-200,000	0,005	0,033
-371,029	414,919	-0,043	0,066
-370,015	159,712	0,094	0,095
-369,000	800,000	-0,022	-0,051
-367,985	-96,100	0,044	0,008
-366,971	274,563	0,045	-0,057
-365,956	-200,000	-0,011	0,179
-364,942	800,000	-0,042	0,101
-363,927	-200,000	0,003	-0,017
-362,912	-200,000	-0,017	0,125
-361,898	-200,000	-0,011	-0,131
-360,883	197,924	-0,036	-0,040
-359,869	541,767	-0,027	0,048
-358,854	93,250	0,012	0,010
-357,839	-200,000	0,005	0,033
-356,825	-109,909	0,046	0,007
-355,810	-89,829	-0,165	0,035
-354,796	800,000	-0,020	-0,041
-353,781	-56,399	0,144	0,046
-352,766	-200,000	0,012	-0,039
-351,752	-200,000	-0,028	0,121
-350,737	-70,958	0,104	0,028
-349,723	18,106	0,109	0,063
-348,708	-25,105	0,071	-0,030
-347,693	45,846	0,104	-0,070
-346,679	110,708	-0,042	0,037
-345,664	800,000	0,060	-0,132
-344,650	-125,761	-0,021	0,002
-343,635	291,637	-0,024	0,031
-342,620	-105,235	0,067	0,011
-341,606	-200,000	0,027	-0,139
-340,591	-200,000	0,019	0,087
-339,577	-25,033	-0,137	0,059
-338,562	19,165	-0,150	-0,087
-337,548	-200,000	-0,014	0,127
-336,533	-200,000	-0,009	-0,058
-335,518	-109,982	0,093	0,014
-334,504	800,000	-0,063	0,160
-333,489	800,000	-0,046	0,106
-332,475	800,000	-0,043	-0,134
-331,460	-200,000	-0,037	-0,180
-330,445	-200,000	0,005	-0,192
-329,431	59,984	0,115	0,082
-328,416	-200,000	-0,024	0,111
-327,402	332,677	0,077	0,108
-326,387	-34,235	-0,059	0,023
-325,372	-93,500	0,060	-0,012
-324,358	-200,000	0,016	0,081
-323,343	463,174	-0,031	0,050
-322,329	-100,288	0,209	-0,037
-321,314	-67,051	0,155	-0,044
-320,299	748,828	0,019	0,037
-319,285	-200,000	0,010	-0,050
-318,270	-124,722	-0,125	-0,014
-317,256	-46,785	-0,110	-0,039
-316,241	2,781	0,084	0,044
-315,226	-200,000	0,018	0,082
-314,212	437,748	0,089	0,141
-313,197	-111,715	0,051	-0,007
-312,183	800,000	0,030	0,073
-311,168	800,000	-0,044	-0,094
-310,153	-34,868	-0,042	-0,016
-309,139	149,934	-0,059	0,058
-308,124	-128,312	0,157	0,016
-307,110	679,591	0,043	-0,081
-306,095	-200,000	0,026	-0,110
-305,080	-130,366	-0,061	0,006
-304,066	-200,000	0,075	-0,000
-303,051	577,420	-0,093	0,165
-302,037	-200,000	0,035	0,131
-301,022	45,436	0,074	-0,049
-300,008	-200,000	-0,012	0,056
-298,993	-116,072	0,105	0,014
-297,978	-1,397	-0,070	-0,036
-296,964	-95,225	0,070	0,014
-295,949	-200,000	-0,025	0,091
-294,935	-200,000	0,001	0,045
-293,920	800,000	-0,051	-0,139
-292,905	-200,000	-0,012	-0,078
-291,891	-13,414	-0,089	0,042
-290,876	-109,398	0,098	0,015
-289,862	354,740	-0,009	0,013
-288,847	-200,000	-0,031	-0,121
-287,832	-200,000	-0,021	-0,099
-286,818	282,663	0,065	-0,084
-285,803	369,032	-0,068	-0,100
-284,789	-21,529	-0,097	0,042
-283,774	105,126	0,050	-0,042
-282,759	-82,442	-0,061	-0,014
-281,745	-200,000	-0,001	-0,011
-280,730	109,470	-0,035	-0,030
-279,716	800,000	0,007	-0,017
-278,701	-25,598	0,069	-0,029
-277,686	-200,000	-0,005	0,065
-276,672	-200,000	0,029	0,120
-275,657	800,000	0,047	0,116
-274,643	187,867	0,025	-0,027
-273,628	800,000	0,061	0,134
-272,613	-158,069	0,162	0,007
-271,599	-200,000	0,013	-0,068
-270,584	-200,000	-0,019	0,069
-269,570	-21,459	0,219	0,096
-268,555	148,083	-0,056	0,055
-267,540	-200,000	0,018	-0,082
-266,526	-200,000	-0,003	-0,080
-265,511	-62,979	-0,114	-0,034
-264,497	-29,252	-0,084	0,035
-263,482	62,013	0,075	0,054
-262,467	800,000	-0,033	-0,078
-261,453	800,000	0,004	-0,010
-260,438	-200,000	0,020	0,080
-259,424	-0,095	-0,171	0,088
-258,409	206,899	0,043	-0,048
-257,395	520,208	-0,030	0,050
-256,380	-55,720	-0,099	0,032
-255,365	-109,466	-0,058	0,009
-254,351	481,485	-0,064	0,105
-253,336	-200,000	0,067	0,000
-252,322	-169,108	0,114	-0,003
-251,307	-51,620	-0,058	0,019
-250,292	-200,000	-0,006	0,073
-249,278	-200,000	-0,001	0,032
-248,263	260,461	0,022	0,027
-247,249	-200,000	-0,020	0,085
-246,234	-200,000	0,030	-0,097
-245,219	238,339	0,029	0,035
-244,205	-15,622	-0,063	0,029
-243,190	-200,000	-0,014	-0,133
-242,176	-200,000	0,009	-0,086
-241,161	375,562	0,022	-0,033
-240,146	-200,000	0,022	0,173
-239,132	800,000	0,069	-0,158
-238,117	-200,000	-0,039	-0,146
-237,103	-200,000	0,041	-0,132
-236,088	633,280	-0,009	-0,016
-235,073	-200,000	0,013	0,083
-234,059	-90,130	0,071	-0,015
-233,044	-168,680	-0,147	-0,004
-232,030	800,000	-0,034	0,107
-231,015	179,517	0,063	-0,067
-230,000	23,022	0,096	-0,057
-228,986	-145,309	-0,047	0,003
-227,971	-200,000	0,039	0,130
-226,957	-200,000	0,005	0,080
-225,942	-159,309	-0,167	0,007
-224,927	-200,000	0,013	-0,059
-223,913	532,300	-0,031	-0,053
-222,898	109,937	-0,054	0,046
-221,884	-98,745	-0,072	-0,013
-220,869	17,047	0,016	0,009
-219,855	800,000	0,085	0,187
-218,840	-200,000	0,006	-0,112
-217,825	-174,171	0,065	0,001
-216,811	-200,000	0,007	0,030
-215,796	-181,362	-0,036	-0,001
-214,782	-200,000	0,019	0,066
-213,767	165,286	0,131	0,133
-212,752	-9,236	0,031	-0,015
-211,738	800,000	0,025	0,056
-210,723	166,924	-0,050	-0,051
-209,709	-81,764	-0,089	-0,021
-208,694	-99,450	-0,039	0,007
-207,679	800,000	0,021	0,050
-206,665	-27,331	0,137	-0,057
-205,650	-78,696	-0,120	0,029
-204,636	-200,000	0,019	0,104
-203,621	-51,257	0,083	-0,028
-202,606	-140,682	-0,035	0,003
-201,592	330,751	0,026	0,036
-200,577	-200,000	-0,005	-0,121
-199,563	800,000	0,012	-0,029
-198,548	-200,000	-0,001	0,016
-197,533	238,520	0,051	-0,061
-196,519	108,058	0,122	0,105
-195,504	-16,912	-0,033	0,015
-194,490	15,867	-0,104	-0,059
-193,475	-139,069	0,065	0,005
-192,460	133,049	-0,056	-0,052
-191,446	-200,000	-0,030	0,122
-190,431	3,924	0,130	0,068
-189,417	212,712	-0,046	-0,052
-188,402	-200,000	0,009	0,034
-187,387	743,574	0,046	0,090
-186,373	765,362	0,046	0,091
-185,358	-36,095	0,132	0,051
-184,344	-200,000	0,018	0,186
-183,329	-200,000	0,007	0,057
-182,315	-66,324	0,094	0,027
-181,300	-200,000	-0,031	0,105
-180,285	-200,000	-0,002	-0,068
-179,271	800,000	-0,019	0,038
-178,256	-200,000	0,006	0,061
-177,242	588,869	0,025	-0,045
-176,227	800,000	-0,021	-0,055
-175,212	276,520	0,078	0,099
-174,198	-84,372	0,038	-0,008
-173,183	176,307	0,084	0,088
-172,169	-200,000	-0,027	-0,101
-171,154	305,032	-0,129	-0,173
-170,139	-139,942	0,083	-0,006
-169,125	-200,000	0,012	0,082
-168,110	800,000	-0,026	-0,073
-167,096	-86,559	0,110	0,024
-166,081	135,374	-0,032	0,030
-165,066	49,873	-0,076	-0,051
-164,052	95,654	-0,028	-0,023
-163,037	457,467	-0,020	-0,032
-162,023	325,365	0,106	0,146
-161,008	209,286	-0,064	-0,072
-159,993	759,768	0,067	0,131
-158,979	25,490	0,050	0,030
-157,964	-200,000	0,014	0,060
-156,950	-52,834	0,094	-0,031
-155,935	-79,234	-0,101	-0,024
-154,920	-200,000	-0,023	0,114
-153,906	-100,435	-0,035	-0,006
-152,891	-26,626	-0,159	-0,066
-151,877	92,787	-0,021	-0,017
-150,862	-152,412	0,091	-0,005
-149,847	-200,000	0,005	0,036
-148,833	192,024	0,061	-0,066
-147,818	-25,958	0,026	0,011
-146,804	96,454	-0,014	-0,011
-145,789	-200,000	-0,007	0,038
-144,775	499,819	-0,027	0,045
-143,760	-200,000	0,018	-0,103
-142,745	-14,989	-0,111	0,051
-141,731	444,846	0,035	0,056
-140,716	553,537	-0,028	0,048
-139,702	-200,000	0,004	0,129
-138,687	38,464	-0,106	0,068
-137,672	800,000	0,010	0,023
-136,658	152,971	-0,014	0,014
-135,643	-200,000	-0,032	0,121
-134,629	-138,360	-0,075	0,006
-133,614	-200,000	0,021	-0,074
-132,599	63,702	0,068	-0,049
-131,585	800,000	0,024	0,060
-130,570	-49,728	0,056	0,019
-129,556	70,992	0,046	-0,034
-128,541	76,576	-0,075	-0,057
-127,526	-25,654	0,003	0,001
-126,512	-191,437	-0,128	0,001
-125,497	50,561	-0,060	0,041
-124,483	-200,000	-0,016	-0,118
-123,468	275,842	-0,033	-0,042
-122,453	-200,000	0,003	-0,025
-121,439	-134,675	-0,056	0,005
-120,424	-14,495	-0,073	0,034
-119,410	800,000	-0,028	-0,084
-118,395	-200,000	0,002	0,080
-117,380	-11,188	0,112	-0,053
-116,366	221,852	-0,021	0,025
-115,351	-138,043	-0,069	0,005
-114,337	-68,381	-0,042	-0,012
-113,322	800,000	-0,049	0,107
-112,307	309,598	0,021	-0,028
-111,293	-135,542	-0,038	0,003
-110,278	-101,518	0,129	-0,022
-109,264	800,000	-0,044	0,089
-108,249	800,000	0,046	-0,121
-107,234	-104,227	-0,089	-0,015
-106,220	-200,000	-0,029	-0,142
-105,205	120,107	0,077	0,069
-104,191	110,062	0,099	-0,085
-103,176	119,261	-0,052	-0,046
-102,162	-95,445	0,194	-0,037
-101,147	13,776	-0,050	0,028
-100,132	-200,000	0,020	0,091
-99,118	-200,000	0,004	-0,239
-98,103	-143,272	0,091	0,006
-97,089	-200,000	-0,002	0,107
-96,074	198,467	0,060	-0,066
-95,059	-200,000	-0,009	0,097
-94,045	-200,000	0,050	-0,172
-93,030	-87,154	-0,115	-0,025
-92,016	18,380	0,052	-0,030
-91,001	-200,000	0,031	-0,133
-89,986	800,000	0,032	-0,091
-88,972	32,394	0,100	0,062
-87,957	-6,137	-0,092	-0,045
-86,943	30,561	0,183	-0,112
-85,928	-200,000	0,006	-0,034
-84,913	800,000	-0,026	-0,067
-83,899	-200,000	0,002	-0,075
-82,884	267,681	-0,111	0,139
-81,870	79,207	0,108	-0,083
-80,855	800,000	-0,023	0,052
-79,840	-200,000	0,001	-0,074
-78,826	800,000	-0,047	-0,098
-77,811	228,612	0,082	0,096
-76,797	210,122	-0,046	-0,052
-75,782	124,356	-0,098	-0,089
-74,767	247,394	0,060	0,073
-73,753	-200,000	0,002	0,014
-72,738	-200,000	-0,014	0,069
-71,724	-200,000	-0,006	-0,091
-70,709	46,678	-0,034	-0,023
-69,694	-40,090	-0,076	0,028
-68,680	-154,167	-0,044	-0,002
-67,665	800,000	-0,045	0,107
-66,651	-200,000	0,016	0,086
-65,636	581,565	-0,004	-0,007
-64,622	-97,685	-0,155	0,028
-63,607	800,000	-0,007	0,019
-62,592	624,141	-0,049	-0,088
-61,578	492,025	-0,043	-0,071
-60,563	-114,186	0,089	-0,012
-59,549	-140,876	-0,133	0,010
-58,534	33,657	-2,210	-1,373
-57,519	-200,000	0,047	-0,637
-56,505	-200,000	-1,426	-5,106
-55,490	69,085	0,980	0,721
-54,476	800,000	5,417	12,157
-53,461	-200,000	18,844	319,120
-52,446	800,000	740,734	2323,787
-51,432	549,955	1654,548	2851,912
-50,417	109,949	1637,473	1406,376
-49,403	73,490	1288,070	964,558
-48,388	29,533	1029,774	625,588
-47,373	19,603	992,539	570,139
-46,359	16,968	980,204	554,379
-45,344	13,513	976,526	540,941
-44,330	13,880	974,587	541,049
-43,315	13,262	972,980	538,112
-42,300	13,153	971,924	537,151
-41,286	13,188	970,738	536,587
-40,271	13,158	970,074	536,101
-39,257	13,152	969,200	535,577
-38,242	13,162	968,366	535,129
-37,227	13,171	967,342	534,570
-36,213	13,184	966,535	534,146
-35,198	13,124	965,806	533,527
-34,184	13,244	964,868	533,377
-33,169	13,142	963,971	532,531
-32,154	13,210	962,877	532,125
-31,140	13,164	962,232	531,598
-30,125	13,181	961,436	531,191
-29,111	13,202	960,524	530,734
-28,096	13,161	960,098	530,346
-27,082	13,148	959,081	529,721
-26,067	13,169	958,407	529,396
-25,052	13,159	957,894	529,059
-24,038	13,219	957,066	528,775
-23,023	13,180	956,301	528,203
-22,009	13,252	955,716	528,093
-20,994	13,207	955,165	527,623
-19,979	13,233	954,623	527,385
-18,965	13,184	953,696	526,696
-17,950	13,166	953,534	526,526
-16,936	13,154	952,746	526,031
-15,921	13,211	952,021	525,792
-14,906	13,140	951,180	525,081
-13,892	13,089	950,719	524,643
-12,877	13,058	949,998	524,126
-11,863	13,062	949,228	523,692
-10,848	13,011	948,985	523,375
-9,833	13,168	948,274	523,463
-8,819	13,151	947,651	523,042
-7,804	13,149	946,752	522,521
-6,790	13,062	946,489	522,076
-5,775	13,089	945,904	521,819
-4,760	13,056	945,277	521,348
-3,746	13,056	944,759	521,041
-2,731	12,892	944,108	520,141
-1,717	12,922	943,358	519,804
-0,702	12,895	942,705	519,337
0,313	12,747	941,867	519,191
1,327	16,093	939,807	528,580
2,342	25,134	790,440	468,403
3,356	21,097	445,117	257,760
4,371	-7,896	298,093	143,390
5,386	-11,693	279,955	131,023
6,400	-12,898	274,090	127,138
7,415	-12,970	271,824	126,008
8,429	-13,112	270,461	125,235
9,444	-13,300	269,536	124,622
10,459	-13,089	268,852	124,489
11,473	-13,269	268,236	124,027
12,488	-13,268	267,615	123,730
13,502	-13,374	267,093	123,381
14,517	-13,362	266,674	123,187
15,531	-13,385	266,347	123,005
16,546	-13,404	265,990	122,811
17,561	-13,360	265,625	122,671
18,575	-13,219	265,323	122,649
19,590	-13,415	264,758	122,200
20,604	-13,347	264,770	122,256
21,619	-13,421	264,144	121,889
22,634	-13,474	263,730	121,640
23,648	-13,444	263,429	121,517
24,663	-13,373	263,118	121,426
25,677	-13,292	262,950	121,410
26,692	-13,207	262,691	121,356
27,707	-13,477	262,501	121,015
28,721	-13,529	262,145	120,795
29,736	-13,517	261,956	120,707
30,750	-13,459	261,593	120,581
31,765	-13,414	261,287	120,470
32,780	-13,429	261,105	120,361
33,794	-13,581	260,925	120,132
34,809	-13,447	260,634	120,107
35,823	-13,477	260,377	119,951
36,838	-13,490	260,216	119,855
37,853	-13,463	259,888	119,717
38,867	-13,553	259,642	119,513
39,882	-13,661	259,480	119,333
40,896	-13,408	259,187	119,410
41,911	-13,544	259,010	119,198
42,926	-13,524	258,695	119,060
43,940	-13,445	258,443	119,003
44,955	-13,453	258,130	118,842
45,969	-13,745	257,926	118,480
46,984	-13,667	257,654	118,413
47,999	-14,125	257,406	117,887
49,013	-14,177	257,175	117,725
50,028	-14,342	256,963	117,473
51,042	-14,333	256,646	117,326
52,057	-14,400	256,289	117,094
53,071	-14,203	256,264	117,243
54,086	-14,191	256,070	117,155
55,101	-14,106	255,872	117,128
56,115	-13,976	255,750	117,175
57,130	-13,473	255,679	117,569
58,144	-13,286	255,504	117,641
59,159	-13,109	255,191	117,640
60,174	-13,082	254,884	117,511
61,188	-13,291	254,855	117,307
62,203	-13,548	254,775	117,037
63,217	-13,273	254,339	117,064
64,232	-13,444	254,200	116,841
65,247	-13,336	254,055	116,857
66,261	-13,454	253,705	116,584
67,276	-13,560	253,398	116,342
68,290	-13,769	253,259	116,087
69,305	-13,963	252,868	115,731
70,320	-13,808	252,736	115,794
71,334	-13,605	252,632	115,910
72,349	-13,130	252,261	116,137
73,363	-13,166	252,274	116,102
74,378	-13,364	252,089	115,837
75,393	-13,391	251,868	115,701
76,407	-13,290	251,694	115,697
77,422	-13,324	251,228	115,444
78,436	-13,390	251,113	115,325
79,451	-13,314	250,932	115,296
80,466	-13,482	250,569	114,976
81,480	-13,522	250,430	114,868
82,495	-13,649	250,204	114,646
83,509	-13,620	250,075	114,602
84,524	-13,668	249,817	114,433
85,539	-13,934	249,694	114,140
86,553	-13,874	249,485	114,085
87,568	-13,658	249,168	114,113
88,582	-13,897	249,097	113,868
89,597	-13,756	248,891	113,883
90,611	-13,655	248,751	113,894
91,626	-13,552	248,672	113,934
92,641	-13,401	248,415	113,934
93,655	-13,515	248,211	113,735
94,670	-13,678	247,832	113,413
95,684	-13,771	247,860	113,338
96,699	-13,549	247,501	113,349
97,714	-13,515	247,435	113,338
98,728	-13,778	247,193	112,996
99,743	-14,009	246,838	112,631
100,757	-13,908	246,689	112,638
101,772	-13,837	246,519	112,609
102,787	-13,727	246,390	112,632
103,801	-13,725	246,288	112,577
104,816	-13,506	246,145	112,684
105,830	-13,553	245,943	112,542
106,845	-13,586	245,845	112,460
107,860	-13,464	245,496	112,392
108,874	-13,623	245,275	112,149
109,889	-13,645	244,991	111,991
110,903	-13,624	244,815	111,918
111,918	-13,847	244,838	111,733
112,933	-13,612	244,438	111,736
113,947	-13,643	244,338	111,654
114,962	-13,556	244,245	111,673
115,976	-13,388	244,011	111,695
116,991	-13,325	243,790	111,636
118,006	-13,538	243,641	111,383
119,020	-13,589	243,583	111,304
120,035	-13,535	243,471	111,287
121,049	-13,308	243,190	111,335
122,064	-13,317	242,936	111,202
123,079	-13,516	242,739	110,938
124,093	-13,484	242,520	110,855
125,108	-13,810	242,332	110,492
126,122	-14,072	242,106	110,164
127,137	-13,981	241,832	110,104
128,151	-14,010	241,801	110,056
129,166	-13,891	241,646	110,073
130,181	-13,616	241,288	110,125
131,195	-13,874	241,074	109,807
132,210	-13,687	241,138	109,979
133,224	-13,405	240,853	110,068
134,239	-13,432	240,661	109,949
135,254	-13,545	240,391	109,724
136,268	-13,805	240,175	109,405
137,283	-13,840	240,008	109,291
138,297	-14,078	239,909	109,043
139,312	-13,887	239,435	108,972
140,327	-13,530	239,518	109,289
141,341	-13,305	239,559	109,481
142,356	-13,222	239,400	109,465
143,370	-13,292	239,259	109,334
144,385	-13,243	239,043	109,265
145,400	-13,323	238,977	109,160
146,414	-13,101	238,670	109,189
147,429	-13,166	238,448	109,026
148,443	-13,311	238,235	108,803
149,458	-13,334	238,096	108,711
150,473	-13,268	238,064	108,739
151,487	-13,415	237,857	108,517
152,502	-13,267	237,682	108,546
153,516	-13,127	237,449	108,543
154,531	-13,274	237,345	108,368
155,546	-13,216	237,052	108,270
156,560	-13,434	236,889	108,012
157,575	-13,577	236,739	107,820
158,589	-13,331	236,532	107,912
159,604	-12,874	236,262	108,143
160,619	-13,214	236,284	107,873
161,633	-13,233	236,109	107,768
162,648	-13,347	235,846	107,548
163,662	-13,108	235,755	107,687
164,677	-13,230	235,598	107,508
165,692	-13,217	235,363	107,402
166,706	-13,209	235,364	107,399
167,721	-12,989	235,114	107,450
168,735	-12,918	235,047	107,466
169,750	-13,173	234,940	107,206
170,764	-13,291	234,779	107,029
171,779	-13,139	234,536	107,029
172,794	-13,170	234,386	106,927
173,808	-13,352	234,234	106,704
174,823	-13,922	233,909	106,098
175,837	-13,814	233,563	106,016
176,852	-13,474	233,619	106,300
177,867	-13,074	233,490	106,546
178,881	-13,231	233,427	106,384
179,896	-13,229	233,249	106,295
180,910	-13,152	233,138	106,295
181,925	-13,027	232,925	106,287
182,940	-13,367	233,011	106,050
183,954	-13,276	232,740	105,989
184,969	-12,967	232,556	106,137
185,983	-13,014	232,400	106,020
186,998	-12,872	232,302	106,076
188,013	-13,007	232,092	105,866
189,027	-12,951	231,833	105,782
190,042	-13,042	231,707	105,644
191,056	-13,110	231,702	105,580
192,071	-12,892	231,309	105,561
193,086	-13,176	231,319	105,335
194,100	-12,921	231,074	105,412
195,115	-13,381	230,644	104,850
196,129	-13,019	230,847	105,213
197,144	-7,718	232,482	110,089
198,159	-2,520	234,100	114,922
199,173	2,031	235,368	119,113
200,188	3,046	235,532	119,982
201,202	2,760	235,329	119,644
202,217	2,659	235,228	119,503
203,232	3,030	234,955	119,644
204,246	3,020	234,945	119,620
205,261	3,134	234,887	119,669
206,275	3,469	234,681	119,816
207,290	3,459	234,640	119,777
208,304	3,283	234,459	119,536
209,319	3,395	234,151	119,455
210,334	3,107	233,949	119,117
211,348	2,904	233,752	118,848
212,363	2,643	233,395	118,453
213,377	2,461	233,330	118,268
214,392	2,492	233,120	118,176
215,407	2,645	233,024	118,235
216,421	2,521	232,984	118,108
217,436	2,647	232,598	118,000
218,450	2,148	232,503	117,554
219,465	2,222	232,284	117,491
220,480	2,177	232,249	117,427
221,494	2,280	232,131	117,437
222,509	2,751	232,007	117,727
223,523	2,637	231,885	117,567
224,538	2,621	231,576	117,387
225,553	2,533	231,563	117,303
226,567	2,588	231,408	117,256
227,582	2,821	231,324	117,382
228,596	2,856	231,117	117,294
229,611	2,571	230,841	116,924
230,626	2,301	230,770	116,671
231,640	2,401	230,617	116,659
232,655	2,574	230,531	116,738
233,669	2,657	230,530	116,791
234,684	2,908	230,385	116,899
235,699	2,965	230,178	116,827
236,713	2,876	229,776	116,545
237,728	2,587	229,666	116,258
238,742	2,422	229,386	115,980
239,757	2,743	229,359	116,201
240,772	2,576	229,093	115,929
241,786	2,361	229,081	115,749
242,801	2,498	229,055	115,830
243,815	2,907	228,995	116,100
244,830	3,077	228,821	116,131
245,844	2,656	228,555	115,666
246,859	2,640	228,373	115,551
247,874	2,777	228,317	115,616
248,888	3,040	228,060	115,675
249,903	2,732	227,870	115,335
250,917	2,655	227,753	115,208
251,932	2,483	227,717	115,049
252,947	2,385	227,318	114,764
253,961	2,472	227,353	114,836
254,976	2,505	227,081	114,714
255,990	2,791	227,114	114,936
257,005	2,903	227,011	114,958
258,020	2,890	226,843	114,852
259,034	2,762	226,738	114,693
260,049	2,831	226,575	114,651
261,063	2,756	226,444	114,519
262,078	3,143	226,231	114,692
263,093	2,864	226,126	114,419
264,107	2,788	226,092	114,334
265,122	2,799	225,762	114,166
266,136	2,959	225,764	114,276
267,151	2,951	225,549	114,151
268,166	2,735	225,352	113,880
269,180	2,165	225,132	113,333
270,195	2,446	224,938	113,435
271,209	2,435	224,852	113,373
272,224	2,542	224,763	113,399
273,239	2,627	224,574	113,356
274,253	2,403	224,445	113,114
275,268	2,329	224,216	112,934
276,282	2,170	224,182	112,788
277,297	2,221	223,949	112,699
278,312	2,409	223,861	112,784
279,326	2,549	223,728	112,811
280,341	2,558	223,685	112,785
281,355	2,571	223,444	112,664
282,370	2,680	223,363	112,693
283,384	2,522	223,046	112,406
284,399	2,229	222,918	112,116
285,414	2,108	222,788	111,952
286,428	2,704	222,675	112,324
287,443	2,769	222,624	112,336
288,457	2,835	222,487	112,305
289,472	2,311	222,283	111,807
290,487	2,168	222,011	111,555
291,501	2,053	221,891	111,400
292,516	2,019	221,712	111,276
293,530	2,280	221,671	111,437
294,545	2,333	221,480	111,369
295,560	2,461	221,373	111,400
296,574	2,276	221,311	111,223
297,589	2,515	221,146	111,305
298,603	2,616	221,080	111,335
299,618	2,557	220,826	111,155
300,633	2,484	220,778	111,067
301,647	2,689	220,666	111,151
302,662	2,894	220,460	111,186
303,676	2,684	220,383	110,985
304,691	2,998	220,196	111,109
305,706	2,660	220,129	110,820
306,720	2,877	219,922	110,863
307,735	2,606	219,714	110,552
308,749	2,349	219,392	110,193
309,764	2,641	219,585	110,493
310,779	2,948	219,185	110,503
311,793	2,693	219,239	110,336
312,808	2,698	218,984	110,202
313,822	2,587	219,002	110,121
314,837	2,548	218,718	109,940
315,852	2,446	218,496	109,745
316,866	2,522	218,429	109,756
317,881	2,795	218,263	109,859
318,895	2,838	218,191	109,844
319,910	2,455	217,879	109,402
320,925	1,944	217,824	108,997
321,939	1,957	217,587	108,878
322,954	2,077	217,659	108,991
323,968	2,667	217,603	109,377
324,983	2,752	217,464	109,358
325,997	2,916	217,324	109,396
327,012	2,603	217,068	109,033
328,027	2,529	217,006	108,939
329,041	2,930	216,802	109,114
330,056	2,899	216,855	109,109
331,070	2,513	216,581	108,685
332,085	2,477	216,274	108,496
333,100	2,372	216,469	108,509
334,114	2,464	216,226	108,443
335,129	2,439	215,989	108,296
336,143	2,240	215,906	108,104
337,158	2,539	215,582	108,145
338,173	2,297	215,501	107,922
339,187	2,288	215,227	107,770
340,202	2,551	215,289	107,977
341,216	2,647	215,209	107,996
342,231	2,771	214,994	107,966
343,246	2,498	214,907	107,719
344,260	2,631	214,861	107,781
345,275	2,712	214,727	107,761
346,289	2,572	214,615	107,597
347,304	2,829	214,379	107,650
348,319	2,466	214,298	107,343
349,333	2,503	214,113	107,268
350,348	2,698	213,903	107,290
351,362	2,694	213,938	107,295
352,377	2,648	213,809	107,189
353,392	2,568	213,557	106,996
354,406	2,797	213,336	107,037
355,421	197,363	1314,812	1393,708
356,435	157,910	1448,954	1393,647
