DTS Sentinel unit serial number:	SN410029Multiplexer serial number:	ORYXHardware model number:	OX2-SRSoftware version number:	ORYX F/W v4,00 Oryx Data Collector v3.7.2.0data status	okinstallation	B6 Nyhavnadifferential loss correction	single-endedforward channel	channel 2reverse channel	N/Adate	2023/12/09time	07:00:08forward acquisition time	300,00reverse acquisition time	0,00gamma	499,1914k internal	0,3139k external	0,3139temperature offset calibration	1,0000default loss term (dB/km)	0,3820temperature slope calibration	1,0000multiplexer offset coefficient	1,0000multiplexer slope coefficient	1,0000fibre end	0,00T internal ref (°C)	18,56T ext. ref 1 (°C)	2,11T ext. ref 2 (°C)	2,12length (m)	temperature (°C)	Stokes	anti-Stokes-744,400	264,531	0,117	-0,151
-743,385	-101,053	-0,319	-0,058
-742,371	-123,040	0,082	-0,010
-741,356	-97,641	-0,263	0,050
-740,342	-73,724	0,104	0,028
-739,327	-19,330	-0,348	0,159
-738,312	800,000	0,015	-0,038
-737,298	-102,280	-0,270	0,048
-736,283	-102,703	0,113	-0,020
-735,269	-65,923	-0,184	0,054
-734,254	800,000	0,050	0,112
-733,239	-64,748	-0,438	-0,131
-732,225	-51,928	0,182	0,062
-731,210	416,817	-0,043	0,068
-730,196	232,473	0,033	-0,040
-729,181	-121,574	-0,136	0,017
-728,167	-76,201	-0,075	-0,019
-727,152	-200,000	-0,002	-0,114
-726,137	34,372	-0,106	-0,068
-725,123	411,725	-0,038	0,060
-724,108	-200,000	-0,093	-0,000
-723,094	120,755	-0,089	-0,082
-722,079	150,364	-0,038	0,038
-721,064	280,796	0,156	-0,207
-720,050	-74,581	-0,150	-0,040
-719,035	-200,000	0,024	-0,175
-718,021	-110,700	-0,074	0,011
-717,006	-200,000	0,007	0,045
-715,991	-55,523	-0,186	-0,061
-714,977	-34,518	-0,100	-0,040
-713,962	9,716	-0,123	-0,069
-712,948	395,149	0,114	0,176
-711,933	-200,000	-0,051	0,220
-710,918	-200,000	0,032	0,129
-709,904	28,176	-0,071	0,044
-708,889	800,000	-0,035	-0,104
-707,875	-200,000	-0,014	-0,050
-706,860	120,160	-0,063	-0,058
-705,845	436,878	-0,074	0,119
-704,831	322,891	0,037	0,053
-703,816	-3,861	-0,092	0,047
-702,802	-172,783	-0,203	-0,005
-701,787	143,453	-0,091	-0,090
-700,772	401,412	-0,015	-0,023
-699,758	-200,000	0,011	0,088
-698,743	-110,222	0,101	0,015
-697,729	-32,991	-0,119	0,049
-696,714	-83,393	0,084	0,020
-695,699	509,972	-0,045	0,077
-694,685	-200,000	-0,021	-0,097
-693,670	-4,041	-0,134	-0,069
-692,656	-6,244	-0,102	0,051
-691,641	800,000	-0,035	-0,077
-690,627	-48,207	0,135	0,048
-689,612	-200,000	-0,005	-0,032
-688,597	426,535	-0,027	0,043
-687,583	-87,155	-0,171	-0,038
-686,568	-200,000	-0,002	0,039
-685,554	-200,000	0,010	-0,117
-684,539	305,454	0,031	0,042
-683,524	21,310	0,032	0,019
-682,510	-135,852	0,172	-0,015
-681,495	-200,000	0,017	0,080
-680,481	202,726	-0,061	0,069
-679,466	43,284	-0,019	0,013
-678,451	4,915	-0,055	0,030
-677,437	-199,506	0,046	-0,000
-676,422	67,074	0,112	-0,085
-675,408	113,845	0,065	0,058
-674,393	-200,000	-0,011	0,086
-673,378	128,743	-0,032	0,030
-672,364	-73,783	-0,055	-0,015
-671,349	-178,395	-0,017	-0,000
-670,335	105,049	-0,167	0,146
-669,320	282,196	0,035	0,047
-668,305	302,495	-0,040	-0,055
-667,291	161,914	-0,066	0,069
-666,276	-32,117	-0,031	0,013
-665,262	-200,000	0,002	-0,086
-664,247	168,452	-0,020	0,021
-663,232	160,349	0,110	-0,114
-662,218	-200,000	0,043	0,181
-661,203	-200,000	0,015	0,073
-660,189	529,301	-0,026	0,045
-659,174	-119,956	-0,044	-0,006
-658,159	-141,693	-0,141	-0,010
-657,145	-200,000	0,017	-0,064
-656,130	-200,000	0,036	0,131
-655,116	-14,139	-0,071	-0,034
-654,101	-43,151	0,112	0,042
-653,086	290,099	-0,078	0,105
-652,072	-200,000	0,020	-0,094
-651,057	22,167	-0,129	-0,078
-650,043	800,000	-0,065	-0,157
-649,028	-102,208	-0,079	0,014
-648,014	5,301	0,071	0,038
-646,999	800,000	-0,017	0,048
-645,984	-61,303	-0,138	-0,043
-644,970	800,000	-0,027	-0,088
-643,955	30,868	-0,098	0,062
-642,941	-102,139	-0,039	-0,007
-641,926	90,798	-0,077	-0,064
-640,911	167,798	0,056	-0,059
-639,897	38,468	-0,035	0,023
-638,882	-200,000	-0,008	-0,090
-637,868	-48,990	-0,061	0,021
-636,853	-200,000	-0,003	-0,090
-635,838	251,921	0,078	-0,098
-634,824	800,000	-0,041	-0,130
-633,809	-200,000	-0,005	0,045
-632,795	-74,644	-0,048	-0,013
-631,780	800,000	0,031	0,087
-630,765	-138,078	0,071	-0,006
-629,751	800,000	-0,029	-0,084
-628,736	227,891	-0,098	-0,118
-627,722	-200,000	0,017	-0,065
-626,707	-200,000	-0,013	-0,048
-625,692	-200,000	-0,012	-0,091
-624,678	54,897	0,084	0,060
-623,663	-18,661	0,106	0,048
-622,649	800,000	-0,054	0,143
-621,634	40,178	-0,113	0,075
-620,619	108,355	0,032	-0,028
-619,605	800,000	-0,033	-0,083
-618,590	106,404	-0,075	0,066
-617,576	-180,862	0,056	0,001
-616,561	268,013	0,029	0,037
-615,546	52,901	-0,048	0,034
-614,532	800,000	-0,026	0,057
-613,517	-144,152	-0,041	0,003
-612,503	-90,788	-0,165	0,035
-611,488	237,964	0,072	0,089
-610,474	-124,503	-0,119	-0,013
-609,459	-48,512	-0,019	0,007
-608,444	-99,700	-0,046	0,008
-607,430	800,000	-0,044	-0,096
-606,415	128,787	-0,132	-0,124
-605,401	324,428	0,124	-0,175
-604,386	-19,765	0,042	0,019
-603,371	-65,750	0,117	-0,034
-602,357	97,287	0,068	0,058
-601,342	-56,290	-0,034	-0,011
-600,328	-200,000	0,003	-0,045
-599,313	-61,197	0,155	0,048
-598,298	-79,087	0,159	0,040
-597,284	12,339	-0,039	0,022
-596,269	405,396	0,047	-0,074
-595,255	-54,493	0,029	-0,010
-594,240	800,000	-0,073	-0,151
-593,225	44,306	0,062	-0,042
-592,211	-200,000	-0,035	-0,139
-591,196	-200,000	-0,014	0,047
-590,182	-103,806	-0,095	0,016
-589,167	-166,418	-0,080	0,002
-588,152	-110,238	0,107	0,016
-587,138	596,023	0,024	-0,044
-586,123	-200,000	0,012	-0,127
-585,109	3,657	-0,104	-0,056
-584,094	-16,550	0,087	0,040
-583,079	-34,800	0,076	0,031
-582,065	800,000	0,030	-0,078
-581,050	-200,000	0,011	-0,096
-580,036	315,734	0,044	-0,061
-579,021	322,515	0,023	0,032
-578,006	-200,000	-0,022	0,090
-576,992	-19,889	0,094	0,043
-575,977	329,315	-0,013	-0,018
-574,963	563,799	0,009	0,015
-573,948	800,000	0,023	0,058
-572,934	67,476	-0,061	0,046
-571,919	-117,523	-0,097	0,013
-570,904	-200,000	0,004	-0,134
-569,890	-78,539	0,077	-0,019
-568,875	-200,000	-0,004	0,013
-567,861	800,000	-0,039	0,117
-566,846	45,591	0,041	-0,028
-565,831	64,209	-0,087	-0,065
-564,817	657,661	0,051	0,097
-563,802	800,000	-0,010	-0,027
-562,788	800,000	0,045	-0,113
-561,773	-200,000	-0,003	0,147
-560,758	27,637	-0,023	0,014
-559,744	152,204	0,051	0,051
-558,729	800,000	0,010	-0,030
-557,715	162,519	-0,066	-0,068
-556,700	75,833	-0,125	0,097
-555,685	-200,000	-0,035	0,000
-554,671	-200,000	-0,000	-0,190
-553,656	-200,000	0,019	-0,096
-552,642	159,169	-0,085	0,087
-551,627	37,662	0,082	-0,054
-550,612	363,816	0,064	-0,095
-549,598	386,919	-0,040	-0,061
-548,583	156,682	-0,044	0,045
-547,569	284,557	-0,063	0,084
-546,554	-2,378	0,108	0,056
-545,539	800,000	0,040	-0,106
-544,525	-7,528	0,076	0,038
-543,510	-200,000	-0,005	-0,021
-542,496	-41,220	-0,111	0,042
-541,481	800,000	0,046	0,114
-540,466	92,466	-0,046	-0,038
-539,452	-200,000	-0,038	-0,132
-538,437	164,669	-0,081	-0,084
-537,423	161,168	-0,024	-0,025
-536,408	6,644	-0,059	0,032
-535,393	800,000	0,029	-0,063
-534,379	-200,000	-0,002	-0,053
-533,364	35,573	-0,092	-0,059
-532,350	-67,277	-0,060	-0,017
-531,335	-200,000	0,003	-0,102
-530,321	-200,000	-0,006	-0,111
-529,306	136,234	-0,063	0,060
-528,291	-200,000	-0,008	-0,120
-527,277	-131,365	-0,123	-0,012
-526,262	-200,000	-0,020	-0,132
-525,248	40,440	0,050	-0,033
-524,233	-82,154	0,099	-0,024
-523,218	136,301	0,033	0,032
-522,204	-200,000	0,003	-0,083
-521,189	-60,382	0,133	-0,041
-520,175	126,915	-0,022	-0,021
-519,160	-200,000	-0,001	-0,141
-518,145	-48,815	0,014	-0,005
-517,131	-104,315	0,075	0,013
-516,116	-44,099	0,170	0,062
-515,102	-200,000	-0,009	0,128
-514,087	-21,813	-0,012	0,005
-513,072	670,579	-0,044	0,084
-512,058	-5,860	-0,191	0,096
-511,043	800,000	0,053	0,141
-510,029	0,886	0,118	0,062
-509,014	6,491	0,045	-0,025
-507,999	150,764	0,011	-0,011
-506,985	-200,000	0,005	-0,068
-505,970	-200,000	0,004	-0,072
-504,956	800,000	0,038	-0,122
-503,941	-200,000	-0,001	0,056
-502,926	598,099	0,039	-0,072
-501,912	53,868	-0,115	0,081
-500,897	800,000	-0,018	-0,049
-499,883	800,000	-0,054	0,117
-498,868	47,268	0,104	-0,071
-497,853	199,510	-0,042	0,048
-496,839	24,206	0,089	-0,054
-495,824	-44,465	0,107	0,039
-494,810	-200,000	-0,020	0,123
-493,795	800,000	-0,048	0,154
-492,781	-76,699	-0,165	-0,042
-491,766	479,862	-0,011	0,019
-490,751	-200,000	-0,005	-0,098
-489,737	800,000	0,018	0,053
-488,722	800,000	0,017	-0,037
-487,708	-114,806	0,094	-0,013
-486,693	74,942	0,073	0,056
-485,678	-200,000	0,006	-0,067
-484,664	699,209	0,011	-0,022
-483,649	51,577	0,116	-0,081
-482,635	153,785	-0,024	-0,024
-481,620	579,114	0,019	0,033
-480,605	800,000	0,057	0,123
-479,591	-116,070	-0,160	0,022
-478,576	-200,000	0,013	0,151
-477,562	-200,000	0,042	0,212
-476,547	800,000	0,012	-0,039
-475,532	-199,124	-0,071	0,000
-474,518	24,025	0,138	0,083
-473,503	-33,080	0,148	-0,060
-472,489	136,072	0,081	0,077
-471,474	143,258	-0,079	-0,078
-470,459	800,000	0,044	-0,111
-469,445	-200,000	-0,009	-0,060
-468,430	800,000	0,027	0,057
-467,416	138,943	-0,043	-0,041
-466,401	44,209	0,045	0,030
-465,386	201,246	0,042	0,048
-464,372	40,319	-0,064	0,042
-463,357	-47,445	-0,064	-0,023
-462,343	-37,704	-0,128	-0,050
-461,328	433,624	0,086	0,137
-460,313	133,306	0,068	0,064
-459,299	-200,000	-0,003	0,100
-458,284	99,851	-0,060	-0,051
-457,270	800,000	0,046	0,124
-456,255	-70,810	0,096	0,026
-455,241	-80,484	0,123	-0,030
-454,226	233,728	-0,085	-0,103
-453,211	10,767	0,088	-0,049
-452,197	-50,749	0,120	0,041
-451,182	-200,000	0,008	-0,035
-450,168	-2,281	0,124	0,064
-449,153	-58,495	0,197	-0,062
-448,138	12,465	-0,059	-0,033
-447,124	-16,571	0,008	-0,004
-446,109	-77,819	0,079	0,020
-445,095	-97,226	0,106	-0,020
-444,080	-200,000	-0,007	0,045
-443,065	-200,000	-0,003	0,185
-442,051	-200,000	-0,014	0,062
-441,036	44,860	0,062	0,041
-440,022	401,732	0,066	0,102
-439,007	204,857	-0,026	0,029
-437,992	-200,000	0,001	0,117
-436,978	443,197	-0,037	0,060
-435,963	141,701	0,039	-0,038
-434,949	-12,829	-0,089	-0,042
-433,934	-6,280	0,034	0,017
-432,919	-124,919	-0,058	-0,006
-431,905	395,828	0,028	-0,043
-430,890	192,267	-0,062	-0,068
-429,876	94,315	0,076	-0,063
-428,861	66,991	-0,056	-0,041
-427,846	226,561	-0,107	-0,128
-426,832	-200,000	0,023	-0,096
-425,817	-200,000	-0,033	-0,124
-424,803	69,768	0,067	0,050
-423,788	-200,000	-0,002	0,038
-422,773	724,375	0,013	-0,025
-421,759	344,873	0,012	-0,017
-420,744	-200,000	0,022	-0,177
-419,730	-200,000	0,002	0,047
-418,715	-101,330	-0,154	0,027
-417,701	800,000	-0,048	0,102
-416,686	800,000	-0,020	-0,056
-415,671	-200,000	0,020	-0,067
-414,657	82,932	0,102	-0,081
-413,642	-200,000	-0,015	-0,093
-412,628	-200,000	0,011	0,081
-411,613	222,483	-0,048	0,057
-410,598	800,000	-0,014	0,034
-409,584	800,000	0,017	-0,053
-408,569	11,075	0,125	0,070
-407,555	38,804	0,074	0,048
-406,540	-200,000	-0,023	0,244
-405,525	615,870	-0,033	-0,060
-404,511	-37,043	0,095	-0,037
-403,496	-46,476	-0,062	0,022
-402,482	-110,401	0,037	0,006
-401,467	-200,000	-0,009	0,141
-400,452	48,988	0,058	-0,040
-399,438	16,511	-0,056	0,032
-398,423	10,499	-0,090	-0,050
-397,409	490,285	-0,024	0,041
-396,394	800,000	0,064	-0,171
-395,379	296,692	0,055	-0,074
-394,365	800,000	-0,040	0,108
-393,350	-200,000	-0,007	0,215
-392,336	83,146	-0,128	0,102
-391,321	800,000	0,030	0,088
-390,306	10,999	-0,073	-0,041
-389,292	-59,005	-0,092	0,029
-388,277	-65,165	0,050	-0,015
-387,263	800,000	0,028	0,061
-386,248	800,000	-0,014	0,036
-385,233	-200,000	-0,015	0,179
-384,219	167,620	0,024	0,025
-383,204	193,671	-0,040	0,045
-382,190	-200,000	-0,022	0,160
-381,175	-9,698	0,054	-0,026
-380,160	-119,359	0,125	-0,016
-379,146	-27,695	0,081	0,034
-378,131	-136,367	0,129	0,011
-377,117	-200,000	-0,012	-0,097
-376,102	-15,613	-0,199	0,092
-375,088	171,588	0,003	0,003
-374,073	-115,644	0,069	-0,009
-373,058	-122,392	-0,069	-0,008
-372,044	-200,000	0,021	-0,097
-371,029	-200,000	-0,004	0,053
-370,015	348,908	-0,036	-0,051
-369,000	2,077	0,054	-0,029
-367,985	28,872	-0,048	-0,030
-366,971	107,471	-0,049	-0,043
-365,956	53,614	0,045	-0,032
-364,942	-111,578	-0,077	-0,011
-363,927	-124,974	-0,029	-0,003
-362,912	21,476	-0,101	0,060
-361,898	392,519	-0,049	-0,074
-360,883	200,942	-0,054	-0,061
-359,869	74,357	-0,033	-0,025
-358,854	-200,000	-0,044	0,192
-357,839	41,147	0,012	0,008
-356,825	181,129	0,063	-0,068
-355,810	1,434	-0,047	0,025
-354,796	26,254	-0,094	0,057
-353,781	161,573	0,085	0,087
-352,766	-141,921	-0,127	-0,009
-351,752	-61,051	0,120	0,037
-350,737	-200,000	0,001	0,130
-349,723	-6,950	-0,043	-0,021
-348,708	-200,000	-0,002	0,052
-347,693	800,000	-0,022	0,057
-346,679	-74,320	-0,104	0,027
-345,664	800,000	0,060	0,130
-344,650	800,000	-0,029	-0,084
-343,635	-200,000	-0,026	0,119
-342,620	-87,329	0,080	-0,018
-341,606	161,037	0,093	0,095
-340,591	-200,000	-0,025	-0,085
-339,577	116,747	0,134	0,120
-338,562	-99,851	-0,048	-0,009
-337,548	121,798	0,066	-0,061
-336,533	323,620	0,075	-0,105
-335,518	-40,388	0,046	-0,018
-334,504	593,579	0,032	0,057
-333,489	800,000	0,007	-0,018
-332,475	62,571	-0,084	-0,061
-331,460	230,759	0,041	0,049
-330,445	394,622	-0,052	0,079
-329,431	800,000	0,027	0,083
-328,416	261,039	0,084	0,107
-327,402	87,546	0,037	0,030
-326,387	800,000	-0,033	-0,075
-325,372	800,000	-0,020	-0,054
-324,358	466,661	0,009	-0,015
-323,343	293,788	0,041	-0,055
-322,329	210,865	-0,024	0,027
-321,314	527,740	-0,095	-0,163
-320,299	283,242	0,025	-0,032
-319,285	149,221	0,079	0,078
-318,270	800,000	0,055	-0,117
-317,256	400,027	-0,074	-0,114
-316,241	-44,050	-0,030	0,011
-315,226	13,489	0,148	0,084
-314,212	-162,127	0,061	0,002
-313,197	-105,425	0,040	-0,007
-312,183	800,000	-0,047	-0,104
-311,168	330,047	-0,043	-0,060
-310,153	800,000	-0,049	-0,155
-309,139	800,000	-0,027	0,054
-308,124	-144,927	0,077	-0,005
-307,110	-200,000	0,007	-0,159
-306,095	211,166	0,033	-0,038
-305,080	800,000	0,065	0,167
-304,066	-200,000	0,008	-0,097
-303,051	-200,000	0,013	-0,127
-302,037	-59,462	-0,019	0,006
-301,022	800,000	0,066	0,139
-300,008	-200,000	-0,041	0,162
-298,993	800,000	-0,027	-0,080
-297,978	-53,307	0,038	-0,013
-296,964	413,448	0,042	-0,066
-295,949	45,489	-0,062	-0,042
-294,935	-200,000	-0,002	0,054
-293,920	800,000	0,054	0,156
-292,905	-141,265	0,153	-0,011
-291,891	201,885	0,109	0,123
-290,876	-200,000	-0,016	0,184
-289,862	34,140	-0,098	-0,062
-288,847	98,795	0,087	0,073
-287,832	-200,000	-0,027	-0,096
-286,818	800,000	-0,012	-0,025
-285,803	-61,110	0,008	-0,002
-284,789	167,836	0,047	-0,048
-283,774	-50,617	-0,098	-0,034
-282,759	-200,000	-0,024	-0,114
-281,745	-200,000	-0,025	0,082
-280,730	216,855	-0,107	0,125
-279,716	-200,000	-0,012	0,082
-278,701	-200,000	-0,006	-0,065
-277,686	800,000	-0,022	0,045
-276,672	-65,080	-0,116	0,034
-275,657	27,037	0,032	-0,020
-274,643	-104,270	-0,043	-0,007
-273,628	-41,727	-0,109	-0,041
-272,613	41,386	-0,029	0,019
-271,599	276,071	0,113	-0,146
-270,584	-173,715	0,094	0,002
-269,570	-200,000	0,024	0,082
-268,555	-122,947	-0,193	0,022
-267,540	90,349	0,061	-0,049
-266,526	-119,638	-0,073	0,009
-265,511	800,000	0,037	-0,109
-264,497	-200,000	-0,008	-0,068
-263,482	225,829	0,064	0,076
-262,467	-200,000	0,006	-0,077
-261,453	-113,167	0,059	-0,008
-260,438	-12,571	-0,095	0,045
-259,424	0,583	-0,139	-0,072
-258,409	82,216	0,054	-0,043
-257,395	-176,009	0,031	0,001
-256,380	-52,205	-0,053	0,018
-255,365	-8,597	0,070	0,034
-254,351	-200,000	-0,026	0,159
-253,336	-200,000	0,030	0,106
-252,322	353,142	-0,065	-0,094
-251,307	-58,706	-0,008	-0,002
-250,292	800,000	0,020	-0,053
-249,278	-47,191	0,204	0,072
-248,263	-32,966	-0,124	0,050
-247,249	800,000	0,027	-0,067
-246,234	396,433	0,055	-0,084
-245,219	94,212	-0,083	-0,069
-244,205	-61,596	-0,120	-0,036
-243,190	-200,000	0,008	0,109
-242,176	-37,416	0,145	-0,056
-241,161	33,442	0,167	-0,105
-240,146	-200,000	-0,023	-0,125
-239,132	-134,109	-0,096	-0,008
-238,117	491,377	-0,044	-0,073
-237,103	196,301	-0,076	0,084
-236,088	68,510	-0,042	0,031
-235,073	-136,878	-0,090	0,007
-234,059	-130,222	0,081	-0,008
-233,044	549,872	0,075	-0,132
-232,030	98,607	-0,049	0,041
-231,015	800,000	0,007	0,017
-230,000	170,977	-0,058	0,061
-228,986	127,321	-0,082	0,076
-227,971	-200,000	-0,015	0,067
-226,957	26,072	-0,072	0,043
-225,942	111,240	-0,085	0,074
-224,927	365,025	0,026	0,039
-223,913	229,848	-0,073	-0,087
-222,898	779,829	-0,058	-0,116
-221,884	-200,000	0,036	-0,143
-220,869	-36,027	-0,066	0,026
-219,855	800,000	-0,029	0,085
-218,840	-200,000	-0,001	-0,014
-217,825	-200,000	-0,001	0,006
-216,811	-200,000	-0,034	0,170
-215,796	52,926	-0,041	0,028
-214,782	63,241	-0,052	-0,038
-213,767	-200,000	-0,013	-0,185
-212,752	396,632	-0,056	-0,085
-211,738	-27,373	-0,100	0,042
-210,723	37,942	0,082	0,053
-209,709	320,550	0,039	-0,054
-208,694	800,000	-0,051	-0,141
-207,679	-200,000	-0,053	-0,195
-206,665	-80,222	0,124	-0,030
-205,650	-200,000	0,002	-0,115
-204,636	-89,188	0,102	0,022
-203,621	-123,915	-0,039	0,004
-202,606	-8,105	-0,070	0,034
-201,592	-155,859	-0,065	0,003
-200,577	-124,750	-0,056	-0,006
-199,563	246,888	0,055	0,067
-198,548	-200,000	0,045	0,169
-197,533	2,792	-0,029	0,015
-196,519	354,918	-0,071	0,103
-195,504	678,700	0,051	-0,097
-194,490	747,251	0,041	-0,080
-193,475	267,199	0,056	0,072
-192,460	800,000	0,035	-0,107
-191,446	-18,092	-0,214	0,097
-190,431	201,478	0,118	0,132
-189,417	-94,076	0,009	-0,002
-188,402	326,607	-0,030	0,041
-187,387	-200,000	0,043	-0,137
-186,373	-36,112	0,181	-0,071
-185,358	477,828	0,033	-0,055
-184,344	800,000	0,014	-0,028
-183,329	-200,000	-0,008	0,080
-182,315	701,616	0,055	0,107
-181,300	-200,000	-0,039	0,131
-180,285	64,911	-0,059	0,043
-179,271	252,164	-0,121	0,149
-178,256	-74,127	-0,102	0,027
-177,242	100,955	0,058	-0,049
-176,227	281,393	-0,108	-0,140
-175,212	6,561	-0,130	-0,070
-174,198	512,189	-0,055	0,094
-173,183	800,000	-0,029	-0,073
-172,169	-200,000	0,015	-0,089
-171,154	-200,000	-0,001	-0,115
-170,139	-200,000	0,010	-0,047
-169,125	275,485	0,038	0,049
-168,110	101,200	0,150	0,127
-167,096	800,000	-0,045	-0,099
-166,081	-93,959	-0,093	0,018
-165,066	800,000	-0,016	0,047
-164,052	-166,324	0,125	-0,004
-163,037	-200,000	-0,006	0,083
-162,023	-200,000	0,032	0,108
-161,008	-200,000	0,031	0,198
-159,993	800,000	-0,044	-0,104
-158,979	-90,643	0,079	-0,016
-157,964	525,697	0,038	-0,065
-156,950	568,917	0,032	-0,056
-155,935	-102,410	-0,046	-0,008
-154,920	-178,868	0,017	-0,000
-153,906	-200,000	0,078	0,260
-152,891	-200,000	-0,036	0,147
-151,877	319,586	-0,057	0,078
-150,862	800,000	-0,036	-0,091
-149,847	177,827	0,097	0,102
-148,833	338,793	-0,041	-0,058
-147,818	-200,000	0,041	0,140
-146,804	112,499	0,085	0,074
-145,789	42,536	-0,095	0,062
-144,775	29,902	-0,065	-0,040
-143,760	390,854	-0,051	0,076
-142,745	60,383	-0,100	-0,072
-141,731	195,555	0,094	0,104
-140,716	176,534	-0,004	0,004
-139,702	-200,000	0,021	0,067
-138,687	800,000	0,017	0,043
-137,672	38,800	-0,069	0,045
-136,658	-200,000	-0,026	0,098
-135,643	230,088	0,039	-0,046
-134,629	800,000	0,025	0,056
-133,614	-20,724	0,113	-0,050
-132,599	253,507	0,101	-0,125
-131,585	-87,590	-0,100	-0,022
-130,570	338,710	-0,071	-0,100
-129,556	800,000	-0,012	-0,029
-128,541	41,980	-0,080	0,052
-127,526	169,977	0,109	0,113
-126,512	120,156	-0,065	-0,058
-125,497	-200,000	-0,013	-0,095
-124,483	-97,586	0,089	0,016
-123,468	85,926	0,061	-0,049
-122,453	-200,000	0,005	-0,071
-121,439	136,526	-0,064	0,060
-120,424	800,000	0,022	0,057
-119,410	-200,000	-0,008	0,031
-118,395	-132,832	0,041	-0,004
-117,380	655,141	0,054	0,100
-116,366	622,765	-0,055	0,100
-115,351	-117,590	0,061	0,008
-114,337	227,192	-0,078	-0,092
-113,322	-157,835	-0,089	-0,004
-112,307	740,932	0,008	0,016
-111,293	161,321	0,065	0,066
-110,278	504,972	-0,111	0,187
-109,264	-165,018	-0,036	0,001
-108,249	-51,028	0,043	0,015
-107,234	218,319	-0,079	0,091
-106,220	532,147	0,035	0,061
-105,205	242,588	0,098	0,119
-104,191	89,672	-0,060	-0,048
-103,176	-152,408	-0,011	0,001
-102,162	135,059	0,119	0,112
-101,147	-70,337	-0,064	-0,017
-100,132	356,245	-0,056	-0,081
-99,118	7,741	0,180	0,097
-98,103	244,993	-0,035	-0,043
-97,089	158,179	0,021	-0,021
-96,074	168,697	-0,103	0,106
-95,059	800,000	0,021	-0,049
-94,045	-68,981	-0,017	-0,005
-93,030	-26,196	0,129	-0,054
-92,016	-84,309	-0,046	-0,011
-91,001	-96,158	-0,038	-0,007
-89,986	-126,308	0,108	0,012
-88,972	-200,000	-0,020	0,122
-87,957	-200,000	-0,033	0,122
-86,943	-57,307	-0,129	-0,041
-85,928	223,330	-0,081	0,094
-84,913	800,000	0,039	-0,121
-83,899	-200,000	0,008	0,078
-82,884	-200,000	0,000	0,108
-81,870	4,681	-0,116	0,061
-80,855	-200,000	-0,008	0,094
-79,840	-153,109	-0,034	-0,002
-78,826	-48,543	-0,107	-0,037
-77,811	91,793	-0,104	-0,085
-76,797	-141,705	0,162	0,012
-75,782	800,000	-0,051	-0,125
-74,767	68,541	0,118	-0,087
-73,753	-1,744	-0,121	-0,061
-72,738	218,966	0,057	0,066
-71,724	29,602	-0,061	0,037
-70,709	77,378	0,015	-0,011
-69,694	-82,445	-0,158	0,037
-68,680	800,000	-0,052	0,164
-67,665	177,198	0,068	0,071
-66,651	-23,545	-0,070	0,030
-65,636	-133,572	0,039	0,004
-64,622	-200,000	-0,000	-0,043
-63,607	-200,000	0,011	-0,041
-62,592	-78,337	-0,168	-0,041
-61,578	-200,000	0,013	0,085
-60,563	-200,000	0,019	0,183
-59,549	800,000	0,101	0,212
-58,534	-22,296	-1,710	-0,745
-57,519	800,000	-0,465	-1,217
-56,505	-200,000	-1,039	-4,689
-55,490	-80,042	0,770	-0,185
-54,476	800,000	5,270	12,230
-53,461	-200,000	15,873	277,409
-52,446	-200,000	703,101	2243,175
-51,432	561,063	1619,648	2837,242
-50,417	120,984	1623,743	1458,143
-49,403	81,220	1284,168	1000,380
-48,388	36,601	1028,138	653,811
-47,373	21,556	989,957	579,787
-46,359	20,506	978,815	569,777
-45,344	18,825	974,443	561,686
-44,330	18,907	973,186	561,207
-43,315	18,672	971,420	559,397
-42,300	18,630	970,427	558,666
-41,286	18,641	969,369	558,070
-40,271	18,655	968,733	557,728
-39,257	18,670	967,547	557,071
-38,242	18,632	966,860	556,530
-37,227	18,596	966,156	555,984
-36,213	18,547	965,376	555,356
-35,198	18,541	964,476	554,794
-34,184	18,623	963,606	554,541
-33,169	18,626	962,639	553,971
-32,154	18,644	961,887	553,574
-31,140	18,656	961,081	553,127
-30,125	18,631	960,284	552,568
-29,111	18,621	959,598	552,116
-28,096	18,639	958,912	551,759
-27,082	18,565	958,119	551,042
-26,067	18,595	957,293	550,641
-25,052	18,591	956,549	550,179
-24,038	18,553	956,086	549,768
-23,023	18,584	955,129	549,295
-22,009	18,654	954,361	549,058
-20,994	18,649	953,957	548,788
-19,979	18,657	953,346	548,441
-18,965	18,591	952,855	547,924
-17,950	18,590	952,045	547,434
-16,936	18,526	951,657	546,981
-15,921	18,486	950,948	546,425
-14,906	18,480	949,981	545,830
-13,892	18,469	949,427	545,453
-12,877	18,471	948,775	545,062
-11,863	18,429	948,254	544,608
-10,848	18,475	947,602	544,360
-9,833	18,487	947,283	544,193
-8,819	18,559	946,391	543,887
-7,804	18,476	945,804	543,263
-6,790	18,444	945,275	542,839
-5,775	18,513	944,675	542,690
-4,760	18,523	944,028	542,329
-3,746	18,473	943,399	541,789
-2,731	18,326	942,665	540,878
-1,717	18,256	942,199	540,365
-0,702	18,287	941,274	539,914
0,313	18,127	940,532	539,795
1,327	21,129	938,870	548,295
2,342	30,087	796,297	488,887
3,356	27,071	449,166	271,218
4,371	-2,457	295,049	148,592
5,386	-6,634	276,214	135,131
6,400	-7,903	270,487	131,137
7,415	-8,278	268,161	129,652
8,429	-8,072	266,888	129,214
9,444	-8,102	265,962	128,728
10,459	-8,265	265,526	128,356
11,473	-8,078	264,650	128,092
12,488	-8,178	264,314	127,826
13,502	-8,425	263,747	127,316
14,517	-8,296	263,295	127,204
15,531	-8,430	263,045	126,951
16,546	-8,106	262,509	126,973
17,561	-8,492	262,293	126,510
18,575	-8,105	261,982	126,697
19,590	-8,283	261,536	126,309
20,604	-8,130	261,237	126,291
21,619	-8,208	260,845	126,020
22,634	-8,180	260,543	125,889
23,648	-8,302	260,238	125,621
24,663	-8,226	260,021	125,573
25,677	-8,262	259,813	125,429
26,692	-8,255	259,510	125,278
27,707	-8,196	259,089	125,116
28,721	-8,244	258,959	124,999
29,736	-8,505	258,737	124,649
30,750	-8,429	258,510	124,596
31,765	-8,272	258,046	124,500
32,780	-8,542	257,997	124,226
33,794	-8,377	257,636	124,188
34,809	-8,336	257,533	124,163
35,823	-8,340	257,288	124,030
36,838	-8,496	257,118	123,800
37,853	-8,305	256,682	123,747
38,867	-8,439	256,572	123,565
39,882	-8,345	256,222	123,468
40,896	-8,464	256,129	123,307
41,911	-8,625	255,996	123,091
42,926	-8,429	255,688	123,104
43,940	-8,443	255,363	122,924
44,955	-8,528	255,181	122,751
45,969	-8,595	254,920	122,556
46,984	-8,900	254,766	122,205
47,999	-8,902	254,362	121,999
49,013	-9,159	254,093	121,635
50,028	-9,270	253,915	121,442
51,042	-9,429	253,623	121,153
52,057	-9,170	253,275	121,201
53,071	-9,237	253,210	121,101
54,086	-9,101	253,016	121,115
55,101	-9,008	253,008	121,181
56,115	-8,773	252,731	121,242
57,130	-8,426	252,783	121,556
58,144	-8,038	252,641	121,813
59,159	-8,266	252,438	121,507
60,174	-8,074	252,142	121,519
61,188	-8,192	251,919	121,299
62,203	-8,367	251,722	121,042
63,217	-8,510	251,594	120,847
64,232	-8,235	251,247	120,906
65,247	-8,346	251,011	120,686
66,261	-8,278	250,819	120,642
67,276	-8,233	250,471	120,502
68,290	-8,627	250,306	120,074
69,305	-8,955	250,019	119,645
70,320	-8,718	249,932	119,796
71,334	-8,648	249,859	119,810
72,349	-8,420	249,703	119,919
73,363	-7,922	249,279	120,129
74,378	-8,058	249,181	119,956
75,393	-8,222	248,958	119,698
76,407	-8,357	248,818	119,505
77,422	-8,600	248,636	119,200
78,436	-8,229	248,226	119,309
79,451	-8,257	248,261	119,291
80,466	-8,443	247,764	118,884
81,480	-8,516	247,688	118,775
82,495	-8,609	247,504	118,597
83,509	-8,577	247,351	118,540
84,524	-8,641	247,172	118,390
85,539	-8,663	246,900	118,231
86,553	-8,598	246,520	118,093
87,568	-8,505	246,539	118,170
88,582	-8,497	246,405	118,102
89,597	-8,840	246,198	117,704
90,611	-8,555	246,038	117,856
91,626	-8,439	245,894	117,874
92,641	-8,280	245,542	117,828
93,655	-8,390	245,391	117,653
94,670	-8,644	245,394	117,431
95,684	-8,809	245,194	117,187
96,699	-8,740	244,981	117,133
97,714	-8,761	244,746	116,992
98,728	-8,581	244,455	116,992
99,743	-8,703	244,208	116,762
100,757	-8,803	244,093	116,613
101,772	-8,830	243,837	116,458
102,787	-8,542	243,547	116,549
103,801	-8,647	243,376	116,370
104,816	-8,452	243,476	116,569
105,830	-8,335	243,259	116,552
106,845	-8,207	243,098	116,570
107,860	-8,395	242,874	116,296
108,874	-8,452	242,652	116,133
109,889	-8,723	242,378	115,768
110,903	-8,669	242,387	115,806
111,918	-8,473	242,025	115,784
112,933	-8,534	241,982	115,703
113,947	-8,424	241,758	115,676
114,962	-8,380	241,659	115,654
115,976	-8,398	241,488	115,548
116,991	-8,380	241,351	115,487
118,006	-8,472	241,112	115,286
119,020	-8,446	241,028	115,258
120,035	-8,345	240,807	115,225
121,049	-8,268	240,754	115,252
122,064	-8,329	240,473	115,058
123,079	-8,199	240,193	115,019
124,093	-8,532	240,048	114,667
125,108	-8,806	239,866	114,347
126,122	-8,955	239,679	114,125
127,137	-8,731	239,374	114,153
128,151	-8,770	239,324	114,087
129,166	-8,960	239,223	113,874
130,181	-8,863	239,002	113,838
131,195	-8,839	238,726	113,715
132,210	-8,518	238,554	113,884
133,224	-8,418	238,440	113,900
134,239	-8,494	238,314	113,768
135,254	-8,317	238,060	113,780
136,268	-8,619	237,854	113,427
137,283	-8,714	237,639	113,238
138,297	-8,944	237,432	112,944
139,312	-8,942	237,149	112,800
140,327	-8,549	237,097	113,083
141,341	-8,140	237,243	113,472
142,356	-8,267	237,066	113,276
143,370	-7,997	236,874	113,391
144,385	-7,977	236,744	113,334
145,400	-7,984	236,661	113,279
146,414	-7,962	236,328	113,127
147,429	-8,274	236,242	112,825
148,443	-8,267	236,113	112,759
149,458	-8,276	235,824	112,604
150,473	-8,244	235,783	112,600
151,487	-8,233	235,414	112,422
152,502	-8,148	235,435	112,490
153,516	-8,006	235,256	112,508
154,531	-8,340	235,006	112,112
155,546	-8,366	234,812	111,989
156,560	-8,352	234,617	111,897
157,575	-8,302	234,350	111,800
158,589	-8,326	234,331	111,761
159,604	-7,887	234,103	111,992
160,619	-7,843	234,028	111,980
161,633	-7,927	233,873	111,830
162,648	-7,879	233,769	111,808
163,662	-8,030	233,493	111,546
164,677	-8,318	233,199	111,168
165,692	-8,143	233,286	111,338
166,706	-8,028	233,262	111,408
167,721	-7,759	232,891	111,433
168,735	-7,951	232,863	111,258
169,750	-7,836	232,577	111,203
170,764	-8,282	232,590	110,847
171,779	-7,914	232,260	110,969
172,794	-7,981	232,262	110,908
173,808	-8,298	231,996	110,522
174,823	-8,529	231,501	110,095
175,837	-8,846	231,434	109,804
176,852	-8,443	231,419	110,104
177,867	-8,190	231,439	110,302
178,881	-7,939	231,094	110,324
179,896	-7,890	231,025	110,320
180,910	-7,836	230,891	110,287
181,925	-8,011	230,715	110,057
182,940	-8,064	230,586	109,945
183,954	-8,038	230,495	109,912
184,969	-7,794	230,266	109,983
185,983	-7,787	230,240	109,966
186,998	-7,842	230,016	109,807
188,013	-7,655	229,801	109,840
189,027	-7,757	229,763	109,732
190,042	-7,967	229,667	109,513
191,056	-7,848	229,172	109,360
192,071	-8,010	229,320	109,295
193,086	-7,859	229,060	109,279
194,100	-7,956	228,995	109,162
195,115	-8,153	228,530	108,779
196,129	-8,851	228,351	108,145
197,144	-4,498	229,708	112,158
198,159	0,689	231,235	116,938
199,173	3,406	231,855	119,359
200,188	3,470	231,827	119,384
201,202	3,507	231,793	119,385
202,217	3,992	231,540	119,621
203,232	3,752	231,645	119,478
204,246	4,193	231,327	119,645
205,261	4,181	231,219	119,570
206,275	4,187	231,055	119,480
207,290	4,252	231,035	119,509
208,304	4,202	230,806	119,341
209,319	4,145	230,612	119,186
210,334	4,194	230,416	119,112
211,348	3,744	230,246	118,665
212,363	3,699	229,840	118,411
213,377	3,382	229,584	118,024
214,392	3,195	229,613	117,884
215,407	3,610	229,460	118,114
216,421	3,407	229,245	117,838
217,436	3,451	229,017	117,744
218,450	3,317	228,786	117,511
219,465	3,056	228,823	117,319
220,480	3,394	228,574	117,441
221,494	3,149	228,417	117,161
222,509	3,504	228,412	117,420
223,523	3,430	228,200	117,245
224,538	3,367	228,012	117,089
225,553	3,419	227,968	117,096
226,567	3,573	227,835	117,136
227,582	3,900	227,739	117,325
228,596	3,849	227,702	117,256
229,611	3,620	227,432	116,933
230,626	3,373	227,221	116,625
231,640	3,414	226,928	116,496
232,655	3,547	227,029	116,638
233,669	4,135	226,870	116,993
234,684	4,092	226,852	116,940
235,699	3,982	226,521	116,676
236,713	3,581	226,373	116,285
237,728	3,451	226,150	116,062
238,742	3,180	226,089	115,816
239,757	3,340	225,797	115,777
240,772	3,245	225,683	115,636
241,786	3,322	225,546	115,614
242,801	3,480	225,605	115,753
243,815	3,817	225,497	115,942
244,830	3,831	225,169	115,773
245,844	3,514	225,126	115,502
246,859	3,405	224,919	115,303
247,874	3,726	224,803	115,475
248,888	3,732	224,631	115,381
249,903	3,645	224,378	115,175
250,917	3,437	224,163	114,899
251,932	3,534	223,971	114,863
252,947	3,289	223,957	114,662
253,961	3,304	223,926	114,647
254,976	3,403	223,749	114,620
255,990	3,498	223,661	114,636
257,005	3,631	223,470	114,627
258,020	3,724	223,395	114,648
259,034	3,957	223,186	114,704
260,049	3,903	223,033	114,575
261,063	3,559	222,971	114,277
262,078	3,629	222,936	114,301
263,093	3,985	222,775	114,473
264,107	3,691	222,523	114,115
265,122	3,738	222,387	114,070
266,136	3,727	222,399	114,057
267,151	3,843	221,998	113,928
268,166	3,529	221,828	113,597
269,180	3,165	221,604	113,203
270,195	3,355	221,499	113,280
271,209	3,252	221,386	113,137
272,224	3,549	221,206	113,253
273,239	3,390	221,131	113,088
274,253	3,602	220,924	113,128
275,268	3,245	220,706	112,743
276,282	2,991	220,619	112,502
277,297	3,112	220,457	112,498
278,312	3,151	220,485	112,531
279,326	3,536	220,254	112,686
280,341	3,419	220,109	112,516
281,355	3,436	220,041	112,483
282,370	3,361	219,817	112,304
283,384	3,056	219,684	112,003
284,399	3,121	219,512	111,953
285,414	3,158	219,337	111,880
286,428	3,606	219,204	112,130
287,443	3,520	219,139	112,024
288,457	3,537	219,055	111,984
289,472	3,533	218,827	111,854
290,487	3,063	218,606	111,388
291,501	2,759	218,442	111,074
292,516	2,980	218,453	111,230
293,530	3,209	218,188	111,252
294,545	3,206	218,168	111,230
295,560	3,061	218,066	111,062
296,574	3,251	217,826	111,068
297,589	3,389	217,747	111,118
298,603	3,438	217,654	111,097
299,618	3,320	217,541	110,943
300,633	3,614	217,267	111,007
301,647	3,488	217,330	110,937
302,662	3,642	217,228	110,987
303,676	3,615	216,918	110,799
304,691	3,715	216,918	110,861
305,706	3,710	216,760	110,767
306,720	3,675	216,532	110,615
307,735	3,304	216,393	110,268
308,749	3,305	216,184	110,152
309,764	3,585	216,169	110,335
310,779	3,678	215,936	110,273
311,793	3,566	215,869	110,149
312,808	3,378	215,772	109,955
313,822	3,586	215,405	109,907
314,837	3,178	215,319	109,561
315,852	3,023	215,239	109,400
316,866	3,800	215,145	109,898
317,881	3,986	215,024	109,960
318,895	3,637	214,947	109,661
319,910	3,506	214,687	109,425
320,925	3,096	214,551	109,054
321,939	3,011	214,252	108,832
322,954	3,189	214,148	108,896
323,968	3,531	214,236	109,174
324,983	3,444	214,159	109,063
325,997	3,788	213,829	109,129
327,012	3,597	213,912	109,027
328,027	3,467	213,616	108,774
329,041	3,821	213,657	109,036
330,056	3,963	213,454	109,023
331,070	3,553	213,177	108,582
332,085	3,325	213,056	108,350
333,100	3,432	212,936	108,355
334,114	3,792	212,713	108,485
335,129	3,797	212,614	108,429
336,143	3,343	212,593	108,088
337,158	3,485	212,384	108,073
338,173	3,385	212,289	107,944
339,187	3,346	212,084	107,802
340,202	3,314	211,806	107,629
341,216	3,013	211,798	107,404
342,231	3,102	211,752	107,434
343,246	3,110	211,551	107,327
344,260	3,249	211,416	107,347
345,275	3,390	211,320	107,387
346,289	3,669	211,207	107,516
347,304	3,630	211,126	107,438
348,319	3,482	210,946	107,233
349,333	3,310	210,761	107,009
350,348	3,414	210,651	107,017
351,362	3,646	210,442	107,063
352,377	3,680	210,341	107,026
353,392	3,477	210,192	106,799
354,406	3,433	210,115	106,720
355,421	195,094	1340,884	1425,537
356,435	155,784	1478,676	1425,574
