DTS Sentinel unit serial number:	SN410029Multiplexer serial number:	ORYXHardware model number:	OX2-SRSoftware version number:	ORYX F/W v4,00 Oryx Data Collector v3.7.2.0data status	okinstallation	B6 Nyhavnadifferential loss correction	single-endedforward channel	channel 2reverse channel	N/Adate	2023/12/10time	02:25:08forward acquisition time	300,00reverse acquisition time	0,00gamma	499,1914k internal	0,3125k external	0,3125temperature offset calibration	1,0000default loss term (dB/km)	0,3820temperature slope calibration	1,0000multiplexer offset coefficient	1,0000multiplexer slope coefficient	1,0000fibre end	0,00T internal ref (°C)	21,94T ext. ref 1 (°C)	5,73T ext. ref 2 (°C)	5,72length (m)	temperature (°C)	Stokes	anti-Stokes-744,400	55,731	-0,110	-0,079
-743,385	129,596	-0,132	0,126
-742,371	-102,283	0,237	-0,042
-741,356	-65,247	-0,200	0,060
-740,342	800,000	0,011	0,028
-739,327	46,438	-0,195	0,134
-738,312	-139,460	0,041	0,003
-737,298	-64,521	-0,295	0,089
-736,283	-200,000	-0,007	-0,040
-735,269	186,837	-0,189	0,210
-734,254	74,859	-0,088	0,069
-733,239	-148,189	-0,475	0,029
-732,225	78,127	0,083	0,066
-731,210	437,009	-0,068	0,111
-730,196	-41,236	-0,155	-0,059
-729,181	115,627	0,056	-0,051
-728,167	-154,236	-0,160	0,008
-727,152	-200,000	-0,018	-0,067
-726,137	236,834	-0,110	-0,136
-725,123	-23,414	-0,072	-0,032
-724,108	-200,000	-0,001	-0,015
-723,094	-74,269	-0,127	-0,034
-722,079	-9,038	0,105	-0,052
-721,064	-102,105	-0,177	0,031
-720,050	-156,017	-0,114	0,005
-719,035	-96,573	0,063	-0,012
-718,021	-17,196	-0,128	-0,060
-717,006	-128,283	-0,027	0,003
-715,991	396,522	0,051	-0,079
-714,977	355,206	-0,040	-0,059
-713,962	306,483	-0,030	0,042
-712,948	-82,976	-0,022	0,005
-711,933	245,770	-0,065	-0,082
-710,918	800,000	-0,022	-0,071
-709,904	-200,000	0,015	-0,079
-708,889	-21,179	0,059	0,027
-707,875	97,801	0,030	-0,025
-706,860	98,938	-0,051	0,044
-705,845	-43,137	0,116	-0,044
-704,831	800,000	0,023	-0,068
-703,816	-200,000	0,004	0,103
-702,802	-146,535	-0,085	-0,005
-701,787	303,640	-0,074	-0,103
-700,772	272,143	-0,040	-0,053
-699,758	173,686	0,114	0,122
-698,743	586,468	0,023	0,042
-697,729	207,696	0,075	0,087
-696,714	141,122	0,036	0,036
-695,699	512,172	-0,019	0,033
-694,685	267,015	0,052	0,068
-693,670	-149,906	0,092	-0,005
-692,656	-97,041	0,063	-0,012
-691,641	386,873	0,059	-0,091
-690,627	112,879	-0,039	-0,035
-689,612	-200,000	-0,001	-0,065
-688,597	113,252	-0,028	-0,025
-687,583	-200,000	-0,039	-0,134
-686,568	86,308	-0,150	-0,123
-685,554	-18,794	0,079	-0,036
-684,539	43,176	-0,077	0,052
-683,524	686,609	-0,032	0,062
-682,510	-200,000	0,028	0,139
-681,495	465,125	0,089	-0,148
-680,481	431,721	-0,097	-0,158
-679,466	160,857	-0,119	-0,123
-678,451	-200,000	0,023	0,123
-677,437	106,462	0,030	0,026
-676,422	93,898	-0,065	-0,054
-675,408	138,812	-0,066	0,064
-674,393	-114,454	0,086	-0,012
-673,378	-133,949	-0,065	-0,006
-672,364	-136,648	-0,090	0,008
-671,349	-200,000	0,007	0,043
-670,335	7,476	-0,125	0,069
-669,320	-124,411	-0,118	-0,013
-668,305	-200,000	0,004	-0,049
-667,291	-200,000	0,004	-0,035
-666,276	-132,655	-0,156	0,015
-665,262	-200,000	0,005	0,046
-664,247	-109,372	-0,061	-0,010
-663,232	161,414	0,056	0,058
-662,218	-200,000	-0,011	0,042
-661,203	-120,698	-0,071	-0,009
-660,189	-80,180	-0,038	0,009
-659,174	-200,000	0,016	-0,132
-658,159	-85,973	-0,110	0,025
-657,145	800,000	-0,036	-0,086
-656,130	-18,631	0,064	0,029
-655,116	-200,000	0,022	0,184
-654,101	-200,000	-0,011	0,082
-653,086	158,687	-0,026	0,027
-652,072	-143,423	0,132	0,009
-651,057	97,016	-0,020	0,017
-650,043	-8,910	-0,155	0,077
-649,028	-40,319	0,065	-0,025
-648,014	-200,000	0,023	-0,107
-646,999	619,544	-0,041	0,076
-645,984	-150,350	-0,043	0,002
-644,970	135,246	-0,013	0,013
-643,955	282,476	0,049	-0,066
-642,941	800,000	0,023	-0,058
-641,926	60,820	0,069	-0,050
-640,911	-66,308	-0,065	-0,019
-639,897	-16,026	-0,085	-0,040
-638,882	367,149	-0,053	0,080
-637,868	-112,138	0,085	-0,013
-636,853	-36,313	0,020	-0,008
-635,838	714,002	-0,028	0,056
-634,824	217,128	0,063	-0,074
-633,809	800,000	0,006	0,017
-632,795	-200,000	-0,001	0,008
-631,780	-200,000	-0,007	0,072
-630,765	-200,000	0,000	-0,103
-629,751	637,168	-0,011	-0,020
-628,736	335,245	-0,042	0,061
-627,722	-53,370	0,065	-0,022
-626,707	-200,000	-0,019	0,069
-625,692	800,000	-0,030	0,091
-624,678	446,421	0,013	-0,021
-623,663	-94,062	-0,039	-0,008
-622,649	-200,000	0,016	0,057
-621,634	800,000	0,064	-0,134
-620,619	-128,767	-0,116	-0,012
-619,605	100,370	0,083	0,071
-618,590	-3,735	-0,055	-0,028
-617,576	583,726	-0,023	-0,042
-616,561	529,559	-0,027	-0,048
-615,546	26,513	-0,015	-0,009
-614,532	-200,000	-0,033	-0,117
-613,517	-12,444	0,051	0,025
-612,503	260,297	-0,081	-0,104
-611,488	657,546	0,067	0,128
-610,474	-123,536	-0,153	-0,018
-609,459	-200,000	0,008	-0,042
-608,444	-200,000	-0,022	-0,093
-607,430	690,058	-0,031	-0,060
-606,415	-140,420	0,078	0,006
-605,401	-58,288	-0,191	0,061
-604,386	703,247	-0,027	0,053
-603,371	4,393	-0,076	0,041
-602,357	-200,000	-0,010	0,214
-601,342	-138,508	-0,109	-0,009
-600,328	800,000	-0,038	-0,100
-599,313	-200,000	0,007	-0,052
-598,298	800,000	0,055	-0,143
-597,284	751,240	0,089	-0,178
-596,269	23,472	0,109	0,067
-595,255	-200,000	-0,012	-0,056
-594,240	13,851	0,056	-0,032
-593,225	800,000	-0,023	0,070
-592,211	-200,000	0,008	-0,092
-591,196	114,020	0,098	0,088
-590,182	-115,262	0,114	-0,016
-589,167	800,000	0,057	0,162
-588,152	-32,056	-0,028	-0,012
-587,138	56,684	0,045	-0,032
-586,123	758,668	-0,073	-0,147
-585,109	-200,000	-0,005	-0,102
-584,094	794,996	0,015	-0,030
-583,079	623,772	-0,030	-0,057
-582,065	-200,000	0,016	0,070
-581,050	-200,000	0,037	0,138
-580,036	-108,295	0,130	-0,021
-579,021	13,138	0,044	0,025
-578,006	46,022	0,040	-0,028
-576,992	177,657	0,009	0,010
-575,977	451,301	0,045	0,073
-574,963	161,989	0,030	-0,031
-573,948	-200,000	0,013	-0,066
-572,934	231,171	-0,024	-0,029
-571,919	-74,008	-0,094	-0,025
-570,904	-74,744	-0,121	0,032
-569,890	177,766	-0,044	0,048
-568,875	608,157	-0,073	0,135
-567,861	57,195	0,092	0,066
-566,846	314,967	-0,012	-0,017
-565,831	-200,000	0,007	0,141
-564,817	255,171	-0,062	0,079
-563,802	-200,000	-0,033	-0,141
-562,788	-200,000	-0,006	0,046
-561,773	-200,000	-0,004	-0,048
-560,758	800,000	-0,025	0,059
-559,744	-200,000	0,008	0,039
-558,729	-104,440	0,070	0,012
-557,715	-200,000	-0,024	-0,111
-556,700	-200,000	0,010	0,064
-555,685	-37,776	-0,069	-0,027
-554,671	77,090	0,027	0,021
-553,656	800,000	-0,022	0,053
-552,642	-26,649	0,191	-0,082
-551,627	-200,000	0,024	-0,108
-550,612	-42,567	0,108	-0,041
-549,598	37,647	-0,086	-0,056
-548,583	14,753	0,070	-0,040
-547,569	-59,326	0,053	0,017
-546,554	622,025	0,022	0,041
-545,539	37,901	0,015	-0,010
-544,525	800,000	-0,045	0,143
-543,510	-200,000	0,016	0,063
-542,496	245,520	-0,106	-0,132
-541,481	-79,063	-0,023	-0,006
-540,466	-90,637	-0,053	0,011
-539,452	48,404	0,158	-0,109
-538,437	-65,599	-0,037	0,011
-537,423	800,000	0,051	0,116
-536,408	-160,689	0,068	-0,003
-535,393	-41,650	-0,109	-0,041
-534,379	-30,364	-0,075	-0,031
-533,364	223,115	0,058	-0,070
-532,350	800,000	0,041	0,088
-531,335	-43,295	0,175	0,065
-530,321	-70,371	0,057	0,016
-529,306	-79,131	-0,050	0,013
-528,291	-200,000	0,032	-0,243
-527,277	-200,000	0,009	-0,097
-526,262	-167,565	-0,196	-0,006
-525,248	-126,278	-0,026	0,003
-524,233	81,241	0,007	0,006
-523,218	-131,347	0,082	-0,008
-522,204	53,184	-0,015	0,011
-521,189	106,121	0,099	0,087
-520,175	-0,178	-0,068	-0,035
-519,160	-200,000	0,012	-0,143
-518,145	411,173	0,022	-0,035
-517,131	800,000	0,028	0,062
-516,116	-189,621	-0,031	-0,000
-515,102	-64,938	-0,077	0,023
-514,087	794,853	0,034	-0,069
-513,072	284,772	-0,053	-0,071
-512,058	800,000	-0,051	0,107
-511,043	-200,000	0,001	-0,038
-510,029	-200,000	0,009	-0,048
-509,014	96,509	-0,029	-0,024
-507,999	523,660	0,025	0,043
-506,985	308,547	0,063	0,087
-505,970	800,000	-0,040	0,109
-504,956	-200,000	0,004	0,080
-503,941	120,056	0,174	0,160
-502,926	800,000	-0,089	0,227
-501,912	235,325	0,010	-0,013
-500,897	-200,000	-0,009	-0,137
-499,883	185,028	-0,033	-0,036
-498,868	120,105	0,021	0,019
-497,853	268,561	0,014	-0,019
-496,839	-200,000	0,008	-0,029
-495,824	-36,319	0,072	0,028
-494,810	471,934	-0,032	-0,054
-493,795	-108,051	0,064	0,010
-492,781	437,965	0,020	-0,032
-491,766	217,800	0,031	0,036
-490,751	-200,000	-0,047	-0,199
-489,737	-200,000	-0,029	-0,105
-488,722	-200,000	-0,007	0,025
-487,708	-102,356	-0,079	-0,014
-486,693	-200,000	-0,001	-0,016
-485,678	-200,000	0,012	-0,041
-484,664	800,000	-0,032	-0,067
-483,649	-200,000	-0,019	0,084
-482,635	-82,444	0,054	-0,013
-481,620	-86,587	0,058	0,013
-480,605	754,415	-0,054	0,108
-479,591	402,264	0,030	-0,047
-478,576	-43,664	0,123	-0,045
-477,562	-160,077	-0,050	-0,002
-476,547	41,666	-0,162	-0,108
-475,532	283,090	0,021	-0,027
-474,518	364,379	0,052	0,077
-473,503	143,251	0,084	0,082
-472,489	21,472	0,049	0,029
-471,474	143,212	-0,073	-0,072
-470,459	800,000	-0,039	-0,102
-469,445	-22,605	-0,064	0,028
-468,430	54,241	0,023	0,016
-467,416	-120,270	0,039	0,005
-466,401	-37,222	0,130	0,051
-465,386	-200,000	-0,031	0,188
-464,372	-50,790	0,081	0,028
-463,357	26,717	-0,172	0,106
-462,343	50,856	-0,112	0,078
-461,328	-134,192	-0,108	-0,010
-460,313	177,534	0,035	0,038
-459,299	800,000	0,018	-0,057
-458,284	-170,861	0,079	0,002
-457,270	9,242	-0,030	0,017
-456,255	-103,633	-0,057	-0,010
-455,241	-200,000	-0,008	-0,059
-454,226	-200,000	0,006	-0,024
-453,211	-90,944	0,030	-0,006
-452,197	-165,518	-0,110	-0,003
-451,182	-118,320	0,117	-0,015
-450,168	-31,826	-0,075	0,031
-449,153	-97,948	-0,066	-0,012
-448,138	669,488	0,023	0,044
-447,124	-94,330	-0,109	-0,022
-446,109	65,388	-0,054	0,040
-445,095	-200,000	-0,012	0,154
-444,080	-200,000	0,038	0,187
-443,065	-82,668	-0,131	0,031
-442,051	-63,187	-0,079	0,024
-441,036	247,439	0,104	-0,130
-440,022	-61,250	-0,172	0,053
-439,007	-200,000	-0,037	0,129
-437,992	-1,888	0,085	-0,044
-436,978	-200,000	0,024	0,111
-435,963	37,059	-0,052	-0,034
-434,949	368,022	-0,049	-0,072
-433,934	-63,842	-0,070	-0,021
-432,919	80,441	0,027	-0,021
-431,905	74,214	0,034	0,027
-430,890	-124,752	0,141	0,016
-429,876	-200,000	0,035	0,116
-428,861	-76,478	0,051	-0,013
-427,846	-193,665	-0,052	-0,000
-426,832	-98,992	-0,154	-0,029
-425,817	669,725	-0,024	0,047
-424,803	-6,176	-0,152	0,076
-423,788	-200,000	0,045	0,156
-422,773	25,832	0,063	-0,038
-421,759	-200,000	-0,011	0,111
-420,744	800,000	-0,006	-0,015
-419,730	90,854	-0,020	0,016
-418,715	-136,656	-0,070	-0,006
-417,701	-24,694	0,114	0,050
-416,686	-118,389	-0,064	-0,008
-415,671	-52,100	0,191	0,065
-414,657	-66,742	0,092	-0,027
-413,642	156,417	-0,059	-0,060
-412,628	25,744	-0,073	0,045
-411,613	-101,671	-0,160	0,028
-410,598	-67,482	0,046	-0,013
-409,584	-86,945	-0,199	0,044
-408,569	-79,718	0,114	0,028
-407,555	77,232	0,099	0,078
-406,540	-62,001	0,111	-0,034
-405,525	800,000	-0,012	0,030
-404,511	-200,000	-0,010	0,125
-403,496	23,685	0,129	0,078
-402,482	800,000	0,036	-0,107
-401,467	102,348	-0,120	0,103
-400,452	-200,000	0,030	0,097
-399,438	-189,448	0,128	-0,001
-398,423	658,067	0,060	-0,114
-397,409	800,000	0,013	0,027
-396,394	382,950	-0,063	0,096
-395,379	14,229	0,024	-0,013
-394,365	800,000	0,042	0,087
-393,350	139,421	0,009	0,008
-392,336	-200,000	-0,001	0,038
-391,321	34,389	-0,015	0,010
-390,306	118,426	-0,114	-0,103
-389,292	59,751	0,187	-0,135
-388,277	-92,121	0,085	-0,018
-387,263	-200,000	-0,008	-0,105
-386,248	-200,000	0,041	0,137
-385,233	-100,791	-0,083	-0,015
-384,219	-126,355	-0,100	0,011
-383,204	-24,976	0,062	0,027
-382,190	-89,287	-0,135	-0,029
-381,175	-200,000	0,001	0,048
-380,160	17,167	0,118	0,069
-379,146	800,000	-0,042	0,122
-378,131	185,070	0,021	0,023
-377,117	-98,842	0,126	0,023
-376,102	-80,168	-0,107	0,026
-375,088	264,813	0,052	-0,066
-374,073	-200,000	-0,040	-0,164
-373,058	626,348	0,036	0,067
-372,044	-96,025	0,057	-0,011
-371,029	-1,270	0,128	-0,066
-370,015	-3,741	-0,018	-0,009
-369,000	30,254	0,056	-0,035
-367,985	295,843	0,089	-0,119
-366,971	-4,892	-0,115	0,058
-365,956	31,087	-0,104	0,065
-364,942	285,537	0,054	0,071
-363,927	-200,000	-0,001	0,036
-362,912	107,733	0,018	-0,016
-361,898	200,370	-0,073	-0,082
-360,883	-55,138	-0,117	-0,038
-359,869	-200,000	0,005	-0,077
-358,854	277,280	-0,011	-0,014
-357,839	-200,000	0,112	-0,000
-356,825	340,346	-0,040	0,058
-355,810	79,201	-0,124	-0,097
-354,796	-18,721	-0,096	-0,044
-353,781	-141,331	-0,102	0,008
-352,766	55,936	0,051	0,036
-351,752	-146,506	0,047	0,003
-350,737	-174,357	0,109	-0,002
-349,723	70,752	0,074	-0,056
-348,708	800,000	0,039	0,105
-347,693	-100,465	-0,104	-0,019
-346,679	-60,486	0,129	-0,040
-345,664	-145,879	-0,053	0,003
-344,650	800,000	-0,063	-0,188
-343,635	110,899	0,090	-0,079
-342,620	-72,003	0,059	0,016
-341,606	-164,559	0,187	0,006
-340,591	800,000	0,034	-0,108
-339,577	-200,000	0,004	0,041
-338,562	76,256	0,071	-0,055
-337,548	-200,000	0,029	0,259
-336,533	251,542	-0,075	0,093
-335,518	-64,161	0,131	0,039
-334,504	39,410	-0,051	-0,033
-333,489	800,000	0,039	-0,080
-332,475	182,602	0,079	0,086
-331,460	-143,561	0,041	-0,003
-330,445	117,412	0,027	-0,024
-329,431	305,858	-0,086	-0,117
-328,416	388,706	0,046	0,070
-327,402	-200,000	-0,012	0,059
-326,387	-200,000	0,006	0,073
-325,372	-200,000	0,002	0,055
-324,358	309,420	-0,094	-0,130
-323,343	-118,085	0,062	-0,008
-322,329	134,530	0,134	0,127
-321,314	59,570	-0,071	0,051
-320,299	-200,000	0,004	-0,029
-319,285	-200,000	0,016	0,089
-318,270	-134,999	0,015	-0,001
-317,256	79,850	-0,135	-0,106
-316,241	136,065	0,048	-0,045
-315,226	-200,000	-0,023	0,085
-314,212	332,461	0,021	-0,029
-313,197	-90,946	0,124	0,026
-312,183	-147,626	-0,135	-0,008
-311,168	165,700	0,036	-0,038
-310,153	80,586	-0,081	-0,064
-309,139	249,253	-0,067	-0,083
-308,124	52,508	0,022	-0,015
-307,110	781,411	0,035	0,071
-306,095	-200,000	-0,026	0,153
-305,080	-200,000	-0,004	-0,059
-304,066	-87,941	0,097	0,021
-303,051	-200,000	-0,010	-0,173
-302,037	-158,632	0,094	-0,004
-301,022	383,442	-0,088	-0,133
-300,008	12,029	0,069	0,039
-298,993	-200,000	0,019	0,097
-297,978	-200,000	-0,013	0,076
-296,964	-200,000	-0,028	-0,117
-295,949	36,549	0,067	-0,043
-294,935	-92,389	-0,071	-0,015
-293,920	-200,000	-0,020	0,087
-292,905	-99,440	-0,100	0,018
-291,891	800,000	-0,019	-0,063
-290,876	340,649	-0,071	0,102
-289,862	-138,945	-0,074	-0,006
-288,847	-200,000	0,000	-0,009
-287,832	-200,000	-0,002	0,019
-286,818	-181,004	0,176	-0,003
-285,803	53,440	-0,106	0,075
-284,789	-102,846	0,085	0,015
-283,774	565,791	0,057	0,102
-282,759	-200,000	-0,003	-0,034
-281,745	-56,050	-0,068	-0,022
-280,730	199,198	-0,079	0,088
-279,716	185,702	-0,052	0,057
-278,701	-141,274	0,083	0,006
-277,686	207,069	-0,047	-0,053
-276,672	-200,000	-0,013	0,053
-275,657	-200,000	0,019	-0,088
-274,643	-200,000	-0,008	-0,115
-273,628	-200,000	-0,003	-0,028
-272,613	-74,075	0,100	0,026
-271,599	-200,000	0,140	0,000
-270,584	-200,000	0,012	-0,075
-269,570	-68,663	-0,121	0,034
-268,555	-200,000	-0,025	-0,089
-267,540	-95,835	-0,041	-0,008
-266,526	800,000	0,077	0,190
-265,511	-48,660	-0,064	-0,022
-264,497	114,637	0,031	-0,028
-263,482	-200,000	0,006	0,140
-262,467	-168,850	-0,082	-0,002
-261,453	41,682	0,080	0,053
-260,438	-63,266	-0,054	0,016
-259,424	-81,811	0,029	0,007
-258,409	196,250	-0,046	0,051
-257,395	-87,999	0,045	0,010
-256,380	-149,709	0,119	-0,007
-255,365	-200,000	0,014	-0,092
-254,351	2,981	0,007	-0,004
-253,336	-23,104	-0,091	-0,040
-252,322	-200,000	0,003	0,069
-251,307	-200,000	0,010	-0,040
-250,292	-76,624	-0,088	-0,022
-249,278	-200,000	0,001	0,082
-248,263	17,628	0,042	0,024
-247,249	800,000	-0,033	0,074
-246,234	-200,000	0,011	-0,089
-245,219	362,040	-0,024	-0,035
-244,205	-200,000	-0,027	-0,144
-243,190	800,000	0,053	0,108
-242,176	79,887	0,069	-0,054
-241,161	547,873	0,038	0,067
-240,146	-200,000	0,011	-0,086
-239,132	125,495	0,091	-0,084
-238,117	-69,002	0,069	-0,019
-237,103	23,497	0,083	-0,050
-236,088	-1,234	-0,027	0,014
-235,073	-200,000	-0,003	-0,043
-234,059	800,000	0,015	0,044
-233,044	-81,951	-0,111	0,026
-232,030	-200,000	-0,015	-0,123
-231,015	-95,840	-0,117	-0,023
-230,000	-200,000	0,008	-0,055
-228,986	800,000	0,048	-0,144
-227,971	-26,317	-0,066	-0,028
-226,957	35,856	-0,079	0,050
-225,942	112,714	0,053	-0,047
-224,927	-200,000	-0,023	-0,075
-223,913	-32,988	-0,059	-0,024
-222,898	27,148	0,143	-0,087
-221,884	403,976	0,077	-0,119
-220,869	595,681	-0,045	-0,082
-219,855	-86,958	0,164	0,036
-218,840	-73,599	0,036	-0,010
-217,825	-200,000	-0,008	0,130
-216,811	-131,960	-0,059	-0,005
-215,796	-60,450	-0,073	0,023
-214,782	800,000	-0,008	0,025
-213,767	800,000	0,012	-0,036
-212,752	-200,000	-0,001	-0,077
-211,738	22,295	0,073	-0,043
-210,723	624,528	-0,081	0,150
-209,709	-134,522	-0,057	0,005
-208,694	292,473	-0,084	-0,112
-207,679	68,514	0,093	-0,069
-206,665	13,217	-0,084	-0,047
-205,650	-71,985	0,108	-0,029
-204,636	627,749	0,062	-0,116
-203,621	-200,000	-0,026	0,088
-202,606	-200,000	0,002	-0,019
-201,592	201,174	-0,133	-0,150
-200,577	51,996	-0,128	-0,089
-199,563	-200,000	-0,010	-0,138
-198,548	-200,000	-0,005	0,022
-197,533	-200,000	-0,011	0,099
-196,519	199,578	0,093	0,104
-195,504	-109,074	-0,037	-0,006
-194,490	147,508	-0,040	-0,039
-193,475	35,308	0,096	-0,061
-192,460	800,000	0,006	-0,017
-191,446	-85,087	0,050	0,011
-190,431	135,583	0,080	0,076
-189,417	-200,000	-0,026	0,142
-188,402	63,124	0,120	0,088
-187,387	800,000	-0,040	0,086
-186,373	-114,855	-0,048	-0,007
-185,358	-30,141	-0,075	-0,031
-184,344	28,844	0,025	-0,015
-183,329	-56,374	0,065	-0,021
-182,315	423,445	-0,082	-0,129
-181,300	77,491	0,035	-0,027
-180,285	283,155	-0,039	-0,051
-179,271	682,253	-0,011	-0,022
-178,256	-200,000	0,033	-0,129
-177,242	676,789	0,059	-0,113
-176,227	-66,228	0,031	0,009
-175,212	800,000	0,024	0,073
-174,198	-200,000	-0,021	-0,100
-173,183	114,397	0,038	0,033
-172,169	237,460	-0,112	0,136
-171,154	-200,000	-0,040	-0,176
-170,139	49,866	-0,062	-0,043
-169,125	-200,000	-0,034	0,118
-168,110	337,365	0,038	0,053
-167,096	202,607	0,036	-0,041
-166,081	519,432	-0,027	-0,047
-165,066	-126,100	0,072	-0,008
-164,052	-200,000	0,001	-0,075
-163,037	-60,748	-0,092	0,028
-162,023	83,662	0,022	0,017
-161,008	-200,000	-0,017	0,099
-159,993	25,610	-0,035	-0,021
-158,979	102,653	-0,139	0,118
-157,964	-78,478	-0,032	0,008
-156,950	-95,883	-0,187	-0,036
-155,935	800,000	-0,049	0,102
-154,920	344,684	0,023	0,033
-153,906	542,964	-0,067	0,116
-152,891	-200,000	-0,009	0,126
-151,877	-200,000	-0,009	-0,072
-150,862	263,801	-0,014	-0,018
-149,847	-117,819	-0,045	-0,006
-148,833	-83,460	-0,115	0,027
-147,818	10,977	0,071	0,039
-146,804	220,853	-0,014	0,017
-145,789	-200,000	0,007	-0,182
-144,775	702,890	0,054	-0,104
-143,760	37,505	-0,041	0,026
-142,745	-133,185	0,049	-0,004
-141,731	-117,137	0,072	0,009
-140,716	188,803	-0,027	0,029
-139,702	-58,095	0,166	-0,052
-138,687	-160,930	0,114	0,004
-137,672	258,570	0,111	0,139
-136,658	-200,000	-0,024	-0,114
-135,643	-57,132	0,091	0,029
-134,629	-114,310	-0,124	0,017
-133,614	130,038	0,126	0,118
-132,599	10,664	0,108	0,060
-131,585	-200,000	0,032	-0,118
-130,570	97,794	0,110	0,092
-129,556	-200,000	-0,006	-0,106
-128,541	-200,000	0,004	0,044
-127,526	-64,234	0,020	0,006
-126,512	-57,603	0,085	0,027
-125,497	-200,000	-0,003	0,059
-124,483	-200,000	-0,000	0,151
-123,468	649,176	-0,005	-0,009
-122,453	-106,097	0,050	-0,008
-121,439	-200,000	-0,011	-0,091
-120,424	64,872	0,077	0,057
-119,410	-200,000	0,020	-0,086
-118,395	80,825	-0,096	-0,075
-117,380	62,037	0,130	0,094
-116,366	-200,000	0,014	0,104
-115,351	-97,558	-0,073	0,014
-114,337	800,000	0,067	-0,142
-113,322	800,000	0,052	-0,114
-112,307	-200,000	0,010	-0,105
-111,293	-35,713	-0,133	0,052
-110,278	800,000	0,015	0,038
-109,264	212,478	-0,141	0,162
-108,249	-200,000	-0,007	-0,066
-107,234	-47,154	-0,103	-0,036
-106,220	800,000	0,043	-0,090
-105,205	800,000	-0,034	0,078
-104,191	721,021	0,038	0,073
-103,176	-200,000	0,017	-0,060
-102,162	-31,042	-0,037	-0,015
-101,147	-200,000	-0,046	0,181
-100,132	25,175	-0,047	0,028
-99,118	-153,886	0,135	0,007
-98,103	800,000	-0,030	-0,068
-97,089	130,536	-0,014	0,014
-96,074	517,462	-0,028	-0,047
-95,059	24,089	-0,094	0,056
-94,045	-28,863	-0,142	0,059
-93,030	161,341	-0,116	-0,117
-92,016	-200,000	-0,016	0,108
-91,001	600,703	-0,017	0,031
-89,986	-200,000	0,000	-0,118
-88,972	800,000	0,102	0,242
-87,957	142,700	0,079	0,076
-86,943	334,726	0,077	-0,109
-85,928	-200,000	-0,028	-0,134
-84,913	-200,000	0,009	-0,089
-83,899	34,754	-0,094	-0,060
-82,884	-100,653	0,088	-0,016
-81,870	800,000	0,034	0,076
-80,855	-18,773	0,046	0,021
-79,840	360,591	0,022	-0,032
-78,826	21,706	0,130	-0,076
-77,811	542,065	0,117	0,204
-76,797	149,331	-0,072	0,071
-75,782	800,000	0,051	0,105
-74,767	-39,408	-0,072	-0,027
-73,753	85,229	0,086	0,069
-72,738	800,000	-0,024	-0,048
-71,724	-0,327	0,058	0,030
-70,709	-140,879	-0,090	0,007
-69,694	-57,692	-0,064	0,020
-68,680	-5,102	-0,054	-0,027
-67,665	161,255	0,082	0,084
-66,651	35,325	0,120	0,076
-65,636	103,943	0,051	0,044
-64,622	16,476	-0,052	0,030
-63,607	557,477	-0,072	0,126
-62,592	222,450	-0,084	-0,098
-61,578	-127,124	0,108	0,011
-60,563	-60,270	-0,072	0,022
-59,549	-200,000	-0,023	0,076
-58,534	-114,311	-1,505	-0,208
-57,519	441,956	-0,961	-1,532
-56,505	-200,000	-0,951	-4,442
-55,490	-59,110	0,520	-0,162
-54,476	800,000	4,873	11,676
-53,461	-200,000	13,947	253,326
-52,446	-200,000	693,033	2240,419
-51,432	575,057	1623,647	2885,672
-50,417	117,558	1633,189	1457,095
-49,403	72,370	1286,795	971,348
-48,388	37,542	1023,172	656,841
-47,373	23,916	981,324	585,197
-46,359	23,183	970,855	576,529
-45,344	22,144	966,715	570,655
-44,330	22,108	965,040	569,524
-43,315	22,012	963,721	568,413
-42,300	21,944	962,797	567,625
-41,286	22,015	961,537	567,089
-40,271	21,936	960,785	566,367
-39,257	21,953	959,812	565,827
-38,242	21,953	958,837	565,229
-37,227	21,980	957,981	564,788
-36,213	21,899	957,205	564,046
-35,198	21,872	956,258	563,378
-34,184	21,934	955,562	563,147
-33,169	21,992	954,637	562,768
-32,154	21,958	953,831	562,159
-31,140	22,080	952,634	561,825
-30,125	21,935	952,262	561,116
-29,111	21,982	951,307	560,681
-28,096	21,998	950,510	560,241
-27,082	22,037	949,955	560,018
-26,067	22,016	949,194	559,481
-25,052	21,949	948,606	558,897
-24,038	21,952	947,902	558,467
-23,023	22,023	947,053	558,174
-22,009	22,006	946,569	557,811
-20,994	21,979	946,006	557,371
-19,979	22,005	945,400	557,075
-18,965	21,992	944,716	556,607
-17,950	22,025	943,862	556,188
-16,936	21,890	943,329	555,421
-15,921	21,893	942,517	554,932
-14,906	21,872	941,852	554,451
-13,892	21,876	941,509	554,239
-12,877	21,913	940,476	553,726
-11,863	21,834	939,895	553,113
-10,848	21,847	939,653	552,989
-9,833	22,007	938,971	553,072
-8,819	21,914	938,598	552,536
-7,804	21,871	937,764	551,889
-6,790	21,860	937,321	551,569
-5,775	21,839	936,587	551,051
-4,760	21,830	936,235	550,794
-3,746	21,844	935,311	550,271
-2,731	21,732	934,648	549,508
-1,717	21,614	934,094	548,787
-0,702	21,743	933,227	548,664
0,313	21,577	932,650	548,628
1,327	24,545	930,761	556,793
2,342	34,135	794,724	500,911
3,356	31,920	450,879	280,829
4,371	1,160	293,861	152,334
5,386	-3,477	274,835	138,070
6,400	-4,652	269,188	134,130
7,415	-5,096	266,922	132,580
8,429	-4,845	265,634	132,159
9,444	-4,627	264,843	131,952
10,459	-4,767	264,114	131,450
11,473	-4,954	263,722	131,073
12,488	-4,887	263,160	130,843
13,502	-5,050	262,452	130,331
14,517	-4,940	261,990	130,190
15,531	-4,831	261,813	130,189
16,546	-4,979	261,629	129,952
17,561	-4,853	260,961	129,722
18,575	-4,733	260,686	129,682
19,590	-4,812	260,442	129,477
20,604	-4,971	260,133	129,170
21,619	-5,077	259,719	128,858
22,634	-5,025	259,347	128,709
23,648	-5,063	259,021	128,501
24,663	-5,034	258,855	128,434
25,677	-5,035	258,572	128,281
26,692	-4,966	258,429	128,259
27,707	-5,093	258,051	127,947
28,721	-4,886	257,815	128,003
29,736	-5,203	257,572	127,590
30,750	-5,009	257,314	127,623
31,765	-4,946	257,122	127,572
32,780	-5,199	257,031	127,292
33,794	-4,939	256,504	127,249
34,809	-4,963	256,398	127,164
35,823	-5,017	256,163	126,988
36,838	-5,142	255,952	126,762
37,853	-5,266	255,637	126,485
38,867	-5,147	255,440	126,482
39,882	-5,204	255,231	126,317
40,896	-5,220	254,966	126,160
41,911	-5,269	254,789	126,018
42,926	-4,955	254,505	126,142
43,940	-5,008	254,293	125,979
44,955	-5,193	254,025	125,673
45,969	-5,182	253,977	125,648
46,984	-5,411	253,619	125,260
47,999	-5,566	253,549	125,079
49,013	-5,539	253,081	124,860
50,028	-5,588	252,899	124,717
51,042	-5,780	252,710	124,446
52,057	-5,699	252,344	124,324
53,071	-5,700	252,227	124,255
54,086	-5,696	252,135	124,203
55,101	-5,588	251,883	124,160
56,115	-5,414	251,754	124,237
57,130	-4,893	251,648	124,623
58,144	-4,952	251,528	124,502
59,159	-4,703	251,318	124,601
60,174	-4,818	250,992	124,330
61,188	-4,857	250,927	124,253
62,203	-4,732	250,642	124,208
63,217	-5,021	250,549	123,902
64,232	-4,963	250,333	123,834
65,247	-4,740	249,980	123,841
66,261	-4,934	249,842	123,594
67,276	-5,180	249,585	123,245
68,290	-5,358	249,250	122,916
69,305	-5,338	249,036	122,817
70,320	-5,351	248,812	122,685
71,334	-5,030	248,775	122,930
72,349	-5,046	248,705	122,871
73,363	-5,038	248,548	122,789
74,378	-4,997	248,188	122,636
75,393	-4,789	247,967	122,692
76,407	-4,957	247,770	122,441
77,422	-4,873	247,525	122,380
78,436	-4,892	247,423	122,303
79,451	-4,914	247,150	122,139
80,466	-5,055	246,918	121,893
81,480	-5,178	246,701	121,671
82,495	-5,121	246,468	121,593
83,509	-5,119	246,345	121,524
84,524	-5,242	246,188	121,332
85,539	-5,354	246,065	121,166
86,553	-5,423	245,763	120,948
87,568	-5,212	245,733	121,100
88,582	-5,124	245,445	121,021
89,597	-5,281	245,072	120,695
90,611	-5,214	245,166	120,787
91,626	-5,030	244,824	120,762
92,641	-5,023	244,716	120,703
93,655	-5,101	244,583	120,562
94,670	-4,922	244,304	120,563
95,684	-5,203	244,183	120,258
96,699	-5,051	244,115	120,341
97,714	-5,177	243,837	120,087
98,728	-5,227	243,568	119,903
99,743	-5,430	243,355	119,619
100,757	-5,312	243,214	119,637
101,772	-5,327	242,799	119,410
102,787	-5,316	242,811	119,414
103,801	-5,343	242,798	119,375
104,816	-5,141	242,599	119,433
105,830	-5,219	242,499	119,309
106,845	-4,922	242,184	119,390
107,860	-4,805	241,957	119,363
108,874	-5,167	241,830	118,990
109,889	-5,117	241,635	118,925
110,903	-5,030	241,489	118,915
111,918	-5,152	241,232	118,677
112,933	-5,131	241,025	118,582
113,947	-4,982	240,913	118,639
114,962	-4,887	240,675	118,589
115,976	-4,821	240,458	118,526
116,991	-5,019	240,402	118,326
118,006	-5,245	240,357	118,107
119,020	-5,059	240,124	118,135
120,035	-4,993	240,129	118,181
121,049	-5,048	239,925	118,025
122,064	-4,843	239,627	118,036
123,079	-4,979	239,440	117,821
124,093	-5,106	239,224	117,601
125,108	-5,040	238,950	117,510
126,122	-5,538	238,816	117,027
127,137	-5,580	238,571	116,862
128,151	-5,314	238,454	117,011
129,166	-5,131	238,209	117,030
130,181	-5,105	238,001	116,938
131,195	-5,216	237,841	116,758
132,210	-5,228	237,785	116,711
133,224	-5,095	237,590	116,713
134,239	-4,940	237,501	116,784
135,254	-5,074	237,445	116,638
136,268	-5,021	236,998	116,451
137,283	-5,469	236,930	116,045
138,297	-5,564	236,509	115,752
139,312	-5,377	236,533	115,904
140,327	-5,091	236,274	115,997
141,341	-4,697	236,321	116,327
142,356	-4,683	236,146	116,243
143,370	-4,602	236,044	116,246
144,385	-4,763	235,872	116,023
145,400	-4,825	235,798	115,926
146,414	-4,844	235,558	115,782
147,429	-4,777	235,363	115,730
148,443	-4,919	235,177	115,514
149,458	-4,837	235,007	115,486
150,473	-4,866	234,902	115,401
151,487	-4,779	234,741	115,381
152,502	-4,755	234,459	115,252
153,516	-4,646	234,275	115,237
154,531	-4,689	234,162	115,138
155,546	-4,951	233,970	114,824
156,560	-5,064	233,813	114,646
157,575	-4,852	233,668	114,735
158,589	-4,855	233,421	114,600
159,604	-4,669	233,297	114,676
160,619	-4,607	233,108	114,623
161,633	-4,645	233,019	114,539
162,648	-4,582	232,886	114,513
163,662	-4,668	232,653	114,320
164,677	-4,868	232,564	114,108
165,692	-4,569	232,441	114,274
166,706	-4,656	232,192	114,073
167,721	-4,621	232,006	113,998
168,735	-4,612	231,972	113,979
169,750	-4,761	231,957	113,844
170,764	-4,680	231,642	113,743
171,779	-4,832	231,595	113,590
172,794	-4,759	231,328	113,506
173,808	-4,981	231,171	113,245
174,823	-5,191	230,868	112,921
175,837	-5,386	230,777	112,713
176,852	-4,943	230,690	113,009
177,867	-4,805	230,517	113,022
178,881	-4,626	230,537	113,161
179,896	-4,473	230,225	113,118
180,910	-4,682	230,169	112,917
181,925	-4,582	229,918	112,862
182,940	-4,538	229,819	112,838
183,954	-4,332	229,629	112,895
184,969	-4,405	229,483	112,757
185,983	-4,554	229,355	112,567
186,998	-4,507	229,183	112,510
188,013	-4,499	228,917	112,375
189,027	-4,334	228,860	112,465
190,042	-4,622	228,809	112,207
191,056	-4,618	228,670	112,131
192,071	-4,472	228,398	112,101
193,086	-4,618	228,226	111,893
194,100	-4,642	228,057	111,782
195,115	-4,771	227,722	111,508
196,129	-5,375	227,441	110,894
197,144	-2,944	228,192	113,133
198,159	1,115	229,360	116,853
199,173	3,779	230,061	119,270
200,188	4,062	230,104	119,502
201,202	4,129	229,868	119,420
202,217	4,192	229,756	119,400
203,232	4,328	229,755	119,494
204,246	4,402	229,650	119,486
205,261	4,667	229,432	119,567
206,275	4,748	229,288	119,544
207,290	4,742	229,145	119,454
208,304	4,570	229,077	119,275
209,319	4,557	228,840	119,132
210,334	4,472	228,780	119,024
211,348	4,470	228,348	118,787
212,363	3,988	228,078	118,265
213,377	3,683	228,085	118,024
214,392	3,803	227,829	117,973
215,407	3,781	227,791	117,926
216,421	4,185	227,490	118,069
217,436	3,890	227,472	117,823
218,450	3,632	227,166	117,457
219,465	3,495	226,988	117,250
220,480	3,716	226,829	117,327
221,494	3,535	226,830	117,178
222,509	3,775	226,516	117,188
223,523	3,765	226,423	117,122
224,538	3,768	226,263	117,032
225,553	3,703	226,209	116,943
226,567	3,709	226,175	116,920
227,582	3,936	225,997	116,990
228,596	4,184	226,007	117,174
229,611	4,019	225,716	116,887
230,626	3,808	225,442	116,574
231,640	3,756	225,202	116,400
232,655	3,896	225,294	116,544
233,669	4,425	225,121	116,844
234,684	4,437	225,090	116,827
235,699	4,068	224,856	116,416
236,713	3,886	224,700	116,187
237,728	3,692	224,420	115,886
238,742	3,826	224,275	115,902
239,757	3,787	224,130	115,787
240,772	3,777	224,010	115,707
241,786	3,796	223,727	115,565
242,801	4,048	223,752	115,757
243,815	3,985	223,828	115,739
244,830	4,213	223,559	115,761
245,844	3,863	223,287	115,347
246,859	4,066	222,987	115,333
247,874	3,937	223,031	115,249
248,888	4,101	222,951	115,321
249,903	4,056	222,683	115,138
250,917	3,912	222,673	115,015
251,932	3,605	222,407	114,638
252,947	3,701	222,345	114,668
253,961	3,931	222,056	114,680
254,976	3,614	221,981	114,395
255,990	3,911	221,872	114,550
257,005	3,980	221,803	114,555
258,020	4,187	221,589	114,588
259,034	4,118	221,557	114,510
260,049	4,092	221,264	114,329
261,063	3,976	221,103	114,150
262,078	4,202	221,148	114,331
263,093	4,244	221,104	114,329
264,107	4,069	220,867	114,066
265,122	4,312	220,700	114,149
266,136	4,425	220,616	114,180
267,151	4,151	220,470	113,892
268,166	3,932	220,182	113,571
269,180	3,694	219,968	113,275
270,195	3,600	219,829	113,124
271,209	3,629	219,597	113,016
272,224	3,843	219,553	113,140
273,239	3,933	219,479	113,158
274,253	3,709	219,357	112,921
275,268	3,755	219,030	112,776
276,282	3,564	218,982	112,601
277,297	3,434	218,747	112,375
278,312	3,684	218,636	112,491
279,326	3,763	218,585	112,513
280,341	3,698	218,416	112,369
281,355	4,049	218,298	112,555
282,370	3,725	218,176	112,244
283,384	3,598	217,936	112,018
284,399	3,504	217,556	111,744
285,414	3,691	217,516	111,850
286,428	3,669	217,589	111,862
287,443	3,840	217,497	111,929
288,457	3,906	217,335	111,884
289,472	3,812	217,107	111,688
290,487	3,422	216,851	111,263
291,501	3,258	216,756	111,085
292,516	3,297	216,660	111,054
293,530	3,068	216,518	110,806
294,545	3,285	216,337	110,861
295,560	3,596	216,404	111,110
296,574	3,820	216,132	111,122
297,589	3,822	216,056	111,075
298,603	3,612	216,056	110,913
299,618	3,705	215,833	110,856
300,633	3,728	215,711	110,800
301,647	4,076	215,739	111,055
302,662	3,914	215,437	110,774
303,676	3,936	215,223	110,670
304,691	4,108	215,245	110,795
305,706	4,021	215,045	110,620
306,720	4,100	214,897	110,591
307,735	3,926	214,725	110,367
308,749	3,702	214,607	110,136
309,764	3,805	214,615	110,204
310,779	3,975	214,430	110,221
311,793	3,996	214,159	110,087
312,808	3,968	213,999	109,975
313,822	4,057	213,889	109,972
314,837	3,721	213,804	109,679
315,852	3,588	213,518	109,427
316,866	3,861	213,411	109,557
317,881	3,829	213,448	109,544
318,895	4,252	213,205	109,710
319,910	3,839	212,965	109,283
320,925	3,576	212,904	109,055
321,939	3,261	212,645	108,689
322,954	3,364	212,534	108,696
323,968	3,665	212,539	108,902
324,983	3,807	212,506	108,977
325,997	4,106	212,336	109,091
327,012	3,679	212,207	108,713
328,027	3,876	212,180	108,829
329,041	4,245	211,820	108,895
330,056	4,257	211,824	108,896
331,070	4,111	211,414	108,572
332,085	3,692	211,273	108,196
333,100	3,680	211,261	108,171
334,114	3,784	211,082	108,143
335,129	3,912	211,038	108,201
336,143	3,548	210,970	107,900
337,158	3,698	210,673	107,845
338,173	3,699	210,698	107,848
339,187	3,623	210,457	107,662
340,202	3,405	210,209	107,373
341,216	3,503	210,064	107,357
342,231	3,762	210,008	107,501
343,246	3,327	209,920	107,141
344,260	3,665	209,828	107,321
345,275	3,618	209,720	107,224
346,289	3,905	209,695	107,402
347,304	3,797	209,447	107,190
348,319	3,898	209,336	107,194
349,333	3,695	209,169	106,958
350,348	3,953	209,087	107,086
351,362	4,093	208,903	107,080
352,377	4,210	208,793	107,095
353,392	3,857	208,651	106,767
354,406	4,124	208,573	106,903
355,421	192,971	1345,774	1430,352
356,435	153,936	1484,419	1430,468
