DTS Sentinel unit serial number:	SN410029Multiplexer serial number:	ORYXHardware model number:	OX2-SRSoftware version number:	ORYX F/W v4,00 Oryx Data Collector v3.7.2.0data status	okinstallation	B6 Nyhavnadifferential loss correction	single-endedforward channel	channel 2reverse channel	N/Adate	2023/12/08time	23:30:08forward acquisition time	300,00reverse acquisition time	0,00gamma	499,1914k internal	0,3157k external	0,3157temperature offset calibration	1,0000default loss term (dB/km)	0,3820temperature slope calibration	1,0000multiplexer offset coefficient	1,0000multiplexer slope coefficient	1,0000fibre end	0,00T internal ref (°C)	15,45T ext. ref 1 (°C)	-0,95T ext. ref 2 (°C)	-0,96length (m)	temperature (°C)	Stokes	anti-Stokes-744,400	33,975	0,063	0,040
-743,385	-134,540	-0,240	0,021
-742,371	-122,753	0,102	0,012
-741,356	-142,191	-0,368	-0,026
-740,342	800,000	0,039	0,099
-739,327	-70,134	-0,312	-0,087
-738,312	-123,177	0,020	-0,002
-737,298	-155,108	-0,418	0,020
-736,283	-200,000	-0,002	-0,139
-735,269	-57,087	-0,353	-0,114
-734,254	414,611	0,028	0,045
-733,239	-90,050	-0,444	-0,095
-732,225	-51,874	0,157	0,054
-731,210	42,297	-0,061	0,041
-730,196	14,866	-0,083	-0,048
-729,181	124,266	-0,049	-0,046
-728,167	337,503	-0,081	-0,116
-727,152	-54,885	-0,022	-0,007
-726,137	12,328	-0,125	-0,071
-725,123	12,550	-0,119	0,067
-724,108	741,913	-0,026	-0,052
-723,094	60,105	-0,104	-0,076
-722,079	800,000	-0,112	-0,318
-721,064	-58,825	-0,034	-0,011
-720,050	-190,143	-0,132	-0,001
-719,035	194,814	0,017	-0,019
-718,021	137,963	-0,020	0,019
-717,006	-200,000	0,029	-0,107
-715,991	42,172	-0,153	-0,102
-714,977	-200,000	-0,031	-0,134
-713,962	800,000	-0,028	-0,085
-712,948	576,963	-0,038	-0,069
-711,933	-116,455	0,032	0,004
-710,918	-200,000	0,006	-0,091
-709,904	206,773	0,023	-0,026
-708,889	-120,852	-0,185	0,023
-707,875	167,487	-0,054	0,057
-706,860	-84,526	0,073	0,017
-705,845	396,996	0,022	-0,033
-704,831	-200,000	0,003	-0,107
-703,816	-200,000	-0,002	0,030
-702,802	103,749	-0,025	0,021
-701,787	40,597	-0,032	-0,021
-700,772	753,594	-0,021	-0,043
-699,758	-88,800	0,036	0,008
-698,743	-200,000	-0,006	0,090
-697,729	-200,000	-0,000	-0,027
-696,714	-133,615	-0,179	0,016
-695,699	451,578	0,048	-0,079
-694,685	43,992	-0,099	-0,067
-693,670	4,117	-0,124	-0,067
-692,656	88,447	0,063	-0,052
-691,641	-80,521	-0,158	-0,039
-690,627	217,085	-0,063	0,074
-689,612	444,926	-0,108	-0,176
-688,597	-120,572	-0,031	-0,004
-687,583	-83,830	-0,131	-0,031
-686,568	297,604	0,020	-0,028
-685,554	-200,000	-0,030	0,141
-684,539	547,787	-0,037	0,065
-683,524	-61,207	-0,076	-0,024
-682,510	127,707	0,137	0,128
-681,495	800,000	-0,039	0,097
-680,481	421,806	0,033	-0,052
-679,466	272,392	-0,062	-0,081
-678,451	-200,000	-0,022	-0,301
-677,437	-200,000	-0,021	0,069
-676,422	-54,835	-0,040	-0,013
-675,408	800,000	0,034	-0,093
-674,393	-7,013	-0,124	0,062
-673,378	-200,000	0,003	0,037
-672,364	123,937	-0,136	-0,126
-671,349	-49,339	-0,050	-0,017
-670,335	-2,166	0,058	-0,030
-669,320	-141,210	0,151	0,011
-668,305	77,332	-0,077	-0,060
-667,291	325,137	0,057	0,080
-666,276	-28,156	-0,130	0,055
-665,262	108,037	-0,096	-0,084
-664,247	-200,000	-0,017	-0,079
-663,232	144,082	0,032	-0,032
-662,218	44,058	-0,128	-0,086
-661,203	762,529	0,051	-0,102
-660,189	38,696	-0,080	-0,052
-659,174	-200,000	-0,032	-0,125
-658,159	197,560	-0,009	0,010
-657,145	-200,000	-0,010	-0,166
-656,130	-200,000	-0,005	0,153
-655,116	638,460	-0,014	-0,025
-654,101	-11,524	0,165	0,080
-653,086	264,635	-0,092	0,118
-652,072	-200,000	0,016	-0,058
-651,057	-80,905	-0,127	-0,031
-650,043	800,000	-0,025	-0,052
-649,028	800,000	-0,061	-0,128
-648,014	800,000	0,038	-0,098
-646,999	333,497	0,034	0,049
-645,984	-88,403	-0,037	-0,008
-644,970	-43,842	0,021	-0,008
-643,955	-38,824	-0,094	-0,036
-642,941	-200,000	0,010	-0,146
-641,926	3,310	-0,024	-0,013
-640,911	537,089	-0,033	-0,057
-639,897	800,000	0,058	0,139
-638,882	29,256	0,139	0,086
-637,868	14,395	0,110	0,063
-636,853	166,830	-0,130	-0,135
-635,838	-200,000	-0,029	-0,136
-634,824	-200,000	-0,010	-0,060
-633,809	-200,000	-0,029	-0,100
-632,795	-74,438	-0,051	0,013
-631,780	783,463	0,025	-0,051
-630,765	-200,000	0,019	-0,110
-629,751	-8,651	-0,079	-0,039
-628,736	23,396	0,121	-0,073
-627,722	302,613	-0,005	-0,007
-626,707	-85,156	0,027	0,006
-625,692	-2,019	0,126	0,065
-624,678	232,013	0,098	0,118
-623,663	-200,000	-0,026	-0,114
-622,649	800,000	-0,018	-0,046
-621,634	-19,579	-0,066	0,030
-620,619	-147,913	-0,122	-0,007
-619,605	800,000	0,032	0,096
-618,590	-55,354	0,093	-0,030
-617,576	236,264	0,018	-0,022
-616,561	-91,910	-0,058	0,012
-615,546	-171,951	-0,114	0,003
-614,532	-92,052	-0,079	-0,016
-613,517	19,624	0,020	0,012
-612,503	-200,000	-0,001	-0,004
-611,488	2,065	0,071	0,038
-610,474	591,514	-0,031	-0,056
-609,459	326,234	-0,136	-0,191
-608,444	800,000	0,024	-0,058
-607,430	77,885	0,030	-0,023
-606,415	76,982	-0,094	-0,074
-605,401	16,713	0,038	0,022
-604,386	-154,521	0,096	-0,005
-603,371	-200,000	-0,002	-0,189
-602,357	217,715	-0,057	0,066
-601,342	240,914	0,086	-0,105
-600,328	14,006	-0,047	0,027
-599,313	219,320	0,038	-0,045
-598,298	481,493	0,034	0,057
-597,284	59,048	0,134	-0,097
-596,269	63,932	0,041	0,030
-595,255	-80,686	-0,138	0,033
-594,240	54,922	0,061	-0,043
-593,225	75,833	0,101	-0,078
-592,211	386,135	-0,020	-0,030
-591,196	800,000	0,032	-0,074
-590,182	103,966	0,064	0,055
-589,167	57,935	-0,025	0,018
-588,152	-86,526	-0,141	-0,031
-587,138	-158,405	0,074	0,003
-586,123	131,372	0,057	-0,054
-585,109	-200,000	0,027	-0,108
-584,094	-61,320	-0,105	0,032
-583,079	253,013	0,060	0,076
-582,065	185,225	-0,023	0,025
-581,050	402,658	-0,026	-0,041
-580,036	-200,000	0,001	-0,049
-579,021	-96,846	-0,104	-0,020
-578,006	80,189	0,060	0,047
-576,992	-200,000	0,005	0,026
-575,977	-49,215	0,104	-0,036
-574,963	184,224	0,031	0,033
-573,948	65,841	0,033	0,025
-572,934	-200,000	-0,008	-0,037
-571,919	65,144	0,057	-0,042
-570,904	-15,042	-0,205	0,096
-569,890	-123,749	0,136	0,016
-568,875	70,894	0,054	-0,041
-567,861	-27,698	0,073	-0,031
-566,846	34,868	-0,078	0,050
-565,831	-18,929	-0,084	0,038
-564,817	447,743	-0,082	0,132
-563,802	-70,142	-0,135	0,037
-562,788	-64,392	0,181	-0,053
-561,773	523,171	0,033	0,056
-560,758	-118,232	0,149	-0,019
-559,744	-200,000	0,010	0,110
-558,729	-34,678	-0,163	0,065
-557,715	14,274	-0,050	-0,028
-556,700	-2,723	-0,042	-0,021
-555,685	-41,441	-0,072	0,027
-554,671	-68,405	0,075	0,021
-553,656	759,070	0,022	0,043
-552,642	-1,037	0,108	0,056
-551,627	40,864	0,051	-0,033
-550,612	-128,997	-0,151	0,015
-549,598	97,384	-0,028	0,023
-548,583	-19,974	-0,067	-0,030
-547,569	-101,450	0,090	0,016
-546,554	-200,000	-0,010	0,155
-545,539	800,000	-0,040	0,087
-544,525	-200,000	-0,003	-0,068
-543,510	800,000	0,061	-0,157
-542,496	800,000	0,032	-0,089
-541,481	-51,448	-0,077	0,026
-540,466	-184,104	-0,051	0,001
-539,452	169,125	-0,051	-0,053
-538,437	26,768	0,095	-0,058
-537,423	-24,597	0,048	-0,021
-536,408	-200,000	0,004	-0,104
-535,393	-38,421	-0,047	-0,018
-534,379	53,345	-0,025	-0,018
-533,364	800,000	0,015	-0,041
-532,350	-200,000	0,001	0,043
-531,335	-121,528	0,071	0,009
-530,321	-160,331	0,135	-0,005
-529,306	-31,604	-0,085	-0,035
-528,291	237,222	0,055	0,067
-527,277	196,149	-0,093	-0,103
-526,262	180,125	0,028	-0,030
-525,248	-123,487	-0,085	-0,010
-524,233	-23,339	0,095	0,042
-523,218	-9,885	0,059	-0,029
-522,204	-96,572	-0,092	-0,018
-521,189	-38,593	-0,079	-0,030
-520,175	50,352	-0,114	-0,079
-519,160	-200,000	-0,002	0,025
-518,145	800,000	0,021	-0,056
-517,131	-116,491	0,080	0,011
-516,116	-200,000	-0,033	0,145
-515,102	800,000	-0,063	0,141
-514,087	354,186	-0,046	-0,067
-513,072	-200,000	-0,000	-0,026
-512,058	23,284	-0,064	0,038
-511,043	312,518	0,049	0,068
-510,029	22,412	0,074	-0,044
-509,014	-177,646	-0,104	-0,002
-507,999	94,848	0,053	0,044
-506,985	-200,000	0,008	0,038
-505,970	800,000	-0,073	-0,157
-504,956	-14,384	0,086	0,040
-503,941	-17,831	-0,045	0,021
-502,926	800,000	0,036	0,093
-501,912	148,169	0,030	-0,030
-500,897	-38,747	-0,031	-0,012
-499,883	-34,496	-0,143	-0,057
-498,868	156,908	-0,054	-0,055
-497,853	-200,000	-0,011	0,083
-496,839	126,433	0,047	-0,043
-495,824	-200,000	0,026	0,126
-494,810	800,000	0,041	0,118
-493,795	-127,862	0,046	-0,005
-492,781	-7,398	-0,068	0,034
-491,766	80,855	0,051	0,040
-490,751	348,024	0,039	0,056
-489,737	-200,000	-0,064	0,000
-488,722	-79,567	-0,063	-0,015
-487,708	-200,000	0,000	0,094
-486,693	382,701	0,060	-0,090
-485,678	-174,763	0,066	-0,001
-484,664	-95,506	0,086	-0,017
-483,649	232,634	0,096	-0,115
-482,635	-200,000	0,001	0,044
-481,620	516,136	-0,094	0,161
-480,605	-200,000	-0,030	0,112
-479,591	-200,000	-0,017	0,157
-478,576	228,680	-0,034	-0,040
-477,562	292,331	-0,083	0,110
-476,547	109,170	0,092	-0,080
-475,532	-200,000	-0,015	-0,111
-474,518	-200,000	0,015	0,132
-473,503	139,484	0,004	0,004
-472,489	800,000	0,033	0,101
-471,474	-200,000	0,021	-0,084
-470,459	75,497	-0,013	-0,010
-469,445	-56,908	-0,049	-0,016
-468,430	-9,543	0,064	0,031
-467,416	800,000	-0,021	0,047
-466,401	-182,064	0,058	0,001
-465,386	-200,000	0,004	-0,034
-464,372	800,000	0,031	0,067
-463,357	23,959	0,019	-0,011
-462,343	-200,000	-0,008	0,034
-461,328	132,266	0,041	0,038
-460,313	61,599	-0,019	-0,014
-459,299	39,613	-0,112	-0,073
-458,284	192,531	-0,017	-0,019
-457,270	-200,000	0,032	-0,106
-456,255	800,000	-0,062	0,128
-455,241	293,678	0,066	0,089
-454,226	193,165	-0,087	-0,096
-453,211	262,449	0,093	0,118
-452,197	410,201	-0,094	0,145
-451,182	109,527	0,068	0,059
-450,168	144,925	0,053	0,052
-449,153	195,125	0,018	-0,020
-448,138	800,000	0,045	-0,124
-447,124	-68,327	-0,070	-0,020
-446,109	-90,816	0,117	0,024
-445,095	-45,855	0,108	0,039
-444,080	-156,359	-0,069	-0,003
-443,065	-111,183	0,174	-0,026
-442,051	351,297	-0,046	-0,066
-441,036	520,099	-0,081	-0,138
-440,022	65,353	0,097	-0,071
-439,007	752,561	0,033	0,065
-437,992	411,371	-0,023	0,035
-436,978	-200,000	0,008	0,086
-435,963	-200,000	-0,010	0,052
-434,949	-200,000	-0,021	0,089
-433,934	5,853	0,128	-0,069
-432,919	-200,000	-0,016	0,060
-431,905	-61,861	-0,128	-0,039
-430,890	127,054	0,018	-0,017
-429,876	764,224	0,026	-0,052
-428,861	4,043	0,150	-0,080
-427,846	158,312	-0,054	0,055
-426,832	-127,615	0,141	-0,015
-425,817	-200,000	-0,041	-0,145
-424,803	349,412	-0,064	-0,092
-423,788	225,714	0,128	0,151
-422,773	12,917	0,074	0,041
-421,759	224,951	0,037	0,044
-420,744	139,858	0,096	0,092
-419,730	-200,000	-0,024	-0,110
-418,715	800,000	-0,033	-0,103
-417,701	-3,497	0,135	-0,068
-416,686	-153,954	-0,021	0,001
-415,671	32,085	0,069	-0,043
-414,657	-200,000	-0,015	0,091
-413,642	14,518	0,083	0,047
-412,628	800,000	-0,039	0,120
-411,613	-200,000	-0,014	-0,077
-410,598	800,000	0,034	0,074
-409,584	800,000	0,044	0,129
-408,569	77,817	0,151	0,117
-407,555	800,000	0,016	0,049
-406,540	35,643	-0,020	-0,012
-405,525	-200,000	0,010	0,035
-404,511	-100,722	-0,179	-0,032
-403,496	800,000	0,024	-0,071
-402,482	-200,000	0,011	-0,099
-401,467	-200,000	0,038	0,156
-400,452	-200,000	0,020	-0,082
-399,438	659,707	-0,047	0,089
-398,423	-55,399	-0,085	0,027
-397,409	32,029	-0,069	-0,043
-396,394	800,000	0,010	0,025
-395,379	-18,831	0,036	-0,016
-394,365	-24,388	-0,136	0,059
-393,350	-51,138	0,085	0,029
-392,336	-114,988	0,086	-0,012
-391,321	800,000	0,042	0,099
-390,306	-200,000	-0,009	0,040
-389,292	315,328	-0,082	-0,113
-388,277	69,188	0,056	0,042
-387,263	17,966	0,023	-0,013
-386,248	-200,000	-0,009	-0,074
-385,233	622,004	0,024	0,044
-384,219	198,008	-0,120	-0,134
-383,204	21,059	-0,077	0,046
-382,190	-23,594	0,032	-0,014
-381,175	172,633	-0,090	0,094
-380,160	-200,000	0,009	0,197
-379,146	-200,000	0,027	0,116
-378,131	-200,000	0,012	0,062
-377,117	302,767	-0,037	0,050
-376,102	122,808	0,088	-0,080
-375,088	46,328	-0,077	-0,052
-374,073	105,602	-0,039	-0,034
-373,058	-93,296	0,095	0,019
-372,044	-200,000	-0,016	0,076
-371,029	153,506	0,016	-0,016
-370,015	-200,000	-0,004	-0,041
-369,000	-70,272	-0,050	-0,014
-367,985	-165,662	-0,099	-0,003
-366,971	-58,529	-0,130	0,041
-365,956	800,000	-0,059	0,139
-364,942	800,000	-0,035	0,096
-363,927	800,000	0,069	0,212
-362,912	-155,150	0,073	-0,003
-361,898	-154,889	-0,093	-0,004
-360,883	112,139	-0,138	0,122
-359,869	-10,815	-0,071	0,034
-358,854	435,392	0,054	-0,085
-357,839	800,000	-0,041	0,095
-356,825	-63,003	0,069	-0,020
-355,810	92,941	-0,094	-0,077
-354,796	800,000	0,051	-0,110
-353,781	-190,972	0,049	-0,000
-352,766	37,019	-0,051	-0,033
-351,752	378,347	0,094	-0,140
-350,737	-84,619	-0,074	-0,017
-349,723	800,000	-0,032	0,074
-348,708	-93,440	-0,062	-0,012
-347,693	-14,603	-0,116	-0,054
-346,679	800,000	0,003	0,009
-345,664	-183,528	-0,094	0,001
-344,650	-32,737	0,045	-0,018
-343,635	-77,464	0,134	-0,033
-342,620	542,688	0,027	-0,047
-341,606	199,351	-0,074	0,083
-340,591	-17,106	-0,132	0,060
-339,577	800,000	0,044	-0,094
-338,562	214,307	-0,068	0,079
-337,548	-86,277	-0,215	-0,048
-336,533	-58,026	-0,053	-0,017
-335,518	-200,000	-0,001	0,031
-334,504	-200,000	-0,001	0,056
-333,489	-200,000	-0,007	-0,071
-332,475	17,147	0,032	0,018
-331,460	-200,000	0,036	0,156
-330,445	88,480	-0,043	-0,034
-329,431	126,781	0,107	-0,099
-328,416	295,714	0,035	-0,046
-327,402	-200,000	-0,008	0,080
-326,387	-89,580	-0,094	0,020
-325,372	-11,940	-0,078	-0,037
-324,358	800,000	0,005	0,014
-323,343	-55,028	0,064	-0,021
-322,329	-200,000	0,003	0,131
-321,314	-200,000	0,006	0,033
-320,299	584,995	0,051	-0,091
-319,285	-146,734	0,076	-0,005
-318,270	101,157	0,080	-0,067
-317,256	-34,279	-0,150	-0,059
-316,241	193,653	0,101	-0,111
-315,226	-200,000	-0,003	0,036
-314,212	800,000	-0,017	-0,050
-313,197	116,020	0,101	-0,090
-312,183	-128,095	-0,086	0,009
-311,168	-200,000	-0,002	0,081
-310,153	208,792	0,070	0,080
-309,139	-145,522	-0,089	0,006
-308,124	12,833	-0,046	0,026
-307,110	404,914	-0,023	0,035
-306,095	-95,088	0,110	-0,021
-305,080	-200,000	-0,009	-0,062
-304,066	104,347	0,024	0,020
-303,051	800,000	-0,031	-0,065
-302,037	118,575	0,064	-0,058
-301,022	-149,386	-0,083	-0,005
-300,008	117,109	-0,043	-0,039
-298,993	-23,849	-0,032	-0,014
-297,978	182,302	-0,098	0,104
-296,964	-30,327	-0,100	-0,041
-295,949	-45,577	-0,105	-0,038
-294,935	386,559	0,030	0,044
-293,920	84,883	0,012	-0,010
-292,905	-200,000	0,013	-0,068
-291,891	292,101	0,089	-0,117
-290,876	-200,000	-0,028	0,162
-289,862	608,386	-0,062	0,112
-288,847	-126,826	-0,084	0,009
-287,832	-200,000	0,007	0,032
-286,818	-36,925	0,247	0,095
-285,803	154,239	-0,117	-0,116
-284,789	-75,032	0,077	-0,020
-283,774	800,000	0,028	0,058
-282,759	800,000	-0,035	0,110
-281,745	-62,450	-0,056	0,017
-280,730	78,798	-0,057	-0,044
-279,716	-88,804	-0,080	0,017
-278,701	-200,000	0,001	0,019
-277,686	6,999	0,034	0,018
-276,672	377,975	0,052	0,078
-275,657	-200,000	0,001	-0,081
-274,643	50,978	-0,102	-0,070
-273,628	-48,914	-0,113	-0,039
-272,613	-200,000	-0,002	0,057
-271,599	213,304	-0,022	0,025
-270,584	453,072	-0,038	0,061
-269,570	-200,000	0,028	-0,115
-268,555	667,122	-0,101	0,190
-267,540	800,000	-0,013	-0,040
-266,526	800,000	0,060	0,149
-265,511	-200,000	-0,051	0,163
-264,497	163,786	0,056	-0,057
-263,482	45,601	0,076	-0,050
-262,467	160,647	-0,127	0,128
-261,453	79,054	0,133	-0,103
-260,438	214,959	0,100	-0,115
-259,424	99,475	-0,058	0,049
-258,409	-200,000	-0,004	-0,021
-257,395	-200,000	-0,000	-0,009
-256,380	-153,292	0,186	-0,009
-255,365	-200,000	0,014	0,226
-254,351	-200,000	-0,006	0,052
-253,336	-186,528	-0,062	-0,001
-252,322	253,981	-0,045	0,055
-251,307	23,991	-0,110	-0,065
-250,292	-42,458	-0,066	-0,024
-249,278	281,592	0,056	0,072
-248,263	-97,151	0,058	-0,011
-247,249	-142,851	-0,124	-0,009
-246,234	-64,624	0,124	0,036
-245,219	523,112	0,011	-0,019
-244,205	-200,000	-0,006	-0,126
-243,190	-200,000	-0,004	-0,097
-242,176	208,340	0,193	-0,218
-241,161	243,972	0,048	-0,059
-240,146	496,052	0,107	0,178
-239,132	284,651	-0,032	0,042
-238,117	472,457	-0,032	0,053
-237,103	-36,687	-0,119	0,046
-236,088	-200,000	0,009	0,049
-235,073	23,977	0,093	-0,056
-234,059	-200,000	0,005	0,061
-233,044	-200,000	-0,001	-0,010
-232,030	-200,000	-0,027	-0,097
-231,015	-200,000	0,022	-0,094
-230,000	523,551	-0,090	-0,154
-228,986	-200,000	-0,023	-0,134
-227,971	304,164	-0,067	0,090
-226,957	-42,211	0,116	0,042
-225,942	166,077	0,056	0,057
-224,927	101,082	0,094	0,079
-223,913	800,000	-0,055	-0,118
-222,898	-8,755	0,012	-0,006
-221,884	499,543	0,012	0,021
-220,869	281,340	-0,053	-0,069
-219,855	35,596	-0,078	-0,049
-218,840	758,659	-0,042	0,082
-217,825	-69,807	0,128	-0,035
-216,811	111,983	-0,120	0,105
-215,796	43,986	-0,114	-0,076
-214,782	-193,874	0,032	-0,000
-213,767	-200,000	0,014	-0,067
-212,752	-94,198	0,108	0,021
-211,738	-66,172	-0,079	-0,022
-210,723	-13,148	-0,097	0,045
-209,709	-200,000	0,013	0,049
-208,694	104,589	-0,016	0,014
-207,679	-200,000	0,008	0,029
-206,665	-200,000	0,019	-0,150
-205,650	-106,323	-0,091	0,015
-204,636	24,018	0,118	-0,070
-203,621	182,384	-0,064	0,068
-202,606	100,263	-0,028	-0,024
-201,592	19,735	0,064	-0,037
-200,577	800,000	-0,020	-0,050
-199,563	-101,141	0,224	-0,039
-198,548	191,563	0,086	0,094
-197,533	-200,000	0,048	0,165
-196,519	163,418	-0,045	0,046
-195,504	-149,639	-0,152	0,008
-194,490	-200,000	-0,021	-0,078
-193,475	66,663	0,093	-0,068
-192,460	-200,000	0,007	0,048
-191,446	282,899	-0,004	-0,005
-190,431	-200,000	-0,002	-0,028
-189,417	92,122	0,062	0,050
-188,402	-139,072	-0,127	0,010
-187,387	-7,506	0,074	-0,036
-186,373	56,231	0,088	-0,062
-185,358	800,000	0,013	-0,037
-184,344	392,602	0,080	0,121
-183,329	-84,882	-0,046	-0,010
-182,315	-200,000	0,003	0,061
-181,300	-200,000	0,006	-0,035
-180,285	800,000	0,011	-0,033
-179,271	-200,000	-0,001	-0,046
-178,256	800,000	0,058	0,127
-177,242	785,375	0,018	-0,035
-176,227	-3,963	-0,076	0,038
-175,212	336,457	0,102	-0,144
-174,198	-54,183	-0,030	-0,010
-173,183	-97,631	-0,163	-0,030
-172,169	240,073	0,066	-0,079
-171,154	800,000	-0,054	-0,110
-170,139	-156,689	0,126	0,006
-169,125	-12,990	0,059	0,028
-168,110	763,912	0,011	0,023
-167,096	-200,000	-0,003	0,029
-166,081	-200,000	-0,007	-0,048
-165,066	800,000	0,022	-0,070
-164,052	800,000	-0,060	-0,129
-163,037	-200,000	-0,023	-0,119
-162,023	-200,000	0,027	0,111
-161,008	-200,000	0,028	-0,093
-159,993	-114,907	-0,036	-0,005
-158,979	77,682	-0,105	0,081
-157,964	800,000	-0,039	-0,110
-156,950	47,317	-0,106	0,071
-155,935	77,172	0,040	-0,031
-154,920	-200,000	-0,003	0,031
-153,906	47,688	0,096	-0,065
-152,891	-9,191	0,089	0,043
-151,877	-94,410	-0,033	-0,006
-150,862	-200,000	-0,023	-0,140
-149,847	181,028	-0,045	-0,048
-148,833	-71,092	-0,130	0,035
-147,818	800,000	-0,052	-0,107
-146,804	246,688	0,114	-0,138
-145,789	337,619	0,029	-0,040
-144,775	13,182	-0,079	-0,044
-143,760	451,750	0,019	-0,030
-142,745	58,119	-0,151	-0,106
-141,731	47,259	0,006	-0,004
-140,716	237,672	-0,054	-0,064
-139,702	184,933	-0,133	0,142
-138,687	202,226	0,077	0,086
-137,672	-26,600	-0,045	-0,019
-136,658	625,469	-0,069	-0,126
-135,643	405,514	0,053	-0,081
-134,629	-97,062	0,093	-0,017
-133,614	772,630	-0,063	0,124
-132,599	-200,000	-0,003	0,101
-131,585	-139,233	0,100	-0,008
-130,570	-49,902	-0,119	0,040
-129,556	457,087	-0,060	-0,097
-128,541	109,624	-0,111	-0,096
-127,526	-92,504	0,039	0,008
-126,512	-27,252	-0,111	0,047
-125,497	800,000	0,029	-0,060
-124,483	-0,042	0,087	-0,044
-123,468	-81,786	-0,058	-0,014
-122,453	-200,000	-0,007	-0,106
-121,439	-98,057	0,073	-0,013
-120,424	-200,000	-0,013	-0,128
-119,410	-200,000	0,001	0,113
-118,395	800,000	0,066	0,168
-117,380	-164,954	0,088	-0,003
-116,366	183,434	-0,110	-0,117
-115,351	-200,000	0,012	-0,052
-114,337	564,722	0,063	-0,111
-113,322	-147,098	-0,154	0,009
-112,307	402,470	-0,078	0,118
-111,293	87,903	-0,111	0,088
-110,278	-200,000	0,010	0,051
-109,264	800,000	0,044	-0,096
-108,249	170,683	0,056	-0,057
-107,234	-147,406	0,070	-0,004
-106,220	455,435	-0,054	-0,086
-105,205	573,682	-0,069	0,121
-104,191	-41,270	0,118	-0,044
-103,176	94,993	0,090	-0,074
-102,162	145,911	-0,031	0,030
-101,147	267,770	-0,096	0,122
-100,132	364,618	-0,031	-0,045
-99,118	-70,075	0,158	-0,043
-98,103	-16,664	-0,075	-0,034
-97,089	432,461	0,041	-0,064
-96,074	490,028	-0,089	0,146
-95,059	256,027	0,067	-0,082
-94,045	-119,146	0,063	0,008
-93,030	714,204	-0,018	-0,035
-92,016	-126,398	-0,159	0,017
-91,001	159,163	-0,053	-0,053
-89,986	-137,115	0,041	-0,003
-88,972	10,711	0,101	0,055
-87,957	119,332	-0,068	0,060
-86,943	-165,400	0,046	0,001
-85,928	-142,930	0,114	0,008
-84,913	-101,093	0,101	-0,018
-83,899	67,969	0,061	-0,045
-82,884	761,728	0,021	-0,041
-81,870	800,000	-0,015	-0,033
-80,855	800,000	-0,019	0,047
-79,840	800,000	-0,031	-0,080
-78,826	800,000	0,032	-0,093
-77,811	800,000	-0,040	-0,089
-76,797	-5,531	0,091	-0,045
-75,782	142,277	0,069	0,066
-74,767	800,000	-0,027	0,083
-73,753	800,000	-0,033	0,087
-72,738	478,976	0,055	0,090
-71,724	170,179	-0,078	-0,080
-70,709	78,884	0,072	-0,055
-69,694	-200,000	-0,023	-0,147
-68,680	70,003	0,006	0,004
-67,665	71,595	-0,016	0,012
-66,651	544,079	0,022	0,038
-65,636	-179,718	0,083	0,001
-64,622	266,426	-0,042	-0,052
-63,607	-124,271	-0,206	-0,023
-62,592	323,365	-0,019	0,026
-61,578	800,000	0,055	-0,137
-60,563	173,230	0,036	0,037
-59,549	10,329	-0,123	0,067
-58,534	15,453	-1,984	-1,116
-57,519	-200,000	-0,253	-0,950
-56,505	-200,000	-1,314	-4,824
-55,490	55,825	0,659	0,458
-54,476	800,000	5,283	12,083
-53,461	-200,000	17,522	289,248
-52,446	800,000	723,991	2235,410
-51,432	541,798	1637,181	2811,797
-50,417	110,949	1628,678	1407,024
-49,403	74,457	1283,680	967,503
-48,388	32,096	1026,684	633,961
-47,373	19,967	988,698	570,536
-46,359	18,417	976,896	558,622
-45,344	15,767	973,086	547,753
-44,330	15,988	971,498	547,561
-43,315	15,517	969,860	545,076
-42,300	15,493	968,666	544,307
-41,286	15,448	967,758	543,629
-40,271	15,434	966,849	543,048
-39,257	15,416	965,885	542,428
-38,242	15,487	964,877	542,072
-37,227	15,479	964,266	541,681
-36,213	15,499	963,337	541,203
-35,198	15,417	962,443	540,415
-34,184	15,483	961,744	540,211
-33,169	15,443	960,682	539,466
-32,154	15,506	959,754	539,128
-31,140	15,465	959,037	538,570
-30,125	15,484	958,245	538,164
-29,111	15,500	957,362	537,700
-28,096	15,537	956,774	537,468
-27,082	15,534	956,094	537,053
-26,067	15,439	955,349	536,309
-25,052	15,487	954,530	535,981
-24,038	15,536	953,668	535,634
-23,023	15,433	953,162	534,999
-22,009	15,468	952,693	534,825
-20,994	15,489	951,956	534,458
-19,979	15,450	951,254	533,916
-18,965	15,516	950,623	533,753
-17,950	15,501	949,908	533,283
-16,936	15,386	949,616	532,730
-15,921	15,502	948,581	532,499
-14,906	15,388	947,896	531,731
-13,892	15,399	947,508	531,525
-12,877	15,366	946,785	530,993
-11,863	15,344	946,201	530,574
-10,848	15,364	945,745	530,362
-9,833	15,490	945,112	530,386
-8,819	15,425	944,691	529,924
-7,804	15,389	943,896	529,341
-6,790	15,333	943,441	528,889
-5,775	15,384	942,858	528,702
-4,760	15,403	942,135	528,335
-3,746	15,362	941,487	527,821
-2,731	15,212	940,874	526,981
-1,717	15,215	940,075	526,525
-0,702	15,213	939,479	526,162
0,313	14,967	938,788	525,793
1,327	18,493	937,031	535,871
2,342	27,858	790,952	477,030
3,356	24,431	445,313	263,467
4,371	-5,362	295,456	145,031
5,386	-9,313	277,015	132,223
6,400	-10,548	271,310	128,342
7,415	-10,673	269,006	127,126
8,429	-10,686	267,559	126,419
9,444	-10,634	266,667	126,034
10,459	-10,687	266,097	125,704
11,473	-10,955	265,537	125,185
12,488	-11,018	264,981	124,855
13,502	-11,082	264,276	124,454
14,517	-11,159	264,117	124,298
15,531	-10,944	263,521	124,201
16,546	-10,969	263,274	124,051
17,561	-10,875	262,927	123,961
18,575	-10,819	262,633	123,861
19,590	-10,929	262,036	123,469
20,604	-10,934	261,967	123,422
21,619	-11,108	261,597	123,081
22,634	-10,946	261,264	123,058
23,648	-11,154	260,963	122,720
24,663	-10,955	260,672	122,749
25,677	-11,092	260,341	122,461
26,692	-11,140	260,185	122,334
27,707	-10,993	259,775	122,260
28,721	-11,200	259,666	122,015
29,736	-11,137	259,355	121,913
30,750	-11,241	259,102	121,692
31,765	-11,231	258,984	121,634
32,780	-11,169	258,703	121,546
33,794	-11,042	258,295	121,455
34,809	-11,064	258,282	121,419
35,823	-11,163	257,814	121,101
36,838	-11,156	257,587	120,990
37,853	-11,266	257,441	120,814
38,867	-11,136	257,141	120,776
39,882	-11,031	256,901	120,745
40,896	-11,109	256,790	120,614
41,911	-11,199	256,436	120,358
42,926	-11,190	256,115	120,204
43,940	-11,159	255,937	120,137
44,955	-11,354	255,808	119,896
45,969	-11,567	255,587	119,595
46,984	-11,655	255,272	119,360
47,999	-11,958	255,105	119,009
49,013	-11,960	254,775	118,842
50,028	-11,915	254,364	118,679
51,042	-12,138	254,243	118,418
52,057	-11,977	253,937	118,405
53,071	-12,031	253,967	118,361
54,086	-11,986	253,577	118,208
55,101	-11,821	253,472	118,291
56,115	-11,550	253,451	118,505
57,130	-11,203	253,310	118,728
58,144	-10,768	253,130	119,009
59,159	-10,945	252,916	118,745
60,174	-11,004	252,639	118,554
61,188	-10,795	252,381	118,601
62,203	-10,859	252,239	118,469
63,217	-10,877	251,876	118,273
64,232	-10,952	251,797	118,161
65,247	-11,119	251,685	117,955
66,261	-11,184	251,279	117,698
67,276	-11,305	251,040	117,472
68,290	-11,425	250,844	117,267
69,305	-11,668	250,655	116,961
70,320	-11,468	250,299	116,955
71,334	-11,184	250,245	117,161
72,349	-10,896	250,054	117,307
73,363	-11,113	249,766	116,977
74,378	-10,997	249,882	117,119
75,393	-11,140	249,570	116,841
76,407	-11,085	249,241	116,723
77,422	-11,330	249,080	116,430
78,436	-11,019	248,860	116,580
79,451	-11,133	248,723	116,409
80,466	-11,147	248,304	116,191
81,480	-11,372	248,142	115,915
82,495	-11,559	248,075	115,715
83,509	-11,122	247,785	115,937
84,524	-11,296	247,453	115,626
85,539	-11,544	247,395	115,380
86,553	-11,685	247,147	115,135
87,568	-11,340	247,017	115,354
88,582	-11,338	246,683	115,189
89,597	-11,412	246,528	115,044
90,611	-11,245	246,464	115,145
91,626	-11,181	246,385	115,151
92,641	-11,123	246,094	115,053
93,655	-11,218	245,878	114,863
94,670	-11,183	245,602	114,752
95,684	-11,302	245,604	114,644
96,699	-11,294	245,267	114,483
97,714	-11,447	245,172	114,302
98,728	-11,475	244,825	114,106
99,743	-11,555	244,641	113,944
100,757	-11,702	244,564	113,775
101,772	-11,466	244,136	113,762
102,787	-11,286	244,074	113,872
103,801	-11,387	244,034	113,759
104,816	-11,329	243,825	113,700
105,830	-11,178	243,655	113,735
106,845	-11,045	243,411	113,721
107,860	-11,281	243,288	113,459
108,874	-11,392	243,083	113,262
109,889	-11,329	242,816	113,179
110,903	-11,411	242,691	113,043
111,918	-11,445	242,484	112,908
112,933	-11,291	242,317	112,947
113,947	-11,359	242,356	112,900
114,962	-11,229	242,104	112,879
115,976	-11,216	241,817	112,745
116,991	-11,271	241,573	112,576
118,006	-11,172	241,440	112,586
119,020	-11,164	241,420	112,573
120,035	-11,216	241,265	112,448
121,049	-11,077	241,120	112,484
122,064	-11,029	240,803	112,366
123,079	-11,193	240,635	112,143
124,093	-11,305	240,386	111,926
125,108	-11,516	240,166	111,642
126,122	-11,693	240,047	111,432
127,137	-11,912	239,882	111,168
128,151	-11,776	239,633	111,153
129,166	-11,492	239,412	111,271
130,181	-11,611	239,277	111,102
131,195	-11,662	239,154	110,993
132,210	-11,240	238,769	111,146
133,224	-11,135	238,741	111,208
134,239	-11,204	238,589	111,072
135,254	-11,140	238,441	111,044
136,268	-11,380	238,259	110,756
137,283	-11,612	238,095	110,483
138,297	-11,595	237,703	110,305
139,312	-11,657	237,487	110,145
140,327	-11,433	237,585	110,361
141,341	-10,967	237,657	110,759
142,356	-10,780	237,246	110,707
143,370	-10,872	237,223	110,614
144,385	-10,777	237,076	110,611
145,400	-10,710	236,808	110,530
146,414	-10,927	236,671	110,283
147,429	-10,962	236,483	110,157
148,443	-11,180	236,248	109,863
149,458	-10,957	236,197	110,008
150,473	-10,873	235,894	109,924
151,487	-11,085	235,746	109,676
152,502	-11,150	235,764	109,623
153,516	-10,620	235,512	109,918
154,531	-10,649	235,247	109,762
155,546	-10,809	235,205	109,605
156,560	-11,079	235,026	109,297
157,575	-11,190	234,732	109,063
158,589	-11,016	234,401	109,038
159,604	-10,986	234,451	109,074
160,619	-10,767	234,191	109,117
161,633	-10,894	234,142	108,984
162,648	-10,633	233,839	109,039
163,662	-10,817	233,871	108,900
164,677	-10,986	233,711	108,682
165,692	-10,936	233,527	108,626
166,706	-10,766	233,382	108,683
167,721	-10,687	233,286	108,691
168,735	-10,663	233,100	108,614
169,750	-10,724	232,871	108,449
170,764	-10,952	232,660	108,162
171,779	-10,834	232,627	108,230
172,794	-10,640	232,282	108,212
173,808	-10,787	232,108	108,006
174,823	-11,587	231,912	107,279
175,837	-11,629	231,768	107,169
176,852	-11,009	231,698	107,613
177,867	-10,939	231,706	107,661
178,881	-10,602	231,554	107,844
179,896	-10,763	231,239	107,562
180,910	-10,853	231,245	107,485
181,925	-10,662	230,964	107,494
182,940	-10,910	230,949	107,285
183,954	-10,797	230,727	107,259
184,969	-10,819	230,577	107,163
185,983	-10,560	230,461	107,301
186,998	-10,505	230,297	107,258
188,013	-10,622	230,159	107,093
189,027	-10,697	230,107	107,001
190,042	-10,696	229,771	106,836
191,056	-10,760	229,695	106,741
192,071	-10,650	229,481	106,718
193,086	-10,729	229,416	106,617
194,100	-10,474	229,193	106,701
195,115	-10,825	228,883	106,276
196,129	-10,826	229,038	106,338
197,144	-5,250	230,664	111,410
198,159	0,432	232,313	116,624
199,173	3,054	233,094	119,049
200,188	3,190	233,022	119,108
201,202	3,256	232,970	119,122
202,217	3,431	232,724	119,121
203,232	3,702	232,760	119,340
204,246	4,070	232,509	119,487
205,261	4,006	232,485	119,414
206,275	3,969	232,317	119,289
207,290	4,061	232,118	119,246
208,304	3,851	232,073	119,050
209,319	4,080	231,758	119,055
210,334	4,032	231,595	118,924
211,348	3,844	231,333	118,633
212,363	3,414	231,160	118,203
213,377	3,095	231,016	117,873
214,392	3,052	230,783	117,710
215,407	3,414	230,645	117,907
216,421	3,289	230,549	117,752
217,436	3,326	230,324	117,655
218,450	3,290	230,003	117,453
219,465	3,003	229,965	117,203
220,480	3,214	229,749	117,244
221,494	3,243	229,660	117,210
222,509	3,318	229,483	117,167
223,523	3,402	229,347	117,151
224,538	2,892	229,296	116,725
225,553	3,213	229,000	116,808
226,567	3,262	229,125	116,900
227,582	3,502	228,954	116,985
228,596	3,474	228,891	116,921
229,611	3,440	228,613	116,742
230,626	3,155	228,371	116,392
231,640	3,411	228,215	116,496
232,655	3,345	228,253	116,455
233,669	3,736	228,050	116,638
234,684	3,951	227,918	116,724
235,699	3,462	227,832	116,298
236,713	3,422	227,550	116,113
237,728	3,440	227,386	116,033
238,742	3,273	227,079	115,740
239,757	3,144	227,005	115,594
240,772	3,174	226,828	115,516
241,786	3,207	226,757	115,495
242,801	3,483	226,722	115,675
243,815	3,742	226,621	115,809
244,830	3,505	226,464	115,540
245,844	3,441	226,086	115,289
246,859	3,255	226,038	115,113
247,874	3,727	225,916	115,396
248,888	3,417	225,897	115,143
249,903	3,458	225,598	115,011
250,917	3,211	225,545	114,789
251,932	3,137	225,416	114,657
252,947	3,036	225,191	114,456
253,961	3,162	224,786	114,336
254,976	3,322	224,943	114,524
255,990	3,217	224,908	114,418
257,005	3,496	224,586	114,452
258,020	3,453	224,498	114,365
259,034	3,658	224,467	114,492
260,049	3,506	224,300	114,283
261,063	3,405	224,133	114,113
262,078	3,739	223,963	114,264
263,093	3,673	223,900	114,173
264,107	3,608	223,704	114,015
265,122	3,791	223,421	113,996
266,136	3,827	223,412	114,008
267,151	3,598	223,278	113,759
268,166	3,189	223,011	113,310
269,180	2,778	222,992	112,986
270,195	3,043	222,628	112,988
271,209	3,185	222,516	113,025
272,224	3,192	222,455	112,990
273,239	3,432	222,315	113,086
274,253	3,334	222,015	112,851
275,268	3,169	221,922	112,672
276,282	3,096	221,670	112,480
277,297	2,973	221,767	112,429
278,312	3,151	221,623	112,477
279,326	3,084	221,537	112,375
280,341	3,245	221,292	112,358
281,355	3,206	221,175	112,260
282,370	3,295	221,019	112,236
283,384	3,077	220,634	111,871
284,399	2,824	220,615	111,666
285,414	3,092	220,463	111,775
286,428	3,278	220,468	111,904
287,443	3,386	220,275	111,875
288,457	3,529	220,183	111,922
289,472	3,319	219,880	111,606
290,487	2,773	219,757	111,135
291,501	2,799	219,489	111,009
292,516	2,844	219,550	111,062
293,530	2,974	219,367	111,055
294,545	3,003	219,197	110,979
295,560	2,797	219,174	110,808
296,574	3,020	219,101	110,923
297,589	3,293	218,907	111,014
298,603	3,191	218,788	110,869
299,618	3,207	218,697	110,824
300,633	3,288	218,525	110,786
301,647	3,440	218,337	110,791
302,662	3,306	218,351	110,691
303,676	3,363	218,142	110,617
304,691	3,458	217,986	110,596
305,706	3,321	217,853	110,420
306,720	3,421	217,707	110,409
307,735	3,299	217,428	110,169
308,749	3,062	217,323	109,936
309,764	3,435	217,198	110,131
310,779	3,314	217,243	110,057
311,793	3,545	216,962	110,070
312,808	3,426	216,912	109,950
313,822	3,354	216,820	109,842
314,837	3,124	216,675	109,594
315,852	3,034	216,354	109,357
316,866	3,216	216,324	109,462
317,881	3,573	216,105	109,597
318,895	3,292	216,130	109,399
319,910	3,250	215,835	109,210
320,925	3,169	215,487	108,966
321,939	2,847	215,328	108,647
322,954	2,632	215,390	108,515
323,968	3,003	215,256	108,702
324,983	3,340	215,289	108,949
325,997	3,754	215,061	109,118
327,012	3,430	215,016	108,855
328,027	3,371	214,783	108,686
329,041	3,783	214,630	108,891
330,056	3,705	214,598	108,809
331,070	3,339	214,285	108,382
332,085	3,254	214,141	108,240
333,100	3,300	213,997	108,190
334,114	3,300	213,951	108,157
335,129	3,392	213,769	108,120
336,143	3,169	213,670	107,903
337,158	3,175	213,612	107,868
338,173	3,269	213,297	107,766
339,187	3,221	213,261	107,704
340,202	2,885	213,048	107,351
341,216	3,153	212,757	107,383
342,231	2,991	212,773	107,268
343,246	3,098	212,524	107,207
344,260	3,095	212,460	107,164
345,275	3,390	212,398	107,329
346,289	3,173	212,296	107,116
347,304	3,459	212,195	107,256
348,319	3,187	212,112	107,014
349,333	3,040	211,931	106,811
350,348	3,557	211,766	107,079
351,362	3,764	211,655	107,158
352,377	3,519	211,584	106,942
353,392	3,286	211,410	106,682
354,406	3,443	211,348	106,750
355,421	196,299	1339,591	1420,048
356,435	156,835	1477,026	1420,022
