DTS Sentinel unit serial number:	SN410029Multiplexer serial number:	ORYXHardware model number:	OX2-SRSoftware version number:	ORYX F/W v4,00 Oryx Data Collector v3.7.2.0data status	okinstallation	B6 Nyhavnadifferential loss correction	single-endedforward channel	channel 2reverse channel	N/Adate	2023/12/10time	05:35:08forward acquisition time	300,00reverse acquisition time	0,00gamma	499,1914k internal	0,3124k external	0,3124temperature offset calibration	1,0000default loss term (dB/km)	0,3820temperature slope calibration	1,0000multiplexer offset coefficient	1,0000multiplexer slope coefficient	1,0000fibre end	0,00T internal ref (°C)	22,44T ext. ref 1 (°C)	6,47T ext. ref 2 (°C)	6,45length (m)	temperature (°C)	Stokes	anti-Stokes-744,400	302,462	-0,027	-0,037
-743,385	-109,753	-0,236	-0,037
-742,371	-135,667	0,066	0,006
-741,356	148,341	-0,191	0,192
-740,342	-39,974	-0,064	-0,025
-739,327	54,271	-0,247	0,177
-738,312	301,034	-0,095	-0,131
-737,298	-136,367	-0,135	0,012
-736,283	173,972	0,042	0,045
-735,269	-40,975	-0,216	0,083
-734,254	-44,585	0,131	-0,049
-733,239	-61,497	-0,438	-0,136
-732,225	-44,950	0,136	0,050
-731,210	800,000	0,072	0,190
-730,196	30,059	-0,122	0,077
-729,181	150,469	-0,068	0,069
-728,167	800,000	-0,045	-0,122
-727,152	291,958	0,072	-0,098
-726,137	-69,310	-0,071	-0,020
-725,123	-200,000	-0,012	0,073
-724,108	488,327	0,106	-0,182
-723,094	-200,000	-0,001	-0,107
-722,079	37,549	0,089	-0,059
-721,064	-13,451	-0,146	-0,070
-720,050	-200,000	0,003	-0,209
-719,035	-50,788	-0,162	0,057
-718,021	330,431	-0,020	-0,029
-717,006	-200,000	-0,025	-0,099
-715,991	-80,568	-0,188	-0,046
-714,977	473,426	-0,069	-0,116
-713,962	800,000	0,042	0,087
-712,948	-133,550	0,168	0,015
-711,933	-146,344	-0,096	0,006
-710,918	725,119	0,033	0,065
-709,904	-147,262	-0,081	-0,005
-708,889	245,281	-0,034	0,042
-707,875	207,086	-0,073	0,085
-706,860	372,435	0,062	-0,093
-705,845	176,393	0,099	0,107
-704,831	800,000	-0,015	0,048
-703,816	-40,741	-0,091	-0,035
-702,802	-112,833	-0,097	-0,014
-701,787	-18,227	-0,011	-0,005
-700,772	-200,000	0,032	-0,123
-699,758	-74,572	-0,111	-0,030
-698,743	-89,984	0,106	0,023
-697,729	-200,000	-0,017	0,093
-696,714	-89,445	0,093	0,020
-695,699	-12,916	0,088	0,042
-694,685	-200,000	-0,028	-0,100
-693,670	-200,000	-0,009	0,131
-692,656	-200,000	0,004	-0,068
-691,641	-200,000	0,024	-0,113
-690,627	526,255	0,059	0,103
-689,612	-200,000	-0,011	0,173
-688,597	800,000	-0,037	-0,078
-687,583	561,573	-0,044	-0,079
-686,568	-134,237	-0,089	0,008
-685,554	223,015	-0,068	-0,081
-684,539	800,000	0,021	0,055
-683,524	490,534	-0,044	-0,075
-682,510	727,931	0,019	0,037
-681,495	-0,058	0,065	0,034
-680,481	-33,704	-0,079	0,032
-679,466	-200,000	0,012	-0,236
-678,451	30,089	-0,113	-0,071
-677,437	604,844	-0,026	-0,049
-676,422	-11,110	0,039	0,019
-675,408	-33,762	-0,128	-0,052
-674,393	-62,969	-0,081	-0,025
-673,378	663,771	-0,051	-0,099
-672,364	258,024	0,054	0,070
-671,349	78,526	-0,123	0,098
-670,335	542,261	-0,045	-0,081
-669,320	800,000	-0,048	-0,121
-668,305	468,352	-0,098	-0,164
-667,291	-36,109	-0,051	-0,020
-666,276	-139,920	-0,121	0,009
-665,262	-38,926	-0,119	0,046
-664,247	-40,756	-0,072	-0,027
-663,232	-111,246	-0,028	0,004
-662,218	800,000	0,015	-0,034
-661,203	800,000	-0,049	-0,124
-660,189	-111,924	0,093	-0,014
-659,174	4,730	-0,086	-0,047
-658,159	42,386	-0,119	-0,080
-657,145	58,260	0,101	-0,073
-656,130	-140,320	0,055	-0,004
-655,116	-134,993	0,113	-0,010
-654,101	133,100	0,022	0,021
-653,086	-168,924	0,060	0,002
-652,072	-2,917	-0,123	0,063
-651,057	-37,275	-0,049	-0,020
-650,043	-150,779	-0,123	-0,007
-649,028	553,758	-0,017	-0,031
-648,014	204,805	0,027	0,032
-646,999	-0,917	-0,109	0,057
-645,984	40,730	-0,051	0,034
-644,970	-55,927	-0,020	-0,007
-643,955	-8,763	-0,118	0,059
-642,941	8,763	-0,064	0,036
-641,926	642,120	0,032	-0,061
-640,911	327,524	-0,062	-0,089
-639,897	-200,000	0,034	0,122
-638,882	-26,439	-0,120	-0,052
-637,868	-25,197	0,137	0,060
-636,853	104,717	-0,062	0,054
-635,838	142,192	0,048	-0,048
-634,824	-200,000	-0,002	-0,058
-633,809	372,481	-0,054	-0,082
-632,795	226,507	-0,112	0,135
-631,780	-19,484	0,102	-0,047
-630,765	281,943	0,036	0,048
-629,751	287,999	-0,016	-0,021
-628,736	145,109	-0,111	-0,110
-627,722	-42,481	-0,030	-0,011
-626,707	162,051	-0,053	-0,055
-625,692	-200,000	-0,003	0,068
-624,678	-200,000	-0,026	-0,093
-623,663	-182,930	-0,069	-0,001
-622,649	800,000	0,017	0,044
-621,634	-82,553	0,042	0,010
-620,619	171,607	0,044	0,047
-619,605	-44,076	0,006	-0,002
-618,590	605,618	0,066	-0,122
-617,576	638,050	0,043	0,081
-616,561	116,490	-0,067	0,061
-615,546	-141,670	0,186	-0,014
-614,532	-200,000	-0,019	0,115
-613,517	-48,896	0,019	0,007
-612,503	-200,000	-0,008	0,078
-611,488	527,840	0,059	0,104
-610,474	345,013	-0,034	0,049
-609,459	800,000	-0,031	0,081
-608,444	800,000	-0,066	0,139
-607,430	-181,352	-0,100	-0,001
-606,415	-200,000	-0,023	-0,182
-605,401	-200,000	-0,022	0,133
-604,386	83,710	-0,063	0,051
-603,371	323,656	0,098	-0,139
-602,357	-17,301	-0,032	0,015
-601,342	800,000	0,042	0,087
-600,328	553,517	0,079	-0,141
-599,313	-200,000	-0,001	-0,106
-598,298	-83,467	-0,053	0,013
-597,284	348,602	-0,060	-0,087
-596,269	15,031	-0,075	-0,043
-595,255	800,000	-0,044	-0,120
-594,240	143,702	0,052	0,051
-593,225	800,000	0,043	0,138
-592,211	153,558	-0,013	-0,013
-591,196	-62,027	0,059	-0,018
-590,182	-9,662	-0,046	0,023
-589,167	-200,000	0,001	0,085
-588,152	-113,788	0,032	-0,005
-587,138	488,960	-0,033	-0,056
-586,123	-121,219	0,094	0,011
-585,109	119,833	-0,113	-0,104
-584,094	28,993	-0,052	0,033
-583,079	16,044	-0,066	0,039
-582,065	-104,593	-0,096	0,016
-581,050	159,201	0,120	0,123
-580,036	-200,000	-0,015	0,166
-579,021	470,401	-0,075	-0,126
-578,006	-21,094	-0,042	0,019
-576,992	-200,000	0,018	0,111
-575,977	-134,320	0,088	-0,008
-574,963	-155,619	-0,060	0,003
-573,948	108,777	-0,041	0,036
-572,934	475,134	-0,028	-0,047
-571,919	113,659	-0,073	-0,066
-570,904	-200,000	0,016	0,103
-569,890	80,446	-0,041	-0,033
-568,875	800,000	0,013	-0,035
-567,861	800,000	0,029	-0,073
-566,846	383,126	-0,052	-0,080
-565,831	105,247	-0,095	-0,083
-564,817	-200,000	-0,027	-0,123
-563,802	-66,776	0,032	0,009
-562,788	-156,155	-0,075	0,003
-561,773	-128,604	-0,076	0,008
-560,758	-200,000	0,036	0,164
-559,744	-200,000	-0,002	-0,037
-558,729	800,000	0,013	-0,038
-557,715	-15,787	-0,058	0,027
-556,700	800,000	-0,036	0,074
-555,685	-169,701	0,074	-0,002
-554,671	-7,940	-0,070	0,035
-553,656	800,000	-0,011	-0,026
-552,642	-146,252	0,152	-0,010
-551,627	235,669	0,034	-0,041
-550,612	800,000	-0,057	-0,125
-549,598	-74,923	0,132	-0,035
-548,583	-94,215	0,032	0,006
-547,569	800,000	-0,080	-0,200
-546,554	66,917	0,027	0,020
-545,539	-198,336	0,080	0,000
-544,525	-173,606	-0,081	-0,002
-543,510	289,817	-0,064	0,086
-542,496	-200,000	0,015	-0,106
-541,481	-52,691	-0,066	-0,022
-540,466	-5,135	0,051	-0,026
-539,452	-200,000	0,016	0,098
-538,437	-200,000	0,003	-0,012
-537,423	251,566	0,051	-0,064
-536,408	800,000	0,056	0,159
-535,393	-200,000	0,011	-0,141
-534,379	220,047	-0,066	-0,078
-533,364	38,865	-0,058	-0,038
-532,350	-63,107	0,112	-0,034
-531,335	-123,404	-0,057	-0,007
-530,321	-72,054	0,016	-0,004
-529,306	85,870	-0,056	-0,046
-528,291	600,612	-0,058	-0,107
-527,277	541,082	0,072	-0,127
-526,262	800,000	-0,036	0,084
-525,248	13,663	-0,087	-0,050
-524,233	91,372	0,060	0,050
-523,218	-200,000	-0,017	0,172
-522,204	327,330	-0,060	-0,085
-521,189	-200,000	-0,007	0,128
-520,175	-200,000	0,005	0,080
-519,160	-200,000	-0,015	-0,050
-518,145	179,107	0,061	0,066
-517,131	454,754	0,025	0,041
-516,116	-200,000	0,027	-0,099
-515,102	426,510	0,049	0,078
-514,087	-200,000	0,006	-0,134
-513,072	-200,000	0,005	-0,142
-512,058	128,809	0,071	0,067
-511,043	800,000	0,049	0,151
-510,029	-81,253	-0,070	0,017
-509,014	-195,917	0,023	0,000
-507,999	336,461	-0,123	0,177
-506,985	9,230	0,070	-0,039
-505,970	54,295	0,062	-0,044
-504,956	-200,000	-0,013	-0,106
-503,941	518,253	0,057	0,100
-502,926	239,531	-0,024	-0,029
-501,912	334,159	0,060	0,085
-500,897	-200,000	0,007	0,105
-499,883	20,861	-0,085	-0,050
-498,868	-200,000	0,001	0,010
-497,853	61,340	-0,038	-0,028
-496,839	392,444	-0,006	-0,010
-495,824	141,381	0,084	-0,082
-494,810	92,949	-0,079	-0,065
-493,795	-200,000	-0,029	0,133
-492,781	-54,948	0,098	-0,032
-491,766	-200,000	-0,037	-0,136
-490,751	139,517	0,072	0,070
-489,737	-106,975	-0,080	-0,013
-488,722	-200,000	0,032	0,147
-487,708	-105,913	0,156	-0,026
-486,693	800,000	0,042	-0,126
-485,678	212,600	-0,053	-0,062
-484,664	-200,000	-0,039	-0,128
-483,649	111,884	-0,092	-0,082
-482,635	175,515	0,080	0,085
-481,620	-34,576	0,057	0,023
-480,605	523,529	0,064	-0,112
-479,591	-49,305	-0,044	-0,015
-478,576	-200,000	0,002	0,063
-477,562	20,242	-0,090	-0,054
-476,547	-98,150	0,159	-0,030
-475,532	-200,000	0,020	0,106
-474,518	-131,066	0,095	0,009
-473,503	60,864	0,114	-0,084
-472,489	-200,000	0,013	0,071
-471,474	-200,000	0,009	0,030
-470,459	66,816	0,115	-0,086
-469,445	-58,015	-0,031	0,010
-468,430	124,936	-0,027	0,025
-467,416	800,000	0,031	-0,098
-466,401	-200,000	0,032	0,152
-465,386	29,135	0,095	0,059
-464,372	258,405	-0,112	-0,143
-463,357	521,973	0,039	-0,068
-462,343	-200,000	0,001	-0,022
-461,328	-200,000	0,003	-0,183
-460,313	135,832	0,038	0,036
-459,299	730,567	-0,038	0,075
-458,284	-200,000	0,002	-0,040
-457,270	800,000	-0,027	0,059
-456,255	195,350	0,020	0,022
-455,241	4,861	-0,070	-0,038
-454,226	-98,247	-0,116	-0,022
-453,211	-114,807	-0,022	-0,003
-452,197	-51,440	0,191	-0,065
-451,182	5,942	-0,087	0,047
-450,168	79,228	-0,095	-0,075
-449,153	800,000	0,035	-0,080
-448,138	250,651	0,102	0,129
-447,124	7,604	-0,069	0,038
-446,109	3,577	0,077	-0,041
-445,095	7,776	-0,111	0,061
-444,080	121,136	0,067	0,062
-443,065	-123,754	0,076	-0,009
-442,051	800,000	0,061	-0,127
-441,036	-183,864	0,011	-0,000
-440,022	800,000	-0,039	0,099
-439,007	-79,664	0,111	0,027
-437,992	-200,000	0,022	0,108
-436,978	-76,385	0,109	0,028
-435,963	-52,689	0,107	0,036
-434,949	223,468	-0,056	0,067
-433,934	-200,000	-0,008	0,056
-432,919	-200,000	0,013	0,106
-431,905	-161,122	0,086	-0,003
-430,890	-163,197	0,183	0,006
-429,876	693,436	0,027	-0,052
-428,861	-200,000	0,012	-0,072
-427,846	123,938	-0,087	0,081
-426,832	247,722	-0,040	-0,050
-425,817	49,566	-0,079	-0,055
-424,803	-13,933	-0,124	-0,059
-423,788	-200,000	0,007	0,105
-422,773	37,119	-0,081	0,052
-421,759	-121,039	0,112	-0,014
-420,744	-200,000	-0,007	0,068
-419,730	77,087	0,038	-0,030
-418,715	193,022	-0,043	-0,048
-417,701	329,911	0,052	0,074
-416,686	25,170	0,056	-0,034
-415,671	75,556	0,062	-0,048
-414,657	-19,857	-0,066	-0,030
-413,642	-4,234	0,037	0,019
-412,628	800,000	0,068	0,149
-411,613	-153,880	-0,136	0,007
-410,598	-200,000	0,008	0,052
-409,584	-200,000	-0,005	0,033
-408,569	-73,253	-0,147	0,039
-407,555	-51,463	-0,025	-0,008
-406,540	8,444	0,087	0,048
-405,525	-200,000	0,034	0,127
-404,511	-12,034	-0,139	0,067
-403,496	550,219	-0,013	-0,024
-402,482	564,993	0,106	-0,189
-401,467	-56,054	0,027	0,009
-400,452	-9,344	0,063	0,031
-399,438	-200,000	-0,043	-0,164
-398,423	636,046	0,048	-0,090
-397,409	798,776	-0,088	-0,180
-396,394	-200,000	-0,029	-0,149
-395,379	800,000	0,029	-0,078
-394,365	-14,310	-0,150	-0,071
-393,350	463,397	-0,067	-0,110
-392,336	154,001	0,066	-0,067
-391,321	-84,796	-0,023	-0,005
-390,306	-53,448	0,023	-0,008
-389,292	-200,000	0,004	-0,178
-388,277	142,781	-0,023	-0,022
-387,263	174,201	-0,058	0,062
-386,248	-200,000	0,006	-0,053
-385,233	-80,145	0,027	0,006
-384,219	-49,125	0,069	-0,024
-383,204	800,000	-0,068	-0,145
-382,190	800,000	-0,025	-0,072
-381,175	447,453	-0,019	0,031
-380,160	-30,325	-0,106	0,044
-379,146	-200,000	0,006	-0,116
-378,131	-200,000	0,020	-0,085
-377,117	800,000	0,021	0,045
-376,102	-107,269	-0,088	-0,014
-375,088	70,696	-0,092	0,070
-374,073	-200,000	0,015	0,115
-373,058	731,655	0,068	0,134
-372,044	-166,528	0,123	-0,004
-371,029	-72,475	-0,096	0,026
-370,015	-97,898	-0,073	0,014
-369,000	-200,000	0,004	-0,037
-367,985	-125,822	-0,083	0,009
-366,971	-175,123	0,055	0,001
-365,956	-200,000	0,012	-0,058
-364,942	256,938	-0,031	-0,039
-363,927	376,024	0,014	-0,022
-362,912	-172,956	-0,083	0,002
-361,898	800,000	-0,034	-0,076
-360,883	-133,345	-0,058	0,005
-359,869	-200,000	-0,035	-0,128
-358,854	120,895	0,092	-0,084
-357,839	-128,911	0,009	-0,001
-356,825	363,311	0,069	0,103
-355,810	-136,307	-0,051	0,004
-354,796	-200,000	0,026	0,139
-353,781	-200,000	-0,016	0,073
-352,766	36,677	-0,065	-0,042
-351,752	-3,083	-0,033	-0,017
-350,737	390,452	-0,053	-0,081
-349,723	564,611	0,025	0,044
-348,708	13,338	0,049	0,028
-347,693	-200,000	-0,004	0,024
-346,679	-40,956	-0,096	-0,036
-345,664	708,548	-0,011	0,022
-344,650	-110,513	0,054	0,008
-343,635	-200,000	-0,015	-0,051
-342,620	-200,000	0,002	-0,093
-341,606	20,752	0,119	-0,070
-340,591	54,884	0,108	-0,077
-339,577	-200,000	0,010	-0,053
-338,562	131,113	-0,030	0,028
-337,548	-200,000	0,013	0,150
-336,533	-200,000	-0,028	-0,127
-335,518	431,034	-0,029	-0,047
-334,504	261,180	0,057	-0,073
-333,489	53,679	-0,101	-0,071
-332,475	458,444	-0,036	0,059
-331,460	-73,379	-0,035	0,009
-330,445	-101,863	-0,055	-0,010
-329,431	195,529	-0,005	0,006
-328,416	128,791	0,071	-0,067
-327,402	-200,000	0,016	0,113
-326,387	-200,000	0,002	-0,062
-325,372	800,000	0,027	0,059
-324,358	105,403	0,113	-0,098
-323,343	-10,896	0,057	0,027
-322,329	800,000	-0,012	-0,031
-321,314	-105,379	0,099	0,016
-320,299	291,131	0,070	0,094
-319,285	-155,653	-0,074	0,003
-318,270	257,952	-0,048	-0,061
-317,256	44,497	0,090	-0,061
-316,241	10,877	-0,076	-0,042
-315,226	5,073	0,009	0,005
-314,212	65,490	-0,020	0,015
-313,197	-200,000	-0,010	0,038
-312,183	800,000	0,023	0,062
-311,168	-200,000	-0,011	-0,144
-310,153	-98,759	-0,079	-0,015
-309,139	800,000	-0,038	0,082
-308,124	-200,000	-0,005	0,047
-307,110	5,523	0,153	0,083
-306,095	40,527	0,115	0,076
-305,080	800,000	-0,048	-0,128
-304,066	599,462	-0,066	0,120
-303,051	52,781	0,066	0,046
-302,037	-9,330	-0,138	0,067
-301,022	211,462	-0,012	0,013
-300,008	-200,000	0,006	-0,098
-298,993	-152,837	0,182	0,009
-297,978	141,777	0,141	0,137
-296,964	43,152	0,059	-0,039
-295,949	-142,331	-0,135	-0,010
-294,935	19,875	-0,155	0,091
-293,920	-200,000	0,020	0,108
-292,905	17,732	0,109	-0,064
-291,891	14,944	-0,036	0,020
-290,876	-200,000	0,029	0,130
-289,862	-97,655	0,084	0,016
-288,847	-137,590	-0,152	0,012
-287,832	5,968	-0,117	-0,063
-286,818	-79,787	0,113	0,028
-285,803	-200,000	0,027	0,155
-284,789	181,872	-0,020	0,022
-283,774	800,000	0,027	0,068
-282,759	-200,000	-0,028	-0,144
-281,745	-200,000	-0,010	0,058
-280,730	131,261	-0,081	-0,076
-279,716	-144,619	-0,083	-0,005
-278,701	-100,849	0,176	0,031
-277,686	-200,000	-0,026	0,146
-276,672	-200,000	0,006	-0,069
-275,657	95,768	-0,047	0,039
-274,643	107,647	-0,064	-0,056
-273,628	-200,000	0,030	-0,121
-272,613	-200,000	0,029	-0,133
-271,599	-200,000	-0,005	-0,032
-270,584	-200,000	0,001	0,031
-269,570	-23,365	0,040	0,017
-268,555	-200,000	-0,017	0,099
-267,540	-92,982	-0,032	0,006
-266,526	-200,000	-0,023	-0,087
-265,511	-200,000	0,010	-0,212
-264,497	221,116	0,038	0,045
-263,482	-83,428	0,054	-0,013
-262,467	-0,826	0,038	0,020
-261,453	-200,000	0,002	0,018
-260,438	-200,000	0,046	0,222
-259,424	-68,574	-0,130	0,037
-258,409	-44,016	-0,071	-0,026
-257,395	-88,414	0,070	-0,015
-256,380	296,252	0,052	0,070
-255,365	107,016	-0,035	-0,030
-254,351	108,643	0,078	-0,068
-253,336	111,045	-0,036	0,032
-252,322	-3,126	-0,109	0,055
-251,307	42,701	-0,122	-0,081
-250,292	-200,000	-0,016	0,071
-249,278	34,206	0,115	0,073
-248,263	-200,000	0,012	-0,042
-247,249	-200,000	0,030	0,201
-246,234	677,621	0,046	0,088
-245,219	81,732	0,077	-0,061
-244,205	311,633	0,084	-0,115
-243,190	800,000	0,033	0,091
-242,176	-17,248	0,143	0,066
-241,161	481,603	0,011	0,018
-240,146	800,000	-0,044	0,096
-239,132	-34,790	-0,125	-0,050
-238,117	140,084	-0,071	-0,069
-237,103	-200,000	-0,013	0,169
-236,088	-76,787	-0,070	0,018
-235,073	198,310	0,094	0,105
-234,059	352,238	-0,043	0,063
-233,044	86,929	0,061	-0,049
-232,030	-200,000	0,012	0,105
-231,015	231,435	-0,027	0,032
-230,000	444,879	-0,031	0,050
-228,986	700,121	0,059	-0,114
-227,971	-200,000	0,029	-0,110
-226,957	683,567	0,074	0,141
-225,942	-36,168	-0,074	0,029
-224,927	150,806	0,113	-0,112
-223,913	292,618	-0,017	-0,022
-222,898	-18,806	0,118	-0,054
-221,884	438,557	0,060	0,096
-220,869	302,619	-0,047	0,064
-219,855	603,237	-0,017	0,032
-218,840	-200,000	-0,009	0,103
-217,825	239,488	-0,044	0,054
-216,811	-25,363	-0,061	-0,026
-215,796	-200,000	-0,004	-0,054
-214,782	49,998	-0,106	0,073
-213,767	235,025	-0,046	0,055
-212,752	573,831	0,028	0,050
-211,738	232,233	0,088	-0,106
-210,723	-78,700	0,047	0,012
-209,709	-113,900	0,148	-0,021
-208,694	156,288	-0,028	0,029
-207,679	38,694	-0,056	0,036
-206,665	265,805	-0,063	-0,080
-205,650	-200,000	0,006	-0,094
-204,636	-3,632	0,088	-0,044
-203,621	-55,502	-0,160	0,052
-202,606	322,554	0,054	0,075
-201,592	-9,409	-0,076	0,037
-200,577	-23,092	0,077	0,034
-199,563	-142,797	-0,034	0,002
-198,548	-200,000	0,004	-0,054
-197,533	748,808	0,041	0,082
-196,519	-200,000	-0,004	0,108
-195,504	-39,303	-0,159	0,061
-194,490	-200,000	0,027	-0,113
-193,475	719,642	-0,043	-0,084
-192,460	800,000	-0,065	-0,151
-191,446	88,878	-0,037	-0,030
-190,431	-9,798	0,019	0,009
-189,417	-200,000	0,011	0,043
-188,402	-200,000	-0,001	-0,027
-187,387	59,006	0,021	0,015
-186,373	231,846	-0,122	0,146
-185,358	-123,736	0,072	-0,008
-184,344	-200,000	0,109	-0,000
-183,329	65,870	0,059	0,044
-182,315	196,202	0,134	0,149
-181,300	-39,109	0,076	-0,029
-180,285	800,000	0,024	-0,057
-179,271	-156,303	-0,123	-0,006
-178,256	798,254	-0,092	-0,186
-177,242	754,495	0,079	-0,156
-176,227	-70,479	-0,140	0,038
-175,212	800,000	0,030	-0,083
-174,198	546,864	0,050	-0,088
-173,183	800,000	-0,026	-0,054
-172,169	-71,795	0,115	-0,031
-171,154	99,515	-0,045	-0,038
-170,139	-78,795	0,053	0,013
-169,125	800,000	0,064	0,181
-168,110	-0,346	0,117	-0,060
-167,096	-148,916	-0,080	0,005
-166,081	800,000	-0,044	0,143
-165,066	117,976	-0,039	-0,035
-164,052	196,775	-0,041	-0,046
-163,037	-48,108	-0,037	0,013
-162,023	82,783	0,118	0,094
-161,008	-40,857	0,061	-0,023
-159,993	241,138	-0,038	0,046
-158,979	143,602	0,028	-0,028
-157,964	131,251	0,032	0,030
-156,950	-200,000	-0,018	-0,133
-155,935	-9,162	-0,038	-0,018
-154,920	427,897	0,048	0,075
-153,906	-22,083	-0,019	0,008
-152,891	207,857	-0,111	0,126
-151,877	-137,243	0,112	-0,009
-150,862	800,000	0,004	-0,009
-149,847	764,239	0,024	-0,048
-148,833	-200,000	0,004	0,103
-147,818	17,594	0,126	-0,073
-146,804	-127,903	-0,169	-0,018
-145,789	-158,306	0,083	-0,003
-144,775	336,768	-0,015	0,021
-143,760	102,256	-0,027	-0,023
-142,745	-200,000	-0,008	0,094
-141,731	152,665	0,067	-0,067
-140,716	-5,542	0,100	-0,050
-139,702	115,908	0,083	-0,074
-138,687	723,838	-0,014	-0,028
-137,672	-31,829	0,028	-0,011
-136,658	-200,000	-0,004	-0,184
-135,643	-114,039	-0,170	-0,024
-134,629	255,984	-0,055	-0,068
-133,614	107,970	-0,063	0,054
-132,599	-200,000	-0,016	0,107
-131,585	797,417	-0,056	0,113
-130,570	-59,748	0,014	-0,004
-129,556	248,368	-0,037	0,046
-128,541	-200,000	-0,024	-0,156
-127,526	34,010	-0,099	-0,063
-126,512	-200,000	-0,025	-0,097
-125,497	61,623	-0,036	-0,026
-124,483	-13,608	0,036	0,017
-123,468	-200,000	-0,020	0,144
-122,453	2,297	-0,087	0,046
-121,439	356,016	0,032	-0,046
-120,424	-136,001	-0,083	0,007
-119,410	185,715	-0,012	0,013
-118,395	-200,000	-0,018	0,101
-117,380	44,759	0,090	-0,060
-116,366	-51,180	0,188	0,064
-115,351	-200,000	0,022	-0,113
-114,337	30,951	-0,060	0,037
-113,322	-89,130	-0,135	0,029
-112,307	800,000	-0,018	0,051
-111,293	87,706	0,096	0,077
-110,278	800,000	-0,034	-0,075
-109,264	-200,000	-0,009	0,076
-108,249	-200,000	-0,008	-0,076
-107,234	-24,084	0,081	-0,035
-106,220	110,420	-0,045	0,040
-105,205	-200,000	0,024	0,198
-104,191	137,934	0,078	0,074
-103,176	-200,000	0,005	-0,023
-102,162	-200,000	-0,009	-0,032
-101,147	113,775	-0,055	-0,048
-100,132	-200,000	-0,010	-0,056
-99,118	-21,775	0,135	-0,059
-98,103	135,153	-0,051	0,049
-97,089	353,379	0,028	-0,041
-96,074	-153,202	0,065	-0,003
-95,059	21,414	-0,103	-0,061
-94,045	113,452	-0,093	0,082
-93,030	-41,722	0,059	0,022
-92,016	-91,399	0,087	-0,018
-91,001	217,674	-0,051	0,060
-89,986	800,000	0,036	0,076
-88,972	187,395	-0,018	0,019
-87,957	-67,938	-0,026	0,007
-86,943	-200,000	-0,010	0,123
-85,928	800,000	-0,029	-0,061
-84,913	-27,981	-0,064	-0,027
-83,899	800,000	0,026	-0,067
-82,884	324,300	-0,043	-0,059
-81,870	-21,175	-0,130	0,058
-80,855	-200,000	-0,018	-0,101
-79,840	246,910	-0,052	0,064
-78,826	-72,993	-0,170	-0,045
-77,811	21,356	0,089	0,052
-76,797	800,000	0,006	0,016
-75,782	77,383	0,071	-0,055
-74,767	800,000	0,017	0,034
-73,753	36,317	0,149	0,095
-72,738	-200,000	-0,005	0,098
-71,724	118,388	-0,027	0,024
-70,709	-200,000	-0,008	-0,115
-69,694	800,000	0,022	-0,070
-68,680	-39,494	0,018	-0,007
-67,665	-200,000	-0,011	0,036
-66,651	100,795	-0,110	-0,093
-65,636	107,337	-0,086	0,074
-64,622	-200,000	0,007	-0,087
-63,607	497,209	-0,054	0,090
-62,592	800,000	-0,023	0,060
-61,578	598,481	0,045	0,082
-60,563	-160,301	0,085	0,003
-59,549	326,459	-0,129	0,180
-58,534	-135,373	-1,287	-0,110
-57,519	646,646	-0,794	-1,477
-56,505	-200,000	-0,833	-4,465
-55,490	0,282	0,652	-0,336
-54,476	800,000	5,069	11,882
-53,461	-200,000	13,526	253,241
-52,446	-200,000	689,320	2262,592
-51,432	592,132	1622,658	2918,519
-50,417	120,222	1635,731	1472,507
-49,403	73,427	1289,457	977,965
-48,388	38,254	1024,512	660,330
-47,373	24,452	981,894	587,496
-46,359	23,657	971,755	578,800
-45,344	22,677	967,459	573,015
-44,330	22,616	966,032	571,950
-43,315	22,523	964,620	570,786
-42,300	22,502	963,597	570,092
-41,286	22,490	962,701	569,498
-40,271	22,463	961,693	568,793
-39,257	22,456	960,753	568,189
-38,242	22,447	959,771	567,560
-37,227	22,453	958,851	567,010
-36,213	22,361	958,179	566,292
-35,198	22,401	957,239	565,846
-34,184	22,447	956,698	565,651
-33,169	22,468	955,665	565,086
-32,154	22,491	954,673	564,550
-31,140	22,486	953,842	564,021
-30,125	22,528	953,183	563,745
-29,111	22,494	952,406	563,154
-28,096	22,519	951,483	562,666
-27,082	22,455	950,965	562,131
-26,067	22,507	950,231	561,842
-25,052	22,467	949,536	561,280
-24,038	22,522	948,627	560,898
-23,023	22,471	948,265	560,499
-22,009	22,459	947,576	560,028
-20,994	22,525	946,973	559,863
-19,979	22,478	946,235	559,253
-18,965	22,476	945,560	558,826
-17,950	22,505	944,991	558,558
-16,936	22,469	944,469	558,115
-15,921	22,345	943,759	557,277
-14,906	22,380	943,016	556,929
-13,892	22,384	942,222	556,450
-12,877	22,367	941,705	556,069
-11,863	22,295	941,137	555,481
-10,848	22,351	940,489	555,256
-9,833	22,457	940,021	555,295
-8,819	22,446	939,558	554,963
-7,804	22,389	938,725	554,268
-6,790	22,334	938,290	553,816
-5,775	22,395	937,605	553,582
-4,760	22,395	936,892	553,140
-3,746	22,310	936,442	552,584
-2,731	22,232	935,683	551,866
-1,717	22,227	934,961	551,405
-0,702	22,237	934,258	550,999
0,313	22,037	933,579	550,799
1,327	25,100	931,604	559,214
2,342	34,613	796,587	503,510
3,356	32,684	451,558	282,493
4,371	1,681	293,303	152,618
5,386	-2,838	274,054	138,324
6,400	-4,221	268,394	134,176
7,415	-4,508	265,978	132,692
8,429	-4,230	264,757	132,325
9,444	-4,107	263,862	131,978
10,459	-4,207	263,193	131,541
11,473	-4,262	262,622	131,195
12,488	-4,439	262,210	130,817
13,502	-4,508	261,652	130,464
14,517	-4,559	261,131	130,147
15,531	-4,490	260,814	130,040
16,546	-4,488	260,484	129,865
17,561	-4,357	259,935	129,698
18,575	-4,471	259,809	129,521
19,590	-4,658	259,472	129,174
20,604	-4,356	259,064	129,229
21,619	-4,541	258,840	128,940
22,634	-4,437	258,457	128,831
23,648	-4,567	258,191	128,571
24,663	-4,530	257,925	128,460
25,677	-4,504	257,696	128,358
26,692	-4,598	257,491	128,161
27,707	-4,564	257,155	128,012
28,721	-4,689	256,835	127,731
29,736	-4,536	256,648	127,762
30,750	-4,588	256,371	127,566
31,765	-4,673	256,201	127,396
32,780	-4,642	255,890	127,257
33,794	-4,656	255,676	127,127
34,809	-4,595	255,391	127,027
35,823	-4,709	255,222	126,832
36,838	-4,542	254,916	126,815
37,853	-4,738	254,722	126,535
38,867	-4,585	254,462	126,529
39,882	-4,710	254,325	126,341
40,896	-4,632	254,108	126,289
41,911	-4,720	253,799	126,048
42,926	-4,786	253,613	125,886
43,940	-4,692	253,412	125,858
44,955	-4,886	253,118	125,532
45,969	-4,784	252,867	125,484
46,984	-4,946	252,715	125,257
47,999	-5,160	252,546	124,976
49,013	-5,295	252,142	124,648
50,028	-5,426	251,976	124,442
51,042	-5,403	251,570	124,250
52,057	-5,319	251,366	124,210
53,071	-5,176	251,111	124,197
54,086	-5,395	251,186	124,033
55,101	-5,185	250,915	124,070
56,115	-5,176	250,901	124,060
57,130	-4,566	250,756	124,503
58,144	-4,285	250,490	124,602
59,159	-4,368	250,342	124,445
60,174	-4,461	250,278	124,322
61,188	-4,454	250,025	124,191
62,203	-4,515	249,834	124,033
63,217	-4,556	249,434	123,788
64,232	-4,504	249,359	123,785
65,247	-4,446	249,152	123,720
66,261	-4,643	248,953	123,442
67,276	-4,615	248,600	123,280
68,290	-4,892	248,259	122,864
69,305	-5,110	248,147	122,612
70,320	-5,060	247,993	122,567
71,334	-4,805	247,928	122,741
72,349	-4,338	247,774	123,051
73,363	-4,359	247,478	122,875
74,378	-4,491	247,274	122,652
75,393	-4,568	247,059	122,468
76,407	-4,569	246,967	122,410
77,422	-4,519	246,724	122,322
78,436	-4,591	246,600	122,189
79,451	-4,641	246,337	122,005
80,466	-4,638	245,945	121,803
81,480	-4,661	245,709	121,655
82,495	-4,566	245,618	121,680
83,509	-4,680	245,428	121,479
84,524	-4,836	245,227	121,237
85,539	-4,946	244,889	120,967
86,553	-4,826	244,742	120,984
87,568	-4,855	244,509	120,834
88,582	-5,005	244,540	120,713
89,597	-4,877	244,208	120,645
90,611	-4,585	244,099	120,825
91,626	-4,642	243,961	120,698
92,641	-4,637	243,868	120,646
93,655	-4,546	243,545	120,551
94,670	-4,672	243,331	120,329
95,684	-4,708	243,270	120,258
96,699	-4,594	242,937	120,178
97,714	-4,637	242,832	120,079
98,728	-4,864	242,667	119,798
99,743	-5,019	242,406	119,531
100,757	-5,057	242,173	119,374
101,772	-4,722	242,049	119,580
102,787	-4,696	241,856	119,495
103,801	-4,742	241,751	119,394
104,816	-4,692	241,639	119,369
105,830	-4,559	241,430	119,366
106,845	-4,446	241,297	119,383
107,860	-4,620	241,080	119,121
108,874	-4,738	240,835	118,892
109,889	-4,697	240,783	118,889
110,903	-4,766	240,518	118,691
111,918	-4,791	240,435	118,619
112,933	-4,591	240,197	118,655
113,947	-4,385	239,990	118,711
114,962	-4,458	239,872	118,583
115,976	-4,558	239,607	118,359
116,991	-4,680	239,672	118,280
118,006	-4,678	239,315	118,096
119,020	-4,513	239,299	118,212
120,035	-4,410	239,073	118,174
121,049	-4,426	238,983	118,106
122,064	-4,481	238,681	117,902
123,079	-4,435	238,485	117,832
124,093	-4,413	238,177	117,687
125,108	-4,622	237,965	117,402
126,122	-4,878	237,852	117,128
127,137	-5,064	237,751	116,917
128,151	-4,984	237,613	116,903
129,166	-5,062	237,483	116,765
130,181	-4,860	237,128	116,744
131,195	-4,727	237,063	116,809
132,210	-4,704	236,862	116,718
133,224	-4,549	236,783	116,794
134,239	-4,521	236,540	116,687
135,254	-4,575	236,377	116,552
136,268	-4,784	236,211	116,291
137,283	-4,886	235,963	116,077
138,297	-4,980	235,742	115,883
139,312	-4,971	235,609	115,813
140,327	-4,467	235,412	116,111
141,341	-4,511	235,552	116,135
142,356	-4,300	235,396	116,217
143,370	-4,283	235,218	116,133
144,385	-4,184	234,933	116,061
145,400	-4,406	234,877	115,845
146,414	-4,251	234,724	115,883
147,429	-4,427	234,564	115,652
148,443	-4,305	234,296	115,608
149,458	-4,239	234,219	115,612
150,473	-4,516	234,122	115,333
151,487	-4,168	233,804	115,443
152,502	-4,121	233,598	115,369
153,516	-4,314	233,520	115,166
154,531	-4,198	233,245	115,112
155,546	-4,190	233,019	114,997
156,560	-4,434	233,072	114,819
157,575	-4,426	232,636	114,601
158,589	-4,433	232,588	114,561
159,604	-4,252	232,454	114,628
160,619	-4,132	232,375	114,674
161,633	-4,286	232,295	114,503
162,648	-4,062	232,069	114,557
163,662	-4,196	232,097	114,455
164,677	-4,143	231,718	114,300
165,692	-4,508	231,664	113,976
166,706	-4,188	231,403	114,089
167,721	-4,177	231,378	114,075
168,735	-4,030	231,047	114,017
169,750	-4,073	230,918	113,910
170,764	-4,275	230,827	113,696
171,779	-4,139	230,577	113,670
172,794	-4,191	230,502	113,582
173,808	-4,383	230,318	113,331
174,823	-4,468	229,914	113,055
175,837	-4,855	229,841	112,707
176,852	-4,665	229,972	112,910
177,867	-4,288	229,764	113,091
178,881	-4,237	229,427	112,956
179,896	-4,142	229,485	113,048
180,910	-4,160	229,363	112,964
181,925	-4,184	229,188	112,849
182,940	-4,364	229,012	112,612
183,954	-4,042	228,845	112,771
184,969	-4,130	228,854	112,696
185,983	-3,879	228,549	112,731
186,998	-4,030	228,496	112,577
188,013	-4,220	228,382	112,364
189,027	-4,057	227,955	112,270
190,042	-3,925	227,856	112,313
191,056	-4,137	227,830	112,127
192,071	-4,122	227,642	112,036
193,086	-3,865	227,367	112,088
194,100	-4,049	227,464	111,985
195,115	-4,468	227,045	111,445
196,129	-4,815	226,774	111,035
197,144	-2,254	227,386	113,300
198,159	0,829	228,516	116,239
199,173	3,765	229,056	118,775
200,188	4,263	229,052	119,147
201,202	4,109	229,006	118,994
202,217	4,173	228,785	118,918
203,232	4,270	228,785	118,982
204,246	4,610	228,594	119,135
205,261	4,480	228,435	118,941
206,275	4,647	228,320	118,999
207,290	4,641	228,304	118,975
208,304	4,861	228,019	118,985
209,319	4,774	227,924	118,858
210,334	4,602	227,742	118,621
211,348	4,418	227,380	118,281
212,363	3,862	227,219	117,761
213,377	3,953	226,846	117,626
214,392	3,857	226,845	117,542
215,407	3,943	226,707	117,526
216,421	3,835	226,597	117,376
217,436	3,776	226,349	117,192
218,450	3,520	226,165	116,891
219,465	3,566	226,017	116,839
220,480	3,681	225,977	116,895
221,494	3,621	225,725	116,709
222,509	3,770	225,634	116,764
223,523	3,701	225,512	116,639
224,538	3,746	225,280	116,542
225,553	3,826	225,176	116,539
226,567	3,730	225,199	116,468
227,582	4,007	225,227	116,682
228,596	4,304	224,883	116,718
229,611	4,065	224,815	116,492
230,626	3,734	224,398	116,016
231,640	3,708	224,434	116,004
232,655	4,072	224,215	116,155
233,669	4,580	224,184	116,511
234,684	4,612	224,108	116,486
235,699	4,297	223,830	116,093
236,713	4,068	223,634	115,809
237,728	3,619	223,586	115,437
238,742	3,930	223,160	115,440
239,757	3,872	223,041	115,325
240,772	3,816	223,058	115,281
241,786	3,707	222,950	115,133
242,801	4,019	222,706	115,230
243,815	3,966	222,744	115,200
244,830	4,324	222,514	115,338
245,844	3,990	222,340	114,989
246,859	3,998	222,271	114,948
247,874	3,945	222,100	114,810
248,888	4,185	221,923	114,888
249,903	3,886	221,753	114,567
250,917	3,689	221,690	114,378
251,932	3,762	221,512	114,329
252,947	3,578	221,213	114,028
253,961	3,617	221,157	114,019
254,976	3,697	221,081	114,029
255,990	4,050	220,925	114,200
257,005	3,936	220,943	114,114
258,020	4,071	220,781	114,120
259,034	4,318	220,601	114,200
260,049	4,311	220,396	114,079
261,063	4,203	220,077	113,823
262,078	4,459	219,914	113,918
263,093	4,327	220,015	113,862
264,107	4,295	219,734	113,683
265,122	4,212	219,658	113,573
266,136	4,192	219,587	113,511
267,151	4,346	219,542	113,591
268,166	3,956	219,183	113,109
269,180	3,650	218,912	112,733
270,195	3,705	218,860	112,738
271,209	3,727	218,696	112,659
272,224	3,833	218,612	112,684
273,239	3,974	218,521	112,730
274,253	3,630	218,266	112,337
275,268	3,536	218,088	112,166
276,282	3,629	217,957	112,157
277,297	3,514	217,831	111,998
278,312	3,582	217,683	111,962
279,326	3,739	217,628	112,038
280,341	3,911	217,435	112,054
281,355	3,936	217,395	112,041
282,370	3,921	217,280	111,961
283,384	3,585	216,950	111,537
284,399	3,704	216,652	111,460
285,414	3,455	216,770	111,330
286,428	3,804	216,603	111,488
287,443	3,823	216,602	111,491
288,457	3,980	216,471	111,527
289,472	3,698	216,216	111,182
290,487	3,515	215,990	110,924
291,501	3,495	215,706	110,753
292,516	3,464	215,685	110,710
293,530	3,666	215,587	110,796
294,545	3,567	215,360	110,598
295,560	3,520	215,361	110,555
296,574	3,713	215,316	110,660
297,589	3,683	215,161	110,549
298,603	3,920	214,894	110,573
299,618	3,843	214,838	110,479
300,633	3,672	214,779	110,316
301,647	4,182	214,711	110,637
302,662	3,945	214,489	110,343
303,676	3,880	214,420	110,251
304,691	4,158	214,146	110,300
305,706	4,098	214,100	110,223
306,720	4,030	213,920	110,071
307,735	3,875	213,829	109,905
308,749	3,772	213,649	109,728
309,764	3,789	213,518	109,664
310,779	4,040	213,403	109,774
311,793	4,184	213,130	109,726
312,808	4,161	213,083	109,676
313,822	3,822	212,965	109,363
314,837	3,641	212,810	109,146
315,852	3,533	212,756	109,031
316,866	3,930	212,429	109,137
317,881	4,359	212,318	109,374
318,895	3,994	212,341	109,117
319,910	4,023	212,033	108,969
320,925	3,560	212,018	108,624
321,939	3,515	211,737	108,439
322,954	3,553	211,587	108,379
323,968	3,603	211,701	108,463
324,983	3,808	211,493	108,492
325,997	4,259	211,387	108,746
327,012	3,992	211,164	108,433
328,027	3,776	211,191	108,285
329,041	4,049	211,141	108,442
330,056	4,488	210,932	108,634
331,070	3,864	210,571	108,000
332,085	3,494	210,420	107,653
333,100	3,581	210,297	107,642
334,114	3,997	210,280	107,915
335,129	4,025	210,116	107,841
336,143	3,701	209,780	107,432
337,158	3,808	209,814	107,515
338,173	3,872	209,617	107,450
339,187	3,591	209,473	107,170
340,202	3,483	209,439	107,067
341,216	3,319	209,151	106,797
342,231	3,518	209,120	106,910
343,246	3,484	208,913	106,771
344,260	3,661	208,832	106,843
345,275	3,710	208,836	106,869
346,289	3,912	208,840	107,002
347,304	4,061	208,512	106,928
348,319	3,798	208,386	106,672
349,333	3,806	208,229	106,587
350,348	3,999	208,171	106,682
351,362	3,843	208,090	106,523
352,377	3,983	207,935	106,531
353,392	4,016	207,688	106,417
354,406	3,929	207,618	106,313
355,421	193,756	1348,401	1436,176
356,435	154,550	1487,503	1436,300
