DTS Sentinel unit serial number:	SN410029Multiplexer serial number:	ORYXHardware model number:	OX2-SRSoftware version number:	ORYX F/W v4,00 Oryx Data Collector v3.7.2.0data status	okinstallation	B6 Nyhavnadifferential loss correction	single-endedforward channel	channel 2reverse channel	N/Adate	2023/12/10time	04:35:08forward acquisition time	300,00reverse acquisition time	0,00gamma	499,1914k internal	0,3125k external	0,3125temperature offset calibration	1,0000default loss term (dB/km)	0,3820temperature slope calibration	1,0000multiplexer offset coefficient	1,0000multiplexer slope coefficient	1,0000fibre end	0,00T internal ref (°C)	22,21T ext. ref 1 (°C)	6,29T ext. ref 2 (°C)	6,25length (m)	temperature (°C)	Stokes	anti-Stokes-744,400	130,325	0,103	-0,099
-743,385	492,063	-0,111	0,190
-742,371	-12,103	0,041	0,020
-741,356	59,118	-0,264	0,193
-740,342	228,761	0,056	0,068
-739,327	164,336	-0,153	0,161
-738,312	-200,000	-0,034	-0,186
-737,298	-167,305	-0,075	-0,002
-736,283	-48,225	0,087	0,031
-735,269	-98,329	-0,302	0,057
-734,254	267,489	-0,056	-0,073
-733,239	-75,244	-0,420	-0,111
-732,225	139,012	-0,055	0,054
-731,210	54,236	-0,053	0,038
-730,196	217,116	0,011	-0,013
-729,181	-200,000	-0,004	-0,025
-728,167	-10,903	-0,097	0,047
-727,152	-133,732	-0,048	0,004
-726,137	-11,751	-0,166	-0,081
-725,123	-200,000	-0,060	-0,236
-724,108	252,037	-0,070	-0,088
-723,094	287,071	-0,075	-0,101
-722,079	-64,150	-0,145	-0,044
-721,064	-58,176	-0,087	0,028
-720,050	-162,357	0,061	0,002
-719,035	-89,077	0,062	-0,014
-718,021	10,402	-0,055	0,031
-717,006	-73,007	-0,120	-0,033
-715,991	86,527	-0,055	0,045
-714,977	800,000	-0,064	-0,145
-713,962	-169,469	-0,128	0,003
-712,948	-74,282	0,008	0,002
-711,933	590,338	-0,028	0,052
-710,918	-168,429	0,214	-0,006
-709,904	388,836	-0,037	0,056
-708,889	-157,092	-0,125	0,006
-707,875	-36,412	0,051	0,020
-706,860	-88,420	0,142	0,031
-705,845	800,000	-0,038	0,116
-704,831	-57,979	-0,063	-0,020
-703,816	412,376	-0,053	-0,083
-702,802	-200,000	-0,009	0,037
-701,787	68,270	-0,071	-0,054
-700,772	-97,957	-0,077	0,015
-699,758	60,645	0,057	0,042
-698,743	-200,000	-0,002	0,107
-697,729	71,887	-0,031	-0,024
-696,714	-200,000	-0,035	-0,161
-695,699	144,063	-0,095	-0,095
-694,685	33,858	-0,123	-0,079
-693,670	-60,810	-0,170	-0,053
-692,656	82,541	-0,117	-0,095
-691,641	-80,394	-0,011	-0,003
-690,627	231,902	0,093	0,113
-689,612	-25,722	0,061	0,027
-688,597	106,496	0,044	-0,039
-687,583	24,643	-0,141	0,087
-686,568	303,395	0,048	-0,066
-685,554	416,232	-0,115	-0,183
-684,539	54,695	-0,238	0,171
-683,524	158,037	0,124	0,128
-682,510	425,883	-0,063	-0,102
-681,495	-200,000	-0,008	0,040
-680,481	800,000	-0,033	-0,086
-679,466	48,905	-0,229	-0,159
-678,451	175,107	-0,017	0,018
-677,437	-89,139	0,053	-0,011
-676,422	800,000	0,028	0,089
-675,408	112,858	-0,057	-0,051
-674,393	22,636	-0,060	0,036
-673,378	222,727	0,107	-0,129
-672,364	-200,000	-0,001	-0,056
-671,349	800,000	0,044	-0,132
-670,335	317,085	0,015	0,022
-669,320	-5,367	-0,128	0,065
-668,305	-81,077	-0,083	-0,020
-667,291	45,252	-0,172	-0,118
-666,276	104,785	0,178	-0,156
-665,262	-75,840	-0,227	-0,059
-664,247	-184,268	0,121	-0,001
-663,232	89,131	0,119	-0,098
-662,218	409,136	-0,038	-0,060
-661,203	66,910	0,053	0,040
-660,189	-110,011	0,004	-0,001
-659,174	-200,000	-0,005	-0,047
-658,159	291,784	0,067	-0,091
-657,145	173,409	-0,071	-0,076
-656,130	39,300	0,054	-0,036
-655,116	800,000	-0,056	0,136
-654,101	122,858	-0,008	-0,007
-653,086	800,000	0,022	-0,056
-652,072	800,000	-0,018	-0,041
-651,057	-105,118	-0,098	0,016
-650,043	-200,000	0,015	-0,180
-649,028	-88,929	-0,056	0,012
-648,014	2,626	-0,029	-0,015
-646,999	197,306	-0,135	-0,153
-645,984	85,958	0,027	0,022
-644,970	800,000	0,065	-0,192
-643,955	650,067	-0,015	-0,028
-642,941	143,339	-0,099	-0,098
-641,926	-135,786	0,155	-0,013
-640,911	800,000	0,010	0,021
-639,897	69,493	0,059	0,045
-638,882	-37,204	-0,107	-0,042
-637,868	-200,000	-0,002	0,055
-636,853	800,000	-0,027	-0,059
-635,838	28,715	-0,133	-0,084
-634,824	800,000	0,028	0,065
-633,809	28,767	0,082	-0,052
-632,795	-93,792	-0,100	0,020
-631,780	46,431	0,066	0,045
-630,765	-200,000	-0,005	-0,033
-629,751	46,055	-0,131	0,090
-628,736	-200,000	0,009	-0,058
-627,722	24,634	0,052	-0,032
-626,707	51,667	0,010	0,007
-625,692	-103,193	0,112	0,020
-624,678	72,548	-0,063	-0,049
-623,663	-72,743	0,050	0,013
-622,649	82,585	-0,043	0,035
-621,634	-180,435	0,134	0,002
-620,619	800,000	-0,086	-0,234
-619,605	51,394	-0,036	-0,025
-618,590	25,193	0,119	0,073
-617,576	25,531	0,020	-0,012
-616,561	-146,990	-0,111	-0,007
-615,546	800,000	-0,011	-0,036
-614,532	-200,000	0,003	-0,051
-613,517	480,705	-0,008	-0,013
-612,503	281,749	0,076	0,101
-611,488	547,893	-0,008	0,014
-610,474	-200,000	-0,013	-0,064
-609,459	-68,892	0,073	0,021
-608,444	120,480	-0,061	0,056
-607,430	-200,000	-0,022	-0,109
-606,415	-61,981	0,025	0,008
-605,401	-200,000	-0,002	0,008
-604,386	-42,226	-0,084	0,031
-603,371	-139,919	-0,077	-0,006
-602,357	42,314	0,055	-0,037
-601,342	113,882	-0,119	-0,107
-600,328	-200,000	-0,009	-0,048
-599,313	224,373	-0,096	-0,115
-598,298	66,295	0,029	0,022
-597,284	98,455	-0,094	0,080
-596,269	800,000	0,045	-0,116
-595,255	-125,820	-0,123	0,014
-594,240	-16,788	-0,052	-0,024
-593,225	800,000	0,044	-0,093
-592,211	-106,170	-0,055	-0,009
-591,196	62,535	0,022	0,016
-590,182	-9,350	-0,047	-0,023
-589,167	800,000	-0,026	-0,055
-588,152	-200,000	0,013	0,093
-587,138	-200,000	0,009	0,059
-586,123	-67,713	-0,142	-0,041
-585,109	452,615	0,101	-0,165
-584,094	-178,983	0,103	0,002
-583,079	95,501	0,013	-0,011
-582,065	45,064	-0,034	0,023
-581,050	487,010	0,078	0,132
-580,036	-119,673	-0,100	0,013
-579,021	-200,000	-0,022	-0,141
-578,006	321,799	0,067	-0,095
-576,992	-200,000	-0,001	0,012
-575,977	389,572	0,006	-0,009
-574,963	-159,119	-0,059	-0,002
-573,948	-54,874	0,155	0,052
-572,934	0,390	0,098	0,052
-571,919	23,673	-0,117	-0,071
-570,904	72,758	-0,178	-0,137
-569,890	-81,094	-0,074	-0,018
-568,875	-200,000	-0,008	-0,043
-567,861	-200,000	-0,020	-0,096
-566,846	310,146	0,030	-0,042
-565,831	11,099	-0,018	-0,010
-564,817	-36,364	-0,119	0,047
-563,802	-40,278	-0,138	-0,053
-562,788	-115,177	-0,069	0,010
-561,773	-63,482	0,126	-0,038
-560,758	-200,000	0,014	0,091
-559,744	510,080	-0,067	0,115
-558,729	272,569	-0,043	-0,056
-557,715	117,407	0,030	0,027
-556,700	800,000	-0,060	-0,123
-555,685	409,413	-0,103	-0,162
-554,671	800,000	0,015	-0,035
-553,656	800,000	-0,049	0,155
-552,642	75,903	0,062	-0,049
-551,627	-113,877	0,146	0,021
-550,612	4,945	-0,196	0,106
-549,598	516,028	0,074	-0,129
-548,583	-109,849	-0,084	-0,013
-547,569	14,488	0,021	0,012
-546,554	510,292	0,045	0,078
-545,539	67,180	0,192	0,145
-544,525	-148,795	0,054	-0,003
-543,510	184,503	-0,049	0,053
-542,496	-114,894	0,065	0,009
-541,481	-200,000	0,006	-0,067
-540,466	800,000	-0,043	-0,096
-539,452	800,000	0,046	0,114
-538,437	-47,601	-0,173	-0,062
-537,423	194,281	0,037	-0,041
-536,408	-200,000	0,007	-0,060
-535,393	-173,754	-0,047	-0,001
-534,379	-118,163	-0,107	0,014
-533,364	365,473	-0,025	0,038
-532,350	800,000	0,020	0,062
-531,335	-200,000	0,022	-0,070
-530,321	-200,000	0,031	0,123
-529,306	-200,000	-0,010	-0,042
-528,291	-200,000	0,001	0,071
-527,277	153,690	-0,078	-0,079
-526,262	-200,000	-0,002	0,045
-525,248	-112,404	0,091	0,013
-524,233	72,907	-0,053	-0,041
-523,218	245,458	0,082	-0,102
-522,204	38,240	0,083	-0,055
-521,189	244,377	-0,076	-0,095
-520,175	800,000	0,023	-0,071
-519,160	-200,000	0,009	-0,046
-518,145	560,468	-0,034	0,062
-517,131	392,518	0,051	-0,079
-516,116	-200,000	-0,016	0,150
-515,102	-88,315	0,115	0,025
-514,087	-66,464	-0,042	0,012
-513,072	-37,954	0,080	0,031
-512,058	-99,831	-0,111	0,020
-511,043	19,356	-0,085	-0,050
-510,029	164,755	-0,038	0,040
-509,014	149,893	0,050	0,050
-507,999	-200,000	0,002	0,037
-506,985	-62,645	-0,058	-0,018
-505,970	-155,769	-0,039	0,002
-504,956	-84,339	-0,029	0,007
-503,941	-200,000	0,011	0,143
-502,926	235,122	0,088	0,107
-501,912	-200,000	0,029	0,096
-500,897	-11,042	0,022	-0,011
-499,883	-16,650	0,135	-0,063
-498,868	423,619	-0,072	-0,114
-497,853	-200,000	0,035	-0,143
-496,839	113,268	0,046	-0,041
-495,824	112,086	-0,016	0,014
-494,810	586,252	-0,051	0,093
-493,795	-200,000	0,051	0,243
-492,781	-140,817	0,027	-0,002
-491,766	-200,000	-0,005	-0,066
-490,751	-200,000	0,010	0,090
-489,737	-6,922	0,071	-0,036
-488,722	800,000	-0,013	0,026
-487,708	-17,460	0,080	-0,037
-486,693	-13,437	0,093	0,044
-485,678	-200,000	-0,019	0,141
-484,664	113,929	-0,008	0,007
-483,649	-20,060	0,047	-0,021
-482,635	-31,259	0,074	0,031
-481,620	-105,210	0,113	-0,019
-480,605	-200,000	-0,020	0,126
-479,591	176,286	-0,042	0,045
-478,576	366,714	0,053	-0,079
-477,562	159,481	-0,061	0,062
-476,547	-41,393	-0,100	-0,038
-475,532	-200,000	-0,004	-0,030
-474,518	42,346	0,047	0,032
-473,503	-72,909	0,034	0,009
-472,489	-54,954	0,109	0,036
-471,474	800,000	0,052	0,159
-470,459	1,273	-0,052	-0,027
-469,445	310,162	0,059	0,081
-468,430	-60,891	-0,027	-0,008
-467,416	410,501	-0,049	0,077
-466,401	289,811	-0,043	-0,057
-465,386	-165,395	-0,094	0,003
-464,372	-148,038	-0,073	0,004
-463,357	78,246	0,008	0,006
-462,343	-153,991	-0,146	0,007
-461,328	717,992	0,081	-0,160
-460,313	-200,000	0,021	-0,108
-459,299	800,000	0,065	0,134
-458,284	-200,000	0,016	0,076
-457,270	-87,744	-0,052	0,011
-456,255	94,234	0,051	0,042
-455,241	163,527	-0,043	-0,045
-454,226	800,000	0,051	-0,140
-453,211	84,462	-0,024	-0,019
-452,197	-0,209	-0,034	0,018
-451,182	201,541	0,154	0,175
-450,168	195,001	0,127	0,142
-449,153	800,000	-0,043	0,108
-448,138	43,026	-0,088	0,059
-447,124	800,000	0,034	-0,074
-446,109	-88,670	0,072	-0,016
-445,095	108,060	0,087	0,077
-444,080	800,000	0,014	-0,039
-443,065	800,000	-0,012	0,028
-442,051	-145,327	-0,032	0,002
-441,036	96,154	0,061	-0,051
-440,022	-200,000	-0,009	-0,058
-439,007	-31,993	0,036	-0,015
-437,992	-23,855	0,059	-0,026
-436,978	59,896	-0,055	-0,040
-435,963	-200,000	0,017	0,093
-434,949	-182,632	-0,053	-0,001
-433,934	30,116	0,028	0,017
-432,919	21,358	0,010	-0,006
-431,905	254,697	0,067	0,084
-430,890	124,807	0,084	-0,078
-429,876	33,130	0,035	0,022
-428,861	-49,793	0,034	-0,012
-427,846	184,137	-0,073	0,080
-426,832	54,290	0,011	-0,008
-425,817	-160,738	0,148	-0,006
-424,803	46,931	0,069	-0,047
-423,788	186,328	-0,041	0,045
-422,773	800,000	-0,017	-0,037
-421,759	462,486	-0,056	0,092
-420,744	547,307	-0,046	0,081
-419,730	69,000	0,048	-0,036
-418,715	512,649	-0,128	-0,221
-417,701	-59,612	0,164	0,051
-416,686	253,498	0,053	-0,067
-415,671	216,749	-0,089	0,104
-414,657	764,532	0,024	0,048
-413,642	-12,379	0,054	-0,026
-412,628	-24,176	-0,100	-0,044
-411,613	-108,285	-0,104	-0,016
-410,598	-200,000	0,024	-0,083
-409,584	188,452	-0,040	-0,044
-408,569	-200,000	0,003	-0,080
-407,555	-53,261	0,159	0,053
-406,540	-159,503	0,082	0,003
-405,525	-126,673	0,088	0,009
-404,511	16,864	-0,074	-0,043
-403,496	-200,000	-0,021	-0,089
-402,482	-200,000	-0,003	0,095
-401,467	163,870	-0,040	-0,042
-400,452	800,000	-0,039	-0,099
-399,438	800,000	-0,016	0,040
-398,423	304,393	-0,086	-0,117
-397,409	9,223	0,166	0,092
-396,394	-130,470	-0,157	0,015
-395,379	6,641	-0,086	0,047
-394,365	-132,721	0,094	-0,009
-393,350	416,992	-0,060	0,095
-392,336	112,942	-0,025	-0,022
-391,321	-200,000	0,014	-0,217
-390,306	-122,344	-0,075	0,009
-389,292	-11,709	-0,043	-0,021
-388,277	4,840	0,051	-0,027
-387,263	800,000	0,021	0,052
-386,248	94,463	0,100	0,083
-385,233	227,883	-0,101	0,121
-384,219	191,142	-0,041	0,045
-383,204	-170,039	-0,170	-0,004
-382,190	-154,596	0,026	0,001
-381,175	-116,129	-0,100	-0,014
-380,160	81,733	-0,043	-0,034
-379,146	-181,770	0,074	-0,001
-378,131	-200,000	-0,029	0,167
-377,117	-80,079	-0,114	0,028
-376,102	359,671	-0,030	-0,044
-375,088	-200,000	-0,010	0,078
-374,073	66,954	-0,067	0,050
-373,058	-200,000	-0,007	-0,068
-372,044	-200,000	0,018	0,064
-371,029	-200,000	0,006	-0,024
-370,015	256,370	0,080	0,101
-369,000	-200,000	-0,004	0,121
-367,985	800,000	-0,058	-0,174
-366,971	-42,084	-0,142	-0,053
-365,956	494,723	0,081	-0,137
-364,942	34,841	-0,021	-0,013
-363,927	-64,469	-0,020	-0,006
-362,912	-109,501	0,102	0,016
-361,898	-200,000	0,002	0,028
-360,883	-148,040	-0,060	0,004
-359,869	47,169	-0,077	0,053
-358,854	492,956	0,077	0,130
-357,839	-200,000	0,015	0,104
-356,825	800,000	0,048	0,104
-355,810	-47,719	0,155	0,055
-354,796	-200,000	-0,029	-0,144
-353,781	800,000	-0,047	-0,117
-352,766	-84,986	-0,132	0,030
-351,752	164,472	0,086	0,089
-350,737	285,746	-0,053	0,070
-349,723	322,362	-0,062	-0,087
-348,708	800,000	-0,027	-0,063
-347,693	-24,548	-0,190	-0,082
-346,679	-180,459	-0,134	-0,002
-345,664	264,296	0,041	-0,052
-344,650	-200,000	0,011	0,042
-343,635	-60,651	0,089	0,027
-342,620	-127,881	0,129	-0,013
-341,606	139,274	0,050	-0,048
-340,591	96,925	-0,094	-0,079
-339,577	-138,198	0,151	-0,012
-338,562	-200,000	-0,002	-0,093
-337,548	-200,000	0,019	0,073
-336,533	-108,397	0,115	-0,018
-335,518	-40,145	0,037	-0,014
-334,504	-200,000	-0,049	0,177
-333,489	-44,061	0,019	-0,007
-332,475	-200,000	-0,003	-0,039
-331,460	633,343	-0,024	-0,045
-330,445	-112,296	0,069	-0,010
-329,431	800,000	-0,033	0,081
-328,416	92,227	0,163	0,134
-327,402	15,033	-0,048	0,028
-326,387	-200,000	-0,008	-0,083
-325,372	17,053	-0,034	-0,020
-324,358	-76,353	0,061	-0,016
-323,343	-200,000	-0,003	0,070
-322,329	-69,137	0,109	0,031
-321,314	-200,000	0,000	-0,006
-320,299	-200,000	0,004	0,089
-319,285	-200,000	-0,010	0,054
-318,270	696,238	-0,019	-0,037
-317,256	-176,582	-0,103	0,002
-316,241	-200,000	-0,014	-0,116
-315,226	-200,000	-0,004	-0,037
-314,212	-200,000	0,011	0,140
-313,197	-5,436	0,079	0,040
-312,183	-84,945	-0,053	-0,012
-311,168	37,674	-0,145	0,094
-310,153	-118,054	-0,090	-0,012
-309,139	-101,553	0,092	0,016
-308,124	800,000	0,010	-0,030
-307,110	-200,000	0,013	-0,070
-306,095	-200,000	-0,010	0,060
-305,080	800,000	-0,044	-0,131
-304,066	175,783	0,120	-0,128
-303,051	800,000	-0,038	-0,110
-302,037	21,080	-0,157	-0,093
-301,022	618,183	-0,052	0,095
-300,008	-14,248	0,126	0,059
-298,993	-200,000	-0,022	-0,072
-297,978	-200,000	-0,006	-0,046
-296,964	800,000	0,040	0,088
-295,949	-151,212	-0,169	0,009
-294,935	-45,325	-0,103	0,037
-293,920	-200,000	-0,011	0,093
-292,905	206,235	-0,013	0,015
-291,891	308,924	0,043	-0,059
-290,876	222,828	-0,076	0,089
-289,862	-48,410	-0,016	0,006
-288,847	-95,567	0,066	0,013
-287,832	-200,000	-0,013	-0,083
-286,818	514,736	-0,085	-0,146
-285,803	356,400	-0,029	0,042
-284,789	-159,720	-0,023	0,001
-283,774	47,890	-0,073	-0,050
-282,759	-200,000	-0,006	0,064
-281,745	461,343	-0,033	0,054
-280,730	446,089	-0,039	-0,063
-279,716	-14,435	-0,175	-0,082
-278,701	-19,629	0,138	-0,062
-277,686	258,365	0,056	-0,070
-276,672	-200,000	-0,021	0,082
-275,657	-200,000	0,013	0,119
-274,643	1,862	-0,073	0,038
-273,628	-134,299	-0,060	0,005
-272,613	-4,212	0,043	0,022
-271,599	363,953	0,059	0,088
-270,584	800,000	0,027	0,077
-269,570	42,297	0,078	0,052
-268,555	-200,000	-0,004	-0,114
-267,540	-123,133	-0,085	-0,010
-266,526	346,177	-0,039	0,057
-265,511	166,895	-0,108	0,112
-264,497	-78,148	0,066	0,016
-263,482	-18,042	-0,018	-0,008
-262,467	-75,800	-0,082	-0,021
-261,453	728,903	-0,053	-0,104
-260,438	800,000	-0,053	-0,109
-259,424	65,960	0,050	0,037
-258,409	-200,000	-0,019	0,067
-257,395	-26,612	0,152	0,065
-256,380	121,523	0,157	-0,143
-255,365	-98,052	-0,038	-0,007
-254,351	800,000	0,017	-0,038
-253,336	-122,817	-0,081	0,009
-252,322	-25,169	-0,119	-0,051
-251,307	800,000	-0,033	-0,079
-250,292	-200,000	-0,030	0,121
-249,278	25,208	0,029	0,017
-248,263	800,000	-0,048	0,106
-247,249	-200,000	0,001	-0,217
-246,234	-12,761	-0,075	-0,036
-245,219	800,000	0,036	-0,080
-244,205	133,721	0,046	-0,044
-243,190	-84,326	0,158	0,036
-242,176	142,790	-0,050	-0,048
-241,161	-41,093	-0,061	0,023
-240,146	15,697	0,082	0,047
-239,132	327,580	-0,043	0,061
-238,117	180,215	0,043	0,047
-237,103	800,000	0,019	0,055
-236,088	800,000	0,053	0,119
-235,073	800,000	0,047	0,104
-234,059	158,352	0,055	0,056
-233,044	-200,000	0,001	0,040
-232,030	-99,685	0,066	-0,012
-231,015	-11,595	0,064	-0,031
-230,000	729,594	-0,020	-0,040
-228,986	-176,366	-0,096	-0,002
-227,971	-40,389	0,062	-0,023
-226,957	-135,621	0,121	0,010
-225,942	107,214	-0,051	-0,044
-224,927	-160,152	0,052	0,002
-223,913	84,598	0,042	0,034
-222,898	188,455	0,062	-0,068
-221,884	-35,566	-0,176	-0,070
-220,869	-78,554	0,027	-0,007
-219,855	-200,000	-0,007	0,055
-218,840	561,241	0,039	-0,070
-217,825	245,526	0,014	0,017
-216,811	-200,000	-0,001	0,081
-215,796	53,880	-0,082	0,058
-214,782	413,564	0,013	0,020
-213,767	800,000	-0,017	-0,046
-212,752	-65,579	0,082	-0,024
-211,738	683,959	0,014	-0,027
-210,723	123,709	-0,075	-0,069
-209,709	-24,832	-0,048	-0,021
-208,694	-34,133	-0,093	-0,037
-207,679	-6,779	-0,061	0,030
-206,665	-102,782	-0,103	0,018
-205,650	47,148	0,074	0,050
-204,636	-11,919	0,107	0,051
-203,621	-200,000	-0,002	-0,051
-202,606	-200,000	0,020	-0,069
-201,592	-134,851	0,108	-0,009
-200,577	54,396	-0,094	0,066
-199,563	437,708	-0,029	0,046
-198,548	-160,449	0,232	-0,009
-197,533	-13,827	0,127	0,060
-196,519	-61,062	-0,052	-0,016
-195,504	5,841	-0,026	-0,014
-194,490	671,988	-0,068	-0,129
-193,475	258,232	0,075	-0,094
-192,460	800,000	-0,014	0,040
-191,446	-61,303	0,101	-0,031
-190,431	-200,000	-0,007	0,164
-189,417	-200,000	-0,007	-0,044
-188,402	800,000	0,012	-0,038
-187,387	180,352	0,075	-0,080
-186,373	110,442	0,033	-0,029
-185,358	800,000	0,015	0,035
-184,344	-200,000	0,018	0,080
-183,329	-41,898	0,231	0,086
-182,315	-200,000	0,002	0,049
-181,300	757,578	-0,040	0,079
-180,285	800,000	-0,007	0,018
-179,271	-86,693	0,067	-0,015
-178,256	210,870	0,094	0,108
-177,242	-117,049	-0,039	-0,005
-176,227	-200,000	-0,009	0,118
-175,212	-200,000	0,031	0,109
-174,198	-63,296	0,184	-0,055
-173,183	156,990	-0,029	0,029
-172,169	506,887	-0,041	0,070
-171,154	-40,134	0,040	-0,015
-170,139	453,298	-0,025	-0,041
-169,125	-89,080	0,112	-0,024
-168,110	-200,000	0,012	0,043
-167,096	-145,068	-0,138	-0,009
-166,081	-114,645	-0,038	-0,005
-165,066	6,938	0,027	0,015
-164,052	-63,434	-0,027	-0,008
-163,037	-150,036	0,079	0,004
-162,023	-200,000	0,023	0,138
-161,008	172,879	-0,022	0,023
-159,993	-153,730	0,089	-0,004
-158,979	291,596	-0,109	0,145
-157,964	-200,000	-0,020	-0,098
-156,950	800,000	0,110	-0,291
-155,935	-7,995	0,075	-0,037
-154,920	14,061	-0,056	-0,032
-153,906	-50,853	0,069	-0,024
-152,891	3,440	0,010	-0,005
-151,877	-66,561	-0,131	-0,038
-150,862	-174,663	-0,034	-0,001
-149,847	56,530	-0,029	0,020
-148,833	223,996	0,051	0,060
-147,818	-200,000	0,016	0,225
-146,804	-200,000	0,021	0,165
-145,789	800,000	-0,031	0,064
-144,775	293,088	0,066	-0,088
-143,760	282,414	-0,058	-0,076
-142,745	225,772	-0,052	-0,062
-141,731	-41,615	0,024	-0,009
-140,716	56,834	0,036	0,025
-139,702	-200,000	-0,017	-0,120
-138,687	22,888	-0,084	0,050
-137,672	242,660	0,084	0,103
-136,658	336,282	-0,060	0,085
-135,643	-54,260	0,026	-0,009
-134,629	-200,000	-0,018	-0,085
-133,614	-114,226	-0,140	0,019
-132,599	800,000	0,048	-0,108
-131,585	-66,050	0,102	0,029
-130,570	98,071	0,178	-0,149
-129,556	800,000	0,013	-0,029
-128,541	-153,367	-0,083	-0,004
-127,526	-60,217	0,119	-0,037
-126,512	343,397	0,062	0,088
-125,497	-200,000	-0,014	0,092
-124,483	-200,000	-0,009	0,031
-123,468	-200,000	0,015	-0,068
-122,453	-82,646	0,094	0,022
-121,439	291,827	-0,052	-0,068
-120,424	260,477	0,086	-0,109
-119,410	-90,561	0,172	0,036
-118,395	540,840	0,086	0,150
-117,380	-200,000	0,014	0,052
-116,366	19,600	0,129	0,075
-115,351	564,305	0,033	-0,059
-114,337	800,000	-0,022	-0,049
-113,322	-53,167	0,074	0,025
-112,307	-159,217	-0,031	0,001
-111,293	-23,220	0,039	0,017
-110,278	23,355	-0,013	0,008
-109,264	211,494	-0,069	0,079
-108,249	-200,000	-0,003	-0,110
-107,234	-200,000	-0,022	-0,117
-106,220	-97,451	0,014	0,003
-105,205	-200,000	-0,023	-0,077
-104,191	-158,609	-0,101	-0,004
-103,176	-22,558	-0,069	0,030
-102,162	-200,000	0,012	0,091
-101,147	-24,233	0,094	0,041
-100,132	-126,516	0,008	0,001
-99,118	800,000	-0,024	0,066
-98,103	437,820	0,040	0,064
-97,089	-200,000	0,025	0,155
-96,074	-148,767	-0,044	0,003
-95,059	-27,812	0,108	-0,045
-94,045	-19,594	-0,124	-0,055
-93,030	128,044	-0,102	-0,094
-92,016	33,064	-0,079	-0,050
-91,001	-42,357	0,157	-0,058
-89,986	333,819	0,075	-0,106
-88,972	-107,867	-0,052	0,008
-87,957	0,667	0,091	-0,047
-86,943	126,799	-0,042	-0,038
-85,928	132,026	-0,062	-0,058
-84,913	-107,140	0,146	-0,023
-83,899	-24,117	-0,027	0,012
-82,884	-86,502	0,112	0,025
-81,870	800,000	0,059	0,119
-80,855	-162,899	-0,051	-0,002
-79,840	180,680	-0,068	-0,072
-78,826	-29,855	0,075	-0,031
-77,811	125,958	-0,106	0,097
-76,797	-26,370	0,125	0,053
-75,782	466,180	0,035	0,058
-74,767	-200,000	0,019	0,113
-73,753	51,543	-0,041	0,028
-72,738	151,528	0,064	-0,063
-71,724	-200,000	-0,034	-0,196
-70,709	-151,314	0,131	-0,007
-69,694	-135,147	-0,120	-0,010
-68,680	-200,000	0,008	0,050
-67,665	182,631	-0,018	0,020
-66,651	-200,000	0,031	-0,104
-65,636	-200,000	0,009	0,045
-64,622	-113,269	0,088	-0,012
-63,607	210,468	-0,037	-0,042
-62,592	175,092	-0,078	-0,082
-61,578	-200,000	0,014	0,129
-60,563	87,140	0,091	0,073
-59,549	106,660	-0,111	0,095
-58,534	-131,315	-1,376	-0,130
-57,519	499,751	-0,849	-1,426
-56,505	-200,000	-0,888	-4,381
-55,490	-0,254	0,643	-0,330
-54,476	800,000	4,842	11,738
-53,461	-200,000	13,824	253,204
-52,446	-200,000	690,309	2249,351
-51,432	583,519	1622,451	2900,447
-50,417	118,691	1634,076	1463,326
-49,403	72,617	1288,273	973,497
-48,388	37,859	1023,698	658,279
-47,373	24,257	981,289	586,322
-46,359	23,431	971,009	577,449
-45,344	22,383	966,962	571,599
-44,330	22,424	965,131	570,627
-43,315	22,293	963,725	569,346
-42,300	22,250	962,993	568,753
-41,286	22,270	961,808	568,095
-40,271	22,239	960,906	567,437
-39,257	22,250	960,082	566,965
-38,242	22,296	958,962	566,431
-37,227	22,177	958,195	565,570
-36,213	22,168	957,499	565,106
-35,198	22,112	956,709	564,438
-34,184	22,245	955,757	564,282
-33,169	22,153	955,045	563,544
-32,154	22,269	953,922	563,232
-31,140	22,239	953,211	562,693
-30,125	22,297	952,378	562,367
-29,111	22,251	951,582	561,724
-28,096	22,265	950,823	561,300
-27,082	22,251	950,281	560,912
-26,067	22,276	949,470	560,491
-25,052	22,274	948,590	559,943
-24,038	22,266	948,043	559,573
-23,023	22,222	947,325	558,987
-22,009	22,287	946,729	558,821
-20,994	22,254	946,284	558,430
-19,979	22,290	945,532	558,081
-18,965	22,235	945,020	557,578
-17,950	22,272	944,376	557,295
-16,936	22,337	943,143	556,751
-15,921	22,240	942,710	556,165
-14,906	22,137	942,252	555,545
-13,892	22,156	941,586	555,193
-12,877	22,143	940,996	554,780
-11,863	22,109	940,430	554,318
-10,848	22,075	939,826	553,832
-9,833	22,187	939,404	553,915
-8,819	22,173	938,779	553,482
-7,804	22,152	938,116	553,001
-6,790	22,186	937,378	552,651
-5,775	22,143	936,837	552,177
-4,760	22,147	936,365	551,888
-3,746	22,162	935,609	551,469
-2,731	21,997	934,871	550,491
-1,717	21,914	934,369	549,911
-0,702	21,944	933,678	549,578
0,313	21,798	932,963	549,526
1,327	24,862	930,931	557,905
2,342	34,399	795,390	502,045
3,356	32,363	451,159	281,680
4,371	1,467	293,647	152,537
5,386	-2,858	274,616	138,550
6,400	-4,044	268,784	134,496
7,415	-4,436	266,631	133,047
8,429	-4,328	265,304	132,471
9,444	-4,418	264,417	131,935
10,459	-4,342	263,822	131,695
11,473	-4,401	263,280	131,359
12,488	-4,369	262,634	131,054
13,502	-4,633	262,179	130,577
14,517	-4,801	261,829	130,239
15,531	-4,604	261,214	130,099
16,546	-4,563	260,920	129,978
17,561	-4,678	260,545	129,676
18,575	-4,578	260,395	129,680
19,590	-4,701	259,933	129,328
20,604	-4,562	259,585	129,268
21,619	-4,674	259,361	129,044
22,634	-4,603	259,020	128,927
23,648	-4,603	258,577	128,695
24,663	-4,639	258,417	128,571
25,677	-4,728	258,157	128,352
26,692	-4,664	257,937	128,288
27,707	-4,721	257,736	128,126
28,721	-4,631	257,336	127,995
29,736	-4,737	257,157	127,801
30,750	-4,724	256,910	127,678
31,765	-4,769	256,569	127,457
32,780	-4,572	256,324	127,499
33,794	-4,680	256,230	127,345
34,809	-4,782	256,033	127,146
35,823	-4,752	255,677	126,984
36,838	-4,919	255,374	126,676
37,853	-4,763	254,988	126,609
38,867	-4,871	254,945	126,483
39,882	-4,651	254,672	126,528
40,896	-4,721	254,640	126,439
41,911	-4,897	254,378	126,145
42,926	-4,940	254,097	125,956
43,940	-4,825	253,837	125,917
44,955	-4,875	253,449	125,670
45,969	-4,866	253,533	125,707
46,984	-5,003	253,133	125,379
47,999	-5,028	252,910	125,236
49,013	-5,112	252,552	124,974
50,028	-5,288	252,379	124,725
51,042	-5,438	252,022	124,407
52,057	-5,445	251,892	124,326
53,071	-5,554	251,679	124,116
54,086	-5,225	251,526	124,314
55,101	-5,305	251,453	124,197
56,115	-5,120	251,436	124,337
57,130	-4,713	251,242	124,581
58,144	-4,510	250,959	124,605
59,159	-4,564	251,009	124,572
60,174	-4,590	250,571	124,321
61,188	-4,696	250,359	124,114
62,203	-4,589	250,209	124,120
63,217	-4,555	249,833	123,953
64,232	-4,744	249,748	123,737
65,247	-4,529	249,633	123,854
66,261	-4,735	249,393	123,546
67,276	-4,885	249,117	123,270
68,290	-4,802	248,798	123,173
69,305	-5,021	248,666	122,909
70,320	-5,061	248,421	122,743
71,334	-4,771	248,107	122,824
72,349	-4,578	248,148	122,998
73,363	-4,555	247,959	122,913
74,378	-4,460	247,661	122,835
75,393	-4,585	247,509	122,642
76,407	-4,585	247,238	122,497
77,422	-4,739	247,133	122,303
78,436	-4,620	246,863	122,260
79,451	-4,551	246,690	122,221
80,466	-4,698	246,440	121,962
81,480	-4,913	246,234	121,668
82,495	-4,814	245,903	121,577
83,509	-4,835	245,977	121,586
84,524	-4,881	245,745	121,421
85,539	-4,942	245,495	121,236
86,553	-4,985	245,296	121,090
87,568	-5,112	245,091	120,871
88,582	-4,969	245,024	120,948
89,597	-4,835	244,688	120,883
90,611	-4,794	244,627	120,877
91,626	-4,595	244,430	120,935
92,641	-4,788	244,331	120,714
93,655	-4,767	243,980	120,547
94,670	-4,947	244,000	120,396
95,684	-4,813	243,717	120,358
96,699	-4,710	243,499	120,325
97,714	-4,716	243,087	120,106
98,728	-4,910	243,119	119,949
99,743	-4,969	242,929	119,796
100,757	-4,862	242,597	119,710
101,772	-4,994	242,657	119,620
102,787	-4,878	242,292	119,526
103,801	-4,827	242,176	119,500
104,816	-4,916	242,013	119,335
105,830	-4,503	241,883	119,602
106,845	-4,520	241,771	119,522
107,860	-4,683	241,509	119,247
108,874	-4,873	241,391	119,021
109,889	-4,768	241,199	119,002
110,903	-4,691	240,973	118,944
111,918	-4,828	240,752	118,711
112,933	-4,743	240,656	118,724
113,947	-4,891	240,574	118,551
114,962	-4,600	240,409	118,698
115,976	-4,641	239,987	118,445
116,991	-4,891	239,904	118,189
118,006	-4,821	239,745	118,157
119,020	-4,682	239,656	118,216
120,035	-4,728	239,445	118,064
121,049	-4,619	239,372	118,107
122,064	-4,634	239,248	118,023
123,079	-4,622	238,992	117,896
124,093	-4,837	238,699	117,566
125,108	-4,900	238,446	117,379
126,122	-5,129	238,229	117,075
127,137	-5,035	238,145	117,101
128,151	-5,135	237,888	116,882
129,166	-5,005	237,788	116,928
130,181	-5,141	237,715	116,772
131,195	-4,995	237,391	116,720
132,210	-4,607	237,240	116,950
133,224	-4,839	237,199	116,732
134,239	-4,740	237,115	116,760
135,254	-4,639	236,831	116,692
136,268	-4,730	236,659	116,523
137,283	-4,970	236,449	116,215
138,297	-5,106	236,183	115,965
139,312	-5,049	236,028	115,924
140,327	-4,908	235,975	116,001
141,341	-4,382	235,885	116,370
142,356	-4,334	235,602	116,258
143,370	-4,451	235,633	116,169
144,385	-4,438	235,365	116,037
145,400	-4,320	235,261	116,070
146,414	-4,588	235,180	115,805
147,429	-4,603	234,993	115,691
148,443	-4,617	234,809	115,578
149,458	-4,503	234,591	115,552
150,473	-4,460	234,388	115,476
151,487	-4,242	234,137	115,515
152,502	-4,342	234,007	115,362
153,516	-4,555	233,990	115,173
154,531	-4,533	233,732	115,053
155,546	-4,433	233,441	114,979
156,560	-4,471	233,323	114,881
157,575	-4,465	233,110	114,771
158,589	-4,430	232,817	114,644
159,604	-4,395	232,966	114,734
160,619	-4,114	232,613	114,773
161,633	-4,300	232,556	114,588
162,648	-4,280	232,406	114,519
163,662	-4,417	232,311	114,354
164,677	-4,398	232,082	114,246
165,692	-4,374	232,037	114,233
166,706	-4,432	231,774	114,047
167,721	-4,347	231,650	114,043
168,735	-4,393	231,549	113,947
169,750	-4,276	231,235	113,875
170,764	-4,543	231,363	113,717
171,779	-4,303	231,104	113,768
172,794	-4,296	230,971	113,698
173,808	-4,242	230,569	113,533
174,823	-4,885	230,437	112,953
175,837	-5,026	230,267	112,749
176,852	-4,482	230,118	113,092
177,867	-4,450	230,258	113,176
178,881	-4,280	229,928	113,137
179,896	-4,277	229,833	113,083
180,910	-4,207	229,604	113,014
181,925	-4,279	229,563	112,927
182,940	-4,419	229,293	112,676
183,954	-4,199	229,150	112,766
184,969	-4,174	229,137	112,770
185,983	-4,471	229,013	112,468
186,998	-4,162	228,847	112,616
188,013	-4,120	228,621	112,528
189,027	-4,290	228,521	112,337
190,042	-4,049	228,359	112,434
191,056	-4,219	228,151	112,189
192,071	-4,214	228,058	112,137
193,086	-4,168	227,826	112,049
194,100	-4,040	227,657	112,054
195,115	-4,150	227,267	111,768
196,129	-4,882	227,097	111,110
197,144	-2,786	227,632	112,980
198,159	0,725	228,676	116,207
199,173	3,674	229,527	118,915
200,188	4,043	229,540	119,197
201,202	3,953	229,486	119,089
202,217	4,360	229,329	119,312
203,232	4,373	229,165	119,226
204,246	4,572	229,017	119,292
205,261	4,672	228,917	119,306
206,275	4,850	228,740	119,340
207,290	4,832	228,631	119,260
208,304	4,849	228,587	119,238
209,319	4,802	228,195	118,987
210,334	4,893	227,805	118,844
211,348	4,484	227,802	118,517
212,363	4,118	227,578	118,110
213,377	3,802	227,444	117,787
214,392	3,769	227,375	117,716
215,407	4,070	227,097	117,792
216,421	3,978	227,067	117,695
217,436	3,757	226,879	117,418
218,450	3,646	226,655	117,207
219,465	3,565	226,424	117,016
220,480	3,841	226,276	117,138
221,494	3,517	226,231	116,859
222,509	4,013	226,065	117,140
223,523	4,085	225,874	117,085
224,538	3,664	225,751	116,691
225,553	3,692	225,739	116,695
226,567	4,169	225,544	116,946
227,582	4,058	225,536	116,848
228,596	4,316	225,248	116,884
229,611	3,933	225,138	116,525
230,626	3,881	224,898	116,352
231,640	3,926	224,702	116,274
232,655	3,928	224,619	116,223
233,669	4,466	224,677	116,649
234,684	4,599	224,488	116,640
235,699	4,201	224,274	116,218
236,713	4,220	223,999	116,080
237,728	3,751	223,947	115,690
238,742	3,809	223,786	115,639
239,757	3,859	223,619	115,581
240,772	3,723	223,469	115,391
241,786	3,787	223,410	115,399
242,801	4,086	223,197	115,502
243,815	4,312	223,164	115,644
244,830	4,262	223,036	115,530
245,844	4,272	222,560	115,281
246,859	3,840	222,610	114,973
247,874	4,042	222,449	115,031
248,888	4,108	222,342	115,014
249,903	4,173	222,225	114,992
250,917	3,873	221,993	114,638
251,932	4,109	221,801	114,705
252,947	3,812	221,645	114,393
253,961	3,879	221,524	114,369
254,976	3,824	221,378	114,243
255,990	4,010	221,342	114,353
257,005	4,000	221,321	114,325
258,020	4,225	221,042	114,337
259,034	4,275	221,010	114,347
260,049	4,422	220,749	114,311
261,063	4,202	220,722	114,124
262,078	4,131	220,504	113,948
263,093	4,418	220,442	114,119
264,107	4,369	220,179	113,936
265,122	4,590	219,950	113,971
266,136	4,238	220,243	113,852
267,151	4,422	219,805	113,751
268,166	4,156	219,505	113,390
269,180	3,784	219,458	113,082
270,195	4,002	219,303	113,152
271,209	3,828	219,010	112,863
272,224	3,779	219,078	112,852
273,239	4,136	218,894	113,010
274,253	3,874	218,814	112,766
275,268	3,752	218,511	112,510
276,282	3,429	218,381	112,197
277,297	3,538	218,189	112,167
278,312	3,793	217,953	112,223
279,326	3,870	218,006	112,296
280,341	3,768	217,872	112,143
281,355	3,852	217,820	112,167
282,370	3,723	217,581	111,940
283,384	3,699	217,353	111,795
284,399	3,587	217,166	111,608
285,414	3,540	217,037	111,497
286,428	3,433	217,212	111,499
287,443	4,065	216,867	111,771
288,457	3,912	216,815	111,623
289,472	3,965	216,497	111,488
290,487	3,248	216,284	110,849
291,501	3,524	216,126	110,958
292,516	3,391	215,981	110,777
293,530	3,520	215,937	110,839
294,545	3,525	215,726	110,724
295,560	3,732	215,704	110,852
296,574	3,613	215,582	110,694
297,589	3,842	215,528	110,821
298,603	3,901	215,433	110,805
299,618	3,981	215,309	110,789
300,633	3,954	215,124	110,665
301,647	4,007	215,076	110,668
302,662	4,043	214,939	110,614
303,676	4,086	214,751	110,538
304,691	4,140	214,676	110,528
305,706	4,146	214,507	110,436
306,720	4,165	214,301	110,333
307,735	3,714	214,202	109,950
308,749	3,704	214,055	109,857
309,764	4,059	213,906	110,025
310,779	4,293	213,695	110,073
311,793	4,152	213,580	109,904
312,808	3,973	213,484	109,717
313,822	4,071	213,298	109,682
314,837	3,878	213,115	109,440
315,852	3,758	212,977	109,274
316,866	3,801	212,922	109,267
317,881	4,142	212,783	109,427
318,895	4,101	212,813	109,404
319,910	3,901	212,489	109,086
320,925	3,774	212,251	108,864
321,939	3,273	212,008	108,375
322,954	3,396	212,021	108,459
323,968	3,737	212,023	108,692
324,983	4,141	211,873	108,891
325,997	4,047	211,757	108,756
327,012	4,103	211,558	108,683
328,027	4,069	211,410	108,573
329,041	4,289	211,386	108,706
330,056	4,331	211,256	108,659
331,070	3,841	211,063	108,206
332,085	3,648	210,910	107,982
333,100	3,882	210,631	107,994
334,114	4,140	210,525	108,111
335,129	3,892	210,516	107,923
336,143	3,736	210,335	107,711
337,158	3,861	210,190	107,714
338,173	3,887	210,159	107,707
339,187	3,562	209,960	107,368
340,202	3,576	209,646	107,208
341,216	3,697	209,532	107,224
342,231	3,625	209,400	107,097
343,246	3,754	209,247	107,099
344,260	3,657	209,428	107,115
345,275	4,018	209,048	107,162
346,289	4,156	209,090	107,270
347,304	3,886	208,960	107,006
348,319	3,777	208,834	106,856
349,333	4,017	208,620	106,904
350,348	3,941	208,582	106,822
351,362	4,230	208,395	106,917
352,377	4,173	208,325	106,832
353,392	3,972	208,171	106,605
354,406	4,001	208,146	106,603
355,421	194,829	1345,817	1436,535
356,435	155,479	1484,531	1436,651
