DTS Sentinel unit serial number:	SN410029Multiplexer serial number:	ORYXHardware model number:	OX2-SRSoftware version number:	ORYX F/W v4,00 Oryx Data Collector v3.7.2.0data status	okinstallation	B6 Nyhavnadifferential loss correction	single-endedforward channel	channel 2reverse channel	N/Adate	2023/12/11time	00:10:08forward acquisition time	300,00reverse acquisition time	0,00gamma	499,1914k internal	0,3122k external	0,3122temperature offset calibration	1,0000default loss term (dB/km)	0,3820temperature slope calibration	1,0000multiplexer offset coefficient	1,0000multiplexer slope coefficient	1,0000fibre end	0,00T internal ref (°C)	22,37T ext. ref 1 (°C)	5,92T ext. ref 2 (°C)	5,94length (m)	temperature (°C)	Stokes	anti-Stokes-744,400	800,000	-0,006	0,013
-743,385	21,132	-0,227	0,137
-742,371	62,230	0,083	-0,061
-741,356	2,097	-0,241	0,129
-740,342	39,082	0,079	-0,052
-739,327	143,865	-0,187	0,186
-738,312	800,000	-0,016	-0,047
-737,298	-24,813	-0,247	0,109
-736,283	800,000	0,050	-0,130
-735,269	-5,466	-0,077	0,039
-734,254	800,000	-0,024	-0,063
-733,239	-64,903	-0,372	-0,111
-732,225	95,066	0,132	-0,112
-731,210	-200,000	-0,029	0,106
-730,196	-157,521	0,047	-0,002
-729,181	-137,056	0,086	-0,007
-728,167	-125,702	-0,038	0,004
-727,152	-179,358	0,107	0,002
-726,137	-200,000	-0,014	-0,142
-725,123	713,450	-0,073	-0,145
-724,108	75,158	-0,136	-0,107
-723,094	800,000	-0,026	-0,074
-722,079	451,430	-0,060	-0,099
-721,064	5,829	0,083	-0,045
-720,050	800,000	-0,020	-0,044
-719,035	-31,513	0,107	-0,045
-718,021	-200,000	-0,010	0,096
-717,006	-200,000	-0,012	0,048
-715,991	-200,000	-0,009	-0,092
-714,977	325,209	0,012	-0,017
-713,962	68,306	-0,083	-0,063
-712,948	-97,334	-0,157	0,030
-711,933	259,845	-0,014	0,018
-710,918	-58,260	-0,097	0,031
-709,904	-22,088	-0,081	0,036
-708,889	55,214	-0,063	-0,045
-707,875	-200,000	0,025	0,101
-706,860	800,000	-0,028	-0,076
-705,845	-104,119	-0,133	-0,023
-704,831	800,000	0,051	0,131
-703,816	800,000	0,028	0,071
-702,802	389,275	0,015	-0,023
-701,787	800,000	-0,062	-0,138
-700,772	-57,234	-0,173	-0,056
-699,758	-200,000	0,013	0,071
-698,743	-10,947	0,092	0,045
-697,729	-61,822	-0,086	-0,027
-696,714	237,774	0,071	0,088
-695,699	-35,237	-0,063	-0,026
-694,685	-191,136	-0,027	0,000
-693,670	82,827	-0,159	-0,128
-692,656	800,000	0,096	0,265
-691,641	311,723	0,042	-0,059
-690,627	800,000	-0,056	-0,142
-689,612	667,654	0,054	-0,104
-688,597	96,599	-0,080	0,068
-687,583	-200,000	0,003	-0,124
-686,568	-200,000	0,024	-0,171
-685,554	-24,603	0,098	-0,043
-684,539	800,000	0,028	0,064
-683,524	800,000	-0,018	0,041
-682,510	-200,000	0,023	-0,080
-681,495	800,000	-0,066	-0,148
-680,481	-53,011	-0,143	-0,049
-679,466	-101,604	-0,120	0,021
-678,451	252,401	-0,141	-0,179
-677,437	-155,876	-0,091	0,004
-676,422	-10,720	0,022	-0,011
-675,408	-38,493	-0,067	0,026
-674,393	-146,253	0,069	-0,004
-673,378	-61,933	-0,087	-0,027
-672,364	-90,034	0,092	-0,020
-671,349	800,000	-0,056	-0,143
-670,335	-200,000	-0,004	-0,070
-669,320	68,229	-0,077	0,058
-668,305	800,000	-0,011	0,030
-667,291	-164,407	0,146	0,005
-666,276	800,000	0,028	-0,061
-665,262	283,447	0,060	-0,080
-664,247	800,000	0,038	0,093
-663,232	64,470	-0,116	0,087
-662,218	51,439	0,020	0,014
-661,203	-200,000	0,007	-0,063
-660,189	449,339	0,025	0,040
-659,174	800,000	-0,086	-0,262
-658,159	467,338	-0,048	-0,080
-657,145	800,000	0,009	0,028
-656,130	66,151	0,137	-0,103
-655,116	-39,260	0,108	-0,042
-654,101	-200,000	0,010	-0,042
-653,086	445,987	-0,020	0,033
-652,072	219,549	-0,018	0,022
-651,057	-126,752	-0,116	0,013
-650,043	224,255	0,074	0,089
-649,028	-200,000	-0,008	-0,140
-648,014	22,240	-0,057	-0,034
-646,999	206,207	0,059	0,068
-645,984	131,498	0,056	-0,053
-644,970	142,301	-0,131	0,129
-643,955	503,767	-0,019	0,033
-642,941	-38,590	-0,038	-0,015
-641,926	631,702	0,051	-0,096
-640,911	-40,799	0,082	0,031
-639,897	-200,000	0,007	-0,063
-638,882	-135,344	0,067	0,006
-637,868	-200,000	-0,004	0,093
-636,853	-81,685	-0,139	0,034
-635,838	800,000	0,023	-0,070
-634,824	432,279	0,029	-0,046
-633,809	117,170	0,065	0,059
-632,795	-18,570	-0,019	0,009
-631,780	-200,000	-0,015	-0,084
-630,765	-60,416	0,057	0,018
-629,751	800,000	0,044	0,107
-628,736	-71,498	-0,023	-0,006
-627,722	557,683	0,049	-0,088
-626,707	-122,706	-0,101	0,012
-625,692	-103,976	0,087	0,015
-624,678	105,618	0,035	0,031
-623,663	800,000	-0,010	-0,030
-622,649	142,758	-0,160	-0,158
-621,634	-200,000	0,022	-0,111
-620,619	-5,138	-0,081	-0,041
-619,605	34,938	0,076	-0,050
-618,590	800,000	0,040	0,103
-617,576	212,342	0,049	0,058
-616,561	-200,000	0,015	-0,064
-615,546	-200,000	-0,004	-0,103
-614,532	83,548	-0,100	-0,080
-613,517	218,346	-0,058	0,068
-612,503	313,178	-0,073	0,102
-611,488	-193,359	0,071	-0,000
-610,474	94,363	-0,093	0,078
-609,459	-143,969	-0,101	-0,007
-608,444	-200,000	-0,002	0,055
-607,430	-200,000	-0,002	-0,080
-606,415	-151,136	-0,047	0,003
-605,401	219,336	-0,012	0,014
-604,386	-144,556	0,032	-0,002
-603,371	-126,432	0,103	-0,011
-602,357	32,748	0,094	-0,060
-601,342	-200,000	0,007	-0,052
-600,328	228,575	-0,043	0,052
-599,313	7,710	-0,076	-0,042
-598,298	-200,000	-0,038	0,164
-597,284	61,643	-0,077	-0,057
-596,269	-156,020	-0,056	0,003
-595,255	-90,714	0,140	0,030
-594,240	556,937	0,038	-0,067
-593,225	-200,000	-0,017	-0,135
-592,211	-17,676	0,087	0,040
-591,196	-26,379	-0,029	0,013
-590,182	43,316	0,099	-0,067
-589,167	44,921	-0,035	-0,024
-588,152	11,081	0,035	-0,020
-587,138	124,728	-0,033	-0,031
-586,123	36,494	-0,090	0,059
-585,109	800,000	-0,016	0,041
-584,094	-10,955	-0,107	-0,052
-583,079	-138,475	-0,114	-0,009
-582,065	283,131	0,024	0,032
-581,050	800,000	-0,024	0,071
-580,036	744,353	-0,062	0,123
-579,021	396,043	-0,070	0,109
-578,006	-200,000	-0,003	0,013
-576,992	-130,008	0,098	0,010
-575,977	-123,125	-0,075	0,009
-574,963	-42,704	0,082	-0,031
-573,948	40,434	-0,081	0,054
-572,934	287,271	0,072	0,096
-571,919	322,649	-0,055	-0,077
-570,904	-114,902	-0,072	0,010
-569,890	-200,000	-0,005	0,027
-568,875	800,000	0,042	-0,121
-567,861	-97,994	0,109	0,021
-566,846	170,680	0,007	-0,007
-565,831	-3,147	-0,068	0,035
-564,817	327,583	-0,163	-0,232
-563,802	-89,600	0,129	-0,028
-562,788	647,528	0,022	-0,043
-561,773	59,995	-0,036	0,026
-560,758	57,153	-0,033	0,024
-559,744	765,706	0,023	0,046
-558,729	-49,549	-0,044	0,015
-557,715	88,718	0,040	0,033
-556,700	-41,587	0,038	0,014
-555,685	-200,000	-0,015	-0,119
-554,671	-168,391	-0,191	-0,005
-553,656	800,000	-0,041	0,122
-552,642	209,097	0,057	0,067
-551,627	-117,247	-0,028	-0,004
-550,612	178,094	-0,057	-0,061
-549,598	488,663	-0,034	-0,057
-548,583	-30,257	0,128	-0,053
-547,569	65,269	0,015	0,012
-546,554	-84,668	0,107	0,025
-545,539	215,031	-0,083	0,097
-544,525	89,391	-0,221	0,182
-543,510	-200,000	-0,014	0,075
-542,496	30,778	0,029	-0,019
-541,481	102,785	-0,094	-0,081
-540,466	342,877	-0,131	-0,191
-539,452	-106,146	0,070	0,011
-538,437	-200,000	0,019	0,092
-537,423	800,000	-0,028	-0,068
-536,408	-35,257	-0,097	-0,039
-535,393	10,697	-0,023	-0,013
-534,379	-50,900	-0,079	-0,027
-533,364	-65,820	-0,015	0,004
-532,350	788,411	-0,034	0,069
-531,335	148,842	-0,067	-0,067
-530,321	-141,016	-0,091	-0,007
-529,306	210,355	-0,111	-0,129
-528,291	307,204	-0,041	-0,057
-527,277	-200,000	0,005	-0,106
-526,262	-11,430	-0,082	-0,040
-525,248	-133,803	0,155	-0,014
-524,233	-61,941	0,008	-0,002
-523,218	314,844	-0,091	0,127
-522,204	-200,000	0,007	0,153
-521,189	486,392	-0,012	-0,020
-520,175	-200,000	0,026	0,102
-519,160	-37,780	-0,078	0,030
-518,145	48,262	0,074	-0,051
-517,131	-71,541	0,087	-0,024
-516,116	-137,003	0,039	-0,003
-515,102	-200,000	0,008	0,028
-514,087	50,576	0,145	-0,101
-513,072	2,177	-0,096	0,051
-512,058	61,105	-0,024	-0,018
-511,043	-112,958	0,099	0,014
-510,029	-200,000	0,025	-0,093
-509,014	133,680	0,087	-0,084
-507,999	514,854	-0,023	-0,040
-506,985	58,646	-0,013	-0,010
-505,970	-200,000	0,012	0,091
-504,956	800,000	-0,040	-0,088
-503,941	380,427	0,053	-0,081
-502,926	-200,000	-0,003	-0,075
-501,912	114,902	-0,054	0,049
-500,897	-31,115	0,163	-0,067
-499,883	-15,219	0,146	-0,069
-498,868	-101,831	0,123	0,022
-497,853	-200,000	-0,021	-0,088
-496,839	314,819	0,057	-0,080
-495,824	-173,783	0,090	0,002
-494,810	-94,050	-0,097	0,019
-493,795	321,571	-0,045	-0,063
-492,781	201,302	-0,056	-0,064
-491,766	-12,558	-0,120	-0,058
-490,751	-200,000	-0,012	-0,159
-489,737	800,000	-0,003	-0,009
-488,722	-200,000	0,037	0,212
-487,708	193,423	0,053	0,060
-486,693	-200,000	-0,029	0,139
-485,678	-200,000	0,017	0,101
-484,664	-4,652	0,046	-0,023
-483,649	460,416	-0,139	-0,230
-482,635	-104,886	0,123	-0,021
-481,620	798,397	-0,056	0,115
-480,605	292,251	-0,067	-0,091
-479,591	-168,075	-0,104	-0,003
-478,576	464,985	0,073	0,122
-477,562	60,710	0,020	0,015
-476,547	97,103	-0,117	-0,099
-475,532	-200,000	0,051	-0,216
-474,518	-189,546	0,066	0,001
-473,503	307,291	0,044	-0,060
-472,489	-200,000	0,036	0,173
-471,474	-92,354	0,129	-0,026
-470,459	-65,446	-0,044	0,013
-469,445	800,000	-0,029	-0,074
-468,430	-200,000	0,001	-0,015
-467,416	-93,031	0,137	0,028
-466,401	-92,625	0,009	0,002
-465,386	84,467	0,095	0,076
-464,372	800,000	-0,017	0,036
-463,357	68,030	-0,060	-0,045
-462,343	-200,000	-0,028	-0,096
-461,328	349,550	-0,057	-0,083
-460,313	-62,126	0,089	0,027
-459,299	709,214	0,036	0,071
-458,284	426,064	0,022	0,035
-457,270	-94,630	-0,073	0,014
-456,255	39,338	0,027	-0,018
-455,241	-200,000	0,020	0,119
-454,226	185,642	-0,068	-0,075
-453,211	-59,335	0,093	-0,029
-452,197	-53,379	0,051	-0,017
-451,182	-200,000	-0,002	-0,042
-450,168	-94,977	0,088	0,017
-449,153	-200,000	-0,017	0,109
-448,138	17,643	-0,132	-0,077
-447,124	61,141	0,009	0,007
-446,109	-121,970	0,100	0,012
-445,095	800,000	-0,018	0,044
-444,080	217,676	0,019	0,022
-443,065	43,457	0,024	0,016
-442,051	800,000	-0,045	-0,120
-441,036	-200,000	-0,027	-0,099
-440,022	-49,668	-0,032	0,011
-439,007	800,000	0,030	-0,066
-437,992	-200,000	-0,004	-0,029
-436,978	800,000	-0,022	-0,065
-435,963	-106,896	-0,082	0,013
-434,949	-200,000	-0,016	-0,079
-433,934	325,618	-0,031	-0,043
-432,919	-48,782	0,070	0,024
-431,905	-200,000	0,018	-0,062
-430,890	60,612	0,094	-0,068
-429,876	-86,130	0,072	0,016
-428,861	74,778	-0,088	0,068
-427,846	76,146	0,054	0,042
-426,832	-200,000	-0,001	-0,073
-425,817	450,456	-0,108	-0,176
-424,803	68,864	0,097	-0,073
-423,788	-51,229	-0,076	-0,026
-422,773	423,173	0,008	0,012
-421,759	800,000	-0,028	0,085
-420,744	-133,977	0,084	-0,008
-419,730	800,000	-0,025	0,060
-418,715	52,742	0,058	0,041
-417,701	800,000	-0,011	-0,028
-416,686	800,000	0,033	0,070
-415,671	-200,000	-0,005	0,022
-414,657	-2,186	0,099	0,051
-413,642	-16,139	-0,031	0,014
-412,628	-81,394	0,025	-0,006
-411,613	103,321	0,066	0,057
-410,598	-69,853	-0,066	0,018
-409,584	31,367	-0,173	0,109
-408,569	-200,000	0,024	0,082
-407,555	-200,000	0,007	0,162
-406,540	91,944	-0,020	0,017
-405,525	-200,000	-0,013	-0,057
-404,511	280,299	-0,065	0,085
-403,496	-200,000	-0,010	-0,087
-402,482	-200,000	-0,001	-0,158
-401,467	5,025	0,035	0,019
-400,452	-200,000	-0,024	0,144
-399,438	-99,891	-0,109	0,020
-398,423	-120,499	-0,176	-0,022
-397,409	220,040	0,111	-0,131
-396,394	-200,000	0,009	0,033
-395,379	-200,000	-0,018	-0,099
-394,365	-111,350	0,070	0,010
-393,350	800,000	0,047	0,111
-392,336	-87,183	0,090	0,020
-391,321	-200,000	0,013	0,090
-390,306	-200,000	0,024	-0,135
-389,292	800,000	-0,044	-0,097
-388,277	175,178	-0,043	-0,046
-387,263	-200,000	0,009	0,050
-386,248	46,626	0,107	0,073
-385,233	739,472	0,029	-0,058
-384,219	-200,000	0,002	-0,044
-383,204	125,007	0,081	-0,075
-382,190	-200,000	-0,037	0,124
-381,175	-56,784	0,085	0,027
-380,160	-157,730	-0,017	0,001
-379,146	800,000	0,007	0,018
-378,131	-112,045	-0,080	0,012
-377,117	361,387	0,048	0,070
-376,102	-61,910	-0,140	-0,043
-375,088	434,476	-0,046	-0,074
-374,073	-97,033	0,048	-0,009
-373,058	55,844	0,107	0,076
-372,044	800,000	0,046	0,107
-371,029	25,410	0,087	0,053
-370,015	347,657	0,084	0,123
-369,000	-200,000	-0,007	-0,075
-367,985	266,083	0,071	0,091
-366,971	-49,615	0,081	-0,028
-365,956	-134,519	-0,051	0,005
-364,942	646,934	0,015	-0,028
-363,927	-25,133	0,082	0,036
-362,912	459,447	0,048	-0,079
-361,898	196,871	-0,089	0,100
-360,883	-19,168	0,077	0,035
-359,869	579,580	0,036	0,065
-358,854	-127,797	0,133	0,014
-357,839	0,498	0,078	0,041
-356,825	-200,000	0,002	-0,074
-355,810	-148,942	-0,095	-0,006
-354,796	333,126	-0,055	0,078
-353,781	-200,000	-0,006	0,045
-352,766	150,280	-0,067	0,067
-351,752	-64,130	0,093	-0,028
-350,737	-200,000	-0,015	0,093
-349,723	70,356	0,106	0,080
-348,708	-200,000	0,014	-0,112
-347,693	-85,165	-0,135	0,031
-346,679	-200,000	0,005	-0,050
-345,664	199,931	-0,109	-0,123
-344,650	134,929	0,097	-0,092
-343,635	-1,832	0,022	-0,011
-342,620	-122,747	-0,091	0,011
-341,606	359,132	0,070	-0,103
-340,591	289,624	-0,057	0,076
-339,577	-84,557	0,009	-0,002
-338,562	-68,436	-0,092	-0,026
-337,548	-200,000	-0,069	0,241
-336,533	264,690	0,116	0,148
-335,518	269,717	0,086	0,111
-334,504	189,478	-0,022	0,024
-333,489	-200,000	0,000	-0,084
-332,475	800,000	-0,044	-0,120
-331,460	-93,481	-0,118	-0,024
-330,445	12,039	0,059	0,033
-329,431	-200,000	0,003	0,059
-328,416	-168,104	-0,143	0,004
-327,402	-33,350	-0,071	0,029
-326,387	-85,740	-0,112	-0,025
-325,372	355,086	-0,066	0,097
-324,358	31,329	-0,087	-0,054
-323,343	-97,651	-0,014	0,003
-322,329	-200,000	-0,016	0,050
-321,314	145,772	0,054	-0,053
-320,299	-200,000	0,000	-0,187
-319,285	-77,149	-0,104	-0,026
-318,270	800,000	-0,020	-0,053
-317,256	259,541	-0,008	-0,010
-316,241	800,000	0,036	-0,104
-315,226	-50,666	-0,097	0,033
-314,212	-36,536	0,116	-0,046
-313,197	-118,102	-0,019	0,002
-312,183	-200,000	-0,003	0,042
-311,168	426,563	0,059	0,094
-310,153	-133,496	0,058	-0,005
-309,139	58,366	-0,077	-0,055
-308,124	-67,411	0,056	0,016
-307,110	-200,000	-0,006	0,029
-306,095	677,467	-0,036	-0,069
-305,080	-200,000	0,009	-0,128
-304,066	-54,439	0,104	0,034
-303,051	-200,000	-0,026	-0,147
-302,037	-175,249	0,022	0,000
-301,022	-100,504	-0,130	0,023
-300,008	800,000	0,061	0,194
-298,993	90,552	0,054	-0,044
-297,978	216,705	0,061	0,071
-296,964	-63,065	-0,141	-0,042
-295,949	-85,365	-0,098	0,022
-294,935	151,076	-0,100	-0,099
-293,920	125,639	0,064	-0,059
-292,905	-71,692	0,096	-0,026
-291,891	-82,136	-0,128	0,030
-290,876	42,273	0,051	0,034
-289,862	380,362	-0,037	-0,056
-288,847	-134,392	-0,047	0,004
-287,832	193,449	-0,056	0,062
-286,818	-200,000	-0,025	0,114
-285,803	46,672	0,061	0,041
-284,789	236,860	0,068	0,082
-283,774	-200,000	0,007	-0,094
-282,759	-159,220	-0,019	-0,001
-281,745	-113,637	0,159	0,022
-280,730	800,000	-0,022	-0,065
-279,716	-200,000	0,022	-0,077
-278,701	-200,000	-0,025	0,094
-277,686	365,989	0,049	0,072
-276,672	-200,000	0,022	0,121
-275,657	800,000	0,022	0,070
-274,643	800,000	0,034	-0,073
-273,628	162,517	0,011	0,011
-272,613	-43,180	0,076	0,028
-271,599	-131,235	-0,078	-0,007
-270,584	-34,834	0,051	-0,020
-269,570	76,132	-0,024	0,018
-268,555	-97,223	-0,089	-0,017
-267,540	-200,000	0,013	0,097
-266,526	70,914	0,113	-0,085
-265,511	-200,000	-0,006	-0,048
-264,497	800,000	-0,005	-0,015
-263,482	-37,868	0,057	0,022
-262,467	-200,000	0,018	0,236
-261,453	-200,000	-0,007	0,104
-260,438	316,040	0,055	0,076
-259,424	85,663	-0,141	-0,113
-258,409	-200,000	0,008	-0,031
-257,395	-151,148	0,110	0,006
-256,380	-200,000	-0,014	-0,061
-255,365	-13,100	0,040	-0,019
-254,351	-200,000	0,018	0,137
-253,336	-200,000	0,001	0,022
-252,322	-57,367	0,052	-0,017
-251,307	-200,000	0,020	-0,162
-250,292	231,953	-0,064	-0,077
-249,278	-200,000	0,006	0,038
-248,263	82,215	0,068	-0,054
-247,249	800,000	0,041	-0,095
-246,234	238,745	-0,044	-0,053
-245,219	-150,348	-0,086	-0,005
-244,205	46,776	-0,094	-0,064
-243,190	735,422	0,059	-0,117
-242,176	800,000	-0,021	-0,056
-241,161	23,172	0,046	0,027
-240,146	-105,337	0,083	-0,014
-239,132	800,000	0,021	0,066
-238,117	-200,000	-0,003	0,032
-237,103	800,000	-0,013	0,029
-236,088	156,673	-0,109	-0,111
-235,073	-41,900	0,172	-0,064
-234,059	-147,942	-0,112	-0,007
-233,044	122,704	-0,048	-0,044
-232,030	-200,000	-0,019	0,147
-231,015	-120,077	-0,174	-0,021
-230,000	-200,000	0,005	-0,070
-228,986	59,057	-0,082	-0,059
-227,971	800,000	-0,035	-0,078
-226,957	800,000	0,010	-0,026
-225,942	-68,993	-0,037	0,010
-224,927	237,118	0,014	-0,016
-223,913	117,793	0,062	0,056
-222,898	25,631	-0,026	0,016
-221,884	661,174	-0,071	0,135
-220,869	-150,686	0,152	-0,008
-219,855	163,248	0,050	-0,052
-218,840	-200,000	0,003	0,022
-217,825	-200,000	0,025	-0,100
-216,811	51,161	0,049	-0,034
-215,796	-200,000	0,028	0,109
-214,782	800,000	-0,030	0,071
-213,767	-148,730	0,039	-0,002
-212,752	800,000	0,107	0,246
-211,738	226,654	0,027	-0,032
-210,723	-200,000	0,005	0,059
-209,709	61,097	0,066	0,048
-208,694	-51,529	-0,067	0,023
-207,679	-200,000	0,029	-0,110
-206,665	-200,000	0,025	0,094
-205,650	800,000	-0,043	0,102
-204,636	-200,000	-0,005	-0,024
-203,621	-44,667	0,078	0,028
-202,606	-122,025	-0,046	-0,005
-201,592	-130,310	0,080	-0,008
-200,577	71,862	0,045	-0,034
-199,563	45,363	0,087	-0,059
-198,548	-200,000	-0,006	-0,032
-197,533	-200,000	-0,023	0,106
-196,519	-200,000	-0,016	-0,054
-195,504	144,796	-0,103	0,100
-194,490	-91,317	-0,096	-0,020
-193,475	19,021	-0,026	0,015
-192,460	-200,000	0,000	0,035
-191,446	-200,000	-0,013	0,061
-190,431	-40,843	0,107	-0,040
-189,417	800,000	0,026	0,077
-188,402	135,316	0,060	-0,057
-187,387	233,953	0,039	-0,046
-186,373	-146,962	-0,068	0,004
-185,358	-200,000	-0,004	-0,013
-184,344	-38,654	0,080	-0,031
-183,329	-67,175	0,079	0,023
-182,315	-15,529	0,083	-0,038
-181,300	-115,959	0,167	0,022
-180,285	800,000	0,001	-0,002
-179,271	800,000	0,013	0,028
-178,256	30,203	-0,036	-0,022
-177,242	160,957	-0,056	0,057
-176,227	83,233	-0,035	0,028
-175,212	-111,178	-0,091	0,013
-174,198	71,385	-0,087	-0,066
-173,183	197,371	-0,062	-0,069
-172,169	224,898	0,085	0,100
-171,154	-200,000	-0,006	-0,113
-170,139	-18,085	0,023	0,010
-169,125	12,581	0,112	0,063
-168,110	-9,589	0,056	0,027
-167,096	326,294	-0,080	0,112
-166,081	800,000	-0,061	-0,123
-165,066	800,000	0,031	-0,066
-164,052	387,202	-0,086	0,130
-163,037	800,000	-0,017	-0,038
-162,023	-52,041	0,099	0,033
-161,008	800,000	-0,026	0,054
-159,993	800,000	-0,038	0,116
-158,979	-200,000	0,014	0,049
-157,964	-110,517	-0,105	-0,016
-156,950	475,709	-0,051	0,084
-155,935	800,000	-0,009	0,027
-154,920	675,247	0,013	-0,024
-153,906	400,432	0,069	0,106
-152,891	680,766	0,041	0,079
-151,877	98,925	0,105	-0,088
-150,862	-33,912	-0,084	0,033
-149,847	85,170	-0,069	-0,055
-148,833	800,000	0,026	0,075
-147,818	800,000	0,022	-0,054
-146,804	-119,106	-0,053	-0,007
-145,789	-200,000	0,016	-0,089
-144,775	-165,063	-0,047	0,001
-143,760	800,000	-0,005	-0,016
-142,745	299,224	-0,115	0,154
-141,731	-200,000	-0,021	0,091
-140,716	243,809	0,058	0,071
-139,702	-200,000	0,018	0,108
-138,687	-200,000	0,007	-0,098
-137,672	51,091	-0,125	-0,086
-136,658	800,000	-0,042	-0,097
-135,643	130,815	-0,095	-0,089
-134,629	-200,000	0,008	-0,095
-133,614	-139,932	0,084	-0,006
-132,599	-127,396	0,049	0,005
-131,585	-112,845	0,162	0,023
-130,570	800,000	0,065	0,159
-129,556	247,303	0,072	-0,088
-128,541	125,088	0,047	-0,044
-127,526	-101,493	-0,078	0,014
-126,512	800,000	-0,021	0,060
-125,497	-83,422	0,114	-0,026
-124,483	84,752	0,127	0,101
-123,468	-74,481	-0,095	0,025
-122,453	-86,122	-0,120	-0,027
-121,439	368,924	-0,047	-0,069
-120,424	800,000	0,056	-0,145
-119,410	60,457	-0,068	-0,049
-118,395	-200,000	-0,018	0,079
-117,380	725,822	0,090	0,175
-116,366	189,827	-0,045	-0,049
-115,351	800,000	-0,023	-0,063
-114,337	-200,000	-0,006	0,046
-113,322	225,810	-0,044	-0,052
-112,307	212,847	0,096	-0,111
-111,293	188,965	0,111	0,121
-110,278	-200,000	0,025	0,128
-109,264	242,324	-0,043	0,053
-108,249	800,000	-0,097	-0,196
-107,234	-86,651	-0,084	-0,018
-106,220	-135,975	0,046	-0,004
-105,205	-200,000	-0,006	-0,082
-104,191	556,849	0,034	-0,060
-103,176	-97,072	-0,090	-0,017
-102,162	800,000	-0,035	-0,071
-101,147	709,517	-0,032	0,062
-100,132	-145,803	-0,200	-0,013
-99,118	363,161	-0,022	-0,032
-98,103	-126,200	0,074	0,008
-97,089	-86,068	-0,103	-0,023
-96,074	-200,000	0,021	-0,152
-95,059	-186,900	0,164	-0,002
-94,045	-60,846	-0,060	0,018
-93,030	-63,061	0,141	-0,042
-92,016	-139,362	0,105	0,008
-91,001	-108,522	0,168	0,026
-89,986	291,651	0,039	-0,052
-88,972	61,498	0,068	-0,049
-87,957	359,947	0,089	0,130
-86,943	226,377	0,036	-0,042
-85,928	-200,000	-0,004	0,020
-84,913	-200,000	0,031	-0,147
-83,899	320,459	0,062	-0,086
-82,884	272,497	-0,027	0,035
-81,870	-156,453	-0,082	0,004
-80,855	-25,301	0,162	-0,070
-79,840	3,778	-0,027	-0,014
-78,826	543,166	-0,059	-0,103
-77,811	-162,239	-0,057	0,002
-76,797	-189,873	0,080	-0,001
-75,782	477,447	-0,032	0,054
-74,767	170,667	0,018	0,018
-73,753	6,159	0,088	0,047
-72,738	-200,000	-0,034	-0,113
-71,724	81,518	-0,111	-0,087
-70,709	577,680	-0,034	0,061
-69,694	348,706	-0,055	-0,079
-68,680	800,000	0,030	-0,066
-67,665	301,667	0,009	-0,012
-66,651	-200,000	0,035	0,152
-65,636	159,358	-0,071	0,072
-64,622	34,701	-0,024	-0,015
-63,607	24,478	-0,104	-0,062
-62,592	-18,600	-0,025	0,011
-61,578	-81,144	0,072	0,017
-60,563	-200,000	-0,001	0,156
-59,549	141,490	-0,030	-0,028
-58,534	-139,249	-1,343	-0,103
-57,519	574,009	-0,794	-1,411
-56,505	-200,000	-0,799	-4,503
-55,490	26,651	0,682	-0,414
-54,476	800,000	5,026	11,838
-53,461	-200,000	13,654	252,886
-52,446	-200,000	689,531	2259,721
-51,432	591,975	1622,122	2918,830
-50,417	119,411	1634,927	1468,726
-49,403	73,351	1288,844	977,718
-48,388	38,111	1024,044	659,901
-47,373	24,349	981,881	587,465
-46,359	23,562	971,695	578,764
-45,344	22,624	967,078	572,926
-44,330	22,517	965,782	571,787
-43,315	22,389	964,451	570,558
-42,300	22,430	963,254	569,962
-41,286	22,457	962,293	569,459
-40,271	22,409	961,323	568,705
-39,257	22,403	960,438	568,142
-38,242	22,383	959,467	567,478
-37,227	22,370	958,629	566,918
-36,213	22,406	957,553	566,375
-35,198	22,341	957,011	565,824
-34,184	22,398	956,304	565,567
-33,169	22,300	955,512	564,758
-32,154	22,414	954,449	564,477
-31,140	22,451	953,492	564,006
-30,125	22,443	952,776	563,535
-29,111	22,420	951,861	562,897
-28,096	22,437	951,137	562,504
-27,082	22,425	950,574	562,108
-26,067	22,447	949,942	561,784
-25,052	22,412	949,101	561,150
-24,038	22,412	948,419	560,726
-23,023	22,441	947,860	560,464
-22,009	22,423	947,390	560,107
-20,994	22,467	946,655	559,793
-19,979	22,424	945,839	559,149
-18,965	22,440	945,395	558,916
-17,950	22,407	944,784	558,427
-16,936	22,352	944,133	557,844
-15,921	22,390	943,298	557,451
-14,906	22,346	942,564	556,855
-13,892	22,320	941,970	556,400
-12,877	22,320	941,416	556,049
-11,863	22,302	940,689	555,540
-10,848	22,298	940,241	555,241
-9,833	22,326	939,839	555,072
-8,819	22,262	939,362	554,565
-7,804	22,328	938,610	554,309
-6,790	22,269	938,015	553,748
-5,775	22,341	937,217	553,484
-4,760	22,311	936,718	553,071
-3,746	22,334	936,037	552,718
-2,731	22,232	935,175	551,865
-1,717	22,141	934,686	551,270
-0,702	22,191	933,911	550,948
0,313	21,913	933,448	550,629
1,327	25,058	931,432	559,281
2,342	34,757	795,954	503,766
3,356	32,776	451,452	282,719
4,371	1,564	293,770	152,826
5,386	-2,941	274,578	138,566
6,400	-4,495	268,759	134,176
7,415	-4,885	266,429	132,642
8,429	-4,618	265,166	132,246
9,444	-4,620	264,254	131,778
10,459	-4,641	263,780	131,511
11,473	-4,776	263,239	131,107
12,488	-4,756	262,608	130,799
13,502	-4,987	262,130	130,340
14,517	-4,881	261,627	130,174
15,531	-4,658	261,297	130,199
16,546	-4,557	260,995	130,128
17,561	-4,718	260,491	129,721
18,575	-4,318	260,367	130,006
19,590	-4,799	259,869	129,315
20,604	-4,632	259,735	129,387
21,619	-4,832	259,253	128,956
22,634	-4,742	258,913	128,855
23,648	-4,814	258,632	128,640
24,663	-4,723	258,425	128,607
25,677	-4,695	258,199	128,508
26,692	-4,795	258,054	128,336
27,707	-4,722	257,679	128,202
28,721	-4,806	257,263	127,909
29,736	-4,953	257,297	127,784
30,750	-4,762	256,836	127,714
31,765	-4,812	256,629	127,555
32,780	-4,769	256,497	127,515
33,794	-4,686	256,137	127,399
34,809	-4,830	255,935	127,160
35,823	-4,807	255,942	127,173
36,838	-4,954	255,459	126,792
37,853	-4,694	255,112	126,837
38,867	-4,921	255,096	126,618
39,882	-4,619	254,838	126,744
40,896	-4,839	254,708	126,475
41,911	-4,956	254,474	126,244
42,926	-5,032	254,153	126,007
43,940	-4,691	253,778	126,108
44,955	-4,868	253,700	125,904
45,969	-4,819	253,355	125,764
46,984	-5,087	253,119	125,402
47,999	-5,458	252,934	124,977
49,013	-5,701	252,762	124,669
50,028	-5,608	252,361	124,541
51,042	-5,761	252,109	124,273
52,057	-5,606	251,796	124,242
53,071	-5,705	251,856	124,175
54,086	-5,568	251,506	124,109
55,101	-5,324	251,377	124,245
56,115	-5,249	251,406	124,313
57,130	-4,778	251,156	124,586
58,144	-4,395	250,990	124,823
59,159	-4,603	250,910	124,592
60,174	-4,622	250,626	124,424
61,188	-4,788	250,426	124,170
62,203	-4,519	250,155	124,257
63,217	-4,628	250,067	124,108
64,232	-4,749	249,821	123,870
65,247	-4,557	249,621	123,925
66,261	-4,764	249,495	123,674
67,276	-4,958	249,133	123,318
68,290	-5,174	248,880	122,996
69,305	-5,127	248,601	122,888
70,320	-5,256	248,521	122,728
71,334	-4,769	248,484	123,114
72,349	-4,683	248,225	123,048
73,363	-4,659	248,043	122,967
74,378	-4,780	247,917	122,791
75,393	-4,688	247,552	122,677
76,407	-4,655	247,352	122,596
77,422	-4,673	247,292	122,539
78,436	-4,769	247,097	122,350
79,451	-4,673	246,997	122,371
80,466	-4,732	246,571	122,100
81,480	-4,916	246,274	121,787
82,495	-5,140	246,163	121,531
83,509	-4,890	245,855	121,579
84,524	-5,002	245,706	121,400
85,539	-5,240	245,527	121,100
86,553	-5,145	245,348	121,081
87,568	-5,208	245,259	120,974
88,582	-4,963	245,056	121,069
89,597	-5,077	244,905	120,888
90,611	-4,892	244,823	120,991
91,626	-4,680	244,465	120,981
92,641	-4,840	244,336	120,773
93,655	-5,082	244,304	120,543
94,670	-4,785	243,849	120,556
95,684	-4,866	243,811	120,460
96,699	-4,872	243,722	120,399
97,714	-5,002	243,420	120,131
98,728	-5,200	243,294	119,893
99,743	-5,215	242,969	119,710
100,757	-5,178	242,768	119,631
101,772	-5,138	242,743	119,641
102,787	-5,088	242,434	119,520
103,801	-5,030	242,349	119,515
104,816	-4,878	242,249	119,582
105,830	-4,713	242,096	119,632
106,845	-4,677	241,812	119,511
107,860	-4,632	241,647	119,456
108,874	-4,999	241,454	119,047
109,889	-5,221	241,296	118,774
110,903	-5,070	241,144	118,814
111,918	-5,082	240,828	118,637
112,933	-5,038	240,719	118,610
113,947	-4,912	240,554	118,621
114,962	-4,912	240,427	118,548
115,976	-4,767	240,183	118,537
116,991	-4,752	240,124	118,509
118,006	-4,721	239,873	118,400
119,020	-4,872	239,816	118,237
120,035	-4,817	239,668	118,199
121,049	-4,780	239,596	118,183
122,064	-4,712	239,267	118,066
123,079	-4,721	239,127	117,979
124,093	-4,818	238,763	117,710
125,108	-4,873	238,516	117,533
126,122	-5,221	238,432	117,197
127,137	-5,356	238,233	116,980
128,151	-5,318	238,078	116,924
129,166	-5,036	237,820	117,016
130,181	-5,255	237,682	116,760
131,195	-5,325	237,595	116,650
132,210	-5,152	237,430	116,699
133,224	-5,096	237,368	116,703
134,239	-4,849	237,162	116,791
135,254	-4,975	237,067	116,632
136,268	-5,029	236,615	116,356
137,283	-5,331	236,546	116,067
138,297	-5,287	236,292	115,968
139,312	-5,421	236,131	115,771
140,327	-4,956	235,956	116,049
141,341	-4,675	236,078	116,325
142,356	-4,597	235,899	116,290
143,370	-4,474	235,753	116,306
144,385	-4,405	235,526	116,238
145,400	-4,285	235,314	116,220
146,414	-4,318	235,159	116,107
147,429	-4,452	235,041	115,931
148,443	-4,632	234,843	115,678
149,458	-4,481	234,734	115,735
150,473	-4,650	234,547	115,498
151,487	-4,528	234,325	115,476
152,502	-4,635	234,160	115,299
153,516	-4,345	233,878	115,380
154,531	-4,712	233,908	115,092
155,546	-4,500	233,698	115,148
156,560	-4,770	233,611	114,880
157,575	-4,831	233,342	114,688
158,589	-4,705	233,026	114,623
159,604	-4,529	232,930	114,705
160,619	-4,467	232,957	114,757
161,633	-4,173	232,761	114,884
162,648	-4,295	232,619	114,707
163,662	-4,498	232,406	114,431
164,677	-4,676	232,228	114,193
165,692	-4,688	232,214	114,166
166,706	-4,587	231,949	114,105
167,721	-4,439	231,922	114,199
168,735	-4,421	231,786	114,136
169,750	-4,554	231,487	113,873
170,764	-4,511	231,388	113,848
171,779	-4,512	231,338	113,813
172,794	-4,496	231,149	113,722
173,808	-4,617	230,831	113,461
174,823	-5,166	230,484	112,850
175,837	-5,151	230,446	112,832
176,852	-4,752	230,320	113,074
177,867	-4,498	230,247	113,227
178,881	-4,530	230,093	113,115
179,896	-4,490	229,958	113,070
180,910	-4,482	229,963	113,069
181,925	-4,442	229,669	112,945
182,940	-4,430	229,426	112,826
183,954	-4,332	229,272	112,816
184,969	-4,432	229,324	112,753
185,983	-4,094	229,030	112,862
186,998	-4,216	228,917	112,701
188,013	-4,114	228,798	112,713
189,027	-4,147	228,583	112,571
190,042	-3,947	228,318	112,585
191,056	-4,407	228,275	112,197
192,071	-4,234	228,015	112,194
193,086	-4,393	227,964	112,035
194,100	-4,457	227,766	111,878
195,115	-4,748	227,432	111,480
196,129	-5,552	227,292	110,780
197,144	-1,920	228,487	114,169
198,159	2,662	229,590	118,272
199,173	4,156	229,999	119,633
200,188	4,135	229,838	119,522
201,202	4,263	229,689	119,533
202,217	4,638	229,516	119,723
203,232	4,790	229,643	119,897
204,246	4,794	229,381	119,752
205,261	4,914	229,206	119,742
206,275	5,254	229,004	119,889
207,290	4,979	228,973	119,649
208,304	5,181	228,738	119,672
209,319	5,092	228,651	119,547
210,334	4,902	228,421	119,270
211,348	4,582	228,206	118,901
212,363	4,382	228,029	118,644
213,377	4,055	227,696	118,209
214,392	4,071	227,478	118,098
215,407	4,105	227,379	118,062
216,421	4,370	227,264	118,195
217,436	4,159	227,182	117,980
218,450	4,120	226,761	117,721
219,465	3,784	226,839	117,494
220,480	3,990	226,652	117,544
221,494	4,302	226,396	117,639
222,509	4,126	226,340	117,465
223,523	4,173	226,087	117,359
224,538	3,982	226,037	117,177
225,553	4,003	226,047	117,188
226,567	4,122	225,842	117,162
227,582	4,502	225,768	117,402
228,596	4,430	225,724	117,314
229,611	4,324	225,362	117,035
230,626	4,120	225,200	116,786
231,640	3,870	225,008	116,487
232,655	4,222	225,075	116,777
233,669	4,793	224,965	117,142
234,684	4,797	224,878	117,090
235,699	4,498	224,658	116,738
236,713	4,424	224,370	116,522
237,728	4,082	224,124	116,126
238,742	3,884	224,026	115,916
239,757	4,000	224,023	115,991
240,772	4,003	223,674	115,803
241,786	3,917	223,661	115,721
242,801	4,349	223,476	115,940
243,815	4,436	223,450	115,981
244,830	4,612	223,262	116,005
245,844	4,255	223,113	115,650
246,859	4,459	222,787	115,623
247,874	4,430	222,845	115,621
248,888	4,589	222,599	115,602
249,903	4,181	222,541	115,257
250,917	4,089	222,349	115,079
251,932	4,170	222,078	114,988
252,947	4,257	221,939	114,971
253,961	4,156	221,662	114,742
254,976	4,092	221,767	114,738
255,990	4,328	221,712	114,875
257,005	4,400	221,409	114,762
258,020	4,181	221,496	114,634
259,034	4,565	221,339	114,828
260,049	4,463	221,132	114,634
261,063	4,366	220,934	114,450
262,078	4,237	220,823	114,286
263,093	4,442	220,673	114,350
264,107	4,344	220,571	114,215
265,122	4,458	220,324	114,161
266,136	4,739	220,142	114,263
267,151	4,468	220,153	114,059
268,166	4,224	219,900	113,738
269,180	3,926	219,601	113,353
270,195	3,985	219,464	113,317
271,209	4,009	219,443	113,313
272,224	3,942	219,359	113,210
273,239	4,286	219,190	113,366
274,253	4,254	218,997	113,232
275,268	3,939	218,951	112,967
276,282	3,928	218,682	112,810
277,297	3,729	218,403	112,510
278,312	4,003	218,352	112,675
279,326	4,000	218,363	112,668
280,341	3,963	218,211	112,552
281,355	4,075	218,121	112,578
282,370	4,254	217,928	112,599
283,384	3,907	217,763	112,250
284,399	4,029	217,559	112,224
285,414	4,048	217,417	112,155
286,428	4,084	217,340	112,131
287,443	4,066	217,253	112,063
288,457	4,327	217,062	112,145
289,472	4,295	216,838	111,996
290,487	3,620	216,763	111,457
291,501	3,733	216,593	111,441
292,516	3,932	216,339	111,445
293,530	3,788	216,357	111,340
294,545	3,889	216,228	111,337
295,560	3,759	216,020	111,126
296,574	3,962	216,013	111,259
297,589	4,132	215,851	111,289
298,603	4,246	215,745	111,307
299,618	4,184	215,610	111,182
300,633	3,950	215,453	110,923
301,647	4,468	215,383	111,250
302,662	4,325	215,284	111,086
303,676	4,231	215,007	110,866
304,691	4,544	214,934	111,043
305,706	4,550	214,789	110,962
306,720	4,541	214,682	110,891
307,735	4,049	214,650	110,511
308,749	4,209	214,399	110,487
309,764	4,166	214,263	110,376
310,779	4,420	214,151	110,490
311,793	4,427	213,890	110,351
312,808	4,413	213,755	110,261
313,822	4,398	213,473	110,095
314,837	4,092	213,418	109,839
315,852	3,902	213,366	109,667
316,866	4,227	213,317	109,863
317,881	4,294	213,166	109,823
318,895	4,278	212,966	109,699
319,910	4,127	212,763	109,478
320,925	3,830	212,555	109,150
321,939	3,614	212,296	108,854
322,954	3,737	212,340	108,954
323,968	3,971	212,401	109,142
324,983	4,261	212,138	109,202
325,997	4,233	212,148	109,178
327,012	4,161	211,753	108,914
328,027	4,159	211,684	108,868
329,041	4,476	211,666	109,072
330,056	4,434	211,706	109,053
331,070	4,200	211,379	108,710
332,085	3,813	211,183	108,327
333,100	3,905	211,062	108,321
334,114	4,011	210,988	108,347
335,129	4,087	210,631	108,208
336,143	4,041	210,552	108,125
337,158	3,834	210,486	107,936
338,173	3,962	210,270	107,906
339,187	4,017	210,168	107,882
340,202	3,863	210,124	107,742
341,216	3,548	209,839	107,366
342,231	3,934	209,786	107,600
343,246	3,719	209,677	107,383
344,260	3,998	209,558	107,508
345,275	4,042	209,408	107,452
346,289	4,183	209,271	107,471
347,304	4,265	209,260	107,513
348,319	4,176	209,122	107,370
349,333	4,162	208,978	107,277
350,348	3,926	208,816	107,019
351,362	4,498	208,752	107,375
352,377	4,294	208,564	107,127
353,392	4,113	208,429	106,922
354,406	4,244	208,300	106,938
355,421	194,232	1345,519	1435,445
356,435	154,985	1484,179	1435,565
