DTS Sentinel unit serial number:	SN410029Multiplexer serial number:	ORYXHardware model number:	OX2-SRSoftware version number:	ORYX F/W v4,00 Oryx Data Collector v3.7.2.0data status	okinstallation	B6 Nyhavnadifferential loss correction	single-endedforward channel	channel 2reverse channel	N/Adate	2023/12/09time	23:55:08forward acquisition time	300,00reverse acquisition time	0,00gamma	499,1914k internal	0,3126k external	0,3126temperature offset calibration	1,0000default loss term (dB/km)	0,3820temperature slope calibration	1,0000multiplexer offset coefficient	1,0000multiplexer slope coefficient	1,0000fibre end	0,00T internal ref (°C)	21,75T ext. ref 1 (°C)	5,61T ext. ref 2 (°C)	5,59length (m)	temperature (°C)	Stokes	anti-Stokes-744,400	-4,481	0,113	0,058
-743,385	-57,900	-0,250	0,081
-742,371	-120,140	0,158	0,020
-741,356	465,890	-0,126	0,210
-740,342	-71,403	0,090	-0,025
-739,327	89,760	-0,134	0,112
-738,312	255,111	0,098	-0,125
-737,298	-65,876	-0,297	0,088
-736,283	-152,197	0,113	0,006
-735,269	49,712	-0,230	0,161
-734,254	800,000	0,008	-0,023
-733,239	-147,827	-0,368	0,023
-732,225	119,487	0,050	0,046
-731,210	176,679	-0,036	0,039
-730,196	-49,954	-0,030	-0,010
-729,181	800,000	0,016	-0,053
-728,167	-116,724	0,111	0,015
-727,152	-200,000	-0,016	-0,058
-726,137	-200,000	-0,047	-0,192
-725,123	800,000	-0,023	-0,068
-724,108	-52,753	-0,058	-0,020
-723,094	63,828	-0,076	-0,057
-722,079	-142,190	-0,060	0,004
-721,064	734,395	-0,084	-0,167
-720,050	-200,000	-0,001	0,023
-719,035	-14,122	0,006	0,003
-718,021	34,596	-0,101	-0,065
-717,006	-14,810	-0,125	-0,060
-715,991	155,419	-0,050	0,051
-714,977	-123,974	-0,092	-0,011
-713,962	-150,237	0,093	-0,005
-712,948	192,444	-0,095	0,107
-711,933	370,064	-0,043	0,064
-710,918	-57,823	-0,007	0,002
-709,904	-22,820	-0,078	-0,035
-708,889	-200,000	-0,002	0,061
-707,875	-50,352	-0,163	-0,057
-706,860	14,879	-0,102	0,059
-705,845	-94,217	0,143	0,029
-704,831	-200,000	-0,020	-0,115
-703,816	748,189	-0,012	0,023
-702,802	124,677	-0,033	-0,031
-701,787	416,209	-0,078	-0,123
-700,772	88,418	-0,038	0,031
-699,758	800,000	0,039	-0,119
-698,743	532,360	0,044	0,079
-697,729	800,000	0,010	-0,028
-696,714	-43,768	-0,018	-0,007
-695,699	800,000	0,043	-0,094
-694,685	34,761	-0,036	-0,023
-693,670	-200,000	-0,020	-0,087
-692,656	395,770	-0,072	0,112
-691,641	800,000	0,042	-0,112
-690,627	-28,686	0,083	-0,035
-689,612	369,508	-0,078	0,117
-688,597	-48,355	-0,088	-0,031
-687,583	158,187	-0,040	-0,041
-686,568	156,560	0,070	-0,072
-685,554	706,178	0,035	-0,069
-684,539	-200,000	0,051	-0,000
-683,524	-200,000	-0,009	-0,041
-682,510	-162,604	0,104	0,004
-681,495	800,000	0,021	-0,059
-680,481	-200,000	0,003	-0,119
-679,466	680,108	-0,067	-0,130
-678,451	800,000	0,032	-0,097
-677,437	-136,902	-0,067	-0,006
-676,422	33,846	0,088	0,057
-675,408	-36,750	-0,037	-0,015
-674,393	-4,180	0,187	-0,096
-673,378	800,000	-0,063	-0,172
-672,364	260,950	-0,047	-0,060
-671,349	800,000	-0,064	-0,149
-670,335	-180,894	0,057	0,001
-669,320	800,000	0,047	0,128
-668,305	800,000	-0,066	0,142
-667,291	-108,613	-0,032	-0,005
-666,276	-200,000	0,014	-0,069
-665,262	141,985	-0,046	-0,045
-664,247	408,343	-0,046	0,072
-663,232	-200,000	0,008	0,068
-662,218	-200,000	-0,023	-0,081
-661,203	-39,742	-0,122	-0,047
-660,189	1,577	0,062	-0,033
-659,174	512,289	0,038	-0,066
-658,159	207,582	0,017	-0,020
-657,145	-200,000	-0,000	-0,005
-656,130	-200,000	-0,007	-0,028
-655,116	-29,956	-0,097	-0,041
-654,101	-178,060	0,090	-0,002
-653,086	800,000	-0,019	-0,051
-652,072	-154,790	0,066	0,003
-651,057	58,978	-0,107	-0,078
-650,043	-200,000	-0,008	-0,162
-649,028	-200,000	-0,028	-0,145
-648,014	-61,505	-0,073	-0,023
-646,999	-64,795	0,098	0,029
-645,984	-200,000	0,000	0,101
-644,970	-200,000	0,009	0,094
-643,955	315,581	-0,057	-0,080
-642,941	-0,680	-0,029	0,015
-641,926	760,631	-0,024	0,049
-640,911	146,892	-0,027	0,027
-639,897	-200,000	-0,001	-0,006
-638,882	38,249	0,097	-0,064
-637,868	288,467	-0,036	-0,048
-636,853	207,390	0,075	-0,086
-635,838	-169,907	-0,036	0,001
-634,824	44,197	-0,086	-0,058
-633,809	-200,000	-0,010	0,065
-632,795	-14,644	-0,122	0,058
-631,780	-43,258	0,027	0,010
-630,765	-132,826	0,044	0,004
-629,751	-155,756	0,077	-0,004
-628,736	-200,000	0,010	-0,144
-627,722	59,512	-0,079	-0,058
-626,707	-200,000	-0,005	0,016
-625,692	276,420	0,069	-0,091
-624,678	49,256	0,064	-0,044
-623,663	-200,000	0,001	0,012
-622,649	-176,978	0,086	-0,002
-621,634	595,531	-0,037	-0,068
-620,619	-200,000	-0,005	0,050
-619,605	-100,072	-0,050	0,009
-618,590	384,099	0,010	0,016
-617,576	2,530	0,051	0,028
-616,561	-57,591	-0,067	-0,022
-615,546	-125,192	0,097	-0,011
-614,532	800,000	-0,040	-0,132
-613,517	-120,155	-0,145	0,018
-612,503	51,390	-0,090	0,063
-611,488	-52,021	0,106	0,036
-610,474	207,153	-0,027	-0,031
-609,459	-200,000	0,011	0,124
-608,444	620,790	-0,030	0,056
-607,430	294,722	0,064	-0,087
-606,415	-195,902	-0,073	0,000
-605,401	-34,405	0,034	0,014
-604,386	-74,326	-0,100	0,027
-603,371	-125,618	0,084	-0,009
-602,357	-200,000	-0,011	-0,061
-601,342	800,000	-0,032	0,071
-600,328	158,081	-0,108	-0,111
-599,313	800,000	-0,037	-0,102
-598,298	-200,000	-0,011	0,081
-597,284	-135,081	0,187	0,016
-596,269	-175,305	-0,187	0,004
-595,255	-200,000	0,032	-0,139
-594,240	-32,621	-0,128	-0,052
-593,225	-110,789	0,083	-0,013
-592,211	192,787	0,049	0,055
-591,196	59,072	-0,034	0,025
-590,182	46,212	-0,067	0,046
-589,167	546,182	-0,043	-0,076
-588,152	-200,000	0,018	0,088
-587,138	-81,410	-0,146	-0,035
-586,123	104,618	0,061	-0,053
-585,109	-200,000	-0,011	0,050
-584,094	-200,000	-0,000	-0,021
-583,079	-107,768	-0,034	-0,005
-582,065	211,706	0,011	-0,012
-581,050	-200,000	-0,004	-0,103
-580,036	800,000	-0,007	0,018
-579,021	91,669	-0,063	-0,052
-578,006	-117,345	0,033	0,004
-576,992	-43,011	-0,150	-0,056
-575,977	41,772	0,139	-0,093
-574,963	-92,607	0,051	0,010
-573,948	-124,430	0,021	-0,002
-572,934	633,272	0,011	-0,020
-571,919	-140,898	0,017	-0,001
-570,904	-67,790	-0,148	-0,042
-569,890	-28,896	-0,050	0,021
-568,875	-200,000	0,011	0,097
-567,861	-14,982	0,015	-0,007
-566,846	-200,000	0,004	-0,053
-565,831	-143,642	-0,149	0,010
-564,817	-89,757	-0,067	-0,014
-563,802	-191,915	-0,038	0,000
-562,788	614,615	-0,114	-0,212
-561,773	452,019	-0,054	0,088
-560,758	295,911	0,126	0,171
-559,744	-200,000	0,004	-0,028
-558,729	-41,150	-0,121	-0,046
-557,715	-124,868	-0,032	0,004
-556,700	-83,904	-0,099	-0,023
-555,685	-126,970	0,026	-0,003
-554,671	-139,085	-0,131	0,010
-553,656	-148,996	-0,029	0,002
-552,642	69,035	0,054	0,041
-551,627	714,693	-0,019	-0,037
-550,612	75,729	-0,039	0,030
-549,598	-136,113	-0,011	0,001
-548,583	218,878	0,074	0,087
-547,569	-20,136	-0,173	0,078
-546,554	49,330	0,121	0,084
-545,539	-130,303	0,076	-0,008
-544,525	-43,405	-0,010	0,004
-543,510	-104,372	-0,089	0,015
-542,496	-15,761	0,144	0,068
-541,481	-104,451	0,179	-0,030
-540,466	797,338	-0,010	-0,021
-539,452	65,113	-0,062	-0,046
-538,437	-48,549	-0,041	0,015
-537,423	-25,458	0,085	-0,037
-536,408	-200,000	0,037	0,147
-535,393	-6,187	-0,101	-0,051
-534,379	-200,000	0,002	-0,022
-533,364	44,335	-0,065	0,044
-532,350	680,037	-0,065	0,126
-531,335	-82,312	0,121	-0,029
-530,321	-200,000	0,001	-0,038
-529,306	-18,035	-0,055	-0,025
-528,291	-14,179	0,025	0,012
-527,277	-191,354	-0,140	0,001
-526,262	-200,000	0,006	-0,045
-525,248	800,000	0,037	-0,121
-524,233	-141,237	0,111	-0,008
-523,218	-200,000	-0,007	0,063
-522,204	-200,000	0,029	-0,123
-521,189	-200,000	-0,024	-0,109
-520,175	800,000	-0,019	-0,057
-519,160	-200,000	-0,005	-0,021
-518,145	61,234	0,060	-0,044
-517,131	297,995	-0,024	0,032
-516,116	800,000	-0,015	0,042
-515,102	-200,000	0,010	-0,053
-514,087	201,307	-0,059	-0,067
-513,072	-200,000	0,007	0,057
-512,058	40,068	0,101	-0,067
-511,043	-35,338	-0,058	0,023
-510,029	382,805	-0,079	-0,121
-509,014	428,540	0,089	0,142
-507,999	-200,000	-0,025	-0,086
-506,985	330,021	0,053	0,076
-505,970	-200,000	0,025	-0,089
-504,956	-119,213	-0,065	0,008
-503,941	247,998	-0,080	0,100
-502,926	800,000	0,044	-0,132
-501,912	92,750	-0,076	0,063
-500,897	483,095	0,060	-0,101
-499,883	-200,000	-0,014	0,169
-498,868	800,000	-0,040	0,102
-497,853	-200,000	-0,022	0,098
-496,839	14,982	-0,056	0,032
-495,824	-200,000	-0,013	-0,049
-494,810	179,830	-0,036	0,039
-493,795	414,148	-0,047	0,074
-492,781	73,072	-0,053	-0,041
-491,766	294,592	0,030	-0,040
-490,751	252,193	0,030	0,038
-489,737	34,207	-0,115	0,074
-488,722	-1,951	0,026	0,013
-487,708	670,554	-0,002	0,003
-486,693	339,562	0,053	0,077
-485,678	-200,000	0,000	-0,120
-484,664	-86,879	-0,101	0,023
-483,649	-79,056	0,025	0,006
-482,635	215,553	0,004	-0,005
-481,620	209,810	-0,075	-0,087
-480,605	99,251	0,198	0,168
-479,591	76,001	0,086	-0,067
-478,576	80,094	-0,072	0,057
-477,562	-200,000	-0,021	-0,100
-476,547	161,419	0,077	0,079
-475,532	800,000	0,033	0,083
-474,518	32,833	-0,049	0,031
-473,503	6,449	0,056	0,031
-472,489	108,587	-0,088	0,077
-471,474	-200,000	-0,000	-0,034
-470,459	-200,000	0,016	0,186
-469,445	-1,418	-0,081	0,042
-468,430	663,565	-0,079	0,151
-467,416	800,000	-0,008	0,021
-466,401	-78,197	-0,142	0,036
-465,386	195,318	-0,075	0,084
-464,372	97,205	0,091	0,077
-463,357	-34,822	0,121	0,049
-462,343	-0,839	0,148	-0,077
-461,328	-200,000	0,001	-0,030
-460,313	711,223	-0,027	0,053
-459,299	-80,228	0,135	0,033
-458,284	722,661	0,070	0,137
-457,270	800,000	-0,030	0,062
-456,255	-133,453	0,119	-0,011
-455,241	-150,395	-0,054	0,003
-454,226	-200,000	0,029	-0,140
-453,211	57,243	0,072	-0,052
-452,197	-113,973	0,027	0,004
-451,182	81,925	-0,039	0,031
-450,168	-139,558	-0,105	0,008
-449,153	114,101	-0,059	-0,053
-448,138	-200,000	0,022	-0,129
-447,124	800,000	-0,002	-0,007
-446,109	136,118	0,184	-0,176
-445,095	10,168	0,047	-0,026
-444,080	5,316	0,089	-0,048
-443,065	343,958	-0,053	0,076
-442,051	-200,000	-0,041	-0,218
-441,036	-200,000	0,001	-0,012
-440,022	27,405	-0,053	-0,033
-439,007	71,797	0,056	0,043
-437,992	41,598	-0,065	0,043
-436,978	-38,002	-0,067	-0,026
-435,963	800,000	0,027	0,082
-434,949	800,000	0,031	-0,075
-433,934	199,045	-0,094	-0,106
-432,919	800,000	-0,028	-0,071
-431,905	32,406	0,090	0,057
-430,890	-147,485	0,156	-0,010
-429,876	-105,464	0,019	0,003
-428,861	-200,000	-0,014	0,155
-427,846	312,502	-0,071	0,098
-426,832	198,758	-0,028	-0,032
-425,817	490,668	0,020	-0,034
-424,803	-15,410	-0,052	-0,024
-423,788	282,807	0,055	0,072
-422,773	763,639	0,046	0,093
-421,759	800,000	-0,013	0,040
-420,744	800,000	0,034	-0,070
-419,730	727,133	0,035	-0,070
-418,715	43,770	-0,095	0,064
-417,701	-200,000	-0,022	0,098
-416,686	800,000	0,016	0,038
-415,671	751,166	-0,010	0,019
-414,657	-200,000	-0,015	-0,115
-413,642	119,587	-0,053	0,048
-412,628	243,074	0,119	-0,146
-411,613	89,312	-0,078	-0,064
-410,598	-109,429	-0,033	-0,005
-409,584	175,736	-0,115	0,122
-408,569	-181,868	0,144	-0,002
-407,555	-151,816	-0,068	0,004
-406,540	-57,135	0,053	0,017
-405,525	-200,000	0,032	0,131
-404,511	55,143	0,117	0,083
-403,496	-115,953	0,088	0,012
-402,482	75,605	0,024	0,019
-401,467	-46,294	0,125	0,045
-400,452	139,634	0,046	-0,045
-399,438	15,528	0,075	0,043
-398,423	800,000	-0,046	0,102
-397,409	-30,205	0,100	0,042
-396,394	800,000	0,046	-0,126
-395,379	-200,000	0,010	-0,077
-394,365	-200,000	-0,015	-0,085
-393,350	664,787	-0,050	-0,096
-392,336	-200,000	-0,002	-0,146
-391,321	138,112	-0,031	0,030
-390,306	362,384	-0,041	-0,061
-389,292	342,372	-0,025	0,036
-388,277	-200,000	-0,008	0,030
-387,263	409,588	-0,041	-0,064
-386,248	-132,600	-0,040	-0,004
-385,233	-87,034	0,179	0,040
-384,219	156,986	-0,077	-0,078
-383,204	52,840	-0,073	-0,051
-382,190	650,695	0,077	0,145
-381,175	800,000	-0,020	-0,053
-380,160	712,534	-0,019	0,038
-379,146	-200,000	0,033	0,187
-378,131	7,426	-0,039	-0,021
-377,117	86,788	-0,058	0,047
-376,102	-200,000	-0,005	0,068
-375,088	-200,000	0,057	-0,191
-374,073	-200,000	-0,004	-0,018
-373,058	-69,183	0,060	0,017
-372,044	-200,000	-0,005	-0,023
-371,029	800,000	-0,036	0,087
-370,015	284,475	0,068	0,089
-369,000	53,972	0,028	0,020
-367,985	-14,857	-0,152	-0,072
-366,971	457,009	0,044	-0,072
-365,956	-30,004	-0,061	0,025
-364,942	556,214	-0,062	-0,109
-363,927	-117,356	0,144	0,019
-362,912	187,865	-0,071	0,077
-361,898	420,566	-0,042	-0,066
-360,883	-200,000	0,010	0,035
-359,869	-200,000	-0,007	-0,031
-358,854	496,383	0,029	-0,050
-357,839	800,000	0,014	-0,036
-356,825	109,306	-0,112	-0,098
-355,810	-191,473	0,055	0,000
-354,796	-200,000	-0,002	0,010
-353,781	-138,068	0,078	-0,006
-352,766	-200,000	-0,010	0,054
-351,752	328,135	-0,021	0,030
-350,737	-155,752	0,123	-0,006
-349,723	54,112	-0,062	-0,044
-348,708	800,000	-0,005	-0,017
-347,693	-200,000	-0,021	0,097
-346,679	-100,211	0,070	-0,013
-345,664	-200,000	0,002	-0,016
-344,650	-62,397	-0,073	0,022
-343,635	69,880	0,095	0,071
-342,620	276,958	0,054	-0,070
-341,606	-95,769	-0,183	0,036
-340,591	-101,568	0,047	0,008
-339,577	-5,139	-0,077	-0,039
-338,562	-73,866	-0,087	-0,023
-337,548	44,856	-0,096	0,064
-336,533	-99,077	0,145	-0,027
-335,518	150,623	0,110	-0,110
-334,504	800,000	0,036	-0,113
-333,489	-49,355	-0,063	0,022
-332,475	800,000	-0,008	0,024
-331,460	246,600	-0,059	-0,074
-330,445	426,604	0,052	-0,082
-329,431	66,001	0,121	-0,090
-328,416	-200,000	0,018	-0,065
-327,402	-200,000	0,000	0,040
-326,387	-200,000	-0,004	0,055
-325,372	-78,508	0,055	0,014
-324,358	-200,000	0,011	0,074
-323,343	73,279	-0,090	0,069
-322,329	-24,179	-0,066	-0,029
-321,314	800,000	0,024	0,053
-320,299	25,995	0,102	0,062
-319,285	481,580	-0,059	0,099
-318,270	56,966	0,078	-0,055
-317,256	-200,000	0,000	-0,024
-316,241	-200,000	0,002	0,023
-315,226	262,969	0,052	0,066
-314,212	-200,000	0,026	0,119
-313,197	-200,000	0,055	0,213
-312,183	466,651	-0,037	0,061
-311,168	-38,974	0,140	-0,054
-310,153	19,495	0,029	-0,017
-309,139	800,000	0,018	-0,047
-308,124	-92,795	0,146	0,030
-307,110	800,000	0,056	0,152
-306,095	10,917	-0,163	-0,091
-305,080	35,973	0,059	0,038
-304,066	800,000	0,021	-0,059
-303,051	-200,000	-0,026	-0,092
-302,037	267,153	0,035	-0,044
-301,022	-26,070	0,104	0,045
-300,008	800,000	-0,054	0,121
-298,993	800,000	-0,051	0,107
-297,978	396,562	0,076	-0,117
-296,964	-200,000	-0,004	-0,017
-295,949	-90,389	0,021	0,004
-294,935	49,874	-0,047	-0,032
-293,920	-28,181	0,104	0,044
-292,905	-64,716	0,105	-0,031
-291,891	800,000	-0,010	0,027
-290,876	-73,257	-0,052	0,014
-289,862	182,129	-0,035	0,038
-288,847	481,308	-0,033	0,054
-287,832	161,548	0,091	-0,093
-286,818	-200,000	-0,003	0,014
-285,803	-200,000	0,008	0,087
-284,789	-141,120	0,180	0,013
-283,774	-38,323	0,137	-0,053
-282,759	-125,041	-0,093	0,010
-281,745	432,555	0,084	0,134
-280,730	800,000	-0,064	0,167
-279,716	-200,000	-0,009	-0,036
-278,701	-76,271	0,139	0,035
-277,686	-177,839	-0,098	-0,002
-276,672	197,116	-0,086	0,096
-275,657	-200,000	-0,022	0,076
-274,643	-21,846	0,014	0,006
-273,628	177,370	0,063	-0,067
-272,613	-90,818	-0,021	0,004
-271,599	-200,000	0,008	-0,029
-270,584	155,514	-0,114	0,114
-269,570	-27,636	0,123	-0,052
-268,555	-200,000	0,006	0,174
-267,540	7,066	-0,109	-0,059
-266,526	-164,284	-0,093	-0,003
-265,511	661,036	-0,026	0,050
-264,497	-200,000	-0,005	-0,074
-263,482	-200,000	0,026	-0,090
-262,467	-200,000	0,017	0,108
-261,453	721,466	0,048	0,093
-260,438	117,257	-0,038	-0,034
-259,424	-36,666	-0,043	-0,017
-258,409	-50,640	-0,092	-0,032
-257,395	-84,771	-0,044	0,010
-256,380	800,000	-0,044	-0,090
-255,365	-97,101	-0,092	-0,017
-254,351	228,611	0,043	-0,052
-253,336	-25,183	-0,083	0,036
-252,322	-200,000	0,029	-0,173
-251,307	-200,000	-0,006	-0,025
-250,292	800,000	0,082	-0,169
-249,278	-80,118	0,088	0,021
-248,263	525,513	0,004	0,006
-247,249	165,791	0,068	0,070
-246,234	-91,137	0,024	0,005
-245,219	-97,002	-0,130	0,025
-244,205	-200,000	0,019	-0,144
-243,190	-200,000	0,009	-0,034
-242,176	29,328	0,066	0,041
-241,161	112,854	-0,043	-0,038
-240,146	-43,000	0,084	-0,031
-239,132	-60,966	0,072	0,022
-238,117	352,742	-0,061	-0,089
-237,103	142,247	-0,065	0,063
-236,088	800,000	-0,048	0,141
-235,073	-71,475	0,039	0,011
-234,059	52,347	0,182	0,126
-233,044	-200,000	-0,015	0,091
-232,030	36,371	-0,080	0,051
-231,015	-117,013	-0,113	-0,015
-230,000	-200,000	0,013	0,048
-228,986	-43,758	-0,067	0,025
-227,971	483,851	-0,013	-0,022
-226,957	227,330	-0,024	0,028
-225,942	800,000	0,022	-0,054
-224,927	131,326	-0,051	-0,048
-223,913	800,000	0,040	-0,086
-222,898	162,062	0,049	-0,050
-221,884	80,556	0,026	-0,020
-220,869	435,523	0,058	-0,092
-219,855	216,244	0,061	-0,071
-218,840	-200,000	-0,013	0,210
-217,825	185,219	-0,086	-0,094
-216,811	-31,326	-0,062	0,025
-215,796	125,791	-0,091	0,084
-214,782	-1,068	0,064	0,033
-213,767	800,000	-0,026	0,053
-212,752	294,989	-0,022	-0,030
-211,738	800,000	-0,056	-0,117
-210,723	-200,000	-0,004	0,033
-209,709	280,563	-0,018	0,023
-208,694	143,918	-0,042	-0,040
-207,679	-200,000	0,041	0,263
-206,665	800,000	0,017	0,047
-205,650	344,211	0,080	0,115
-204,636	22,448	0,024	0,014
-203,621	-129,928	-0,088	0,009
-202,606	195,790	-0,166	-0,184
-201,592	-200,000	-0,039	-0,128
-200,577	-157,168	0,105	0,005
-199,563	-85,684	0,093	-0,021
-198,548	800,000	0,043	0,105
-197,533	-200,000	-0,003	0,151
-196,519	800,000	0,061	0,138
-195,504	100,347	0,064	-0,054
-194,490	8,998	-0,053	-0,029
-193,475	-63,094	-0,030	0,009
-192,460	-200,000	0,085	-0,296
-191,446	800,000	-0,017	-0,045
-190,431	420,003	0,039	0,061
-189,417	224,898	-0,077	-0,090
-188,402	192,468	-0,072	0,079
-187,387	-153,174	0,085	0,004
-186,373	223,766	-0,085	-0,100
-185,358	-200,000	0,027	-0,095
-184,344	800,000	0,048	-0,140
-183,329	-150,529	0,058	0,003
-182,315	543,412	0,043	0,075
-181,300	-200,000	0,011	0,052
-180,285	800,000	-0,036	-0,095
-179,271	800,000	-0,017	-0,039
-178,256	-72,141	0,102	0,027
-177,242	-44,221	0,048	0,017
-176,227	72,184	-0,045	0,034
-175,212	-200,000	-0,023	0,099
-174,198	-200,000	0,012	-0,091
-173,183	-65,909	-0,129	0,037
-172,169	218,467	0,056	-0,065
-171,154	-200,000	0,004	-0,042
-170,139	782,078	-0,083	-0,166
-169,125	-200,000	0,001	-0,075
-168,110	-200,000	0,012	0,089
-167,096	-200,000	0,012	-0,097
-166,081	-14,104	-0,054	0,025
-165,066	33,482	-0,154	-0,097
-164,052	800,000	0,067	-0,149
-163,037	-15,876	0,073	0,034
-162,023	-130,992	0,119	-0,011
-161,008	-183,432	-0,152	-0,002
-159,993	-119,307	-0,034	0,004
-158,979	616,114	0,030	-0,055
-157,964	13,637	-0,041	0,023
-156,950	-120,732	0,114	-0,014
-155,935	460,720	-0,033	-0,054
-154,920	800,000	0,017	0,037
-153,906	-200,000	0,029	0,097
-152,891	274,147	0,056	0,073
-151,877	692,773	0,056	-0,107
-150,862	511,582	0,019	-0,032
-149,847	-200,000	-0,017	-0,069
-148,833	800,000	0,040	-0,087
-147,818	-39,200	0,052	0,020
-146,804	800,000	-0,045	0,115
-145,789	-119,060	-0,042	0,005
-144,775	-114,415	0,097	0,013
-143,760	-0,805	-0,048	-0,024
-142,745	-200,000	-0,016	-0,053
-141,731	-200,000	0,001	-0,125
-140,716	800,000	0,049	0,108
-139,702	530,135	0,045	0,077
-138,687	-152,586	0,097	0,005
-137,672	433,848	0,053	0,084
-136,658	800,000	-0,041	-0,091
-135,643	-142,049	0,124	-0,009
-134,629	-200,000	0,001	0,054
-133,614	-124,474	0,051	-0,006
-132,599	-64,293	0,077	-0,023
-131,585	-136,294	0,131	-0,011
-130,570	800,000	0,022	0,070
-129,556	-200,000	-0,020	-0,081
-128,541	-50,378	0,044	-0,015
-127,526	182,528	0,080	0,086
-126,512	800,000	0,036	0,106
-125,497	800,000	-0,026	0,052
-124,483	800,000	0,030	-0,085
-123,468	101,655	0,031	-0,027
-122,453	259,610	0,052	-0,066
-121,439	-200,000	-0,011	0,061
-120,424	-200,000	-0,007	0,125
-119,410	-200,000	0,005	-0,041
-118,395	28,913	0,086	-0,053
-117,380	-200,000	0,010	-0,071
-116,366	203,894	-0,011	-0,013
-115,351	93,724	-0,067	-0,055
-114,337	319,787	-0,096	-0,133
-113,322	-127,154	-0,016	-0,002
-112,307	756,740	-0,010	0,020
-111,293	570,942	-0,017	-0,030
-110,278	-0,156	-0,019	0,010
-109,264	-105,964	0,062	0,010
-108,249	198,865	0,125	0,139
-107,234	164,774	-0,103	-0,105
-106,220	-63,278	-0,098	-0,029
-105,205	102,647	-0,051	-0,044
-104,191	738,181	0,067	0,131
-103,176	620,997	0,043	0,079
-102,162	-200,000	-0,001	-0,019
-101,147	79,811	-0,071	0,056
-100,132	269,788	-0,114	0,146
-99,118	-200,000	-0,004	-0,089
-98,103	-27,741	0,127	-0,053
-97,089	800,000	0,034	-0,087
-96,074	-200,000	-0,031	0,146
-95,059	21,613	-0,116	0,068
-94,045	800,000	0,022	-0,048
-93,030	-68,129	-0,111	-0,031
-92,016	-200,000	-0,002	0,085
-91,001	800,000	-0,032	-0,080
-89,986	199,725	0,139	0,155
-88,972	-200,000	0,014	-0,050
-87,957	273,637	0,025	0,032
-86,943	-200,000	0,034	0,124
-85,928	-200,000	-0,006	-0,048
-84,913	-16,774	0,098	-0,045
-83,899	15,501	-0,165	0,094
-82,884	46,178	-0,076	0,051
-81,870	675,814	-0,043	0,081
-80,855	-200,000	-0,016	0,087
-79,840	-26,772	-0,037	-0,016
-78,826	678,568	-0,042	0,080
-77,811	-200,000	0,028	-0,122
-76,797	-200,000	-0,002	-0,051
-75,782	89,218	0,142	0,115
-74,767	168,001	0,076	0,079
-73,753	189,413	0,028	0,030
-72,738	136,214	0,113	0,107
-71,724	-200,000	0,010	-0,040
-70,709	800,000	-0,053	-0,131
-69,694	15,145	-0,067	-0,038
-68,680	-151,721	-0,178	0,009
-67,665	-200,000	-0,014	0,060
-66,651	739,826	0,051	0,099
-65,636	595,268	0,026	-0,047
-64,622	35,219	-0,020	0,012
-63,607	-11,984	-0,105	-0,049
-62,592	800,000	0,030	0,079
-61,578	430,010	-0,058	-0,091
-60,563	186,690	0,089	-0,096
-59,549	-200,000	-0,009	-0,053
-58,534	-95,286	-1,362	-0,263
-57,519	691,209	-0,683	-1,303
-56,505	-200,000	-0,996	-4,545
-55,490	-42,144	0,648	-0,239
-54,476	800,000	5,019	11,710
-53,461	-200,000	14,140	253,501
-52,446	-200,000	695,313	2235,316
-51,432	570,174	1624,948	2877,083
-50,417	117,091	1632,224	1453,467
-49,403	72,657	1285,904	971,476
-48,388	37,406	1022,960	656,000
-47,373	23,727	981,421	584,408
-46,359	23,007	970,931	575,782
-45,344	21,995	966,503	569,830
-44,330	21,976	965,033	568,879
-43,315	21,790	963,583	567,396
-42,300	21,774	962,635	566,765
-41,286	21,779	961,696	566,203
-40,271	21,784	960,762	565,649
-39,257	21,803	959,677	565,049
-38,242	21,726	958,859	564,295
-37,227	21,728	957,938	563,737
-36,213	21,853	956,842	563,473
-35,198	21,788	956,071	562,787
-34,184	21,761	955,492	562,336
-33,169	21,728	954,577	561,669
-32,154	21,774	953,779	561,326
-31,140	21,852	952,833	560,999
-30,125	21,850	951,977	560,464
-29,111	21,783	951,318	559,841
-28,096	21,816	950,526	559,456
-27,082	21,794	949,967	559,035
-26,067	21,780	949,104	558,461
-25,052	21,772	948,320	557,953
-24,038	21,772	947,758	557,598
-23,023	21,764	947,135	557,185
-22,009	21,835	946,400	556,957
-20,994	21,819	945,663	556,450
-19,979	21,797	945,101	556,026
-18,965	21,770	944,646	555,652
-17,950	21,792	943,913	555,267
-16,936	21,769	943,237	554,774
-15,921	21,747	942,588	554,301
-14,906	21,670	941,931	553,649
-13,892	21,684	941,321	553,312
-12,877	21,695	940,567	552,881
-11,863	21,696	939,840	552,437
-10,848	21,608	939,465	551,915
-9,833	21,740	938,995	552,034
-8,819	21,736	938,446	551,675
-7,804	21,699	937,732	551,118
-6,790	21,638	937,144	550,560
-5,775	21,734	936,387	550,396
-4,760	21,701	935,786	549,914
-3,746	21,665	935,303	549,497
-2,731	21,545	934,548	548,651
-1,717	21,465	933,964	548,035
-0,702	21,527	933,335	547,841
0,313	21,320	932,470	547,509
1,327	24,292	930,701	555,754
2,342	33,665	794,346	499,241
3,356	31,445	450,197	279,585
4,371	0,811	293,619	151,799
5,386	-3,829	274,648	137,590
6,400	-4,846	268,928	133,770
7,415	-5,091	266,588	132,369
8,429	-4,766	265,267	131,998
9,444	-4,957	264,418	131,391
10,459	-4,825	263,735	131,160
11,473	-4,885	263,243	130,848
12,488	-4,977	262,731	130,499
13,502	-5,241	262,215	129,993
14,517	-4,983	261,708	129,962
15,531	-4,919	261,369	129,840
16,546	-5,048	261,035	129,547
17,561	-5,062	260,652	129,333
18,575	-5,048	260,472	129,244
19,590	-5,149	260,078	128,947
20,604	-5,023	259,846	128,932
21,619	-5,051	259,541	128,745
22,634	-4,983	258,941	128,497
23,648	-5,013	258,658	128,318
24,663	-5,136	258,519	128,128
25,677	-5,075	258,367	128,096
26,692	-5,004	258,076	128,003
27,707	-5,041	257,698	127,771
28,721	-4,982	257,397	127,662
29,736	-4,960	257,062	127,504
30,750	-5,197	256,920	127,213
31,765	-5,030	256,738	127,260
32,780	-5,294	256,504	126,899
33,794	-5,087	256,360	126,999
34,809	-5,227	256,084	126,728
35,823	-5,187	255,850	126,635
36,838	-5,160	255,486	126,469
37,853	-5,466	255,512	126,200
38,867	-5,110	255,088	126,292
39,882	-5,199	254,777	126,049
40,896	-5,332	254,579	125,824
41,911	-5,202	254,409	125,842
42,926	-5,191	254,129	125,702
43,940	-5,388	253,952	125,431
44,955	-5,331	253,709	125,349
45,969	-5,435	253,594	125,191
46,984	-5,374	253,172	125,024
47,999	-5,543	252,995	124,779
49,013	-5,664	252,777	124,555
50,028	-5,925	252,651	124,256
51,042	-5,798	252,276	124,170
52,057	-5,823	251,987	123,995
53,071	-5,791	251,884	123,961
54,086	-5,728	251,592	123,861
55,101	-5,769	251,583	123,810
56,115	-5,484	251,423	123,966
57,130	-5,042	251,245	124,249
58,144	-4,889	251,012	124,255
59,159	-5,026	251,065	124,151
60,174	-5,024	250,652	123,938
61,188	-5,236	250,638	123,737
62,203	-5,234	250,255	123,539
63,217	-5,122	250,132	123,564
64,232	-5,281	249,906	123,304
65,247	-4,986	249,634	123,412
66,261	-4,959	249,281	123,249
67,276	-5,228	249,144	122,942
68,290	-5,385	248,961	122,706
69,305	-5,394	248,686	122,551
70,320	-5,299	248,530	122,545
71,334	-5,186	248,326	122,529
72,349	-4,824	248,109	122,719
73,363	-4,983	248,112	122,574
74,378	-4,955	247,863	122,465
75,393	-5,189	247,645	122,147
76,407	-4,968	247,502	122,253
77,422	-5,002	247,208	122,068
78,436	-5,197	246,949	121,765
79,451	-5,021	246,833	121,845
80,466	-5,126	246,545	121,603
81,480	-5,313	246,296	121,312
82,495	-5,278	246,097	121,233
83,509	-5,291	245,917	121,123
84,524	-5,427	245,804	120,941
85,539	-5,420	245,603	120,837
86,553	-5,471	245,431	120,699
87,568	-5,337	245,209	120,692
88,582	-5,322	244,956	120,569
89,597	-5,275	244,718	120,481
90,611	-5,252	244,796	120,528
91,626	-5,087	244,607	120,562
92,641	-5,019	244,363	120,487
93,655	-5,070	244,071	120,290
94,670	-5,374	244,067	120,024
95,684	-5,224	243,713	119,964
96,699	-5,232	243,431	119,808
97,714	-5,243	243,305	119,726
98,728	-5,245	243,196	119,660
99,743	-5,370	242,950	119,425
100,757	-5,313	242,701	119,339
101,772	-5,332	242,518	119,222
102,787	-5,172	242,420	119,296
103,801	-5,326	242,242	119,071
104,816	-5,082	242,028	119,157
105,830	-5,142	241,971	119,068
106,845	-5,145	241,785	118,964
107,860	-5,081	241,565	118,897
108,874	-5,294	241,443	118,652
109,889	-5,129	241,028	118,572
110,903	-5,338	241,157	118,453
111,918	-5,244	240,768	118,329
112,933	-5,218	240,535	118,225
113,947	-5,118	240,584	118,321
114,962	-5,166	240,370	118,166
115,976	-4,970	240,051	118,159
116,991	-5,276	239,979	117,862
118,006	-5,231	239,825	117,813
119,020	-5,047	239,663	117,874
120,035	-5,092	239,628	117,809
121,049	-5,076	239,323	117,661
122,064	-4,986	239,143	117,636
123,079	-5,089	239,048	117,495
124,093	-5,199	238,703	117,225
125,108	-5,474	238,604	116,942
126,122	-5,427	238,301	116,822
127,137	-5,481	238,143	116,690
128,151	-5,345	238,040	116,740
129,166	-5,428	237,875	116,580
130,181	-5,476	237,643	116,418
131,195	-5,489	237,539	116,346
132,210	-5,246	237,381	116,455
133,224	-5,073	237,197	116,494
134,239	-5,079	237,097	116,429
135,254	-5,021	236,901	116,370
136,268	-5,186	236,631	116,094
137,283	-5,536	236,433	115,704
138,297	-5,494	236,257	115,641
139,312	-5,629	236,145	115,468
140,327	-5,159	235,990	115,759
141,341	-4,893	235,979	115,958
142,356	-4,834	235,743	115,878
143,370	-4,989	235,646	115,696
144,385	-4,777	235,390	115,730
145,400	-4,851	235,299	115,616
146,414	-4,690	235,044	115,609
147,429	-4,984	234,950	115,318
148,443	-5,036	234,788	115,186
149,458	-4,922	234,604	115,176
150,473	-4,851	234,474	115,160
151,487	-4,919	234,112	114,917
152,502	-5,097	234,142	114,779
153,516	-5,011	233,895	114,717
154,531	-5,038	233,701	114,590
155,546	-4,910	233,527	114,596
156,560	-4,867	233,298	114,508
157,575	-5,287	233,301	114,165
158,589	-4,887	232,979	114,315
159,604	-4,911	232,955	114,274
160,619	-4,729	232,773	114,319
161,633	-4,747	232,656	114,236
162,648	-4,628	232,433	114,212
163,662	-4,815	232,202	113,940
164,677	-5,084	232,148	113,691
165,692	-4,824	232,164	113,894
166,706	-4,708	231,819	113,806
167,721	-4,672	231,759	113,795
168,735	-4,722	231,541	113,638
169,750	-4,893	231,500	113,473
170,764	-4,853	231,321	113,407
171,779	-5,003	231,088	113,164
172,794	-4,675	230,900	113,320
173,808	-4,992	230,744	112,984
174,823	-5,312	230,496	112,602
175,837	-5,326	230,240	112,456
176,852	-5,111	230,292	112,640
177,867	-4,872	230,279	112,811
178,881	-4,805	230,051	112,741
179,896	-4,821	229,885	112,637
180,910	-4,951	229,654	112,413
181,925	-4,937	229,538	112,356
182,940	-4,889	229,384	112,309
183,954	-4,761	229,213	112,315
184,969	-4,920	229,290	112,219
185,983	-4,760	228,991	112,187
186,998	-4,740	228,777	112,088
188,013	-4,557	228,702	112,182
189,027	-4,555	228,472	112,061
190,042	-4,462	228,411	112,094
191,056	-4,817	228,160	111,686
192,071	-4,736	228,136	111,726
193,086	-4,658	227,880	111,651
194,100	-4,689	227,660	111,510
195,115	-5,106	227,497	111,098
196,129	-5,274	227,143	110,786
197,144	-3,257	227,989	112,748
198,159	1,180	229,329	116,844
199,173	3,542	229,850	118,932
200,188	3,794	229,711	119,045
201,202	3,990	229,440	119,045
202,217	4,115	229,444	119,134
203,232	4,405	229,259	119,251
204,246	4,556	229,227	119,340
205,261	4,446	229,152	119,206
206,275	4,618	229,041	119,270
207,290	4,880	228,688	119,278
208,304	4,768	228,693	119,183
209,319	4,560	228,481	118,902
210,334	4,631	228,359	118,883
211,348	3,887	228,122	118,177
212,363	3,964	227,735	118,025
213,377	3,604	227,681	117,710
214,392	3,490	227,504	117,521
215,407	3,714	227,393	117,624
216,421	3,777	227,211	117,568
217,436	3,656	227,053	117,383
218,450	3,594	226,783	117,186
219,465	3,686	226,584	117,143
220,480	3,708	226,395	117,052
221,494	3,261	226,365	116,685
222,509	3,673	226,291	116,951
223,523	3,766	226,022	116,872
224,538	3,405	225,999	116,575
225,553	3,781	225,683	116,687
226,567	3,917	225,749	116,814
227,582	4,139	225,531	116,859
228,596	4,163	225,535	116,869
229,611	3,662	225,308	116,361
230,626	3,524	224,910	116,041
231,640	3,571	224,882	116,052
232,655	3,761	224,935	116,212
233,669	4,490	224,647	116,604
234,684	4,439	224,684	116,574
235,699	4,196	224,443	116,255
236,713	4,034	224,131	115,961
237,728	3,737	224,075	115,699
238,742	3,764	223,918	115,627
239,757	3,915	223,561	115,546
240,772	3,909	223,494	115,497
241,786	3,896	223,437	115,447
242,801	4,090	223,299	115,511
243,815	4,126	223,268	115,511
244,830	4,060	223,355	115,497
245,844	3,849	222,817	115,050
246,859	3,894	222,675	115,000
247,874	4,049	222,642	115,089
248,888	4,065	222,572	115,055
249,903	3,888	222,392	114,820
250,917	3,856	222,162	114,666
251,932	3,552	222,169	114,433
252,947	3,691	221,848	114,361
253,961	3,823	221,596	114,319
254,976	3,776	221,510	114,229
255,990	3,855	221,507	114,276
257,005	3,887	221,463	114,268
258,020	3,917	221,254	114,172
259,034	4,241	221,110	114,328
260,049	4,168	221,016	114,214
261,063	3,822	220,845	113,859
262,078	4,044	220,719	113,950
263,093	4,223	220,536	113,976
264,107	4,169	220,472	113,893
265,122	4,321	220,209	113,859
266,136	4,144	220,284	113,758
267,151	4,297	220,010	113,719
268,166	4,103	219,629	113,369
269,180	3,690	219,494	112,985
270,195	3,690	219,306	112,878
271,209	3,611	219,233	112,773
272,224	3,728	219,137	112,799
273,239	3,812	219,190	112,878
274,253	3,760	218,797	112,627
275,268	3,579	218,675	112,422
276,282	3,564	218,537	112,330
277,297	3,714	218,132	112,222
278,312	3,737	218,262	112,296
279,326	3,662	218,355	112,278
280,341	3,430	218,070	111,953
281,355	3,918	217,934	112,228
282,370	3,980	217,669	112,127
283,384	3,548	217,524	111,728
284,399	3,357	217,335	111,482
285,414	3,375	217,287	111,461
286,428	3,617	217,181	111,573
287,443	3,807	217,051	111,633
288,457	4,057	216,922	111,738
289,472	3,579	216,789	111,313
290,487	3,281	216,578	110,979
291,501	3,161	216,475	110,830
292,516	3,529	216,176	110,933
293,530	3,467	216,050	110,814
294,545	3,391	216,009	110,728
295,560	3,302	215,956	110,626
296,574	3,660	215,790	110,789
297,589	3,704	215,683	110,756
298,603	3,886	215,637	110,854
299,618	3,906	215,576	110,828
300,633	3,859	215,298	110,641
301,647	4,120	215,145	110,740
302,662	3,989	215,186	110,657
303,676	3,916	214,868	110,431
304,691	3,919	214,875	110,427
305,706	4,052	214,621	110,382
306,720	4,022	214,548	110,313
307,735	3,730	214,403	110,019
308,749	3,688	214,110	109,830
309,764	3,701	214,201	109,875
310,779	4,107	213,988	110,047
311,793	4,194	213,688	109,945
312,808	4,118	213,482	109,775
313,822	3,621	213,515	109,428
314,837	3,842	213,431	109,532
315,852	3,900	213,113	109,400
316,866	3,664	213,079	109,206
317,881	3,910	212,965	109,313
318,895	3,947	212,803	109,246
319,910	3,761	212,683	109,043
320,925	3,536	212,487	108,772
321,939	3,194	212,184	108,365
322,954	3,253	212,273	108,443
323,968	3,731	212,201	108,735
324,983	3,978	211,987	108,790
325,997	4,205	211,894	108,894
327,012	3,656	211,967	108,533
328,027	3,838	211,638	108,483
329,041	4,228	211,551	108,705
330,056	4,210	211,500	108,656
331,070	3,787	211,248	108,219
332,085	3,778	210,976	108,063
333,100	3,604	210,936	107,911
334,114	3,994	210,702	108,056
335,129	4,065	210,503	107,994
336,143	3,578	210,401	107,590
337,158	3,590	210,361	107,568
338,173	3,655	210,117	107,480
339,187	3,591	209,974	107,352
340,202	3,408	209,919	107,186
341,216	3,510	209,695	107,134
342,231	3,576	209,652	107,149
343,246	3,621	209,396	107,039
344,260	3,672	209,229	106,980
345,275	3,505	209,244	106,861
346,289	3,822	209,151	107,026
347,304	3,939	209,054	107,048
348,319	3,948	208,834	106,932
349,333	3,742	208,760	106,741
350,348	3,869	208,627	106,752
351,362	3,745	208,646	106,666
352,377	3,810	208,474	106,614
353,392	3,571	208,243	106,320
354,406	3,710	208,091	106,330
355,421	194,689	1345,937	1435,625
356,435	155,359	1484,664	1435,732
