DTS Sentinel unit serial number:	SN410029Multiplexer serial number:	ORYXHardware model number:	OX2-SRSoftware version number:	ORYX F/W v4,00 Oryx Data Collector v3.7.2.0data status	okinstallation	B6 Nyhavnadifferential loss correction	single-endedforward channel	channel 2reverse channel	N/Adate	2023/12/11time	04:00:08forward acquisition time	300,00reverse acquisition time	0,00gamma	499,1914k internal	0,3125k external	0,3125temperature offset calibration	1,0000default loss term (dB/km)	0,3820temperature slope calibration	1,0000multiplexer offset coefficient	1,0000multiplexer slope coefficient	1,0000fibre end	0,00T internal ref (°C)	20,84T ext. ref 1 (°C)	3,60T ext. ref 2 (°C)	3,61length (m)	temperature (°C)	Stokes	anti-Stokes-744,400	-200,000	0,014	-0,073
-743,385	-186,564	-0,277	-0,003
-742,371	-200,000	-0,006	-0,027
-741,356	-96,346	-0,172	-0,034
-740,342	800,000	0,054	-0,174
-739,327	-9,632	-0,240	0,119
-738,312	-200,000	0,033	-0,152
-737,298	-37,692	-0,266	0,105
-736,283	26,604	0,073	0,045
-735,269	-82,650	-0,313	0,075
-734,254	101,840	0,097	0,084
-733,239	-70,066	-0,580	-0,163
-732,225	-141,792	0,201	0,015
-731,210	8,017	-0,063	-0,035
-730,196	-17,865	0,114	-0,053
-729,181	170,013	-0,095	-0,101
-728,167	18,495	-0,014	0,008
-727,152	269,311	-0,016	0,021
-726,137	134,956	-0,072	-0,070
-725,123	438,095	-0,004	0,007
-724,108	-123,980	-0,089	0,010
-723,094	-26,671	-0,064	-0,028
-722,079	-126,430	0,144	-0,016
-721,064	52,530	-0,113	0,080
-720,050	-200,000	-0,003	0,101
-719,035	-84,118	-0,087	0,020
-718,021	-102,204	-0,147	-0,026
-717,006	-148,227	-0,112	0,007
-715,991	40,759	-0,173	-0,116
-714,977	800,000	-0,035	-0,101
-713,962	-200,000	0,028	0,126
-712,948	-200,000	0,000	-0,049
-711,933	532,908	-0,026	-0,046
-710,918	70,507	-0,087	0,067
-709,904	800,000	-0,035	-0,082
-708,889	-200,000	-0,018	-0,112
-707,875	-200,000	-0,012	-0,152
-706,860	81,150	0,012	-0,010
-705,845	-200,000	0,032	0,185
-704,831	-200,000	-0,016	0,054
-703,816	-157,874	-0,040	-0,002
-702,802	-60,129	-0,086	0,027
-701,787	51,295	0,121	-0,085
-700,772	-14,602	-0,077	-0,037
-699,758	-200,000	0,009	-0,030
-698,743	73,480	-0,056	0,044
-697,729	-120,242	-0,075	0,009
-696,714	-39,474	0,099	0,038
-695,699	445,238	-0,017	0,028
-694,685	622,741	0,053	-0,100
-693,670	-99,924	-0,026	-0,005
-692,656	-153,452	0,059	0,003
-691,641	800,000	-0,047	-0,124
-690,627	-115,645	-0,084	0,012
-689,612	-25,387	0,064	-0,028
-688,597	105,958	0,164	0,144
-687,583	40,292	-0,052	0,035
-686,568	86,981	-0,089	0,073
-685,554	-159,698	-0,099	0,004
-684,539	-16,841	0,105	-0,049
-683,524	-118,397	-0,082	0,011
-682,510	-200,000	-0,008	0,199
-681,495	-18,501	-0,025	-0,012
-680,481	-97,551	-0,136	-0,026
-679,466	-200,000	-0,008	-0,073
-678,451	385,149	0,095	0,146
-677,437	-200,000	-0,000	0,006
-676,422	52,965	0,102	0,073
-675,408	39,423	-0,086	0,057
-674,393	243,793	-0,066	-0,082
-673,378	10,873	-0,063	-0,035
-672,364	-200,000	-0,012	0,041
-671,349	435,877	-0,057	-0,093
-670,335	-200,000	-0,001	-0,112
-669,320	23,626	0,061	-0,037
-668,305	-89,921	-0,170	0,037
-667,291	145,401	-0,071	0,070
-666,276	-200,000	0,012	0,069
-665,262	331,630	-0,037	-0,054
-664,247	7,274	0,080	-0,044
-663,232	-200,000	-0,000	0,020
-662,218	537,638	-0,026	0,045
-661,203	59,072	0,086	-0,063
-660,189	-102,543	-0,086	-0,015
-659,174	-41,920	-0,117	0,044
-658,159	-200,000	-0,005	-0,019
-657,145	527,518	0,058	-0,101
-656,130	-64,207	0,119	-0,036
-655,116	-200,000	-0,013	0,101
-654,101	77,247	0,118	0,093
-653,086	166,094	-0,079	-0,083
-652,072	800,000	0,036	0,085
-651,057	364,244	-0,037	0,056
-650,043	398,346	-0,045	0,070
-649,028	194,511	0,045	-0,051
-648,014	-200,000	0,021	0,131
-646,999	50,445	0,063	-0,044
-645,984	79,252	0,059	-0,047
-644,970	-200,000	0,013	-0,197
-643,955	-55,143	-0,148	0,049
-642,941	30,307	0,032	0,020
-641,926	-200,000	0,006	0,029
-640,911	347,699	0,042	-0,061
-639,897	-200,000	0,004	0,060
-638,882	-96,924	0,122	0,024
-637,868	-193,718	-0,043	-0,000
-636,853	-135,498	-0,065	0,006
-635,838	-55,186	-0,023	0,008
-634,824	228,607	0,034	-0,042
-633,809	472,896	-0,067	-0,112
-632,795	-200,000	-0,020	0,145
-631,780	-76,562	0,144	0,037
-630,765	-200,000	0,003	-0,024
-629,751	-200,000	-0,012	0,067
-628,736	-200,000	-0,079	-0,000
-627,722	65,502	0,128	0,096
-626,707	-200,000	0,017	0,109
-625,692	-126,356	0,068	0,007
-624,678	35,999	-0,016	-0,010
-623,663	17,890	0,054	-0,032
-622,649	-200,000	0,020	-0,160
-621,634	338,499	-0,064	-0,093
-620,619	-68,609	0,053	0,015
-619,605	-184,870	-0,137	0,002
-618,590	-109,342	0,112	0,017
-617,576	102,908	0,142	0,123
-616,561	147,064	-0,045	-0,045
-615,546	-160,202	0,125	0,005
-614,532	-64,119	-0,049	0,015
-613,517	-133,106	-0,117	-0,011
-612,503	169,017	0,054	0,057
-611,488	17,135	0,058	-0,034
-610,474	800,000	-0,015	-0,033
-609,459	-88,913	0,088	-0,019
-608,444	176,964	-0,064	0,069
-607,430	-37,317	0,062	-0,024
-606,415	-200,000	-0,006	-0,084
-605,401	550,214	0,016	-0,029
-604,386	-24,226	0,053	0,023
-603,371	30,791	0,042	0,027
-602,357	-200,000	-0,026	-0,114
-601,342	-91,906	0,139	-0,029
-600,328	127,608	0,017	0,016
-599,313	-200,000	0,006	-0,091
-598,298	771,380	0,075	-0,152
-597,284	-200,000	-0,043	-0,165
-596,269	-23,634	0,033	-0,015
-595,255	-200,000	0,007	0,122
-594,240	-71,450	-0,088	-0,024
-593,225	154,532	0,069	-0,070
-592,211	144,466	-0,081	-0,080
-591,196	-79,015	0,126	-0,031
-590,182	137,160	0,037	-0,036
-589,167	-200,000	-0,007	0,061
-588,152	800,000	-0,037	0,112
-587,138	-54,532	-0,041	0,014
-586,123	-189,885	0,016	-0,000
-585,109	-200,000	-0,019	-0,102
-584,094	-74,170	0,104	0,028
-583,079	704,632	0,024	0,048
-582,065	-55,719	0,045	0,015
-581,050	-107,640	-0,064	-0,010
-580,036	-15,938	0,111	0,052
-579,021	185,746	-0,033	-0,036
-578,006	-24,492	-0,094	-0,041
-576,992	-200,000	0,019	-0,104
-575,977	-133,865	-0,108	0,010
-574,963	-106,880	0,151	-0,025
-573,948	74,482	-0,032	0,025
-572,934	126,993	0,021	-0,019
-571,919	-176,603	-0,094	-0,002
-570,904	-91,771	-0,042	-0,009
-569,890	101,411	-0,070	-0,060
-568,875	-158,246	0,072	-0,003
-567,861	350,886	-0,024	-0,035
-566,846	541,855	-0,038	-0,067
-565,831	-78,688	-0,058	-0,014
-564,817	-200,000	-0,022	-0,084
-563,802	-29,464	0,127	0,054
-562,788	-21,415	-0,071	-0,032
-561,773	-200,000	-0,018	0,089
-560,758	800,000	0,046	-0,094
-559,744	-200,000	-0,017	-0,130
-558,729	-138,710	0,013	-0,001
-557,715	-200,000	0,017	-0,118
-556,700	346,421	0,047	0,069
-555,685	352,097	-0,044	0,064
-554,671	800,000	0,035	-0,099
-553,656	288,211	0,043	-0,058
-552,642	98,267	-0,046	0,039
-551,627	275,878	-0,026	0,034
-550,612	-26,384	-0,036	0,016
-549,598	180,092	-0,142	-0,154
-548,583	-200,000	0,011	-0,042
-547,569	800,000	-0,045	-0,123
-546,554	-58,271	0,063	-0,020
-545,539	-200,000	0,037	0,153
-544,525	-103,721	-0,059	0,010
-543,510	53,881	-0,059	-0,042
-542,496	218,521	0,081	-0,096
-541,481	526,775	-0,019	-0,033
-540,466	-200,000	0,039	-0,135
-539,452	627,728	0,040	0,074
-538,437	-10,174	0,189	0,092
-537,423	800,000	0,040	0,091
-536,408	132,750	-0,022	0,021
-535,393	-14,718	-0,158	0,074
-534,379	-77,577	-0,104	-0,026
-533,364	-34,868	0,161	-0,065
-532,350	3,664	0,097	0,052
-531,335	-49,662	-0,148	-0,052
-530,321	-200,000	0,128	0,000
-529,306	103,169	-0,155	-0,134
-528,291	-81,713	-0,127	-0,031
-527,277	-89,401	-0,001	0,000
-526,262	-200,000	0,018	-0,090
-525,248	-150,727	0,062	0,003
-524,233	234,646	-0,075	-0,091
-523,218	10,654	-0,079	-0,044
-522,204	-185,016	-0,072	0,001
-521,189	-10,791	-0,094	-0,046
-520,175	-200,000	0,020	-0,164
-519,160	800,000	0,056	0,157
-518,145	191,904	-0,055	0,062
-517,131	330,109	0,085	0,121
-516,116	-200,000	-0,022	0,096
-515,102	-114,862	0,046	0,006
-514,087	-200,000	-0,019	-0,081
-513,072	342,898	0,051	0,074
-512,058	57,275	-0,138	0,100
-511,043	200,815	-0,039	0,045
-510,029	-200,000	-0,007	0,036
-509,014	35,854	0,112	0,072
-507,999	-200,000	-0,005	-0,062
-506,985	125,628	-0,054	-0,050
-505,970	135,663	-0,073	-0,070
-504,956	275,169	0,076	-0,100
-503,941	-91,994	0,078	-0,016
-502,926	-122,487	0,129	-0,015
-501,912	-107,681	0,037	-0,006
-500,897	-200,000	-0,006	0,031
-499,883	-46,669	0,033	-0,012
-498,868	264,938	0,038	-0,048
-497,853	38,097	-0,161	-0,106
-496,839	-120,703	0,158	-0,019
-495,824	167,640	0,055	0,058
-494,810	-200,000	0,011	0,128
-493,795	-14,231	-0,053	0,025
-492,781	-200,000	-0,013	-0,095
-491,766	-200,000	-0,012	0,189
-490,751	-200,000	-0,019	0,089
-489,737	-200,000	-0,013	-0,056
-488,722	-34,451	0,116	-0,047
-487,708	510,497	0,050	0,086
-486,693	-2,029	-0,061	0,031
-485,678	535,736	0,030	0,054
-484,664	800,000	0,011	0,025
-483,649	-200,000	-0,015	-0,054
-482,635	-13,831	-0,083	-0,040
-481,620	-200,000	0,027	0,118
-480,605	107,877	0,051	0,045
-479,591	67,369	-0,049	0,037
-478,576	269,141	-0,034	-0,044
-477,562	217,026	-0,103	-0,121
-476,547	800,000	0,027	-0,058
-475,532	-31,655	-0,086	-0,035
-474,518	800,000	0,071	0,165
-473,503	-60,338	-0,033	-0,010
-472,489	-85,080	-0,042	-0,010
-471,474	800,000	-0,065	0,141
-470,459	184,451	0,060	0,066
-469,445	70,376	-0,106	0,081
-468,430	76,001	-0,049	0,039
-467,416	-50,242	0,171	-0,059
-466,401	81,536	0,092	0,074
-465,386	-200,000	-0,008	-0,033
-464,372	-35,323	-0,146	0,058
-463,357	800,000	-0,060	0,133
-462,343	171,315	-0,091	-0,096
-461,328	-200,000	0,013	-0,055
-460,313	12,908	0,086	0,049
-459,299	72,036	-0,076	0,058
-458,284	-200,000	-0,006	0,063
-457,270	-200,000	0,013	0,086
-456,255	336,837	0,009	-0,012
-455,241	75,028	0,101	-0,079
-454,226	-136,077	-0,109	0,009
-453,211	800,000	0,041	0,119
-452,197	258,667	0,066	0,084
-451,182	-82,303	0,143	0,034
-450,168	-200,000	0,025	0,090
-449,153	171,099	-0,034	0,035
-448,138	-200,000	0,018	-0,066
-447,124	-98,729	-0,036	-0,007
-446,109	70,433	-0,015	0,012
-445,095	-32,464	0,113	-0,046
-444,080	153,792	0,059	-0,059
-443,065	800,000	-0,032	0,092
-442,051	97,944	-0,128	-0,109
-441,036	800,000	-0,076	-0,168
-440,022	234,749	0,086	-0,105
-439,007	55,613	-0,089	0,063
-437,992	588,692	0,089	0,163
-436,978	29,475	-0,086	0,054
-435,963	-37,672	0,078	-0,031
-434,949	-4,457	-0,062	-0,031
-433,934	-128,280	-0,043	0,004
-432,919	-108,987	-0,072	-0,011
-431,905	800,000	-0,061	-0,141
-430,890	-90,785	-0,057	-0,012
-429,876	800,000	0,021	0,046
-428,861	-200,000	-0,006	0,083
-427,846	-200,000	-0,006	-0,145
-426,832	800,000	0,082	-0,182
-425,817	-200,000	0,025	-0,118
-424,803	-200,000	-0,001	-0,046
-423,788	-200,000	0,023	0,137
-422,773	-151,693	-0,226	0,012
-421,759	40,437	0,066	-0,044
-420,744	-200,000	-0,017	0,089
-419,730	-76,870	-0,044	-0,011
-418,715	13,697	-0,173	-0,099
-417,701	634,681	-0,040	-0,075
-416,686	-200,000	0,013	0,126
-415,671	-200,000	0,011	0,048
-414,657	41,462	0,047	-0,031
-413,642	-200,000	0,005	0,037
-412,628	-200,000	-0,034	-0,114
-411,613	-200,000	-0,026	-0,135
-410,598	562,405	0,027	0,048
-409,584	100,516	0,053	0,045
-408,569	-81,116	0,098	0,024
-407,555	800,000	0,068	0,157
-406,540	800,000	-0,020	0,041
-405,525	-72,228	-0,066	0,018
-404,511	-116,867	0,041	0,005
-403,496	222,756	-0,015	0,018
-402,482	32,272	0,085	-0,054
-401,467	-21,206	0,016	-0,007
-400,452	-2,251	-0,100	-0,051
-399,438	413,390	-0,053	0,083
-398,423	279,422	-0,024	-0,031
-397,409	-200,000	0,005	-0,111
-396,394	288,021	0,035	-0,047
-395,379	800,000	-0,051	-0,138
-394,365	-81,233	-0,057	0,014
-393,350	41,165	0,077	-0,051
-392,336	800,000	-0,039	0,122
-391,321	-97,362	-0,011	-0,002
-390,306	110,499	-0,063	0,056
-389,292	-200,000	-0,045	-0,162
-388,277	800,000	-0,068	-0,183
-387,263	641,231	0,062	0,117
-386,248	-200,000	0,041	0,185
-385,233	-200,000	0,027	0,092
-384,219	215,386	-0,115	0,135
-383,204	-200,000	-0,018	0,126
-382,190	-200,000	-0,003	-0,043
-381,175	137,268	-0,124	-0,119
-380,160	-95,738	0,075	0,015
-379,146	-200,000	-0,038	0,143
-378,131	35,169	0,069	-0,045
-377,117	-60,034	0,045	0,014
-376,102	-200,000	0,003	0,018
-375,088	-78,999	0,157	0,039
-374,073	17,407	-0,075	0,044
-373,058	-200,000	0,009	0,081
-372,044	225,275	-0,036	0,042
-371,029	-54,208	0,108	-0,036
-370,015	800,000	0,043	0,137
-369,000	-200,000	0,001	0,111
-367,985	540,976	-0,106	-0,186
-366,971	-200,000	-0,003	-0,053
-365,956	-146,515	-0,045	-0,003
-364,942	186,031	-0,051	-0,056
-363,927	128,155	-0,089	0,083
-362,912	-179,447	-0,042	-0,001
-361,898	-200,000	-0,020	-0,081
-360,883	800,000	0,004	0,009
-359,869	-31,436	0,019	0,008
-358,854	179,803	0,055	0,059
-357,839	800,000	-0,013	0,037
-356,825	-82,954	0,105	-0,025
-355,810	-27,973	-0,080	0,034
-354,796	416,762	-0,037	0,059
-353,781	491,727	0,014	-0,023
-352,766	-44,050	-0,072	-0,026
-351,752	-17,270	-0,027	0,012
-350,737	-102,555	0,148	-0,026
-349,723	74,664	0,085	0,065
-348,708	-121,376	-0,073	-0,009
-347,693	250,696	-0,113	0,141
-346,679	800,000	-0,032	-0,066
-345,664	800,000	0,016	-0,044
-344,650	-84,188	-0,097	-0,022
-343,635	134,978	0,027	-0,026
-342,620	-200,000	-0,003	0,020
-341,606	125,434	0,033	0,030
-340,591	-200,000	-0,005	0,128
-339,577	-200,000	-0,031	0,148
-338,562	-200,000	-0,019	0,147
-337,548	-115,621	0,131	-0,018
-336,533	-126,295	-0,043	0,005
-335,518	29,479	-0,150	0,093
-334,504	-200,000	0,003	0,048
-333,489	-121,753	-0,035	-0,004
-332,475	800,000	-0,036	-0,092
-331,460	65,962	0,088	0,065
-330,445	-200,000	-0,011	0,036
-329,431	355,707	0,109	0,159
-328,416	91,174	0,084	0,069
-327,402	-82,716	-0,153	-0,036
-326,387	436,134	-0,052	-0,083
-325,372	800,000	0,024	-0,059
-324,358	-136,093	-0,075	0,006
-323,343	8,019	0,080	0,044
-322,329	534,079	-0,005	-0,008
-321,314	105,638	0,080	-0,069
-320,299	-135,465	0,058	-0,005
-319,285	-162,656	-0,069	-0,002
-318,270	173,992	-0,069	-0,073
-317,256	19,591	-0,108	-0,063
-316,241	-200,000	0,006	-0,028
-315,226	-200,000	0,014	0,110
-314,212	-111,611	0,075	0,011
-313,197	-63,476	0,041	0,012
-312,183	-166,207	-0,099	0,003
-311,168	-200,000	0,008	-0,061
-310,153	187,938	0,024	0,026
-309,139	9,557	-0,108	-0,060
-308,124	55,586	0,111	-0,078
-307,110	139,521	0,166	0,160
-306,095	258,704	0,016	0,021
-305,080	-69,090	0,053	-0,015
-304,066	-38,218	-0,038	0,015
-303,051	-200,000	0,003	-0,041
-302,037	800,000	0,042	0,116
-301,022	-200,000	-0,001	-0,171
-300,008	-78,413	-0,012	-0,003
-298,993	13,069	-0,098	-0,055
-297,978	-200,000	-0,005	0,036
-296,964	800,000	0,006	-0,018
-295,949	-38,675	0,068	-0,026
-294,935	34,114	-0,089	0,056
-293,920	148,410	0,104	-0,103
-292,905	-200,000	-0,002	0,009
-291,891	-100,374	0,059	0,011
-290,876	67,433	-0,134	-0,100
-289,862	63,193	0,077	-0,056
-288,847	376,075	-0,034	0,050
-287,832	172,601	0,013	-0,013
-286,818	267,510	-0,062	0,080
-285,803	274,155	0,022	-0,029
-284,789	-200,000	-0,003	0,157
-283,774	800,000	-0,039	0,101
-282,759	401,538	0,014	-0,021
-281,745	-96,393	-0,008	0,001
-280,730	-200,000	0,012	-0,135
-279,716	68,394	-0,017	-0,013
-278,701	-200,000	0,010	0,067
-277,686	-110,841	0,043	-0,006
-276,672	-200,000	0,002	-0,098
-275,657	169,162	0,063	0,066
-274,643	110,413	-0,075	-0,066
-273,628	98,709	-0,132	-0,111
-272,613	-31,843	0,129	-0,053
-271,599	237,110	0,010	-0,012
-270,584	364,112	0,018	0,026
-269,570	-173,287	0,123	0,003
-268,555	353,593	-0,068	0,099
-267,540	-68,600	-0,078	0,022
-266,526	211,962	-0,070	-0,081
-265,511	800,000	0,024	-0,070
-264,497	-200,000	-0,005	0,063
-263,482	158,710	-0,121	-0,123
-262,467	-133,040	0,053	0,005
-261,453	7,649	-0,022	-0,012
-260,438	-200,000	0,024	-0,081
-259,424	-200,000	0,009	-0,135
-258,409	-130,027	-0,062	-0,006
-257,395	-200,000	-0,010	0,070
-256,380	-4,718	0,065	0,033
-255,365	361,180	-0,012	-0,018
-254,351	800,000	0,030	-0,094
-253,336	-74,740	0,144	-0,037
-252,322	163,488	0,077	-0,079
-251,307	-142,976	-0,084	-0,006
-250,292	800,000	-0,033	-0,106
-249,278	-178,566	0,014	-0,000
-248,263	90,821	0,041	0,034
-247,249	163,788	0,107	0,110
-246,234	-200,000	0,037	-0,150
-245,219	239,986	-0,040	-0,049
-244,205	-200,000	0,013	-0,043
-243,190	-200,000	0,012	0,106
-242,176	72,930	0,044	0,033
-241,161	-200,000	0,011	0,086
-240,146	-39,995	-0,117	0,044
-239,132	800,000	0,037	0,082
-238,117	42,491	0,094	-0,062
-237,103	-122,726	0,097	-0,011
-236,088	-200,000	-0,025	-0,193
-235,073	-139,550	0,149	0,011
-234,059	59,060	0,036	0,026
-233,044	529,127	0,064	-0,111
-232,030	-33,253	-0,065	-0,026
-231,015	-73,660	-0,051	-0,014
-230,000	800,000	0,033	-0,072
-228,986	-142,983	0,074	0,005
-227,971	386,577	0,077	0,116
-226,957	418,977	0,033	-0,051
-225,942	-97,657	0,160	-0,030
-224,927	-181,234	-0,216	-0,003
-223,913	-126,435	0,055	-0,006
-222,898	-13,038	-0,141	-0,067
-221,884	-200,000	0,009	-0,099
-220,869	52,013	-0,010	-0,007
-219,855	800,000	-0,047	0,128
-218,840	-119,974	0,095	0,012
-217,825	-1,238	0,042	-0,021
-216,811	232,132	-0,125	-0,151
-215,796	-200,000	-0,003	-0,019
-214,782	160,007	-0,086	-0,088
-213,767	-200,000	0,009	0,156
-212,752	-200,000	0,013	0,098
-211,738	65,227	-0,007	0,005
-210,723	214,318	0,044	-0,051
-209,709	124,237	-0,024	-0,022
-208,694	-47,139	-0,097	-0,034
-207,679	32,466	0,069	0,043
-206,665	800,000	0,029	0,077
-205,650	14,992	-0,044	0,025
-204,636	-200,000	-0,002	0,046
-203,621	414,241	-0,035	-0,054
-202,606	604,600	0,009	0,016
-201,592	-117,829	-0,015	0,002
-200,577	140,505	-0,006	-0,006
-199,563	155,739	-0,054	0,054
-198,548	96,878	0,073	-0,061
-197,533	800,000	0,059	0,161
-196,519	-200,000	-0,021	0,127
-195,504	139,193	0,052	0,050
-194,490	-67,668	-0,141	0,040
-193,475	800,000	-0,027	-0,059
-192,460	-119,775	0,178	0,022
-191,446	79,198	0,034	-0,026
-190,431	159,623	-0,150	0,152
-189,417	-146,633	0,150	0,009
-188,402	-145,389	0,085	0,005
-187,387	-200,000	0,014	-0,077
-186,373	326,212	-0,078	0,109
-185,358	220,107	-0,038	-0,044
-184,344	140,989	0,056	-0,054
-183,329	477,557	-0,025	-0,041
-182,315	-200,000	-0,002	0,048
-181,300	200,757	-0,022	-0,024
-180,285	-21,662	-0,109	0,048
-179,271	180,499	-0,091	0,098
-178,256	38,606	0,021	0,013
-177,242	-11,436	0,072	0,035
-176,227	43,022	-0,193	0,128
-175,212	172,190	0,172	0,181
-174,198	109,456	0,041	0,036
-173,183	-60,828	0,142	0,044
-172,169	551,292	-0,022	0,038
-171,154	93,973	-0,037	-0,031
-170,139	580,870	-0,073	0,130
-169,125	5,521	0,073	-0,039
-168,110	-37,002	-0,138	0,053
-167,096	250,943	-0,043	0,053
-166,081	-11,631	-0,127	-0,061
-165,066	-51,616	-0,132	-0,045
-164,052	-200,000	-0,005	-0,086
-163,037	459,020	0,015	0,024
-162,023	493,948	0,018	-0,029
-161,008	800,000	-0,031	0,064
-159,993	188,775	0,037	-0,041
-158,979	15,881	0,044	-0,025
-157,964	593,127	-0,058	-0,105
-156,950	365,621	0,067	-0,099
-155,935	177,399	0,034	-0,036
-154,920	800,000	-0,056	0,119
-153,906	746,172	-0,037	0,073
-152,891	-159,840	0,059	0,002
-151,877	-200,000	0,026	0,126
-150,862	800,000	0,045	-0,112
-149,847	-200,000	-0,003	-0,091
-148,833	69,588	0,067	-0,050
-147,818	459,504	0,093	-0,151
-146,804	286,318	-0,087	0,115
-145,789	-200,000	-0,006	0,026
-144,775	-200,000	0,002	0,054
-143,760	-77,119	-0,102	-0,026
-142,745	22,764	0,089	-0,053
-141,731	800,000	-0,056	-0,138
-140,716	-200,000	0,035	0,195
-139,702	10,607	0,107	0,059
-138,687	-200,000	-0,021	0,082
-137,672	120,214	-0,030	0,027
-136,658	800,000	0,020	0,049
-135,643	-26,622	-0,130	0,055
-134,629	-103,670	-0,054	-0,009
-133,614	157,700	0,039	0,039
-132,599	537,503	0,038	-0,066
-131,585	-25,122	-0,148	0,064
-130,570	-200,000	-0,025	0,103
-129,556	127,529	-0,098	0,091
-128,541	-200,000	-0,013	-0,125
-127,526	113,885	0,026	-0,023
-126,512	800,000	0,064	0,170
-125,497	536,556	-0,055	0,096
-124,483	-200,000	0,023	0,132
-123,468	800,000	-0,071	-0,208
-122,453	281,035	-0,059	-0,078
-121,439	-7,245	-0,039	0,019
-120,424	-128,723	-0,060	0,006
-119,410	-200,000	0,009	0,060
-118,395	540,541	0,061	0,106
-117,380	167,967	0,089	0,092
-116,366	236,849	-0,068	-0,083
-115,351	11,360	-0,145	-0,081
-114,337	297,063	-0,064	-0,085
-113,322	-200,000	0,032	-0,112
-112,307	-1,742	0,087	0,044
-111,293	-71,654	0,082	-0,022
-110,278	-88,042	-0,106	-0,023
-109,264	31,511	0,006	0,004
-108,249	-200,000	0,012	-0,049
-107,234	-45,585	-0,048	-0,017
-106,220	-200,000	0,006	0,046
-105,205	576,548	0,003	0,006
-104,191	-200,000	-0,014	0,119
-103,176	-200,000	0,006	0,077
-102,162	141,182	0,049	0,047
-101,147	201,931	-0,092	0,103
-100,132	-200,000	-0,016	0,059
-99,118	-24,662	-0,056	-0,024
-98,103	-12,980	0,065	0,030
-97,089	762,139	0,043	0,085
-96,074	205,286	0,022	0,025
-95,059	-200,000	-0,022	-0,183
-94,045	409,422	-0,049	0,076
-93,030	-200,000	0,002	0,038
-92,016	162,460	0,036	0,037
-91,001	17,139	0,073	-0,042
-89,986	424,235	-0,062	0,098
-88,972	800,000	-0,047	0,124
-87,957	800,000	-0,060	0,163
-86,943	28,069	0,016	0,010
-85,928	-12,872	-0,093	-0,044
-84,913	-110,756	-0,136	-0,020
-83,899	800,000	0,014	0,039
-82,884	-131,521	0,123	0,012
-81,870	-200,000	-0,001	0,024
-80,855	-9,804	0,059	0,028
-79,840	170,751	0,048	-0,050
-78,826	-91,292	-0,145	-0,030
-77,811	123,783	-0,061	0,056
-76,797	800,000	0,068	0,162
-75,782	800,000	0,039	0,098
-74,767	248,801	-0,097	0,119
-73,753	130,629	0,040	0,037
-72,738	-44,755	-0,088	0,032
-71,724	-200,000	-0,006	0,066
-70,709	-69,810	-0,057	0,016
-69,694	-70,616	0,055	-0,015
-68,680	357,827	-0,057	0,083
-67,665	390,546	0,141	0,213
-66,651	182,822	-0,079	0,085
-65,636	-200,000	0,042	0,201
-64,622	-65,526	-0,153	0,044
-63,607	-187,069	-0,107	0,001
-62,592	167,035	-0,078	-0,081
-61,578	572,806	-0,025	0,044
-60,563	-200,000	0,004	-0,039
-59,549	338,157	0,048	0,069
-58,534	-83,759	-1,506	-0,346
-57,519	412,825	-0,818	-1,266
-56,505	-200,000	-0,957	-4,408
-55,490	-83,832	0,646	-0,148
-54,476	800,000	5,015	11,788
-53,461	-200,000	14,663	265,204
-52,446	-200,000	696,985	2270,579
-51,432	588,853	1622,402	2910,504
-50,417	120,903	1630,843	1470,744
-49,403	78,615	1284,651	994,842
-48,388	38,019	1022,970	658,277
-47,373	23,212	982,243	583,360
-46,359	22,337	971,646	574,175
-45,344	21,135	967,465	567,748
-44,330	21,098	965,994	566,743
-43,315	20,897	964,535	565,208
-42,300	20,957	963,534	564,795
-41,286	20,912	962,450	563,992
-40,271	20,871	961,267	563,141
-39,257	20,817	960,631	562,572
-38,242	20,923	959,498	562,230
-37,227	20,863	958,925	561,676
-36,213	20,832	957,901	560,955
-35,198	20,861	956,959	560,473
-34,184	20,891	956,392	560,218
-33,169	20,832	955,474	559,467
-32,154	20,920	954,589	559,211
-31,140	20,854	953,718	558,466
-30,125	20,859	953,088	558,091
-29,111	20,898	952,056	557,588
-28,096	20,875	951,455	557,140
-27,082	20,862	950,794	556,688
-26,067	20,851	949,874	556,095
-25,052	20,862	949,284	555,761
-24,038	20,873	948,362	555,234
-23,023	20,880	947,920	554,977
-22,009	20,953	947,205	554,769
-20,994	20,933	946,472	554,254
-19,979	20,914	946,052	553,927
-18,965	20,840	945,421	553,298
-17,950	20,874	944,863	553,059
-16,936	20,856	944,085	552,522
-15,921	20,818	943,538	552,058
-14,906	20,813	942,530	551,433
-13,892	20,774	942,217	551,104
-12,877	20,795	941,369	550,651
-11,863	20,711	940,858	550,063
-10,848	20,744	940,478	549,924
-9,833	20,848	940,017	549,963
-8,819	20,832	939,461	549,566
-7,804	20,720	938,613	548,693
-6,790	20,741	938,167	548,477
-5,775	20,822	937,462	548,298
-4,760	20,761	936,736	547,661
-3,746	20,755	936,136	547,268
-2,731	20,638	935,570	546,547
-1,717	20,617	934,808	546,015
-0,702	20,582	934,026	545,425
0,313	20,367	933,496	545,261
1,327	23,314	931,748	553,469
2,342	32,535	794,221	496,312
3,356	29,798	451,605	278,053
4,371	-0,615	295,959	151,601
5,386	-4,833	276,999	137,850
6,400	-6,444	271,172	133,430
7,415	-7,057	269,094	131,826
8,429	-6,588	267,878	131,653
9,444	-6,452	267,155	131,411
10,459	-6,327	266,337	131,111
11,473	-6,273	265,701	130,836
12,488	-6,388	265,256	130,500
13,502	-6,553	264,706	130,068
14,517	-6,469	264,308	129,937
15,531	-6,138	263,969	130,060
16,546	-5,901	263,731	130,147
17,561	-6,309	263,358	129,581
18,575	-6,131	263,077	129,592
19,590	-6,095	262,617	129,386
20,604	-6,149	262,429	129,234
21,619	-6,202	262,007	128,966
22,634	-5,993	261,739	129,012
23,648	-6,392	261,425	128,486
24,663	-6,231	261,200	128,509
25,677	-5,998	260,793	128,507
26,692	-6,297	260,700	128,180
27,707	-6,177	260,508	128,182
28,721	-6,353	260,180	127,852
29,736	-6,251	259,964	127,826
30,750	-6,239	259,683	127,687
31,765	-6,310	259,408	127,477
32,780	-6,010	258,998	127,532
33,794	-6,151	259,012	127,401
34,809	-6,230	258,728	127,180
35,823	-6,348	258,558	126,980
36,838	-6,285	258,296	126,896
37,853	-6,112	257,948	126,868
38,867	-6,466	257,795	126,466
39,882	-6,228	257,442	126,493
40,896	-6,202	257,245	126,408
41,911	-6,275	257,026	126,224
42,926	-6,403	256,941	126,058
43,940	-6,451	256,669	125,871
44,955	-6,429	256,408	125,751
45,969	-6,295	256,046	125,681
46,984	-6,477	255,937	125,456
47,999	-6,661	255,666	125,150
49,013	-6,915	255,377	124,774
50,028	-6,835	255,116	124,705
51,042	-6,869	254,722	124,472
52,057	-6,863	254,610	124,412
53,071	-6,854	254,478	124,344
54,086	-6,896	254,224	124,172
55,101	-6,616	254,092	124,341
56,115	-6,478	253,873	124,343
57,130	-6,228	253,791	124,510
58,144	-6,307	253,727	124,399
59,159	-6,090	253,539	124,484
60,174	-6,144	253,290	124,304
61,188	-6,219	252,971	124,071
62,203	-6,185	252,866	124,038
63,217	-6,240	252,799	123,947
64,232	-6,251	252,481	123,770
65,247	-6,346	252,248	123,562
66,261	-6,191	251,952	123,541
67,276	-6,269	251,738	123,357
68,290	-6,618	251,458	122,908
69,305	-6,709	251,282	122,732
70,320	-6,563	250,986	122,702
71,334	-6,438	250,966	122,789
72,349	-6,332	250,835	122,806
73,363	-6,167	250,690	122,866
74,378	-6,158	250,387	122,714
75,393	-6,212	249,993	122,463
76,407	-6,511	250,187	122,291
77,422	-6,288	249,877	122,320
78,436	-6,213	249,607	122,241
79,451	-6,246	249,470	122,134
80,466	-6,170	249,155	122,035
81,480	-6,487	248,956	121,656
82,495	-6,241	248,563	121,662
83,509	-6,477	248,569	121,453
84,524	-6,245	248,185	121,453
85,539	-6,574	248,216	121,177
86,553	-6,455	247,914	121,119
87,568	-6,325	247,907	121,216
88,582	-6,645	247,663	120,814
89,597	-6,706	247,381	120,614
90,611	-6,346	247,181	120,811
91,626	-6,222	247,116	120,873
92,641	-6,391	246,952	120,639
93,655	-6,279	246,792	120,645
94,670	-6,249	246,557	120,544
95,684	-6,256	246,332	120,418
96,699	-6,343	246,126	120,233
97,714	-6,553	246,010	119,988
98,728	-6,370	245,611	119,937
99,743	-6,666	245,628	119,686
100,757	-6,710	245,288	119,473
101,772	-6,584	245,061	119,457
102,787	-6,832	245,082	119,249
103,801	-6,518	244,755	119,342
104,816	-6,346	244,645	119,422
105,830	-6,283	244,533	119,410
106,845	-6,392	244,405	119,245
107,860	-6,365	244,150	119,132
108,874	-6,512	243,901	118,878
109,889	-6,534	243,727	118,764
110,903	-6,609	243,419	118,540
111,918	-6,558	243,329	118,529
112,933	-6,424	243,239	118,586
113,947	-6,669	243,082	118,295
114,962	-6,390	242,850	118,404
115,976	-6,325	242,748	118,397
116,991	-6,270	242,465	118,294
118,006	-6,341	242,375	118,181
119,020	-6,385	242,226	118,061
120,035	-6,156	242,120	118,188
121,049	-6,260	241,910	117,989
122,064	-6,426	241,721	117,750
123,079	-6,437	241,593	117,668
124,093	-6,182	241,317	117,733
125,108	-6,449	240,921	117,310
126,122	-6,651	240,985	117,164
127,137	-6,486	240,683	117,142
128,151	-6,547	240,439	116,963
129,166	-6,362	240,316	117,045
130,181	-6,525	240,193	116,840
131,195	-6,844	240,051	116,500
132,210	-6,491	239,931	116,720
133,224	-6,470	239,645	116,588
134,239	-6,463	239,492	116,509
135,254	-6,354	239,432	116,558
136,268	-6,543	239,075	116,219
137,283	-6,814	238,926	115,916
138,297	-6,695	238,747	115,915
139,312	-6,691	238,532	115,804
140,327	-6,442	238,497	115,980
141,341	-6,028	238,507	116,311
142,356	-6,178	238,205	116,031
143,370	-6,216	238,149	115,963
144,385	-6,140	237,906	115,895
145,400	-6,138	237,743	115,808
146,414	-6,007	237,579	115,823
147,429	-6,149	237,356	115,590
148,443	-6,064	237,122	115,534
149,458	-6,084	236,954	115,426
150,473	-6,092	236,896	115,381
151,487	-6,057	236,600	115,255
152,502	-6,101	236,561	115,190
153,516	-5,906	236,323	115,221
154,531	-6,070	236,098	114,969
155,546	-5,940	235,854	114,944
156,560	-6,261	235,816	114,657
157,575	-6,344	235,570	114,461
158,589	-6,275	235,324	114,387
159,604	-6,042	235,369	114,585
160,619	-5,981	235,208	114,545
161,633	-5,846	235,124	114,603
162,648	-5,972	234,861	114,363
163,662	-6,128	234,816	114,206
164,677	-6,149	234,510	114,031
165,692	-6,065	234,398	114,033
166,706	-5,918	234,332	114,108
167,721	-5,913	234,003	113,942
168,735	-6,051	234,139	113,887
169,750	-6,106	233,851	113,694
170,764	-6,017	233,627	113,645
171,779	-6,087	233,402	113,470
172,794	-5,890	233,375	113,603
173,808	-6,177	233,105	113,234
174,823	-6,772	232,955	112,680
175,837	-6,669	232,648	112,602
176,852	-6,256	232,501	112,848
177,867	-6,092	232,435	112,936
178,881	-6,141	232,430	112,885
179,896	-6,086	232,211	112,811
180,910	-6,025	232,111	112,801
181,925	-6,203	231,899	112,548
182,940	-6,202	231,741	112,461
183,954	-6,129	231,487	112,386
184,969	-5,958	231,522	112,527
185,983	-5,866	231,344	112,503
186,998	-6,006	231,177	112,302
188,013	-5,880	230,948	112,280
189,027	-5,771	230,783	112,275
190,042	-5,951	230,721	112,093
191,056	-5,867	230,553	112,068
192,071	-5,879	230,333	111,941
193,086	-5,998	230,117	111,733
194,100	-6,071	229,751	111,489
195,115	-6,758	229,470	110,807
196,129	-7,602	229,233	110,026
197,144	-4,127	230,235	113,213
198,159	0,816	231,770	117,837
199,173	4,095	232,698	120,875
200,188	4,665	232,598	121,259
201,202	4,663	232,441	121,165
202,217	4,491	232,301	120,947
203,232	4,901	232,207	121,208
204,246	4,878	232,111	121,129
205,261	5,137	231,806	121,161
206,275	5,076	231,925	121,165
207,290	5,228	231,683	121,147
208,304	5,165	231,572	121,028
209,319	5,081	231,306	120,813
210,334	5,121	231,073	120,711
211,348	4,810	230,982	120,412
212,363	4,475	230,560	119,920
213,377	4,289	230,376	119,670
214,392	4,212	230,314	119,568
215,407	4,442	230,222	119,687
216,421	4,224	230,134	119,462
217,436	4,251	229,847	119,323
218,450	4,044	229,621	119,035
219,465	3,672	229,621	118,736
220,480	3,946	229,390	118,819
221,494	3,919	229,370	118,776
222,509	4,239	229,058	118,851
223,523	4,242	229,009	118,818
224,538	4,024	228,806	118,534
225,553	4,382	228,550	118,666
226,567	4,221	228,571	118,543
227,582	4,511	228,434	118,684
228,596	4,765	228,258	118,777
229,611	4,416	228,078	118,405
230,626	4,019	227,911	118,003
231,640	4,056	227,722	117,923
232,655	4,311	227,743	118,119
233,669	4,779	227,612	118,399
234,684	4,643	227,548	118,250
235,699	4,621	227,268	118,078
236,713	4,348	226,981	117,710
237,728	4,271	226,747	117,519
238,742	4,183	226,687	117,411
239,757	4,474	226,530	117,540
240,772	4,316	226,406	117,345
241,786	4,150	226,292	117,150
242,801	4,501	226,189	117,352
243,815	4,679	226,105	117,434
244,830	4,596	225,977	117,294
245,844	4,575	225,707	117,127
246,859	4,274	225,657	116,863
247,874	4,718	225,565	117,141
248,888	4,507	225,472	116,923
249,903	4,365	225,165	116,645
250,917	4,538	224,965	116,662
251,932	4,191	224,822	116,316
252,947	4,181	224,639	116,203
253,961	4,330	224,391	116,177
254,976	4,277	224,420	116,141
255,990	4,471	224,357	116,245
257,005	4,328	224,225	116,058
258,020	4,479	223,970	116,029
259,034	4,421	223,995	115,988
260,049	4,680	223,678	116,008
261,063	4,447	223,610	115,788
262,078	4,458	223,516	115,737
263,093	4,669	223,350	115,799
264,107	4,353	223,343	115,548
265,122	4,557	223,127	115,579
266,136	4,694	222,948	115,578
267,151	4,667	222,865	115,504
268,166	4,366	222,589	115,126
269,180	3,941	222,426	114,715
270,195	4,051	222,218	114,679
271,209	3,958	222,086	114,532
272,224	4,161	221,960	114,608
273,239	4,380	221,817	114,686
274,253	4,111	221,688	114,410
275,268	4,260	221,449	114,387
276,282	3,916	221,281	114,034
277,297	4,043	221,131	114,042
278,312	4,101	221,118	114,068
279,326	4,177	220,962	114,033
280,341	4,100	220,919	113,943
281,355	4,250	220,730	113,947
282,370	4,189	220,588	113,819
283,384	4,056	220,379	113,602
284,399	4,193	220,206	113,604
285,414	4,256	219,808	113,435
286,428	4,272	219,949	113,510
287,443	4,431	219,852	113,566
288,457	4,219	219,737	113,341
289,472	4,289	219,570	113,296
290,487	3,729	219,371	112,772
291,501	3,853	219,099	112,713
292,516	3,956	219,011	112,733
293,530	4,059	218,930	112,757
294,545	3,934	218,972	112,677
295,560	4,023	218,706	112,595
296,574	4,391	218,404	112,699
297,589	4,252	218,412	112,591
298,603	4,282	218,345	112,569
299,618	4,260	218,229	112,482
300,633	4,155	217,998	112,277
301,647	4,306	218,016	112,386
302,662	4,626	217,788	112,492
303,676	4,129	217,775	112,113
304,691	4,313	217,591	112,142
305,706	4,744	217,416	112,355
306,720	4,753	217,258	112,270
307,735	4,328	216,971	111,803
308,749	4,105	216,841	111,565
309,764	4,412	216,813	111,763
310,779	4,609	216,664	111,818
311,793	4,302	216,457	111,480
312,808	4,367	216,337	111,455
313,822	4,302	216,231	111,343
314,837	4,335	215,984	111,230
315,852	4,115	215,914	111,026
316,866	4,069	215,852	110,951
317,881	4,484	215,652	111,137
318,895	4,317	215,589	110,975
319,910	4,477	215,342	110,952
320,925	4,065	215,224	110,585
321,939	3,685	215,024	110,201
322,954	4,019	214,798	110,315
323,968	4,227	214,820	110,464
324,983	4,286	214,807	110,490
325,997	4,455	214,580	110,484
327,012	4,162	214,617	110,284
328,027	4,300	214,280	110,200
329,041	4,698	214,156	110,411
330,056	4,714	214,270	110,471
331,070	4,281	213,825	109,923
332,085	3,985	213,625	109,600
333,100	4,103	213,442	109,580
334,114	4,343	213,375	109,707
335,129	4,355	213,103	109,565
336,143	4,303	212,994	109,463
337,158	4,045	212,929	109,236
338,173	3,904	212,845	109,083
339,187	3,983	212,697	109,054
340,202	4,011	212,458	108,942
341,216	3,786	212,421	108,754
342,231	3,959	212,310	108,809
343,246	3,991	212,123	108,726
344,260	4,137	212,024	108,769
345,275	4,401	211,833	108,847
346,289	4,445	211,802	108,853
347,304	4,308	211,798	108,744
348,319	4,334	211,556	108,629
349,333	4,124	211,397	108,390
350,348	4,172	211,307	108,368
351,362	4,403	211,232	108,482
352,377	4,396	211,172	108,437
353,392	4,340	210,784	108,188
354,406	4,362	210,868	108,237
355,421	192,853	1345,472	1429,521
356,435	153,907	1483,780	1429,617
