DTS Sentinel unit serial number:	SN410029Multiplexer serial number:	ORYXHardware model number:	OX2-SRSoftware version number:	ORYX F/W v4,00 Oryx Data Collector v3.7.2.0data status	okinstallation	B6 Nyhavnadifferential loss correction	single-endedforward channel	channel 2reverse channel	N/Adate	2023/12/08time	00:35:08forward acquisition time	300,00reverse acquisition time	0,00gamma	499,1914k internal	0,3164k external	0,3164temperature offset calibration	1,0000default loss term (dB/km)	0,3820temperature slope calibration	1,0000multiplexer offset coefficient	1,0000multiplexer slope coefficient	1,0000fibre end	0,00T internal ref (°C)	13,31T ext. ref 1 (°C)	-3,60T ext. ref 2 (°C)	-3,59length (m)	temperature (°C)	Stokes	anti-Stokes-744,400	243,420	0,081	0,101
-743,385	31,084	-0,242	-0,153
-742,371	800,000	0,043	0,095
-741,356	-118,562	-0,290	0,037
-740,342	800,000	0,034	0,107
-739,327	-17,371	-0,308	0,142
-738,312	197,695	0,043	-0,049
-737,298	-82,949	-0,323	0,076
-736,283	-83,706	0,161	0,038
-735,269	-150,699	-0,362	0,020
-734,254	-200,000	0,007	0,157
-733,239	-67,018	-0,458	-0,132
-732,225	-13,744	0,145	0,069
-731,210	19,574	0,061	0,036
-730,196	-37,093	0,065	-0,026
-729,181	302,871	-0,024	-0,033
-728,167	67,542	0,063	-0,047
-727,152	11,535	-0,120	0,067
-726,137	-200,000	0,013	-0,153
-725,123	2,501	-0,121	-0,064
-724,108	-200,000	-0,030	-0,109
-723,094	243,076	0,093	-0,115
-722,079	187,325	0,033	0,036
-721,064	-74,505	-0,023	-0,006
-720,050	102,165	0,128	0,110
-719,035	-4,684	0,008	-0,004
-718,021	-200,000	-0,036	0,117
-717,006	229,635	0,027	-0,033
-715,991	436,102	-0,048	-0,078
-714,977	509,544	0,014	-0,023
-713,962	-161,132	-0,123	0,005
-712,948	-200,000	0,016	0,080
-711,933	800,000	0,013	0,041
-710,918	268,616	0,083	0,107
-709,904	-41,146	-0,023	0,009
-708,889	-51,902	-0,072	-0,025
-707,875	-37,100	-0,067	-0,026
-706,860	800,000	0,039	-0,123
-705,845	109,454	0,074	0,065
-704,831	-25,628	0,143	-0,062
-703,816	-112,623	-0,057	0,008
-702,802	-200,000	-0,005	-0,101
-701,787	-119,668	-0,114	0,014
-700,772	61,657	-0,114	-0,083
-699,758	404,588	0,041	-0,064
-698,743	-120,601	0,094	-0,012
-697,729	186,964	-0,055	0,061
-696,714	-30,612	0,159	0,066
-695,699	25,459	-0,231	-0,141
-694,685	6,749	-0,008	-0,004
-693,670	800,000	-0,055	0,147
-692,656	-113,242	0,156	0,022
-691,641	800,000	0,032	0,066
-690,627	-4,626	0,072	-0,036
-689,612	764,457	0,058	-0,117
-688,597	-200,000	0,012	-0,077
-687,583	-200,000	0,007	-0,120
-686,568	-114,005	0,047	-0,007
-685,554	800,000	-0,025	-0,052
-684,539	-81,550	-0,059	0,014
-683,524	-76,790	-0,048	0,012
-682,510	176,971	0,045	-0,048
-681,495	800,000	-0,036	-0,074
-680,481	99,390	-0,054	-0,046
-679,466	800,000	0,024	0,066
-678,451	-200,000	-0,012	0,154
-677,437	800,000	0,043	0,122
-676,422	-75,205	0,071	0,019
-675,408	-77,685	-0,044	-0,011
-674,393	2,966	-0,023	0,012
-673,378	109,707	-0,054	-0,047
-672,364	-200,000	0,003	-0,040
-671,349	-200,000	0,025	-0,104
-670,335	-125,143	0,051	-0,006
-669,320	-105,384	0,125	-0,021
-668,305	-70,455	0,085	0,024
-667,291	26,115	-0,086	-0,053
-666,276	800,000	0,020	-0,059
-665,262	-97,114	-0,141	0,027
-664,247	-3,691	0,157	-0,079
-663,232	487,176	0,055	0,093
-662,218	117,961	-0,062	0,056
-661,203	25,508	-0,017	0,011
-660,189	-6,542	0,069	0,034
-659,174	800,000	0,006	-0,014
-658,159	-200,000	0,017	-0,071
-657,145	602,507	0,060	0,110
-656,130	181,438	-0,011	0,012
-655,116	-200,000	-0,006	-0,041
-654,101	144,966	0,066	0,065
-653,086	524,498	-0,060	0,104
-652,072	-37,237	-0,084	0,033
-651,057	481,404	0,049	-0,082
-650,043	138,458	-0,051	0,049
-649,028	426,195	-0,074	0,117
-648,014	226,502	0,066	0,079
-646,999	82,261	-0,069	0,055
-645,984	26,714	0,132	0,081
-644,970	-200,000	-0,002	-0,019
-643,955	-200,000	-0,002	0,014
-642,941	110,175	0,048	-0,042
-641,926	91,623	-0,043	0,035
-640,911	-200,000	0,017	-0,137
-639,897	446,285	0,071	-0,115
-638,882	-200,000	0,027	0,088
-637,868	800,000	0,036	0,108
-636,853	-200,000	-0,006	-0,060
-635,838	367,163	-0,035	0,052
-634,824	748,333	0,069	0,137
-633,809	-99,724	-0,079	0,014
-632,795	65,008	-0,113	0,084
-631,780	800,000	0,051	0,157
-630,765	19,009	0,079	0,046
-629,751	800,000	-0,014	0,039
-628,736	-94,283	-0,044	0,009
-627,722	-91,709	-0,116	0,024
-626,707	179,063	0,048	0,051
-625,692	800,000	0,047	0,110
-624,678	800,000	-0,026	0,064
-623,663	-54,742	-0,073	-0,024
-622,649	77,646	-0,070	-0,054
-621,634	800,000	0,010	-0,024
-620,619	-99,614	0,016	0,003
-619,605	-200,000	-0,002	0,067
-618,590	-67,193	0,038	0,011
-617,576	68,687	-0,050	0,038
-616,561	95,859	0,087	-0,073
-615,546	314,554	-0,091	-0,126
-614,532	-14,093	-0,141	-0,066
-613,517	-148,553	-0,057	0,003
-612,503	800,000	0,059	-0,151
-611,488	103,332	-0,119	-0,102
-610,474	-131,994	-0,005	-0,000
-609,459	-63,818	-0,014	-0,004
-608,444	269,065	0,064	-0,083
-607,430	-200,000	-0,049	-0,214
-606,415	15,851	0,048	-0,028
-605,401	-200,000	-0,001	0,016
-604,386	-55,703	-0,009	0,003
-603,371	101,609	0,093	-0,079
-602,357	-200,000	0,008	0,136
-601,342	-150,959	-0,145	-0,008
-600,328	-200,000	-0,012	-0,094
-599,313	116,705	-0,020	0,018
-598,298	-33,298	0,048	0,019
-597,284	-200,000	0,031	0,115
-596,269	-200,000	0,005	0,019
-595,255	-200,000	0,010	-0,126
-594,240	799,476	0,019	0,038
-593,225	800,000	0,005	0,017
-592,211	-200,000	0,003	0,036
-591,196	-9,581	0,058	-0,028
-590,182	800,000	-0,025	0,070
-589,167	372,658	-0,039	0,059
-588,152	211,157	-0,097	0,111
-587,138	-24,996	-0,058	-0,025
-586,123	74,877	-0,186	-0,143
-585,109	83,966	0,090	-0,072
-584,094	-72,790	-0,121	-0,032
-583,079	730,558	0,056	0,110
-582,065	-83,960	0,145	-0,033
-581,050	800,000	0,064	0,131
-580,036	80,388	0,159	-0,125
-579,021	-71,285	-0,042	0,012
-578,006	354,368	0,035	0,051
-576,992	449,465	-0,074	-0,120
-575,977	638,375	-0,058	0,108
-574,963	800,000	0,025	0,070
-573,948	-200,000	-0,005	0,211
-572,934	-188,439	0,208	-0,002
-571,919	279,966	-0,042	0,055
-570,904	470,684	0,051	0,084
-569,890	-154,787	-0,054	0,003
-568,875	210,655	0,054	0,063
-567,861	78,384	0,110	0,086
-566,846	-96,802	0,037	-0,007
-565,831	800,000	0,053	0,149
-564,817	-44,226	-0,090	0,033
-563,802	-200,000	-0,014	-0,098
-562,788	47,028	-0,017	-0,011
-561,773	-200,000	-0,006	0,133
-560,758	13,798	-0,051	0,029
-559,744	-200,000	-0,002	-0,040
-558,729	15,862	0,058	0,033
-557,715	600,104	0,052	-0,094
-556,700	173,479	0,060	0,063
-555,685	-200,000	-0,033	0,186
-554,671	-14,675	-0,116	0,054
-553,656	26,092	0,014	-0,008
-552,642	-60,379	0,102	-0,032
-551,627	-33,554	-0,154	0,062
-550,612	-105,847	-0,136	-0,022
-549,598	488,953	-0,042	0,070
-548,583	800,000	-0,007	0,014
-547,569	32,089	-0,011	-0,007
-546,554	123,102	0,077	-0,071
-545,539	-52,488	0,093	0,031
-544,525	-200,000	0,009	-0,064
-543,510	319,943	0,029	0,040
-542,496	-200,000	-0,010	0,081
-541,481	343,359	-0,111	-0,159
-540,466	800,000	0,004	-0,011
-539,452	-200,000	0,004	0,020
-538,437	-118,322	0,150	-0,019
-537,423	-5,224	0,049	-0,024
-536,408	-17,153	-0,131	-0,060
-535,393	800,000	-0,077	-0,171
-534,379	-151,428	-0,083	-0,004
-533,364	-98,492	0,186	0,034
-532,350	315,573	-0,011	0,015
-531,335	800,000	-0,050	-0,153
-530,321	9,645	-0,049	-0,027
-529,306	800,000	0,022	-0,050
-528,291	-113,958	0,067	-0,009
-527,277	-0,765	-0,046	-0,024
-526,262	-119,406	0,115	0,014
-525,248	-28,962	-0,021	-0,009
-524,233	-200,000	-0,006	-0,131
-523,218	-1,573	-0,066	-0,034
-522,204	800,000	-0,067	0,136
-521,189	-172,228	0,061	0,001
-520,175	-200,000	0,017	0,089
-519,160	31,055	0,067	-0,042
-518,145	152,360	0,046	0,046
-517,131	167,714	-0,009	0,009
-516,116	-115,430	-0,052	0,007
-515,102	800,000	0,058	-0,122
-514,087	4,817	0,092	0,049
-513,072	800,000	-0,017	0,047
-512,058	-200,000	0,007	-0,026
-511,043	-49,616	0,024	0,008
-510,029	682,705	0,091	0,173
-509,014	-200,000	0,009	-0,039
-507,999	-200,000	0,014	0,095
-506,985	-200,000	-0,021	0,154
-505,970	-176,697	-0,120	-0,002
-504,956	-122,902	-0,069	-0,008
-503,941	162,044	0,116	-0,119
-502,926	-30,860	0,083	0,034
-501,912	5,649	-0,043	0,023
-500,897	800,000	-0,026	-0,075
-499,883	-200,000	-0,028	-0,153
-498,868	647,139	-0,087	-0,163
-497,853	122,057	-0,031	0,028
-496,839	33,447	0,026	0,016
-495,824	102,712	0,127	-0,108
-494,810	-66,290	0,105	0,030
-493,795	-200,000	0,005	-0,034
-492,781	110,669	0,036	-0,031
-491,766	-63,544	-0,167	0,050
-490,751	-21,443	-0,115	0,051
-489,737	-18,432	-0,062	-0,028
-488,722	-25,766	0,103	-0,044
-487,708	-108,572	-0,103	0,016
-486,693	-101,164	0,105	-0,018
-485,678	-100,246	-0,119	-0,021
-484,664	99,593	-0,033	0,028
-483,649	54,308	-0,060	0,042
-482,635	526,668	0,011	0,020
-481,620	800,000	0,009	0,028
-480,605	-18,270	0,135	-0,061
-479,591	140,786	0,045	0,043
-478,576	-200,000	-0,006	0,024
-477,562	201,282	0,029	0,033
-476,547	800,000	-0,012	0,039
-475,532	-147,383	0,031	-0,002
-474,518	-11,834	0,112	-0,053
-473,503	226,082	0,139	0,165
-472,489	15,489	-0,041	-0,023
-471,474	-200,000	-0,021	-0,072
-470,459	136,323	-0,077	0,073
-469,445	-64,373	-0,102	0,030
-468,430	-63,511	-0,086	-0,026
-467,416	-0,788	-0,026	-0,013
-466,401	224,336	0,129	0,151
-465,386	800,000	0,050	-0,103
-464,372	261,474	0,058	-0,073
-463,357	-200,000	0,002	-0,049
-462,343	-200,000	0,011	-0,062
-461,328	18,608	-0,141	0,082
-460,313	-200,000	-0,007	-0,075
-459,299	-200,000	-0,004	0,028
-458,284	800,000	0,021	0,056
-457,270	13,055	0,018	-0,010
-456,255	665,290	-0,067	-0,126
-455,241	361,017	0,026	-0,037
-454,226	-57,757	0,117	-0,037
-453,211	255,721	-0,021	0,027
-452,197	692,103	-0,095	0,182
-451,182	281,876	0,086	0,113
-450,168	-200,000	-0,053	-0,186
-449,153	-16,596	0,042	-0,019
-448,138	-200,000	-0,012	0,105
-447,124	-85,252	-0,059	-0,013
-446,109	42,178	0,113	0,075
-445,095	-200,000	-0,004	-0,037
-444,080	-6,170	0,033	0,017
-443,065	-200,000	-0,024	-0,163
-442,051	182,643	0,076	0,082
-441,036	225,670	-0,129	-0,153
-440,022	-200,000	-0,008	-0,056
-439,007	-20,317	0,173	0,077
-437,992	-200,000	-0,003	-0,082
-436,978	800,000	0,072	0,218
-435,963	-91,537	0,044	-0,009
-434,949	-114,639	0,028	0,004
-433,934	618,062	-0,050	-0,091
-432,919	-200,000	0,013	-0,118
-431,905	-59,329	0,057	-0,018
-430,890	528,348	0,036	0,061
-429,876	-200,000	0,004	-0,093
-428,861	-192,154	0,098	-0,001
-427,846	34,431	0,080	-0,051
-426,832	-122,327	-0,214	0,025
-425,817	-132,315	-0,042	-0,004
-424,803	-200,000	0,009	-0,119
-423,788	-200,000	0,011	0,062
-422,773	-111,139	0,146	-0,022
-421,759	-125,189	-0,134	-0,015
-420,744	278,589	-0,048	0,063
-419,730	-117,354	0,045	-0,006
-418,715	-31,732	-0,087	-0,035
-417,701	101,936	0,099	-0,084
-416,686	-200,000	0,006	0,056
-415,671	-200,000	-0,003	0,032
-414,657	800,000	0,058	-0,133
-413,642	-53,258	0,136	-0,045
-412,628	9,690	-0,108	-0,059
-411,613	227,399	-0,032	-0,038
-410,598	-3,046	0,009	-0,004
-409,584	-200,000	-0,020	0,065
-408,569	69,186	-0,086	-0,064
-407,555	-200,000	0,036	0,184
-406,540	409,300	0,093	0,143
-405,525	371,826	0,048	0,071
-404,511	800,000	0,013	-0,038
-403,496	-59,442	-0,098	0,030
-402,482	363,136	-0,052	0,076
-401,467	365,943	0,067	0,099
-400,452	24,607	-0,068	-0,041
-399,438	29,510	0,018	-0,011
-398,423	239,771	-0,053	0,065
-397,409	12,795	-0,122	-0,068
-396,394	357,481	-0,031	-0,045
-395,379	-99,622	-0,039	0,007
-394,365	665,659	0,048	0,090
-393,350	-8,700	0,091	-0,044
-392,336	617,723	0,072	0,131
-391,321	259,825	-0,082	-0,102
-390,306	-22,241	-0,020	0,009
-389,292	179,460	-0,116	-0,124
-388,277	50,660	0,035	0,024
-387,263	-140,357	-0,111	0,008
-386,248	-133,747	-0,080	-0,007
-385,233	800,000	0,008	0,026
-384,219	586,881	0,035	0,063
-383,204	800,000	0,008	0,018
-382,190	290,743	-0,066	-0,087
-381,175	800,000	-0,008	-0,021
-380,160	104,116	0,070	-0,060
-379,146	33,128	-0,083	-0,052
-378,131	800,000	0,033	0,079
-377,117	-22,347	0,132	0,058
-376,102	800,000	0,026	-0,074
-375,088	-200,000	-0,008	0,056
-374,073	-200,000	0,005	-0,166
-373,058	23,311	-0,053	-0,031
-372,044	333,338	-0,076	-0,107
-371,029	-200,000	-0,008	0,083
-370,015	122,059	0,036	-0,032
-369,000	-200,000	-0,001	0,046
-367,985	74,707	-0,088	0,067
-366,971	-200,000	-0,003	-0,168
-365,956	74,335	-0,103	0,079
-364,942	-66,206	0,147	0,042
-363,927	707,912	0,050	0,096
-362,912	90,045	0,108	-0,087
-361,898	800,000	-0,023	-0,066
-360,883	-60,939	-0,158	-0,048
-359,869	-65,487	0,209	0,061
-358,854	519,131	-0,027	-0,047
-357,839	-90,018	0,157	-0,033
-356,825	-200,000	0,008	0,067
-355,810	800,000	0,082	0,177
-354,796	-120,051	-0,070	-0,009
-353,781	108,603	-0,028	-0,025
-352,766	-2,336	0,135	-0,069
-351,752	541,729	0,034	0,060
-350,737	800,000	0,013	0,032
-349,723	-2,290	0,035	0,018
-348,708	-34,947	-0,040	0,016
-347,693	-69,676	-0,103	0,028
-346,679	149,161	-0,067	0,066
-345,664	800,000	0,048	-0,146
-344,650	22,896	-0,050	-0,029
-343,635	-3,798	0,056	0,028
-342,620	-174,938	-0,130	0,003
-341,606	-200,000	-0,002	-0,038
-340,591	165,799	0,055	0,056
-339,577	-159,142	-0,070	0,003
-338,562	351,592	0,045	-0,065
-337,548	461,162	-0,046	0,075
-336,533	-200,000	0,010	0,035
-335,518	10,327	0,065	0,036
-334,504	28,309	0,082	-0,050
-333,489	-72,285	0,103	0,027
-332,475	-1,342	-0,069	0,035
-331,460	49,612	-0,122	0,083
-330,445	-200,000	-0,023	0,095
-329,431	183,169	-0,049	-0,052
-328,416	-200,000	0,026	0,105
-327,402	382,130	0,105	0,157
-326,387	-200,000	0,011	0,079
-325,372	666,335	-0,088	-0,165
-324,358	-200,000	0,001	-0,142
-323,343	-68,495	-0,044	-0,012
-322,329	67,648	0,061	-0,045
-321,314	-128,160	-0,060	0,006
-320,299	-200,000	0,004	0,186
-319,285	-10,437	0,047	-0,022
-318,270	-107,143	-0,174	0,027
-317,256	-200,000	0,000	-0,061
-316,241	466,099	-0,039	-0,063
-315,226	-60,568	0,086	0,026
-314,212	-54,832	0,173	-0,056
-313,197	211,732	0,076	-0,086
-312,183	212,454	0,008	-0,009
-311,168	537,127	-0,087	-0,150
-310,153	-200,000	-0,029	-0,168
-309,139	-200,000	-0,011	-0,075
-308,124	413,983	-0,041	0,064
-307,110	-86,619	-0,102	-0,022
-306,095	-68,493	0,019	-0,005
-305,080	-135,461	0,161	0,014
-304,066	-153,659	0,119	0,006
-303,051	9,674	-0,064	0,035
-302,037	229,895	-0,057	-0,068
-301,022	-200,000	0,033	-0,120
-300,008	800,000	0,034	-0,090
-298,993	351,377	0,084	0,121
-297,978	-200,000	0,006	-0,027
-296,964	-41,431	-0,092	-0,034
-295,949	-101,850	-0,149	0,026
-294,935	-142,961	0,061	-0,004
-293,920	150,026	0,058	0,057
-292,905	-200,000	-0,009	-0,078
-291,891	-76,528	0,137	-0,035
-290,876	-200,000	-0,021	-0,079
-289,862	501,040	-0,023	0,039
-288,847	-108,774	-0,035	-0,005
-287,832	668,208	-0,062	-0,116
-286,818	-84,054	-0,073	-0,017
-285,803	-200,000	-0,010	0,120
-284,789	-142,927	0,092	0,006
-283,774	176,070	-0,039	-0,041
-282,759	-61,892	-0,093	-0,028
-281,745	-200,000	-0,024	0,098
-280,730	800,000	0,068	-0,156
-279,716	294,776	-0,039	-0,052
-278,701	-200,000	0,004	-0,091
-277,686	631,733	0,029	0,053
-276,672	73,145	-0,082	0,062
-275,657	397,361	-0,037	-0,056
-274,643	-191,276	-0,058	0,000
-273,628	800,000	0,056	0,119
-272,613	588,588	0,043	0,076
-271,599	800,000	0,027	0,065
-270,584	-200,000	0,023	0,116
-269,570	-200,000	0,009	0,060
-268,555	-51,286	-0,119	0,040
-267,540	-200,000	-0,032	-0,111
-266,526	-200,000	0,038	-0,167
-265,511	-200,000	-0,019	-0,090
-264,497	-96,885	0,059	0,011
-263,482	-24,372	0,056	-0,024
-262,467	407,792	-0,021	0,032
-261,453	379,651	-0,046	-0,068
-260,438	-127,890	-0,139	-0,014
-259,424	-25,996	-0,096	0,041
-258,409	710,134	-0,016	0,031
-257,395	121,989	-0,063	0,057
-256,380	-200,000	0,015	-0,067
-255,365	337,586	-0,045	0,063
-254,351	-36,904	-0,035	0,013
-253,336	-135,508	0,140	-0,012
-252,322	434,169	-0,051	0,080
-251,307	186,340	-0,046	-0,050
-250,292	-200,000	0,023	-0,128
-249,278	-9,811	0,106	0,051
-248,263	-100,812	0,077	-0,014
-247,249	-200,000	0,047	-0,166
-246,234	800,000	-0,007	-0,021
-245,219	737,347	0,019	-0,038
-244,205	138,464	-0,103	-0,098
-243,190	-62,990	0,101	0,030
-242,176	-100,711	0,099	-0,018
-241,161	-200,000	-0,015	0,096
-240,146	93,186	-0,079	0,065
-239,132	-93,042	-0,147	0,029
-238,117	-11,808	-0,109	-0,051
-237,103	-200,000	0,001	-0,062
-236,088	800,000	-0,019	0,054
-235,073	-139,949	0,137	0,010
-234,059	-51,086	-0,122	0,041
-233,044	-200,000	0,023	-0,132
-232,030	111,702	-0,116	0,101
-231,015	177,239	0,053	-0,056
-230,000	-45,240	-0,127	-0,045
-228,986	-46,879	-0,030	-0,010
-227,971	437,992	-0,042	0,066
-226,957	92,451	-0,051	0,042
-225,942	-3,313	0,084	-0,042
-224,927	-42,044	-0,067	-0,025
-223,913	556,195	0,045	-0,078
-222,898	-83,265	-0,243	-0,056
-221,884	405,916	0,040	0,061
-220,869	710,367	0,039	-0,074
-219,855	-200,000	-0,004	0,026
-218,840	800,000	-0,026	0,074
-217,825	282,646	-0,043	-0,056
-216,811	-200,000	-0,010	-0,035
-215,796	-115,352	0,104	-0,014
-214,782	800,000	-0,050	-0,149
-213,767	-200,000	0,004	-0,113
-212,752	180,413	-0,043	0,045
-211,738	800,000	-0,035	0,098
-210,723	240,972	0,017	-0,021
-209,709	-200,000	0,012	0,049
-208,694	-200,000	-0,010	0,036
-207,679	-2,473	-0,067	-0,034
-206,665	-105,973	-0,110	0,018
-205,650	800,000	0,041	0,114
-204,636	-200,000	0,022	0,166
-203,621	-200,000	0,019	0,071
-202,606	401,856	0,029	0,044
-201,592	-174,291	-0,132	0,003
-200,577	-200,000	-0,010	0,101
-199,563	9,101	0,063	0,034
-198,548	19,573	-0,113	-0,065
-197,533	-65,149	0,017	0,005
-196,519	-200,000	0,002	-0,039
-195,504	800,000	-0,032	-0,069
-194,490	-39,428	-0,040	0,015
-193,475	800,000	0,021	-0,046
-192,460	388,914	-0,022	-0,033
-191,446	-78,044	0,042	0,010
-190,431	800,000	-0,037	0,098
-189,417	755,400	0,042	0,083
-188,402	-156,237	-0,097	0,004
-187,387	740,460	-0,050	-0,098
-186,373	-200,000	0,037	-0,211
-185,358	15,875	0,123	0,070
-184,344	-200,000	0,007	0,075
-183,329	71,257	0,234	-0,175
-182,315	-200,000	0,008	-0,050
-181,300	147,830	-0,027	-0,026
-180,285	-49,125	0,089	-0,030
-179,271	-27,000	-0,119	0,050
-178,256	-45,702	0,068	-0,024
-177,242	715,930	0,054	-0,103
-176,227	-200,000	-0,023	0,120
-175,212	118,345	0,071	-0,063
-174,198	-127,318	0,097	-0,010
-173,183	74,933	-0,172	-0,130
-172,169	487,169	-0,013	0,021
-171,154	-8,088	0,144	-0,070
-170,139	-200,000	0,008	-0,080
-169,125	46,738	0,053	0,035
-168,110	-200,000	-0,026	0,170
-167,096	-84,554	0,128	-0,029
-166,081	-46,057	-0,097	0,034
-165,066	-30,489	0,067	0,027
-164,052	-200,000	0,004	-0,014
-163,037	568,290	0,067	0,117
-162,023	277,502	0,101	0,129
-161,008	393,330	-0,005	0,007
-159,993	-94,683	0,040	-0,008
-158,979	-80,583	-0,072	-0,017
-157,964	-200,000	-0,018	0,105
-156,950	409,626	0,050	0,077
-155,935	173,405	-0,040	0,041
-154,920	404,800	-0,008	0,013
-153,906	113,601	0,051	-0,045
-152,891	-119,075	0,124	-0,015
-151,877	800,000	-0,052	-0,105
-150,862	-37,642	-0,068	-0,026
-149,847	-15,340	0,095	-0,043
-148,833	-53,079	-0,007	0,002
-147,818	800,000	-0,013	0,036
-146,804	121,594	0,089	-0,079
-145,789	734,309	-0,055	-0,106
-144,775	46,544	-0,021	0,014
-143,760	-68,919	0,049	-0,014
-142,745	-200,000	0,000	-0,133
-141,731	-56,480	-0,054	-0,017
-140,716	800,000	-0,038	0,098
-139,702	-200,000	-0,001	-0,106
-138,687	-200,000	0,014	0,048
-137,672	102,973	-0,150	-0,126
-136,658	374,833	-0,075	-0,110
-135,643	126,731	-0,140	-0,127
-134,629	-57,089	0,135	0,043
-133,614	-200,000	-0,023	0,089
-132,599	374,608	0,015	-0,022
-131,585	-200,000	0,016	-0,107
-130,570	-116,138	-0,189	-0,025
-129,556	-88,790	0,112	0,024
-128,541	-22,764	-0,137	0,059
-127,526	800,000	-0,016	-0,044
-126,512	-166,074	-0,109	-0,003
-125,497	549,233	0,021	0,037
-124,483	323,229	0,019	-0,026
-123,468	-200,000	0,001	0,060
-122,453	317,826	0,084	0,115
-121,439	80,194	0,133	0,103
-120,424	-200,000	0,019	0,115
-119,410	-6,601	0,067	-0,033
-118,395	800,000	-0,034	-0,089
-117,380	-135,728	0,026	-0,002
-116,366	800,000	0,036	-0,106
-115,351	800,000	-0,016	0,039
-114,337	231,113	0,051	-0,061
-113,322	-75,599	-0,077	-0,019
-112,307	199,155	-0,120	0,132
-111,293	35,427	-0,154	-0,097
-110,278	-80,784	0,070	-0,017
-109,264	-56,327	-0,095	0,030
-108,249	180,077	0,060	-0,063
-107,234	-54,948	-0,159	0,051
-106,220	86,132	0,124	0,098
-105,205	197,772	0,054	0,059
-104,191	-200,000	-0,031	0,101
-103,176	-200,000	0,024	0,086
-102,162	800,000	0,021	0,060
-101,147	642,641	0,042	-0,078
-100,132	480,372	-0,022	0,035
-99,118	-111,961	-0,076	-0,011
-98,103	723,542	0,039	-0,074
-97,089	800,000	-0,035	0,098
-96,074	800,000	0,038	0,117
-95,059	-71,454	0,036	-0,010
-94,045	800,000	0,024	-0,055
-93,030	800,000	-0,072	0,150
-92,016	-128,583	0,098	0,010
-91,001	-191,001	0,119	-0,001
-89,986	5,673	-0,041	-0,022
-88,972	800,000	0,068	0,151
-87,957	71,273	-0,083	-0,061
-86,943	129,761	0,057	-0,053
-85,928	-200,000	-0,020	-0,141
-84,913	-65,004	-0,019	-0,005
-83,899	237,089	0,089	-0,106
-82,884	47,314	0,022	-0,015
-81,870	-13,552	0,116	-0,054
-80,855	800,000	-0,023	0,047
-79,840	253,643	0,026	-0,031
-78,826	88,327	0,043	-0,034
-77,811	667,496	0,034	0,064
-76,797	-124,315	-0,122	0,013
-75,782	-200,000	0,019	-0,189
-74,767	-49,612	0,073	0,025
-73,753	-200,000	0,007	0,054
-72,738	123,078	0,119	0,107
-71,724	-22,982	0,073	0,031
-70,709	40,208	-0,100	-0,064
-69,694	-38,331	0,029	0,011
-68,680	-200,000	0,039	-0,135
-67,665	-9,880	0,020	-0,009
-66,651	61,052	0,100	0,071
-65,636	800,000	-0,022	-0,054
-64,622	262,704	0,058	0,072
-63,607	110,294	-0,126	-0,109
-62,592	-200,000	-0,017	-0,075
-61,578	-200,000	0,041	-0,163
-60,563	800,000	-0,024	-0,050
-59,549	800,000	0,045	0,109
-58,534	52,329	-2,236	-1,526
-57,519	-200,000	-0,004	-0,688
-56,505	-200,000	-1,279	-5,193
-55,490	92,182	0,998	0,805
-54,476	800,000	5,476	12,201
-53,461	-200,000	18,658	317,556
-52,446	800,000	740,867	2319,961
-51,432	549,828	1654,334	2851,627
-50,417	110,015	1637,604	1406,974
-49,403	73,544	1288,112	964,923
-48,388	29,720	1029,437	626,094
-47,373	19,694	992,256	570,347
-46,359	17,109	979,847	554,709
-45,344	13,711	976,031	541,383
-44,330	14,011	974,525	541,510
-43,315	13,410	972,584	538,443
-42,300	13,379	971,481	537,709
-41,286	13,352	970,695	537,166
-40,271	13,352	969,680	536,582
-39,257	13,350	968,902	536,124
-38,242	13,306	968,149	535,544
-37,227	13,300	967,169	534,962
-36,213	13,288	966,354	534,450
-35,198	13,306	965,473	533,999
-34,184	13,319	964,684	533,585
-33,169	13,356	963,605	533,084
-32,154	13,357	962,786	532,616
-31,140	13,339	961,942	532,070
-30,125	13,338	961,182	531,624
-29,111	13,336	960,444	531,188
-28,096	13,365	959,614	530,800
-27,082	13,352	958,908	530,348
-26,067	13,392	958,163	530,044
-25,052	13,358	957,561	529,582
-24,038	13,266	956,831	528,861
-23,023	13,340	956,000	528,616
-22,009	13,377	955,663	528,529
-20,994	13,391	954,895	528,128
-19,979	13,353	954,243	527,624
-18,965	13,290	953,706	527,105
-17,950	13,339	953,034	526,870
-16,936	13,303	952,311	526,333
-15,921	13,312	951,817	526,067
-14,906	13,267	951,054	525,480
-13,892	13,254	950,501	525,115
-12,877	13,255	949,703	524,656
-11,863	13,206	949,144	524,171
-10,848	13,251	948,623	524,004
-9,833	13,321	948,118	523,927
-8,819	13,323	947,374	523,502
-7,804	13,266	946,674	522,913
-6,790	13,256	946,213	522,607
-5,775	13,336	945,562	522,479
-4,760	13,231	945,067	521,851
-3,746	13,268	944,339	521,546
-2,731	13,117	943,721	520,704
-1,717	13,147	943,079	520,427
-0,702	13,084	942,483	519,876
0,313	12,864	941,716	519,541
1,327	16,288	939,552	529,115
2,342	25,520	789,808	469,098
3,356	21,675	444,057	258,033
4,371	-7,652	297,172	143,213
5,386	-11,574	278,985	130,699
6,400	-12,723	273,170	126,891
7,415	-12,793	270,859	125,741
8,429	-12,924	269,426	124,944
9,444	-13,154	268,484	124,284
10,459	-13,051	267,762	124,034
11,473	-13,493	267,399	123,451
12,488	-13,235	266,638	123,323
13,502	-13,369	266,179	122,978
14,517	-13,378	265,850	122,807
15,531	-13,291	265,361	122,649
16,546	-13,198	264,915	122,516
17,561	-13,218	264,492	122,291
18,575	-13,013	264,190	122,326
19,590	-13,153	263,779	121,998
20,604	-13,193	263,715	121,922
21,619	-13,253	263,279	121,655
22,634	-13,100	262,782	121,553
23,648	-13,176	262,472	121,330
24,663	-13,375	262,299	121,061
25,677	-13,215	261,986	121,049
26,692	-13,312	261,853	120,890
27,707	-13,141	261,456	120,849
28,721	-13,269	261,187	120,600
29,736	-13,409	260,970	120,364
30,750	-13,306	260,770	120,353
31,765	-13,432	260,477	120,094
32,780	-13,377	260,208	120,009
33,794	-13,221	260,025	120,052
34,809	-13,328	259,779	119,833
35,823	-13,300	259,491	119,714
36,838	-13,305	259,129	119,532
37,853	-13,429	258,881	119,297
38,867	-13,434	258,787	119,239
39,882	-13,283	258,547	119,251
40,896	-13,318	258,160	119,031
41,911	-13,377	258,042	118,914
42,926	-13,443	257,822	118,744
43,940	-13,369	257,505	118,653
44,955	-13,629	257,304	118,321
45,969	-13,600	257,005	118,199
46,984	-13,542	256,827	118,157
47,999	-13,886	256,469	117,682
49,013	-13,915	256,211	117,527
50,028	-14,013	255,866	117,273
51,042	-14,049	255,677	117,144
52,057	-14,259	255,468	116,856
53,071	-14,238	255,395	116,830
54,086	-14,063	255,100	116,837
55,101	-13,847	254,867	116,907
56,115	-13,739	254,700	116,913
57,130	-13,286	254,637	117,267
58,144	-13,198	254,582	117,307
59,159	-13,187	254,409	117,227
60,174	-13,295	254,095	116,978
61,188	-13,359	253,865	116,806
62,203	-13,380	253,681	116,694
63,217	-13,197	253,459	116,739
64,232	-13,337	253,240	116,507
65,247	-13,336	253,099	116,433
66,261	-13,289	252,830	116,338
67,276	-13,464	252,544	116,047
68,290	-13,577	252,166	115,765
69,305	-13,898	252,151	115,473
70,320	-13,766	251,737	115,386
71,334	-13,425	251,613	115,611
72,349	-13,066	251,474	115,843
73,363	-13,140	251,287	115,684
74,378	-13,248	251,159	115,522
75,393	-13,200	250,863	115,417
76,407	-13,291	250,651	115,232
77,422	-13,243	250,388	115,141
78,436	-13,282	250,282	115,049
79,451	-13,297	250,012	114,902
80,466	-13,383	249,732	114,690
81,480	-13,406	249,472	114,541
82,495	-13,565	249,435	114,379
83,509	-13,512	249,325	114,363
84,524	-13,403	248,884	114,243
85,539	-13,640	248,737	113,965
86,553	-13,863	248,601	113,704
87,568	-13,592	248,371	113,817
88,582	-13,426	248,169	113,855
89,597	-13,441	248,008	113,758
90,611	-13,445	247,851	113,672
91,626	-13,296	247,783	113,757
92,641	-13,230	247,471	113,659
93,655	-13,199	247,262	113,578
94,670	-13,497	247,021	113,207
95,684	-13,421	246,836	113,176
96,699	-13,260	246,715	113,245
97,714	-13,486	246,411	112,907
98,728	-13,536	246,252	112,782
99,743	-13,799	246,131	112,498
100,757	-13,847	245,930	112,355
101,772	-13,521	245,653	112,490
102,787	-13,530	245,442	112,376
103,801	-13,431	245,304	112,385
104,816	-13,405	245,184	112,342
105,830	-13,300	245,037	112,352
106,845	-13,190	244,866	112,355
107,860	-13,323	244,639	112,130
108,874	-13,521	244,409	111,851
109,889	-13,394	244,155	111,829
110,903	-13,351	244,053	111,808
111,918	-13,514	243,865	111,578
112,933	-13,358	243,595	111,573
113,947	-13,473	243,433	111,394
114,962	-13,348	243,311	111,431
115,976	-13,522	243,113	111,188
116,991	-13,399	243,116	111,280
118,006	-13,209	242,656	111,216
119,020	-13,333	242,685	111,117
120,035	-13,373	242,560	111,017
121,049	-13,192	242,365	111,066
122,064	-13,078	242,010	110,987
123,079	-13,457	242,010	110,667
124,093	-13,328	241,695	110,619
125,108	-13,657	241,493	110,247
126,122	-13,769	241,219	110,021
127,137	-13,711	241,092	110,001
128,151	-13,608	240,918	109,995
129,166	-13,627	240,783	109,909
130,181	-13,689	240,594	109,762
131,195	-13,592	240,305	109,700
132,210	-13,418	240,178	109,773
133,224	-13,338	239,926	109,713
134,239	-13,331	239,780	109,642
135,254	-13,169	239,568	109,666
136,268	-13,501	239,414	109,317
137,283	-13,695	239,021	108,972
138,297	-13,898	239,014	108,795
139,312	-13,722	238,769	108,815
140,327	-13,405	238,700	109,030
141,341	-13,138	238,703	109,237
142,356	-12,915	238,618	109,368
143,370	-13,008	238,378	109,173
144,385	-12,938	238,341	109,203
145,400	-13,057	238,163	109,016
146,414	-12,983	237,775	108,888
147,429	-13,103	237,564	108,686
148,443	-12,945	237,566	108,803
149,458	-13,132	237,343	108,542
150,473	-13,231	237,129	108,355
151,487	-13,093	236,865	108,335
152,502	-13,059	236,832	108,338
153,516	-12,865	236,568	108,362
154,531	-13,046	236,334	108,101
155,546	-13,127	236,334	108,027
156,560	-13,073	236,055	107,932
157,575	-13,320	235,916	107,662
158,589	-13,321	235,735	107,570
159,604	-12,997	235,453	107,689
160,619	-12,938	235,508	107,751
161,633	-13,060	235,338	107,567
162,648	-13,007	235,140	107,509
163,662	-12,907	234,975	107,503
164,677	-13,302	234,811	107,106
165,692	-13,336	234,866	107,095
166,706	-12,818	234,450	107,305
167,721	-12,947	234,435	107,186
168,735	-12,887	234,309	107,166
169,750	-13,010	234,131	106,978
170,764	-13,076	233,973	106,844
171,779	-13,009	233,799	106,809
172,794	-12,860	233,621	106,835
173,808	-13,061	233,257	106,501
174,823	-13,620	233,000	105,936
175,837	-13,733	232,926	105,804
176,852	-13,324	232,945	106,124
177,867	-13,030	232,777	106,268
178,881	-13,170	232,652	106,092
179,896	-12,900	232,470	106,211
180,910	-12,911	232,289	106,110
181,925	-12,864	231,995	106,003
182,940	-12,906	231,961	105,945
183,954	-12,871	231,787	105,883
184,969	-12,762	231,646	105,895
185,983	-12,943	231,649	105,746
186,998	-12,628	231,398	105,867
188,013	-12,799	231,271	105,666
189,027	-12,823	231,042	105,533
190,042	-12,880	230,962	105,443
191,056	-12,837	230,757	105,374
192,071	-12,769	230,552	105,324
193,086	-12,827	230,390	105,195
194,100	-12,776	230,159	105,120
195,115	-13,322	229,836	104,541
196,129	-12,924	229,960	104,896
197,144	-7,531	231,658	109,857
198,159	-2,522	233,300	114,542
199,173	1,823	234,607	118,580
200,188	2,674	234,716	119,290
201,202	2,737	234,439	119,188
202,217	2,824	234,305	119,178
203,232	2,919	234,207	119,191
204,246	2,852	234,054	119,050
205,261	2,977	234,051	119,136
206,275	3,112	233,895	119,151
207,290	3,072	233,657	118,988
208,304	3,316	233,417	119,045
209,319	3,176	233,294	118,862
210,334	2,919	233,096	118,552
211,348	2,888	232,918	118,427
212,363	2,341	232,578	117,819
213,377	2,461	232,374	117,798
214,392	2,307	232,338	117,650
215,407	2,342	232,198	117,596
216,421	2,678	231,984	117,737
217,436	2,379	231,774	117,389
218,450	2,144	231,676	117,147
219,465	2,113	231,496	117,022
220,480	2,275	231,297	117,036
221,494	2,132	231,294	116,914
222,509	2,581	230,968	117,083
223,523	2,597	230,973	117,088
224,538	2,374	230,782	116,809
225,553	2,272	230,593	116,625
226,567	2,495	230,561	116,770
227,582	2,629	230,523	116,843
228,596	2,804	230,361	116,884
229,611	2,507	230,179	116,554
230,626	2,214	229,844	116,150
231,640	2,232	229,750	116,106
232,655	2,509	229,534	116,198
233,669	3,005	229,480	116,539
234,684	3,013	229,471	116,530
235,699	2,796	229,211	116,222
236,713	2,576	229,053	115,964
237,728	2,430	228,762	115,695
238,742	2,573	228,457	115,640
239,757	2,340	228,519	115,483
240,772	2,301	228,456	115,412
241,786	2,353	228,225	115,324
242,801	2,529	228,134	115,401
243,815	2,848	228,108	115,620
244,830	3,010	227,899	115,626
245,844	2,413	227,710	115,069
246,859	2,379	227,471	114,912
247,874	2,697	227,402	115,106
248,888	2,864	227,160	115,100
249,903	2,574	227,101	114,841
250,917	2,660	226,910	114,799
251,932	2,486	226,792	114,598
252,947	2,340	226,500	114,331
253,961	2,259	226,408	114,213
254,976	2,052	226,287	113,987
255,990	2,518	226,230	114,297
257,005	2,702	226,035	114,326
258,020	2,639	226,005	114,255
259,034	2,750	225,826	114,236
260,049	2,775	225,633	114,147
261,063	2,544	225,486	113,890
262,078	2,630	225,472	113,937
263,093	2,776	225,398	113,999
264,107	2,719	225,177	113,834
265,122	2,703	225,171	113,809
266,136	3,101	224,911	113,965
267,151	2,866	224,722	113,683
268,166	2,646	224,286	113,289
269,180	2,365	224,185	113,019
270,195	2,254	224,146	112,907
271,209	2,420	223,821	112,856
272,224	2,373	223,863	112,832
273,239	2,689	223,686	112,967
274,253	2,364	223,628	112,687
275,268	2,497	223,236	112,578
276,282	2,299	223,191	112,399
277,297	2,134	222,978	112,160
278,312	2,402	222,940	112,329
279,326	2,529	222,794	112,339
280,341	2,860	222,608	112,479
281,355	2,627	222,567	112,276
282,370	2,589	222,457	112,183
283,384	2,125	222,316	111,760
284,399	2,224	221,959	111,644
285,414	1,873	222,098	111,445
286,428	2,378	221,877	111,696
287,443	2,621	221,721	111,785
288,457	2,693	221,633	111,784
289,472	2,475	221,367	111,480
290,487	2,121	221,057	111,055
291,501	2,029	220,938	110,918
292,516	2,138	220,837	110,937
293,530	2,073	220,832	110,877
294,545	2,012	220,758	110,786
295,560	2,272	220,592	110,883
296,574	2,405	220,388	110,866
297,589	2,367	220,350	110,810
298,603	2,652	220,169	110,917
299,618	2,487	220,129	110,766
300,633	2,418	220,018	110,651
301,647	2,655	219,791	110,699
302,662	2,725	219,607	110,647
303,676	2,665	219,527	110,553
304,691	2,704	219,282	110,448
305,706	2,574	219,304	110,355
306,720	2,899	219,027	110,441
307,735	2,434	218,840	110,001
308,749	2,397	218,706	109,897
309,764	2,419	218,746	109,923
310,779	2,660	218,518	109,973
311,793	2,556	218,338	109,797
312,808	2,598	218,156	109,726
313,822	2,461	218,008	109,543
314,837	2,397	217,857	109,412
315,852	2,258	217,739	109,243
316,866	2,336	217,798	109,319
317,881	3,007	217,490	109,636
318,895	2,611	217,589	109,392
319,910	2,228	217,182	108,903
320,925	1,824	217,023	108,524
321,939	1,663	216,739	108,257
322,954	1,900	216,686	108,390
323,968	2,322	216,751	108,715
324,983	2,704	216,662	108,934
325,997	2,654	216,481	108,797
327,012	2,501	216,468	108,672
328,027	2,437	216,269	108,517
329,041	2,658	216,250	108,655
330,056	2,748	216,068	108,618
331,070	2,507	215,663	108,234
332,085	2,320	215,526	108,022
333,100	2,439	215,401	108,034
334,114	2,488	215,322	108,020
335,129	2,415	215,182	107,888
336,143	2,258	215,163	107,758
337,158	2,426	214,803	107,687
338,173	2,268	214,638	107,483
339,187	2,010	214,559	107,251
340,202	2,127	214,376	107,233
341,216	2,607	214,508	107,629
342,231	2,844	214,158	107,610
343,246	2,490	214,041	107,293
344,260	2,437	213,927	107,188
345,275	2,547	213,925	107,256
346,289	2,618	213,845	107,256
347,304	2,656	213,555	107,127
348,319	2,519	213,399	106,943
349,333	2,514	213,279	106,870
350,348	2,610	213,128	106,852
351,362	2,871	213,003	106,963
352,377	2,685	213,032	106,838
353,392	2,538	212,800	106,609
354,406	2,496	212,563	106,451
355,421	197,384	1314,236	1393,335
356,435	157,908	1448,400	1393,274
