DTS Sentinel unit serial number:	SN410029Multiplexer serial number:	ORYXHardware model number:	OX2-SRSoftware version number:	ORYX F/W v4,00 Oryx Data Collector v3.7.2.0data status	okinstallation	B6 Nyhavnadifferential loss correction	single-endedforward channel	channel 2reverse channel	N/Adate	2023/12/09time	11:40:08forward acquisition time	300,00reverse acquisition time	0,00gamma	499,1914k internal	0,3139k external	0,3139temperature offset calibration	1,0000default loss term (dB/km)	0,3820temperature slope calibration	1,0000multiplexer offset coefficient	1,0000multiplexer slope coefficient	1,0000fibre end	0,00T internal ref (°C)	18,92T ext. ref 1 (°C)	2,94T ext. ref 2 (°C)	2,93length (m)	temperature (°C)	Stokes	anti-Stokes-744,400	-1,123	0,200	-0,104
-743,385	-177,020	-0,215	-0,004
-742,371	-60,261	0,157	-0,049
-741,356	13,651	-0,189	0,108
-740,342	30,409	0,055	0,035
-739,327	-71,394	-0,214	0,059
-738,312	-51,094	0,110	0,038
-737,298	-93,412	-0,227	-0,046
-736,283	188,728	0,095	0,106
-735,269	122,622	-0,178	0,165
-734,254	-200,000	0,000	0,076
-733,239	-52,176	-0,479	-0,164
-732,225	780,838	0,128	0,261
-731,210	-200,000	0,005	0,047
-730,196	87,772	0,018	-0,015
-729,181	-50,653	-0,164	0,057
-728,167	-200,000	-0,004	0,032
-727,152	-7,820	0,082	-0,041
-726,137	-95,903	-0,123	0,024
-725,123	-51,703	-0,173	-0,060
-724,108	-200,000	0,001	-0,021
-723,094	-47,631	-0,083	0,030
-722,079	-121,539	-0,270	0,033
-721,064	-68,299	0,033	0,009
-720,050	73,477	-0,106	0,082
-719,035	-120,135	-0,069	0,009
-718,021	-132,713	-0,025	-0,002
-717,006	276,552	-0,059	0,077
-715,991	450,957	-0,016	-0,027
-714,977	-160,242	0,067	-0,003
-713,962	-200,000	-0,044	-0,157
-712,948	800,000	0,034	-0,075
-711,933	10,461	-0,012	-0,007
-710,918	-200,000	0,003	0,027
-709,904	-158,917	-0,064	-0,003
-708,889	-149,713	0,066	-0,004
-707,875	-158,712	-0,131	-0,005
-706,860	800,000	0,012	-0,033
-705,845	56,846	0,046	-0,033
-704,831	171,748	0,066	-0,071
-703,816	105,501	-0,078	0,069
-702,802	-198,107	-0,084	-0,000
-701,787	-200,000	-0,036	-0,221
-700,772	43,987	-0,025	0,017
-699,758	-200,000	-0,003	-0,048
-698,743	-200,000	0,004	-0,133
-697,729	-116,240	-0,133	-0,018
-696,714	188,733	0,048	0,053
-695,699	-200,000	0,005	0,089
-694,685	-72,778	-0,036	-0,010
-693,670	-144,727	-0,133	0,009
-692,656	182,845	-0,106	0,115
-691,641	-76,114	0,209	-0,054
-690,627	800,000	0,020	-0,047
-689,612	-200,000	0,005	0,046
-688,597	-200,000	-0,013	0,123
-687,583	-126,581	-0,037	-0,004
-686,568	-200,000	0,018	0,130
-685,554	800,000	-0,019	-0,058
-684,539	-200,000	0,001	0,022
-683,524	62,176	0,037	-0,027
-682,510	128,810	-0,030	0,028
-681,495	-105,883	-0,062	-0,010
-680,481	-200,000	0,005	-0,138
-679,466	-200,000	0,008	-0,184
-678,451	800,000	-0,046	-0,115
-677,437	285,329	-0,068	-0,090
-676,422	108,969	-0,032	0,029
-675,408	-200,000	-0,010	0,075
-674,393	-200,000	-0,008	0,077
-673,378	773,797	-0,055	-0,111
-672,364	227,656	0,015	0,018
-671,349	-66,538	0,045	-0,013
-670,335	800,000	0,052	0,118
-669,320	19,044	0,176	-0,104
-668,305	150,904	0,145	0,146
-667,291	100,297	0,043	-0,036
-666,276	371,401	0,016	0,025
-665,262	289,711	0,106	-0,142
-664,247	-200,000	-0,010	-0,089
-663,232	752,879	-0,027	0,053
-662,218	800,000	0,031	0,077
-661,203	149,185	-0,123	0,123
-660,189	512,547	0,080	-0,138
-659,174	-200,000	-0,002	-0,096
-658,159	-2,424	-0,137	-0,071
-657,145	17,588	-0,073	0,043
-656,130	188,243	0,081	0,089
-655,116	-163,273	-0,089	-0,003
-654,101	-166,955	-0,081	-0,002
-653,086	548,219	-0,019	0,034
-652,072	-106,762	-0,087	-0,014
-651,057	34,968	0,055	-0,036
-650,043	-200,000	0,011	-0,119
-649,028	137,575	0,067	-0,065
-648,014	-200,000	0,010	-0,072
-646,999	40,844	0,121	-0,081
-645,984	278,104	0,007	-0,009
-644,970	-96,126	-0,018	-0,004
-643,955	-200,000	0,003	0,054
-642,941	-139,179	-0,162	-0,013
-641,926	-128,080	0,092	-0,010
-640,911	161,571	-0,076	0,078
-639,897	-59,023	0,207	0,066
-638,882	39,443	0,095	-0,063
-637,868	-200,000	0,004	-0,170
-636,853	800,000	-0,068	-0,206
-635,838	-160,357	-0,045	-0,002
-634,824	-16,696	0,064	0,030
-633,809	187,973	0,039	0,043
-632,795	-108,590	-0,133	0,021
-631,780	131,427	-0,060	-0,057
-630,765	-200,000	-0,035	0,000
-629,751	-35,186	0,023	-0,009
-628,736	-200,000	0,011	0,072
-627,722	-170,863	-0,045	-0,001
-626,707	800,000	0,019	-0,060
-625,692	-158,774	0,163	0,007
-624,678	83,044	0,012	-0,010
-623,663	140,442	0,038	0,037
-622,649	231,548	-0,042	-0,051
-621,634	35,755	-0,084	0,054
-620,619	-86,310	0,118	0,027
-619,605	-200,000	0,013	-0,043
-618,590	-200,000	0,020	0,079
-617,576	14,248	0,114	0,066
-616,561	158,947	-0,074	0,076
-615,546	73,706	-0,109	-0,084
-614,532	-200,000	-0,026	-0,217
-613,517	530,281	0,042	0,074
-612,503	-200,000	-0,010	-0,093
-611,488	442,931	-0,047	0,077
-610,474	-72,583	0,024	0,007
-609,459	-200,000	0,029	-0,125
-608,444	-200,000	-0,001	0,072
-607,430	244,298	-0,079	0,098
-606,415	-61,751	-0,075	-0,023
-605,401	-200,000	-0,024	-0,155
-604,386	800,000	0,043	0,132
-603,371	-35,713	-0,130	-0,052
-602,357	720,213	-0,069	-0,137
-601,342	-44,173	-0,075	-0,028
-600,328	39,381	0,031	-0,021
-599,313	45,480	-0,054	0,037
-598,298	-62,436	-0,029	-0,009
-597,284	-10,507	0,073	-0,036
-596,269	-168,097	-0,075	-0,002
-595,255	-165,522	0,032	-0,001
-594,240	-10,853	-0,082	-0,040
-593,225	99,918	-0,039	-0,034
-592,211	800,000	-0,007	0,018
-591,196	69,837	-0,029	-0,022
-590,182	-113,331	-0,061	-0,009
-589,167	137,039	0,067	-0,064
-588,152	244,842	-0,034	-0,043
-587,138	-200,000	-0,016	-0,083
-586,123	312,790	-0,046	-0,064
-585,109	69,047	0,048	0,037
-584,094	150,315	-0,118	-0,118
-583,079	-152,640	0,127	0,007
-582,065	-200,000	0,014	-0,074
-581,050	200,813	-0,096	-0,109
-580,036	707,142	-0,003	-0,006
-579,021	-200,000	0,001	-0,011
-578,006	-200,000	-0,032	-0,121
-576,992	3,816	0,151	0,081
-575,977	77,309	-0,062	0,049
-574,963	196,397	-0,113	0,127
-573,948	-200,000	-0,005	-0,047
-572,934	6,872	0,019	-0,011
-571,919	-5,876	-0,033	0,017
-570,904	800,000	-0,028	-0,061
-569,890	-119,599	-0,166	-0,021
-568,875	97,622	-0,108	0,091
-567,861	37,224	0,127	0,082
-566,846	394,014	0,061	0,093
-565,831	-101,687	-0,077	-0,014
-564,817	41,286	-0,087	-0,058
-563,802	236,086	0,113	-0,138
-562,788	-200,000	-0,002	-0,076
-561,773	171,920	0,046	-0,048
-560,758	-95,153	0,090	-0,018
-559,744	174,933	0,050	0,053
-558,729	696,289	-0,074	-0,144
-557,715	800,000	-0,005	-0,012
-556,700	-200,000	0,006	-0,029
-555,685	-200,000	0,006	-0,134
-554,671	60,759	0,085	-0,062
-553,656	-40,064	0,140	0,053
-552,642	258,953	-0,007	-0,009
-551,627	-193,104	-0,143	0,001
-550,612	-126,785	-0,044	-0,005
-549,598	80,062	-0,032	-0,026
-548,583	242,124	-0,087	-0,107
-547,569	418,291	-0,012	-0,018
-546,554	-200,000	0,031	-0,167
-545,539	-114,722	0,139	-0,019
-544,525	-200,000	0,017	0,115
-543,510	112,098	-0,076	-0,067
-542,496	159,036	0,019	0,019
-541,481	-82,686	-0,050	-0,012
-540,466	800,000	-0,026	-0,072
-539,452	-90,192	-0,130	-0,028
-538,437	174,125	-0,040	-0,043
-537,423	800,000	0,047	0,107
-536,408	-163,811	0,085	0,003
-535,393	-67,675	-0,212	-0,061
-534,379	-119,517	0,014	0,002
-533,364	208,504	0,040	0,046
-532,350	-200,000	0,018	-0,097
-531,335	53,092	-0,030	-0,021
-530,321	417,280	0,020	0,032
-529,306	800,000	0,053	-0,116
-528,291	179,728	0,049	-0,053
-527,277	800,000	0,014	0,034
-526,262	-167,635	-0,044	0,001
-525,248	39,655	-0,070	0,046
-524,233	-200,000	0,016	0,084
-523,218	75,335	0,135	0,105
-522,204	-200,000	0,000	0,056
-521,189	-19,413	-0,130	-0,059
-520,175	800,000	-0,012	-0,028
-519,160	-94,688	-0,033	0,007
-518,145	-54,501	0,068	0,023
-517,131	-200,000	0,058	-0,189
-516,116	-200,000	0,016	0,090
-515,102	-80,100	-0,052	0,013
-514,087	253,190	0,076	0,095
-513,072	800,000	0,051	-0,113
-512,058	-129,275	-0,095	0,010
-511,043	-176,894	0,081	-0,001
-510,029	59,355	0,072	-0,052
-509,014	5,398	0,143	0,077
-507,999	-20,267	-0,055	0,025
-506,985	535,973	0,038	0,066
-505,970	-2,382	-0,049	0,025
-504,956	-127,731	-0,095	0,010
-503,941	510,006	0,029	0,050
-502,926	774,896	-0,079	0,159
-501,912	-200,000	-0,004	-0,059
-500,897	-36,140	0,104	-0,041
-499,883	152,405	0,080	-0,080
-498,868	197,760	-0,095	-0,106
-497,853	89,338	0,034	-0,028
-496,839	-75,824	0,037	-0,010
-495,824	31,665	-0,017	0,011
-494,810	398,321	0,075	0,116
-493,795	499,509	0,020	0,033
-492,781	-200,000	0,012	-0,063
-491,766	296,769	0,074	-0,101
-490,751	-8,126	-0,171	-0,084
-489,737	-112,411	-0,037	-0,005
-488,722	-30,769	-0,053	-0,022
-487,708	-45,328	-0,025	-0,009
-486,693	-68,473	0,088	-0,025
-485,678	-108,767	0,138	-0,021
-484,664	-48,762	-0,140	-0,049
-483,649	456,231	-0,012	-0,020
-482,635	800,000	-0,015	-0,046
-481,620	-137,034	0,099	0,008
-480,605	781,808	0,053	0,106
-479,591	449,584	-0,031	0,050
-478,576	-200,000	0,001	0,045
-477,562	-100,835	-0,134	-0,024
-476,547	-24,261	0,029	-0,013
-475,532	-200,000	0,018	0,069
-474,518	0,076	0,112	0,059
-473,503	208,700	0,015	-0,017
-472,489	-200,000	0,008	0,121
-471,474	116,093	-0,016	-0,014
-470,459	96,992	0,103	-0,086
-469,445	147,151	-0,058	0,058
-468,430	-98,197	-0,046	0,009
-467,416	45,415	-0,051	-0,035
-466,401	100,288	0,055	0,047
-465,386	-31,640	0,059	-0,024
-464,372	-37,901	-0,078	0,030
-463,357	202,589	0,032	0,037
-462,343	-78,608	-0,076	-0,019
-461,328	3,606	0,024	-0,013
-460,313	663,284	0,021	-0,040
-459,299	-50,633	0,075	-0,026
-458,284	111,693	0,103	0,092
-457,270	3,584	0,021	0,011
-456,255	520,964	0,082	0,141
-455,241	800,000	-0,073	0,172
-454,226	-124,267	0,103	0,012
-453,211	800,000	-0,056	0,174
-452,197	-132,119	-0,050	0,005
-451,182	698,674	0,062	0,121
-450,168	-42,362	0,025	0,009
-449,153	-200,000	-0,001	0,046
-448,138	84,531	0,058	-0,046
-447,124	280,375	-0,024	-0,032
-446,109	-200,000	0,003	0,082
-445,095	249,943	0,111	0,138
-444,080	5,272	0,033	-0,018
-443,065	-97,335	-0,061	0,012
-442,051	-200,000	0,008	-0,227
-441,036	297,538	0,046	-0,062
-440,022	-200,000	0,001	-0,076
-439,007	-56,190	-0,064	-0,021
-437,992	258,958	0,036	0,046
-436,978	-200,000	0,002	0,021
-435,963	186,477	0,063	0,069
-434,949	-74,481	-0,097	-0,025
-433,934	800,000	-0,013	0,037
-432,919	189,309	0,031	-0,034
-431,905	454,027	-0,043	-0,071
-430,890	-200,000	-0,023	0,112
-429,876	-200,000	-0,024	-0,086
-428,861	-123,483	-0,110	0,013
-427,846	-48,051	0,119	-0,042
-426,832	-46,018	-0,118	-0,042
-425,817	-200,000	0,016	-0,057
-424,803	99,776	0,065	0,055
-423,788	347,963	-0,033	0,048
-422,773	111,893	-0,022	-0,019
-421,759	-80,448	0,073	-0,018
-420,744	-200,000	-0,001	0,003
-419,730	800,000	0,030	-0,095
-418,715	-200,000	-0,016	-0,119
-417,701	279,184	-0,074	-0,096
-416,686	-200,000	0,019	-0,085
-415,671	800,000	0,025	0,073
-414,657	-92,996	0,135	-0,027
-413,642	-200,000	-0,029	-0,113
-412,628	-81,983	0,023	0,005
-411,613	52,263	-0,060	0,042
-410,598	78,046	0,061	0,047
-409,584	135,818	0,030	-0,029
-408,569	-10,250	0,037	-0,018
-407,555	135,735	-0,002	-0,002
-406,540	-200,000	-0,002	0,050
-405,525	-126,214	-0,118	-0,013
-404,511	-200,000	0,010	-0,038
-403,496	-4,860	-0,115	-0,058
-402,482	-200,000	0,029	0,105
-401,467	-133,100	0,112	-0,010
-400,452	68,934	-0,061	0,046
-399,438	-133,563	0,165	0,015
-398,423	-62,381	-0,074	-0,022
-397,409	-200,000	0,015	-0,082
-396,394	-200,000	0,001	0,032
-395,379	-59,712	-0,142	0,044
-394,365	285,259	-0,003	0,005
-393,350	98,786	0,116	0,098
-392,336	800,000	-0,022	0,046
-391,321	127,708	-0,076	-0,071
-390,306	800,000	-0,016	0,043
-389,292	592,632	-0,028	0,051
-388,277	-44,750	0,188	-0,068
-387,263	85,637	0,023	-0,019
-386,248	800,000	0,024	-0,054
-385,233	16,532	-0,081	0,047
-384,219	-200,000	0,026	0,131
-383,204	259,540	-0,076	0,096
-382,190	160,985	-0,016	0,017
-381,175	-137,957	-0,025	0,002
-380,160	104,105	-0,051	0,044
-379,146	-147,603	0,058	-0,004
-378,131	591,878	0,042	0,077
-377,117	-109,520	-0,204	0,031
-376,102	-145,299	0,079	0,005
-375,088	735,967	0,016	0,031
-374,073	163,721	0,101	-0,104
-373,058	-200,000	0,016	-0,092
-372,044	-30,597	-0,055	0,023
-371,029	350,284	0,025	-0,036
-370,015	124,860	0,062	0,058
-369,000	3,399	0,031	-0,016
-367,985	-200,000	0,003	-0,048
-366,971	-125,978	-0,143	-0,016
-365,956	408,173	0,080	-0,123
-364,942	-6,463	0,083	0,041
-363,927	-26,163	-0,042	0,018
-362,912	23,820	-0,084	-0,050
-361,898	800,000	-0,001	0,004
-360,883	103,766	-0,049	-0,042
-359,869	429,485	0,026	0,041
-358,854	119,438	0,064	-0,058
-357,839	89,188	0,042	0,034
-356,825	742,948	0,027	0,054
-355,810	-56,398	-0,046	0,015
-354,796	-200,000	-0,008	-0,082
-353,781	-190,464	-0,116	-0,001
-352,766	216,401	0,043	0,050
-351,752	572,239	-0,070	-0,125
-350,737	-200,000	0,009	0,139
-349,723	96,872	-0,064	0,053
-348,708	-200,000	0,019	0,215
-347,693	12,486	-0,076	-0,042
-346,679	-200,000	-0,000	-0,016
-345,664	282,509	-0,034	0,044
-344,650	107,378	0,090	0,078
-343,635	112,478	0,069	-0,061
-342,620	141,273	0,106	-0,103
-341,606	-36,345	-0,166	0,065
-340,591	393,514	-0,024	-0,037
-339,577	46,020	0,013	0,009
-338,562	-20,858	-0,056	-0,025
-337,548	129,051	0,024	-0,023
-336,533	412,868	0,066	0,103
-335,518	193,292	0,076	0,084
-334,504	71,133	0,050	0,038
-333,489	-200,000	-0,025	0,085
-332,475	-200,000	0,005	-0,022
-331,460	800,000	-0,016	-0,043
-330,445	397,651	0,057	-0,087
-329,431	-52,868	0,054	-0,018
-328,416	-200,000	-0,017	0,083
-327,402	397,269	0,043	-0,065
-326,387	-119,997	0,076	-0,009
-325,372	-200,000	-0,007	-0,073
-324,358	-85,374	-0,042	-0,010
-323,343	800,000	-0,044	-0,118
-322,329	-56,348	0,094	0,030
-321,314	268,135	-0,009	-0,012
-320,299	-108,720	0,135	0,021
-319,285	-200,000	-0,007	0,065
-318,270	-200,000	-0,026	-0,120
-317,256	-58,429	-0,116	-0,037
-316,241	-200,000	0,004	-0,220
-315,226	236,629	-0,045	0,055
-314,212	160,477	0,041	0,041
-313,197	399,933	-0,030	0,045
-312,183	29,380	-0,105	0,065
-311,168	-200,000	0,004	0,166
-310,153	52,890	0,096	0,067
-309,139	-200,000	0,001	-0,035
-308,124	52,875	-0,047	0,033
-307,110	800,000	-0,010	0,033
-306,095	188,876	0,116	0,127
-305,080	269,391	-0,063	0,081
-304,066	800,000	0,028	0,082
-303,051	119,984	0,053	-0,048
-302,037	-37,566	0,017	-0,007
-301,022	-200,000	0,008	-0,078
-300,008	-45,476	0,183	0,066
-298,993	-200,000	0,013	0,054
-297,978	-200,000	0,008	0,082
-296,964	800,000	-0,046	-0,099
-295,949	-58,707	-0,110	-0,034
-294,935	800,000	0,014	0,030
-293,920	167,732	0,011	0,012
-292,905	-126,248	0,129	0,014
-291,891	-79,780	0,089	0,022
-290,876	-200,000	0,001	-0,057
-289,862	-200,000	0,004	-0,084
-288,847	-200,000	0,013	0,049
-287,832	-200,000	-0,003	0,080
-286,818	271,791	-0,055	-0,070
-285,803	48,617	-0,042	0,029
-284,789	-75,870	-0,029	0,007
-283,774	-173,077	0,111	-0,002
-282,759	58,558	0,021	-0,015
-281,745	-200,000	-0,013	-0,117
-280,730	-50,452	-0,113	-0,039
-279,716	786,599	-0,038	0,076
-278,701	-42,079	-0,055	-0,021
-277,686	797,891	-0,011	-0,022
-276,672	800,000	-0,040	-0,096
-275,657	-200,000	-0,012	0,052
-274,643	79,272	0,034	0,027
-273,628	697,886	-0,046	-0,089
-272,613	800,000	0,017	0,040
-271,599	282,353	0,067	0,088
-270,584	176,308	0,077	0,082
-269,570	456,120	0,004	-0,007
-268,555	-14,002	0,066	-0,031
-267,540	671,168	0,022	-0,042
-266,526	96,665	0,164	-0,137
-265,511	194,048	0,008	-0,009
-264,497	-200,000	0,017	0,092
-263,482	330,939	0,059	0,083
-262,467	-60,087	-0,084	-0,026
-261,453	124,172	-0,106	0,097
-260,438	-70,763	-0,092	0,025
-259,424	-4,070	-0,077	-0,039
-258,409	-200,000	-0,025	0,079
-257,395	800,000	0,032	0,068
-256,380	-35,892	-0,106	0,041
-255,365	1,810	0,067	-0,035
-254,351	337,791	-0,015	-0,021
-253,336	54,742	-0,061	-0,043
-252,322	778,111	0,078	0,156
-251,307	170,949	0,064	0,067
-250,292	248,473	-0,040	0,050
-249,278	-94,835	-0,156	0,030
-248,263	140,309	0,025	-0,024
-247,249	208,065	-0,153	-0,174
-246,234	800,000	-0,015	0,036
-245,219	6,239	-0,015	0,008
-244,205	588,705	-0,045	-0,081
-243,190	-148,543	-0,047	0,003
-242,176	280,475	0,126	-0,165
-241,161	226,188	0,097	0,115
-240,146	-126,502	0,107	0,011
-239,132	365,960	0,012	0,018
-238,117	-89,080	0,152	0,032
-237,103	145,885	0,053	0,052
-236,088	131,185	-0,103	-0,096
-235,073	-83,087	-0,151	0,035
-234,059	800,000	0,018	0,037
-233,044	473,019	0,053	0,088
-232,030	-62,293	0,071	0,021
-231,015	708,605	-0,053	-0,102
-230,000	-200,000	0,004	-0,012
-228,986	800,000	0,014	-0,038
-227,971	82,095	0,056	0,044
-226,957	-200,000	0,031	0,120
-225,942	-200,000	-0,016	0,123
-224,927	-200,000	-0,011	0,130
-223,913	165,637	-0,043	0,044
-222,898	-200,000	0,007	-0,056
-221,884	-200,000	-0,005	-0,093
-220,869	-200,000	-0,018	-0,082
-219,855	-50,994	-0,024	0,008
-218,840	-44,921	0,050	0,018
-217,825	800,000	0,043	0,100
-216,811	-118,205	-0,087	-0,011
-215,796	759,651	-0,086	-0,169
-214,782	-95,001	0,134	0,026
-213,767	800,000	0,054	-0,114
-212,752	-30,568	0,062	-0,025
-211,738	687,153	-0,057	-0,109
-210,723	800,000	-0,049	0,108
-209,709	227,410	-0,089	0,105
-208,694	-4,291	-0,046	-0,023
-207,679	800,000	0,063	-0,146
-206,665	94,112	0,043	-0,036
-205,650	320,637	-0,095	0,131
-204,636	191,692	-0,094	0,103
-203,621	-106,108	0,086	-0,014
-202,606	-91,526	-0,053	0,011
-201,592	105,903	0,077	-0,066
-200,577	-48,172	-0,059	0,021
-199,563	175,934	-0,030	0,032
-198,548	-109,186	-0,100	-0,015
-197,533	-135,342	0,046	-0,004
-196,519	130,572	0,098	0,092
-195,504	468,262	-0,021	-0,034
-194,490	35,981	-0,044	0,028
-193,475	-200,000	0,028	0,111
-192,460	-200,000	-0,010	0,112
-191,446	-200,000	-0,007	0,029
-190,431	-118,120	0,054	0,007
-189,417	200,683	-0,028	-0,031
-188,402	-76,369	-0,096	0,024
-187,387	-200,000	0,015	0,068
-186,373	-97,246	0,090	-0,017
-185,358	-41,483	-0,171	-0,063
-184,344	170,148	0,069	0,072
-183,329	-171,330	0,110	-0,003
-182,315	-200,000	0,012	0,126
-181,300	250,253	-0,069	0,086
-180,285	-15,996	-0,076	0,035
-179,271	738,250	0,005	-0,010
-178,256	800,000	-0,024	-0,070
-177,242	-200,000	0,018	0,181
-176,227	-200,000	-0,006	-0,046
-175,212	179,188	-0,059	-0,063
-174,198	549,868	-0,034	0,059
-173,183	-200,000	-0,001	-0,165
-172,169	722,791	0,042	-0,082
-171,154	454,723	0,050	-0,080
-170,139	-66,415	0,081	-0,023
-169,125	-200,000	0,001	0,076
-168,110	529,546	0,064	0,109
-167,096	-200,000	-0,013	0,099
-166,081	-200,000	0,005	-0,039
-165,066	-58,004	-0,094	0,030
-164,052	279,394	0,074	-0,096
-163,037	70,205	-0,079	0,059
-162,023	480,650	0,122	0,201
-161,008	800,000	0,014	0,040
-159,993	593,374	-0,039	-0,070
-158,979	-83,085	-0,015	0,004
-157,964	-51,990	0,064	0,021
-156,950	-200,000	0,008	-0,033
-155,935	97,782	-0,047	-0,039
-154,920	101,959	-0,093	0,079
-153,906	611,775	-0,068	0,124
-152,891	154,267	-0,133	-0,132
-151,877	625,764	0,072	-0,131
-150,862	800,000	-0,072	-0,170
-149,847	-200,000	-0,017	-0,153
-148,833	414,510	-0,046	-0,071
-147,818	-200,000	0,049	0,217
-146,804	800,000	-0,047	0,121
-145,789	136,183	0,057	0,054
-144,775	347,301	0,063	-0,090
-143,760	-2,181	-0,196	-0,099
-142,745	117,307	0,065	0,058
-141,731	581,328	0,035	-0,063
-140,716	156,305	0,045	0,045
-139,702	49,731	0,057	-0,039
-138,687	-155,659	-0,088	-0,004
-137,672	443,852	0,042	-0,067
-136,658	800,000	0,025	-0,059
-135,643	800,000	0,007	-0,020
-134,629	22,259	0,162	-0,095
-133,614	-200,000	-0,010	0,068
-132,599	-47,742	0,156	0,055
-131,585	-200,000	0,050	0,193
-130,570	-123,004	0,085	0,010
-129,556	13,153	0,055	0,031
-128,541	-200,000	-0,006	-0,033
-127,526	538,550	-0,053	-0,091
-126,512	2,401	0,024	-0,013
-125,497	74,678	-0,093	0,071
-124,483	-19,863	0,080	0,036
-123,468	38,839	0,110	-0,071
-122,453	-200,000	0,016	-0,157
-121,439	-33,715	-0,104	-0,041
-120,424	-172,737	-0,060	-0,001
-119,410	-200,000	-0,029	0,131
-118,395	-200,000	-0,009	-0,066
-117,380	-66,484	0,101	0,029
-116,366	130,929	0,041	0,038
-115,351	-200,000	0,012	0,054
-114,337	-55,068	-0,051	-0,017
-113,322	800,000	-0,055	0,165
-112,307	-185,140	-0,130	-0,001
-111,293	28,080	0,163	0,099
-110,278	-16,716	-0,050	0,023
-109,264	-171,784	0,044	-0,001
-108,249	-66,775	0,149	-0,042
-107,234	693,227	-0,020	-0,038
-106,220	37,890	0,057	-0,036
-105,205	490,371	0,051	-0,085
-104,191	235,299	0,057	-0,068
-103,176	-200,000	0,004	0,021
-102,162	47,761	-0,052	0,035
-101,147	-200,000	0,009	-0,066
-100,132	-103,986	0,040	0,007
-99,118	-200,000	0,070	-0,261
-98,103	800,000	-0,048	0,101
-97,089	800,000	0,026	0,063
-96,074	-200,000	-0,030	0,126
-95,059	154,585	-0,051	0,050
-94,045	371,412	-0,084	0,124
-93,030	39,438	-0,080	-0,052
-92,016	680,388	-0,022	0,041
-91,001	19,623	0,052	-0,030
-89,986	8,972	0,105	0,057
-88,972	-200,000	-0,019	0,121
-87,957	39,700	0,131	0,085
-86,943	-200,000	0,008	-0,086
-85,928	-118,958	0,027	-0,003
-84,913	26,046	-0,086	-0,052
-83,899	-157,842	-0,052	-0,002
-82,884	-36,988	0,151	0,058
-81,870	-200,000	0,000	0,068
-80,855	-200,000	-0,009	0,187
-79,840	-95,279	-0,062	-0,012
-78,826	446,709	-0,040	0,064
-77,811	531,473	0,014	-0,023
-76,797	799,185	0,011	0,022
-75,782	727,118	-0,064	-0,123
-74,767	-200,000	-0,065	0,000
-73,753	108,828	0,060	0,052
-72,738	-21,338	0,108	0,048
-71,724	-89,424	-0,188	0,040
-70,709	5,150	-0,088	0,046
-69,694	316,740	-0,026	0,035
-68,680	81,894	0,052	0,041
-67,665	225,833	-0,089	-0,104
-66,651	-200,000	0,000	0,027
-65,636	-53,642	-0,153	-0,050
-64,622	-200,000	-0,018	0,075
-63,607	-200,000	0,014	-0,126
-62,592	-165,833	0,030	0,001
-61,578	-53,089	0,113	-0,037
-60,563	-28,586	-0,088	0,037
-59,549	459,540	-0,072	0,116
-58,534	-23,792	-1,630	-0,702
-57,519	800,000	-0,417	-1,160
-56,505	-200,000	-1,099	-4,711
-55,490	-134,487	0,551	-0,048
-54,476	800,000	5,258	12,207
-53,461	-200,000	15,520	273,288
-52,446	800,000	700,883	2231,002
-51,432	559,296	1617,994	2830,735
-50,417	120,356	1624,153	1455,562
-49,403	80,102	1283,646	995,523
-48,388	36,745	1026,818	653,458
-47,373	21,776	988,630	579,739
-46,359	20,811	977,323	569,912
-45,344	19,233	973,050	562,219
-44,330	19,212	972,125	561,594
-43,315	19,025	970,207	559,853
-42,300	18,950	969,327	559,078
-41,286	18,860	968,505	558,285
-40,271	18,990	967,187	557,930
-39,257	18,973	966,598	557,511
-38,242	18,964	965,733	556,961
-37,227	19,005	964,746	556,503
-36,213	18,954	964,258	556,034
-35,198	18,926	963,276	555,356
-34,184	18,932	962,500	554,904
-33,169	18,930	961,335	554,206
-32,154	18,927	960,638	553,770
-31,140	18,956	959,781	553,350
-30,125	19,047	958,889	553,107
-29,111	18,962	958,262	552,448
-28,096	18,939	957,688	552,023
-27,082	18,951	956,749	551,497
-26,067	18,960	956,004	551,074
-25,052	19,024	955,209	550,803
-24,038	18,977	954,541	550,242
-23,023	18,939	953,949	549,756
-22,009	18,986	953,160	549,432
-20,994	18,953	952,674	549,024
-19,979	19,014	951,882	548,741
-18,965	18,930	951,574	548,271
-17,950	18,947	950,786	547,850
-16,936	18,878	950,118	547,224
-15,921	18,851	949,443	546,727
-14,906	18,817	948,832	546,243
-13,892	18,872	948,077	545,964
-12,877	18,805	947,488	545,388
-11,863	18,797	946,893	545,001
-10,848	18,777	946,354	544,603
-9,833	18,887	945,906	544,675
-8,819	18,944	945,228	544,446
-7,804	18,858	944,726	543,861
-6,790	18,793	944,058	543,246
-5,775	18,808	943,615	543,018
-4,760	18,827	942,854	542,619
-3,746	18,835	942,211	542,251
-2,731	18,706	941,370	541,337
-1,717	18,657	940,865	540,869
-0,702	18,653	940,104	540,401
0,313	18,457	939,407	540,193
1,327	21,440	937,805	548,653
2,342	30,351	795,775	489,266
3,356	27,653	448,998	271,990
4,371	-1,679	294,680	149,192
5,386	-5,559	275,951	136,022
6,400	-6,878	270,263	131,981
7,415	-7,274	267,870	130,437
8,429	-7,333	266,535	129,720
9,444	-7,449	265,763	129,227
10,459	-7,242	265,189	129,126
11,473	-7,547	264,432	128,468
12,488	-7,521	264,083	128,310
13,502	-7,653	263,532	127,912
14,517	-7,623	263,039	127,689
15,531	-7,722	262,650	127,399
16,546	-7,573	262,097	127,254
17,561	-7,764	261,863	126,957
18,575	-7,653	261,554	126,896
19,590	-7,965	261,265	126,464
20,604	-7,627	260,930	126,593
21,619	-7,803	260,613	126,270
22,634	-7,661	260,105	126,140
23,648	-7,861	259,825	125,815
24,663	-7,709	259,613	125,836
25,677	-7,877	259,400	125,572
26,692	-7,534	259,122	125,732
27,707	-7,647	258,813	125,470
28,721	-7,795	258,654	125,251
29,736	-7,897	258,318	124,986
30,750	-7,870	258,247	124,965
31,765	-7,859	257,920	124,805
32,780	-7,987	257,763	124,604
33,794	-7,784	257,449	124,621
34,809	-7,874	257,188	124,404
35,823	-7,712	256,707	124,302
36,838	-7,956	256,699	124,073
37,853	-7,878	256,370	123,972
38,867	-7,816	256,130	123,899
39,882	-7,865	255,959	123,762
40,896	-7,665	255,655	123,780
41,911	-8,031	255,617	123,429
42,926	-8,071	255,347	123,253
43,940	-7,910	254,938	123,185
44,955	-7,977	254,694	122,998
45,969	-8,102	254,695	122,878
46,984	-8,456	254,305	122,370
47,999	-8,202	254,040	122,453
49,013	-8,408	253,900	122,196
50,028	-8,679	253,589	121,799
51,042	-8,690	253,335	121,657
52,057	-8,602	253,104	121,612
53,071	-8,674	252,794	121,390
54,086	-8,439	252,795	121,582
55,101	-8,275	252,603	121,621
56,115	-8,246	252,537	121,604
57,130	-7,760	252,351	121,923
58,144	-7,500	252,253	122,090
59,159	-7,792	252,126	121,766
60,174	-7,495	251,777	121,842
61,188	-7,675	251,624	121,602
62,203	-7,687	251,497	121,520
63,217	-7,673	251,170	121,362
64,232	-7,746	250,930	121,173
65,247	-7,539	250,771	121,263
66,261	-7,533	250,515	121,133
67,276	-8,018	250,237	120,573
68,290	-8,133	250,055	120,376
69,305	-8,176	249,670	120,144
70,320	-8,333	249,735	120,030
71,334	-7,880	249,387	120,238
72,349	-7,694	249,334	120,361
73,363	-7,571	249,168	120,375
74,378	-7,558	248,894	120,243
75,393	-7,716	248,841	120,072
76,407	-7,872	248,623	119,823
77,422	-7,859	248,316	119,676
78,436	-7,762	248,137	119,661
79,451	-7,804	248,029	119,563
80,466	-7,844	247,735	119,377
81,480	-7,862	247,322	119,152
82,495	-8,165	247,199	118,826
83,509	-8,007	247,041	118,873
84,524	-8,018	246,813	118,743
85,539	-8,363	246,539	118,310
86,553	-8,174	246,468	118,425
87,568	-8,023	246,228	118,426
88,582	-7,904	246,119	118,463
89,597	-8,235	245,940	118,088
90,611	-7,904	245,749	118,264
91,626	-7,822	245,705	118,301
92,641	-7,770	245,429	118,200
93,655	-7,866	245,128	117,965
94,670	-7,931	245,005	117,841
95,684	-7,962	244,958	117,782
96,699	-7,934	244,681	117,662
97,714	-8,055	244,387	117,409
98,728	-8,145	244,209	117,238
99,743	-8,275	244,090	117,062
100,757	-8,238	243,885	116,983
101,772	-8,138	243,664	116,951
102,787	-8,117	243,532	116,895
103,801	-8,133	243,280	116,749
104,816	-7,826	243,186	116,949
105,830	-7,791	243,124	116,938
106,845	-7,555	243,045	117,084
107,860	-7,818	242,741	116,710
108,874	-7,878	242,548	116,558
109,889	-8,093	242,432	116,313
110,903	-8,055	242,198	116,223
111,918	-7,892	241,867	116,187
112,933	-8,011	241,868	116,079
113,947	-7,787	241,517	116,085
114,962	-7,995	241,435	115,864
115,976	-8,039	241,415	115,808
116,991	-7,916	241,112	115,753
118,006	-7,888	240,849	115,640
119,020	-7,914	240,937	115,650
120,035	-7,758	240,629	115,620
121,049	-7,810	240,575	115,541
122,064	-7,778	240,380	115,463
123,079	-7,864	240,123	115,259
124,093	-7,942	239,781	115,021
125,108	-8,056	239,605	114,834
126,122	-8,265	239,479	114,593
127,137	-8,143	239,214	114,555
128,151	-8,032	239,094	114,578
129,166	-8,129	238,868	114,380
130,181	-8,107	238,712	114,313
131,195	-8,361	238,582	114,034
132,210	-8,040	238,490	114,240
133,224	-7,926	238,418	114,289
134,239	-7,842	238,197	114,241
135,254	-7,865	238,097	114,164
136,268	-7,970	237,780	113,916
137,283	-8,151	237,510	113,631
138,297	-8,235	237,172	113,392
139,312	-8,454	237,070	113,156
140,327	-7,902	237,084	113,598
141,341	-7,352	236,888	113,936
142,356	-7,408	236,833	113,855
143,370	-7,254	236,563	113,839
144,385	-7,565	236,605	113,599
145,400	-7,252	236,308	113,697
146,414	-7,460	236,121	113,430
147,429	-7,470	235,910	113,310
148,443	-7,566	235,896	113,217
149,458	-7,528	235,702	113,144
150,473	-7,560	235,575	113,048
151,487	-7,808	235,353	112,732
152,502	-7,422	235,166	112,942
153,516	-7,632	235,012	112,690
154,531	-7,613	234,730	112,559
155,546	-7,731	234,684	112,433
156,560	-7,669	234,526	112,397
157,575	-7,559	234,157	112,298
158,589	-7,655	234,068	112,169
159,604	-7,570	233,978	112,183
160,619	-7,539	233,886	112,153
161,633	-7,350	233,661	112,185
162,648	-7,362	233,500	112,088
163,662	-7,538	233,393	111,888
164,677	-7,521	233,246	111,821
165,692	-7,588	233,109	111,693
166,706	-7,301	233,015	111,864
167,721	-7,354	232,970	111,791
168,735	-7,235	232,522	111,659
169,750	-7,578	232,554	111,394
170,764	-7,447	232,315	111,374
171,779	-7,348	232,074	111,326
172,794	-7,635	232,188	111,145
173,808	-7,470	231,855	111,105
174,823	-8,033	231,482	110,474
175,837	-8,312	231,362	110,188
176,852	-7,831	231,356	110,553
177,867	-7,700	231,328	110,632
178,881	-7,376	231,008	110,724
179,896	-7,279	230,913	110,744
180,910	-7,607	230,907	110,474
181,925	-7,302	230,595	110,553
182,940	-7,372	230,481	110,434
183,954	-7,211	230,280	110,454
184,969	-7,430	230,252	110,260
185,983	-7,257	230,052	110,289
186,998	-7,357	229,917	110,136
188,013	-7,288	229,774	110,111
189,027	-7,256	229,514	110,002
190,042	-7,254	229,440	109,959
191,056	-7,155	229,326	109,971
192,071	-7,310	229,127	109,745
193,086	-7,228	228,860	109,671
194,100	-7,155	228,795	109,687
195,115	-7,229	228,504	109,481
196,129	-7,345	228,677	109,464
197,144	-3,050	229,843	113,347
198,159	1,771	231,292	117,808
199,173	3,492	231,691	119,342
200,188	3,599	231,601	119,368
201,202	3,765	231,384	119,375
202,217	4,040	231,358	119,563
203,232	3,953	231,174	119,390
204,246	4,027	231,104	119,402
205,261	4,414	230,912	119,591
206,275	4,314	230,904	119,499
207,290	4,334	230,701	119,398
208,304	4,300	230,545	119,281
209,319	4,482	230,340	119,305
210,334	4,390	230,061	119,079
211,348	3,981	229,792	118,613
212,363	3,591	229,694	118,252
213,377	3,615	229,518	118,169
214,392	3,710	229,146	118,041
215,407	3,693	229,155	118,021
216,421	3,846	229,056	118,077
217,436	3,599	228,923	117,809
218,450	3,329	228,618	117,434
219,465	3,165	228,489	117,232
220,480	3,455	228,480	117,438
221,494	3,372	228,186	117,213
222,509	3,555	228,226	117,363
223,523	3,604	227,914	117,230
224,538	3,449	227,769	117,027
225,553	3,539	227,710	117,055
226,567	3,790	227,610	117,185
227,582	4,020	227,429	117,256
228,596	3,871	227,451	117,143
229,611	3,635	227,105	116,775
230,626	3,512	226,950	116,591
231,640	3,392	226,672	116,347
232,655	3,611	226,614	116,474
233,669	3,870	226,723	116,716
234,684	4,340	226,628	117,013
235,699	4,119	226,292	116,661
236,713	3,857	226,126	116,367
237,728	3,711	225,905	116,133
238,742	3,652	225,707	115,976
239,757	3,497	225,647	115,818
240,772	3,538	225,411	115,718
241,786	3,155	225,281	115,351
242,801	3,469	225,382	115,629
243,815	3,848	225,287	115,856
244,830	3,857	225,182	115,799
245,844	3,767	224,796	115,523
246,859	3,669	224,628	115,352
247,874	3,787	224,616	115,425
248,888	3,934	224,384	115,405
249,903	3,576	224,163	115,012
250,917	3,640	224,050	114,993
251,932	3,685	223,770	114,872
252,947	3,603	223,767	114,799
253,961	3,559	223,654	114,698
254,976	3,363	223,521	114,474
255,990	3,602	223,342	114,549
257,005	3,841	223,140	114,614
258,020	3,943	223,065	114,641
259,034	4,019	223,010	114,660
260,049	3,726	222,979	114,415
261,063	3,721	222,802	114,310
262,078	3,794	222,530	114,215
263,093	4,065	222,400	114,339
264,107	4,060	222,324	114,286
265,122	3,739	222,133	113,940
266,136	4,005	221,989	114,053
267,151	3,956	221,899	113,960
268,166	3,899	221,670	113,790
269,180	3,529	221,227	113,279
270,195	3,378	221,189	113,138
271,209	3,429	221,118	113,130
272,224	3,700	220,966	113,242
273,239	3,538	220,796	113,025
274,253	3,692	220,845	113,154
275,268	3,571	220,512	112,883
276,282	3,053	220,366	112,418
277,297	3,193	220,292	112,473
278,312	3,631	219,964	112,617
279,326	3,395	220,109	112,508
280,341	3,450	219,934	112,449
281,355	3,756	219,737	112,562
282,370	3,618	219,641	112,402
283,384	3,452	219,456	112,176
284,399	3,266	219,203	111,900
285,414	3,433	219,202	112,012
286,428	3,479	219,040	111,953
287,443	3,778	218,944	112,112
288,457	3,786	218,866	112,068
289,472	3,684	218,736	111,917
290,487	3,096	218,471	111,344
291,501	3,147	218,204	111,234
292,516	3,255	218,088	111,244
293,530	3,218	218,056	111,190
294,545	3,479	217,797	111,238
295,560	3,362	217,833	111,162
296,574	3,437	217,490	111,031
297,589	3,647	217,544	111,201
298,603	3,773	217,467	111,243
299,618	3,617	217,311	111,041
300,633	3,623	217,276	111,017
301,647	3,780	217,115	111,038
302,662	3,779	216,958	110,947
303,676	3,936	216,834	110,987
304,691	3,897	216,661	110,861
305,706	3,947	216,484	110,797
306,720	3,520	216,451	110,462
307,735	3,466	216,092	110,230
308,749	3,567	215,928	110,209
309,764	3,672	215,889	110,255
310,779	4,015	215,813	110,452
311,793	3,813	215,641	110,210
312,808	3,805	215,455	110,099
313,822	3,800	215,313	110,013
314,837	3,621	215,092	109,762
315,852	3,463	214,992	109,589
316,866	3,651	214,913	109,673
317,881	3,575	214,932	109,619
318,895	3,902	214,727	109,738
319,910	3,545	214,453	109,333
320,925	3,196	214,259	108,976
321,939	3,125	214,011	108,790
322,954	3,219	214,031	108,857
323,968	3,716	213,908	109,138
324,983	3,608	213,942	109,069
325,997	3,988	213,812	109,263
327,012	3,858	213,671	109,088
328,027	4,083	213,414	109,107
329,041	3,899	213,485	109,004
330,056	4,117	213,257	109,032
331,070	3,602	213,025	108,539
332,085	3,520	212,816	108,365
333,100	3,672	212,708	108,408
334,114	3,589	212,670	108,320
335,129	3,554	212,442	108,169
336,143	3,659	212,180	108,100
337,158	3,390	212,088	107,854
338,173	3,561	212,062	107,952
339,187	3,316	211,897	107,686
340,202	3,336	211,757	107,619
341,216	3,158	211,557	107,383
342,231	3,599	211,353	107,579
343,246	3,569	211,223	107,483
344,260	3,375	211,188	107,320
345,275	3,539	211,158	107,409
346,289	3,835	210,932	107,492
347,304	3,583	210,952	107,316
348,319	3,659	210,665	107,213
349,333	3,372	210,562	106,951
350,348	3,634	210,367	107,025
351,362	3,677	210,378	107,051
352,377	3,603	210,268	106,934
353,392	3,734	210,116	106,939
354,406	3,628	209,974	106,783
355,421	196,021	1341,932	1429,654
356,435	156,548	1479,895	1429,698
