DTS Sentinel unit serial number:	SN410029Multiplexer serial number:	ORYXHardware model number:	OX2-SRSoftware version number:	ORYX F/W v4,00 Oryx Data Collector v3.7.2.0data status	okinstallation	B6 Nyhavnadifferential loss correction	single-endedforward channel	channel 2reverse channel	N/Adate	2023/12/08time	02:25:08forward acquisition time	300,00reverse acquisition time	0,00gamma	499,1914k internal	0,3165k external	0,3165temperature offset calibration	1,0000default loss term (dB/km)	0,3820temperature slope calibration	1,0000multiplexer offset coefficient	1,0000multiplexer slope coefficient	1,0000fibre end	0,00T internal ref (°C)	13,18T ext. ref 1 (°C)	-3,68T ext. ref 2 (°C)	-3,67length (m)	temperature (°C)	Stokes	anti-Stokes-744,400	711,310	0,049	0,095
-743,385	-61,546	-0,421	-0,129
-742,371	25,749	0,088	0,054
-741,356	-81,538	-0,276	-0,066
-740,342	323,718	0,077	0,108
-739,327	-83,890	-0,306	-0,071
-738,312	579,825	0,034	0,061
-737,298	-89,186	-0,381	0,082
-736,283	-29,259	0,080	-0,034
-735,269	-156,667	-0,172	0,008
-734,254	-59,740	0,198	0,062
-733,239	33,468	-0,470	-0,299
-732,225	-105,356	0,193	0,032
-731,210	508,315	0,076	0,130
-730,196	800,000	0,018	0,056
-729,181	-200,000	-0,046	-0,151
-728,167	800,000	-0,024	-0,057
-727,152	-90,655	-0,193	-0,041
-726,137	-113,321	-0,160	-0,023
-725,123	-125,121	0,008	0,001
-724,108	486,266	-0,089	-0,149
-723,094	175,944	0,031	-0,033
-722,079	-200,000	-0,017	0,151
-721,064	-19,379	0,053	-0,024
-720,050	-200,000	0,015	-0,149
-719,035	-22,875	-0,095	0,042
-718,021	-200,000	0,001	0,137
-717,006	223,785	-0,068	-0,081
-715,991	441,604	-0,088	-0,142
-714,977	-84,784	-0,107	-0,025
-713,962	743,769	-0,090	-0,178
-712,948	-200,000	-0,053	0,186
-711,933	182,690	-0,084	0,091
-710,918	-76,883	0,096	-0,025
-709,904	308,750	-0,022	-0,030
-708,889	800,000	-0,026	0,061
-707,875	8,650	-0,107	-0,059
-706,860	-4,115	0,027	-0,014
-705,845	-125,409	-0,066	0,007
-704,831	-106,499	0,016	0,003
-703,816	392,478	-0,029	-0,045
-702,802	723,015	-0,071	-0,140
-701,787	52,508	-0,109	-0,076
-700,772	135,881	-0,042	-0,040
-699,758	281,551	0,036	0,048
-698,743	-200,000	0,003	0,111
-697,729	-200,000	0,004	-0,040
-696,714	800,000	0,063	0,129
-695,699	-134,868	-0,118	-0,010
-694,685	252,540	0,025	0,031
-693,670	-200,000	0,009	-0,163
-692,656	340,401	0,060	0,087
-691,641	-138,435	0,059	0,005
-690,627	-200,000	0,014	-0,070
-689,612	-200,000	0,006	0,094
-688,597	-200,000	-0,031	0,168
-687,583	20,552	0,050	-0,030
-686,568	-200,000	-0,037	-0,123
-685,554	-200,000	0,002	-0,029
-684,539	800,000	-0,036	0,099
-683,524	467,883	-0,014	0,023
-682,510	-104,539	-0,074	0,012
-681,495	171,672	-0,050	-0,052
-680,481	99,282	-0,104	-0,088
-679,466	-60,099	-0,146	-0,045
-678,451	-144,272	0,037	0,002
-677,437	288,983	0,017	0,023
-676,422	-7,629	0,076	0,038
-675,408	-30,773	-0,003	-0,001
-674,393	800,000	0,053	0,121
-673,378	231,060	-0,088	-0,106
-672,364	379,161	-0,057	0,086
-671,349	189,491	0,106	-0,116
-670,335	-151,334	-0,066	-0,004
-669,320	-17,333	-0,102	-0,047
-668,305	-200,000	-0,011	0,070
-667,291	800,000	0,022	0,070
-666,276	800,000	-0,061	-0,145
-665,262	47,587	-0,043	0,029
-664,247	136,687	0,026	-0,025
-663,232	123,994	0,118	-0,109
-662,218	247,654	-0,065	-0,081
-661,203	131,225	0,039	0,037
-660,189	81,632	-0,132	-0,105
-659,174	58,583	0,018	0,013
-658,159	-73,744	-0,113	-0,030
-657,145	-200,000	0,002	0,010
-656,130	800,000	0,050	0,111
-655,116	20,874	-0,121	0,072
-654,101	-19,581	0,086	-0,039
-653,086	-73,205	-0,029	-0,008
-652,072	263,661	0,063	0,081
-651,057	117,762	-0,074	0,067
-650,043	707,799	0,009	-0,018
-649,028	-143,669	-0,147	-0,010
-648,014	0,623	0,134	-0,070
-646,999	16,869	0,109	0,063
-645,984	70,753	-0,065	-0,050
-644,970	800,000	-0,032	0,067
-643,955	272,132	0,018	0,023
-642,941	-56,934	-0,105	0,034
-641,926	-200,000	0,009	-0,054
-640,911	258,465	0,066	-0,083
-639,897	800,000	0,021	0,055
-638,882	48,134	0,109	0,075
-637,868	-200,000	0,008	0,085
-636,853	209,813	-0,073	-0,084
-635,838	46,163	0,130	-0,088
-634,824	-200,000	0,016	-0,162
-633,809	214,962	0,016	-0,018
-632,795	74,435	-0,056	0,043
-631,780	-200,000	0,001	0,007
-630,765	-21,222	0,084	0,038
-629,751	-177,460	-0,215	-0,004
-628,736	-14,356	-0,053	-0,025
-627,722	110,493	-0,020	-0,018
-626,707	83,936	0,069	-0,055
-625,692	-200,000	0,001	0,025
-624,678	-39,228	0,034	0,013
-623,663	-200,000	-0,032	0,127
-622,649	37,766	-0,118	-0,077
-621,634	-200,000	-0,001	-0,009
-620,619	-136,206	-0,117	-0,010
-619,605	-32,150	0,155	-0,063
-618,590	213,114	-0,014	-0,017
-617,576	-200,000	-0,009	0,040
-616,561	-200,000	0,019	-0,076
-615,546	-200,000	-0,003	0,030
-614,532	158,935	0,047	-0,048
-613,517	-200,000	-0,036	-0,126
-612,503	-200,000	0,048	-0,190
-611,488	188,463	-0,060	-0,066
-610,474	800,000	0,070	-0,152
-609,459	52,190	-0,054	-0,037
-608,444	178,918	-0,022	-0,023
-607,430	25,920	0,007	-0,004
-606,415	154,816	0,050	0,050
-605,401	800,000	0,026	0,078
-604,386	-0,002	0,134	-0,070
-603,371	-200,000	0,023	-0,151
-602,357	800,000	-0,053	-0,129
-601,342	217,497	-0,074	-0,087
-600,328	-200,000	0,021	-0,107
-599,313	-38,573	-0,171	-0,066
-598,298	366,983	-0,054	0,081
-597,284	-62,060	0,100	0,030
-596,269	406,653	-0,030	0,046
-595,255	800,000	0,004	0,011
-594,240	-200,000	-0,018	-0,062
-593,225	800,000	-0,044	-0,105
-592,211	-200,000	0,016	-0,103
-591,196	-5,393	-0,056	0,028
-590,182	-200,000	0,041	-0,132
-589,167	800,000	-0,034	0,106
-588,152	-200,000	0,017	-0,077
-587,138	156,645	0,091	0,092
-586,123	198,979	-0,017	0,019
-585,109	499,130	-0,046	-0,078
-584,094	52,457	0,089	0,062
-583,079	29,108	-0,149	0,092
-582,065	-200,000	-0,018	0,072
-581,050	171,864	-0,066	0,070
-580,036	-200,000	-0,006	-0,102
-579,021	499,860	-0,052	-0,089
-578,006	-13,608	-0,097	-0,046
-576,992	423,778	0,064	-0,101
-575,977	-27,243	0,010	0,004
-574,963	159,147	0,037	-0,037
-573,948	261,882	-0,069	-0,087
-572,934	-116,049	-0,071	0,010
-571,919	-200,000	0,002	0,027
-570,904	-62,454	-0,051	-0,015
-569,890	-40,664	0,131	-0,049
-568,875	175,482	0,050	-0,053
-567,861	-200,000	0,011	0,068
-566,846	105,143	0,064	0,055
-565,831	-108,081	-0,103	0,016
-564,817	26,611	-0,045	-0,027
-563,802	50,091	-0,082	0,056
-562,788	800,000	0,068	-0,146
-561,773	90,393	0,010	0,008
-560,758	-200,000	0,002	-0,015
-559,744	-52,083	-0,119	0,040
-558,729	-25,153	0,074	0,032
-557,715	-59,760	0,034	0,010
-556,700	50,919	-0,105	-0,072
-555,685	-62,780	0,093	-0,028
-554,671	-97,129	0,027	-0,005
-553,656	800,000	-0,013	0,042
-552,642	284,067	0,027	0,035
-551,627	-200,000	-0,017	-0,055
-550,612	9,321	-0,084	-0,046
-549,598	-181,986	-0,101	0,001
-548,583	-200,000	0,004	-0,035
-547,569	-55,660	-0,124	-0,040
-546,554	-1,898	-0,038	-0,019
-545,539	147,964	0,088	-0,086
-544,525	-200,000	-0,005	0,080
-543,510	149,558	-0,027	0,027
-542,496	17,900	0,067	0,039
-541,481	7,816	-0,057	-0,031
-540,466	-95,159	0,115	-0,022
-539,452	9,138	0,184	0,101
-538,437	800,000	-0,030	-0,080
-537,423	-68,548	-0,119	-0,033
-536,408	-50,113	-0,100	0,034
-535,393	-178,787	-0,110	0,002
-534,379	226,230	0,062	-0,074
-533,364	-3,957	-0,059	-0,030
-532,350	50,068	-0,054	-0,037
-531,335	800,000	0,042	0,096
-530,321	-75,313	-0,092	-0,024
-529,306	-200,000	-0,001	-0,068
-528,291	103,478	0,091	-0,078
-527,277	63,582	-0,070	0,051
-526,262	137,878	0,079	-0,076
-525,248	-102,235	0,089	-0,015
-524,233	-92,164	-0,156	-0,032
-523,218	281,519	-0,024	0,032
-522,204	19,312	0,038	-0,022
-521,189	468,251	0,017	-0,027
-520,175	207,898	-0,091	-0,104
-519,160	557,993	-0,031	-0,055
-518,145	657,250	0,106	0,200
-517,131	40,704	-0,101	0,066
-516,116	-200,000	0,035	0,162
-515,102	66,884	-0,103	0,076
-514,087	45,966	-0,103	-0,070
-513,072	-49,926	-0,089	-0,030
-512,058	578,033	0,031	-0,055
-511,043	453,181	-0,058	-0,094
-510,029	31,909	-0,136	-0,085
-509,014	-3,991	0,095	0,048
-507,999	-73,591	-0,111	0,029
-506,985	-200,000	-0,033	-0,146
-505,970	40,216	0,077	-0,050
-504,956	-50,512	-0,060	-0,020
-503,941	-139,810	0,084	-0,006
-502,926	355,932	-0,052	0,076
-501,912	-38,613	0,044	-0,017
-500,897	-200,000	-0,007	0,168
-499,883	-200,000	-0,004	-0,138
-498,868	310,553	-0,073	-0,099
-497,853	800,000	0,045	-0,140
-496,839	58,966	0,121	0,087
-495,824	-59,985	-0,051	-0,016
-494,810	800,000	0,032	0,084
-493,795	189,573	-0,066	0,072
-492,781	287,857	-0,037	-0,049
-491,766	-89,991	0,108	-0,023
-490,751	800,000	0,014	-0,034
-489,737	-77,822	-0,118	0,029
-488,722	-200,000	0,010	-0,079
-487,708	245,651	-0,075	0,093
-486,693	29,680	0,089	0,055
-485,678	102,262	0,043	0,036
-484,664	194,834	0,014	-0,015
-483,649	-200,000	-0,010	-0,077
-482,635	800,000	0,004	-0,009
-481,620	234,269	-0,046	0,056
-480,605	246,376	0,085	-0,104
-479,591	-200,000	0,034	0,199
-478,576	26,416	0,106	0,065
-477,562	-22,491	0,059	-0,026
-476,547	175,944	-0,040	-0,042
-475,532	800,000	-0,025	-0,059
-474,518	-62,035	0,027	-0,008
-473,503	-157,399	0,115	-0,005
-472,489	-71,039	0,059	-0,016
-471,474	800,000	-0,041	-0,089
-470,459	-150,801	0,039	-0,002
-469,445	-200,000	-0,048	-0,258
-468,430	103,353	0,010	0,008
-467,416	-200,000	-0,013	-0,080
-466,401	39,870	0,140	-0,092
-465,386	-40,424	-0,081	-0,030
-464,372	-200,000	-0,031	-0,158
-463,357	138,959	-0,027	0,025
-462,343	-57,642	0,063	0,020
-461,328	-78,320	0,114	-0,028
-460,313	135,555	0,041	0,039
-459,299	-200,000	0,020	0,144
-458,284	-200,000	0,043	0,202
-457,270	-200,000	0,026	-0,140
-456,255	-96,603	0,070	-0,013
-455,241	-200,000	-0,012	-0,081
-454,226	603,971	0,014	-0,026
-453,211	45,745	0,102	0,069
-452,197	10,309	0,089	-0,049
-451,182	129,350	0,089	-0,082
-450,168	-200,000	0,007	0,101
-449,153	-8,727	-0,069	-0,033
-448,138	638,434	-0,010	-0,018
-447,124	287,677	-0,054	-0,072
-446,109	155,672	-0,009	-0,009
-445,095	-200,000	-0,015	0,080
-444,080	20,451	-0,026	-0,015
-443,065	15,529	-0,066	0,038
-442,051	354,341	0,048	-0,069
-441,036	66,946	-0,023	0,017
-440,022	-72,506	0,072	0,019
-439,007	-200,000	0,016	0,105
-437,992	128,179	0,069	0,064
-436,978	-200,000	-0,048	0,172
-435,963	-6,896	0,045	0,022
-434,949	60,539	-0,064	0,046
-433,934	741,727	-0,017	0,033
-432,919	-51,589	-0,118	0,040
-431,905	-12,985	0,070	0,033
-430,890	800,000	-0,033	0,071
-429,876	344,129	0,154	0,219
-428,861	-4,392	0,066	0,033
-427,846	-200,000	-0,007	0,064
-426,832	-200,000	-0,002	-0,153
-425,817	800,000	-0,026	0,058
-424,803	-200,000	-0,011	0,215
-423,788	332,217	0,049	0,069
-422,773	82,471	0,099	-0,078
-421,759	800,000	-0,036	0,092
-420,744	343,965	0,007	-0,010
-419,730	-200,000	-0,008	0,099
-418,715	-10,365	0,070	-0,034
-417,701	-71,377	0,068	0,018
-416,686	-200,000	-0,017	0,156
-415,671	-29,247	0,019	-0,008
-414,657	582,101	0,004	0,008
-413,642	57,303	0,087	0,061
-412,628	18,763	-0,077	-0,045
-411,613	-200,000	0,000	-0,046
-410,598	-101,956	-0,029	-0,005
-409,584	554,832	-0,050	0,087
-408,569	800,000	0,043	0,105
-407,555	343,861	0,082	0,118
-406,540	156,015	0,047	-0,047
-405,525	-151,759	-0,036	-0,002
-404,511	118,950	-0,076	-0,069
-403,496	98,987	-0,134	-0,113
-402,482	197,455	0,079	-0,087
-401,467	-90,545	0,148	0,031
-400,452	71,684	0,074	0,056
-399,438	103,786	-0,061	-0,052
-398,423	387,215	0,039	0,059
-397,409	115,621	-0,173	-0,154
-396,394	-32,272	0,086	-0,035
-395,379	-200,000	-0,017	-0,060
-394,365	-199,539	-0,061	0,000
-393,350	-200,000	0,022	-0,074
-392,336	-200,000	0,032	0,129
-391,321	-200,000	0,005	-0,021
-390,306	-200,000	-0,010	0,079
-389,292	126,631	-0,084	-0,077
-388,277	800,000	-0,053	0,131
-387,263	300,364	0,141	0,189
-386,248	-163,231	-0,035	0,001
-385,233	800,000	0,028	-0,060
-384,219	103,030	-0,090	0,077
-383,204	-200,000	-0,015	-0,076
-382,190	-200,000	0,001	-0,139
-381,175	-200,000	0,004	0,044
-380,160	2,691	0,095	-0,050
-379,146	-6,330	-0,065	-0,032
-378,131	-200,000	0,013	0,062
-377,117	584,653	-0,028	-0,049
-376,102	-41,118	-0,059	-0,022
-375,088	-200,000	-0,005	-0,071
-374,073	32,047	-0,041	0,026
-373,058	531,046	0,052	-0,089
-372,044	14,626	0,151	0,085
-371,029	-200,000	-0,011	-0,038
-370,015	800,000	-0,018	0,049
-369,000	-86,234	0,038	0,008
-367,985	65,163	0,115	0,084
-366,971	-107,985	0,073	-0,011
-365,956	-78,628	0,195	0,048
-364,942	-23,228	0,087	0,038
-363,927	22,033	-0,155	0,092
-362,912	-200,000	-0,032	0,149
-361,898	522,321	-0,012	-0,021
-360,883	-109,503	-0,052	-0,008
-359,869	-200,000	0,021	-0,095
-358,854	-4,313	0,109	-0,054
-357,839	800,000	0,031	-0,089
-356,825	800,000	-0,049	-0,107
-355,810	-88,523	0,069	0,015
-354,796	-8,923	-0,050	0,024
-353,781	121,891	-0,165	-0,149
-352,766	-200,000	-0,005	-0,112
-351,752	570,601	0,098	0,173
-350,737	-15,079	0,195	-0,090
-349,723	-17,921	0,141	-0,064
-348,708	-137,451	-0,081	-0,007
-347,693	-132,625	0,152	0,014
-346,679	-81,635	-0,091	-0,022
-345,664	46,624	-0,110	0,074
-344,650	800,000	-0,054	0,126
-343,635	400,620	0,068	-0,103
-342,620	15,482	-0,088	-0,050
-341,606	-200,000	-0,004	0,017
-340,591	-137,325	-0,165	0,013
-339,577	-35,016	0,109	-0,043
-338,562	-64,652	-0,092	0,027
-337,548	82,284	0,011	0,009
-336,533	50,592	0,134	0,092
-335,518	22,359	-0,036	-0,021
-334,504	697,169	0,069	0,131
-333,489	128,870	0,010	0,009
-332,475	-200,000	-0,017	-0,060
-331,460	-200,000	0,005	-0,046
-330,445	-200,000	0,038	0,129
-329,431	412,274	0,018	-0,028
-328,416	-46,719	-0,095	0,034
-327,402	-91,427	0,237	-0,049
-326,387	790,977	0,072	0,144
-325,372	27,841	0,046	-0,028
-324,358	129,356	-0,017	-0,016
-323,343	-200,000	-0,010	-0,034
-322,329	29,251	0,096	-0,059
-321,314	800,000	0,032	-0,092
-320,299	800,000	0,041	0,132
-319,285	800,000	0,033	0,084
-318,270	-151,049	0,102	-0,005
-317,256	-83,343	-0,056	-0,013
-316,241	800,000	-0,039	-0,097
-315,226	-78,412	0,035	0,009
-314,212	-200,000	0,012	0,127
-313,197	-200,000	-0,015	-0,086
-312,183	82,891	0,069	0,054
-311,168	225,975	0,051	0,060
-310,153	-118,010	0,032	-0,004
-309,139	684,066	0,025	0,048
-308,124	-85,758	0,074	-0,016
-307,110	233,048	0,054	-0,064
-306,095	800,000	0,074	0,206
-305,080	-73,106	-0,096	-0,025
-304,066	13,941	-0,077	-0,043
-303,051	-105,119	-0,024	-0,004
-302,037	143,908	0,013	-0,013
-301,022	375,037	-0,099	0,146
-300,008	2,599	0,078	-0,041
-298,993	-136,534	0,074	-0,006
-297,978	-200,000	-0,016	0,067
-296,964	-200,000	0,040	-0,159
-295,949	800,000	0,017	0,049
-294,935	8,218	-0,176	0,095
-293,920	-200,000	-0,021	0,109
-292,905	-31,196	0,095	0,038
-291,891	-200,000	0,003	0,010
-290,876	269,392	-0,046	0,059
-289,862	-105,994	-0,075	-0,012
-288,847	455,402	-0,096	-0,154
-287,832	800,000	0,069	-0,170
-286,818	800,000	0,081	0,194
-285,803	319,661	-0,150	0,206
-284,789	-9,287	0,108	0,052
-283,774	334,382	0,070	-0,098
-282,759	800,000	0,023	-0,071
-281,745	491,326	0,018	-0,031
-280,730	-200,000	-0,008	0,040
-279,716	18,680	0,098	0,056
-278,701	-5,084	-0,079	-0,039
-277,686	-200,000	0,004	0,094
-276,672	79,148	-0,050	0,039
-275,657	-200,000	0,021	0,087
-274,643	-200,000	0,016	0,061
-273,628	-32,617	-0,079	-0,031
-272,613	397,427	0,023	-0,034
-271,599	-200,000	-0,017	0,115
-270,584	-200,000	-0,038	0,186
-269,570	-200,000	0,027	0,142
-268,555	800,000	-0,012	-0,027
-267,540	-53,720	-0,157	0,051
-266,526	-143,219	-0,089	0,006
-265,511	-48,632	-0,062	-0,021
-264,497	-169,783	-0,161	0,004
-263,482	-25,833	0,079	-0,033
-262,467	-133,675	0,152	0,014
-261,453	-127,383	0,094	0,010
-260,438	-115,401	-0,062	-0,008
-259,424	800,000	-0,015	0,031
-258,409	800,000	0,011	0,022
-257,395	-200,000	0,001	0,076
-256,380	64,366	0,185	0,135
-255,365	800,000	-0,011	0,025
-254,351	-105,738	-0,058	0,009
-253,336	-129,949	-0,118	0,012
-252,322	285,246	0,042	-0,055
-251,307	412,552	0,077	-0,119
-250,292	86,473	-0,047	-0,038
-249,278	67,581	-0,072	-0,053
-248,263	-142,202	0,052	-0,004
-247,249	178,624	0,029	0,031
-246,234	367,336	0,048	0,070
-245,219	36,402	-0,135	0,086
-244,205	181,768	-0,119	0,126
-243,190	196,091	0,041	0,045
-242,176	207,666	-0,027	-0,031
-241,161	81,512	0,120	0,094
-240,146	-75,479	-0,081	0,021
-239,132	691,079	-0,005	0,010
-238,117	-137,953	-0,020	0,002
-237,103	575,178	-0,079	-0,141
-236,088	-200,000	-0,019	-0,095
-235,073	-28,483	0,065	-0,027
-234,059	22,790	-0,149	0,088
-233,044	-17,132	-0,079	-0,036
-232,030	-6,696	-0,071	0,035
-231,015	104,168	0,168	-0,143
-230,000	154,669	-0,092	0,091
-228,986	105,928	-0,031	0,027
-227,971	800,000	0,029	0,062
-226,957	800,000	-0,017	0,038
-225,942	-94,461	0,126	-0,025
-224,927	800,000	-0,033	-0,086
-223,913	140,688	0,016	0,016
-222,898	-18,732	-0,262	-0,117
-221,884	-76,408	0,131	0,033
-220,869	22,175	0,063	-0,037
-219,855	-60,585	0,109	-0,033
-218,840	-63,568	-0,112	0,033
-217,825	-81,173	-0,068	0,016
-216,811	800,000	-0,034	0,076
-215,796	39,916	-0,079	-0,051
-214,782	800,000	0,055	-0,135
-213,767	-200,000	-0,030	-0,104
-212,752	-104,910	0,074	0,012
-211,738	-106,302	0,101	-0,016
-210,723	89,179	-0,045	-0,036
-209,709	29,397	-0,040	0,025
-208,694	344,885	0,028	0,040
-207,679	-91,569	0,102	-0,021
-206,665	-14,609	-0,147	-0,068
-205,650	-112,013	-0,021	-0,003
-204,636	-57,346	0,160	0,050
-203,621	516,364	-0,037	0,063
-202,606	800,000	0,059	-0,129
-201,592	239,955	0,049	-0,059
-200,577	77,267	-0,189	-0,145
-199,563	169,893	0,095	-0,098
-198,548	-128,818	-0,013	-0,001
-197,533	-85,660	-0,082	-0,018
-196,519	601,637	-0,040	0,072
-195,504	-41,839	-0,075	0,027
-194,490	-29,322	-0,173	0,071
-193,475	800,000	0,021	0,052
-192,460	103,497	-0,031	-0,026
-191,446	28,930	0,068	-0,042
-190,431	800,000	0,079	0,179
-189,417	800,000	-0,008	-0,019
-188,402	95,944	-0,048	-0,039
-187,387	73,780	0,051	-0,038
-186,373	-200,000	-0,002	-0,111
-185,358	339,022	-0,096	-0,135
-184,344	-75,669	0,115	0,029
-183,329	186,339	0,055	0,059
-182,315	124,833	0,039	0,036
-181,300	-64,564	0,044	0,013
-180,285	-38,185	-0,117	0,044
-179,271	-34,911	-0,146	0,057
-178,256	800,000	-0,053	0,137
-177,242	800,000	0,041	-0,088
-176,227	-200,000	0,017	-0,140
-175,212	167,671	0,132	0,135
-174,198	-200,000	-0,001	0,022
-173,183	800,000	0,001	-0,003
-172,169	275,484	0,086	-0,110
-171,154	-32,891	0,049	0,019
-170,139	391,860	-0,035	0,053
-169,125	-119,253	0,060	0,007
-168,110	-200,000	0,004	0,040
-167,096	-200,000	0,001	0,142
-166,081	470,374	-0,031	-0,050
-165,066	181,028	-0,105	-0,111
-164,052	-13,016	-0,098	0,046
-163,037	-200,000	-0,016	0,079
-162,023	800,000	-0,042	0,098
-161,008	-102,918	-0,079	0,013
-159,993	379,787	-0,045	0,067
-158,979	127,161	-0,050	0,046
-157,964	661,306	0,064	-0,119
-156,950	190,766	-0,094	-0,101
-155,935	592,555	0,038	0,067
-154,920	-200,000	0,035	0,176
-153,906	-45,361	-0,023	0,008
-152,891	173,645	-0,035	0,036
-151,877	800,000	-0,042	0,101
-150,862	489,583	-0,057	-0,094
-149,847	475,331	0,003	-0,005
-148,833	-145,306	0,095	-0,006
-147,818	-98,703	0,066	-0,012
-146,804	-200,000	-0,011	0,100
-145,789	-200,000	0,011	0,059
-144,775	-200,000	-0,008	-0,122
-143,760	-200,000	0,033	-0,123
-142,745	-200,000	0,026	0,094
-141,731	774,427	0,039	0,076
-140,716	118,972	-0,044	-0,039
-139,702	38,151	0,046	0,030
-138,687	-200,000	0,007	-0,031
-137,672	43,096	-0,053	-0,034
-136,658	178,932	-0,121	-0,127
-135,643	800,000	-0,015	-0,036
-134,629	-200,000	-0,009	0,120
-133,614	-200,000	-0,017	-0,126
-132,599	-48,401	0,113	-0,039
-131,585	562,250	-0,036	0,063
-130,570	185,365	0,043	0,046
-129,556	-3,107	-0,167	-0,084
-128,541	363,127	0,053	-0,076
-127,526	-200,000	0,001	-0,056
-126,512	173,325	0,136	-0,141
-125,497	360,302	-0,049	0,071
-124,483	-103,304	-0,180	0,030
-123,468	800,000	-0,063	0,161
-122,453	800,000	-0,014	0,039
-121,439	792,354	0,014	-0,027
-120,424	-97,878	0,052	-0,010
-119,410	642,300	-0,060	0,111
-118,395	48,225	-0,074	0,050
-117,380	800,000	0,054	0,112
-116,366	35,070	-0,075	-0,047
-115,351	-177,873	-0,022	-0,000
-114,337	-200,000	0,053	-0,194
-113,322	25,398	-0,043	-0,026
-112,307	800,000	-0,023	0,059
-111,293	-200,000	0,015	0,058
-110,278	-200,000	0,031	0,168
-109,264	35,720	-0,066	0,042
-108,249	-158,846	-0,185	-0,007
-107,234	11,726	0,118	0,065
-106,220	60,132	-0,160	-0,113
-105,205	410,210	-0,041	0,062
-104,191	-86,938	0,135	-0,029
-103,176	800,000	0,034	-0,105
-102,162	-200,000	0,019	0,061
-101,147	112,718	-0,149	-0,130
-100,132	405,645	-0,084	-0,127
-99,118	382,789	-0,062	0,092
-98,103	-10,181	0,049	0,023
-97,089	298,477	0,057	-0,076
-96,074	208,176	0,056	-0,063
-95,059	-115,042	0,169	-0,023
-94,045	-136,689	-0,106	0,009
-93,030	-111,688	-0,093	-0,013
-92,016	-200,000	0,007	-0,176
-91,001	-19,113	0,091	0,040
-89,986	17,759	-0,131	0,074
-88,972	-200,000	-0,047	0,187
-87,957	-200,000	0,021	0,111
-86,943	-185,918	-0,068	0,001
-85,928	800,000	0,026	0,058
-84,913	-200,000	-0,000	0,025
-83,899	174,386	-0,070	0,073
-82,884	228,477	0,041	0,047
-81,870	-200,000	-0,007	0,087
-80,855	-35,538	-0,127	0,049
-79,840	-2,943	-0,037	-0,018
-78,826	669,907	0,032	-0,059
-77,811	-104,392	-0,056	0,009
-76,797	673,948	0,046	-0,085
-75,782	2,027	-0,014	-0,007
-74,767	297,519	0,068	-0,089
-73,753	15,649	-0,133	-0,075
-72,738	-200,000	0,013	-0,083
-71,724	671,080	0,035	0,066
-70,709	-200,000	0,007	0,099
-69,694	624,353	-0,021	-0,038
-68,680	616,780	0,040	0,072
-67,665	618,452	-0,044	0,079
-66,651	347,562	0,032	0,046
-65,636	-200,000	-0,016	-0,099
-64,622	150,615	0,116	-0,113
-63,607	-55,360	-0,049	-0,016
-62,592	-200,000	-0,005	0,066
-61,578	199,967	0,030	-0,033
-60,563	119,114	0,059	0,052
-59,549	-37,718	0,106	0,040
-58,534	43,938	-2,235	-1,464
-57,519	-200,000	-0,065	-0,708
-56,505	-200,000	-1,424	-5,004
-55,490	104,708	0,888	0,749
-54,476	800,000	5,362	12,273
-53,461	-200,000	18,909	319,600
-52,446	800,000	741,164	2324,385
-51,432	549,952	1654,524	2851,504
-50,417	109,969	1637,829	1406,600
-49,403	73,522	1288,174	964,645
-48,388	29,595	1029,862	625,772
-47,373	19,651	992,592	570,257
-46,359	16,991	980,330	554,456
-45,344	13,622	976,431	541,179
-44,330	13,922	974,802	541,240
-43,315	13,261	972,989	538,045
-42,300	13,183	971,985	537,213
-41,286	13,188	970,950	536,639
-40,271	13,194	970,125	536,179
-39,257	13,213	969,327	535,781
-38,242	13,244	968,446	535,371
-37,227	13,260	967,337	534,790
-36,213	13,132	966,761	534,033
-35,198	13,170	965,796	533,603
-34,184	13,253	964,917	533,366
-33,169	13,180	964,079	532,646
-32,154	13,208	963,197	532,227
-31,140	13,221	962,093	531,639
-30,125	13,199	961,577	531,260
-29,111	13,239	960,545	530,798
-28,096	13,215	959,955	530,374
-27,082	13,179	959,448	529,956
-26,067	13,213	958,719	529,642
-25,052	13,232	957,866	529,213
-24,038	13,210	957,220	528,762
-23,023	13,207	956,438	528,300
-22,009	13,294	955,854	528,236
-20,994	13,241	955,173	527,669
-19,979	13,228	954,664	527,324
-18,965	13,240	953,845	526,889
-17,950	13,220	953,388	526,551
-16,936	13,176	952,669	525,993
-15,921	13,167	952,181	525,675
-14,906	13,101	951,290	524,951
-13,892	13,127	950,683	524,678
-12,877	13,111	950,031	524,247
-11,863	13,048	949,443	523,701
-10,848	13,166	948,680	523,636
-9,833	13,202	948,490	523,624
-8,819	13,179	947,612	523,045
-7,804	13,105	947,146	522,532
-6,790	13,105	946,487	522,148
-5,775	13,126	946,194	522,031
-4,760	13,164	945,386	521,687
-3,746	13,157	944,698	521,262
-2,731	12,972	943,951	520,244
-1,717	12,935	943,283	519,738
-0,702	12,992	942,570	519,506
0,313	12,790	942,079	519,378
1,327	16,160	939,749	528,691
2,342	25,163	790,500	468,454
3,356	21,085	445,128	257,715
4,371	-7,925	298,079	143,337
5,386	-11,565	279,808	131,061
6,400	-13,097	274,233	127,002
7,415	-12,965	271,718	125,949
8,429	-13,232	270,330	125,047
9,444	-13,451	269,510	124,455
10,459	-13,174	268,714	124,331
11,473	-13,296	268,174	123,958
12,488	-13,240	267,626	123,745
13,502	-13,537	266,996	123,172
14,517	-13,598	266,736	122,985
15,531	-13,320	266,174	122,968
16,546	-13,491	265,908	122,679
17,561	-13,293	265,484	122,651
18,575	-13,150	265,159	122,620
19,590	-13,523	264,815	122,113
20,604	-13,184	264,477	122,252
21,619	-13,438	264,080	121,828
22,634	-13,372	263,802	121,749
23,648	-13,346	263,552	121,647
24,663	-13,257	263,146	121,528
25,677	-13,511	263,213	121,320
26,692	-13,453	262,749	121,147
27,707	-13,514	262,416	120,929
28,721	-13,546	262,047	120,719
29,736	-13,517	261,819	120,629
30,750	-13,671	261,626	120,392
31,765	-13,541	261,598	120,484
32,780	-13,430	261,092	120,339
33,794	-13,393	260,832	120,242
34,809	-13,468	260,557	120,038
35,823	-13,367	260,263	119,981
36,838	-13,436	259,980	119,778
37,853	-13,512	259,930	119,678
38,867	-13,384	259,562	119,611
39,882	-13,531	259,327	119,361
40,896	-13,505	259,121	119,279
41,911	-13,402	258,887	119,252
42,926	-13,581	258,670	118,984
43,940	-13,502	258,497	118,963
44,955	-13,606	258,219	118,732
45,969	-13,679	257,899	118,511
46,984	-13,736	257,522	118,277
47,999	-13,973	257,348	117,979
49,013	-14,185	257,264	117,744
50,028	-14,144	256,914	117,609
51,042	-14,319	256,635	117,318
52,057	-14,315	256,376	117,192
53,071	-14,523	256,195	116,918
54,086	-14,119	255,981	117,162
55,101	-13,964	255,871	117,236
56,115	-13,885	255,774	117,250
57,130	-13,523	255,749	117,543
58,144	-13,230	255,484	117,666
59,159	-13,420	255,310	117,411
60,174	-13,148	255,093	117,536
61,188	-13,368	254,762	117,183
62,203	-13,456	254,665	117,051
63,217	-13,232	254,366	117,097
64,232	-13,285	254,162	116,947
65,247	-13,331	254,092	116,864
66,261	-13,388	253,729	116,638
67,276	-13,540	253,488	116,386
68,290	-13,636	253,100	116,115
69,305	-14,025	252,841	115,651
70,320	-14,050	252,840	115,619
71,334	-13,700	252,544	115,774
72,349	-13,407	252,415	115,956
73,363	-13,216	252,278	116,046
74,378	-13,278	251,962	115,837
75,393	-13,513	251,882	115,589
76,407	-13,400	251,578	115,536
77,422	-13,358	251,430	115,494
78,436	-13,354	251,240	115,399
79,451	-13,106	250,884	115,437
80,466	-13,448	250,684	115,043
81,480	-13,433	250,417	114,923
82,495	-13,581	250,240	114,706
83,509	-13,502	250,203	114,746
84,524	-13,670	249,788	114,403
85,539	-13,657	249,526	114,283
86,553	-13,716	249,417	114,173
87,568	-13,603	249,393	114,248
88,582	-13,576	249,039	114,099
89,597	-13,518	248,791	114,024
90,611	-13,678	248,717	113,844
91,626	-13,416	248,563	113,985
92,641	-13,572	248,426	113,780
93,655	-13,513	248,033	113,640
94,670	-13,663	247,975	113,477
95,684	-13,484	247,715	113,498
96,699	-13,472	247,420	113,363
97,714	-13,695	247,348	113,132
98,728	-13,739	247,034	112,943
99,743	-13,885	247,055	112,820
100,757	-13,953	246,597	112,543
101,772	-13,994	246,558	112,481
102,787	-13,663	246,300	112,630
103,801	-13,477	246,121	112,693
104,816	-13,741	246,060	112,435
105,830	-13,749	245,958	112,372
106,845	-13,514	245,806	112,488
107,860	-13,521	245,495	112,330
108,874	-13,550	245,312	112,212
109,889	-13,656	245,080	112,008
110,903	-13,698	244,838	111,853
111,918	-13,519	244,724	111,939
112,933	-13,679	244,640	111,758
113,947	-13,424	244,330	111,817
114,962	-13,546	244,295	111,691
115,976	-13,363	243,880	111,642
116,991	-13,436	243,759	111,516
118,006	-13,569	243,638	111,341
119,020	-13,316	243,527	111,489
120,035	-13,408	243,400	111,345
121,049	-13,370	243,191	111,271
122,064	-13,591	243,188	111,078
123,079	-13,481	242,738	110,953
124,093	-13,612	242,572	110,760
125,108	-13,796	242,392	110,517
126,122	-13,989	242,136	110,231
127,137	-14,049	241,809	110,024
128,151	-14,082	241,755	109,962
129,166	-13,838	241,540	110,054
130,181	-13,869	241,420	109,965
131,195	-13,832	241,151	109,863
132,210	-13,634	241,076	109,980
133,224	-13,687	240,963	109,875
134,239	-13,548	240,716	109,866
135,254	-13,510	240,602	109,835
136,268	-13,824	240,359	109,459
137,283	-13,911	239,923	109,181
138,297	-14,147	239,774	108,912
139,312	-14,166	239,696	108,851
140,327	-13,583	239,546	109,245
141,341	-13,154	239,539	109,579
142,356	-13,219	239,419	109,462
143,370	-13,120	239,148	109,408
144,385	-13,005	239,036	109,440
145,400	-13,036	238,868	109,329
146,414	-13,188	238,794	109,162
147,429	-13,238	238,387	108,926
148,443	-13,324	238,333	108,823
149,458	-12,998	238,012	108,928
150,473	-13,137	237,980	108,792
151,487	-13,075	237,594	108,656
152,502	-13,325	237,780	108,531
153,516	-13,307	237,484	108,401
154,531	-13,394	237,335	108,253
155,546	-13,042	236,898	108,325
156,560	-13,335	236,924	108,094
157,575	-13,333	236,583	107,930
158,589	-13,442	236,547	107,816
159,604	-13,031	236,406	108,071
160,619	-13,205	236,311	107,879
161,633	-13,174	236,242	107,862
162,648	-13,085	235,954	107,792
163,662	-13,226	235,801	107,600
164,677	-13,333	235,508	107,372
165,692	-13,233	235,541	107,457
166,706	-13,127	235,319	107,430
167,721	-12,896	235,165	107,534
168,735	-12,893	235,093	107,494
169,750	-13,264	234,902	107,103
170,764	-13,212	234,658	107,023
171,779	-13,049	234,631	107,130
172,794	-13,021	234,567	107,114
173,808	-13,223	234,262	106,805
174,823	-13,649	233,736	106,220
175,837	-13,777	233,682	106,086
176,852	-13,471	233,753	106,349
177,867	-13,248	233,522	106,411
178,881	-12,958	233,452	106,597
179,896	-13,339	233,347	106,240
180,910	-13,111	233,031	106,266
181,925	-13,231	233,043	106,168
182,940	-12,988	232,923	106,293
183,954	-13,025	232,736	106,170
184,969	-12,851	232,558	106,215
185,983	-12,847	232,276	106,080
186,998	-13,103	232,202	105,838
188,013	-13,014	232,081	105,842
189,027	-12,728	231,898	105,972
190,042	-13,006	231,670	105,642
191,056	-12,861	231,533	105,683
192,071	-13,016	231,437	105,509
193,086	-13,166	231,184	105,268
194,100	-12,991	231,012	105,316
195,115	-13,332	230,713	104,906
196,129	-13,157	230,776	105,061
197,144	-7,863	232,620	110,027
198,159	-2,750	234,199	114,776
199,173	1,913	235,472	119,057
200,188	2,896	235,642	119,905
201,202	2,772	235,340	119,643
202,217	2,910	235,100	119,619
203,232	2,830	235,123	119,558
204,246	2,830	235,048	119,509
205,261	3,121	234,836	119,618
206,275	3,408	234,767	119,796
207,290	3,412	234,566	119,686
208,304	3,276	234,474	119,523
209,319	3,162	234,158	119,263
210,334	3,079	233,907	119,059
211,348	2,824	233,783	118,787
212,363	2,545	233,576	118,454
213,377	2,329	233,436	118,205
214,392	2,300	233,255	118,080
215,407	2,416	233,122	118,092
216,421	2,638	233,104	118,245
217,436	2,678	232,636	118,027
218,450	2,372	232,332	117,626
219,465	2,169	232,340	117,463
220,480	2,405	232,143	117,536
221,494	2,156	232,143	117,332
222,509	2,266	231,957	117,312
223,523	2,659	231,821	117,537
224,538	2,201	231,713	117,118
225,553	2,374	231,604	117,186
226,567	2,626	231,299	117,215
227,582	2,960	231,200	117,411
228,596	2,999	231,253	117,458
229,611	2,771	230,953	117,120
230,626	2,257	230,617	116,545
231,640	2,272	230,465	116,470
232,655	2,635	230,532	116,771
233,669	2,961	230,403	116,945
234,684	3,044	230,352	116,972
235,699	2,963	230,021	116,731
236,713	2,506	229,955	116,338
237,728	2,755	229,647	116,362
238,742	2,250	229,570	115,928
239,757	2,407	229,446	115,975
240,772	2,387	229,191	115,820
241,786	2,440	229,014	115,760
242,801	2,345	229,058	115,700
243,815	2,767	229,114	116,039
244,830	2,985	228,775	116,022
245,844	2,715	228,665	115,752
246,859	2,661	228,365	115,548
247,874	2,783	228,296	115,596
248,888	2,739	228,172	115,489
249,903	2,708	228,090	115,414
250,917	2,590	227,868	115,202
251,932	2,461	227,673	114,995
252,947	2,527	227,288	114,841
253,961	2,397	227,164	114,670
254,976	2,415	227,093	114,638
255,990	2,509	227,187	114,746
257,005	2,546	226,975	114,656
258,020	2,735	226,760	114,680
259,034	2,619	226,665	114,534
260,049	2,608	226,542	114,454
261,063	2,562	226,438	114,356
262,078	2,841	226,403	114,538
263,093	2,809	226,167	114,384
264,107	2,933	225,929	114,346
265,122	2,861	225,911	114,274
266,136	3,032	225,638	114,252
267,151	2,944	225,566	114,141
268,166	2,622	225,325	113,767
269,180	2,156	225,101	113,297
270,195	2,441	224,978	113,437
271,209	2,422	224,923	113,385
272,224	2,355	224,857	113,292
273,239	2,511	224,550	113,243
274,253	2,349	224,265	112,969
275,268	2,494	224,221	113,044
276,282	2,283	224,067	112,800
277,297	2,329	223,925	112,753
278,312	2,269	223,951	112,711
279,326	2,609	223,651	112,802
280,341	2,538	223,610	112,719
281,355	2,620	223,372	112,649
282,370	2,507	223,260	112,499
283,384	2,398	223,106	112,332
284,399	2,115	222,873	111,995
285,414	2,340	222,773	112,100
286,428	2,500	222,555	112,099
287,443	2,671	222,670	112,273
288,457	2,847	222,435	112,274
289,472	2,599	222,155	111,940
290,487	2,212	221,976	111,556
291,501	2,201	221,728	111,413
292,516	2,258	221,748	111,455
293,530	2,183	221,606	111,319
294,545	2,347	221,426	111,339
295,560	2,479	221,379	111,401
296,574	2,585	221,238	111,398
297,589	2,311	221,285	111,212
298,603	2,729	220,950	111,339
299,618	2,387	220,932	111,070
300,633	2,645	220,731	111,147
301,647	2,905	220,692	111,307
302,662	2,871	220,454	111,152
303,676	2,835	220,364	111,070
304,691	2,875	220,150	110,982
305,706	2,656	220,112	110,794
306,720	2,819	219,926	110,809
307,735	2,276	219,713	110,298
308,749	2,441	219,642	110,372
309,764	2,561	219,436	110,345
310,779	2,654	219,291	110,330
311,793	2,629	219,297	110,305
312,808	2,364	219,128	110,018
313,822	2,563	218,872	110,024
314,837	2,580	218,642	109,911
315,852	2,387	218,435	109,658
316,866	2,347	218,552	109,678
317,881	2,638	218,452	109,828
318,895	2,776	218,054	109,717
319,910	2,492	217,867	109,409
320,925	1,989	217,813	109,011
321,939	1,939	217,567	108,842
322,954	2,121	217,501	108,930
323,968	2,655	217,512	109,309
324,983	2,647	217,502	109,288
325,997	2,672	217,338	109,214
327,012	2,703	217,226	109,170
328,027	2,485	216,940	108,861
329,041	2,715	217,135	109,114
330,056	2,959	216,768	109,094
331,070	2,628	216,501	108,713
332,085	2,457	216,318	108,490
333,100	2,519	216,224	108,478
334,114	2,585	216,190	108,497
335,129	2,676	215,963	108,439
336,143	2,303	215,812	108,088
337,158	2,652	215,545	108,192
338,173	2,391	215,435	107,943
339,187	2,292	215,292	107,791
340,202	2,397	215,328	107,873
341,216	2,499	215,266	107,905
342,231	2,502	215,029	107,779
343,246	2,574	214,915	107,763
344,260	2,929	214,632	107,862
345,275	2,463	214,739	107,577
346,289	2,790	214,547	107,702
347,304	2,782	214,375	107,601
348,319	2,776	214,211	107,505
349,333	2,618	214,086	107,321
350,348	2,782	213,825	107,296
351,362	2,650	213,942	107,253
352,377	2,732	213,768	107,213
353,392	2,494	213,599	106,952
354,406	2,567	213,364	106,876
355,421	197,424	1314,761	1393,669
356,435	157,964	1448,890	1393,611
