DTS Sentinel unit serial number:	SN410029Multiplexer serial number:	ORYXHardware model number:	OX2-SRSoftware version number:	ORYX F/W v4,00 Oryx Data Collector v3.7.2.0data status	okinstallation	B6 Nyhavnadifferential loss correction	single-endedforward channel	channel 2reverse channel	N/Adate	2023/12/08time	04:40:08forward acquisition time	300,00reverse acquisition time	0,00gamma	499,1914k internal	0,3166k external	0,3166temperature offset calibration	1,0000default loss term (dB/km)	0,3820temperature slope calibration	1,0000multiplexer offset coefficient	1,0000multiplexer slope coefficient	1,0000fibre end	0,00T internal ref (°C)	13,05T ext. ref 1 (°C)	-3,77T ext. ref 2 (°C)	-3,75length (m)	temperature (°C)	Stokes	anti-Stokes-744,400	-165,238	0,169	0,005
-743,385	-106,896	-0,283	-0,046
-742,371	147,902	0,169	0,167
-741,356	51,187	-0,269	0,187
-740,342	-152,928	0,118	0,006
-739,327	-105,266	-0,272	-0,045
-738,312	30,087	0,135	0,085
-737,298	-148,159	-0,248	0,015
-736,283	119,422	0,078	0,071
-735,269	1,157	-0,271	0,143
-734,254	527,018	0,077	0,134
-733,239	-110,930	-0,546	-0,082
-732,225	-80,039	0,146	0,036
-731,210	146,989	0,070	0,069
-730,196	143,320	-0,030	-0,029
-729,181	-5,074	0,074	0,037
-728,167	-129,016	-0,123	0,013
-727,152	-145,403	-0,092	0,006
-726,137	472,778	-0,024	-0,039
-725,123	-200,000	0,012	-0,088
-724,108	419,179	-0,112	-0,177
-723,094	800,000	0,088	-0,190
-722,079	-86,232	-0,078	0,017
-721,064	20,915	0,113	0,067
-720,050	-40,090	-0,118	-0,045
-719,035	-200,000	0,052	-0,249
-718,021	-36,441	-0,077	0,030
-717,006	-200,000	0,007	0,031
-715,991	-82,705	-0,083	-0,020
-714,977	800,000	-0,017	-0,050
-713,962	107,061	0,086	-0,075
-712,948	-55,319	-0,030	0,010
-711,933	6,501	-0,090	0,049
-710,918	111,093	0,021	-0,018
-709,904	-58,126	-0,203	-0,065
-708,889	-135,525	-0,041	0,004
-707,875	-3,903	0,036	-0,018
-706,860	-200,000	-0,050	0,171
-705,845	124,527	0,070	0,065
-704,831	-89,843	-0,107	0,023
-703,816	-62,973	0,137	0,041
-702,802	-95,265	-0,165	0,032
-701,787	800,000	-0,034	-0,108
-700,772	-29,888	0,110	-0,046
-699,758	-200,000	-0,003	0,010
-698,743	-80,400	-0,083	-0,020
-697,729	800,000	-0,027	0,063
-696,714	-200,000	-0,001	0,076
-695,699	800,000	0,027	-0,077
-694,685	48,616	-0,097	-0,066
-693,670	308,041	-0,064	-0,088
-692,656	-99,873	0,046	0,008
-691,641	166,699	-0,002	0,003
-690,627	80,674	0,069	0,054
-689,612	340,525	0,020	-0,028
-688,597	127,610	-0,048	0,044
-687,583	317,111	-0,012	0,017
-686,568	-200,000	0,019	-0,146
-685,554	-48,276	-0,138	-0,049
-684,539	-7,562	0,103	0,051
-683,524	-200,000	-0,012	0,136
-682,510	-200,000	0,024	0,171
-681,495	137,293	0,065	-0,062
-680,481	-125,702	-0,084	-0,009
-679,466	55,269	0,033	-0,023
-678,451	-29,500	0,039	-0,016
-677,437	55,264	-0,100	0,071
-676,422	-200,000	0,046	0,152
-675,408	800,000	0,090	0,196
-674,393	-8,662	0,102	-0,050
-673,378	434,674	-0,044	-0,070
-672,364	315,190	0,013	0,017
-671,349	-200,000	-0,001	0,084
-670,335	-19,249	0,111	-0,050
-669,320	-134,625	-0,111	0,010
-668,305	-200,000	0,022	0,111
-667,291	-200,000	0,007	-0,053
-666,276	676,722	0,056	-0,108
-665,262	271,105	-0,036	0,047
-664,247	-200,000	-0,008	0,054
-663,232	-200,000	0,002	-0,025
-662,218	-165,693	0,057	-0,002
-661,203	219,608	0,041	0,048
-660,189	-200,000	-0,009	0,122
-659,174	-200,000	0,012	0,108
-658,159	184,578	0,049	0,054
-657,145	16,611	-0,149	-0,086
-656,130	800,000	-0,042	0,124
-655,116	341,642	0,033	0,047
-654,101	-200,000	0,011	0,046
-653,086	471,894	-0,059	0,098
-652,072	191,155	0,079	-0,087
-651,057	362,167	0,083	-0,122
-650,043	-200,000	0,011	-0,035
-649,028	-117,299	-0,123	0,016
-648,014	-109,850	0,134	-0,020
-646,999	123,851	0,007	0,006
-645,984	-200,000	-0,004	-0,038
-644,970	-17,701	0,098	0,045
-643,955	800,000	0,028	0,069
-642,941	303,506	0,025	-0,034
-641,926	-143,809	0,042	0,003
-640,911	469,536	0,042	0,069
-639,897	93,007	0,102	0,084
-638,882	-48,960	-0,108	0,038
-637,868	297,691	-0,064	-0,087
-636,853	-12,121	-0,066	0,031
-635,838	-200,000	-0,002	0,155
-634,824	-200,000	-0,017	0,068
-633,809	-200,000	0,030	-0,131
-632,795	2,094	-0,087	0,046
-631,780	-115,820	0,046	0,006
-630,765	23,570	0,047	-0,028
-629,751	-126,633	0,051	0,005
-628,736	-56,672	-0,111	-0,036
-627,722	119,306	0,057	0,052
-626,707	800,000	0,023	0,069
-625,692	800,000	0,024	-0,077
-624,678	534,158	-0,070	0,122
-623,663	271,402	-0,059	-0,076
-622,649	-73,165	-0,056	-0,015
-621,634	800,000	0,015	-0,039
-620,619	-8,187	-0,071	-0,035
-619,605	-128,606	-0,138	-0,014
-618,590	525,198	-0,049	0,085
-617,576	4,866	-0,042	-0,023
-616,561	-200,000	0,016	0,097
-615,546	206,412	-0,068	-0,078
-614,532	783,796	-0,045	0,090
-613,517	-86,549	-0,053	-0,012
-612,503	50,393	-0,114	0,079
-611,488	-56,844	0,047	0,015
-610,474	0,536	0,078	0,040
-609,459	-56,806	-0,111	0,036
-608,444	-200,000	-0,010	-0,146
-607,430	5,464	0,103	-0,055
-606,415	-200,000	-0,015	-0,153
-605,401	142,941	-0,088	-0,086
-604,386	800,000	0,023	0,061
-603,371	800,000	0,063	0,140
-602,357	136,240	-0,080	0,076
-601,342	-82,819	0,103	0,024
-600,328	-135,967	-0,215	-0,018
-599,313	-33,963	0,153	0,061
-598,298	-200,000	-0,003	-0,164
-597,284	-200,000	0,008	-0,100
-596,269	800,000	0,037	0,083
-595,255	-200,000	0,019	-0,083
-594,240	-55,728	-0,080	-0,026
-593,225	97,307	0,071	-0,060
-592,211	-26,378	0,032	-0,014
-591,196	17,980	-0,113	0,066
-590,182	800,000	-0,022	-0,046
-589,167	-27,704	-0,087	-0,037
-588,152	-200,000	0,003	-0,102
-587,138	198,477	-0,012	0,013
-586,123	-74,624	0,154	-0,040
-585,109	15,512	-0,102	-0,058
-584,094	-69,412	0,083	-0,023
-583,079	800,000	0,043	0,130
-582,065	-200,000	0,003	-0,093
-581,050	800,000	-0,033	0,077
-580,036	209,517	0,069	0,079
-579,021	-200,000	0,006	-0,126
-578,006	-200,000	0,003	-0,045
-576,992	-103,495	-0,087	-0,015
-575,977	-178,314	-0,098	-0,002
-574,963	800,000	-0,014	0,041
-573,948	-200,000	0,005	-0,030
-572,934	-120,875	-0,088	0,011
-571,919	-200,000	-0,019	0,141
-570,904	139,883	-0,070	0,067
-569,890	252,105	0,067	0,084
-568,875	800,000	-0,042	0,104
-567,861	56,824	-0,047	-0,033
-566,846	308,260	0,023	0,032
-565,831	299,137	-0,029	-0,039
-564,817	800,000	-0,028	0,089
-563,802	488,602	-0,022	-0,038
-562,788	119,775	-0,022	-0,020
-561,773	-200,000	-0,003	-0,050
-560,758	446,319	0,088	0,142
-559,744	-12,459	-0,103	-0,049
-558,729	173,937	0,068	-0,071
-557,715	68,637	-0,096	0,072
-556,700	757,412	-0,072	-0,143
-555,685	206,941	0,055	-0,063
-554,671	-52,266	0,027	0,009
-553,656	-200,000	0,002	0,031
-552,642	794,238	-0,015	-0,030
-551,627	-87,901	0,103	0,022
-550,612	-105,653	0,064	0,011
-549,598	-72,657	-0,018	0,005
-548,583	-110,014	0,037	-0,006
-547,569	-200,000	-0,018	-0,097
-546,554	616,305	0,024	-0,044
-545,539	726,877	-0,032	0,062
-544,525	131,314	0,045	0,042
-543,510	185,409	-0,055	0,059
-542,496	-200,000	0,038	-0,126
-541,481	-137,847	-0,055	-0,004
-540,466	-200,000	-0,008	-0,059
-539,452	-62,729	0,190	0,057
-538,437	62,861	0,074	0,054
-537,423	81,245	-0,137	0,108
-536,408	-54,748	0,022	-0,007
-535,393	107,814	-0,087	0,076
-534,379	800,000	0,049	-0,118
-533,364	68,894	-0,037	0,028
-532,350	251,114	-0,102	0,127
-531,335	-26,310	0,022	-0,009
-530,321	329,512	0,058	-0,082
-529,306	141,686	-0,058	-0,056
-528,291	800,000	-0,033	-0,072
-527,277	-102,834	0,084	-0,014
-526,262	229,161	-0,016	0,020
-525,248	800,000	0,031	0,079
-524,233	235,252	-0,038	-0,046
-523,218	800,000	-0,041	0,096
-522,204	-200,000	0,028	0,143
-521,189	478,494	0,052	-0,086
-520,175	800,000	0,011	-0,031
-519,160	800,000	-0,041	-0,101
-518,145	800,000	-0,040	-0,086
-517,131	-144,624	0,049	-0,003
-516,116	566,667	0,048	-0,085
-515,102	800,000	0,028	-0,062
-514,087	-200,000	-0,024	-0,145
-513,072	495,603	0,020	-0,034
-512,058	95,144	-0,023	-0,019
-511,043	-84,231	0,078	0,018
-510,029	290,266	-0,057	0,076
-509,014	-145,349	0,093	0,006
-507,999	-40,714	0,128	-0,048
-506,985	-144,108	-0,132	-0,009
-505,970	-54,163	-0,046	-0,015
-504,956	800,000	0,041	-0,085
-503,941	-200,000	-0,002	0,100
-502,926	-84,170	-0,050	0,011
-501,912	-200,000	0,022	-0,085
-500,897	-200,000	-0,047	-0,161
-499,883	-200,000	-0,021	0,084
-498,868	800,000	0,041	0,116
-497,853	-179,672	-0,249	0,004
-496,839	102,990	-0,062	-0,052
-495,824	13,909	0,101	0,057
-494,810	-21,656	0,107	0,047
-493,795	-200,000	-0,001	-0,072
-492,781	-140,285	-0,039	0,003
-491,766	-169,692	-0,137	0,004
-490,751	128,895	-0,076	0,071
-489,737	182,041	0,060	-0,064
-488,722	617,145	0,075	0,137
-487,708	331,436	-0,017	-0,023
-486,693	-200,000	-0,022	-0,175
-485,678	-200,000	0,022	-0,091
-484,664	-56,906	-0,142	0,045
-483,649	67,866	-0,109	-0,081
-482,635	-200,000	0,008	0,056
-481,620	363,230	-0,032	0,048
-480,605	-200,000	-0,003	-0,059
-479,591	-63,229	0,102	0,030
-478,576	278,732	0,100	-0,130
-477,562	-178,805	-0,149	-0,002
-476,547	68,278	-0,104	-0,077
-475,532	537,187	-0,052	-0,091
-474,518	-17,359	0,147	0,067
-473,503	-80,457	-0,154	-0,037
-472,489	40,460	-0,058	-0,038
-471,474	241,569	-0,049	0,059
-470,459	111,328	0,078	-0,068
-469,445	-40,056	-0,096	0,036
-468,430	800,000	0,020	-0,054
-467,416	-111,047	0,104	0,015
-466,401	-200,000	-0,005	0,065
-465,386	-152,222	0,135	0,007
-464,372	-127,282	-0,099	-0,010
-463,357	99,099	0,091	-0,076
-462,343	-4,851	-0,108	-0,054
-461,328	59,339	-0,078	-0,056
-460,313	-102,451	0,170	-0,029
-459,299	800,000	0,033	0,069
-458,284	-115,556	-0,131	-0,018
-457,270	-93,304	0,168	0,034
-456,255	349,101	-0,037	0,053
-455,241	-75,191	-0,284	0,073
-454,226	21,537	-0,051	0,030
-453,211	-142,216	0,083	-0,006
-452,197	-145,054	-0,174	-0,011
-451,182	-129,748	-0,037	0,004
-450,168	32,522	-0,023	0,014
-449,153	208,894	-0,023	0,026
-448,138	-15,926	-0,110	-0,051
-447,124	83,796	-0,153	-0,121
-446,109	-200,000	-0,001	-0,112
-445,095	125,808	0,104	0,096
-444,080	-19,411	-0,042	0,019
-443,065	800,000	-0,031	0,094
-442,051	-130,122	0,156	-0,015
-441,036	-130,427	0,114	0,011
-440,022	-0,271	-0,094	-0,049
-439,007	49,455	0,093	-0,064
-437,992	800,000	0,033	-0,100
-436,978	-200,000	0,017	0,117
-435,963	-82,225	0,119	0,028
-434,949	-97,069	-0,083	-0,016
-433,934	-200,000	0,017	-0,115
-432,919	407,047	-0,022	-0,034
-431,905	800,000	0,091	-0,184
-430,890	800,000	-0,062	0,164
-429,876	359,833	0,057	0,083
-428,861	177,524	-0,033	0,035
-427,846	336,661	0,068	0,096
-426,832	421,877	0,025	0,039
-425,817	-93,543	-0,125	-0,025
-424,803	563,775	-0,023	-0,040
-423,788	143,174	0,059	0,057
-422,773	-154,295	0,079	-0,004
-421,759	-200,000	-0,008	0,122
-420,744	46,276	0,115	0,077
-419,730	346,501	0,097	0,138
-418,715	-32,742	-0,066	-0,027
-417,701	800,000	-0,022	-0,052
-416,686	247,512	0,075	-0,093
-415,671	-35,291	0,098	-0,039
-414,657	128,297	0,102	-0,094
-413,642	-123,877	0,052	0,006
-412,628	33,504	0,049	-0,031
-411,613	-200,000	-0,024	-0,098
-410,598	-119,497	-0,102	0,013
-409,584	-122,574	0,052	-0,006
-408,569	-81,138	0,116	-0,028
-407,555	-124,141	0,089	0,010
-406,540	-200,000	0,004	0,043
-405,525	800,000	-0,010	0,029
-404,511	-200,000	0,003	-0,024
-403,496	-200,000	-0,005	0,103
-402,482	-200,000	0,004	0,047
-401,467	30,370	0,075	-0,046
-400,452	-99,568	0,083	0,015
-399,438	243,245	0,015	-0,019
-398,423	-200,000	-0,008	-0,104
-397,409	157,680	-0,062	-0,063
-396,394	443,759	-0,072	-0,115
-395,379	45,424	-0,133	-0,089
-394,365	572,408	-0,073	0,130
-393,350	409,940	0,063	-0,096
-392,336	168,559	-0,038	-0,039
-391,321	-200,000	-0,029	0,101
-390,306	800,000	0,043	-0,089
-389,292	118,039	-0,047	0,042
-388,277	124,136	-0,052	0,048
-387,263	-29,284	0,031	0,013
-386,248	-200,000	-0,001	0,008
-385,233	202,534	0,069	-0,077
-384,219	800,000	-0,048	-0,107
-383,204	126,611	0,058	-0,053
-382,190	-16,897	-0,022	-0,010
-381,175	-127,443	0,214	-0,022
-380,160	-102,513	-0,039	-0,007
-379,146	277,052	-0,065	0,085
-378,131	99,413	0,057	0,048
-377,117	12,044	0,036	0,020
-376,102	-39,286	-0,099	-0,038
-375,088	738,931	-0,019	0,037
-374,073	-82,009	-0,075	0,018
-373,058	-0,834	0,092	-0,047
-372,044	363,304	0,090	0,131
-371,029	800,000	-0,006	0,019
-370,015	-94,608	0,119	0,023
-369,000	240,171	-0,051	0,062
-367,985	140,478	0,045	0,043
-366,971	166,200	0,131	-0,135
-365,956	-200,000	0,009	-0,152
-364,942	800,000	-0,028	-0,067
-363,927	-200,000	0,033	0,154
-362,912	667,745	0,065	0,123
-361,898	-200,000	-0,007	0,122
-360,883	115,327	0,063	-0,056
-359,869	397,555	0,064	0,098
-358,854	31,055	0,035	-0,022
-357,839	800,000	0,032	-0,096
-356,825	413,703	0,050	0,077
-355,810	-30,242	-0,126	0,052
-354,796	249,778	-0,036	0,044
-353,781	-73,513	-0,029	-0,007
-352,766	79,859	0,036	0,028
-351,752	66,670	0,103	0,076
-350,737	501,410	-0,054	-0,091
-349,723	799,378	0,017	-0,033
-348,708	103,402	-0,046	0,039
-347,693	292,226	-0,074	0,098
-346,679	689,415	-0,061	0,117
-345,664	800,000	-0,030	-0,087
-344,650	27,828	-0,056	0,034
-343,635	80,848	0,019	-0,015
-342,620	800,000	0,029	-0,059
-341,606	800,000	0,050	0,148
-340,591	-84,993	0,086	-0,019
-339,577	180,419	-0,053	0,057
-338,562	379,434	0,045	0,067
-337,548	800,000	-0,027	0,066
-336,533	-200,000	0,012	0,063
-335,518	-73,607	0,116	-0,030
-334,504	800,000	-0,008	0,018
-333,489	-200,000	-0,002	0,050
-332,475	425,149	-0,057	0,089
-331,460	-4,284	-0,038	-0,019
-330,445	-94,687	-0,077	-0,015
-329,431	-200,000	-0,021	0,148
-328,416	-200,000	0,019	-0,084
-327,402	375,862	0,020	-0,029
-326,387	243,548	0,035	-0,042
-325,372	-124,871	-0,083	-0,009
-324,358	430,165	-0,031	-0,048
-323,343	-56,006	0,047	-0,015
-322,329	-99,573	0,103	-0,019
-321,314	-83,668	0,036	-0,008
-320,299	-169,009	0,122	0,003
-319,285	92,550	0,051	0,042
-318,270	616,803	0,009	-0,016
-317,256	-10,145	-0,092	-0,044
-316,241	12,485	0,045	0,025
-315,226	800,000	0,024	-0,051
-314,212	-200,000	0,003	-0,030
-313,197	226,556	-0,022	0,025
-312,183	10,691	-0,142	0,078
-311,168	167,910	0,106	0,109
-310,153	85,886	0,075	-0,059
-309,139	-155,652	-0,080	0,004
-308,124	-200,000	-0,033	0,130
-307,110	149,445	-0,031	0,030
-306,095	105,052	0,072	0,061
-305,080	-200,000	0,033	0,144
-304,066	-141,556	0,072	0,005
-303,051	-200,000	0,002	0,047
-302,037	-188,458	-0,072	0,001
-301,022	800,000	-0,031	-0,064
-300,008	-158,312	-0,115	0,005
-298,993	6,993	0,112	0,060
-297,978	619,618	0,079	0,144
-296,964	325,533	0,073	-0,102
-295,949	-38,200	0,041	-0,016
-294,935	506,752	0,062	-0,105
-293,920	800,000	0,047	-0,095
-292,905	-200,000	-0,014	0,067
-291,891	800,000	0,005	0,013
-290,876	233,213	-0,023	0,027
-289,862	800,000	-0,021	-0,046
-288,847	800,000	-0,052	0,109
-287,832	62,389	0,073	-0,053
-286,818	147,790	-0,189	-0,185
-285,803	-91,921	0,120	-0,024
-284,789	-185,558	-0,014	-0,000
-283,774	-179,647	0,114	-0,002
-282,759	75,882	-0,032	0,024
-281,745	-105,523	-0,128	-0,021
-280,730	602,766	-0,052	0,094
-279,716	-105,646	-0,088	-0,014
-278,701	197,407	0,040	-0,045
-277,686	25,087	-0,012	-0,007
-276,672	800,000	0,020	0,046
-275,657	75,143	-0,056	0,043
-274,643	342,872	-0,080	-0,114
-273,628	-125,683	-0,108	0,012
-272,613	-200,000	-0,036	-0,153
-271,599	-87,374	-0,135	-0,029
-270,584	-200,000	0,010	0,059
-269,570	137,413	0,079	0,074
-268,555	-71,157	0,050	0,014
-267,540	330,271	0,018	0,024
-266,526	-200,000	-0,019	-0,091
-265,511	800,000	-0,083	0,186
-264,497	-200,000	-0,012	0,091
-263,482	800,000	-0,020	0,049
-262,467	396,431	0,056	0,085
-261,453	-140,217	0,061	-0,005
-260,438	16,494	-0,023	0,013
-259,424	385,116	0,065	-0,097
-258,409	-32,749	-0,074	-0,030
-257,395	-96,275	0,081	0,015
-256,380	-200,000	0,003	0,080
-255,365	220,661	-0,043	-0,050
-254,351	605,509	0,016	0,030
-253,336	55,190	-0,025	-0,017
-252,322	78,534	-0,101	-0,078
-251,307	-200,000	0,019	-0,100
-250,292	-200,000	0,005	-0,031
-249,278	-143,981	-0,069	0,005
-248,263	-35,824	0,071	-0,028
-247,249	49,389	-0,068	-0,046
-246,234	800,000	0,015	0,045
-245,219	-13,723	-0,079	-0,037
-244,205	800,000	-0,045	-0,092
-243,190	-150,516	0,032	0,002
-242,176	-54,305	0,016	-0,005
-241,161	-200,000	-0,010	-0,069
-240,146	195,797	-0,066	-0,072
-239,132	800,000	-0,054	-0,135
-238,117	23,605	-0,082	-0,049
-237,103	800,000	0,057	-0,128
-236,088	106,188	-0,073	-0,062
-235,073	-32,172	0,208	0,083
-234,059	800,000	0,002	-0,005
-233,044	-200,000	-0,005	0,112
-232,030	179,014	-0,057	0,060
-231,015	-15,292	-0,025	-0,011
-230,000	13,512	-0,019	0,011
-228,986	91,740	0,057	0,046
-227,971	-200,000	-0,025	-0,150
-226,957	-200,000	-0,098	0,000
-225,942	-200,000	-0,009	0,130
-224,927	-200,000	0,027	0,153
-223,913	48,014	0,043	-0,029
-222,898	168,149	-0,082	-0,084
-221,884	-200,000	-0,025	-0,256
-220,869	-200,000	0,010	-0,059
-219,855	-12,531	0,097	0,045
-218,840	-200,000	-0,017	0,063
-217,825	-12,651	0,047	-0,022
-216,811	125,687	-0,015	-0,014
-215,796	-103,690	-0,082	0,014
-214,782	-200,000	0,008	-0,069
-213,767	-58,702	0,180	0,056
-212,752	6,788	0,076	0,041
-211,738	114,016	-0,030	-0,026
-210,723	349,094	0,043	-0,061
-209,709	-177,363	0,146	-0,003
-208,694	-154,579	0,059	0,003
-207,679	221,263	-0,057	0,066
-206,665	268,099	-0,019	0,024
-205,650	800,000	0,040	0,099
-204,636	4,401	0,189	-0,100
-203,621	800,000	-0,032	0,069
-202,606	667,456	0,019	-0,036
-201,592	-78,015	-0,099	0,024
-200,577	529,574	0,031	-0,053
-199,563	104,681	0,141	0,119
-198,548	-200,000	0,025	-0,083
-197,533	38,345	0,089	-0,057
-196,519	-168,414	0,060	-0,002
-195,504	117,674	-0,144	-0,128
-194,490	130,744	0,039	-0,036
-193,475	-93,361	0,127	-0,025
-192,460	34,711	-0,125	-0,079
-191,446	-200,000	-0,000	-0,091
-190,431	-23,689	0,010	-0,004
-189,417	433,914	-0,019	-0,030
-188,402	-200,000	0,004	0,071
-187,387	87,719	-0,109	-0,087
-186,373	-200,000	-0,001	0,045
-185,358	-200,000	-0,001	0,048
-184,344	-12,519	-0,032	0,015
-183,329	-200,000	-0,000	0,032
-182,315	184,110	-0,028	-0,030
-181,300	148,350	0,077	0,074
-180,285	23,603	-0,040	0,024
-179,271	503,550	0,029	0,048
-178,256	-200,000	-0,027	0,091
-177,242	214,548	0,077	0,087
-176,227	261,313	-0,029	0,036
-175,212	-29,459	0,059	0,024
-174,198	88,701	-0,097	0,078
-173,183	248,203	-0,051	-0,062
-172,169	214,493	0,021	-0,024
-171,154	-200,000	0,022	-0,072
-170,139	800,000	0,017	-0,050
-169,125	-200,000	-0,027	0,102
-168,110	223,256	0,142	0,165
-167,096	618,821	-0,028	-0,051
-166,081	-167,787	0,059	-0,002
-165,066	-200,000	0,006	0,188
-164,052	-44,487	0,117	0,042
-163,037	260,599	0,075	-0,093
-162,023	800,000	-0,010	-0,032
-161,008	-200,000	-0,013	-0,098
-159,993	800,000	-0,073	-0,153
-158,979	-68,378	-0,084	0,023
-157,964	-63,103	-0,076	0,022
-156,950	122,372	0,082	0,073
-155,935	-200,000	-0,005	0,145
-154,920	-180,478	0,099	-0,001
-153,906	446,822	-0,094	0,149
-152,891	46,176	0,053	-0,035
-151,877	-200,000	0,042	-0,140
-150,862	-108,109	0,175	-0,027
-149,847	255,865	-0,045	0,055
-148,833	-200,000	0,016	0,062
-147,818	800,000	0,019	0,053
-146,804	-128,510	0,096	-0,010
-145,789	-200,000	0,029	0,097
-144,775	-114,736	0,057	0,008
-143,760	202,974	0,023	0,026
-142,745	396,877	-0,096	0,145
-141,731	800,000	0,025	0,079
-140,716	-130,185	0,022	-0,002
-139,702	10,255	0,094	0,051
-138,687	-200,000	-0,035	0,209
-137,672	43,780	-0,018	0,012
-136,658	83,820	-0,086	-0,067
-135,643	-133,338	0,092	-0,008
-134,629	-200,000	0,020	-0,129
-133,614	-78,491	0,151	-0,037
-132,599	445,147	-0,089	0,141
-131,585	733,540	-0,014	-0,026
-130,570	-200,000	-0,020	0,068
-129,556	178,247	0,029	-0,030
-128,541	-143,471	-0,087	0,006
-127,526	18,436	0,100	0,057
-126,512	800,000	-0,030	-0,073
-125,497	-47,339	0,128	-0,045
-124,483	-200,000	0,009	-0,177
-123,468	143,462	-0,133	0,128
-122,453	275,465	0,025	-0,031
-121,439	800,000	-0,015	-0,036
-120,424	265,142	0,034	0,042
-119,410	800,000	0,054	-0,108
-118,395	-200,000	-0,002	0,031
-117,380	575,822	0,100	0,177
-116,366	800,000	-0,042	-0,120
-115,351	-125,052	-0,033	0,004
-114,337	-111,630	0,137	0,020
-113,322	-200,000	0,001	0,020
-112,307	-13,029	-0,089	0,042
-111,293	-24,727	0,072	0,031
-110,278	-200,000	0,024	0,102
-109,264	46,265	0,095	-0,063
-108,249	57,710	0,058	0,041
-107,234	32,117	-0,052	0,032
-106,220	22,215	-0,068	-0,040
-105,205	-43,677	-0,053	-0,019
-104,191	165,083	0,142	0,144
-103,176	-200,000	-0,014	0,082
-102,162	225,483	-0,104	-0,121
-101,147	684,879	-0,054	-0,102
-100,132	800,000	0,034	-0,103
-99,118	-36,300	0,062	-0,024
-98,103	-200,000	0,025	-0,168
-97,089	-49,834	-0,064	-0,022
-96,074	144,866	-0,011	-0,010
-95,059	-36,642	0,146	-0,056
-94,045	-200,000	0,032	-0,126
-93,030	-200,000	0,031	0,100
-92,016	59,482	-0,026	-0,018
-91,001	-200,000	0,027	-0,153
-89,986	800,000	0,034	0,085
-88,972	-44,604	0,170	0,061
-87,957	-48,637	-0,120	-0,041
-86,943	-200,000	0,000	-0,002
-85,928	654,172	-0,046	-0,085
-84,913	154,591	-0,027	-0,027
-83,899	800,000	-0,045	-0,119
-82,884	94,501	0,066	-0,053
-81,870	-69,857	-0,077	0,021
-80,855	-200,000	0,002	-0,029
-79,840	-27,197	0,096	0,040
-78,826	-29,610	0,103	0,042
-77,811	-88,064	-0,051	-0,011
-76,797	-104,349	0,038	0,006
-75,782	256,138	0,114	0,140
-74,767	800,000	0,027	0,080
-73,753	-116,713	-0,065	-0,008
-72,738	132,005	0,072	-0,067
-71,724	185,627	-0,058	0,062
-70,709	-95,744	0,030	-0,006
-69,694	59,667	0,044	-0,031
-68,680	-200,000	-0,023	0,121
-67,665	-200,000	-0,026	0,115
-66,651	45,984	-0,089	0,059
-65,636	-200,000	0,018	0,079
-64,622	800,000	0,006	0,019
-63,607	59,148	-0,098	0,069
-62,592	445,824	-0,058	-0,092
-61,578	25,269	-0,033	0,020
-60,563	800,000	-0,039	0,119
-59,549	-152,504	-0,071	-0,004
-58,534	33,723	-2,380	-1,479
-57,519	-200,000	0,048	-0,816
-56,505	-200,000	-1,446	-5,223
-55,490	101,817	0,920	0,768
-54,476	800,000	5,506	12,119
-53,461	-200,000	19,051	320,972
-52,446	800,000	741,982	2324,803
-51,432	548,582	1654,622	2848,437
-50,417	109,648	1637,318	1404,447
-49,403	73,227	1287,874	963,116
-48,388	29,359	1029,525	624,686
-47,373	19,582	992,555	569,937
-46,359	16,851	980,343	553,935
-45,344	13,438	976,561	540,577
-44,330	13,769	974,845	540,692
-43,315	13,124	972,838	537,448
-42,300	13,062	972,011	536,766
-41,286	13,046	971,132	536,208
-40,271	13,054	970,183	535,686
-39,257	13,055	969,232	535,146
-38,242	13,098	968,147	534,666
-37,227	13,089	967,537	534,278
-36,213	13,071	966,429	533,585
-35,198	13,009	965,790	533,009
-34,184	13,111	965,044	532,908
-33,169	13,003	964,189	532,064
-32,154	13,040	963,151	531,592
-31,140	13,079	962,253	531,201
-30,125	13,069	961,524	530,744
-29,111	13,059	960,692	530,233
-28,096	13,111	960,012	530,002
-27,082	13,043	959,341	529,392
-26,067	13,104	958,655	529,191
-25,052	13,068	957,769	528,563
-24,038	13,104	956,932	528,198
-23,023	13,116	956,445	527,945
-22,009	13,116	955,937	527,645
-20,994	13,080	955,251	527,127
-19,979	13,103	954,579	526,812
-18,965	13,023	954,166	526,306
-17,950	13,114	953,394	526,151
-16,936	13,049	952,997	525,703
-15,921	13,071	952,042	525,227
-14,906	12,977	951,256	524,469
-13,892	13,027	950,653	524,276
-12,877	12,919	950,230	523,676
-11,863	12,974	949,393	523,372
-10,848	12,937	949,110	523,077
-9,833	13,055	948,512	523,103
-8,819	13,031	947,661	522,536
-7,804	13,028	947,050	522,168
-6,790	12,963	946,436	521,603
-5,775	13,042	946,033	521,610
-4,760	13,033	945,337	521,177
-3,746	12,918	944,940	520,573
-2,731	12,845	944,059	519,836
-1,717	12,786	943,278	519,196
-0,702	12,841	942,684	519,026
0,313	12,639	942,061	518,826
1,327	16,136	939,830	528,594
2,342	25,357	790,201	468,728
3,356	21,399	445,338	258,272
4,371	-7,980	298,910	143,661
5,386	-11,661	280,733	131,385
6,400	-12,981	274,984	127,443
7,415	-12,939	272,630	126,380
8,429	-13,118	271,208	125,543
9,444	-13,301	270,389	124,984
10,459	-12,959	269,545	124,898
11,473	-13,236	268,996	124,378
12,488	-13,388	268,481	123,989
13,502	-13,419	267,779	123,625
14,517	-13,654	267,590	123,313
15,531	-13,278	267,020	123,382
16,546	-13,308	266,726	123,208
17,561	-13,311	266,290	122,993
18,575	-13,073	265,844	122,991
19,590	-13,425	265,631	122,563
20,604	-13,251	265,209	122,514
21,619	-13,195	264,897	122,410
22,634	-13,415	264,609	122,068
23,648	-13,462	264,364	121,901
24,663	-13,393	264,111	121,836
25,677	-13,297	263,728	121,735
26,692	-13,352	263,484	121,561
27,707	-13,454	263,206	121,331
28,721	-13,432	262,858	121,180
29,736	-13,592	262,673	120,940
30,750	-13,530	262,398	120,858
31,765	-13,708	262,245	120,618
32,780	-13,528	261,949	120,632
33,794	-13,565	261,672	120,460
34,809	-13,437	261,433	120,453
35,823	-13,478	261,192	120,295
36,838	-13,630	260,921	120,024
37,853	-13,653	260,777	119,927
38,867	-13,488	260,347	119,865
39,882	-13,653	260,114	119,601
40,896	-13,672	260,056	119,547
41,911	-13,680	259,834	119,427
42,926	-13,667	259,442	119,248
43,940	-13,490	259,244	119,302
44,955	-13,716	259,064	119,009
45,969	-13,710	258,719	118,846
46,984	-13,833	258,490	118,622
47,999	-14,130	258,196	118,215
49,013	-14,189	257,918	118,025
50,028	-14,310	257,688	117,803
51,042	-14,473	257,491	117,559
52,057	-14,310	257,094	117,511
53,071	-14,277	256,928	117,453
54,086	-14,193	256,905	117,505
55,101	-14,137	256,634	117,420
56,115	-13,964	256,539	117,518
57,130	-13,605	256,573	117,835
58,144	-13,245	256,199	117,968
59,159	-13,201	256,058	117,930
60,174	-13,235	255,661	117,707
61,188	-13,435	255,611	117,500
62,203	-13,343	255,377	117,461
63,217	-13,347	255,240	117,385
64,232	-13,537	254,950	117,076
65,247	-13,428	254,844	117,112
66,261	-13,104	254,400	117,177
67,276	-13,716	254,221	116,556
68,290	-13,977	254,012	116,223
69,305	-14,180	253,721	115,906
70,320	-13,901	253,414	115,996
71,334	-13,706	253,371	116,133
72,349	-13,273	253,178	116,407
73,363	-13,325	253,022	116,280
74,378	-13,302	252,796	116,185
75,393	-13,395	252,550	115,982
76,407	-13,464	252,417	115,852
77,422	-13,391	252,175	115,793
78,436	-13,425	251,999	115,673
79,451	-13,314	251,662	115,603
80,466	-13,539	251,552	115,350
81,480	-13,744	251,161	114,985
82,495	-13,773	251,029	114,889
83,509	-13,465	250,850	115,059
84,524	-13,578	250,612	114,844
85,539	-13,846	250,329	114,476
86,553	-13,934	250,353	114,402
87,568	-13,814	250,034	114,348
88,582	-13,751	249,724	114,250
89,597	-13,702	249,664	114,254
90,611	-13,624	249,558	114,261
91,626	-13,595	249,426	114,215
92,641	-13,581	249,209	114,117
93,655	-13,464	248,853	114,042
94,670	-13,845	248,857	113,712
95,684	-13,726	248,622	113,695
96,699	-13,703	248,371	113,590
97,714	-13,627	248,023	113,484
98,728	-13,835	248,071	113,321
99,743	-13,823	247,715	113,159
100,757	-13,799	247,407	113,028
101,772	-13,802	247,269	112,953
102,787	-13,971	247,208	112,773
103,801	-13,788	246,987	112,816
104,816	-13,639	246,737	112,816
105,830	-13,457	246,759	112,968
106,845	-13,483	246,550	112,840
107,860	-13,458	246,287	112,731
108,874	-13,683	246,121	112,458
109,889	-13,569	245,888	112,436
110,903	-13,816	245,607	112,092
111,918	-13,776	245,436	112,037
112,933	-13,613	245,339	112,119
113,947	-13,520	245,182	112,114
114,962	-13,571	244,930	111,946
115,976	-13,467	244,738	111,935
116,991	-13,549	244,763	111,868
118,006	-13,537	244,555	111,773
119,020	-13,497	244,390	111,720
120,035	-13,459	244,199	111,654
121,049	-13,399	244,087	111,643
122,064	-13,504	243,988	111,501
123,079	-13,564	243,518	111,227
124,093	-13,657	243,191	110,991
125,108	-13,807	243,184	110,855
126,122	-13,743	242,724	110,688
127,137	-14,007	242,551	110,382
128,151	-14,054	242,575	110,344
129,166	-13,972	242,483	110,360
130,181	-13,910	242,162	110,255
131,195	-13,833	241,781	110,134
132,210	-13,714	241,737	110,202
133,224	-13,529	241,737	110,344
134,239	-13,670	241,601	110,156
135,254	-13,650	241,269	110,012
136,268	-13,670	241,050	109,886
137,283	-13,982	240,789	109,503
138,297	-13,944	240,586	109,432
139,312	-13,920	240,424	109,368
140,327	-13,516	240,445	109,696
141,341	-13,167	240,225	109,869
142,356	-13,253	240,260	109,806
143,370	-13,007	239,987	109,870
144,385	-13,135	239,697	109,624
145,400	-13,223	239,656	109,524
146,414	-13,179	239,372	109,421
147,429	-13,344	239,267	109,229
148,443	-13,243	239,198	109,270
149,458	-13,438	238,791	108,916
150,473	-13,095	238,666	109,126
151,487	-13,298	238,518	108,885
152,502	-13,177	238,332	108,888
153,516	-13,240	238,232	108,782
154,531	-13,159	238,062	108,760
155,546	-13,103	237,740	108,648
156,560	-13,277	237,758	108,507
157,575	-13,632	237,521	108,104
158,589	-13,374	237,258	108,181
159,604	-13,037	237,152	108,393
160,619	-13,199	237,170	108,262
161,633	-12,970	236,981	108,349
162,648	-13,050	236,699	108,147
163,662	-13,153	236,526	107,976
164,677	-13,093	236,386	107,951
165,692	-13,233	236,283	107,782
166,706	-13,125	236,134	107,790
167,721	-13,125	236,024	107,731
168,735	-13,094	235,897	107,688
169,750	-13,219	235,680	107,480
170,764	-13,186	235,571	107,447
171,779	-13,157	235,430	107,396
172,794	-12,999	235,270	107,439
173,808	-13,347	234,939	107,003
174,823	-13,628	234,597	106,615
175,837	-13,917	234,465	106,317
176,852	-13,489	234,537	106,678
177,867	-13,334	234,386	106,723
178,881	-13,144	234,258	106,804
179,896	-13,050	233,911	106,711
180,910	-13,232	233,906	106,556
181,925	-13,142	233,770	106,555
182,940	-13,051	233,640	106,558
183,954	-12,951	233,398	106,517
184,969	-12,792	233,335	106,604
185,983	-13,073	233,188	106,306
186,998	-13,013	232,914	106,219
188,013	-13,125	232,735	106,040
189,027	-13,170	232,696	105,977
190,042	-13,051	232,557	105,998
191,056	-12,812	232,363	106,086
192,071	-12,971	232,157	105,859
193,086	-13,014	232,004	105,747
194,100	-12,819	231,790	105,791
195,115	-13,237	231,317	105,241
196,129	-13,207	231,636	105,400
197,144	-7,698	233,339	110,482
198,159	-1,740	235,058	115,977
199,173	2,271	236,318	119,753
200,188	3,009	236,389	120,359
201,202	3,042	236,166	120,261
202,217	3,178	236,033	120,289
203,232	3,241	235,907	120,265
204,246	3,257	235,869	120,247
205,261	3,432	235,666	120,270
206,275	3,663	235,511	120,361
207,290	3,694	235,422	120,329
208,304	3,482	235,232	120,055
209,319	3,434	235,074	119,927
210,334	3,153	234,974	119,645
211,348	3,204	234,558	119,462
212,363	2,856	234,461	119,131
213,377	2,635	234,286	118,859
214,392	2,632	234,024	118,714
215,407	2,733	233,948	118,742
216,421	3,053	233,768	118,890
217,436	2,861	233,558	118,623
218,450	2,551	233,318	118,250
219,465	2,674	233,163	118,256
220,480	2,514	233,083	118,081
221,494	2,447	232,943	117,948
222,509	2,922	232,947	118,307
223,523	2,773	232,607	118,009
224,538	2,661	232,527	117,871
225,553	2,742	232,422	117,869
226,567	2,854	232,158	117,812
227,582	3,139	232,003	117,943
228,596	3,035	232,078	117,890
229,611	2,706	231,968	117,570
230,626	2,491	231,450	117,131
231,640	2,502	231,418	117,113
232,655	2,797	231,332	117,286
233,669	3,069	231,293	117,465
234,684	3,184	231,126	117,457
235,699	3,066	230,934	117,259
236,713	2,858	230,764	117,003
237,728	2,685	230,694	116,824
238,742	2,483	230,281	116,451
239,757	2,814	230,257	116,681
240,772	2,456	230,148	116,342
241,786	2,560	229,864	116,267
242,801	2,882	229,808	116,474
243,815	2,994	229,842	116,566
244,830	3,237	229,686	116,662
245,844	2,797	229,422	116,182
246,859	2,730	229,149	115,983
247,874	3,187	229,126	116,309
248,888	2,982	229,000	116,079
249,903	2,946	228,837	115,958
250,917	2,576	228,687	115,591
251,932	2,778	228,412	115,595
252,947	2,798	228,241	115,514
253,961	2,597	228,217	115,339
254,976	2,721	227,890	115,257
255,990	3,025	227,899	115,480
257,005	3,141	227,768	115,492
258,020	2,924	227,657	115,261
259,034	3,122	227,503	115,322
260,049	2,756	227,290	114,928
261,063	2,959	227,139	114,995
262,078	3,075	227,175	115,090
263,093	3,108	226,864	114,948
264,107	3,023	226,957	114,920
265,122	3,020	226,720	114,787
266,136	3,189	226,729	114,908
267,151	3,122	226,484	114,724
268,166	2,750	226,141	114,261
269,180	2,448	225,859	113,882
270,195	2,488	225,791	113,868
271,209	2,585	225,630	113,850
272,224	2,751	225,650	113,974
273,239	2,787	225,352	113,839
274,253	2,700	225,267	113,721
275,268	2,496	225,046	113,448
276,282	2,296	224,805	113,167
277,297	2,390	224,813	113,231
278,312	2,497	224,772	113,281
279,326	2,659	224,601	113,304
280,341	2,865	224,519	113,406
281,355	2,688	224,482	113,246
282,370	2,621	224,328	113,108
283,384	2,608	223,929	112,887
284,399	2,522	223,762	112,729
285,414	2,559	223,655	112,693
286,428	2,804	223,495	112,783
287,443	3,080	223,377	112,918
288,457	2,846	223,251	112,671
289,472	2,506	223,162	112,365
290,487	2,195	222,846	111,966
291,501	2,331	222,707	111,987
292,516	2,231	222,723	111,911
293,530	2,454	222,464	111,936
294,545	2,357	222,444	111,844
295,560	2,740	222,189	111,987
296,574	2,848	222,071	111,997
297,589	2,556	221,918	111,696
298,603	2,735	221,961	111,838
299,618	2,693	221,750	111,691
300,633	2,784	221,584	111,664
301,647	2,975	221,558	111,781
302,662	3,043	221,321	111,701
303,676	3,022	221,113	111,571
304,691	3,106	221,116	111,624
305,706	3,009	220,983	111,477
306,720	3,078	220,797	111,423
307,735	2,799	220,617	111,118
308,749	2,451	220,384	110,738
309,764	3,149	220,124	111,105
310,779	3,019	220,116	110,996
311,793	3,004	219,921	110,877
312,808	2,894	219,816	110,735
313,822	3,045	219,693	110,772
314,837	2,688	219,521	110,417
315,852	2,622	219,378	110,288
316,866	2,660	219,320	110,276
317,881	2,971	219,174	110,418
318,895	2,734	219,071	110,184
319,910	2,669	218,797	109,990
320,925	2,357	218,467	109,589
321,939	1,937	218,467	109,277
322,954	2,325	218,420	109,523
323,968	2,746	218,431	109,822
324,983	2,802	218,296	109,785
325,997	2,695	218,192	109,646
327,012	2,748	217,907	109,531
328,027	2,907	217,745	109,554
329,041	3,152	217,775	109,735
330,056	3,011	217,656	109,565
331,070	2,691	217,360	109,176
332,085	2,355	217,214	108,853
333,100	2,742	217,071	109,048
334,114	2,933	216,795	109,036
335,129	2,655	216,751	108,806
336,143	2,318	216,556	108,458
337,158	2,430	216,605	108,553
338,173	2,743	216,449	108,688
339,187	2,741	216,332	108,618
340,202	2,515	216,139	108,350
341,216	2,463	215,982	108,226
342,231	2,645	215,805	108,256
343,246	2,842	215,644	108,306
344,260	2,602	215,538	108,072
345,275	2,771	215,545	108,187
346,289	3,046	215,370	108,284
347,304	2,701	215,268	107,979
348,319	2,630	215,048	107,808
349,333	2,738	214,853	107,777
350,348	2,883	214,793	107,840
351,362	3,269	214,672	108,042
352,377	2,886	214,580	107,715
353,392	2,723	214,442	107,522
354,406	2,972	214,297	107,616
355,421	196,728	1314,372	1390,898
356,435	157,413	1448,336	1390,840
