DTS Sentinel unit serial number:	SN410029Multiplexer serial number:	ORYXHardware model number:	OX2-SRSoftware version number:	ORYX F/W v4,00 Oryx Data Collector v3.7.2.0data status	okinstallation	B6 Nyhavnadifferential loss correction	single-endedforward channel	channel 2reverse channel	N/Adate	2023/12/07time	14:45:08forward acquisition time	300,00reverse acquisition time	0,00gamma	499,1914k internal	0,3145k external	0,3145temperature offset calibration	1,0000default loss term (dB/km)	0,3820temperature slope calibration	1,0000multiplexer offset coefficient	1,0000multiplexer slope coefficient	1,0000fibre end	0,00T internal ref (°C)	13,96T ext. ref 1 (°C)	-1,77T ext. ref 2 (°C)	-1,76length (m)	temperature (°C)	Stokes	anti-Stokes-744,400	110,292	0,046	0,041
-743,385	-144,378	-0,367	0,025
-742,371	-131,911	0,156	-0,015
-741,356	-142,916	-0,232	0,016
-740,342	1,400	0,199	0,106
-739,327	-63,967	-0,227	-0,068
-738,312	51,103	0,131	-0,092
-737,298	-22,619	-0,245	-0,109
-736,283	-48,439	0,106	0,038
-735,269	4,255	-0,399	0,216
-734,254	800,000	0,014	0,033
-733,239	-20,907	-0,503	-0,227
-732,225	75,873	0,215	0,168
-731,210	413,021	-0,090	0,141
-730,196	800,000	-0,009	-0,021
-729,181	-200,000	0,017	-0,070
-728,167	75,920	-0,041	-0,032
-727,152	588,851	0,100	-0,183
-726,137	-76,034	-0,156	-0,041
-725,123	-200,000	0,001	-0,157
-724,108	800,000	-0,065	-0,151
-723,094	72,665	-0,110	-0,085
-722,079	-45,371	-0,066	-0,024
-721,064	-120,869	0,108	0,013
-720,050	800,000	0,025	-0,078
-719,035	78,129	-0,114	-0,090
-718,021	-79,365	-0,172	0,043
-717,006	-34,507	0,074	0,030
-715,991	79,563	-0,075	-0,060
-714,977	-200,000	0,016	-0,121
-713,962	-51,278	-0,113	-0,039
-712,948	52,961	-0,161	0,114
-711,933	-72,686	-0,147	-0,040
-710,918	800,000	0,059	0,171
-709,904	-117,756	-0,077	-0,010
-708,889	87,246	-0,049	0,040
-707,875	-148,405	0,055	0,003
-706,860	-37,233	-0,022	0,009
-705,845	-200,000	0,033	0,136
-704,831	356,290	0,036	0,053
-703,816	193,245	-0,112	-0,126
-702,802	113,231	-0,111	0,099
-701,787	241,753	-0,176	-0,218
-700,772	-200,000	0,004	-0,072
-699,758	-31,121	0,043	0,018
-698,743	18,673	0,050	-0,030
-697,729	495,411	-0,021	-0,035
-696,714	457,328	-0,033	-0,055
-695,699	171,252	-0,083	-0,088
-694,685	-200,000	0,002	-0,070
-693,670	644,979	-0,067	-0,128
-692,656	-200,000	0,005	-0,085
-691,641	-52,013	-0,058	-0,020
-690,627	85,790	0,039	0,032
-689,612	52,305	-0,033	0,023
-688,597	-200,000	-0,006	0,052
-687,583	-0,530	0,071	0,037
-686,568	-27,306	-0,094	-0,040
-685,554	286,266	-0,032	-0,042
-684,539	-91,947	0,053	0,011
-683,524	352,198	0,023	0,034
-682,510	-200,000	0,029	0,098
-681,495	220,262	-0,028	0,033
-680,481	14,373	-0,209	-0,120
-679,466	800,000	-0,019	-0,053
-678,451	397,783	-0,088	0,136
-677,437	-37,107	0,198	-0,078
-676,422	-0,227	0,020	0,011
-675,408	-27,439	-0,078	-0,033
-674,393	310,442	-0,040	0,055
-673,378	-26,481	-0,197	0,085
-672,364	-200,000	-0,001	-0,060
-671,349	-200,000	-0,007	-0,033
-670,335	800,000	-0,012	0,035
-669,320	-67,286	0,099	-0,029
-668,305	-29,575	0,039	-0,016
-667,291	-111,974	0,171	-0,025
-666,276	-200,000	-0,011	0,072
-665,262	408,618	-0,069	-0,108
-664,247	144,864	0,012	0,012
-663,232	800,000	0,092	0,224
-662,218	106,755	0,067	0,059
-661,203	800,000	-0,044	0,138
-660,189	123,490	-0,028	-0,026
-659,174	-200,000	0,014	-0,064
-658,159	-112,572	-0,177	-0,026
-657,145	-74,781	-0,170	0,045
-656,130	-82,587	0,161	0,038
-655,116	114,648	-0,100	-0,090
-654,101	49,646	0,062	0,043
-653,086	-82,590	-0,092	-0,022
-652,072	-171,658	0,094	-0,002
-651,057	120,492	-0,097	-0,089
-650,043	-26,047	-0,165	-0,071
-649,028	-200,000	-0,007	0,048
-648,014	51,121	-0,014	-0,010
-646,999	-111,736	0,097	0,014
-645,984	-49,511	0,038	-0,013
-644,970	574,116	0,082	-0,148
-643,955	154,358	0,043	-0,044
-642,941	-78,124	0,104	-0,026
-641,926	-119,454	-0,154	0,019
-640,911	1,579	0,044	0,023
-639,897	58,097	0,132	0,095
-638,882	99,520	-0,049	0,042
-637,868	252,160	-0,099	0,125
-636,853	370,086	0,022	0,032
-635,838	-123,196	-0,095	-0,011
-634,824	81,289	-0,151	-0,121
-633,809	-200,000	0,018	-0,157
-632,795	667,970	-0,008	0,015
-631,780	-134,481	0,079	-0,007
-630,765	-131,910	0,036	-0,003
-629,751	167,050	0,037	-0,039
-628,736	120,303	-0,088	-0,081
-627,722	204,749	0,050	0,057
-626,707	-132,558	-0,068	0,006
-625,692	800,000	0,023	0,068
-624,678	-27,979	0,195	0,083
-623,663	800,000	-0,019	-0,041
-622,649	-159,410	-0,095	0,004
-621,634	-119,501	0,103	-0,013
-620,619	-27,302	-0,113	0,048
-619,605	-114,251	0,055	0,008
-618,590	-20,037	-0,061	-0,028
-617,576	-71,690	-0,061	-0,017
-616,561	-131,889	-0,073	0,007
-615,546	62,364	0,037	0,027
-614,532	-200,000	-0,010	-0,137
-613,517	-86,777	0,033	-0,007
-612,503	67,077	-0,023	-0,017
-611,488	-200,000	-0,017	-0,117
-610,474	-120,849	0,153	0,019
-609,459	37,746	0,041	-0,027
-608,444	224,667	0,044	-0,053
-607,430	294,886	-0,017	0,023
-606,415	-200,000	-0,005	-0,179
-605,401	800,000	0,043	0,111
-604,386	800,000	-0,011	0,027
-603,371	299,426	-0,044	-0,059
-602,357	317,403	-0,044	0,062
-601,342	-64,121	-0,063	-0,019
-600,328	61,731	-0,040	0,029
-599,313	-74,854	0,025	0,007
-598,298	-152,965	0,187	-0,010
-597,284	-107,450	0,129	0,021
-596,269	-200,000	0,003	0,022
-595,255	-73,169	0,017	0,005
-594,240	106,024	0,036	-0,031
-593,225	800,000	-0,030	-0,078
-592,211	15,381	0,070	-0,040
-591,196	-170,642	0,070	0,002
-590,182	37,819	0,086	-0,056
-589,167	-200,000	-0,003	0,082
-588,152	80,068	0,088	-0,070
-587,138	92,087	0,096	-0,080
-586,123	-129,708	-0,098	-0,010
-585,109	242,535	-0,033	-0,041
-584,094	81,402	0,023	0,018
-583,079	-83,028	0,142	0,033
-582,065	-31,395	-0,090	0,037
-581,050	800,000	-0,065	-0,148
-580,036	524,332	0,034	-0,058
-579,021	-200,000	0,009	-0,077
-578,006	-200,000	0,010	-0,105
-576,992	251,724	0,069	0,087
-575,977	-95,613	0,045	0,009
-574,963	-26,500	-0,126	-0,054
-573,948	333,754	0,093	0,133
-572,934	-77,659	0,067	-0,017
-571,919	32,930	-0,070	0,044
-570,904	569,918	0,034	-0,061
-569,890	0,624	0,153	-0,080
-568,875	-200,000	-0,029	-0,181
-567,861	187,984	0,034	-0,037
-566,846	140,545	0,020	0,020
-565,831	195,180	0,055	0,062
-564,817	30,911	0,082	0,051
-563,802	58,816	-0,093	-0,067
-562,788	148,661	-0,075	0,075
-561,773	-200,000	-0,014	-0,062
-560,758	22,009	0,066	0,039
-559,744	372,467	0,116	-0,174
-558,729	94,966	-0,107	0,089
-557,715	14,437	-0,110	0,063
-556,700	-200,000	0,007	-0,113
-555,685	-200,000	0,026	-0,136
-554,671	-200,000	-0,017	0,113
-553,656	-200,000	0,035	0,153
-552,642	54,610	0,087	-0,061
-551,627	-200,000	-0,005	0,115
-550,612	10,702	0,033	-0,018
-549,598	9,954	0,045	-0,025
-548,583	-165,400	0,078	-0,002
-547,569	-200,000	0,007	-0,035
-546,554	-73,942	0,056	-0,015
-545,539	-100,297	-0,171	-0,031
-544,525	-49,402	0,105	0,037
-543,510	58,089	0,063	-0,045
-542,496	70,633	-0,026	-0,020
-541,481	-200,000	-0,021	-0,124
-540,466	116,786	0,027	0,024
-539,452	71,923	-0,019	0,015
-538,437	-10,431	-0,029	0,014
-537,423	-92,193	0,035	0,007
-536,408	-200,000	-0,013	-0,071
-535,393	800,000	-0,006	0,014
-534,379	-66,163	-0,111	-0,032
-533,364	550,560	-0,027	0,047
-532,350	24,903	0,071	0,043
-531,335	80,664	0,037	0,029
-530,321	128,395	-0,074	0,069
-529,306	-137,321	-0,072	0,006
-528,291	-200,000	0,000	-0,012
-527,277	800,000	0,039	-0,098
-526,262	-75,000	-0,041	-0,011
-525,248	-91,408	-0,145	-0,030
-524,233	-200,000	-0,017	0,075
-523,218	-200,000	0,006	0,095
-522,204	295,652	-0,043	0,059
-521,189	-71,218	-0,069	0,019
-520,175	352,632	0,029	-0,043
-519,160	-200,000	0,023	0,121
-518,145	-200,000	0,002	-0,014
-517,131	514,765	-0,059	0,101
-516,116	-75,054	0,079	0,021
-515,102	37,286	0,095	-0,061
-514,087	425,508	0,054	-0,085
-513,072	414,449	-0,037	-0,059
-512,058	-181,156	-0,105	-0,001
-511,043	458,923	0,086	0,141
-510,029	142,362	-0,061	-0,060
-509,014	193,116	0,110	-0,122
-507,999	32,396	0,080	0,051
-506,985	154,414	-0,024	0,024
-505,970	94,349	0,052	-0,043
-504,956	-200,000	-0,007	0,034
-503,941	-200,000	0,003	-0,141
-502,926	617,260	-0,036	-0,067
-501,912	-200,000	0,004	0,022
-500,897	800,000	0,051	-0,107
-499,883	360,017	-0,042	0,062
-498,868	78,416	-0,107	0,084
-497,853	207,472	-0,098	-0,112
-496,839	741,807	0,016	0,031
-495,824	-200,000	-0,002	0,066
-494,810	-77,617	-0,067	0,017
-493,795	-134,201	0,018	0,002
-492,781	-200,000	0,002	0,015
-491,766	26,748	-0,051	0,031
-490,751	-200,000	-0,002	0,043
-489,737	-200,000	-0,008	0,045
-488,722	-113,178	0,048	0,007
-487,708	35,819	0,072	0,046
-486,693	640,113	-0,053	0,099
-485,678	-100,967	-0,078	0,014
-484,664	800,000	0,038	0,119
-483,649	61,473	-0,198	-0,144
-482,635	-200,000	-0,008	-0,040
-481,620	-45,461	0,262	0,095
-480,605	80,847	0,063	0,049
-479,591	124,771	0,063	0,059
-478,576	-128,996	0,151	0,015
-477,562	-200,000	0,008	0,032
-476,547	243,244	0,013	0,016
-475,532	-186,977	0,068	0,001
-474,518	-111,119	0,024	0,004
-473,503	-200,000	-0,013	0,100
-472,489	17,923	0,079	0,046
-471,474	79,711	-0,064	-0,050
-470,459	130,632	-0,042	0,039
-469,445	-100,117	0,137	-0,025
-468,430	289,061	-0,095	0,127
-467,416	-86,025	-0,123	0,028
-466,401	-141,859	-0,040	-0,003
-465,386	-200,000	0,006	0,165
-464,372	3,831	-0,100	-0,053
-463,357	-200,000	-0,045	0,178
-462,343	-164,627	-0,188	-0,006
-461,328	646,484	-0,034	0,065
-460,313	800,000	-0,027	-0,073
-459,299	-152,595	0,084	0,004
-458,284	800,000	0,071	0,176
-457,270	326,015	-0,141	0,198
-456,255	-200,000	0,007	0,105
-455,241	-91,880	-0,065	0,013
-454,226	-76,294	-0,097	-0,025
-453,211	-200,000	-0,015	0,068
-452,197	664,270	0,033	0,062
-451,182	-149,181	0,037	-0,002
-450,168	467,179	0,030	0,049
-449,153	614,912	0,023	0,041
-448,138	-68,622	-0,060	-0,017
-447,124	-200,000	-0,014	-0,197
-446,109	145,158	0,062	0,061
-445,095	-200,000	0,004	0,027
-444,080	-83,262	0,106	0,025
-443,065	-140,547	0,017	-0,001
-442,051	259,451	-0,048	-0,061
-441,036	-5,414	-0,016	-0,008
-440,022	363,424	0,027	-0,039
-439,007	99,789	-0,036	-0,031
-437,992	-65,788	-0,076	-0,022
-436,978	-79,184	0,091	-0,022
-435,963	-200,000	-0,002	-0,139
-434,949	-16,185	-0,063	0,029
-433,934	-48,890	-0,079	0,027
-432,919	537,532	-0,073	-0,128
-431,905	-200,000	0,017	0,113
-430,890	340,378	0,014	0,021
-429,876	-23,680	-0,023	0,010
-428,861	286,540	-0,037	-0,049
-427,846	-200,000	0,019	0,104
-426,832	-200,000	-0,010	0,100
-425,817	-200,000	0,009	-0,150
-424,803	-12,695	-0,049	-0,023
-423,788	356,533	-0,067	0,098
-422,773	-200,000	-0,013	0,064
-421,759	697,395	0,008	0,015
-420,744	-64,311	0,104	0,031
-419,730	800,000	0,021	-0,043
-418,715	-200,000	-0,005	-0,080
-417,701	30,821	0,029	-0,018
-416,686	-99,171	0,080	-0,015
-415,671	-200,000	0,023	0,090
-414,657	26,220	0,032	-0,019
-413,642	-80,660	0,025	-0,006
-412,628	-66,248	-0,059	-0,017
-411,613	-132,690	0,047	-0,004
-410,598	273,399	-0,072	0,093
-409,584	-38,765	-0,021	-0,008
-408,569	-43,619	0,071	-0,026
-407,555	60,717	0,159	0,115
-406,540	20,199	0,044	-0,026
-405,525	227,398	-0,040	0,047
-404,511	-200,000	-0,011	-0,047
-403,496	53,179	0,033	-0,023
-402,482	96,814	-0,020	-0,016
-401,467	101,661	0,034	-0,029
-400,452	-200,000	0,003	0,031
-399,438	120,764	0,057	-0,052
-398,423	-43,740	0,098	0,036
-397,409	-105,549	-0,042	0,007
-396,394	-151,407	-0,118	0,006
-395,379	153,958	0,070	-0,070
-394,365	-21,768	0,063	0,028
-393,350	-200,000	-0,001	0,082
-392,336	600,592	-0,030	-0,055
-391,321	119,806	-0,098	0,089
-390,306	208,035	-0,107	-0,122
-389,292	-200,000	-0,030	-0,179
-388,277	-39,654	-0,133	-0,051
-387,263	-134,199	-0,040	-0,004
-386,248	53,396	-0,058	0,040
-385,233	404,952	0,022	0,035
-384,219	-200,000	0,007	-0,033
-383,204	-200,000	-0,000	-0,104
-382,190	103,213	-0,093	-0,080
-381,175	37,835	-0,070	-0,046
-380,160	-86,706	0,086	-0,019
-379,146	-200,000	-0,038	0,129
-378,131	-57,263	0,063	0,020
-377,117	800,000	0,014	-0,040
-376,102	-200,000	0,022	-0,128
-375,088	-75,178	-0,154	-0,040
-374,073	-200,000	-0,007	0,061
-373,058	-137,260	-0,147	-0,012
-372,044	113,504	0,132	0,117
-371,029	800,000	-0,080	0,184
-370,015	800,000	0,042	-0,089
-369,000	-69,990	0,037	0,010
-367,985	800,000	0,034	-0,083
-366,971	349,968	0,039	-0,057
-365,956	-118,098	0,065	0,008
-364,942	-200,000	0,010	0,050
-363,927	-200,000	0,007	-0,065
-362,912	-31,346	0,198	-0,081
-361,898	86,700	0,028	-0,023
-360,883	-200,000	-0,005	-0,051
-359,869	346,444	-0,080	-0,115
-358,854	-120,663	0,073	0,009
-357,839	-200,000	0,028	0,115
-356,825	-124,850	-0,072	0,008
-355,810	800,000	0,048	-0,141
-354,796	-34,843	-0,113	0,045
-353,781	154,305	-0,031	-0,031
-352,766	180,594	-0,027	-0,029
-351,752	45,694	-0,034	-0,023
-350,737	14,372	-0,061	0,035
-349,723	-200,000	-0,006	-0,036
-348,708	-128,533	-0,052	-0,005
-347,693	573,207	-0,051	-0,091
-346,679	36,860	-0,040	-0,026
-345,664	324,602	0,006	-0,009
-344,650	-52,419	-0,084	0,028
-343,635	74,269	0,076	0,058
-342,620	137,645	-0,041	-0,039
-341,606	-200,000	-0,005	0,035
-340,591	-49,703	0,199	-0,069
-339,577	149,197	0,064	-0,063
-338,562	379,106	-0,086	-0,128
-337,548	-200,000	-0,044	-0,174
-336,533	115,168	0,055	-0,049
-335,518	800,000	0,022	-0,059
-334,504	246,322	0,145	0,178
-333,489	-161,568	-0,123	-0,005
-332,475	103,596	0,047	-0,040
-331,460	800,000	-0,031	0,077
-330,445	323,378	-0,030	-0,042
-329,431	-131,485	0,018	-0,002
-328,416	-35,843	0,102	-0,040
-327,402	68,345	0,079	0,059
-326,387	-13,225	-0,050	-0,024
-325,372	-24,850	-0,163	-0,070
-324,358	186,750	-0,099	-0,107
-323,343	171,758	0,079	0,083
-322,329	-200,000	0,001	-0,011
-321,314	-200,000	0,010	0,066
-320,299	800,000	0,033	-0,067
-319,285	-178,040	-0,210	-0,004
-318,270	13,128	-0,058	0,033
-317,256	359,642	0,033	0,049
-316,241	198,275	-0,091	-0,101
-315,226	47,835	0,055	0,037
-314,212	165,867	-0,068	0,071
-313,197	119,991	-0,038	-0,035
-312,183	-41,673	-0,105	0,039
-311,168	148,012	-0,057	0,056
-310,153	800,000	0,020	-0,064
-309,139	-29,844	0,088	0,036
-308,124	800,000	-0,018	0,056
-307,110	-142,657	-0,067	0,005
-306,095	-200,000	0,022	0,095
-305,080	-200,000	-0,005	-0,037
-304,066	-87,459	-0,063	0,014
-303,051	800,000	-0,027	-0,069
-302,037	-200,000	0,030	-0,139
-301,022	-123,110	0,076	-0,009
-300,008	-41,341	-0,024	0,009
-298,993	800,000	0,031	-0,087
-297,978	800,000	0,042	-0,089
-296,964	800,000	-0,014	0,031
-295,949	271,166	-0,050	-0,064
-294,935	-113,491	0,086	-0,012
-293,920	525,153	-0,037	-0,064
-292,905	-200,000	-0,009	0,071
-291,891	-200,000	0,014	0,135
-290,876	10,859	-0,118	0,066
-289,862	484,345	0,065	-0,108
-288,847	-200,000	-0,018	-0,074
-287,832	-20,429	-0,021	-0,010
-286,818	301,064	-0,020	0,026
-285,803	472,925	0,064	-0,105
-284,789	-200,000	-0,029	0,156
-283,774	-164,613	-0,025	0,001
-282,759	800,000	-0,022	-0,051
-281,745	-70,758	-0,147	-0,040
-280,730	800,000	-0,018	0,049
-279,716	491,186	0,042	-0,069
-278,701	800,000	0,028	-0,082
-277,686	800,000	0,035	0,102
-276,672	-200,000	-0,051	0,230
-275,657	-40,778	-0,055	-0,021
-274,643	-51,411	-0,105	0,036
-273,628	325,003	-0,040	-0,055
-272,613	99,073	-0,032	-0,027
-271,599	123,295	-0,032	-0,029
-270,584	751,363	-0,108	0,212
-269,570	137,614	0,053	0,051
-268,555	118,578	0,009	0,008
-267,540	-200,000	0,006	-0,032
-266,526	124,627	0,081	-0,074
-265,511	24,948	0,011	0,007
-264,497	576,888	0,129	-0,230
-263,482	302,637	0,109	-0,147
-262,467	800,000	-0,035	0,087
-261,453	14,710	0,066	0,037
-260,438	800,000	-0,062	0,130
-259,424	-115,431	-0,118	-0,016
-258,409	37,926	0,121	-0,078
-257,395	-200,000	0,008	0,104
-256,380	-48,143	-0,151	-0,053
-255,365	-200,000	0,019	0,097
-254,351	-200,000	0,000	-0,009
-253,336	21,210	0,035	-0,020
-252,322	790,028	-0,072	0,144
-251,307	194,115	0,019	-0,021
-250,292	800,000	-0,024	0,066
-249,278	-200,000	-0,003	0,012
-248,263	56,441	0,026	-0,018
-247,249	18,662	0,109	-0,063
-246,234	93,121	-0,066	-0,054
-245,219	-200,000	-0,026	-0,095
-244,205	-200,000	-0,010	-0,093
-243,190	261,449	0,103	-0,130
-242,176	633,389	0,019	0,035
-241,161	800,000	0,058	0,125
-240,146	-200,000	0,005	0,018
-239,132	800,000	0,057	0,153
-238,117	2,477	-0,073	-0,038
-237,103	800,000	0,012	0,027
-236,088	-31,748	0,036	-0,015
-235,073	800,000	-0,003	0,011
-234,059	256,585	0,091	0,113
-233,044	-91,236	-0,037	0,008
-232,030	-200,000	-0,003	-0,026
-231,015	-83,677	-0,214	-0,049
-230,000	-153,958	0,096	0,005
-228,986	159,388	-0,103	-0,104
-227,971	269,027	-0,053	0,068
-226,957	-200,000	-0,002	0,120
-225,942	7,978	-0,105	0,057
-224,927	263,361	0,071	0,089
-223,913	408,586	-0,056	-0,086
-222,898	118,963	-0,130	-0,116
-221,884	403,887	-0,073	-0,111
-220,869	-200,000	0,030	-0,123
-219,855	800,000	-0,052	0,131
-218,840	-200,000	0,011	0,178
-217,825	-200,000	0,002	-0,064
-216,811	-63,522	0,134	-0,040
-215,796	-50,093	-0,010	0,003
-214,782	-200,000	0,005	-0,103
-213,767	-80,707	-0,054	0,013
-212,752	-200,000	-0,006	0,022
-211,738	192,513	0,009	-0,010
-210,723	572,965	0,045	-0,079
-209,709	-80,688	-0,038	-0,009
-208,694	800,000	0,017	0,049
-207,679	148,366	0,075	0,074
-206,665	-200,000	0,009	0,135
-205,650	-142,799	0,143	-0,010
-204,636	-79,659	0,059	0,014
-203,621	208,877	-0,093	0,105
-202,606	-23,614	-0,041	-0,018
-201,592	-20,314	-0,058	-0,026
-200,577	-200,000	0,001	-0,022
-199,563	-200,000	-0,003	0,105
-198,548	266,134	0,046	0,058
-197,533	-145,562	-0,124	0,008
-196,519	454,268	0,057	0,091
-195,504	-77,421	0,075	0,019
-194,490	-200,000	0,010	-0,058
-193,475	-38,177	0,109	0,042
-192,460	-38,382	-0,010	-0,004
-191,446	-26,054	0,062	0,026
-190,431	290,452	0,021	-0,028
-189,417	-25,674	-0,054	-0,023
-188,402	400,111	-0,044	0,067
-187,387	370,137	0,085	-0,126
-186,373	800,000	0,050	-0,151
-185,358	-178,712	-0,005	0,000
-184,344	720,758	0,068	0,133
-183,329	-45,376	-0,072	0,026
-182,315	-132,901	-0,024	-0,002
-181,300	-107,400	0,041	0,007
-180,285	-200,000	-0,014	-0,054
-179,271	-200,000	-0,004	-0,026
-178,256	136,548	-0,098	0,092
-177,242	800,000	-0,083	0,199
-176,227	-200,000	0,048	0,203
-175,212	-200,000	0,011	-0,129
-174,198	-200,000	0,001	-0,006
-173,183	-200,000	0,007	-0,074
-172,169	507,406	-0,067	0,113
-171,154	52,632	0,041	0,029
-170,139	176,766	0,079	0,083
-169,125	-200,000	-0,060	0,202
-168,110	800,000	-0,063	0,148
-167,096	-200,000	-0,003	-0,070
-166,081	-156,774	-0,162	-0,007
-165,066	-175,249	0,151	0,003
-164,052	-200,000	0,010	-0,133
-163,037	81,618	0,052	-0,041
-162,023	-124,405	-0,086	0,010
-161,008	-90,426	0,104	0,022
-159,993	459,949	0,035	-0,057
-158,979	234,159	-0,081	-0,097
-157,964	-25,286	-0,053	-0,022
-156,950	-200,000	0,026	-0,084
-155,935	247,564	0,087	0,107
-154,920	124,807	0,023	-0,021
-153,906	-160,869	0,200	0,008
-152,891	-200,000	0,012	-0,044
-151,877	-82,819	-0,183	-0,042
-150,862	616,716	0,087	-0,158
-149,847	-62,370	-0,102	-0,031
-148,833	-91,846	0,015	0,003
-147,818	-114,201	0,086	-0,012
-146,804	-40,031	0,120	0,045
-145,789	-21,688	-0,050	-0,022
-144,775	-200,000	0,005	0,048
-143,760	-42,807	-0,119	-0,044
-142,745	55,967	0,071	-0,050
-141,731	256,832	-0,104	0,130
-140,716	-18,650	0,070	-0,031
-139,702	-200,000	0,014	-0,108
-138,687	-200,000	-0,003	0,049
-137,672	-200,000	-0,001	0,019
-136,658	-200,000	0,031	-0,103
-135,643	800,000	-0,018	-0,046
-134,629	-200,000	0,019	0,138
-133,614	-36,299	0,028	-0,011
-132,599	-132,356	-0,253	-0,023
-131,585	-200,000	0,016	0,064
-130,570	7,452	-0,119	0,064
-129,556	-162,834	-0,098	0,003
-128,541	800,000	0,067	-0,157
-127,526	255,056	0,044	-0,054
-126,512	-200,000	-0,011	-0,071
-125,497	566,148	0,040	0,071
-124,483	-122,948	-0,090	-0,010
-123,468	-200,000	-0,014	0,072
-122,453	-200,000	-0,093	0,000
-121,439	-200,000	0,017	-0,100
-120,424	-181,456	-0,100	-0,001
-119,410	127,534	-0,049	0,045
-118,395	98,228	0,055	0,046
-117,380	74,862	0,069	-0,053
-116,366	-175,526	-0,038	-0,001
-115,351	-106,424	-0,105	-0,017
-114,337	-200,000	0,005	-0,067
-113,322	-24,781	0,096	0,041
-112,307	37,906	0,111	-0,071
-111,293	-115,888	0,228	0,030
-110,278	233,755	0,059	-0,071
-109,264	800,000	-0,019	0,049
-108,249	-142,555	0,022	0,002
-107,234	-152,660	-0,108	0,005
-106,220	112,136	0,033	0,028
-105,205	800,000	-0,044	0,098
-104,191	-63,221	0,079	0,023
-103,176	596,127	-0,044	0,079
-102,162	116,335	0,119	0,105
-101,147	93,283	-0,041	0,034
-100,132	237,270	-0,042	0,050
-99,118	-176,263	0,073	0,001
-98,103	-37,285	0,069	-0,026
-97,089	260,227	0,022	-0,027
-96,074	-58,581	-0,078	-0,024
-95,059	-200,000	0,005	-0,042
-94,045	120,125	-0,026	0,023
-93,030	309,462	-0,064	-0,086
-92,016	268,891	-0,057	0,073
-91,001	-67,514	0,122	-0,034
-89,986	30,690	-0,050	0,031
-88,972	169,262	0,053	0,055
-87,957	800,000	-0,013	0,038
-86,943	441,184	0,065	-0,102
-85,928	-89,277	-0,185	-0,039
-84,913	-118,930	0,102	-0,013
-83,899	229,613	-0,085	-0,100
-82,884	-184,676	0,139	-0,002
-81,870	-200,000	0,002	-0,028
-80,855	-160,656	-0,105	0,004
-79,840	-200,000	-0,019	0,249
-78,826	78,735	0,039	-0,030
-77,811	568,402	0,062	0,110
-76,797	-110,704	0,078	0,011
-75,782	-200,000	-0,022	0,084
-74,767	800,000	0,084	0,195
-73,753	-200,000	0,012	0,124
-72,738	-158,545	0,136	0,006
-71,724	-55,226	0,026	0,008
-70,709	-165,962	-0,116	-0,004
-69,694	-200,000	0,019	0,101
-68,680	-200,000	-0,012	0,120
-67,665	-200,000	0,023	0,099
-66,651	129,071	0,005	0,005
-65,636	62,261	0,097	0,070
-64,622	-200,000	-0,008	0,043
-63,607	-200,000	-0,034	-0,126
-62,592	-146,583	0,146	-0,009
-61,578	-200,000	0,037	0,126
-60,563	-122,769	-0,048	-0,006
-59,549	295,643	-0,060	0,080
-58,534	26,057	-2,181	-1,309
-57,519	-200,000	-0,104	-0,719
-56,505	-200,000	-1,248	-5,154
-55,490	104,626	0,895	0,760
-54,476	800,000	5,372	11,894
-53,461	-200,000	18,285	300,307
-52,446	800,000	732,607	2237,802
-51,432	513,942	1644,891	2775,413
-50,417	76,334	1613,345	1230,294
-49,403	24,334	1255,969	746,120
-48,388	16,812	1017,359	578,603
-47,373	19,382	986,082	569,341
-46,359	18,231	973,378	558,207
-45,344	14,148	968,723	542,154
-44,330	14,061	967,079	540,928
-43,315	13,980	966,148	540,120
-42,300	13,901	965,235	539,329
-41,286	13,879	964,265	538,696
-40,271	13,900	963,456	538,290
-39,257	13,848	962,636	537,642
-38,242	13,918	961,518	537,222
-37,227	13,966	960,576	536,831
-36,213	13,944	959,500	536,139
-35,198	13,933	958,468	535,505
-34,184	13,972	957,729	535,197
-33,169	13,900	956,853	534,453
-32,154	14,056	955,857	534,378
-31,140	13,996	954,987	533,677
-30,125	14,028	954,017	533,217
-29,111	14,023	953,050	532,639
-28,096	13,971	952,525	532,157
-27,082	13,968	951,887	531,770
-26,067	14,011	950,939	531,357
-25,052	13,994	950,171	530,856
-24,038	14,006	949,413	530,449
-23,023	14,004	948,489	529,903
-22,009	14,066	947,788	529,691
-20,994	14,051	947,261	529,325
-19,979	14,046	946,708	528,981
-18,965	14,033	946,035	528,542
-17,950	14,054	945,520	528,299
-16,936	13,919	944,747	527,418
-15,921	13,910	944,018	526,959
-14,906	13,913	943,260	526,526
-13,892	13,904	942,608	526,113
-12,877	13,918	941,980	525,786
-11,863	13,826	941,476	525,191
-10,848	13,903	940,710	524,986
-9,833	14,039	940,225	525,128
-8,819	13,998	939,477	524,560
-7,804	13,916	938,929	523,971
-6,790	13,888	938,435	523,586
-5,775	13,956	937,991	523,534
-4,760	13,936	937,160	522,986
-3,746	13,877	936,702	522,523
-2,731	13,743	936,172	521,781
-1,717	13,660	935,451	521,096
-0,702	13,673	934,731	520,715
0,313	13,492	934,064	520,558
1,327	17,001	931,719	530,258
2,342	25,846	783,425	469,098
3,356	21,782	439,493	257,152
4,371	-7,653	292,254	141,730
5,386	-11,432	274,324	129,460
6,400	-12,271	268,531	125,940
7,415	-12,779	266,428	124,476
8,429	-12,983	265,037	123,631
9,444	-12,882	264,157	123,301
10,459	-13,058	263,569	122,855
11,473	-13,397	262,984	122,265
12,488	-13,560	262,370	121,822
13,502	-13,503	261,796	121,596
14,517	-13,720	261,421	121,216
15,531	-13,664	260,825	120,978
16,546	-13,595	260,451	120,856
17,561	-13,637	260,106	120,648
18,575	-13,621	259,843	120,530
19,590	-13,819	259,545	120,203
20,604	-13,680	259,054	120,089
21,619	-13,802	258,778	119,842
22,634	-13,780	258,395	119,673
23,648	-14,003	258,203	119,376
24,663	-13,677	257,750	119,445
25,677	-13,726	257,551	119,299
26,692	-13,858	257,447	119,123
27,707	-13,753	257,059	119,026
28,721	-13,806	256,731	118,817
29,736	-13,854	256,480	118,647
30,750	-13,743	256,297	118,650
31,765	-13,898	256,071	118,398
32,780	-14,037	255,837	118,158
33,794	-13,910	255,620	118,159
34,809	-13,815	255,324	118,094
35,823	-13,821	255,011	117,933
36,838	-13,915	254,722	117,708
37,853	-13,896	254,565	117,641
38,867	-13,884	254,328	117,532
39,882	-13,944	254,214	117,416
40,896	-13,824	253,928	117,378
41,911	-13,854	253,474	117,132
42,926	-13,840	253,420	117,108
43,940	-13,862	253,099	116,930
44,955	-13,979	252,797	116,679
45,969	-14,028	252,614	116,541
46,984	-14,204	252,327	116,246
47,999	-14,348	252,008	115,964
49,013	-14,535	251,800	115,697
50,028	-14,645	251,744	115,566
51,042	-14,536	251,402	115,493
52,057	-14,767	251,311	115,241
53,071	-14,629	250,871	115,148
54,086	-14,654	250,860	115,112
55,101	-14,139	250,711	115,475
56,115	-14,434	250,577	115,150
57,130	-13,851	250,447	115,580
58,144	-13,472	250,182	115,773
59,159	-13,327	249,911	115,761
60,174	-13,502	249,818	115,558
61,188	-13,652	249,543	115,292
62,203	-13,772	249,504	115,161
63,217	-13,598	249,075	115,101
64,232	-13,922	249,052	114,804
65,247	-13,542	248,710	114,959
66,261	-13,633	248,549	114,798
67,276	-13,964	248,237	114,362
68,290	-14,268	247,999	113,984
69,305	-14,088	247,831	114,049
70,320	-14,209	247,499	113,784
71,334	-13,907	247,453	114,009
72,349	-13,670	247,346	114,150
73,363	-13,524	246,993	114,100
74,378	-13,586	246,790	113,943
75,393	-13,580	246,679	113,888
76,407	-13,592	246,293	113,689
77,422	-13,750	246,226	113,515
78,436	-13,836	245,957	113,308
79,451	-13,655	245,773	113,365
80,466	-13,792	245,479	113,105
81,480	-13,848	245,365	112,995
82,495	-14,110	245,040	112,616
83,509	-14,025	244,999	112,659
84,524	-13,853	244,679	112,645
85,539	-14,186	244,432	112,243
86,553	-14,306	244,359	112,099
87,568	-13,932	244,009	112,240
88,582	-14,146	244,126	112,106
89,597	-14,078	243,880	112,039
90,611	-13,924	243,633	112,044
91,626	-13,697	243,463	112,145
92,641	-13,644	243,112	112,017
93,655	-13,759	242,982	111,851
94,670	-13,799	242,898	111,770
95,684	-13,729	242,600	111,681
96,699	-13,729	242,486	111,619
97,714	-14,096	242,320	111,229
98,728	-14,167	242,179	111,095
99,743	-14,086	241,877	111,014
100,757	-14,245	241,730	110,805
101,772	-14,224	241,520	110,716
102,787	-14,063	241,414	110,790
103,801	-13,884	241,154	110,808
104,816	-13,910	241,125	110,764
105,830	-13,784	241,017	110,808
106,845	-13,629	240,633	110,749
107,860	-13,719	240,636	110,667
108,874	-13,826	240,255	110,394
109,889	-14,056	240,165	110,154
110,903	-13,884	239,988	110,203
111,918	-13,939	239,816	110,070
112,933	-13,789	239,617	110,091
113,947	-13,810	239,472	109,998
114,962	-13,630	239,317	110,064
115,976	-13,790	239,098	109,822
116,991	-13,705	238,874	109,779
118,006	-13,614	238,761	109,792
119,020	-13,856	238,665	109,541
120,035	-13,675	238,572	109,636
121,049	-13,472	238,211	109,624
122,064	-13,843	238,199	109,308
123,079	-13,752	237,885	109,228
124,093	-13,810	237,602	109,042
125,108	-13,929	237,371	108,829
126,122	-14,138	237,153	108,551
127,137	-14,252	236,961	108,362
128,151	-14,040	236,777	108,439
129,166	-13,984	236,731	108,453
130,181	-14,256	236,440	108,092
131,195	-14,035	236,307	108,199
132,210	-13,935	236,082	108,167
133,224	-13,663	236,194	108,426
134,239	-13,781	235,891	108,183
135,254	-13,718	235,641	108,109
136,268	-13,868	235,483	107,907
137,283	-13,997	235,065	107,602
138,297	-14,292	235,000	107,327
139,312	-14,181	234,830	107,329
140,327	-13,840	234,773	107,565
141,341	-13,432	234,671	107,835
142,356	-13,479	234,647	107,777
143,370	-13,614	234,626	107,650
144,385	-13,427	234,090	107,543
145,400	-13,413	234,105	107,552
146,414	-13,266	233,876	107,554
147,429	-13,590	233,734	107,221
148,443	-13,397	233,453	107,236
149,458	-13,520	233,399	107,104
150,473	-13,709	233,327	106,911
151,487	-13,603	233,059	106,863
152,502	-13,504	232,911	106,865
153,516	-13,411	232,734	106,847
154,531	-13,336	232,422	106,753
155,546	-13,455	232,249	106,571
156,560	-13,511	232,198	106,494
157,575	-13,705	231,843	106,169
158,589	-13,576	231,695	106,193
159,604	-13,253	231,635	106,410
160,619	-13,285	231,572	106,346
161,633	-13,234	231,351	106,275
162,648	-13,250	231,175	106,173
163,662	-13,304	230,996	106,038
164,677	-13,447	230,814	105,833
165,692	-13,690	230,794	105,624
166,706	-13,409	230,600	105,746
167,721	-13,270	230,488	105,794
168,735	-13,190	230,434	105,822
169,750	-13,148	230,214	105,745
170,764	-13,412	230,106	105,479
171,779	-13,372	229,986	105,447
172,794	-13,352	229,741	105,340
173,808	-13,391	229,314	105,105
174,823	-13,868	228,946	104,556
175,837	-14,171	229,038	104,354
176,852	-13,646	228,990	104,730
177,867	-13,346	228,815	104,873
178,881	-13,456	228,679	104,717
179,896	-13,500	228,639	104,655
180,910	-13,533	228,458	104,537
181,925	-13,322	228,282	104,610
182,940	-13,342	228,103	104,503
183,954	-13,470	228,007	104,351
184,969	-13,463	227,933	104,314
185,983	-13,154	227,765	104,466
186,998	-13,271	227,740	104,355
188,013	-13,173	227,371	104,252
189,027	-13,318	227,321	104,108
190,042	-13,241	227,150	104,080
191,056	-13,115	226,888	104,047
192,071	-13,010	226,789	104,073
193,086	-13,053	226,673	103,977
194,100	-12,814	226,520	104,081
195,115	-12,904	226,395	103,946
196,129	-13,037	226,242	103,765
197,144	-8,439	227,648	107,939
198,159	-4,265	228,883	111,738
199,173	-0,957	229,989	114,830
200,188	-0,010	229,906	115,510
201,202	-0,077	229,625	115,307
202,217	-0,413	229,606	115,028
203,232	-0,228	229,440	115,077
204,246	0,191	229,247	115,293
205,261	-0,056	229,261	115,099
206,275	0,214	229,160	115,246
207,290	0,534	228,895	115,349
208,304	0,246	228,845	115,092
209,319	0,164	228,779	114,986
210,334	0,177	228,413	114,801
211,348	0,024	228,299	114,616
212,363	-0,144	228,046	114,351
213,377	-0,269	227,838	114,140
214,392	-0,244	227,846	114,154
215,407	0,044	227,629	114,255
216,421	0,019	227,715	114,269
217,436	-0,148	227,463	114,004
218,450	-0,424	227,187	113,645
219,465	-0,539	226,978	113,443
220,480	-0,480	226,785	113,381
221,494	-0,331	226,723	113,454
222,509	0,033	226,650	113,684
223,523	0,023	226,421	113,552
224,538	-0,168	226,393	113,382
225,553	-0,070	226,029	113,264
226,567	-0,157	226,034	113,190
227,582	0,212	225,958	113,422
228,596	0,286	225,785	113,381
229,611	0,017	225,558	113,053
230,626	-0,153	225,308	112,790
231,640	-0,278	225,266	112,664
232,655	0,231	225,161	112,986
233,669	0,252	225,095	112,959
234,684	0,312	224,977	112,934
235,699	0,377	224,741	112,855
236,713	-0,168	224,575	112,351
237,728	-0,170	224,448	112,276
238,742	-0,294	224,168	112,032
239,757	-0,222	223,939	111,962
240,772	-0,107	223,918	112,028
241,786	-0,300	223,826	111,827
242,801	-0,021	223,694	111,961
243,815	0,255	223,753	112,187
244,830	0,213	223,316	111,926
245,844	-0,182	223,126	111,526
246,859	-0,065	223,047	111,564
247,874	-0,033	223,019	111,564
248,888	0,185	222,767	111,591
249,903	0,119	222,717	111,507
250,917	0,051	222,510	111,342
251,932	-0,096	222,264	111,100
252,947	-0,265	222,161	110,913
253,961	-0,482	222,054	110,688
254,976	-0,419	221,856	110,626
255,990	0,119	221,712	110,944
257,005	0,413	221,745	111,168
258,020	0,098	221,609	110,857
259,034	0,059	221,417	110,722
260,049	0,349	221,116	110,776
261,063	0,043	221,101	110,532
262,078	0,124	221,056	110,560
263,093	0,551	220,861	110,768
264,107	0,268	220,827	110,532
265,122	0,244	220,722	110,452
266,136	0,407	220,632	110,517
267,151	0,418	220,392	110,395
268,166	0,046	220,079	109,955
269,180	-0,020	219,737	109,725
270,195	-0,084	219,617	109,609
271,209	-0,159	219,603	109,537
272,224	-0,062	219,477	109,536
273,239	0,097	219,307	109,558
274,253	0,054	219,158	109,442
275,268	-0,043	218,867	109,216
276,282	-0,359	218,784	108,934
277,297	-0,319	218,656	108,890
278,312	-0,042	218,542	109,026
279,326	0,135	218,524	109,136
280,341	0,120	218,435	109,071
281,355	-0,038	218,288	108,873
282,370	0,405	218,020	109,052
283,384	-0,059	217,815	108,602
284,399	-0,454	217,709	108,252
285,414	-0,116	217,598	108,433
286,428	-0,021	217,456	108,422
287,443	0,088	217,472	108,499
288,457	0,273	217,205	108,490
289,472	-0,170	217,163	108,139
290,487	-0,432	216,814	107,765
291,501	-0,380	216,542	107,659
292,516	-0,330	216,443	107,636
293,530	-0,429	216,538	107,602
294,545	-0,363	216,357	107,550
295,560	0,135	216,281	107,862
296,574	0,012	216,179	107,712
297,589	-0,162	215,971	107,474
298,603	-0,162	215,900	107,430
299,618	0,029	215,765	107,490
300,633	0,076	215,641	107,452
301,647	0,169	215,539	107,458
302,662	0,378	215,354	107,506
303,676	0,001	215,346	107,222
304,691	0,277	215,134	107,305
305,706	0,252	214,931	107,176
306,720	0,120	214,747	106,981
307,735	-0,276	214,676	106,653
308,749	-0,220	214,450	106,571
309,764	0,267	214,464	106,916
310,779	0,072	214,237	106,654
311,793	-0,104	214,078	106,440
312,808	0,121	213,878	106,491
313,822	0,203	213,759	106,482
314,837	0,028	213,627	106,281
315,852	-0,165	213,430	106,037
316,866	0,127	213,407	106,223
317,881	0,254	213,253	106,228
318,895	-0,011	212,999	105,904
319,910	-0,397	212,978	105,610
320,925	-0,276	212,708	105,553
321,939	-0,382	212,494	105,362
322,954	-0,496	212,534	105,292
323,968	0,099	212,555	105,714
324,983	0,324	212,540	105,856
325,997	0,309	212,457	105,794
327,012	0,327	212,199	105,669
328,027	0,337	212,041	105,588
329,041	0,592	211,954	105,714
330,056	0,483	211,673	105,489
331,070	-0,141	211,454	104,932
332,085	-0,292	211,217	104,698
333,100	-0,052	211,151	104,825
334,114	0,460	211,087	105,142
335,129	0,145	210,938	104,839
336,143	0,074	210,934	104,778
337,158	0,099	210,786	104,712
338,173	0,061	210,557	104,562
339,187	0,067	210,332	104,446
340,202	0,125	210,148	104,385
341,216	-0,054	210,081	104,218
342,231	0,215	209,961	104,336
343,246	0,027	209,818	104,125
344,260	-0,002	209,723	104,048
345,275	0,201	209,687	104,163
346,289	0,215	209,597	104,119
347,304	0,485	209,452	104,225
348,319	0,252	209,398	104,027
349,333	0,566	209,184	104,130
350,348	0,433	209,063	103,967
351,362	0,542	208,974	103,989
352,377	0,600	208,788	103,928
353,392	0,421	208,560	103,681
354,406	0,367	208,388	103,549
355,421	195,097	1314,391	1395,045
356,435	155,857	1449,112	1395,012
