DTS Sentinel unit serial number:	SN410029Multiplexer serial number:	ORYXHardware model number:	OX2-SRSoftware version number:	ORYX F/W v4,00 Oryx Data Collector v3.7.2.0data status	okinstallation	B6 Nyhavnadifferential loss correction	single-endedforward channel	channel 2reverse channel	N/Adate	2023/12/09time	18:05:08forward acquisition time	300,00reverse acquisition time	0,00gamma	499,1914k internal	0,3130k external	0,3130temperature offset calibration	1,0000default loss term (dB/km)	0,3820temperature slope calibration	1,0000multiplexer offset coefficient	1,0000multiplexer slope coefficient	1,0000fibre end	0,00T internal ref (°C)	21,03T ext. ref 1 (°C)	4,75T ext. ref 2 (°C)	4,76length (m)	temperature (°C)	Stokes	anti-Stokes-744,400	195,853	0,105	-0,119
-743,385	-31,303	-0,267	0,111
-742,371	101,688	0,076	-0,065
-741,356	-74,631	-0,261	0,069
-740,342	800,000	0,059	0,135
-739,327	-74,269	-0,324	0,086
-738,312	800,000	-0,047	-0,124
-737,298	-21,870	-0,359	0,162
-736,283	276,234	0,083	0,110
-735,269	40,578	-0,161	0,108
-734,254	-8,815	-0,022	-0,011
-733,239	-173,859	-0,410	0,009
-732,225	-66,624	0,137	-0,040
-731,210	-63,988	-0,032	-0,010
-730,196	800,000	0,011	-0,028
-729,181	60,544	-0,088	0,064
-728,167	-200,000	0,001	-0,004
-727,152	-28,786	-0,054	0,023
-726,137	-200,000	-0,008	-0,063
-725,123	-200,000	0,002	-0,035
-724,108	-200,000	-0,001	-0,136
-723,094	369,425	0,033	0,050
-722,079	336,211	-0,054	-0,079
-721,064	800,000	-0,007	0,021
-720,050	361,242	-0,046	0,068
-719,035	7,961	-0,140	0,078
-718,021	127,916	-0,119	-0,113
-717,006	182,251	-0,120	-0,132
-715,991	-18,324	-0,133	-0,062
-714,977	204,143	0,018	0,021
-713,962	124,502	-0,076	-0,071
-712,948	260,691	0,058	-0,074
-711,933	800,000	0,054	-0,124
-710,918	-200,000	0,023	-0,084
-709,904	800,000	-0,047	-0,130
-708,889	-200,000	0,019	-0,073
-707,875	-200,000	-0,002	-0,068
-706,860	243,171	0,041	0,051
-705,845	-105,638	-0,024	-0,004
-704,831	-200,000	0,008	0,031
-703,816	800,000	0,006	0,017
-702,802	-61,317	0,034	-0,011
-701,787	800,000	-0,031	-0,081
-700,772	-96,343	-0,159	-0,031
-699,758	-10,060	-0,061	0,030
-698,743	-115,241	-0,031	0,004
-697,729	620,880	0,034	-0,063
-696,714	-103,166	-0,081	0,014
-695,699	-200,000	0,007	-0,171
-694,685	-36,110	-0,109	-0,044
-693,670	137,658	-0,086	0,083
-692,656	-200,000	-0,023	-0,130
-691,641	-134,797	-0,162	0,014
-690,627	-200,000	-0,043	0,183
-689,612	800,000	-0,028	0,085
-688,597	-14,479	0,084	-0,040
-687,583	588,699	-0,059	0,108
-686,568	-200,000	-0,031	-0,185
-685,554	240,607	-0,058	0,071
-684,539	-200,000	0,019	0,079
-683,524	-58,866	0,080	-0,025
-682,510	-24,216	-0,181	-0,080
-681,495	-200,000	-0,008	-0,194
-680,481	49,800	-0,090	-0,063
-679,466	-200,000	0,028	-0,101
-678,451	163,758	-0,043	-0,045
-677,437	28,224	0,077	-0,048
-676,422	-109,715	0,089	-0,014
-675,408	17,499	-0,192	0,113
-674,393	92,338	-0,099	-0,082
-673,378	-200,000	-0,012	-0,049
-672,364	-59,493	-0,186	-0,059
-671,349	-36,149	-0,109	0,043
-670,335	18,329	0,054	-0,032
-669,320	-200,000	0,003	-0,031
-668,305	12,634	0,106	-0,061
-667,291	800,000	-0,064	0,176
-666,276	714,138	-0,045	-0,088
-665,262	464,962	0,026	-0,043
-664,247	36,381	-0,125	0,082
-663,232	-100,601	0,028	-0,005
-662,218	13,122	-0,076	-0,043
-661,203	649,890	0,050	-0,096
-660,189	202,513	-0,045	0,051
-659,174	186,138	-0,057	-0,063
-658,159	-150,567	-0,028	-0,002
-657,145	-126,553	0,140	0,015
-656,130	57,428	-0,083	-0,060
-655,116	-16,434	0,037	0,017
-654,101	800,000	-0,078	0,183
-653,086	-119,185	0,127	0,016
-652,072	-129,624	-0,097	0,010
-651,057	-200,000	-0,007	0,043
-650,043	79,680	-0,151	-0,120
-649,028	50,108	0,025	0,018
-648,014	257,078	0,013	-0,016
-646,999	-50,023	-0,043	-0,015
-645,984	308,704	0,071	0,099
-644,970	-200,000	0,010	0,123
-643,955	-142,670	-0,095	0,007
-642,941	-34,479	0,039	0,016
-641,926	129,135	0,030	0,028
-640,911	-200,000	-0,009	-0,049
-639,897	135,039	0,119	0,114
-638,882	-127,537	0,030	0,003
-637,868	800,000	-0,030	-0,080
-636,853	-12,279	-0,165	-0,080
-635,838	222,078	-0,032	-0,038
-634,824	204,406	0,072	-0,083
-633,809	800,000	0,022	0,055
-632,795	-119,113	-0,038	0,005
-631,780	216,539	-0,016	-0,018
-630,765	-200,000	-0,009	0,098
-629,751	86,478	-0,124	-0,101
-628,736	800,000	0,083	-0,261
-627,722	696,498	-0,101	-0,198
-626,707	99,367	-0,042	0,036
-625,692	37,551	-0,035	0,023
-624,678	146,345	-0,057	0,057
-623,663	192,003	0,132	0,148
-622,649	40,012	-0,130	-0,087
-621,634	-65,851	-0,071	-0,021
-620,619	-121,641	-0,133	0,016
-619,605	800,000	0,041	0,108
-618,590	487,170	0,162	0,275
-617,576	-200,000	-0,014	0,119
-616,561	89,257	-0,093	0,077
-615,546	-200,000	-0,026	-0,084
-614,532	85,286	0,052	0,042
-613,517	153,361	-0,102	-0,104
-612,503	800,000	-0,028	0,080
-611,488	219,081	0,123	0,146
-610,474	-102,277	0,159	0,028
-609,459	-21,451	-0,085	0,038
-608,444	143,570	0,070	-0,069
-607,430	264,407	0,047	-0,061
-606,415	333,626	-0,049	-0,070
-605,401	600,889	0,048	0,088
-604,386	308,473	-0,027	-0,037
-603,371	-82,853	-0,145	0,034
-602,357	800,000	-0,026	0,059
-601,342	-76,272	0,071	-0,018
-600,328	719,385	-0,049	-0,096
-599,313	-13,811	0,118	0,056
-598,298	-85,966	-0,128	0,029
-597,284	800,000	-0,028	0,065
-596,269	-165,014	0,139	-0,004
-595,255	-25,877	-0,062	-0,027
-594,240	-37,209	-0,045	0,018
-593,225	20,360	-0,120	-0,072
-592,211	208,959	-0,103	-0,119
-591,196	-200,000	-0,003	0,020
-590,182	265,688	0,003	-0,004
-589,167	314,292	0,072	0,101
-588,152	-21,004	0,052	-0,023
-587,138	79,105	0,009	-0,007
-586,123	129,657	-0,063	-0,059
-585,109	31,275	-0,122	0,077
-584,094	-200,000	0,005	0,034
-583,079	-80,357	0,049	0,012
-582,065	97,062	0,135	-0,115
-581,050	-200,000	0,021	0,098
-580,036	-111,950	-0,116	0,017
-579,021	-200,000	0,008	0,137
-578,006	10,823	-0,154	-0,087
-576,992	-200,000	-0,021	-0,123
-575,977	136,348	0,021	-0,020
-574,963	789,965	0,057	-0,117
-573,948	-55,949	0,196	-0,064
-572,934	800,000	-0,018	-0,046
-571,919	-172,263	-0,026	-0,001
-570,904	-200,000	-0,003	0,034
-569,890	-21,819	0,063	-0,028
-568,875	-37,670	-0,069	-0,027
-567,861	71,215	-0,028	-0,021
-566,846	66,860	0,038	0,029
-565,831	266,052	-0,012	-0,016
-564,817	284,583	-0,107	-0,143
-563,802	-106,994	-0,146	0,024
-562,788	560,376	0,020	-0,035
-561,773	187,425	0,028	0,031
-560,758	-145,782	0,074	0,005
-559,744	-200,000	-0,024	0,130
-558,729	-200,000	-0,004	-0,050
-557,715	50,801	-0,039	0,027
-556,700	115,625	0,023	0,021
-555,685	417,748	0,046	-0,074
-554,671	254,706	0,114	-0,145
-553,656	-200,000	-0,007	-0,076
-552,642	-200,000	-0,002	0,091
-551,627	346,195	0,012	0,018
-550,612	-93,511	-0,048	-0,010
-549,598	-108,411	0,081	-0,013
-548,583	-83,829	-0,131	-0,031
-547,569	-86,076	0,044	0,010
-546,554	-17,659	0,046	0,021
-545,539	-70,804	-0,149	0,041
-544,525	364,964	0,070	0,104
-543,510	-78,228	-0,045	-0,011
-542,496	-200,000	-0,002	-0,138
-541,481	800,000	0,050	-0,104
-540,466	40,780	0,050	0,033
-539,452	-200,000	0,008	0,072
-538,437	-200,000	0,005	0,029
-537,423	144,692	-0,070	-0,069
-536,408	196,895	0,055	-0,062
-535,393	-17,485	0,051	-0,023
-534,379	691,268	-0,057	0,111
-533,364	99,409	0,086	0,073
-532,350	-200,000	-0,003	0,035
-531,335	-5,350	0,123	0,062
-530,321	219,064	0,048	-0,057
-529,306	331,071	-0,049	0,071
-528,291	-1,958	-0,049	-0,025
-527,277	110,189	-0,164	-0,145
-526,262	-200,000	-0,016	-0,101
-525,248	54,034	0,055	-0,039
-524,233	387,527	0,045	0,069
-523,218	-200,000	0,014	-0,073
-522,204	-88,251	0,114	-0,025
-521,189	83,014	-0,092	0,074
-520,175	-34,999	-0,103	-0,041
-519,160	297,576	-0,064	-0,087
-518,145	-103,843	-0,067	-0,011
-517,131	161,964	-0,132	0,137
-516,116	-36,511	0,054	0,021
-515,102	-29,801	0,063	0,027
-514,087	109,908	-0,059	-0,052
-513,072	800,000	-0,037	-0,090
-512,058	10,821	-0,193	0,108
-511,043	69,133	0,089	0,068
-510,029	14,921	0,089	-0,051
-509,014	-71,664	0,048	-0,013
-507,999	-200,000	-0,024	0,219
-506,985	-128,956	-0,125	-0,013
-505,970	-200,000	-0,006	-0,046
-504,956	-200,000	0,039	-0,130
-503,941	800,000	0,028	-0,058
-502,926	105,570	0,052	0,045
-501,912	-200,000	-0,039	-0,170
-500,897	57,971	0,071	-0,051
-499,883	-35,987	0,084	0,033
-498,868	252,306	-0,095	-0,120
-497,853	-147,492	-0,152	-0,009
-496,839	-174,730	0,130	-0,003
-495,824	723,499	0,044	-0,087
-494,810	449,950	-0,033	-0,054
-493,795	-200,000	-0,036	-0,129
-492,781	-200,000	-0,003	-0,033
-491,766	410,362	0,058	-0,090
-490,751	-157,355	-0,090	-0,004
-489,737	244,309	-0,029	-0,036
-488,722	-200,000	0,032	0,165
-487,708	800,000	0,026	0,067
-486,693	-22,816	-0,083	-0,037
-485,678	-105,356	-0,114	0,019
-484,664	-21,657	0,075	0,033
-483,649	-200,000	0,002	-0,010
-482,635	-200,000	0,011	-0,068
-481,620	-75,946	0,207	0,054
-480,605	-140,947	0,131	-0,010
-479,591	800,000	-0,064	-0,140
-478,576	191,470	-0,040	0,045
-477,562	800,000	0,060	-0,161
-476,547	383,915	-0,044	0,068
-475,532	106,812	0,031	-0,027
-474,518	187,299	-0,032	0,035
-473,503	-200,000	-0,005	-0,115
-472,489	-188,780	0,142	-0,001
-471,474	166,517	0,063	-0,066
-470,459	35,501	-0,086	0,055
-469,445	-112,635	0,089	0,013
-468,430	-49,017	-0,117	-0,041
-467,416	800,000	0,047	0,126
-466,401	-132,949	-0,128	0,012
-465,386	-25,492	0,035	-0,015
-464,372	-200,000	0,000	0,032
-463,357	-125,752	-0,082	0,009
-462,343	60,054	0,031	-0,023
-461,328	800,000	-0,048	0,111
-460,313	-45,432	0,099	-0,036
-459,299	77,467	0,059	-0,046
-458,284	-116,418	0,096	-0,013
-457,270	-123,894	0,124	-0,014
-456,255	-200,000	-0,011	-0,107
-455,241	-200,000	-0,006	0,079
-454,226	800,000	0,027	0,083
-453,211	-200,000	0,015	-0,085
-452,197	-41,936	-0,041	0,015
-451,182	-200,000	0,004	0,074
-450,168	9,456	0,083	0,046
-449,153	-200,000	0,009	-0,067
-448,138	149,598	0,067	-0,067
-447,124	39,657	-0,122	0,080
-446,109	-34,308	-0,198	0,079
-445,095	-192,689	0,138	-0,001
-444,080	-200,000	0,034	0,128
-443,065	-22,490	0,126	-0,056
-442,051	-93,186	0,009	-0,002
-441,036	-200,000	-0,069	0,000
-440,022	-200,000	0,026	-0,094
-439,007	800,000	-0,054	-0,135
-437,992	-22,945	0,063	-0,028
-436,978	561,513	0,026	0,047
-435,963	-200,000	-0,028	0,140
-434,949	121,054	0,076	0,069
-433,934	-165,947	-0,174	-0,005
-432,919	260,799	-0,021	-0,027
-431,905	-200,000	0,013	0,057
-430,890	698,805	0,049	-0,095
-429,876	172,888	-0,037	-0,039
-428,861	502,201	-0,073	0,125
-427,846	800,000	-0,033	0,078
-426,832	-49,103	-0,066	-0,023
-425,817	800,000	0,023	-0,052
-424,803	-35,470	-0,129	0,051
-423,788	-14,021	0,189	0,089
-422,773	-28,344	0,065	0,027
-421,759	-200,000	-0,009	0,054
-420,744	38,132	-0,092	0,060
-419,730	800,000	-0,040	-0,110
-418,715	624,563	-0,055	-0,102
-417,701	-2,762	0,029	0,015
-416,686	320,971	-0,076	-0,107
-415,671	-200,000	0,039	-0,132
-414,657	81,646	0,080	-0,064
-413,642	494,744	-0,022	0,036
-412,628	800,000	-0,047	0,151
-411,613	-200,000	-0,012	0,050
-410,598	34,401	0,049	-0,031
-409,584	-200,000	-0,044	0,258
-408,569	-200,000	0,004	0,046
-407,555	-191,014	0,081	-0,001
-406,540	-200,000	-0,004	-0,014
-405,525	800,000	0,022	0,064
-404,511	-178,582	0,068	-0,001
-403,496	800,000	0,034	-0,071
-402,482	35,903	-0,043	0,028
-401,467	-200,000	-0,026	0,113
-400,452	800,000	-0,037	0,116
-399,438	621,772	0,050	0,093
-398,423	-200,000	0,003	0,058
-397,409	-75,082	0,087	0,023
-396,394	530,839	-0,078	0,135
-395,379	52,488	-0,026	-0,018
-394,365	-200,000	-0,031	-0,119
-393,350	-93,372	0,108	-0,022
-392,336	-200,000	-0,012	-0,120
-391,321	800,000	-0,054	-0,127
-390,306	-200,000	0,021	0,072
-389,292	224,873	-0,042	0,050
-388,277	9,026	-0,109	-0,060
-387,263	-157,872	0,039	0,002
-386,248	-145,280	0,115	0,008
-385,233	-40,837	0,104	-0,039
-384,219	-83,659	-0,104	0,024
-383,204	-133,013	0,064	-0,006
-382,190	-14,803	-0,046	-0,022
-381,175	215,304	0,117	0,136
-380,160	474,540	0,078	0,130
-379,146	800,000	0,044	0,109
-378,131	130,733	-0,027	-0,026
-377,117	-85,325	-0,077	0,017
-376,102	-200,000	-0,007	0,057
-375,088	-200,000	0,004	-0,047
-374,073	-200,000	-0,008	-0,237
-373,058	-97,155	0,067	-0,013
-372,044	800,000	0,057	0,122
-371,029	139,805	0,077	-0,074
-370,015	-118,703	-0,048	0,006
-369,000	800,000	0,072	-0,147
-367,985	145,903	-0,045	-0,045
-366,971	-13,501	0,059	-0,028
-365,956	800,000	0,032	0,075
-364,942	158,842	0,074	0,075
-363,927	-200,000	-0,004	0,138
-362,912	800,000	-0,076	0,226
-361,898	196,773	-0,039	0,044
-360,883	800,000	0,042	-0,101
-359,869	351,080	-0,072	-0,105
-358,854	-48,413	0,098	-0,035
-357,839	800,000	-0,084	0,227
-356,825	-200,000	0,039	0,131
-355,810	759,546	0,032	0,064
-354,796	800,000	-0,036	0,088
-353,781	19,508	0,128	-0,075
-352,766	800,000	0,027	-0,080
-351,752	-200,000	0,004	0,083
-350,737	-200,000	0,030	0,131
-349,723	-148,102	-0,091	-0,005
-348,708	-90,520	-0,160	-0,034
-347,693	210,246	0,025	0,029
-346,679	-134,986	0,044	0,004
-345,664	609,495	0,063	-0,115
-344,650	800,000	-0,017	-0,045
-343,635	226,850	0,034	-0,041
-342,620	-176,979	0,027	0,000
-341,606	2,377	-0,057	0,030
-340,591	-138,953	-0,079	-0,006
-339,577	-105,078	-0,048	-0,008
-338,562	262,968	-0,101	-0,128
-337,548	249,797	-0,084	-0,104
-336,533	800,000	0,013	-0,034
-335,518	213,479	0,018	-0,021
-334,504	243,466	0,028	0,035
-333,489	-200,000	0,020	-0,140
-332,475	5,183	-0,040	-0,021
-331,460	298,915	0,065	0,087
-330,445	35,167	0,061	0,039
-329,431	-33,166	0,021	-0,009
-328,416	-15,855	0,111	0,052
-327,402	-200,000	0,013	0,104
-326,387	800,000	0,055	0,119
-325,372	-0,943	-0,074	-0,038
-324,358	-2,624	-0,030	-0,015
-323,343	752,198	-0,011	-0,021
-322,329	800,000	0,044	-0,092
-321,314	-200,000	0,035	-0,132
-320,299	-122,945	0,117	0,014
-319,285	28,684	0,075	-0,046
-318,270	-200,000	0,012	-0,061
-317,256	-70,206	-0,096	0,026
-316,241	-200,000	-0,004	-0,085
-315,226	186,414	0,061	-0,066
-314,212	-95,261	0,098	-0,019
-313,197	-200,000	-0,019	-0,077
-312,183	72,787	-0,121	-0,092
-311,168	151,726	0,077	0,076
-310,153	-99,621	-0,051	-0,009
-309,139	166,691	-0,017	-0,018
-308,124	-106,291	0,023	0,004
-307,110	319,834	0,103	0,143
-306,095	436,273	-0,126	0,202
-305,080	353,305	-0,141	0,204
-304,066	315,574	-0,047	0,064
-303,051	192,082	-0,092	0,101
-302,037	-200,000	0,011	-0,092
-301,022	800,000	-0,009	-0,024
-300,008	-200,000	-0,006	-0,033
-298,993	-111,943	0,071	0,010
-297,978	72,572	0,037	0,028
-296,964	-52,518	-0,094	-0,031
-295,949	-163,220	0,093	-0,003
-294,935	436,323	0,019	-0,031
-293,920	499,876	0,012	-0,021
-292,905	56,570	0,084	-0,060
-291,891	-69,747	0,020	0,006
-290,876	36,088	0,038	-0,025
-289,862	-86,735	-0,082	0,018
-288,847	22,532	0,065	-0,038
-287,832	11,297	0,107	0,060
-286,818	207,143	-0,078	-0,089
-285,803	-113,858	-0,095	-0,013
-284,789	124,328	0,047	-0,043
-283,774	188,717	-0,033	-0,036
-282,759	-24,268	-0,043	0,019
-281,745	-123,077	0,089	-0,010
-280,730	800,000	0,031	0,091
-279,716	104,023	0,060	-0,052
-278,701	-200,000	-0,003	-0,028
-277,686	-200,000	0,010	0,113
-276,672	743,537	-0,022	-0,044
-275,657	-200,000	0,018	0,116
-274,643	63,311	0,022	-0,016
-273,628	-52,123	0,060	-0,020
-272,613	517,452	0,087	0,149
-271,599	800,000	0,017	-0,055
-270,584	125,827	-0,069	0,064
-269,570	-200,000	-0,010	-0,077
-268,555	717,286	-0,023	-0,046
-267,540	-92,351	-0,036	-0,007
-266,526	-163,392	-0,091	0,003
-265,511	-200,000	-0,034	-0,228
-264,497	-200,000	-0,026	0,122
-263,482	-109,262	-0,026	0,004
-262,467	-200,000	-0,019	0,091
-261,453	800,000	0,022	0,058
-260,438	182,490	0,032	0,035
-259,424	800,000	-0,075	-0,215
-258,409	570,603	-0,038	0,068
-257,395	59,872	-0,053	-0,038
-256,380	-45,243	0,088	0,032
-255,365	800,000	0,044	0,111
-254,351	-200,000	-0,004	0,234
-253,336	52,032	0,084	0,059
-252,322	-64,217	0,118	-0,035
-251,307	-200,000	0,042	-0,169
-250,292	800,000	0,054	-0,117
-249,278	-200,000	0,012	0,050
-248,263	-186,827	0,069	-0,001
-247,249	483,599	0,035	-0,058
-246,234	-7,030	-0,076	0,037
-245,219	264,843	-0,076	-0,097
-244,205	800,000	-0,049	-0,159
-243,190	800,000	0,042	0,088
-242,176	-84,633	-0,111	-0,025
-241,161	408,585	-0,024	0,038
-240,146	241,682	0,041	0,050
-239,132	184,929	-0,051	0,055
-238,117	-200,000	0,002	0,020
-237,103	86,629	0,095	-0,077
-236,088	168,568	0,016	0,017
-235,073	800,000	-0,034	0,070
-234,059	-20,051	0,071	0,032
-233,044	49,454	-0,117	-0,080
-232,030	38,786	0,088	0,057
-231,015	800,000	-0,039	-0,096
-230,000	-200,000	0,022	-0,133
-228,986	800,000	-0,043	-0,103
-227,971	58,418	0,062	-0,044
-226,957	29,174	-0,096	0,059
-225,942	800,000	-0,037	0,088
-224,927	-200,000	0,006	0,097
-223,913	800,000	0,008	0,024
-222,898	-158,714	0,025	-0,001
-221,884	-200,000	0,008	-0,073
-220,869	152,465	0,080	0,079
-219,855	74,239	-0,075	0,057
-218,840	-200,000	-0,010	0,075
-217,825	-200,000	-0,007	-0,136
-216,811	-200,000	-0,031	0,115
-215,796	-77,298	0,018	0,004
-214,782	71,951	-0,010	0,007
-213,767	-200,000	0,010	-0,175
-212,752	414,758	0,025	-0,039
-211,738	-200,000	-0,001	-0,015
-210,723	10,009	-0,172	0,095
-209,709	800,000	0,018	-0,038
-208,694	339,722	-0,058	-0,082
-207,679	800,000	0,036	-0,084
-206,665	-7,991	-0,053	-0,026
-205,650	-158,441	0,059	0,002
-204,636	-104,614	-0,205	-0,034
-203,621	-200,000	0,008	-0,044
-202,606	-200,000	0,013	-0,057
-201,592	-200,000	0,005	-0,141
-200,577	-200,000	0,009	-0,134
-199,563	800,000	-0,019	-0,048
-198,548	-19,267	-0,082	-0,037
-197,533	423,171	0,076	0,119
-196,519	-19,287	0,068	0,030
-195,504	-91,634	0,078	0,016
-194,490	42,262	-0,035	-0,023
-193,475	341,099	-0,051	-0,072
-192,460	248,028	0,064	-0,079
-191,446	-200,000	-0,021	0,071
-190,431	-67,017	0,035	0,010
-189,417	132,686	0,009	0,008
-188,402	-200,000	0,008	-0,089
-187,387	-200,000	-0,012	-0,048
-186,373	32,663	-0,064	0,040
-185,358	119,528	0,072	0,065
-184,344	-84,516	0,053	-0,012
-183,329	-9,965	0,018	-0,009
-182,315	-9,761	-0,052	0,025
-181,300	-97,449	0,046	-0,009
-180,285	294,983	-0,068	0,090
-179,271	201,262	-0,067	-0,075
-178,256	-65,862	0,051	0,015
-177,242	224,223	0,058	0,069
-176,227	149,306	0,053	0,052
-175,212	-11,937	0,087	0,042
-174,198	-200,000	0,021	-0,090
-173,183	-51,793	-0,048	0,016
-172,169	314,043	-0,032	-0,044
-171,154	-169,383	0,052	0,001
-170,139	572,654	-0,010	0,018
-169,125	-200,000	-0,007	0,117
-168,110	-101,442	0,161	0,028
-167,096	-55,213	-0,036	0,012
-166,081	-200,000	-0,044	0,144
-165,066	-200,000	-0,017	0,084
-164,052	-200,000	0,010	0,122
-163,037	309,798	0,064	-0,087
-162,023	312,883	-0,084	0,115
-161,008	-139,066	-0,065	0,005
-159,993	-200,000	0,017	-0,135
-158,979	207,596	-0,116	-0,131
-157,964	14,538	-0,028	-0,016
-156,950	800,000	-0,015	-0,032
-155,935	-45,567	0,052	0,019
-154,920	-200,000	0,012	0,069
-153,906	-77,513	-0,068	0,017
-152,891	359,485	-0,057	0,084
-151,877	66,497	-0,089	0,065
-150,862	-94,793	-0,119	-0,023
-149,847	5,731	-0,039	-0,021
-148,833	-200,000	0,003	0,066
-147,818	-5,457	-0,083	0,041
-146,804	79,198	0,056	-0,043
-145,789	800,000	0,062	0,127
-144,775	59,065	-0,108	-0,077
-143,760	-200,000	0,002	-0,128
-142,745	222,317	-0,116	-0,136
-141,731	23,981	0,049	-0,030
-140,716	312,021	0,054	0,074
-139,702	800,000	0,053	0,157
-138,687	800,000	-0,084	0,190
-137,672	512,209	0,011	0,018
-136,658	285,335	0,011	-0,014
-135,643	-200,000	-0,003	-0,083
-134,629	130,880	0,022	0,021
-133,614	-63,897	0,012	0,003
-132,599	-200,000	0,040	0,192
-131,585	-200,000	0,027	0,127
-130,570	-60,627	-0,101	0,031
-129,556	800,000	-0,044	-0,117
-128,541	-153,825	-0,021	-0,001
-127,526	-185,183	-0,103	-0,001
-126,512	-10,177	0,113	0,054
-125,497	-33,527	0,102	0,041
-124,483	-200,000	-0,016	0,085
-123,468	-200,000	0,003	-0,043
-122,453	435,792	-0,032	0,050
-121,439	-65,411	-0,055	-0,016
-120,424	56,810	-0,019	-0,014
-119,410	-113,438	0,056	-0,008
-118,395	-200,000	0,013	0,142
-117,380	-149,258	-0,061	0,004
-116,366	-200,000	-0,004	0,117
-115,351	517,007	0,046	-0,079
-114,337	7,147	-0,100	0,054
-113,322	-72,381	-0,170	-0,045
-112,307	352,958	0,008	-0,011
-111,293	-106,982	-0,068	0,011
-110,278	-200,000	0,018	0,119
-109,264	-184,452	-0,117	0,001
-108,249	-188,381	-0,187	-0,002
-107,234	175,537	0,049	0,051
-106,220	-178,539	-0,176	0,003
-105,205	20,819	-0,033	0,019
-104,191	-6,739	0,061	0,030
-103,176	-200,000	0,010	0,161
-102,162	-119,535	-0,079	-0,010
-101,147	61,545	0,017	0,013
-100,132	2,397	-0,104	0,055
-99,118	800,000	0,034	-0,105
-98,103	-77,709	-0,079	-0,020
-97,089	272,150	-0,058	0,075
-96,074	361,682	-0,076	-0,111
-95,059	-143,518	0,044	-0,003
-94,045	212,607	0,086	-0,098
-93,030	-177,056	-0,015	0,000
-92,016	557,518	0,037	-0,065
-91,001	-200,000	-0,023	0,089
-89,986	326,244	-0,027	-0,037
-88,972	298,763	-0,053	0,071
-87,957	44,857	-0,054	0,036
-86,943	-200,000	0,009	-0,074
-85,928	175,804	-0,104	-0,110
-84,913	389,906	-0,050	-0,075
-83,899	-171,163	-0,060	-0,001
-82,884	-52,905	0,091	-0,030
-81,870	-128,780	0,092	0,009
-80,855	-200,000	-0,013	-0,103
-79,840	231,657	-0,050	-0,060
-78,826	70,993	-0,106	0,080
-77,811	126,268	0,048	0,044
-76,797	-28,538	-0,024	0,010
-75,782	-77,187	-0,068	0,017
-74,767	-150,397	0,137	-0,008
-73,753	-36,667	-0,062	-0,024
-72,738	800,000	0,058	-0,138
-71,724	174,300	-0,060	-0,063
-70,709	-106,688	-0,085	-0,014
-69,694	319,790	-0,011	0,016
-68,680	-55,885	-0,067	0,021
-67,665	-70,773	0,104	0,028
-66,651	123,894	0,089	0,081
-65,636	208,684	-0,032	0,037
-64,622	160,593	-0,047	0,047
-63,607	800,000	0,055	-0,170
-62,592	800,000	-0,076	-0,156
-61,578	-113,237	0,115	0,016
-60,563	-200,000	-0,005	-0,077
-59,549	158,353	-0,124	0,124
-58,534	-84,217	-1,447	-0,329
-57,519	645,513	-0,759	-1,409
-56,505	-200,000	-1,075	-4,593
-55,490	-33,967	0,655	-0,260
-54,476	800,000	5,017	11,829
-53,461	-200,000	14,507	258,617
-52,446	-200,000	695,990	2234,811
-51,432	565,914	1622,335	2860,264
-50,417	117,773	1630,259	1453,145
-49,403	74,755	1284,377	977,586
-48,388	37,428	1022,764	655,128
-47,373	23,203	981,803	582,174
-46,359	22,420	971,112	573,246
-45,344	21,276	966,850	566,977
-44,330	21,297	965,277	566,101
-43,315	21,163	963,658	564,693
-42,300	21,087	962,899	563,979
-41,286	21,089	961,890	563,370
-40,271	21,049	960,901	562,639
-39,257	21,041	959,813	561,954
-38,242	21,043	958,867	561,383
-37,227	21,034	958,256	560,975
-36,213	21,021	957,249	560,322
-35,198	20,952	956,468	559,618
-34,184	21,039	955,617	559,378
-33,169	21,030	954,611	558,741
-32,154	21,105	953,885	558,533
-31,140	21,087	953,006	557,938
-30,125	21,178	952,214	557,746
-29,111	21,076	951,482	556,966
-28,096	21,094	950,832	556,622
-27,082	21,088	949,925	556,050
-26,067	21,098	949,138	555,600
-25,052	21,082	948,557	555,187
-24,038	21,090	947,936	554,825
-23,023	21,068	947,247	554,330
-22,009	21,131	946,493	554,070
-20,994	21,107	946,224	553,811
-19,979	21,092	945,516	553,329
-18,965	21,076	944,788	552,831
-17,950	21,107	944,210	552,568
-16,936	21,029	943,505	551,884
-15,921	21,046	942,686	551,439
-14,906	20,951	942,266	550,868
-13,892	20,868	941,629	550,212
-12,877	20,945	940,774	549,935
-11,863	20,908	940,201	549,459
-10,848	20,975	939,606	549,303
-9,833	21,043	939,475	549,419
-8,819	21,000	938,708	548,814
-7,804	20,961	938,036	548,276
-6,790	20,958	937,358	547,848
-5,775	21,003	936,788	547,635
-4,760	21,001	936,153	547,234
-3,746	20,904	935,663	546,621
-2,731	20,822	934,791	545,830
-1,717	20,774	934,049	545,224
-0,702	20,732	933,427	544,709
0,313	20,575	932,972	544,771
1,327	23,641	930,985	553,190
2,342	32,990	794,240	496,765
3,356	30,419	450,740	278,028
4,371	0,201	294,326	151,358
5,386	-4,257	275,498	137,438
6,400	-5,614	269,715	133,281
7,415	-5,828	267,383	131,919
8,429	-5,600	266,075	131,472
9,444	-5,673	265,352	131,035
10,459	-5,683	264,679	130,682
11,473	-5,680	264,076	130,376
12,488	-5,856	263,741	130,039
13,502	-5,798	263,043	129,735
14,517	-5,712	262,612	129,589
15,531	-5,733	262,074	129,294
16,546	-5,815	261,884	129,114
17,561	-5,832	261,577	128,936
18,575	-5,577	261,125	128,931
19,590	-5,911	260,907	128,511
20,604	-5,593	260,613	128,641
21,619	-5,771	260,232	128,282
22,634	-5,686	259,981	128,222
23,648	-5,799	259,594	127,919
24,663	-5,747	259,394	127,855
25,677	-5,633	259,033	127,768
26,692	-5,730	258,868	127,589
27,707	-5,780	258,558	127,380
28,721	-5,895	258,245	127,113
29,736	-5,886	258,041	127,009
30,750	-5,932	257,864	126,870
31,765	-5,731	257,616	126,915
32,780	-5,794	257,339	126,711
33,794	-5,899	257,201	126,538
34,809	-5,800	257,028	126,530
35,823	-5,874	256,676	126,279
36,838	-5,944	256,369	126,055
37,853	-5,864	256,069	125,967
38,867	-5,875	255,864	125,846
39,882	-5,849	255,715	125,784
40,896	-5,893	255,621	125,688
41,911	-5,833	255,268	125,556
42,926	-5,918	255,078	125,377
43,940	-5,819	254,783	125,307
44,955	-6,043	254,609	125,014
45,969	-6,064	254,474	124,919
46,984	-6,275	254,215	124,596
47,999	-6,423	253,879	124,291
49,013	-6,403	253,556	124,139
50,028	-6,535	253,448	123,961
51,042	-6,711	253,167	123,659
52,057	-6,564	252,827	123,610
53,071	-6,583	252,798	123,568
54,086	-6,433	252,549	123,566
55,101	-6,377	252,524	123,591
56,115	-6,304	252,250	123,508
57,130	-5,903	252,079	123,761
58,144	-5,768	251,952	123,805
59,159	-5,651	251,706	123,773
60,174	-5,850	251,665	123,570
61,188	-5,768	251,258	123,430
62,203	-5,788	251,105	123,327
63,217	-5,632	250,885	123,342
64,232	-5,738	250,609	123,104
65,247	-5,766	250,541	123,036
66,261	-5,749	250,384	122,962
67,276	-6,156	249,859	122,345
68,290	-5,966	249,658	122,398
69,305	-6,173	249,463	122,115
70,320	-6,147	249,282	122,038
71,334	-5,902	249,200	122,196
72,349	-5,616	249,079	122,369
73,363	-5,826	248,956	122,119
74,378	-5,754	248,721	122,054
75,393	-5,912	248,490	121,795
76,407	-5,729	248,177	121,787
77,422	-5,930	248,156	121,595
78,436	-5,777	247,862	121,570
79,451	-5,767	247,562	121,421
80,466	-5,837	247,399	121,271
81,480	-5,884	247,041	121,044
82,495	-5,930	247,018	120,983
83,509	-6,006	246,816	120,809
84,524	-5,913	246,448	120,697
85,539	-6,274	246,359	120,338
86,553	-6,115	246,113	120,341
87,568	-5,963	245,921	120,364
88,582	-6,143	245,896	120,190
89,597	-6,086	245,578	120,072
90,611	-5,781	245,401	120,231
91,626	-5,822	245,319	120,145
92,641	-5,937	245,258	120,008
93,655	-6,157	245,049	119,711
94,670	-5,939	244,758	119,741
95,684	-5,954	244,673	119,676
96,699	-6,004	244,278	119,430
97,714	-6,127	244,233	119,294
98,728	-5,899	244,022	119,371
99,743	-6,318	243,835	118,919
100,757	-6,214	243,416	118,791
101,772	-6,045	243,232	118,831
102,787	-6,110	243,263	118,782
103,801	-5,996	243,066	118,770
104,816	-5,926	242,795	118,685
105,830	-5,901	242,762	118,679
106,845	-5,830	242,691	118,693
107,860	-5,926	242,460	118,490
108,874	-5,942	242,192	118,335
109,889	-5,800	241,926	118,311
110,903	-5,906	241,766	118,135
111,918	-6,025	241,586	117,938
112,933	-6,012	241,550	117,921
113,947	-5,907	241,261	117,856
114,962	-5,833	241,115	117,835
115,976	-6,060	240,821	117,494
116,991	-5,779	240,647	117,630
118,006	-5,844	240,646	117,565
119,020	-5,744	240,494	117,563
120,035	-5,854	240,398	117,415
121,049	-5,935	240,264	117,273
122,064	-5,987	240,058	117,119
123,079	-5,944	239,772	117,004
124,093	-6,163	239,584	116,724
125,108	-6,265	239,330	116,506
126,122	-6,410	239,008	116,220
127,137	-6,278	238,874	116,253
128,151	-6,143	238,707	116,270
129,166	-5,842	238,513	116,411
130,181	-6,290	238,433	115,997
131,195	-6,149	238,244	116,009
132,210	-5,818	238,123	116,208
133,224	-5,913	238,114	116,117
134,239	-5,873	237,757	115,964
135,254	-5,835	237,563	115,890
136,268	-6,100	237,378	115,576
137,283	-6,246	237,206	115,363
138,297	-6,228	236,892	115,215
139,312	-6,083	236,576	115,168
140,327	-6,077	236,796	115,269
141,341	-5,484	236,630	115,656
142,356	-5,534	236,567	115,575
143,370	-5,530	236,492	115,532
144,385	-5,504	236,207	115,402
145,400	-5,615	236,037	115,221
146,414	-5,622	235,748	115,063
147,429	-5,677	235,636	114,954
148,443	-5,857	235,600	114,782
149,458	-5,798	235,462	114,751
150,473	-5,594	235,209	114,782
151,487	-5,666	234,884	114,555
152,502	-5,674	234,722	114,460
153,516	-5,740	234,778	114,424
154,531	-5,633	234,512	114,369
155,546	-5,609	234,257	114,254
156,560	-5,689	234,077	114,093
157,575	-5,778	234,049	113,997
158,589	-5,683	233,684	113,885
159,604	-5,414	233,645	114,069
160,619	-5,373	233,399	113,973
161,633	-5,456	233,395	113,894
162,648	-5,433	233,246	113,829
163,662	-5,638	233,052	113,562
164,677	-5,774	232,723	113,285
165,692	-5,545	232,728	113,458
166,706	-5,536	232,638	113,411
167,721	-5,331	232,418	113,455
168,735	-5,427	232,278	113,301
169,750	-5,575	232,160	113,117
170,764	-5,363	231,941	113,167
171,779	-5,542	231,773	112,934
172,794	-5,478	231,620	112,900
173,808	-5,602	231,417	112,693
174,823	-6,088	231,176	112,185
175,837	-6,262	231,014	111,959
176,852	-5,809	230,828	112,214
177,867	-5,450	230,763	112,453
178,881	-5,750	230,701	112,178
179,896	-5,603	230,650	112,259
180,910	-5,476	230,435	112,243
181,925	-5,612	230,405	112,113
182,940	-5,471	230,167	112,097
183,954	-5,453	229,937	111,989
184,969	-5,452	229,830	111,927
185,983	-5,301	229,671	111,958
186,998	-5,475	229,618	111,786
188,013	-5,457	229,362	111,666
189,027	-5,317	229,100	111,637
190,042	-5,204	229,176	111,752
191,056	-5,451	228,945	111,438
192,071	-5,284	228,782	111,478
193,086	-5,398	228,662	111,321
194,100	-5,310	228,185	111,147
195,115	-5,719	228,085	110,772
196,129	-6,325	227,867	110,188
197,144	-3,507	228,896	112,861
198,159	1,115	230,096	117,038
199,173	3,626	230,717	119,297
200,188	3,988	230,575	119,494
201,202	3,946	230,474	119,398
202,217	4,210	230,331	119,518
203,232	4,189	230,200	119,424
204,246	4,272	230,248	119,502
205,261	4,421	229,865	119,408
206,275	4,727	229,822	119,612
207,290	4,647	229,713	119,483
208,304	4,427	229,531	119,207
209,319	4,411	229,391	119,112
210,334	4,418	229,172	118,993
211,348	4,066	229,021	118,632
212,363	3,757	228,781	118,260
213,377	3,715	228,532	118,089
214,392	3,630	228,425	117,958
215,407	3,823	228,221	117,989
216,421	3,912	228,069	117,968
217,436	3,613	227,893	117,638
218,450	3,481	227,645	117,398
219,465	3,414	227,562	117,294
220,480	3,491	227,455	117,287
221,494	3,548	227,327	117,254
222,509	3,732	227,127	117,281
223,523	3,463	227,071	117,036
224,538	3,549	226,851	116,978
225,553	3,623	226,687	116,939
226,567	3,662	226,730	116,981
227,582	3,775	226,617	116,998
228,596	4,180	226,418	117,193
229,611	3,792	226,235	116,793
230,626	3,610	225,980	116,513
231,640	3,480	225,905	116,365
232,655	4,054	225,771	116,721
233,669	4,077	225,712	116,697
234,684	4,375	225,564	116,836
235,699	3,980	225,386	116,435
236,713	4,002	225,207	116,348
237,728	3,530	225,042	115,896
238,742	3,306	224,722	115,552
239,757	3,807	224,619	115,867
240,772	3,667	224,394	115,635
241,786	3,478	224,315	115,442
242,801	3,790	224,242	115,628
243,815	4,013	224,148	115,737
244,830	4,086	224,001	115,706
245,844	3,808	223,822	115,394
246,859	3,847	223,557	115,276
247,874	3,846	223,558	115,266
248,888	4,125	223,364	115,365
249,903	3,851	223,264	115,098
250,917	3,609	223,226	114,887
251,932	3,607	222,911	114,713
252,947	3,501	222,696	114,513
253,961	3,595	222,488	114,466
254,976	3,689	222,372	114,466
255,990	3,929	222,286	114,591
257,005	3,843	222,327	114,537
258,020	3,850	222,262	114,499
259,034	4,153	221,914	114,535
260,049	4,091	221,785	114,412
261,063	3,991	221,647	114,257
262,078	3,893	221,533	114,115
263,093	4,181	221,495	114,298
264,107	3,976	221,253	114,011
265,122	3,927	221,312	113,995
266,136	4,006	221,070	113,919
267,151	4,085	220,886	113,872
268,166	3,752	220,511	113,423
269,180	3,550	220,366	113,189
270,195	3,514	220,327	113,132
271,209	3,685	220,153	113,159
272,224	3,531	220,194	113,057
273,239	3,722	219,908	113,040
274,253	3,703	219,788	112,955
275,268	3,332	219,593	112,572
276,282	3,470	219,179	112,450
277,297	3,604	219,077	112,487
278,312	3,364	219,192	112,359
279,326	3,659	219,067	112,502
280,341	3,641	218,888	112,386
281,355	3,617	218,842	112,336
282,370	3,796	218,539	112,301
283,384	3,337	218,395	111,881
284,399	3,561	218,185	111,927
285,414	3,433	218,202	111,832
286,428	3,576	218,019	111,833
287,443	3,747	217,907	111,890
288,457	3,759	217,850	111,859
289,472	3,594	217,596	111,599
290,487	3,216	217,271	111,148
291,501	3,228	217,338	111,181
292,516	3,287	216,974	111,028
293,530	3,356	217,051	111,107
294,545	3,462	216,911	111,103
295,560	3,723	216,729	111,188
296,574	3,536	216,665	111,011
297,589	3,667	216,589	111,056
298,603	3,838	216,403	111,075
299,618	3,523	216,299	110,783
300,633	3,679	216,086	110,778
301,647	3,732	216,075	110,800
302,662	3,808	215,938	110,775
303,676	4,061	215,839	110,896
304,691	3,958	215,858	110,822
305,706	4,047	215,485	110,685
306,720	4,063	215,315	110,599
307,735	3,660	215,279	110,281
308,749	3,329	215,180	109,983
309,764	3,831	214,952	110,217
310,779	4,008	214,801	110,256
311,793	3,904	214,732	110,137
312,808	3,699	214,639	109,932
313,822	3,897	214,387	109,935
314,837	3,567	214,250	109,619
315,852	3,431	213,999	109,384
316,866	3,654	213,837	109,450
317,881	4,226	213,772	109,815
318,895	3,836	213,619	109,449
319,910	3,691	213,448	109,249
320,925	3,591	213,242	109,062
321,939	3,213	213,108	108,715
322,954	3,207	213,095	108,695
323,968	3,697	213,035	109,002
324,983	3,714	212,860	108,915
325,997	3,733	212,733	108,854
327,012	3,828	212,573	108,830
328,027	3,751	212,559	108,758
329,041	4,189	212,369	108,961
330,056	4,173	212,310	108,909
331,070	3,609	212,101	108,394
332,085	3,445	211,865	108,149
333,100	3,435	211,935	108,167
334,114	3,554	211,663	108,103
335,129	3,883	211,501	108,242
336,143	3,540	211,373	107,926
337,158	3,879	211,072	108,000
338,173	3,812	211,062	107,938
339,187	3,672	210,873	107,734
340,202	3,554	210,605	107,505
341,216	3,460	210,544	107,398
342,231	3,394	210,505	107,322
343,246	3,310	210,339	107,170
344,260	3,689	210,240	107,374
345,275	3,445	210,175	107,161
346,289	3,773	209,972	107,277
347,304	3,787	209,900	107,241
348,319	3,899	209,671	107,192
349,333	3,590	209,617	106,940
350,348	3,980	209,513	107,149
351,362	4,079	209,396	107,148
352,377	4,039	209,213	107,017
353,392	3,517	209,207	106,641
354,406	3,698	208,955	106,629
355,421	194,325	1343,871	1430,441
356,435	155,092	1482,224	1430,544
