DTS Sentinel unit serial number:	SN410029Multiplexer serial number:	ORYXHardware model number:	OX2-SRSoftware version number:	ORYX F/W v4,00 Oryx Data Collector v3.7.2.0data status	okinstallation	B6 Nyhavnadifferential loss correction	single-endedforward channel	channel 2reverse channel	N/Adate	2023/12/08time	14:20:08forward acquisition time	300,00reverse acquisition time	0,00gamma	499,1914k internal	0,3159k external	0,3159temperature offset calibration	1,0000default loss term (dB/km)	0,3820temperature slope calibration	1,0000multiplexer offset coefficient	1,0000multiplexer slope coefficient	1,0000fibre end	0,00T internal ref (°C)	15,05T ext. ref 1 (°C)	-1,52T ext. ref 2 (°C)	-1,51length (m)	temperature (°C)	Stokes	anti-Stokes-744,400	-69,030	0,178	-0,050
-743,385	-88,663	-0,243	0,053
-742,371	-156,062	0,127	-0,006
-741,356	-19,266	-0,199	0,091
-740,342	-200,000	-0,002	0,222
-739,327	-170,462	-0,393	-0,010
-738,312	-113,118	0,111	-0,016
-737,298	-191,535	-0,306	0,002
-736,283	-200,000	-0,019	0,086
-735,269	-186,848	-0,263	0,003
-734,254	-148,779	0,073	-0,004
-733,239	-56,665	-0,522	-0,169
-732,225	12,804	0,207	0,118
-731,210	800,000	0,043	0,092
-730,196	23,602	-0,037	-0,022
-729,181	287,681	-0,056	-0,074
-728,167	0,731	-0,072	0,038
-727,152	-38,690	0,142	0,055
-726,137	-128,298	-0,128	-0,013
-725,123	438,795	-0,041	-0,067
-724,108	240,262	-0,087	-0,107
-723,094	8,081	0,055	0,030
-722,079	-70,095	-0,037	-0,010
-721,064	-200,000	0,004	-0,023
-720,050	-26,032	-0,032	0,014
-719,035	800,000	-0,034	-0,076
-718,021	800,000	-0,047	-0,105
-717,006	-77,689	-0,042	0,011
-715,991	-12,766	-0,101	-0,048
-714,977	235,458	-0,059	-0,072
-713,962	-70,556	-0,109	-0,030
-712,948	-200,000	0,002	0,064
-711,933	113,915	0,075	-0,067
-710,918	-49,874	-0,136	0,047
-709,904	350,408	-0,080	-0,117
-708,889	-200,000	0,021	-0,075
-707,875	13,528	-0,124	-0,071
-706,860	800,000	0,010	-0,028
-705,845	251,385	0,013	-0,017
-704,831	595,884	-0,047	0,086
-703,816	-200,000	0,016	0,122
-702,802	-200,000	-0,007	-0,098
-701,787	474,585	-0,063	-0,104
-700,772	78,426	-0,156	-0,123
-699,758	-83,046	0,042	-0,010
-698,743	472,415	0,027	-0,045
-697,729	-200,000	-0,006	-0,034
-696,714	-45,142	-0,036	-0,013
-695,699	51,193	-0,023	0,016
-694,685	-200,000	-0,035	-0,116
-693,670	97,055	0,059	0,050
-692,656	160,446	-0,046	0,047
-691,641	261,147	0,110	-0,140
-690,627	-76,551	0,062	0,016
-689,612	800,000	0,024	0,070
-688,597	-200,000	-0,017	-0,102
-687,583	-162,638	-0,137	-0,005
-686,568	800,000	-0,054	-0,113
-685,554	-200,000	-0,049	-0,207
-684,539	-61,594	-0,019	-0,006
-683,524	211,376	-0,041	-0,047
-682,510	-200,000	0,015	0,087
-681,495	-128,255	-0,125	0,013
-680,481	265,234	0,091	-0,116
-679,466	-200,000	-0,016	-0,140
-678,451	182,828	-0,037	-0,040
-677,437	800,000	-0,021	-0,056
-676,422	273,470	-0,040	-0,052
-675,408	-200,000	-0,001	-0,009
-674,393	256,765	-0,052	-0,065
-673,378	-19,452	-0,185	-0,084
-672,364	613,482	0,058	-0,107
-671,349	85,677	-0,073	0,059
-670,335	393,537	-0,047	0,071
-669,320	800,000	-0,010	-0,025
-668,305	-32,059	-0,067	-0,027
-667,291	-10,358	-0,107	0,052
-666,276	94,410	-0,114	-0,095
-665,262	-100,478	-0,059	-0,011
-664,247	-131,836	0,134	-0,013
-663,232	-120,385	-0,056	-0,007
-662,218	565,698	-0,058	0,104
-661,203	393,395	-0,087	0,133
-660,189	328,938	-0,044	-0,062
-659,174	-200,000	-0,011	-0,096
-658,159	-200,000	-0,024	-0,118
-657,145	86,475	-0,146	-0,118
-656,130	79,256	0,044	-0,035
-655,116	-200,000	0,023	0,095
-654,101	800,000	-0,033	0,075
-653,086	44,749	-0,092	-0,062
-652,072	561,760	-0,030	0,053
-651,057	-30,192	0,070	-0,029
-650,043	229,847	-0,070	-0,084
-649,028	13,309	-0,096	0,055
-648,014	-160,426	0,155	-0,006
-646,999	-63,027	0,071	0,022
-645,984	-130,514	-0,163	0,016
-644,970	-103,397	-0,068	-0,012
-643,955	-32,381	0,147	0,060
-642,941	15,826	0,112	0,064
-641,926	224,159	-0,091	-0,108
-640,911	29,449	0,097	0,060
-639,897	-200,000	-0,008	0,105
-638,882	296,804	-0,053	0,071
-637,868	-13,298	-0,050	-0,024
-636,853	72,598	-0,129	-0,098
-635,838	800,000	-0,043	-0,117
-634,824	73,837	-0,147	-0,113
-633,809	220,525	0,020	-0,023
-632,795	34,254	-0,026	-0,017
-631,780	-200,000	0,023	0,162
-630,765	222,097	-0,060	-0,071
-629,751	-128,537	-0,072	-0,007
-628,736	800,000	-0,031	-0,084
-627,722	-114,401	0,092	0,013
-626,707	40,356	0,066	-0,043
-625,692	39,319	-0,052	-0,034
-624,678	-40,894	0,110	0,041
-623,663	-107,070	-0,105	-0,017
-622,649	143,545	0,057	-0,056
-621,634	800,000	0,025	0,073
-620,619	65,917	-0,059	-0,044
-619,605	-33,517	0,089	-0,036
-618,590	-15,352	0,170	-0,079
-617,576	-102,780	-0,017	-0,003
-616,561	126,788	-0,138	-0,128
-615,546	-200,000	-0,011	-0,208
-614,532	265,394	-0,101	-0,130
-613,517	-29,238	0,056	0,023
-612,503	43,986	0,041	0,027
-611,488	488,215	-0,053	0,089
-610,474	4,767	0,087	-0,047
-609,459	148,426	-0,072	-0,071
-608,444	-200,000	0,014	-0,049
-607,430	328,616	0,050	-0,071
-606,415	-7,394	0,091	-0,045
-605,401	-153,109	-0,076	-0,004
-604,386	800,000	0,050	0,102
-603,371	-102,027	-0,071	0,012
-602,357	-64,111	-0,016	-0,005
-601,342	-78,039	-0,089	-0,022
-600,328	-101,803	-0,199	-0,035
-599,313	622,528	0,063	-0,117
-598,298	41,345	-0,083	0,055
-597,284	-200,000	0,051	0,184
-596,269	-200,000	-0,005	0,040
-595,255	-200,000	0,009	0,107
-594,240	-24,079	-0,109	-0,048
-593,225	404,678	-0,065	0,101
-592,211	0,326	-0,037	-0,019
-591,196	-200,000	-0,000	0,010
-590,182	209,646	-0,035	-0,040
-589,167	108,697	0,054	0,047
-588,152	1,581	-0,153	0,080
-587,138	800,000	-0,060	-0,150
-586,123	-85,068	0,059	0,014
-585,109	319,430	-0,027	0,038
-584,094	800,000	-0,039	0,107
-583,079	-200,000	-0,008	0,032
-582,065	-141,785	-0,090	0,006
-581,050	-126,653	-0,036	-0,004
-580,036	-141,210	-0,031	-0,002
-579,021	-173,322	-0,116	0,003
-578,006	357,410	0,015	-0,022
-576,992	415,049	-0,047	-0,073
-575,977	698,468	0,017	0,034
-574,963	-143,805	-0,123	0,008
-573,948	218,045	0,018	-0,021
-572,934	-200,000	-0,004	-0,093
-571,919	800,000	0,050	-0,151
-570,904	800,000	-0,063	-0,137
-569,890	779,341	0,060	-0,120
-568,875	43,941	-0,066	0,044
-567,861	24,483	-0,094	-0,057
-566,846	167,262	-0,058	-0,061
-565,831	-53,343	-0,164	-0,055
-564,817	26,665	-0,031	-0,019
-563,802	-97,195	-0,070	-0,013
-562,788	24,967	0,082	0,050
-561,773	94,784	0,058	0,049
-560,758	-72,913	0,198	-0,053
-559,744	-62,730	-0,084	0,025
-558,729	230,133	-0,041	-0,049
-557,715	-87,472	-0,051	-0,011
-556,700	1,214	-0,085	-0,045
-555,685	-167,462	-0,049	-0,001
-554,671	-80,189	-0,045	0,011
-553,656	372,072	-0,056	-0,083
-552,642	800,000	0,057	0,144
-551,627	-200,000	-0,002	0,012
-550,612	-200,000	-0,005	0,137
-549,598	-200,000	0,010	-0,034
-548,583	-200,000	-0,004	-0,025
-547,569	361,605	0,093	-0,137
-546,554	513,200	0,069	0,118
-545,539	-165,202	-0,052	0,002
-544,525	-137,793	0,141	0,011
-543,510	158,693	0,015	0,015
-542,496	57,664	-0,050	-0,036
-541,481	320,734	-0,064	-0,089
-540,466	-95,554	-0,058	-0,011
-539,452	147,709	0,059	0,058
-538,437	-126,700	0,180	0,019
-537,423	-93,679	0,111	0,022
-536,408	-103,938	0,025	0,004
-535,393	117,899	0,086	0,078
-534,379	-200,000	-0,010	0,096
-533,364	-126,642	-0,075	-0,008
-532,350	-200,000	0,013	0,075
-531,335	208,605	0,032	-0,037
-530,321	-56,632	-0,062	0,020
-529,306	-200,000	-0,013	0,172
-528,291	-200,000	-0,017	0,100
-527,277	-200,000	-0,014	0,054
-526,262	207,417	-0,045	-0,052
-525,248	316,340	-0,085	0,118
-524,233	410,469	0,130	0,202
-523,218	60,280	0,022	-0,016
-522,204	800,000	-0,023	-0,065
-521,189	83,349	-0,102	0,081
-520,175	-79,513	-0,109	0,027
-519,160	-200,000	-0,000	-0,059
-518,145	301,543	0,071	-0,097
-517,131	-112,949	0,184	-0,026
-516,116	-200,000	-0,017	-0,140
-515,102	-45,024	-0,148	-0,053
-514,087	-200,000	0,019	-0,106
-513,072	184,461	-0,055	0,059
-512,058	-136,557	0,008	0,001
-511,043	-200,000	0,000	0,026
-510,029	-165,518	0,077	0,002
-509,014	-200,000	-0,021	-0,079
-507,999	71,599	0,057	0,043
-506,985	139,503	-0,056	0,054
-505,970	800,000	0,029	0,083
-504,956	-200,000	0,025	-0,104
-503,941	69,189	0,099	-0,074
-502,926	-150,319	0,094	0,005
-501,912	-142,863	0,041	0,003
-500,897	800,000	-0,037	-0,086
-499,883	-73,213	-0,034	0,009
-498,868	-135,185	-0,140	-0,012
-497,853	71,507	-0,081	0,061
-496,839	-154,990	0,028	0,001
-495,824	-200,000	0,036	0,208
-494,810	-154,584	0,136	0,006
-493,795	14,038	0,125	0,071
-492,781	11,166	-0,136	0,076
-491,766	-67,125	-0,071	-0,020
-490,751	-63,653	0,035	0,010
-489,737	-38,731	0,060	0,023
-488,722	-55,515	0,118	-0,038
-487,708	160,494	-0,054	0,055
-486,693	-200,000	-0,015	0,054
-485,678	199,600	-0,096	0,108
-484,664	-36,691	-0,017	0,006
-483,649	257,566	-0,061	-0,077
-482,635	9,539	-0,075	-0,041
-481,620	103,792	0,063	-0,054
-480,605	46,871	-0,032	0,022
-479,591	414,942	-0,068	-0,106
-478,576	800,000	-0,052	-0,106
-477,562	539,543	0,021	-0,037
-476,547	-101,338	-0,263	-0,046
-475,532	1,856	0,089	0,046
-474,518	800,000	-0,035	-0,079
-473,503	-200,000	-0,012	0,107
-472,489	-153,356	0,104	-0,005
-471,474	800,000	0,030	0,084
-470,459	83,567	0,110	-0,087
-469,445	-200,000	0,036	-0,171
-468,430	800,000	-0,012	0,036
-467,416	-200,000	0,005	-0,044
-466,401	135,322	0,068	0,065
-465,386	-3,582	-0,070	0,035
-464,372	-1,975	0,085	-0,044
-463,357	397,067	-0,014	-0,021
-462,343	-131,235	-0,134	-0,013
-461,328	167,311	-0,028	0,029
-460,313	-134,477	0,199	-0,017
-459,299	48,923	0,122	0,083
-458,284	254,841	0,045	0,057
-457,270	99,576	0,047	0,039
-456,255	-143,300	0,082	0,006
-455,241	459,581	-0,104	-0,169
-454,226	-28,680	0,097	0,041
-453,211	-107,410	-0,101	-0,016
-452,197	34,146	-0,081	0,051
-451,182	-200,000	0,017	0,074
-450,168	-200,000	0,086	0,000
-449,153	250,214	0,041	0,051
-448,138	800,000	0,053	-0,122
-447,124	71,209	-0,073	-0,055
-446,109	181,084	0,009	0,010
-445,095	-139,475	-0,033	-0,003
-444,080	371,829	0,059	0,087
-443,065	-24,965	0,015	-0,007
-442,051	-18,379	-0,145	-0,066
-441,036	-200,000	-0,006	0,019
-440,022	-200,000	-0,039	0,145
-439,007	800,000	-0,032	-0,069
-437,992	800,000	-0,023	0,050
-436,978	-146,871	0,107	0,007
-435,963	800,000	0,029	0,076
-434,949	-78,260	0,097	0,024
-433,934	-83,765	-0,094	0,022
-432,919	-200,000	0,017	-0,077
-431,905	800,000	0,033	0,085
-430,890	261,420	0,037	0,047
-429,876	800,000	0,048	0,134
-428,861	132,966	0,046	-0,043
-427,846	800,000	0,023	0,059
-426,832	484,155	-0,075	-0,124
-425,817	-200,000	0,004	-0,047
-424,803	11,527	0,044	0,024
-423,788	-0,872	0,088	0,045
-422,773	-200,000	-0,004	-0,087
-421,759	-112,792	-0,144	-0,021
-420,744	-21,160	-0,120	-0,053
-419,730	249,146	0,081	0,100
-418,715	543,798	-0,028	-0,048
-417,701	-173,781	0,102	-0,002
-416,686	139,423	0,032	-0,030
-415,671	-180,622	0,081	-0,001
-414,657	36,904	0,159	0,102
-413,642	-200,000	0,032	0,114
-412,628	49,821	0,046	-0,031
-411,613	-108,708	0,071	-0,011
-410,598	45,347	0,078	0,052
-409,584	-10,834	0,114	0,055
-408,569	216,789	0,012	-0,014
-407,555	-200,000	-0,003	0,064
-406,540	24,706	0,083	-0,050
-405,525	-144,787	-0,125	0,008
-404,511	9,726	0,096	-0,053
-403,496	248,650	-0,062	0,076
-402,482	502,953	0,024	0,041
-401,467	-118,886	0,046	-0,006
-400,452	-200,000	-0,031	0,106
-399,438	800,000	-0,043	0,100
-398,423	-157,289	-0,163	0,007
-397,409	9,442	-0,046	-0,025
-396,394	800,000	-0,074	-0,159
-395,379	176,166	0,065	-0,068
-394,365	-54,771	0,108	0,035
-393,350	2,043	0,110	0,058
-392,336	175,421	0,080	0,084
-391,321	437,830	0,059	-0,093
-390,306	-200,000	0,019	-0,179
-389,292	-13,170	0,090	-0,042
-388,277	-78,580	0,110	0,027
-387,263	-200,000	0,004	0,029
-386,248	-200,000	0,002	0,029
-385,233	-0,825	0,005	0,003
-384,219	-52,445	0,043	-0,014
-383,204	187,345	0,022	-0,023
-382,190	800,000	-0,045	-0,119
-381,175	5,554	0,023	-0,012
-380,160	206,638	-0,118	-0,134
-379,146	800,000	-0,041	0,120
-378,131	-200,000	0,014	0,054
-377,117	26,007	-0,048	-0,029
-376,102	495,515	-0,067	0,112
-375,088	-87,240	0,096	-0,021
-374,073	-200,000	0,002	-0,022
-373,058	-200,000	0,024	0,106
-372,044	-66,204	0,190	0,054
-371,029	-200,000	0,001	0,191
-370,015	509,420	0,025	-0,042
-369,000	-200,000	-0,016	-0,220
-367,985	109,849	-0,045	-0,039
-366,971	82,290	-0,069	-0,054
-365,956	338,139	0,033	0,047
-364,942	-148,214	0,083	0,005
-363,927	-43,181	-0,008	0,003
-362,912	-200,000	0,011	0,097
-361,898	-200,000	0,005	0,027
-360,883	800,000	-0,060	-0,164
-359,869	-200,000	0,025	-0,095
-358,854	-200,000	0,008	-0,122
-357,839	195,356	0,052	0,058
-356,825	788,564	-0,078	0,157
-355,810	26,967	-0,109	0,066
-354,796	-200,000	-0,004	0,013
-353,781	225,334	-0,024	0,028
-352,766	-200,000	0,040	-0,152
-351,752	-138,375	-0,085	0,007
-350,737	-200,000	0,027	0,158
-349,723	86,566	0,028	0,022
-348,708	-200,000	0,007	0,101
-347,693	49,382	-0,027	0,018
-346,679	-200,000	0,005	-0,108
-345,664	12,635	0,075	0,042
-344,650	-200,000	0,002	-0,031
-343,635	-108,540	0,104	0,016
-342,620	-31,724	0,092	-0,037
-341,606	800,000	0,013	-0,038
-340,591	167,680	-0,047	0,049
-339,577	46,444	-0,079	-0,053
-338,562	443,478	-0,092	0,148
-337,548	-91,966	-0,067	-0,014
-336,533	-200,000	0,023	0,081
-335,518	800,000	-0,052	0,117
-334,504	185,876	-0,108	0,116
-333,489	-134,134	0,035	0,003
-332,475	-50,473	0,093	-0,032
-331,460	744,109	0,052	-0,102
-330,445	-90,540	0,152	-0,032
-329,431	-75,258	0,092	-0,024
-328,416	800,000	0,037	0,076
-327,402	71,138	0,070	0,053
-326,387	32,718	0,042	-0,026
-325,372	217,622	0,016	-0,018
-324,358	-200,000	0,006	-0,184
-323,343	244,539	0,054	-0,066
-322,329	-69,342	0,095	-0,026
-321,314	192,713	0,079	-0,087
-320,299	-200,000	-0,026	0,103
-319,285	29,798	0,069	0,042
-318,270	320,840	0,123	-0,170
-317,256	-200,000	0,000	-0,094
-316,241	800,000	-0,031	-0,098
-315,226	-43,291	0,148	0,054
-314,212	-118,167	-0,113	0,014
-313,197	-67,401	-0,048	-0,014
-312,183	-91,904	-0,127	0,026
-311,168	-93,736	0,068	0,013
-310,153	144,203	-0,077	-0,074
-309,139	-103,527	-0,120	-0,020
-308,124	95,708	-0,058	-0,048
-307,110	-200,000	-0,017	0,129
-306,095	800,000	-0,015	0,034
-305,080	-135,841	0,098	-0,008
-304,066	-85,155	0,134	0,030
-303,051	-150,038	-0,064	-0,004
-302,037	-200,000	0,030	-0,157
-301,022	290,528	0,050	-0,066
-300,008	446,766	0,061	0,098
-298,993	-148,749	-0,119	-0,007
-297,978	-109,144	-0,027	0,004
-296,964	-28,052	0,044	0,018
-295,949	87,280	-0,076	0,061
-294,935	-96,768	-0,170	0,032
-293,920	-4,873	0,142	-0,071
-292,905	-155,967	0,168	0,008
-291,891	-50,320	-0,064	0,022
-290,876	15,103	0,076	-0,043
-289,862	110,931	0,012	0,011
-288,847	177,824	-0,081	0,085
-287,832	33,682	-0,096	0,060
-286,818	-200,000	0,010	0,053
-285,803	-42,526	-0,017	0,006
-284,789	-200,000	0,002	0,019
-283,774	178,311	0,087	0,092
-282,759	-18,003	-0,015	0,007
-281,745	-32,771	-0,094	-0,037
-280,730	-200,000	0,010	0,087
-279,716	303,456	-0,017	-0,023
-278,701	62,502	0,128	0,092
-277,686	800,000	-0,055	0,138
-276,672	-200,000	-0,014	-0,106
-275,657	-200,000	0,020	0,080
-274,643	285,957	0,013	0,017
-273,628	-200,000	0,015	-0,092
-272,613	800,000	0,041	-0,119
-271,599	20,028	0,134	0,078
-270,584	141,368	-0,086	-0,082
-269,570	343,549	-0,115	0,164
-268,555	-103,346	-0,106	-0,018
-267,540	51,276	-0,080	0,055
-266,526	-109,129	-0,059	-0,009
-265,511	-62,459	0,089	0,027
-264,497	157,995	0,046	0,046
-263,482	800,000	0,046	0,102
-262,467	-62,948	0,071	0,021
-261,453	800,000	0,038	-0,097
-260,438	-200,000	-0,006	-0,054
-259,424	-90,844	-0,134	-0,028
-258,409	-200,000	-0,007	0,078
-257,395	-190,987	0,043	-0,000
-256,380	800,000	0,037	0,099
-255,365	-200,000	0,028	-0,143
-254,351	-51,778	-0,076	-0,025
-253,336	-200,000	0,023	0,074
-252,322	112,933	0,095	0,084
-251,307	800,000	0,008	-0,018
-250,292	552,202	0,032	-0,056
-249,278	154,115	0,120	0,119
-248,263	-65,702	0,061	-0,017
-247,249	195,686	-0,102	0,113
-246,234	76,968	0,046	-0,035
-245,219	456,133	-0,039	0,063
-244,205	50,066	-0,068	0,046
-243,190	-133,857	-0,021	0,002
-242,176	384,415	0,043	0,064
-241,161	149,843	-0,044	0,043
-240,146	237,330	-0,044	0,053
-239,132	-200,000	-0,004	0,067
-238,117	152,613	-0,073	-0,072
-237,103	173,997	0,005	0,006
-236,088	-200,000	0,001	-0,029
-235,073	388,854	-0,049	-0,073
-234,059	-11,851	-0,073	-0,034
-233,044	800,000	-0,030	0,089
-232,030	-79,274	-0,059	-0,014
-231,015	96,594	-0,056	0,046
-230,000	-66,390	0,093	-0,027
-228,986	-200,000	-0,009	-0,150
-227,971	396,104	-0,016	0,024
-226,957	699,381	0,053	-0,101
-225,942	42,137	0,163	0,107
-224,927	-76,609	-0,153	0,038
-223,913	-124,525	-0,107	-0,012
-222,898	323,691	-0,088	0,121
-221,884	98,424	0,035	0,029
-220,869	-139,623	0,132	-0,010
-219,855	-200,000	0,024	0,165
-218,840	89,101	0,081	0,065
-217,825	-200,000	0,033	0,148
-216,811	800,000	-0,065	-0,132
-215,796	216,040	-0,106	-0,122
-214,782	154,682	-0,143	-0,142
-213,767	143,416	0,021	-0,020
-212,752	107,611	0,047	0,040
-211,738	-200,000	-0,002	0,058
-210,723	-104,431	-0,114	0,019
-209,709	800,000	-0,005	-0,015
-208,694	-17,148	-0,055	-0,025
-207,679	-20,821	-0,126	0,055
-206,665	-137,786	-0,049	-0,004
-205,650	-1,283	-0,066	0,034
-204,636	-200,000	-0,040	-0,184
-203,621	800,000	0,092	-0,221
-202,606	-200,000	-0,023	0,076
-201,592	173,847	-0,093	-0,097
-200,577	58,196	0,156	-0,110
-199,563	-33,329	-0,062	-0,025
-198,548	-50,007	0,144	-0,049
-197,533	53,399	-0,148	0,102
-196,519	76,556	0,134	0,102
-195,504	332,643	0,072	0,100
-194,490	317,850	-0,088	-0,120
-193,475	590,127	-0,039	0,070
-192,460	-200,000	-0,002	-0,096
-191,446	-24,861	-0,031	-0,013
-190,431	-200,000	-0,017	-0,229
-189,417	47,785	-0,053	-0,035
-188,402	-200,000	0,018	-0,067
-187,387	-104,014	-0,068	-0,011
-186,373	-6,598	-0,102	-0,050
-185,358	-112,944	0,084	-0,012
-184,344	75,450	0,042	-0,032
-183,329	221,672	0,057	-0,066
-182,315	-88,807	0,120	0,025
-181,300	-59,793	-0,135	-0,041
-180,285	105,945	0,009	0,008
-179,271	800,000	-0,057	-0,126
-178,256	-21,632	-0,077	0,033
-177,242	-200,000	-0,014	-0,070
-176,227	491,822	-0,040	-0,067
-175,212	-87,597	-0,078	0,017
-174,198	-200,000	0,000	0,134
-173,183	45,514	-0,120	-0,080
-172,169	100,908	0,062	-0,052
-171,154	800,000	-0,015	0,031
-170,139	727,501	0,075	0,146
-169,125	21,023	0,140	-0,082
-168,110	800,000	-0,014	0,028
-167,096	59,896	-0,089	-0,063
-166,081	12,941	-0,128	0,071
-165,066	118,654	-0,082	0,073
-164,052	-200,000	-0,020	0,066
-163,037	196,453	0,088	0,097
-162,023	-70,042	0,253	0,069
-161,008	800,000	0,044	-0,118
-159,993	-141,206	0,098	-0,007
-158,979	-121,211	-0,050	0,006
-157,964	-200,000	0,004	-0,225
-156,950	-132,737	-0,067	0,006
-155,935	172,011	0,067	0,069
-154,920	-120,182	0,067	-0,008
-153,906	-78,374	0,155	-0,038
-152,891	36,529	-0,071	0,045
-151,877	45,101	0,076	-0,050
-150,862	63,389	-0,045	-0,033
-149,847	-62,207	-0,032	0,009
-148,833	413,099	0,117	-0,179
-147,818	-200,000	0,002	-0,066
-146,804	-133,838	-0,139	-0,012
-145,789	-200,000	0,030	-0,096
-144,775	-8,743	0,022	-0,011
-143,760	800,000	-0,030	0,067
-142,745	-200,000	-0,003	-0,198
-141,731	23,385	-0,110	-0,065
-140,716	-99,102	0,208	-0,038
-139,702	-168,797	-0,183	0,005
-138,687	-43,044	-0,122	-0,044
-137,672	-200,000	0,013	-0,076
-136,658	-200,000	-0,013	0,127
-135,643	800,000	-0,026	-0,056
-134,629	142,855	0,053	-0,051
-133,614	800,000	0,061	0,126
-132,599	159,275	-0,048	-0,049
-131,585	286,655	0,085	0,110
-130,570	200,011	0,068	-0,075
-129,556	-159,856	-0,123	0,005
-128,541	-116,957	-0,114	-0,015
-127,526	315,432	-0,086	0,117
-126,512	-164,493	0,152	0,005
-125,497	-117,903	-0,082	-0,010
-124,483	-20,061	-0,037	0,016
-123,468	-200,000	0,014	0,094
-122,453	514,809	0,070	-0,118
-121,439	-200,000	0,010	-0,047
-120,424	220,756	-0,075	-0,087
-119,410	-200,000	0,001	0,082
-118,395	123,101	0,049	0,044
-117,380	-60,003	0,007	0,002
-116,366	-200,000	-0,002	-0,012
-115,351	22,522	0,114	-0,067
-114,337	-54,913	-0,059	-0,019
-113,322	-200,000	0,032	0,109
-112,307	-200,000	0,000	-0,040
-111,293	130,268	0,066	-0,060
-110,278	30,067	0,080	0,049
-109,264	-61,573	0,058	-0,017
-108,249	1,132	-0,116	0,060
-107,234	-200,000	-0,004	-0,065
-106,220	42,343	0,055	0,036
-105,205	35,705	-0,029	0,018
-104,191	161,007	0,037	-0,037
-103,176	-200,000	-0,002	0,053
-102,162	800,000	-0,025	-0,074
-101,147	-181,893	-0,122	0,002
-100,132	-200,000	0,024	-0,170
-99,118	123,926	-0,057	-0,051
-98,103	296,832	0,009	0,012
-97,089	300,511	0,105	0,139
-96,074	-90,993	-0,129	-0,026
-95,059	19,820	0,066	-0,038
-94,045	128,981	-0,037	0,034
-93,030	-200,000	0,012	-0,104
-92,016	-200,000	-0,006	-0,059
-91,001	800,000	0,022	0,052
-89,986	247,567	-0,021	0,026
-88,972	-200,000	-0,003	0,188
-87,957	800,000	-0,052	0,112
-86,943	800,000	-0,018	-0,044
-85,928	800,000	-0,059	-0,183
-84,913	-200,000	-0,034	-0,130
-83,899	-200,000	0,018	-0,089
-82,884	399,888	-0,018	-0,028
-81,870	24,637	-0,111	-0,066
-80,855	603,141	-0,035	0,062
-79,840	-200,000	0,015	-0,165
-78,826	-196,448	0,089	-0,000
-77,811	146,757	0,086	-0,083
-76,797	201,738	-0,053	0,059
-75,782	-103,675	-0,035	-0,006
-74,767	79,584	0,052	0,040
-73,753	23,563	-0,077	0,046
-72,738	-200,000	0,021	0,152
-71,724	-200,000	0,005	-0,089
-70,709	-200,000	-0,030	-0,129
-69,694	129,976	0,062	0,057
-68,680	90,506	0,078	0,063
-67,665	17,518	0,171	-0,097
-66,651	34,028	-0,055	0,035
-65,636	-93,821	0,056	-0,011
-64,622	63,876	-0,066	0,048
-63,607	192,386	-0,061	0,066
-62,592	233,198	-0,016	-0,019
-61,578	-100,613	-0,173	-0,030
-60,563	311,018	0,119	0,160
-59,549	800,000	0,043	0,095
-58,534	0,056	-2,055	-1,047
-57,519	-200,000	-0,193	-0,909
-56,505	-200,000	-1,351	-5,101
-55,490	139,604	0,894	0,845
-54,476	800,000	5,155	11,565
-53,461	-200,000	17,995	289,492
-52,446	800,000	728,107	2222,699
-51,432	532,140	1640,714	2795,215
-50,417	108,667	1629,880	1396,158
-49,403	72,567	1283,182	958,871
-48,388	31,197	1025,872	629,950
-47,373	19,879	988,051	569,460
-46,359	18,150	976,006	556,836
-45,344	15,373	971,958	545,434
-44,330	15,576	970,470	545,239
-43,315	15,126	968,734	542,777
-42,300	15,054	967,513	541,835
-41,286	15,026	966,713	541,274
-40,271	15,077	965,492	540,737
-39,257	15,070	964,575	540,177
-38,242	15,071	963,900	539,780
-37,227	15,089	963,068	539,354
-36,213	15,089	962,133	538,807
-35,198	15,011	961,398	538,121
-34,184	15,077	960,644	537,893
-33,169	15,026	959,607	537,126
-32,154	15,114	958,639	536,846
-31,140	15,076	957,758	536,210
-30,125	15,080	957,093	535,829
-29,111	15,128	956,097	535,404
-28,096	15,096	955,589	534,995
-27,082	15,071	954,938	534,530
-26,067	15,084	954,189	534,130
-25,052	15,047	953,498	533,604
-24,038	15,017	952,894	533,150
-23,023	15,082	952,020	532,846
-22,009	15,104	951,538	532,627
-20,994	15,109	950,855	532,240
-19,979	15,094	950,341	531,882
-18,965	15,083	949,561	531,390
-17,950	15,113	948,892	531,088
-16,936	15,058	948,197	530,505
-15,921	15,013	947,816	530,127
-14,906	14,958	947,018	529,484
-13,892	15,041	946,295	529,324
-12,877	14,989	945,587	528,739
-11,863	14,965	945,081	528,360
-10,848	14,978	944,605	528,115
-9,833	15,141	943,881	528,207
-8,819	15,066	943,444	527,702
-7,804	14,984	942,755	527,036
-6,790	14,996	942,176	526,730
-5,775	15,033	941,782	526,606
-4,760	15,053	941,002	526,212
-3,746	14,987	940,478	525,689
-2,731	14,912	939,613	524,948
-1,717	14,821	939,089	524,348
-0,702	14,836	938,099	523,821
0,313	14,619	937,819	523,771
1,327	18,197	935,558	533,711
2,342	27,569	789,328	474,946
3,356	24,096	444,039	262,027
4,371	-5,682	295,328	144,541
5,386	-9,823	277,216	131,741
6,400	-11,070	271,474	127,842
7,415	-10,984	269,073	126,779
8,429	-11,264	267,809	125,916
9,444	-11,171	266,973	125,596
10,459	-11,164	266,318	125,284
11,473	-11,266	265,529	124,808
12,488	-11,408	265,045	124,442
13,502	-11,559	264,552	124,063
14,517	-11,391	264,178	124,027
15,531	-11,440	263,700	123,748
16,546	-11,244	263,330	123,739
17,561	-11,452	263,036	123,403
18,575	-11,283	262,686	123,380
19,590	-11,465	262,149	122,954
20,604	-11,213	262,091	123,141
21,619	-11,362	261,669	122,798
22,634	-11,241	261,229	122,689
23,648	-11,487	261,006	122,354
24,663	-11,442	260,726	122,252
25,677	-11,402	260,465	122,154
26,692	-11,513	260,242	121,940
27,707	-11,331	259,821	121,893
28,721	-11,385	259,705	121,780
29,736	-11,489	259,290	121,482
30,750	-11,460	259,037	121,379
31,765	-11,313	258,831	121,401
32,780	-11,461	258,626	121,164
33,794	-11,453	258,307	121,011
34,809	-11,393	258,271	121,036
35,823	-11,485	257,907	120,774
36,838	-11,562	257,628	120,565
37,853	-11,458	257,368	120,523
38,867	-11,592	257,285	120,356
39,882	-11,449	256,965	120,321
40,896	-11,686	256,958	120,099
41,911	-11,616	256,542	119,955
42,926	-11,622	256,215	119,786
43,940	-11,545	256,030	119,756
44,955	-11,575	255,719	119,574
45,969	-11,868	255,625	119,264
46,984	-11,941	255,352	119,063
47,999	-12,165	255,073	118,727
49,013	-12,228	254,744	118,508
50,028	-12,161	254,518	118,451
51,042	-12,380	254,238	118,120
52,057	-12,461	253,872	117,869
53,071	-12,238	253,870	118,051
54,086	-12,203	253,670	117,978
55,101	-12,305	253,493	117,797
56,115	-11,960	253,440	118,060
57,130	-11,434	253,317	118,446
58,144	-11,394	253,305	118,465
59,159	-11,092	252,947	118,547
60,174	-11,142	252,721	118,387
61,188	-11,356	252,461	118,071
62,203	-11,417	252,172	117,873
63,217	-11,306	251,969	117,862
64,232	-11,323	251,740	117,730
65,247	-11,125	251,666	117,855
66,261	-11,502	251,525	117,456
67,276	-11,634	251,207	117,184
68,290	-11,727	250,890	116,946
69,305	-11,841	250,617	116,711
70,320	-11,997	250,399	116,466
71,334	-11,486	250,135	116,768
72,349	-11,235	250,236	117,018
73,363	-11,199	249,994	116,926
74,378	-11,330	249,797	116,711
75,393	-11,443	249,521	116,476
76,407	-11,447	249,277	116,349
77,422	-11,312	249,030	116,337
78,436	-11,188	248,965	116,402
79,451	-11,287	248,782	116,222
80,466	-11,493	248,559	115,934
81,480	-11,671	248,110	115,564
82,495	-11,693	247,850	115,414
83,509	-11,473	247,851	115,589
84,524	-11,646	247,516	115,277
85,539	-11,954	247,451	114,977
86,553	-11,948	247,284	114,895
87,568	-11,698	247,034	114,978
88,582	-11,719	246,843	114,861
89,597	-11,860	246,547	114,595
90,611	-11,432	246,553	114,947
91,626	-11,378	246,392	114,906
92,641	-11,516	246,297	114,736
93,655	-11,403	246,066	114,712
94,670	-11,598	245,871	114,448
95,684	-11,550	245,522	114,316
96,699	-11,479	245,317	114,269
97,714	-11,665	245,111	114,008
98,728	-11,674	244,865	113,876
99,743	-11,858	244,709	113,641
100,757	-11,886	244,500	113,511
101,772	-11,736	244,303	113,533
102,787	-11,721	244,273	113,521
103,801	-11,729	243,831	113,299
104,816	-11,687	243,956	113,382
105,830	-11,411	243,694	113,479
106,845	-11,440	243,476	113,343
107,860	-11,539	243,402	113,217
108,874	-11,403	242,998	113,131
109,889	-11,668	242,858	112,838
110,903	-11,742	242,742	112,712
111,918	-11,544	242,450	112,729
112,933	-11,738	242,359	112,518
113,947	-11,611	242,305	112,587
114,962	-11,629	242,064	112,451
115,976	-11,408	241,845	112,519
116,991	-11,639	241,755	112,278
118,006	-11,350	241,444	112,361
119,020	-11,473	241,294	112,180
120,035	-11,538	241,434	112,182
121,049	-11,490	241,087	112,050
122,064	-11,433	241,025	112,058
123,079	-11,438	240,786	111,933
124,093	-11,643	240,483	111,614
125,108	-11,675	240,141	111,420
126,122	-12,105	240,054	111,020
127,137	-12,082	239,763	110,895
128,151	-11,864	239,546	110,961
129,166	-11,875	239,449	110,897
130,181	-11,893	239,260	110,785
131,195	-11,806	239,034	110,741
132,210	-11,919	239,007	110,627
133,224	-11,620	238,790	110,758
134,239	-11,514	238,575	110,734
135,254	-11,371	238,418	110,767
136,268	-11,578	238,122	110,453
137,283	-12,043	238,035	110,028
138,297	-11,953	237,689	109,931
139,312	-12,033	237,587	109,809
140,327	-11,605	237,431	110,071
141,341	-11,092	237,475	110,494
142,356	-11,110	237,354	110,413
143,370	-11,228	237,295	110,282
144,385	-10,966	236,888	110,292
145,400	-11,157	236,991	110,177
146,414	-11,087	236,767	110,120
147,429	-11,266	236,472	109,829
148,443	-11,254	236,260	109,731
149,458	-11,122	236,007	109,709
150,473	-11,333	235,892	109,477
151,487	-11,404	235,734	109,337
152,502	-11,367	235,667	109,326
153,516	-11,201	235,510	109,376
154,531	-11,150	235,335	109,325
155,546	-11,212	235,049	109,133
156,560	-11,708	234,968	108,692
157,575	-11,352	234,618	108,803
158,589	-11,457	234,537	108,673
159,604	-11,097	234,311	108,843
160,619	-11,101	234,269	108,810
161,633	-11,083	234,174	108,771
162,648	-11,104	234,119	108,719
163,662	-11,005	233,679	108,583
164,677	-11,350	233,474	108,207
165,692	-11,185	233,462	108,321
166,706	-10,893	233,218	108,429
167,721	-10,902	233,124	108,368
168,735	-11,045	233,065	108,218
169,750	-11,101	232,894	108,085
170,764	-11,180	232,744	107,944
171,779	-11,230	232,749	107,897
172,794	-11,080	232,553	107,914
173,808	-11,259	232,231	107,615
174,823	-11,911	232,039	107,006
175,837	-11,817	231,720	106,923
176,852	-11,377	231,620	107,212
177,867	-11,248	231,658	107,319
178,881	-11,158	231,643	107,374
179,896	-11,007	231,387	107,363
180,910	-11,049	231,182	107,226
181,925	-11,050	230,983	107,123
182,940	-11,078	230,926	107,065
183,954	-10,981	230,650	107,003
184,969	-11,028	230,525	106,900
185,983	-10,918	230,402	106,918
186,998	-11,141	230,499	106,781
188,013	-10,923	230,088	106,750
189,027	-11,038	230,116	106,664
190,042	-10,785	229,674	106,645
191,056	-10,892	229,692	106,561
192,071	-10,903	229,357	106,388
193,086	-11,202	229,351	106,145
194,100	-11,089	229,086	106,099
195,115	-11,353	228,768	105,740
196,129	-11,431	228,776	105,674
197,144	-5,978	230,433	110,655
198,159	-0,413	232,199	115,825
199,173	2,670	233,084	118,659
200,188	3,226	233,031	119,054
201,202	2,932	232,894	118,745
202,217	3,246	232,801	118,931
203,232	3,628	232,561	119,095
204,246	3,617	232,473	119,030
205,261	3,701	232,398	119,047
206,275	3,850	232,394	119,150
207,290	3,804	232,129	118,967
208,304	3,946	231,911	118,954
209,319	3,772	231,820	118,762
210,334	3,778	231,525	118,606
211,348	3,501	231,308	118,270
212,363	3,008	231,110	117,778
213,377	3,055	230,864	117,679
214,392	3,017	230,698	117,554
215,407	3,270	230,581	117,679
216,421	3,058	230,624	117,527
217,436	3,270	230,227	117,477
218,450	2,950	230,043	117,127
219,465	2,848	229,918	116,975
220,480	2,830	229,796	116,889
221,494	3,121	229,747	117,076
222,509	3,013	229,738	116,978
223,523	3,376	229,367	117,057
224,538	2,927	229,288	116,663
225,553	2,972	229,160	116,622
226,567	3,130	228,952	116,626
227,582	3,188	229,007	116,688
228,596	3,378	228,883	116,759
229,611	3,220	228,658	116,514
230,626	3,090	228,253	116,198
231,640	2,959	228,191	116,056
232,655	3,112	228,173	116,153
233,669	3,577	228,035	116,426
234,684	3,594	227,983	116,402
235,699	3,465	227,753	116,176
236,713	3,165	227,573	115,847
237,728	3,086	227,340	115,659
238,742	2,880	227,173	115,407
239,757	2,973	227,130	115,445
240,772	3,018	226,880	115,341
241,786	2,960	226,610	115,151
242,801	3,310	226,642	115,421
243,815	3,343	226,654	115,441
244,830	3,283	226,451	115,283
245,844	3,071	226,209	114,989
246,859	3,198	226,032	114,985
247,874	3,365	226,039	115,103
248,888	3,430	225,780	115,010
249,903	3,376	225,610	114,873
250,917	3,230	225,353	114,622
251,932	3,098	225,297	114,484
252,947	3,152	224,997	114,362
253,961	2,776	224,994	114,069
254,976	3,033	224,831	114,168
255,990	3,513	224,643	114,422
257,005	3,312	224,542	114,210
258,020	3,270	224,499	114,147
259,034	3,433	224,493	114,255
260,049	3,391	224,142	114,034
261,063	3,241	224,075	113,879
262,078	3,317	223,971	113,872
263,093	3,477	223,807	113,898
264,107	3,445	223,610	113,764
265,122	3,368	223,630	113,706
266,136	3,825	223,475	113,956
267,151	3,613	223,197	113,648
268,166	3,075	222,994	113,136
269,180	2,736	222,763	112,758
270,195	2,930	222,621	112,819
271,209	3,005	222,442	112,773
272,224	3,101	222,488	112,857
273,239	3,046	222,169	112,646
274,253	3,101	222,097	112,639
275,268	2,991	221,978	112,488
276,282	2,774	221,748	112,202
277,297	2,856	221,621	112,187
278,312	2,695	221,532	112,014
279,326	3,180	221,349	112,267
280,341	2,936	221,333	112,071
281,355	3,020	221,261	112,085
282,370	2,875	220,982	111,828
283,384	2,675	220,670	111,514
284,399	2,945	220,392	111,561
285,414	2,818	220,407	111,466
286,428	3,103	220,361	111,641
287,443	3,176	220,371	111,689
288,457	3,342	220,145	111,686
289,472	3,115	219,920	111,396
290,487	2,703	219,811	111,031
291,501	2,173	219,752	110,605
292,516	2,799	219,434	110,891
293,530	2,805	219,341	110,838
294,545	2,748	219,306	110,769
295,560	3,043	219,082	110,860
296,574	3,189	218,949	110,889
297,589	3,028	218,877	110,726
298,603	3,259	218,672	110,780
299,618	2,882	218,721	110,521
300,633	3,215	218,502	110,642
301,647	2,997	218,449	110,447
302,662	3,209	218,263	110,497
303,676	3,411	218,029	110,514
304,691	3,376	218,079	110,504
305,706	3,229	217,936	110,316
306,720	3,310	217,614	110,201
307,735	3,153	217,389	109,965
308,749	2,805	217,313	109,666
309,764	3,081	217,229	109,813
310,779	3,354	217,101	109,934
311,793	3,253	217,007	109,804
312,808	3,432	216,730	109,783
313,822	2,997	216,736	109,464
314,837	3,087	216,473	109,386
315,852	2,931	216,221	109,137
316,866	2,984	216,205	109,157
317,881	3,376	216,094	109,372
318,895	3,295	215,834	109,172
319,910	2,894	215,657	108,787
320,925	2,605	215,572	108,529
321,939	2,429	215,392	108,303
322,954	2,893	215,433	108,645
323,968	3,052	215,389	108,726
324,983	3,350	215,151	108,807
325,997	3,259	215,104	108,710
327,012	3,028	214,786	108,375
328,027	2,977	214,737	108,305
329,041	3,356	214,730	108,560
330,056	3,459	214,544	108,529
331,070	2,988	214,287	108,057
332,085	2,664	214,080	107,714
333,100	2,710	213,954	107,673
334,114	3,165	213,796	107,905
335,129	2,991	213,858	107,804
336,143	2,983	213,690	107,704
337,158	3,205	213,470	107,740
338,173	3,221	213,242	107,626
339,187	2,889	213,247	107,386
340,202	2,968	212,984	107,299
341,216	3,076	212,786	107,266
342,231	2,859	212,785	107,103
343,246	3,061	212,725	107,206
344,260	2,878	212,646	107,028
345,275	3,207	212,415	107,132
346,289	3,320	212,244	107,116
347,304	3,334	212,205	107,096
348,319	3,086	211,956	106,788
349,333	3,160	211,855	106,779
350,348	3,039	211,796	106,656
351,362	3,244	211,666	106,723
352,377	3,533	211,577	106,870
353,392	3,176	211,405	106,526
354,406	3,397	211,213	106,572
355,421	194,735	1341,229	1415,715
356,435	155,506	1478,877	1415,670
