DTS Sentinel unit serial number:	SN410029Multiplexer serial number:	ORYXHardware model number:	OX2-SRSoftware version number:	ORYX F/W v4,00 Oryx Data Collector v3.7.2.0data status	okinstallation	B6 Nyhavnadifferential loss correction	single-endedforward channel	channel 2reverse channel	N/Adate	2023/12/09time	07:55:08forward acquisition time	300,00reverse acquisition time	0,00gamma	499,1914k internal	0,3138k external	0,3138temperature offset calibration	1,0000default loss term (dB/km)	0,3820temperature slope calibration	1,0000multiplexer offset coefficient	1,0000multiplexer slope coefficient	1,0000fibre end	0,00T internal ref (°C)	18,52T ext. ref 1 (°C)	1,91T ext. ref 2 (°C)	1,88length (m)	temperature (°C)	Stokes	anti-Stokes-744,400	74,440	-0,064	0,050
-743,385	-142,690	-0,278	0,020
-742,371	-98,794	0,093	0,017
-741,356	66,339	-0,207	0,156
-740,342	-185,427	0,035	-0,000
-739,327	-74,646	-0,234	-0,062
-738,312	800,000	0,033	0,091
-737,298	-31,285	-0,302	0,126
-736,283	463,071	0,034	-0,057
-735,269	-50,982	-0,309	0,107
-734,254	-200,000	0,000	-0,040
-733,239	2,892	-0,425	-0,228
-732,225	453,160	0,053	0,088
-731,210	-41,045	-0,146	0,056
-730,196	1,555	0,016	0,009
-729,181	-75,212	-0,053	-0,014
-728,167	800,000	-0,017	-0,049
-727,152	280,228	-0,040	0,054
-726,137	-168,682	-0,061	-0,002
-725,123	-200,000	-0,032	-0,186
-724,108	-200,000	-0,018	-0,078
-723,094	140,630	-0,017	0,017
-722,079	-111,508	-0,198	0,030
-721,064	-180,898	0,118	0,002
-720,050	212,841	-0,125	-0,146
-719,035	-53,050	-0,073	-0,025
-718,021	-134,183	0,081	0,007
-717,006	-200,000	-0,082	0,000
-715,991	15,701	-0,158	0,092
-714,977	-121,958	0,138	-0,017
-713,962	800,000	-0,041	0,126
-712,948	-200,000	-0,005	0,121
-711,933	51,750	0,022	0,016
-710,918	-200,000	0,026	-0,182
-709,904	-164,534	-0,149	0,005
-708,889	800,000	-0,079	-0,188
-707,875	-200,000	-0,015	-0,111
-706,860	-200,000	0,024	-0,148
-705,845	800,000	0,034	-0,083
-704,831	-200,000	0,023	-0,081
-703,816	-180,286	-0,097	-0,001
-702,802	-200,000	0,006	0,132
-701,787	391,256	-0,081	-0,124
-700,772	1,391	-0,082	0,044
-699,758	-30,316	-0,079	-0,033
-698,743	-100,412	-0,156	0,028
-697,729	800,000	0,034	0,082
-696,714	-52,051	0,081	-0,028
-695,699	-185,267	-0,025	-0,000
-694,685	-33,378	-0,119	-0,048
-693,670	233,468	0,040	-0,049
-692,656	800,000	0,036	-0,106
-691,641	200,638	-0,018	-0,020
-690,627	800,000	0,025	-0,055
-689,612	392,757	-0,040	-0,061
-688,597	349,708	-0,017	-0,024
-687,583	-75,827	-0,083	0,022
-686,568	-200,000	0,006	0,040
-685,554	304,803	0,054	0,074
-684,539	-98,196	-0,025	0,005
-683,524	200,374	-0,100	-0,114
-682,510	118,491	0,030	-0,027
-681,495	-200,000	0,001	0,036
-680,481	-200,000	0,019	-0,137
-679,466	800,000	-0,009	-0,019
-678,451	565,841	-0,071	-0,127
-677,437	221,387	0,038	-0,045
-676,422	205,211	-0,048	-0,055
-675,408	-161,744	-0,033	0,001
-674,393	3,175	0,037	0,020
-673,378	302,655	-0,056	-0,077
-672,364	29,666	0,108	-0,068
-671,349	717,239	-0,040	-0,080
-670,335	-9,398	0,101	-0,050
-669,320	671,179	0,036	-0,069
-668,305	-200,000	-0,012	-0,074
-667,291	568,829	-0,049	0,089
-666,276	-113,215	-0,123	0,018
-665,262	-8,994	-0,080	-0,039
-664,247	-80,938	-0,106	0,026
-663,232	-200,000	0,005	0,069
-662,218	-16,111	-0,091	0,042
-661,203	-107,528	-0,046	-0,007
-660,189	800,000	0,028	0,064
-659,174	800,000	-0,027	0,068
-658,159	800,000	0,068	-0,160
-657,145	-200,000	-0,030	-0,168
-656,130	362,982	0,034	0,051
-655,116	-46,347	0,109	-0,039
-654,101	-150,234	0,065	-0,004
-653,086	-35,618	0,128	-0,051
-652,072	105,857	-0,012	-0,011
-651,057	-153,854	-0,136	0,007
-650,043	-200,000	0,007	-0,053
-649,028	-13,354	-0,053	-0,025
-648,014	-57,049	0,087	-0,028
-646,999	-200,000	-0,016	-0,126
-645,984	-200,000	0,018	0,065
-644,970	29,549	-0,101	-0,063
-643,955	780,799	-0,066	0,135
-642,941	-200,000	-0,027	-0,113
-641,926	288,016	0,030	-0,040
-640,911	49,328	0,020	-0,014
-639,897	800,000	0,052	-0,168
-638,882	48,552	-0,120	-0,083
-637,868	-40,570	0,032	-0,012
-636,853	399,616	-0,042	-0,066
-635,838	-131,030	-0,182	0,018
-634,824	-200,000	-0,006	-0,057
-633,809	138,871	0,048	-0,046
-632,795	-51,485	-0,076	0,026
-631,780	85,701	0,065	0,052
-630,765	222,484	0,071	-0,085
-629,751	518,287	0,055	-0,096
-628,736	291,675	0,033	-0,045
-627,722	800,000	-0,065	-0,167
-626,707	-200,000	-0,005	0,159
-625,692	800,000	-0,042	0,121
-624,678	-133,166	0,121	0,011
-623,663	-200,000	0,006	-0,047
-622,649	125,114	-0,058	0,054
-621,634	800,000	0,022	-0,070
-620,619	-200,000	0,006	-0,067
-619,605	-80,956	-0,072	0,018
-618,590	-163,265	0,151	-0,005
-617,576	5,461	0,024	-0,013
-616,561	234,440	0,024	0,029
-615,546	-200,000	0,013	-0,096
-614,532	-58,189	0,039	0,012
-613,517	-11,593	0,042	0,020
-612,503	265,252	-0,065	0,084
-611,488	-107,711	0,103	0,016
-610,474	-50,280	-0,193	-0,067
-609,459	800,000	0,053	0,139
-608,444	800,000	0,018	-0,050
-607,430	-200,000	-0,009	-0,051
-606,415	-53,580	-0,050	-0,017
-605,401	21,820	0,104	-0,062
-604,386	-200,000	0,015	0,084
-603,371	686,218	0,032	0,061
-602,357	-117,835	-0,088	0,011
-601,342	636,880	-0,103	-0,194
-600,328	-200,000	-0,008	-0,099
-599,313	93,127	0,151	-0,126
-598,298	-21,209	-0,064	0,029
-597,284	194,669	-0,029	0,033
-596,269	511,642	0,025	-0,043
-595,255	-200,000	0,019	0,094
-594,240	21,167	-0,120	0,072
-593,225	-12,103	-0,098	0,047
-592,211	800,000	0,049	-0,144
-591,196	800,000	-0,026	-0,071
-590,182	-200,000	-0,029	-0,143
-589,167	800,000	0,066	0,150
-588,152	-66,354	0,074	-0,022
-587,138	-200,000	-0,029	-0,131
-586,123	-200,000	-0,005	-0,128
-585,109	-18,247	0,037	0,017
-584,094	800,000	-0,003	0,008
-583,079	800,000	-0,034	-0,071
-582,065	173,184	0,048	0,051
-581,050	734,157	-0,047	0,093
-580,036	800,000	0,063	-0,172
-579,021	-63,379	-0,126	-0,038
-578,006	41,410	0,004	0,003
-576,992	800,000	0,028	0,088
-575,977	-40,745	0,025	-0,010
-574,963	32,066	-0,031	-0,020
-573,948	306,247	-0,101	0,138
-572,934	800,000	-0,057	-0,155
-571,919	299,192	0,080	-0,109
-570,904	214,970	-0,045	0,053
-569,890	45,333	0,024	0,016
-568,875	39,812	0,131	0,086
-567,861	140,704	-0,030	0,030
-566,846	75,155	-0,085	0,066
-565,831	-76,048	-0,059	-0,015
-564,817	22,406	0,154	-0,093
-563,802	64,336	-0,203	-0,150
-562,788	-164,182	-0,058	0,002
-561,773	-66,406	0,023	-0,007
-560,758	-166,490	0,028	0,001
-559,744	171,352	-0,085	0,090
-558,729	-200,000	0,002	0,089
-557,715	97,395	-0,016	0,013
-556,700	284,334	-0,086	-0,114
-555,685	228,970	-0,128	-0,154
-554,671	-147,653	-0,106	0,006
-553,656	121,528	-0,100	0,092
-552,642	-85,676	-0,179	-0,041
-551,627	-200,000	-0,004	-0,052
-550,612	-44,008	-0,050	0,019
-549,598	9,526	-0,089	-0,050
-548,583	-99,705	0,108	-0,020
-547,569	-200,000	-0,028	-0,115
-546,554	-48,956	0,034	-0,012
-545,539	-114,314	0,145	-0,020
-544,525	213,998	-0,049	0,057
-543,510	-85,494	-0,187	0,042
-542,496	140,570	0,011	-0,011
-541,481	81,155	-0,115	-0,091
-540,466	800,000	-0,035	-0,072
-539,452	237,097	0,087	0,106
-538,437	39,068	-0,092	-0,060
-537,423	630,765	0,042	-0,079
-536,408	85,160	-0,057	-0,046
-535,393	-200,000	-0,003	0,073
-534,379	339,502	0,041	0,059
-533,364	-200,000	0,026	0,138
-532,350	800,000	-0,018	-0,057
-531,335	119,160	0,098	0,089
-530,321	-159,229	-0,093	0,004
-529,306	533,932	0,066	-0,115
-528,291	16,945	-0,020	0,012
-527,277	800,000	0,037	0,088
-526,262	-35,044	-0,097	-0,039
-525,248	-200,000	0,037	0,260
-524,233	14,846	-0,108	0,062
-523,218	-200,000	0,004	-0,085
-522,204	203,422	0,005	0,006
-521,189	-200,000	-0,001	0,068
-520,175	-95,898	-0,111	0,022
-519,160	-142,819	0,025	-0,002
-518,145	800,000	0,039	-0,123
-517,131	-148,061	0,164	0,010
-516,116	-23,140	0,069	-0,030
-515,102	800,000	0,031	0,097
-514,087	800,000	0,023	-0,050
-513,072	-27,434	-0,077	0,033
-512,058	32,115	0,081	0,052
-511,043	800,000	-0,032	-0,071
-510,029	-24,270	-0,038	0,017
-509,014	-94,010	-0,042	-0,008
-507,999	15,508	0,114	-0,066
-506,985	-157,808	-0,097	-0,004
-505,970	-200,000	-0,012	-0,095
-504,956	-200,000	0,026	0,159
-503,941	127,603	-0,046	-0,043
-502,926	800,000	-0,017	-0,040
-501,912	-200,000	-0,014	-0,066
-500,897	-136,783	0,077	0,006
-499,883	-200,000	0,007	-0,075
-498,868	179,728	0,012	-0,013
-497,853	-200,000	-0,010	0,056
-496,839	22,010	-0,117	-0,070
-495,824	122,611	-0,034	0,031
-494,810	-94,670	0,084	-0,017
-493,795	-96,642	-0,067	0,013
-492,781	-165,513	0,074	-0,002
-491,766	-200,000	0,024	-0,224
-490,751	800,000	-0,098	-0,245
-489,737	800,000	-0,027	0,080
-488,722	141,154	-0,063	-0,061
-487,708	-200,000	0,007	0,076
-486,693	-67,708	0,030	-0,009
-485,678	-8,723	0,082	-0,040
-484,664	800,000	-0,050	0,103
-483,649	-25,423	0,084	0,036
-482,635	-200,000	-0,028	-0,110
-481,620	800,000	-0,030	-0,096
-480,605	-29,846	-0,114	-0,048
-479,591	39,296	0,105	0,069
-478,576	13,499	-0,153	0,087
-477,562	486,918	0,032	0,053
-476,547	-145,884	-0,115	-0,007
-475,532	-96,741	-0,077	-0,015
-474,518	-200,000	-0,015	-0,083
-473,503	-114,882	0,062	0,009
-472,489	800,000	0,003	-0,010
-471,474	413,016	0,008	0,012
-470,459	478,314	-0,068	0,113
-469,445	-200,000	-0,014	-0,145
-468,430	35,876	-0,053	-0,034
-467,416	800,000	0,032	0,080
-466,401	420,283	0,054	-0,085
-465,386	-78,122	0,040	0,010
-464,372	-44,303	0,072	-0,026
-463,357	-43,586	0,078	0,029
-462,343	-22,414	-0,045	0,020
-461,328	4,166	-0,114	-0,061
-460,313	-26,168	-0,106	-0,045
-459,299	278,760	-0,056	0,074
-458,284	-23,159	0,109	-0,048
-457,270	-72,100	-0,105	0,028
-456,255	42,564	-0,045	0,030
-455,241	-37,916	0,040	0,015
-454,226	58,015	0,091	0,065
-453,211	-200,000	-0,013	0,170
-452,197	-63,593	-0,062	0,018
-451,182	-200,000	-0,049	0,184
-450,168	549,753	-0,016	0,028
-449,153	800,000	-0,020	0,050
-448,138	800,000	0,029	-0,066
-447,124	57,688	0,054	-0,038
-446,109	634,726	-0,062	-0,115
-445,095	83,069	-0,072	0,057
-444,080	-200,000	-0,002	0,059
-443,065	-200,000	-0,018	0,094
-442,051	238,286	0,118	0,144
-441,036	800,000	-0,060	-0,138
-440,022	-136,763	0,053	-0,004
-439,007	-47,664	0,104	0,037
-437,992	-200,000	0,000	0,019
-436,978	19,124	-0,024	-0,014
-435,963	-200,000	0,014	0,161
-434,949	-83,440	-0,028	-0,007
-433,934	100,468	-0,107	-0,091
-432,919	25,981	-0,072	-0,044
-431,905	-30,839	0,082	0,034
-430,890	-200,000	0,010	0,072
-429,876	800,000	0,014	0,035
-428,861	800,000	-0,041	0,085
-427,846	-63,128	-0,094	-0,028
-426,832	-46,211	-0,123	0,044
-425,817	-114,424	-0,100	-0,014
-424,803	194,355	-0,013	-0,015
-423,788	395,696	0,047	0,072
-422,773	-200,000	0,037	0,202
-421,759	-69,603	0,130	-0,036
-420,744	210,556	0,027	0,031
-419,730	-200,000	0,004	-0,118
-418,715	-200,000	0,000	-0,104
-417,701	-200,000	0,002	0,096
-416,686	-200,000	-0,012	0,179
-415,671	534,105	0,020	0,035
-414,657	-200,000	-0,026	-0,162
-413,642	198,891	-0,049	0,055
-412,628	87,753	-0,131	0,106
-411,613	15,739	-0,113	0,065
-410,598	-200,000	0,018	0,152
-409,584	-200,000	-0,018	0,070
-408,569	421,220	-0,035	0,055
-407,555	-4,110	0,055	0,028
-406,540	800,000	0,064	0,134
-405,525	361,784	-0,093	-0,138
-404,511	-200,000	0,037	-0,139
-403,496	-57,427	0,030	-0,010
-402,482	-200,000	0,030	-0,102
-401,467	-200,000	-0,005	0,063
-400,452	-70,908	-0,104	0,028
-399,438	-72,627	0,060	-0,016
-398,423	-200,000	-0,006	-0,033
-397,409	-102,483	-0,127	-0,022
-396,394	800,000	0,041	0,083
-395,379	242,092	0,020	0,024
-394,365	48,454	-0,042	0,029
-393,350	-200,000	-0,000	0,046
-392,336	80,197	-0,036	-0,028
-391,321	800,000	-0,037	0,101
-390,306	-21,611	-0,145	-0,064
-389,292	-36,769	-0,061	0,024
-388,277	-104,625	0,132	0,022
-387,263	800,000	-0,019	-0,049
-386,248	-127,842	0,133	-0,014
-385,233	-168,761	0,117	0,003
-384,219	-200,000	-0,010	-0,094
-383,204	-39,713	-0,051	0,019
-382,190	21,903	-0,134	-0,080
-381,175	303,991	0,066	-0,090
-380,160	29,693	-0,169	-0,105
-379,146	800,000	0,068	-0,157
-378,131	-200,000	-0,014	-0,057
-377,117	-146,313	0,114	0,007
-376,102	-130,325	0,060	-0,006
-375,088	10,679	-0,152	0,084
-374,073	800,000	-0,059	0,150
-373,058	59,518	0,084	0,061
-372,044	195,810	0,116	-0,129
-371,029	152,536	-0,056	0,056
-370,015	800,000	0,079	-0,164
-369,000	-38,568	-0,054	-0,021
-367,985	-27,732	0,170	0,072
-366,971	-200,000	-0,006	0,042
-365,956	800,000	0,039	0,083
-364,942	279,417	0,082	0,107
-363,927	-81,620	0,118	-0,028
-362,912	-200,000	-0,022	0,090
-361,898	-200,000	0,031	-0,191
-360,883	-4,103	-0,155	-0,078
-359,869	-200,000	0,003	0,010
-358,854	5,172	0,039	0,021
-357,839	32,496	0,059	-0,037
-356,825	22,229	0,012	-0,007
-355,810	-200,000	-0,010	0,063
-354,796	800,000	-0,058	0,131
-353,781	177,749	-0,076	-0,082
-352,766	49,563	0,096	0,066
-351,752	75,109	0,117	0,090
-350,737	290,970	-0,074	0,099
-349,723	716,446	-0,067	0,130
-348,708	-155,283	-0,043	-0,002
-347,693	-200,000	0,019	0,078
-346,679	136,956	0,033	-0,031
-345,664	-124,187	-0,039	0,004
-344,650	3,851	-0,166	0,088
-343,635	224,035	0,065	0,077
-342,620	-200,000	0,016	0,178
-341,606	271,935	-0,059	0,077
-340,591	-19,950	0,148	0,067
-339,577	-72,935	0,113	0,030
-338,562	800,000	-0,020	0,053
-337,548	-58,866	-0,073	0,023
-336,533	-32,210	0,070	-0,028
-335,518	-123,225	0,057	0,007
-334,504	-200,000	0,016	-0,091
-333,489	689,848	0,033	0,064
-332,475	-64,213	-0,119	-0,035
-331,460	-200,000	-0,013	-0,071
-330,445	17,539	0,106	-0,062
-329,431	-200,000	0,014	0,047
-328,416	-200,000	-0,018	-0,108
-327,402	-67,879	-0,096	0,027
-326,387	800,000	-0,033	0,092
-325,372	-200,000	-0,002	-0,063
-324,358	-111,059	0,131	0,019
-323,343	800,000	-0,032	-0,078
-322,329	-150,131	0,050	-0,003
-321,314	800,000	-0,029	0,060
-320,299	-116,602	0,056	0,007
-319,285	-200,000	-0,010	-0,071
-318,270	121,234	-0,090	-0,082
-317,256	101,603	0,086	-0,073
-316,241	15,181	0,096	0,055
-315,226	-200,000	-0,027	-0,105
-314,212	800,000	-0,016	0,052
-313,197	13,514	-0,045	-0,025
-312,183	12,328	0,035	-0,019
-311,168	-113,622	-0,140	0,020
-310,153	236,290	0,082	-0,100
-309,139	17,648	0,045	0,026
-308,124	-200,000	0,008	-0,118
-307,110	725,953	0,028	0,054
-306,095	800,000	0,035	0,086
-305,080	-200,000	0,017	0,054
-304,066	481,692	-0,064	-0,106
-303,051	7,724	-0,021	-0,011
-302,037	800,000	-0,040	-0,112
-301,022	73,019	0,052	-0,040
-300,008	-15,094	0,116	-0,054
-298,993	-200,000	0,009	0,093
-297,978	-200,000	-0,044	0,227
-296,964	-174,947	-0,227	0,005
-295,949	0,580	0,076	0,040
-294,935	-200,000	-0,030	-0,115
-293,920	348,326	0,115	-0,165
-292,905	115,582	0,107	-0,095
-291,891	-88,878	-0,077	-0,016
-290,876	309,334	-0,077	-0,105
-289,862	656,342	-0,066	-0,124
-288,847	-44,867	-0,037	-0,014
-287,832	-102,151	-0,020	-0,003
-286,818	364,670	0,040	-0,059
-285,803	-7,800	0,039	-0,019
-284,789	-200,000	0,026	-0,116
-283,774	-200,000	-0,019	-0,088
-282,759	325,941	-0,034	-0,047
-281,745	-166,244	-0,092	-0,003
-280,730	587,070	-0,039	-0,070
-279,716	184,747	-0,015	0,017
-278,701	-84,745	-0,048	-0,011
-277,686	16,006	0,129	-0,074
-276,672	34,266	-0,064	0,040
-275,657	-200,000	-0,000	-0,006
-274,643	-113,160	0,149	-0,021
-273,628	-200,000	-0,003	-0,117
-272,613	80,847	-0,082	-0,065
-271,599	99,812	0,089	0,075
-270,584	-112,115	0,097	0,014
-269,570	-41,511	0,151	0,056
-268,555	-200,000	0,012	0,168
-267,540	1,262	-0,130	-0,068
-266,526	183,658	0,106	-0,114
-265,511	800,000	-0,038	-0,099
-264,497	-26,112	0,045	-0,019
-263,482	-27,833	0,215	0,090
-262,467	88,802	0,143	0,116
-261,453	78,080	-0,043	-0,034
-260,438	5,217	-0,101	-0,054
-259,424	233,984	-0,080	-0,096
-258,409	66,350	-0,089	-0,066
-257,395	-172,427	0,046	-0,001
-256,380	-89,042	0,087	0,019
-255,365	-200,000	0,016	0,124
-254,351	-50,089	-0,105	0,036
-253,336	42,478	-0,045	0,030
-252,322	614,907	-0,052	0,094
-251,307	299,828	0,087	-0,117
-250,292	-200,000	-0,003	-0,149
-249,278	35,018	0,107	-0,068
-248,263	-200,000	-0,012	-0,108
-247,249	800,000	-0,038	0,081
-246,234	-51,686	-0,047	-0,016
-245,219	800,000	-0,003	0,009
-244,205	800,000	0,039	-0,104
-243,190	-200,000	0,008	-0,114
-242,176	-87,320	0,082	-0,018
-241,161	369,665	0,052	0,077
-240,146	800,000	0,056	0,146
-239,132	-200,000	-0,001	-0,147
-238,117	525,110	-0,082	-0,140
-237,103	-200,000	-0,023	0,083
-236,088	-27,153	-0,040	-0,017
-235,073	113,394	0,090	0,079
-234,059	316,993	-0,012	0,017
-233,044	-95,564	0,010	-0,002
-232,030	136,656	0,060	0,057
-231,015	-200,000	0,031	-0,128
-230,000	185,548	-0,086	0,093
-228,986	136,387	0,137	0,130
-227,971	800,000	-0,055	0,116
-226,957	-200,000	0,004	0,064
-225,942	-166,261	0,075	0,002
-224,927	-42,007	0,075	0,028
-223,913	278,867	0,022	-0,029
-222,898	-200,000	-0,006	0,115
-221,884	71,983	0,037	-0,028
-220,869	553,412	-0,012	0,022
-219,855	316,127	0,070	0,097
-218,840	178,830	0,075	0,080
-217,825	106,912	-0,077	-0,067
-216,811	408,245	0,002	0,003
-215,796	385,763	-0,073	-0,110
-214,782	-169,891	-0,117	-0,003
-213,767	632,091	0,024	-0,044
-212,752	150,338	-0,062	0,061
-211,738	27,668	0,128	0,078
-210,723	800,000	0,037	0,110
-209,709	61,305	0,021	-0,015
-208,694	-132,634	-0,113	-0,010
-207,679	-134,910	0,159	0,014
-206,665	-200,000	0,004	-0,033
-205,650	23,243	-0,045	0,027
-204,636	-183,827	0,049	0,001
-203,621	227,036	-0,021	-0,025
-202,606	640,439	0,036	0,067
-201,592	800,000	0,017	0,035
-200,577	157,761	-0,044	-0,044
-199,563	360,219	-0,053	0,078
-198,548	-6,260	0,093	0,046
-197,533	800,000	0,086	0,209
-196,519	-200,000	0,007	0,174
-195,504	-200,000	-0,009	0,062
-194,490	-200,000	-0,022	-0,119
-193,475	45,891	0,075	0,051
-192,460	10,289	0,028	-0,015
-191,446	-200,000	0,004	0,079
-190,431	-200,000	-0,012	0,099
-189,417	-200,000	-0,014	0,062
-188,402	-145,789	0,064	0,004
-187,387	-53,678	0,059	0,019
-186,373	-200,000	-0,007	0,139
-185,358	260,039	0,041	-0,051
-184,344	52,721	-0,054	-0,038
-183,329	-200,000	-0,001	0,124
-182,315	-62,941	0,176	0,052
-181,300	-24,928	-0,051	-0,022
-180,285	163,869	0,016	0,016
-179,271	99,645	0,040	-0,033
-178,256	127,008	0,035	-0,032
-177,242	529,954	0,072	0,124
-176,227	-38,816	-0,053	-0,020
-175,212	-40,370	0,110	0,041
-174,198	771,159	-0,047	-0,094
-173,183	20,990	0,053	-0,031
-172,169	-200,000	0,010	-0,129
-171,154	683,845	-0,031	0,059
-170,139	542,271	0,071	0,124
-169,125	-20,193	-0,084	0,037
-168,110	17,817	0,085	0,049
-167,096	-200,000	0,004	0,062
-166,081	-200,000	0,010	-0,039
-165,066	800,000	-0,026	-0,078
-164,052	45,829	-0,051	-0,034
-163,037	800,000	0,029	-0,081
-162,023	-200,000	-0,016	0,128
-161,008	33,439	0,130	0,082
-159,993	-79,055	0,069	-0,017
-158,979	-200,000	-0,025	0,124
-157,964	24,576	-0,041	-0,024
-156,950	270,442	-0,033	-0,043
-155,935	410,852	0,022	0,034
-154,920	-181,819	0,119	0,002
-153,906	-7,005	0,174	0,085
-152,891	-200,000	0,039	0,000
-151,877	216,716	0,099	0,114
-150,862	-200,000	-0,013	0,090
-149,847	114,449	0,054	-0,048
-148,833	-200,000	-0,008	0,157
-147,818	39,502	0,100	0,065
-146,804	-81,530	0,015	-0,004
-145,789	-3,190	-0,035	-0,018
-144,775	-21,233	-0,150	-0,066
-143,760	-73,667	0,123	0,032
-142,745	-30,834	-0,040	0,016
-141,731	674,299	0,072	-0,136
-140,716	-200,000	-0,024	0,125
-139,702	800,000	0,082	0,204
-138,687	800,000	-0,080	0,239
-137,672	532,388	-0,057	0,099
-136,658	-200,000	0,013	-0,108
-135,643	-135,245	-0,059	0,005
-134,629	-28,533	-0,140	0,058
-133,614	800,000	0,051	0,142
-132,599	-200,000	0,009	0,038
-131,585	188,440	0,068	0,074
-130,570	248,371	-0,092	0,113
-129,556	-200,000	0,022	-0,119
-128,541	-200,000	0,023	-0,100
-127,526	-116,529	-0,105	0,014
-126,512	103,459	0,084	-0,071
-125,497	201,888	0,128	0,144
-124,483	-200,000	-0,015	0,131
-123,468	-85,714	-0,145	0,032
-122,453	800,000	-0,039	-0,119
-121,439	800,000	-0,020	-0,054
-120,424	-200,000	0,004	-0,087
-119,410	144,904	-0,022	0,021
-118,395	102,014	0,139	0,118
-117,380	-200,000	0,045	0,192
-116,366	626,545	0,042	0,078
-115,351	-47,677	-0,167	-0,058
-114,337	182,966	-0,043	-0,046
-113,322	281,766	-0,026	0,034
-112,307	468,651	-0,061	0,099
-111,293	33,387	-0,028	0,018
-110,278	-54,923	-0,064	-0,021
-109,264	-200,000	0,004	0,019
-108,249	5,770	0,161	-0,086
-107,234	468,373	-0,080	-0,131
-106,220	800,000	-0,028	0,060
-105,205	363,063	-0,017	0,025
-104,191	92,384	0,074	0,060
-103,176	-200,000	-0,007	0,178
-102,162	-165,878	0,021	0,001
-101,147	17,839	-0,161	-0,092
-100,132	73,169	-0,061	-0,046
-99,118	-200,000	-0,018	-0,105
-98,103	-200,000	-0,000	-0,014
-97,089	-200,000	-0,027	0,103
-96,074	250,093	-0,060	-0,074
-95,059	136,089	0,053	0,050
-94,045	-52,373	0,005	0,002
-93,030	-122,788	-0,031	-0,004
-92,016	-81,345	0,029	-0,007
-91,001	-126,575	0,129	0,014
-89,986	-86,044	0,116	0,026
-88,972	134,689	0,065	0,061
-87,957	-200,000	0,001	0,022
-86,943	800,000	0,079	0,192
-85,928	-200,000	0,009	-0,071
-84,913	142,932	0,047	-0,045
-83,899	-200,000	-0,003	-0,116
-82,884	-30,893	0,146	-0,059
-81,870	-200,000	-0,025	0,080
-80,855	800,000	-0,048	0,133
-79,840	-200,000	-0,010	0,088
-78,826	71,728	-0,043	-0,032
-77,811	-200,000	0,008	-0,086
-76,797	800,000	-0,060	0,152
-75,782	-200,000	-0,007	-0,084
-74,767	800,000	-0,088	-0,179
-73,753	-200,000	0,039	-0,150
-72,738	-5,948	-0,169	0,083
-71,724	-200,000	-0,083	0,000
-70,709	776,149	-0,032	0,064
-69,694	-200,000	0,024	-0,129
-68,680	19,096	-0,138	0,080
-67,665	40,299	0,094	-0,061
-66,651	-200,000	0,004	0,074
-65,636	-200,000	0,000	0,025
-64,622	-10,584	-0,064	-0,030
-63,607	-200,000	0,006	-0,020
-62,592	-200,000	0,031	-0,170
-61,578	409,667	0,034	0,052
-60,563	-55,886	0,146	0,047
-59,549	24,178	-0,087	-0,052
-58,534	-21,998	-1,753	-0,766
-57,519	800,000	-0,463	-1,104
-56,505	-200,000	-1,017	-4,734
-55,490	-147,140	0,559	-0,034
-54,476	800,000	5,355	12,135
-53,461	-200,000	15,772	278,610
-52,446	-200,000	702,628	2248,358
-51,432	564,176	1618,893	2843,370
-50,417	121,593	1623,405	1461,273
-49,403	82,005	1284,116	1003,860
-48,388	36,768	1028,157	654,652
-47,373	21,579	990,084	580,168
-46,359	20,497	978,785	569,959
-45,344	18,790	974,815	562,010
-44,330	18,907	973,273	561,483
-43,315	18,596	971,675	559,519
-42,300	18,519	970,708	558,687
-41,286	18,588	969,634	558,271
-40,271	18,563	968,547	557,545
-39,257	18,612	967,735	557,212
-38,242	18,536	967,113	556,584
-37,227	18,632	966,101	556,294
-36,213	18,537	965,443	555,584
-35,198	18,554	964,441	555,039
-34,184	18,541	964,015	554,732
-33,169	18,546	962,842	554,050
-32,154	18,631	961,851	553,733
-31,140	18,606	961,161	553,232
-30,125	18,654	960,378	552,916
-29,111	18,630	959,602	552,371
-28,096	18,578	958,993	551,828
-27,082	18,540	958,261	551,264
-26,067	18,570	957,450	550,871
-25,052	18,583	956,629	550,420
-24,038	18,546	955,983	549,906
-23,023	18,524	955,398	549,476
-22,009	18,573	954,535	549,115
-20,994	18,582	954,089	548,867
-19,979	18,626	953,384	548,582
-18,965	18,521	952,933	547,963
-17,950	18,535	952,326	547,638
-16,936	18,468	951,662	547,018
-15,921	18,469	950,919	546,573
-14,906	18,398	950,274	545,953
-13,892	18,424	949,544	545,593
-12,877	18,444	948,802	545,211
-11,863	18,339	948,451	544,650
-10,848	18,379	947,844	544,407
-9,833	18,476	947,327	544,401
-8,819	18,522	946,549	544,078
-7,804	18,498	945,844	543,576
-6,790	18,462	945,260	543,102
-5,775	18,468	944,759	542,814
-4,760	18,464	944,167	542,438
-3,746	18,435	943,588	541,993
-2,731	18,260	942,767	540,943
-1,717	18,232	941,909	540,338
-0,702	18,218	941,447	540,008
0,313	18,073	940,732	539,954
1,327	21,132	939,091	548,653
2,342	30,061	796,301	489,015
3,356	27,021	449,332	271,353
4,371	-2,778	294,992	148,298
5,386	-6,930	276,244	134,919
6,400	-8,316	270,496	130,810
7,415	-8,627	268,144	129,374
8,429	-8,258	266,765	129,036
9,444	-8,160	265,800	128,647
10,459	-8,190	265,314	128,373
11,473	-8,315	264,615	127,910
12,488	-8,368	264,133	127,618
13,502	-8,591	263,616	127,154
14,517	-8,579	263,219	126,962
15,531	-8,444	262,899	126,918
16,546	-8,151	262,536	126,997
17,561	-8,238	262,166	126,727
18,575	-8,166	261,770	126,590
19,590	-8,488	261,501	126,159
20,604	-8,260	261,065	126,142
21,619	-8,252	260,673	125,949
22,634	-8,209	260,362	125,825
23,648	-8,400	260,128	125,531
24,663	-8,609	260,100	125,319
25,677	-8,387	259,729	125,327
26,692	-8,336	259,368	125,187
27,707	-8,234	259,052	125,114
28,721	-8,341	258,716	124,846
29,736	-8,357	258,553	124,742
30,750	-8,392	258,269	124,563
31,765	-8,350	257,953	124,436
32,780	-8,365	257,971	124,421
33,794	-8,433	257,597	124,169
34,809	-8,445	257,388	124,046
35,823	-8,582	257,240	123,843
36,838	-8,597	256,913	123,662
37,853	-8,536	256,686	123,595
38,867	-8,677	256,566	123,401
39,882	-8,634	256,188	123,247
40,896	-8,472	255,947	123,262
41,911	-8,645	255,793	123,026
42,926	-8,780	255,528	122,769
43,940	-8,664	255,285	122,742
44,955	-8,487	254,986	122,742
45,969	-8,765	254,939	122,466
46,984	-8,927	254,665	122,181
47,999	-9,015	254,276	121,907
49,013	-9,058	253,981	121,717
50,028	-9,348	253,713	121,326
51,042	-9,310	253,448	121,221
52,057	-9,346	253,242	121,080
53,071	-9,338	253,148	121,032
54,086	-9,326	253,015	120,968
55,101	-8,999	252,849	121,162
56,115	-8,965	252,678	121,099
57,130	-8,500	252,592	121,448
58,144	-8,125	252,515	121,725
59,159	-8,207	252,220	121,502
60,174	-8,344	252,116	121,322
61,188	-8,147	251,523	121,195
62,203	-8,289	251,625	121,112
63,217	-8,380	251,368	120,898
64,232	-8,364	251,136	120,790
65,247	-8,438	250,896	120,601
66,261	-8,428	250,637	120,474
67,276	-8,582	250,464	120,248
68,290	-8,994	250,191	119,753
69,305	-8,867	249,869	119,697
70,320	-8,989	249,825	119,561
71,334	-8,452	249,577	119,890
72,349	-8,438	249,565	119,886
73,363	-8,474	249,299	119,716
74,378	-8,168	249,071	119,857
75,393	-8,356	248,841	119,576
76,407	-8,532	248,761	119,377
77,422	-8,411	248,338	119,266
78,436	-8,313	248,226	119,285
79,451	-8,341	248,024	119,154
80,466	-8,532	247,790	118,868
81,480	-8,762	247,581	118,562
82,495	-8,639	247,295	118,520
83,509	-8,804	247,309	118,376
84,524	-8,773	247,025	118,255
85,539	-8,791	246,733	118,090
86,553	-8,944	246,598	117,886
87,568	-8,769	246,381	117,919
88,582	-8,811	246,198	117,786
89,597	-8,860	246,130	117,701
90,611	-8,803	245,930	117,643
91,626	-8,447	245,707	117,825
92,641	-8,480	245,591	117,731
93,655	-8,515	245,336	117,569
94,670	-8,826	245,248	117,256
95,684	-8,638	245,006	117,287
96,699	-8,575	244,804	117,232
97,714	-8,594	244,568	117,093
98,728	-8,665	244,331	116,910
99,743	-8,845	244,160	116,668
100,757	-8,942	243,914	116,459
101,772	-8,914	243,865	116,448
102,787	-8,791	243,670	116,447
103,801	-8,728	243,651	116,480
104,816	-8,540	243,317	116,466
105,830	-8,556	243,097	116,337
106,845	-8,501	242,947	116,300
107,860	-8,506	242,811	116,221
108,874	-8,808	242,684	115,900
109,889	-8,683	242,325	115,821
110,903	-8,384	241,989	115,897
111,918	-8,765	241,872	115,516
112,933	-8,688	241,736	115,505
113,947	-8,686	241,591	115,427
114,962	-8,540	241,544	115,515
115,976	-8,500	241,274	115,408
116,991	-8,606	241,075	115,215
118,006	-8,408	240,870	115,270
119,020	-8,447	240,802	115,195
120,035	-8,537	240,788	115,105
121,049	-8,277	240,517	115,177
122,064	-8,446	240,413	114,979
123,079	-8,526	240,293	114,845
124,093	-8,711	239,881	114,487
125,108	-8,936	239,714	114,213
126,122	-8,953	239,418	114,048
127,137	-9,134	239,247	113,809
128,151	-9,163	239,151	113,730
129,166	-8,851	238,993	113,899
130,181	-9,085	238,799	113,605
131,195	-9,081	238,587	113,498
132,210	-8,833	238,445	113,622
133,224	-8,706	238,323	113,657
134,239	-8,694	238,246	113,619
135,254	-8,791	238,015	113,421
136,268	-8,873	237,738	113,212
137,283	-8,945	237,564	113,061
138,297	-8,945	237,285	112,918
139,312	-9,114	237,045	112,658
140,327	-8,865	237,031	112,841
141,341	-8,507	237,143	113,173
142,356	-8,126	237,005	113,405
143,370	-8,236	236,729	113,174
144,385	-8,118	236,538	113,167
145,400	-8,184	236,306	112,993
146,414	-8,324	236,124	112,783
147,429	-8,298	236,045	112,757
148,443	-8,302	235,933	112,690
149,458	-8,213	235,584	112,585
150,473	-8,291	235,578	112,510
151,487	-8,390	235,251	112,264
152,502	-8,281	235,139	112,288
153,516	-8,260	234,969	112,213
154,531	-8,301	234,908	112,141
155,546	-8,380	234,611	111,927
156,560	-8,276	234,469	111,931
157,575	-8,589	234,205	111,547
158,589	-8,377	233,900	111,560
159,604	-8,213	234,021	111,739
160,619	-8,152	233,911	111,724
161,633	-8,041	233,765	111,733
162,648	-8,051	233,606	111,638
163,662	-8,059	233,229	111,442
164,677	-8,377	233,355	111,240
165,692	-8,227	233,092	111,224
166,706	-8,234	232,945	111,139
167,721	-8,192	232,929	111,154
168,735	-8,278	232,739	110,985
169,750	-8,118	232,538	111,006
170,764	-8,399	232,406	110,711
171,779	-8,370	232,276	110,662
172,794	-8,057	232,046	110,789
173,808	-8,311	231,830	110,477
174,823	-8,634	231,553	110,081
175,837	-9,142	231,473	109,635
176,852	-8,778	231,264	109,811
177,867	-8,365	231,313	110,149
178,881	-8,367	231,149	110,059
179,896	-8,118	230,810	110,083
180,910	-8,186	230,764	109,997
181,925	-8,195	230,579	109,892
182,940	-8,145	230,429	109,850
183,954	-8,263	230,433	109,751
184,969	-7,919	230,185	109,891
185,983	-7,849	230,104	109,897
186,998	-8,049	229,909	109,638
188,013	-8,025	229,783	109,587
189,027	-7,919	229,570	109,558
190,042	-8,140	229,471	109,329
191,056	-8,267	229,438	109,205
192,071	-8,144	229,146	109,152
193,086	-8,143	228,978	109,063
194,100	-7,892	228,799	109,163
195,115	-8,418	228,292	108,504
196,129	-9,695	228,044	107,390
197,144	-5,294	229,522	111,495
198,159	0,887	231,215	117,129
199,173	3,235	231,844	119,268
200,188	3,260	231,812	119,260
201,202	3,560	231,535	119,341
202,217	3,759	231,493	119,463
203,232	3,885	231,498	119,553
204,246	4,013	231,338	119,560
205,261	4,149	231,210	119,588
206,275	4,290	230,990	119,573
207,290	4,181	230,967	119,466
208,304	4,190	230,856	119,405
209,319	4,161	230,564	119,221
210,334	4,250	230,486	119,239
211,348	3,885	230,230	118,814
212,363	3,452	229,976	118,337
213,377	3,416	229,635	118,124
214,392	3,385	229,513	118,027
215,407	3,577	229,327	118,068
216,421	3,319	229,258	117,823
217,436	3,409	229,195	117,850
218,450	3,211	228,836	117,503
219,465	3,052	228,764	117,333
220,480	2,959	228,744	117,242
221,494	2,913	228,594	117,118
222,509	3,212	228,485	117,282
223,523	3,249	228,234	117,170
224,538	3,163	227,971	116,959
225,553	3,376	227,860	117,055
226,567	3,508	227,814	117,122
227,582	3,567	227,773	117,135
228,596	3,794	227,600	117,209
229,611	3,409	227,470	116,838
230,626	3,051	227,211	116,422
231,640	3,280	226,989	116,472
232,655	3,663	226,956	116,736
233,669	4,070	226,955	117,034
234,684	4,019	226,762	116,886
235,699	3,704	226,666	116,586
236,713	3,541	226,360	116,295
237,728	3,347	226,198	116,055
238,742	3,105	226,122	115,822
239,757	3,302	225,902	115,848
240,772	3,143	225,638	115,582
241,786	3,244	225,497	115,576
242,801	3,451	225,482	115,714
243,815	3,790	225,377	115,906
244,830	3,788	225,399	115,905
245,844	3,521	225,005	115,491
246,859	3,478	224,810	115,348
247,874	3,424	224,809	115,297
248,888	3,678	224,577	115,358
249,903	3,723	224,434	115,308
250,917	3,434	224,314	115,019
251,932	3,521	224,072	114,951
252,947	3,203	223,959	114,644
253,961	3,131	223,795	114,496
254,976	3,249	223,677	114,514
255,990	3,563	223,542	114,669
257,005	3,534	223,442	114,586
258,020	3,580	223,431	114,604
259,034	3,861	223,243	114,707
260,049	3,684	223,187	114,537
261,063	3,810	222,738	114,390
262,078	3,805	222,719	114,366
263,093	3,742	222,706	114,303
264,107	3,600	222,567	114,115
265,122	3,664	222,348	114,040
266,136	3,897	222,191	114,123
267,151	3,730	222,090	113,937
268,166	3,221	221,878	113,441
269,180	3,077	221,530	113,146
270,195	3,238	221,481	113,230
271,209	3,269	221,288	113,144
272,224	3,199	221,358	113,118
273,239	3,536	221,262	113,308
274,253	3,434	220,916	113,045
275,268	3,434	220,744	112,947
276,282	3,015	220,668	112,589
277,297	3,251	220,491	112,663
278,312	3,163	220,451	112,567
279,326	3,300	220,263	112,562
280,341	3,151	220,087	112,353
281,355	3,507	220,044	112,582
282,370	3,382	219,798	112,355
283,384	3,109	219,627	112,057
284,399	3,153	219,431	111,979
285,414	3,079	219,369	111,884
286,428	3,418	219,317	112,095
287,443	3,487	219,263	112,108
288,457	3,512	219,063	112,014
289,472	3,310	218,828	111,737
290,487	3,036	218,509	111,364
291,501	2,839	218,423	111,167
292,516	3,065	218,294	111,256
293,530	3,139	218,242	111,273
294,545	3,023	218,144	111,129
295,560	3,400	217,827	111,231
296,574	3,467	217,957	111,336
297,589	3,311	217,822	111,144
298,603	3,489	217,745	111,224
299,618	3,541	217,337	111,044
300,633	3,512	217,353	111,020
301,647	3,633	217,293	111,068
302,662	3,809	217,052	111,062
303,676	3,663	216,994	110,917
304,691	3,667	216,761	110,791
305,706	3,614	216,861	110,793
306,720	3,669	216,531	110,655
307,735	3,330	216,292	110,278
308,749	3,376	216,215	110,263
309,764	3,438	216,040	110,208
310,779	3,659	215,981	110,327
311,793	3,496	215,791	110,103
312,808	3,638	215,492	110,042
313,822	3,194	215,493	109,715
314,837	3,411	215,391	109,809
315,852	3,255	215,396	109,690
316,866	3,650	215,046	109,784
317,881	3,493	215,044	109,661
318,895	3,739	214,898	109,753
319,910	3,501	214,713	109,479
320,925	3,273	214,503	109,199
321,939	3,074	214,301	108,945
322,954	3,128	214,275	108,960
323,968	3,379	214,323	109,153
324,983	3,555	214,060	109,135
325,997	3,623	214,033	109,160
327,012	3,441	213,859	108,932
328,027	3,671	213,557	108,932
329,041	3,875	213,626	109,102
330,056	3,742	213,491	108,929
331,070	3,393	213,257	108,553
332,085	3,106	212,947	108,182
333,100	3,319	212,942	108,320
334,114	3,395	212,905	108,346
335,129	3,518	212,495	108,215
336,143	3,329	212,510	108,079
337,158	3,669	212,318	108,212
338,173	3,383	212,230	107,956
339,187	3,291	211,985	107,756
340,202	2,904	212,064	107,515
341,216	3,137	211,796	107,533
342,231	3,137	211,657	107,453
343,246	3,124	211,426	107,317
344,260	3,141	211,398	107,305
345,275	3,285	211,333	107,363
346,289	3,359	211,298	107,388
347,304	3,677	211,045	107,472
348,319	3,495	210,916	107,270
349,333	3,301	210,753	107,042
350,348	3,485	210,715	107,141
351,362	3,652	210,626	107,203
352,377	3,544	210,427	107,017
353,392	3,429	210,144	106,784
354,406	3,560	210,169	106,878
355,421	195,111	1342,277	1427,642
356,435	155,790	1480,238	1427,674
