DTS Sentinel unit serial number:	SN410029Multiplexer serial number:	ORYXHardware model number:	OX2-SRSoftware version number:	ORYX F/W v4,00 Oryx Data Collector v3.7.2.0data status	okinstallation	B6 Nyhavnadifferential loss correction	single-endedforward channel	channel 2reverse channel	N/Adate	2023/12/10time	22:10:08forward acquisition time	300,00reverse acquisition time	0,00gamma	499,1914k internal	0,3122k external	0,3122temperature offset calibration	1,0000default loss term (dB/km)	0,3820temperature slope calibration	1,0000multiplexer offset coefficient	1,0000multiplexer slope coefficient	1,0000fibre end	0,00T internal ref (°C)	22,32T ext. ref 1 (°C)	6,12T ext. ref 2 (°C)	6,12length (m)	temperature (°C)	Stokes	anti-Stokes-744,400	520,180	-0,030	-0,052
-743,385	173,804	-0,110	0,118
-742,371	-91,774	0,085	0,018
-741,356	-4,889	-0,163	0,083
-740,342	37,808	0,071	-0,047
-739,327	74,162	-0,142	0,111
-738,312	80,537	-0,135	-0,108
-737,298	-18,183	-0,364	0,169
-736,283	-14,771	0,129	-0,061
-735,269	197,391	-0,136	0,154
-734,254	-200,000	0,007	-0,036
-733,239	-108,493	-0,385	-0,061
-732,225	-200,000	0,044	-0,171
-731,210	233,593	-0,038	-0,046
-730,196	43,003	0,030	0,020
-729,181	28,365	0,068	0,043
-728,167	-115,381	-0,086	-0,012
-727,152	147,824	0,052	0,052
-726,137	632,301	-0,047	-0,089
-725,123	25,581	0,126	-0,078
-724,108	246,578	-0,091	-0,114
-723,094	-84,079	-0,088	0,021
-722,079	800,000	-0,043	-0,137
-721,064	800,000	0,005	0,014
-720,050	-10,995	-0,297	0,145
-719,035	-200,000	-0,023	0,105
-718,021	-100,268	-0,070	0,013
-717,006	-70,382	-0,051	-0,014
-715,991	800,000	-0,061	-0,157
-714,977	-200,000	-0,023	-0,104
-713,962	-53,192	0,049	-0,017
-712,948	34,416	0,027	0,018
-711,933	-200,000	0,013	0,054
-710,918	-140,936	-0,021	0,002
-709,904	-20,356	-0,047	0,021
-708,889	125,171	-0,078	-0,074
-707,875	-200,000	-0,000	-0,064
-706,860	-200,000	-0,010	-0,116
-705,845	-2,205	0,144	-0,075
-704,831	800,000	0,050	-0,125
-703,816	89,757	-0,097	0,081
-702,802	-165,212	-0,072	-0,002
-701,787	800,000	0,033	-0,103
-700,772	800,000	-0,035	-0,106
-699,758	327,214	-0,036	0,052
-698,743	-200,000	0,010	0,075
-697,729	629,443	0,044	-0,083
-696,714	59,536	0,117	0,085
-695,699	60,218	-0,165	0,121
-694,685	-167,451	-0,083	-0,002
-693,670	97,910	0,034	-0,029
-692,656	57,583	0,066	0,048
-691,641	345,481	-0,056	0,082
-690,627	55,666	0,058	-0,042
-689,612	-132,707	-0,084	-0,008
-688,597	-200,000	0,006	-0,064
-687,583	-77,954	-0,056	-0,014
-686,568	-2,591	-0,006	0,003
-685,554	-133,304	0,109	0,010
-684,539	-200,000	0,017	0,137
-683,524	800,000	0,051	0,143
-682,510	800,000	0,035	0,085
-681,495	-200,000	-0,015	0,093
-680,481	-73,730	0,067	0,018
-679,466	579,584	-0,099	-0,181
-678,451	-200,000	-0,005	0,086
-677,437	800,000	0,014	-0,045
-676,422	57,133	0,059	0,043
-675,408	-136,520	-0,137	0,012
-674,393	-2,711	-0,250	-0,130
-673,378	800,000	-0,028	-0,091
-672,364	24,270	-0,078	-0,048
-671,349	201,299	0,039	-0,045
-670,335	-12,599	0,065	-0,031
-669,320	-43,601	0,015	0,006
-668,305	290,215	-0,099	-0,134
-667,291	-200,000	-0,009	-0,207
-666,276	-200,000	-0,019	0,081
-665,262	129,295	-0,045	0,043
-664,247	800,000	0,033	-0,083
-663,232	618,346	-0,020	-0,038
-662,218	800,000	0,033	-0,099
-661,203	-0,332	0,142	-0,075
-660,189	-48,157	0,051	-0,018
-659,174	-60,168	-0,131	0,041
-658,159	117,408	0,045	0,041
-657,145	327,701	-0,044	-0,062
-656,130	48,096	-0,063	0,043
-655,116	-200,000	-0,008	-0,060
-654,101	-200,000	-0,017	0,073
-653,086	-200,000	0,006	0,044
-652,072	-170,675	-0,032	0,001
-651,057	-200,000	0,010	-0,060
-650,043	800,000	0,021	-0,057
-649,028	-200,000	-0,021	0,079
-648,014	-200,000	0,010	0,045
-646,999	6,329	0,089	0,049
-645,984	-106,968	-0,077	-0,012
-644,970	-138,467	-0,080	-0,006
-643,955	-34,834	0,044	0,018
-642,941	-200,000	0,003	0,073
-641,926	-39,008	-0,053	-0,021
-640,911	743,718	-0,060	0,121
-639,897	-200,000	-0,006	0,032
-638,882	78,770	0,066	0,052
-637,868	-200,000	-0,004	-0,023
-636,853	307,316	0,037	-0,052
-635,838	249,799	-0,070	-0,089
-634,824	-10,938	-0,094	-0,046
-633,809	-84,905	-0,047	-0,011
-632,795	-28,563	0,094	0,040
-631,780	175,146	0,049	0,052
-630,765	-200,000	0,012	0,105
-629,751	193,948	-0,098	-0,110
-628,736	26,676	-0,034	0,021
-627,722	-3,867	-0,105	-0,054
-626,707	-200,000	-0,000	-0,066
-625,692	800,000	-0,024	-0,059
-624,678	-4,896	0,029	0,015
-623,663	-36,713	0,096	0,038
-622,649	48,981	-0,112	0,078
-621,634	800,000	0,040	-0,093
-620,619	118,291	-0,085	-0,078
-619,605	418,066	0,056	0,089
-618,590	9,214	-0,139	-0,077
-617,576	-136,101	0,232	0,020
-616,561	-200,000	0,008	0,033
-615,546	-200,000	-0,017	-0,115
-614,532	-200,000	-0,014	-0,097
-613,517	800,000	-0,022	-0,059
-612,503	-200,000	0,038	-0,144
-611,488	-140,231	0,027	-0,002
-610,474	568,965	-0,022	-0,041
-609,459	-44,483	0,050	0,018
-608,444	274,184	0,043	-0,056
-607,430	469,639	0,034	0,057
-606,415	413,767	0,015	0,024
-605,401	-128,184	0,127	-0,013
-604,386	135,939	0,051	-0,049
-603,371	262,727	-0,017	0,022
-602,357	-200,000	-0,003	-0,025
-601,342	-84,566	-0,078	0,018
-600,328	-200,000	0,000	-0,021
-599,313	171,241	-0,053	-0,056
-598,298	800,000	0,029	-0,070
-597,284	25,435	-0,030	0,019
-596,269	-200,000	0,005	-0,025
-595,255	73,204	-0,024	0,018
-594,240	-79,300	0,120	0,030
-593,225	800,000	-0,014	0,030
-592,211	14,609	-0,183	-0,105
-591,196	428,698	0,043	-0,069
-590,182	-200,000	-0,011	-0,074
-589,167	-77,741	0,123	-0,031
-588,152	48,414	0,060	-0,042
-587,138	174,994	-0,067	0,071
-586,123	-180,702	-0,092	0,001
-585,109	57,277	-0,045	0,033
-584,094	800,000	0,048	-0,123
-583,079	-149,942	0,103	-0,006
-582,065	264,853	0,091	0,117
-581,050	167,517	0,057	-0,060
-580,036	18,913	-0,093	-0,055
-579,021	563,848	-0,015	-0,028
-578,006	-72,081	0,060	-0,016
-576,992	-200,000	-0,006	-0,071
-575,977	210,284	0,073	-0,085
-574,963	87,969	0,090	-0,074
-573,948	800,000	0,021	0,060
-572,934	800,000	0,035	0,080
-571,919	111,779	0,090	-0,081
-570,904	77,492	-0,024	0,019
-569,890	-200,000	0,049	-0,225
-568,875	239,886	0,080	0,099
-567,861	-200,000	0,002	0,096
-566,846	-118,262	0,121	0,016
-565,831	-200,000	0,002	-0,049
-564,817	175,370	-0,062	0,067
-563,802	-200,000	0,000	0,039
-562,788	49,871	0,062	0,043
-561,773	368,539	0,088	-0,133
-560,758	-63,816	-0,078	-0,023
-559,744	126,967	-0,110	0,103
-558,729	-47,331	-0,059	0,021
-557,715	284,166	-0,075	0,100
-556,700	170,920	-0,102	-0,108
-555,685	-67,542	-0,111	0,032
-554,671	-200,000	-0,034	0,122
-553,656	169,123	-0,102	0,108
-552,642	381,476	-0,074	-0,113
-551,627	-200,000	-0,024	-0,124
-550,612	-200,000	0,001	-0,108
-549,598	-106,612	-0,074	-0,012
-548,583	127,114	-0,113	-0,107
-547,569	89,048	0,071	-0,058
-546,554	-121,687	-0,051	-0,006
-545,539	235,198	-0,120	-0,147
-544,525	-31,176	-0,068	-0,028
-543,510	-200,000	-0,009	-0,094
-542,496	553,761	0,041	-0,073
-541,481	-11,553	0,097	0,047
-540,466	-200,000	-0,019	-0,084
-539,452	107,248	-0,051	0,045
-538,437	-184,858	0,023	-0,000
-537,423	79,715	-0,075	0,059
-536,408	-126,681	-0,098	-0,011
-535,393	77,745	-0,021	0,016
-534,379	-200,000	-0,011	-0,065
-533,364	800,000	0,056	-0,183
-532,350	-91,871	0,131	-0,027
-531,335	34,918	0,083	-0,054
-530,321	800,000	-0,038	-0,085
-529,306	158,750	0,056	-0,057
-528,291	-78,197	-0,150	0,038
-527,277	-72,736	0,027	-0,007
-526,262	51,613	0,102	-0,071
-525,248	800,000	-0,046	-0,144
-524,233	-200,000	0,010	0,082
-523,218	-64,197	-0,068	-0,020
-522,204	627,618	0,059	-0,110
-521,189	100,398	-0,126	-0,108
-520,175	-52,864	-0,137	-0,046
-519,160	510,734	0,052	0,090
-518,145	111,955	0,024	-0,021
-517,131	-97,672	-0,028	-0,005
-516,116	-15,157	-0,070	-0,033
-515,102	186,468	0,047	-0,052
-514,087	401,869	-0,087	0,135
-513,072	174,755	0,017	-0,019
-512,058	20,606	0,041	-0,025
-511,043	12,443	-0,138	-0,078
-510,029	-200,000	-0,017	0,187
-509,014	-104,830	-0,051	0,008
-507,999	436,283	-0,033	0,054
-506,985	-200,000	-0,168	-0,001
-505,970	-200,000	0,034	-0,120
-504,956	-200,000	0,018	-0,125
-503,941	665,002	0,055	0,104
-502,926	800,000	0,036	0,090
-501,912	265,361	-0,080	-0,103
-500,897	-200,000	0,008	-0,051
-499,883	-116,213	-0,078	0,011
-498,868	95,292	0,029	-0,024
-497,853	83,484	-0,034	-0,027
-496,839	-22,510	0,154	0,068
-495,824	-76,116	-0,034	-0,009
-494,810	321,550	0,085	0,119
-493,795	-83,901	0,079	-0,018
-492,781	800,000	-0,030	-0,065
-491,766	-62,076	-0,124	-0,038
-490,751	-21,939	-0,061	0,027
-489,737	-200,000	0,008	-0,073
-488,722	-130,289	-0,102	0,010
-487,708	684,366	0,026	-0,051
-486,693	-137,535	0,026	0,002
-485,678	-200,000	-0,004	-0,101
-484,664	119,593	0,088	-0,080
-483,649	83,209	-0,064	-0,051
-482,635	-200,000	0,039	-0,142
-481,620	-140,851	-0,089	0,007
-480,605	-200,000	-0,001	0,018
-479,591	800,000	0,033	0,093
-478,576	-53,239	-0,088	0,030
-477,562	125,419	0,043	-0,040
-476,547	187,755	-0,127	0,140
-475,532	-200,000	0,019	-0,093
-474,518	800,000	-0,051	0,124
-473,503	375,445	-0,039	0,059
-472,489	-200,000	-0,014	0,099
-471,474	-200,000	-0,011	0,058
-470,459	-200,000	-0,014	-0,112
-469,445	-21,274	-0,066	0,030
-468,430	176,769	-0,034	-0,037
-467,416	-142,591	-0,128	-0,009
-466,401	800,000	-0,053	0,155
-465,386	-200,000	-0,010	0,073
-464,372	-76,737	0,128	-0,033
-463,357	-59,297	-0,214	-0,068
-462,343	247,280	-0,093	0,116
-461,328	78,564	0,024	0,019
-460,313	-164,212	-0,116	0,004
-459,299	187,664	0,068	0,075
-458,284	800,000	0,025	0,077
-457,270	-200,000	-0,028	0,099
-456,255	17,208	-0,053	-0,031
-455,241	54,125	0,042	0,030
-454,226	-200,000	-0,007	-0,180
-453,211	13,631	0,046	0,027
-452,197	-51,815	-0,087	0,030
-451,182	257,365	0,090	-0,115
-450,168	-200,000	-0,001	0,055
-449,153	102,579	0,101	0,087
-448,138	800,000	0,027	-0,068
-447,124	786,388	0,015	-0,030
-446,109	-21,140	-0,121	-0,054
-445,095	13,770	0,108	0,061
-444,080	297,061	0,113	0,154
-443,065	-200,000	-0,005	0,069
-442,051	-200,000	-0,031	-0,145
-441,036	537,794	0,019	0,033
-440,022	-200,000	0,022	-0,089
-439,007	800,000	-0,050	-0,118
-437,992	356,850	0,018	0,026
-436,978	473,497	0,038	0,063
-435,963	800,000	-0,014	-0,038
-434,949	-200,000	0,023	0,128
-433,934	169,192	-0,100	-0,106
-432,919	-200,000	-0,027	-0,105
-431,905	575,249	-0,030	-0,054
-430,890	-200,000	-0,023	-0,125
-429,876	10,186	0,093	0,052
-428,861	591,460	0,025	0,045
-427,846	-26,388	0,022	0,010
-426,832	96,665	0,053	0,045
-425,817	800,000	0,008	0,021
-424,803	-12,994	-0,056	0,027
-423,788	800,000	0,057	0,153
-422,773	135,088	0,077	0,074
-421,759	-200,000	-0,009	0,042
-420,744	-42,993	-0,079	-0,029
-419,730	800,000	0,048	-0,152
-418,715	232,466	-0,036	0,043
-417,701	-19,937	-0,023	-0,010
-416,686	27,510	-0,051	0,031
-415,671	-200,000	-0,011	0,069
-414,657	-52,542	0,136	-0,046
-413,642	642,782	-0,096	0,181
-412,628	131,469	-0,049	0,046
-411,613	-82,518	-0,052	0,012
-410,598	258,222	0,059	-0,074
-409,584	-4,892	0,052	0,026
-408,569	-84,326	0,094	-0,022
-407,555	336,497	-0,040	0,057
-406,540	67,920	-0,021	0,016
-405,525	-118,521	-0,044	0,006
-404,511	-39,111	0,015	0,006
-403,496	83,940	0,054	0,043
-402,482	-96,513	-0,044	0,008
-401,467	20,187	0,047	-0,028
-400,452	-200,000	-0,013	0,093
-399,438	301,663	0,159	0,217
-398,423	-200,000	-0,015	0,052
-397,409	382,282	-0,069	-0,105
-396,394	800,000	-0,024	-0,067
-395,379	-200,000	0,021	-0,131
-394,365	205,093	0,041	-0,047
-393,350	800,000	0,028	0,070
-392,336	800,000	0,027	-0,072
-391,321	-200,000	-0,005	-0,075
-390,306	800,000	-0,021	0,062
-389,292	432,480	0,026	0,042
-388,277	45,949	-0,085	-0,057
-387,263	-200,000	0,003	-0,011
-386,248	100,821	-0,083	0,071
-385,233	262,737	-0,022	0,028
-384,219	-45,153	-0,108	0,039
-383,204	-21,643	0,121	-0,054
-382,190	519,348	-0,017	-0,030
-381,175	-112,177	-0,032	-0,005
-380,160	-200,000	0,010	-0,126
-379,146	-117,327	0,027	-0,004
-378,131	-200,000	0,015	0,051
-377,117	800,000	0,091	-0,236
-376,102	800,000	0,021	0,059
-375,088	48,892	0,058	0,040
-374,073	468,442	-0,040	0,067
-373,058	-95,532	0,027	0,005
-372,044	-200,000	-0,017	0,120
-371,029	800,000	-0,009	-0,026
-370,015	-159,055	-0,097	0,004
-369,000	-200,000	-0,022	-0,077
-367,985	170,486	-0,089	-0,094
-366,971	213,055	0,041	0,048
-365,956	-200,000	0,007	-0,188
-364,942	800,000	0,019	-0,058
-363,927	-178,158	0,035	0,001
-362,912	-200,000	-0,010	-0,111
-361,898	-200,000	0,014	-0,179
-360,883	419,799	-0,051	0,080
-359,869	-57,633	-0,071	-0,023
-358,854	-65,679	0,105	-0,031
-357,839	-200,000	0,002	-0,054
-356,825	118,183	-0,052	-0,047
-355,810	69,381	0,100	-0,076
-354,796	-200,000	-0,017	0,069
-353,781	800,000	0,057	0,122
-352,766	15,647	0,044	0,026
-351,752	233,572	0,045	-0,054
-350,737	-200,000	-0,021	0,116
-349,723	-200,000	-0,018	0,107
-348,708	261,581	-0,025	-0,032
-347,693	800,000	0,037	-0,098
-346,679	446,418	-0,017	-0,028
-345,664	60,058	0,078	-0,056
-344,650	-200,000	0,001	0,087
-343,635	-200,000	-0,003	-0,062
-342,620	174,200	0,035	-0,038
-341,606	-200,000	0,017	0,119
-340,591	-60,694	-0,137	-0,042
-339,577	31,518	-0,194	-0,122
-338,562	-200,000	-0,015	-0,072
-337,548	-163,831	0,063	0,002
-336,533	-90,298	0,011	-0,002
-335,518	-100,873	-0,043	-0,008
-334,504	53,300	0,041	-0,028
-333,489	631,709	-0,054	0,101
-332,475	-43,885	-0,065	-0,024
-331,460	-200,000	0,012	-0,125
-330,445	-28,907	0,154	-0,065
-329,431	-49,892	0,119	0,041
-328,416	800,000	0,067	0,151
-327,402	-38,229	0,103	0,040
-326,387	-120,646	0,094	-0,012
-325,372	193,249	-0,065	0,072
-324,358	-200,000	-0,010	-0,106
-323,343	-102,982	-0,076	-0,013
-322,329	-200,000	0,005	0,024
-321,314	51,026	-0,084	-0,058
-320,299	800,000	0,057	0,170
-319,285	-66,748	0,116	0,033
-318,270	-89,128	-0,046	-0,010
-317,256	123,896	0,083	0,076
-316,241	203,220	0,052	0,058
-315,226	27,004	-0,034	-0,021
-314,212	663,325	-0,018	0,035
-313,197	800,000	-0,004	0,010
-312,183	-70,247	0,101	-0,028
-311,168	-200,000	-0,003	-0,123
-310,153	-142,714	0,147	0,010
-309,139	208,781	0,058	0,066
-308,124	-27,619	0,009	0,004
-307,110	95,704	0,110	-0,092
-306,095	218,761	0,075	-0,088
-305,080	-4,190	-0,056	-0,028
-304,066	-200,000	-0,170	-0,001
-303,051	-126,041	0,061	0,007
-302,037	-200,000	0,003	0,102
-301,022	-200,000	-0,029	0,144
-300,008	800,000	0,057	0,133
-298,993	2,391	0,098	-0,052
-297,978	-200,000	0,010	0,072
-296,964	-200,000	-0,020	0,103
-295,949	32,954	0,111	-0,070
-294,935	222,522	-0,035	0,041
-293,920	705,634	-0,020	-0,038
-292,905	-58,753	0,053	0,017
-291,891	-156,923	0,091	-0,004
-290,876	-200,000	0,008	-0,104
-289,862	800,000	-0,037	0,103
-288,847	-200,000	0,015	0,098
-287,832	23,965	-0,086	0,052
-286,818	209,614	0,023	-0,027
-285,803	33,344	-0,046	0,029
-284,789	-200,000	0,007	0,037
-283,774	-200,000	-0,021	0,070
-282,759	-200,000	-0,028	-0,199
-281,745	-195,841	-0,072	-0,000
-280,730	609,264	-0,040	0,073
-279,716	-200,000	0,020	0,082
-278,701	301,432	0,093	0,126
-277,686	-200,000	0,008	0,118
-276,672	179,924	0,024	-0,026
-275,657	-200,000	0,003	-0,011
-274,643	30,153	0,062	-0,039
-273,628	-200,000	0,001	-0,048
-272,613	-200,000	0,017	-0,062
-271,599	-106,244	0,025	-0,004
-270,584	729,975	0,072	0,142
-269,570	-73,570	0,116	-0,031
-268,555	800,000	0,039	0,085
-267,540	-200,000	-0,014	0,059
-266,526	96,932	-0,139	0,117
-265,511	499,819	-0,022	-0,037
-264,497	-54,124	0,034	0,011
-263,482	326,153	0,029	-0,040
-262,467	-200,000	0,008	-0,036
-261,453	245,143	-0,051	0,063
-260,438	168,892	0,038	0,039
-259,424	61,380	-0,102	-0,074
-258,409	-200,000	-0,010	-0,098
-257,395	-40,129	0,067	0,026
-256,380	10,468	0,066	0,037
-255,365	178,710	0,034	-0,037
-254,351	-111,467	0,063	-0,009
-253,336	-200,000	-0,044	-0,163
-252,322	-200,000	0,013	0,136
-251,307	23,832	-0,074	0,045
-250,292	94,870	-0,162	0,135
-249,278	-200,000	0,001	0,042
-248,263	160,005	0,068	0,069
-247,249	-48,814	0,025	-0,009
-246,234	800,000	-0,009	-0,025
-245,219	-161,765	-0,134	-0,005
-244,205	-16,201	-0,102	0,047
-243,190	-200,000	0,022	0,143
-242,176	-200,000	0,010	-0,138
-241,161	136,564	-0,119	0,114
-240,146	14,705	-0,057	0,033
-239,132	800,000	0,069	0,151
-238,117	-176,355	-0,067	0,001
-237,103	-78,234	0,054	0,014
-236,088	-200,000	-0,000	0,015
-235,073	-200,000	0,002	-0,041
-234,059	407,103	0,059	0,092
-233,044	-200,000	0,052	0,197
-232,030	159,475	-0,064	-0,065
-231,015	62,763	-0,155	-0,113
-230,000	354,964	0,044	-0,063
-228,986	64,789	0,064	-0,047
-227,971	-145,126	0,126	0,008
-226,957	291,621	0,047	0,062
-225,942	110,880	0,034	0,030
-224,927	-200,000	-0,001	-0,029
-223,913	97,162	-0,048	-0,040
-222,898	-200,000	0,004	0,077
-221,884	-87,514	-0,058	0,013
-220,869	172,085	-0,033	0,035
-219,855	79,122	0,160	-0,125
-218,840	-133,268	-0,057	-0,005
-217,825	46,709	-0,064	0,043
-216,811	230,793	-0,077	-0,092
-215,796	800,000	-0,061	-0,136
-214,782	800,000	0,005	0,011
-213,767	737,148	-0,014	0,028
-212,752	-1,763	0,140	0,072
-211,738	-200,000	0,008	-0,055
-210,723	176,470	0,015	0,016
-209,709	337,637	0,010	0,014
-208,694	-89,084	-0,092	-0,020
-207,679	718,438	0,035	-0,068
-206,665	19,138	-0,042	0,024
-205,650	442,365	0,097	0,156
-204,636	369,507	0,018	0,027
-203,621	513,090	0,031	0,054
-202,606	42,979	-0,061	-0,041
-201,592	800,000	0,069	-0,146
-200,577	254,974	-0,068	-0,085
-199,563	166,797	-0,070	-0,073
-198,548	-62,025	0,127	-0,038
-197,533	-200,000	0,009	0,074
-196,519	-200,000	0,006	0,098
-195,504	51,550	-0,088	-0,061
-194,490	-200,000	-0,006	0,161
-193,475	329,794	-0,028	0,040
-192,460	-96,391	-0,206	0,039
-191,446	-43,691	0,174	-0,064
-190,431	800,000	-0,023	0,069
-189,417	800,000	-0,060	0,143
-188,402	-200,000	0,010	-0,052
-187,387	-19,940	0,137	-0,061
-186,373	-63,978	-0,063	0,019
-185,358	800,000	0,037	0,097
-184,344	-20,139	0,126	0,056
-183,329	-103,899	-0,053	-0,009
-182,315	7,212	0,114	0,062
-181,300	-2,603	0,061	0,031
-180,285	-148,267	0,114	0,007
-179,271	160,962	0,074	0,075
-178,256	442,049	0,068	-0,109
-177,242	800,000	0,027	0,081
-176,227	191,851	-0,081	-0,089
-175,212	800,000	-0,012	0,039
-174,198	118,244	0,079	0,071
-173,183	-200,000	0,037	-0,175
-172,169	-83,169	-0,246	-0,057
-171,154	25,586	-0,043	-0,026
-170,139	30,234	0,050	-0,031
-169,125	-200,000	0,017	0,076
-168,110	-108,474	0,174	-0,027
-167,096	-200,000	-0,005	0,101
-166,081	88,423	0,162	0,131
-165,066	-91,308	0,026	-0,005
-164,052	-194,425	-0,064	-0,000
-163,037	-179,712	-0,018	0,000
-162,023	374,846	0,046	0,069
-161,008	-86,642	-0,217	0,048
-159,993	-200,000	0,012	0,058
-158,979	220,412	-0,019	0,023
-157,964	567,500	-0,012	-0,022
-156,950	-41,518	-0,084	0,031
-155,935	64,086	0,085	-0,062
-154,920	-200,000	0,018	0,113
-153,906	-109,456	0,067	-0,010
-152,891	745,379	0,094	0,185
-151,877	233,283	0,089	0,107
-150,862	390,898	-0,049	-0,074
-149,847	76,667	0,026	-0,020
-148,833	-188,957	-0,095	0,001
-147,818	-200,000	0,015	0,060
-146,804	190,509	0,064	0,070
-145,789	-10,535	0,087	-0,042
-144,775	-82,112	-0,119	0,028
-143,760	-200,000	0,006	0,110
-142,745	-200,000	0,019	-0,109
-141,731	-200,000	0,035	-0,154
-140,716	800,000	0,024	-0,062
-139,702	-82,214	0,060	-0,014
-138,687	93,556	-0,068	-0,056
-137,672	129,154	0,036	0,033
-136,658	-1,458	0,113	-0,058
-135,643	-59,920	-0,067	-0,021
-134,629	-154,891	-0,068	0,003
-133,614	126,186	0,092	-0,085
-132,599	-95,934	0,052	-0,010
-131,585	800,000	0,057	-0,150
-130,570	-119,079	-0,053	0,007
-129,556	-68,892	-0,077	0,021
-128,541	-53,123	0,067	-0,022
-127,526	-200,000	-0,019	0,162
-126,512	-46,406	0,103	0,037
-125,497	-200,000	0,006	0,046
-124,483	800,000	-0,023	0,069
-123,468	339,539	0,120	-0,170
-122,453	-93,421	-0,156	0,031
-121,439	-200,000	0,007	0,026
-120,424	-200,000	-0,006	-0,071
-119,410	-33,110	0,115	0,046
-118,395	523,225	-0,036	0,062
-117,380	-25,521	-0,140	0,060
-116,366	143,583	-0,076	0,073
-115,351	120,482	-0,118	-0,107
-114,337	-44,563	-0,069	0,025
-113,322	800,000	0,024	-0,064
-112,307	-200,000	0,014	0,095
-111,293	-102,102	0,077	-0,013
-110,278	201,527	0,038	0,042
-109,264	-200,000	0,001	0,038
-108,249	800,000	-0,022	0,057
-107,234	198,647	0,042	-0,046
-106,220	15,892	0,187	-0,107
-105,205	-200,000	-0,014	0,118
-104,191	-134,936	0,126	0,011
-103,176	333,743	0,051	0,071
-102,162	-200,000	0,003	0,112
-101,147	-200,000	0,102	-0,000
-100,132	-13,417	-0,110	0,052
-99,118	244,922	-0,064	-0,079
-98,103	162,435	0,034	-0,034
-97,089	133,757	0,052	0,049
-96,074	-200,000	-0,011	0,047
-95,059	103,027	0,035	0,030
-94,045	27,746	-0,112	0,068
-93,030	177,396	0,086	0,091
-92,016	133,834	-0,032	-0,030
-91,001	-200,000	0,009	0,028
-89,986	457,819	0,116	0,187
-88,972	735,381	-0,072	0,140
-87,957	-200,000	-0,007	-0,042
-86,943	122,844	0,064	0,058
-85,928	-200,000	-0,004	0,045
-84,913	-29,420	-0,085	-0,035
-83,899	687,159	0,046	0,088
-82,884	611,731	0,057	-0,104
-81,870	349,972	0,091	0,131
-80,855	800,000	0,007	0,016
-79,840	575,188	0,056	0,101
-78,826	-200,000	0,016	-0,088
-77,811	212,488	-0,099	0,114
-76,797	800,000	-0,033	-0,091
-75,782	-167,389	0,160	-0,005
-74,767	386,282	-0,032	0,049
-73,753	15,395	0,019	0,011
-72,738	298,546	0,040	0,054
-71,724	-200,000	-0,007	0,036
-70,709	438,944	-0,084	-0,134
-69,694	800,000	-0,050	-0,140
-68,680	30,219	0,037	-0,023
-67,665	-94,273	-0,064	-0,013
-66,651	297,067	0,053	-0,071
-65,636	800,000	0,038	-0,107
-64,622	120,565	-0,048	-0,043
-63,607	-200,000	0,020	-0,216
-62,592	800,000	-0,036	-0,093
-61,578	800,000	0,009	-0,019
-60,563	-200,000	0,007	0,104
-59,549	-158,910	0,041	0,002
-58,534	-166,783	-1,344	-0,039
-57,519	563,500	-0,824	-1,455
-56,505	-200,000	-0,929	-4,440
-55,490	76,194	0,479	-0,367
-54,476	800,000	4,931	11,950
-53,461	-200,000	13,646	253,323
-52,446	-200,000	689,842	2258,456
-51,432	590,392	1622,522	2916,297
-50,417	119,127	1634,970	1467,327
-49,403	73,109	1288,907	976,727
-48,388	38,017	1024,245	659,674
-47,373	24,292	981,769	587,177
-46,359	23,525	971,433	578,456
-45,344	22,553	967,049	572,646
-44,330	22,486	965,827	571,681
-43,315	22,368	964,424	570,442
-42,300	22,326	963,315	569,627
-41,286	22,321	962,485	569,098
-40,271	22,336	961,334	568,444
-39,257	22,335	960,367	567,845
-38,242	22,337	959,544	567,342
-37,227	22,366	958,674	566,899
-36,213	22,321	957,642	566,121
-35,198	22,272	957,000	565,559
-34,184	22,284	956,437	565,245
-33,169	22,315	955,380	564,699
-32,154	22,343	954,526	564,262
-31,140	22,364	953,632	563,778
-30,125	22,326	952,787	563,134
-29,111	22,322	952,032	562,651
-28,096	22,379	951,254	562,352
-27,082	22,313	950,664	561,770
-26,067	22,392	949,713	561,438
-25,052	22,314	949,204	560,865
-24,038	22,335	948,492	560,490
-23,023	22,333	948,126	560,245
-22,009	22,458	947,108	560,022
-20,994	22,433	946,511	559,567
-19,979	22,399	945,884	559,064
-18,965	22,374	945,186	558,551
-17,950	22,353	944,826	558,249
-16,936	22,308	943,950	557,566
-15,921	22,307	943,276	557,140
-14,906	22,242	942,629	556,529
-13,892	22,268	941,942	556,186
-12,877	22,274	941,258	555,779
-11,863	22,179	940,717	555,136
-10,848	22,227	940,324	555,035
-9,833	22,350	939,629	554,991
-8,819	22,357	939,006	554,623
-7,804	22,242	938,340	553,845
-6,790	22,238	937,953	553,581
-5,775	22,225	937,287	553,126
-4,760	22,257	936,708	552,863
-3,746	22,234	936,067	552,390
-2,731	22,038	935,539	551,435
-1,717	22,074	934,680	551,023
-0,702	22,036	934,012	550,487
0,313	21,818	933,403	550,271
1,327	25,023	931,475	559,165
2,342	34,812	795,945	503,879
3,356	32,909	451,706	283,061
4,371	1,820	294,037	153,214
5,386	-2,533	274,884	139,100
6,400	-4,230	269,039	134,555
7,415	-4,840	266,625	132,774
8,429	-4,314	265,330	132,599
9,444	-4,603	264,673	131,995
10,459	-4,221	263,744	131,867
11,473	-4,744	263,394	131,205
12,488	-4,629	262,635	130,920
13,502	-4,768	262,317	130,624
14,517	-4,745	261,856	130,404
15,531	-4,743	261,502	130,217
16,546	-4,540	260,990	130,133
17,561	-4,564	260,699	129,955
18,575	-4,488	260,457	129,891
19,590	-4,745	260,141	129,492
20,604	-4,713	259,720	129,299
21,619	-4,639	259,456	129,223
22,634	-4,479	259,098	129,176
23,648	-4,755	258,847	128,792
24,663	-4,914	258,550	128,491
25,677	-4,671	258,299	128,572
26,692	-4,836	257,978	128,254
27,707	-4,758	257,807	128,227
28,721	-4,850	257,522	127,992
29,736	-4,825	257,201	127,843
30,750	-4,745	257,011	127,808
31,765	-4,863	256,928	127,651
32,780	-4,891	256,584	127,444
33,794	-4,908	256,308	127,281
34,809	-4,817	256,105	127,249
35,823	-4,788	255,766	127,094
36,838	-4,820	255,679	127,011
37,853	-4,602	255,174	126,941
38,867	-4,911	255,087	126,615
39,882	-4,885	254,916	126,542
40,896	-4,740	254,765	126,582
41,911	-4,708	254,346	126,391
42,926	-4,842	254,213	126,197
43,940	-4,925	254,031	126,022
44,955	-5,041	253,704	125,747
45,969	-5,032	253,576	125,681
46,984	-5,200	253,211	125,342
47,999	-5,359	252,977	125,077
49,013	-5,497	252,782	124,849
50,028	-5,496	252,434	124,667
51,042	-5,615	252,088	124,382
52,057	-5,728	251,884	124,172
53,071	-5,542	251,688	124,226
54,086	-5,617	251,611	124,112
55,101	-5,365	251,595	124,311
56,115	-5,129	251,368	124,391
57,130	-4,679	251,264	124,718
58,144	-4,407	251,082	124,851
59,159	-4,533	251,048	124,714
60,174	-4,564	250,800	124,553
61,188	-4,707	250,623	124,331
62,203	-4,673	250,399	124,238
63,217	-4,707	250,187	124,092
64,232	-4,792	249,994	123,912
65,247	-4,301	249,625	124,140
66,261	-4,632	249,455	123,761
67,276	-4,837	249,240	123,468
68,290	-5,033	248,840	123,091
69,305	-5,258	248,643	122,790
70,320	-5,247	248,685	122,809
71,334	-4,856	248,396	122,989
72,349	-4,654	248,366	123,136
73,363	-4,621	248,199	123,069
74,378	-4,640	247,973	122,931
75,393	-4,636	247,696	122,786
76,407	-4,699	247,583	122,666
77,422	-4,578	247,330	122,631
78,436	-4,635	247,084	122,450
79,451	-4,501	246,807	122,415
80,466	-4,700	246,653	122,160
81,480	-4,982	246,403	121,787
82,495	-4,843	246,180	121,784
83,509	-4,734	245,929	121,740
84,524	-5,092	245,971	121,448
85,539	-5,109	245,695	121,287
86,553	-5,253	245,664	121,140
87,568	-4,978	245,155	121,109
88,582	-4,988	245,074	121,049
89,597	-4,945	244,822	120,950
90,611	-4,804	244,819	121,057
91,626	-4,842	244,667	120,939
92,641	-4,633	244,397	120,970
93,655	-4,781	244,167	120,721
94,670	-4,786	244,025	120,636
95,684	-4,907	243,797	120,411
96,699	-4,804	243,761	120,468
97,714	-5,084	243,491	120,091
98,728	-5,087	243,262	119,965
99,743	-5,075	243,028	119,849
100,757	-5,339	242,814	119,513
101,772	-5,008	242,585	119,664
102,787	-4,874	242,502	119,725
103,801	-4,910	242,221	119,545
104,816	-4,913	242,280	119,561
105,830	-4,754	242,078	119,582
106,845	-4,539	241,761	119,593
107,860	-4,780	241,703	119,354
108,874	-4,846	241,328	119,104
109,889	-5,021	241,185	118,879
110,903	-4,899	241,064	118,908
111,918	-4,997	240,702	118,639
112,933	-5,040	240,837	118,659
113,947	-4,711	240,648	118,826
114,962	-4,524	240,428	118,861
115,976	-4,759	240,324	118,606
116,991	-4,829	240,052	118,404
118,006	-4,886	239,918	118,281
119,020	-4,716	239,761	118,331
120,035	-4,706	239,742	118,320
121,049	-4,823	239,546	118,117
122,064	-4,813	239,310	117,998
123,079	-4,849	239,072	117,840
124,093	-4,745	238,831	117,797
125,108	-5,060	238,588	117,409
126,122	-5,224	238,468	117,206
127,137	-5,224	238,199	117,063
128,151	-5,243	238,184	117,030
129,166	-5,047	238,055	117,115
130,181	-4,926	237,614	116,987
131,195	-5,033	237,579	116,872
132,210	-5,038	237,509	116,823
133,224	-4,948	237,336	116,801
134,239	-4,937	237,204	116,734
135,254	-4,951	237,017	116,620
136,268	-5,040	236,884	116,473
137,283	-5,066	236,440	116,223
138,297	-5,354	236,348	115,935
139,312	-5,320	236,222	115,890
140,327	-4,841	236,072	116,192
141,341	-4,655	236,100	116,346
142,356	-4,540	236,028	116,392
143,370	-4,498	235,699	116,253
144,385	-4,541	235,579	116,149
145,400	-4,408	235,489	116,202
146,414	-4,355	235,175	116,079
147,429	-4,582	235,160	115,879
148,443	-4,368	234,867	115,896
149,458	-4,446	234,761	115,771
150,473	-4,603	234,584	115,547
151,487	-4,684	234,467	115,415
152,502	-4,480	234,139	115,406
153,516	-4,395	234,090	115,439
154,531	-4,467	234,086	115,369
155,546	-4,417	233,688	115,203
156,560	-4,526	233,394	114,961
157,575	-4,684	233,342	114,799
158,589	-4,704	233,214	114,710
159,604	-4,408	233,059	114,859
160,619	-4,384	232,980	114,828
161,633	-4,370	232,669	114,676
162,648	-4,393	232,572	114,600
163,662	-4,418	232,428	114,499
164,677	-4,598	232,204	114,236
165,692	-4,316	232,151	114,423
166,706	-4,316	232,042	114,359
167,721	-4,525	231,957	114,142
168,735	-4,198	231,754	114,289
169,750	-4,290	231,646	114,154
170,764	-4,523	231,429	113,852
171,779	-4,303	231,373	113,988
172,794	-4,379	231,133	113,800
173,808	-4,494	230,849	113,559
174,823	-5,057	230,545	112,959
175,837	-5,247	230,466	112,761
176,852	-4,643	230,397	113,190
177,867	-4,426	230,233	113,269
178,881	-4,310	230,193	113,330
179,896	-4,190	229,958	113,298
180,910	-4,237	229,811	113,179
181,925	-4,297	229,796	113,115
182,940	-4,306	229,544	112,974
183,954	-4,233	229,476	112,987
184,969	-4,317	229,228	112,789
185,983	-4,449	229,255	112,690
186,998	-4,134	228,998	112,799
188,013	-4,224	228,853	112,647
189,027	-4,189	228,698	112,588
190,042	-3,968	228,513	112,659
191,056	-4,099	228,282	112,433
192,071	-4,244	228,264	112,302
193,086	-4,186	227,936	112,175
194,100	-4,166	227,917	112,171
195,115	-4,456	227,490	111,727
196,129	-5,412	227,296	110,884
197,144	-2,258	228,379	113,847
198,159	1,984	229,486	117,686
199,173	4,000	230,063	119,538
200,188	4,281	229,947	119,685
201,202	4,525	229,717	119,744
202,217	4,543	229,659	119,717
203,232	4,673	229,414	119,679
204,246	4,915	229,296	119,794
205,261	4,576	229,194	119,468
206,275	5,143	229,190	119,893
207,290	5,143	228,904	119,733
208,304	5,126	228,883	119,699
209,319	4,786	228,723	119,342
210,334	4,987	228,344	119,288
211,348	4,731	228,190	119,000
212,363	4,310	228,017	118,576
213,377	4,215	227,701	118,328
214,392	4,000	227,671	118,137
215,407	4,409	227,465	118,333
216,421	4,534	227,337	118,352
217,436	4,182	227,032	117,913
218,450	3,928	226,990	117,686
219,465	3,852	226,739	117,488
220,480	3,982	226,718	117,565
221,494	3,858	226,620	117,410
222,509	4,119	226,352	117,460
223,523	4,018	226,324	117,357
224,538	3,845	226,156	117,128
225,553	4,031	225,892	117,122
226,567	4,278	225,865	117,286
227,582	4,485	225,700	117,347
228,596	4,319	225,806	117,265
229,611	4,172	225,364	116,914
230,626	4,021	225,308	116,760
231,640	4,101	225,179	116,743
232,655	4,223	225,012	116,739
233,669	4,760	224,965	117,111
234,684	4,798	224,866	117,078
235,699	4,507	224,675	116,748
236,713	4,494	224,360	116,563
237,728	4,187	224,097	116,185
238,742	3,779	224,042	115,838
239,757	4,235	223,872	116,084
240,772	4,101	223,724	115,896
241,786	3,960	223,495	115,660
242,801	4,371	223,489	115,956
243,815	4,378	223,466	115,939
244,830	4,636	223,197	115,983
245,844	4,269	223,172	115,684
246,859	4,154	223,028	115,513
247,874	4,520	222,834	115,677
248,888	4,469	222,723	115,570
249,903	4,133	222,604	115,247
250,917	4,202	222,314	115,138
251,932	4,212	222,188	115,070
252,947	4,231	222,025	114,990
253,961	4,008	221,882	114,739
254,976	4,056	221,703	114,672
255,990	4,544	221,471	114,905
257,005	4,240	221,523	114,695
258,020	4,284	221,436	114,673
259,034	4,834	221,272	114,986
260,049	4,210	221,130	114,439
261,063	4,261	220,958	114,378
262,078	4,462	221,004	114,540
263,093	4,638	220,625	114,464
264,107	4,388	220,567	114,239
265,122	4,456	220,398	114,191
266,136	4,899	220,288	114,452
267,151	4,704	220,124	114,212
268,166	3,981	220,006	113,607
269,180	3,844	219,747	113,362
270,195	3,883	219,633	113,322
271,209	4,006	219,414	113,289
272,224	4,032	219,347	113,263
273,239	4,149	219,262	113,296
274,253	3,917	219,090	113,027
275,268	3,972	218,898	112,958
276,282	3,846	218,610	112,706
277,297	3,745	218,612	112,624
278,312	4,012	218,447	112,723
279,326	4,208	218,318	112,791
280,341	3,821	218,307	112,492
281,355	4,044	218,200	112,590
282,370	3,719	218,133	112,308
283,384	3,978	217,646	112,236
284,399	3,866	217,648	112,145
285,414	3,990	217,458	112,128
286,428	3,903	217,442	112,046
287,443	4,079	217,268	112,074
288,457	4,127	217,191	112,059
289,472	4,181	216,987	111,984
290,487	3,695	216,710	111,478
291,501	3,880	216,567	111,529
292,516	3,837	216,413	111,408
293,530	3,858	216,437	111,425
294,545	3,942	216,197	111,353
295,560	3,998	216,173	111,371
296,574	3,871	216,045	111,203
297,589	4,041	215,789	111,185
298,603	4,165	215,727	111,233
299,618	4,271	215,527	111,196
300,633	4,347	215,433	111,192
301,647	4,275	215,359	111,092
302,662	4,300	215,329	111,085
303,676	4,229	215,124	110,918
304,691	4,199	214,983	110,814
305,706	4,277	214,826	110,779
306,720	4,562	214,637	110,876
307,735	4,110	214,637	110,542
308,749	4,035	214,374	110,343
309,764	4,038	214,272	110,283
310,779	4,238	214,105	110,330
311,793	4,260	213,959	110,261
312,808	4,099	213,846	110,077
313,822	4,001	213,636	109,890
314,837	4,066	213,494	109,853
315,852	3,955	213,310	109,669
316,866	4,110	213,221	109,725
317,881	4,314	213,146	109,822
318,895	4,299	213,072	109,763
319,910	4,155	212,786	109,503
320,925	3,868	212,732	109,262
321,939	3,623	212,410	108,913
322,954	3,913	212,242	109,023
323,968	4,106	212,236	109,146
324,983	4,248	212,209	109,224
325,997	4,202	212,215	109,185
327,012	4,080	211,904	108,928
328,027	4,175	211,700	108,881
329,041	4,384	211,791	109,065
330,056	4,579	211,673	109,133
331,070	4,221	211,275	108,666
332,085	4,057	211,037	108,418
333,100	4,058	210,978	108,378
334,114	4,064	210,958	108,363
335,129	4,215	210,639	108,296
336,143	3,840	210,567	107,985
337,158	3,867	210,450	107,935
338,173	4,134	210,298	108,035
339,187	3,762	210,293	107,761
340,202	3,577	210,149	107,548
341,216	3,620	209,944	107,464
342,231	3,940	209,795	107,602
343,246	3,835	209,674	107,457
344,260	4,047	209,706	107,612
345,275	4,029	209,570	107,520
346,289	4,072	209,386	107,446
347,304	4,136	209,267	107,420
348,319	4,347	209,019	107,430
349,333	3,725	208,979	106,967
350,348	3,862	208,868	106,996
351,362	4,468	208,793	107,369
352,377	4,183	208,638	107,082
353,392	4,044	208,503	106,906
354,406	3,967	208,336	106,758
355,421	193,398	1347,712	1434,961
356,435	154,276	1486,641	1435,090
