DTS Sentinel unit serial number:	SN410029Multiplexer serial number:	ORYXHardware model number:	OX2-SRSoftware version number:	ORYX F/W v4,00 Oryx Data Collector v3.7.2.0data status	okinstallation	B6 Nyhavnadifferential loss correction	single-endedforward channel	channel 2reverse channel	N/Adate	2023/12/09time	17:50:08forward acquisition time	300,00reverse acquisition time	0,00gamma	499,1914k internal	0,3130k external	0,3130temperature offset calibration	1,0000default loss term (dB/km)	0,3820temperature slope calibration	1,0000multiplexer offset coefficient	1,0000multiplexer slope coefficient	1,0000fibre end	0,00T internal ref (°C)	21,01T ext. ref 1 (°C)	4,76T ext. ref 2 (°C)	4,76length (m)	temperature (°C)	Stokes	anti-Stokes-744,400	800,000	-0,039	-0,121
-743,385	-62,738	-0,194	0,059
-742,371	-115,722	0,059	-0,008
-741,356	136,723	-0,221	0,215
-740,342	83,953	0,025	0,020
-739,327	146,922	-0,107	0,107
-738,312	-200,000	0,008	-0,065
-737,298	-46,130	-0,152	-0,055
-736,283	-69,642	0,066	-0,019
-735,269	57,303	-0,246	0,178
-734,254	60,777	-0,015	-0,011
-733,239	-116,478	-0,458	-0,062
-732,225	-149,599	0,265	-0,015
-731,210	800,000	-0,082	0,177
-730,196	-136,951	-0,032	-0,003
-729,181	-200,000	-0,002	0,023
-728,167	-200,000	0,002	-0,094
-727,152	178,061	-0,083	0,090
-726,137	800,000	-0,033	-0,096
-725,123	-48,134	-0,067	0,024
-724,108	-200,000	0,007	-0,064
-723,094	62,301	-0,044	0,033
-722,079	-200,000	0,007	-0,073
-721,064	569,919	0,019	0,035
-720,050	-179,498	-0,055	0,001
-719,035	453,808	-0,059	-0,097
-718,021	646,322	-0,075	-0,143
-717,006	-97,305	0,087	0,017
-715,991	800,000	-0,019	0,046
-714,977	74,353	-0,101	0,079
-713,962	-146,810	0,127	-0,008
-712,948	-200,000	-0,025	-0,114
-711,933	-53,542	0,122	-0,041
-710,918	-72,480	-0,266	0,073
-709,904	228,120	-0,094	0,114
-708,889	542,153	0,050	-0,088
-707,875	800,000	-0,076	-0,184
-706,860	57,836	-0,038	0,027
-705,845	-200,000	0,012	0,064
-704,831	247,254	0,135	0,170
-703,816	-119,108	-0,182	-0,023
-702,802	29,143	0,027	0,017
-701,787	27,994	-0,031	0,019
-700,772	-138,197	-0,106	-0,009
-699,758	39,076	0,049	-0,032
-698,743	-121,800	-0,083	0,010
-697,729	638,345	-0,055	-0,104
-696,714	800,000	0,022	0,070
-695,699	800,000	0,011	0,025
-694,685	-200,000	-0,050	-0,177
-693,670	-112,257	0,139	-0,021
-692,656	-64,699	0,098	0,029
-691,641	-139,682	0,069	0,005
-690,627	188,416	-0,124	-0,137
-689,612	674,039	0,078	0,150
-688,597	-200,000	0,000	-0,049
-687,583	-200,000	-0,016	-0,111
-686,568	133,322	0,083	0,080
-685,554	800,000	0,001	-0,003
-684,539	-35,604	0,085	0,034
-683,524	3,774	-0,049	-0,026
-682,510	-166,783	-0,178	-0,005
-681,495	284,671	0,036	-0,048
-680,481	74,522	-0,085	-0,066
-679,466	-0,668	-0,055	0,029
-678,451	-200,000	0,011	-0,092
-677,437	270,650	0,028	-0,036
-676,422	-200,000	-0,021	0,147
-675,408	800,000	-0,015	0,033
-674,393	60,025	0,087	0,064
-673,378	-1,606	-0,032	-0,017
-672,364	-116,729	-0,170	-0,023
-671,349	800,000	-0,047	-0,126
-670,335	155,607	-0,105	0,107
-669,320	7,662	0,167	0,093
-668,305	-146,761	-0,049	0,003
-667,291	216,502	-0,111	-0,131
-666,276	-130,021	0,087	-0,009
-665,262	-200,000	-0,001	-0,107
-664,247	262,501	-0,042	-0,054
-663,232	387,684	-0,086	-0,132
-662,218	800,000	-0,039	0,096
-661,203	-147,301	0,080	0,005
-660,189	82,257	0,051	-0,041
-659,174	-200,000	0,008	0,038
-658,159	-200,000	-0,004	-0,051
-657,145	286,684	0,049	-0,065
-656,130	-18,150	-0,180	-0,083
-655,116	55,526	0,071	0,051
-654,101	0,575	0,071	0,038
-653,086	-59,865	-0,088	-0,028
-652,072	-109,655	-0,055	0,008
-651,057	540,846	-0,041	-0,073
-650,043	-200,000	0,012	-0,051
-649,028	-200,000	-0,003	-0,141
-648,014	-68,639	-0,052	-0,015
-646,999	-200,000	0,003	0,056
-645,984	800,000	-0,045	-0,129
-644,970	-52,854	-0,116	-0,039
-643,955	280,784	0,025	-0,033
-642,941	-200,000	0,002	-0,011
-641,926	261,549	-0,031	-0,039
-640,911	-61,871	-0,128	0,039
-639,897	800,000	-0,030	0,079
-638,882	120,535	0,074	0,068
-637,868	-82,749	-0,061	-0,014
-636,853	205,362	-0,116	-0,134
-635,838	-200,000	-0,005	-0,077
-634,824	24,895	-0,090	-0,055
-633,809	800,000	0,012	0,039
-632,795	-111,566	-0,093	0,014
-631,780	216,518	0,141	0,166
-630,765	210,330	-0,065	-0,075
-629,751	-63,030	-0,104	-0,032
-628,736	800,000	0,023	-0,052
-627,722	-2,240	0,009	-0,004
-626,707	-67,455	0,246	0,071
-625,692	-200,000	-0,010	0,076
-624,678	800,000	-0,007	0,023
-623,663	190,113	0,038	0,042
-622,649	370,927	-0,005	-0,008
-621,634	-132,517	-0,123	-0,012
-620,619	800,000	-0,057	-0,132
-619,605	37,872	0,041	-0,027
-618,590	143,618	0,092	0,090
-617,576	146,686	-0,033	0,033
-616,561	776,518	0,028	0,056
-615,546	-200,000	-0,001	0,067
-614,532	800,000	-0,080	-0,189
-613,517	-200,000	0,014	-0,075
-612,503	-139,914	0,109	-0,008
-611,488	633,370	0,030	0,056
-610,474	-200,000	0,020	0,083
-609,459	-74,147	0,027	0,007
-608,444	44,642	-0,011	-0,008
-607,430	-200,000	-0,010	-0,167
-606,415	800,000	-0,076	-0,193
-605,401	88,791	0,087	-0,072
-604,386	327,258	0,027	0,038
-603,371	-47,457	-0,038	-0,014
-602,357	800,000	0,012	-0,038
-601,342	-38,799	-0,024	-0,009
-600,328	-200,000	0,012	-0,128
-599,313	-69,653	0,117	0,033
-598,298	800,000	0,089	0,228
-597,284	-31,110	-0,088	0,037
-596,269	296,129	0,036	0,048
-595,255	494,987	-0,008	-0,014
-594,240	145,553	-0,040	0,040
-593,225	479,536	-0,060	-0,101
-592,211	305,694	-0,098	-0,135
-591,196	24,720	0,004	-0,003
-590,182	364,786	-0,059	0,088
-589,167	159,448	0,031	-0,032
-588,152	-200,000	-0,012	-0,047
-587,138	800,000	-0,049	-0,143
-586,123	-33,306	0,037	-0,015
-585,109	-31,283	-0,075	-0,031
-584,094	-200,000	-0,007	0,125
-583,079	800,000	-0,062	0,166
-582,065	279,569	-0,013	-0,017
-581,050	34,452	-0,100	0,065
-580,036	-42,138	-0,084	-0,032
-579,021	-128,762	-0,047	0,005
-578,006	453,788	-0,040	-0,065
-576,992	95,218	-0,028	-0,023
-575,977	103,471	0,124	0,107
-574,963	181,416	-0,064	-0,070
-573,948	427,225	0,082	0,131
-572,934	800,000	-0,074	0,155
-571,919	117,422	-0,049	0,044
-570,904	800,000	0,014	0,031
-569,890	123,979	0,112	-0,104
-568,875	172,206	0,091	-0,097
-567,861	-200,000	0,004	0,058
-566,846	800,000	-0,067	0,144
-565,831	800,000	-0,041	-0,132
-564,817	66,996	-0,068	-0,051
-563,802	-200,000	0,016	-0,081
-562,788	531,682	-0,086	0,150
-561,773	280,576	0,017	-0,023
-560,758	800,000	-0,038	-0,113
-559,744	231,921	0,058	-0,070
-558,729	-200,000	0,032	0,121
-557,715	800,000	-0,041	0,098
-556,700	123,598	-0,096	-0,089
-555,685	-200,000	-0,019	0,098
-554,671	-196,590	0,059	0,000
-553,656	-38,193	0,024	-0,009
-552,642	238,032	-0,048	0,059
-551,627	-78,200	0,075	-0,019
-550,612	-94,229	-0,128	0,026
-549,598	143,963	-0,110	-0,108
-548,583	-92,250	-0,058	0,012
-547,569	-139,717	0,025	-0,002
-546,554	800,000	0,013	-0,029
-545,539	272,495	-0,058	0,076
-544,525	-150,464	-0,169	-0,009
-543,510	245,503	0,070	-0,087
-542,496	-200,000	-0,040	-0,167
-541,481	-71,931	0,144	0,039
-540,466	-76,882	0,149	-0,038
-539,452	84,282	-0,014	-0,011
-538,437	130,826	-0,052	-0,049
-537,423	-200,000	-0,001	-0,069
-536,408	786,872	0,060	0,122
-535,393	-200,000	-0,016	-0,131
-534,379	209,791	-0,042	-0,048
-533,364	800,000	-0,041	0,093
-532,350	20,676	0,056	0,033
-531,335	-4,997	0,142	-0,072
-530,321	64,832	0,047	-0,035
-529,306	73,213	0,094	0,072
-528,291	637,487	-0,034	-0,064
-527,277	-200,000	-0,027	-0,138
-526,262	-200,000	-0,012	-0,144
-525,248	-24,039	0,124	-0,055
-524,233	-141,582	0,118	-0,009
-523,218	-200,000	-0,000	-0,011
-522,204	87,814	-0,083	0,068
-521,189	293,898	-0,054	0,072
-520,175	40,833	-0,094	-0,063
-519,160	-103,552	0,048	-0,008
-518,145	-154,396	0,165	-0,008
-517,131	55,823	0,062	0,044
-516,116	800,000	0,039	-0,098
-515,102	-200,000	-0,006	-0,046
-514,087	-105,840	0,092	0,015
-513,072	-200,000	0,001	-0,128
-512,058	79,269	0,018	-0,014
-511,043	96,582	0,072	0,061
-510,029	-200,000	0,006	-0,039
-509,014	180,723	-0,075	0,081
-507,999	-55,837	0,134	0,044
-506,985	324,150	-0,058	0,082
-505,970	43,930	-0,113	-0,076
-504,956	-145,406	0,121	0,008
-503,941	-14,953	0,030	-0,014
-502,926	559,874	0,030	0,054
-501,912	-29,296	0,096	0,040
-500,897	125,775	-0,058	-0,054
-499,883	202,378	-0,027	-0,030
-498,868	-28,631	-0,137	-0,058
-497,853	610,207	0,065	0,120
-496,839	492,328	0,032	0,054
-495,824	51,454	0,107	0,075
-494,810	183,364	0,067	0,073
-493,795	-200,000	-0,012	-0,043
-492,781	-166,080	-0,109	0,003
-491,766	-19,556	0,063	-0,028
-490,751	267,349	-0,050	-0,064
-489,737	-200,000	-0,023	-0,099
-488,722	-174,740	0,137	-0,003
-487,708	-63,532	0,111	0,033
-486,693	570,554	-0,032	-0,057
-485,678	755,497	-0,042	0,083
-484,664	41,349	-0,085	0,057
-483,649	179,002	-0,085	-0,092
-482,635	282,470	-0,059	-0,078
-481,620	44,779	-0,026	-0,018
-480,605	-200,000	0,031	-0,144
-479,591	591,408	-0,021	-0,038
-478,576	-3,796	-0,100	-0,051
-477,562	-200,000	0,005	0,032
-476,547	-128,839	0,123	-0,013
-475,532	137,273	0,022	-0,021
-474,518	-147,087	-0,061	-0,004
-473,503	-74,650	0,098	0,026
-472,489	4,527	0,101	0,054
-471,474	263,363	0,041	0,052
-470,459	800,000	-0,031	0,070
-469,445	70,227	0,058	0,044
-468,430	-1,296	-0,028	-0,015
-467,416	67,632	0,066	0,049
-466,401	371,425	0,053	0,079
-465,386	1,589	0,076	0,040
-464,372	-49,646	-0,089	-0,031
-463,357	-200,000	-0,002	0,057
-462,343	-5,431	-0,029	0,015
-461,328	-15,242	0,078	-0,037
-460,313	-153,620	0,186	-0,009
-459,299	-177,378	0,069	-0,001
-458,284	587,006	0,027	-0,050
-457,270	129,931	0,073	-0,068
-456,255	93,564	-0,088	-0,073
-455,241	-200,000	0,012	-0,167
-454,226	-107,430	0,036	-0,006
-453,211	141,302	0,039	-0,038
-452,197	-97,464	0,080	-0,015
-451,182	-42,317	0,109	0,041
-450,168	-171,877	-0,074	0,002
-449,153	1,128	0,097	-0,051
-448,138	-46,617	0,117	-0,042
-447,124	-200,000	-0,015	0,083
-446,109	-70,942	-0,102	-0,028
-445,095	-77,180	0,095	-0,024
-444,080	-200,000	-0,002	-0,016
-443,065	532,689	0,040	-0,070
-442,051	127,658	-0,066	0,062
-441,036	297,188	-0,052	-0,070
-440,022	-200,000	0,004	0,090
-439,007	364,213	0,056	-0,083
-437,992	66,743	0,095	0,071
-436,978	-200,000	-0,005	0,065
-435,963	84,933	0,107	0,086
-434,949	-127,586	0,094	-0,010
-433,934	241,136	-0,083	-0,102
-432,919	403,868	-0,084	0,130
-431,905	137,709	-0,122	0,117
-430,890	5,810	0,177	0,096
-429,876	192,847	-0,064	-0,071
-428,861	273,487	0,022	0,029
-427,846	92,176	-0,139	-0,115
-426,832	-200,000	0,020	-0,075
-425,817	-200,000	-0,007	0,035
-424,803	76,360	0,053	0,041
-423,788	782,644	0,030	0,061
-422,773	-12,285	-0,101	-0,049
-421,759	252,682	-0,052	-0,065
-420,744	-122,896	-0,022	0,003
-419,730	49,243	-0,184	-0,127
-418,715	-200,000	0,035	-0,153
-417,701	-200,000	-0,007	-0,043
-416,686	242,344	0,081	-0,100
-415,671	-154,118	0,088	0,004
-414,657	-76,690	0,008	-0,002
-413,642	37,116	-0,096	-0,063
-412,628	800,000	-0,035	0,103
-411,613	-93,107	0,108	-0,022
-410,598	60,489	-0,085	-0,062
-409,584	-57,701	-0,049	-0,016
-408,569	-155,133	0,109	0,005
-407,555	-125,175	-0,078	-0,009
-406,540	-14,226	-0,057	-0,027
-405,525	-200,000	-0,014	-0,088
-404,511	80,850	-0,161	-0,127
-403,496	329,313	-0,038	0,054
-402,482	-72,821	-0,102	0,027
-401,467	800,000	-0,023	0,066
-400,452	-130,263	0,095	0,009
-399,438	-200,000	0,007	0,090
-398,423	-53,623	0,027	0,009
-397,409	333,557	0,113	-0,160
-396,394	-34,587	-0,033	-0,013
-395,379	-140,115	0,143	-0,011
-394,365	457,219	0,037	0,061
-393,350	-86,194	0,069	-0,016
-392,336	800,000	-0,015	0,044
-391,321	-200,000	-0,031	-0,158
-390,306	670,708	0,057	-0,109
-389,292	-200,000	0,034	-0,130
-388,277	-23,332	-0,025	-0,011
-387,263	40,626	0,081	-0,053
-386,248	800,000	0,044	0,096
-385,233	340,504	0,088	0,127
-384,219	-200,000	-0,017	0,089
-383,204	-78,681	-0,039	0,010
-382,190	11,746	-0,092	0,052
-381,175	56,297	-0,074	0,053
-380,160	263,589	-0,058	-0,074
-379,146	-200,000	0,005	-0,050
-378,131	49,271	-0,113	-0,078
-377,117	-7,365	0,103	-0,051
-376,102	-200,000	-0,011	-0,108
-375,088	-28,800	-0,066	-0,028
-374,073	-83,088	-0,074	0,017
-373,058	81,015	0,071	0,056
-372,044	130,472	0,012	-0,011
-371,029	-125,344	-0,062	-0,007
-370,015	-35,456	0,216	0,085
-369,000	-149,349	0,081	-0,005
-367,985	-200,000	0,017	0,088
-366,971	372,177	-0,062	0,092
-365,956	-88,531	0,064	0,014
-364,942	641,665	0,096	0,180
-363,927	-200,000	-0,013	0,106
-362,912	-200,000	-0,012	0,063
-361,898	-43,418	0,167	-0,061
-360,883	-42,677	-0,105	-0,039
-359,869	-114,353	-0,031	0,004
-358,854	-16,660	0,073	0,034
-357,839	117,306	-0,022	-0,019
-356,825	800,000	-0,061	0,127
-355,810	-200,000	0,017	0,088
-354,796	291,159	-0,046	0,061
-353,781	11,608	-0,142	0,079
-352,766	-200,000	-0,027	-0,122
-351,752	-116,913	0,103	-0,014
-350,737	389,690	0,038	-0,058
-349,723	500,369	0,100	-0,170
-348,708	-64,583	0,086	0,025
-347,693	303,155	0,039	-0,053
-346,679	7,557	-0,089	-0,049
-345,664	800,000	0,028	-0,075
-344,650	198,666	-0,063	-0,071
-343,635	217,418	-0,065	0,076
-342,620	117,483	-0,050	-0,045
-341,606	-200,000	0,004	0,059
-340,591	275,618	0,030	0,038
-339,577	-200,000	-0,010	0,171
-338,562	-66,440	-0,124	-0,036
-337,548	800,000	0,053	-0,111
-336,533	304,697	0,075	-0,102
-335,518	800,000	0,033	0,081
-334,504	43,500	0,084	0,056
-333,489	-7,803	0,055	0,027
-332,475	800,000	-0,037	-0,110
-331,460	-41,491	-0,177	-0,066
-330,445	56,019	-0,035	-0,025
-329,431	-200,000	0,009	-0,146
-328,416	-148,843	-0,089	-0,005
-327,402	-19,389	-0,078	0,035
-326,387	466,856	0,026	-0,043
-325,372	71,792	-0,033	-0,025
-324,358	800,000	0,021	-0,049
-323,343	800,000	-0,045	-0,135
-322,329	-57,672	-0,138	-0,044
-321,314	207,614	0,031	0,036
-320,299	800,000	0,035	0,075
-319,285	-0,326	-0,172	0,089
-318,270	4,890	0,163	0,087
-317,256	-200,000	0,008	0,049
-316,241	441,894	0,006	-0,010
-315,226	208,472	-0,081	0,092
-314,212	-128,617	0,069	-0,007
-313,197	-200,000	-0,007	0,064
-312,183	800,000	0,014	0,040
-311,168	-35,043	0,107	-0,042
-310,153	-200,000	0,021	-0,151
-309,139	-52,708	-0,069	-0,023
-308,124	800,000	0,027	0,064
-307,110	309,777	0,057	0,078
-306,095	16,913	0,036	-0,021
-305,080	228,703	0,067	0,080
-304,066	144,486	-0,043	0,042
-303,051	190,313	0,019	0,021
-302,037	-35,202	-0,079	-0,031
-301,022	-115,318	0,121	0,016
-300,008	-200,000	0,015	0,114
-298,993	-109,184	-0,152	0,023
-297,978	56,384	0,030	0,021
-296,964	18,668	-0,114	-0,067
-295,949	-200,000	-0,015	-0,117
-294,935	800,000	-0,039	-0,096
-293,920	62,419	0,008	-0,006
-292,905	-137,908	0,083	0,007
-291,891	36,120	0,051	0,033
-290,876	296,806	-0,026	0,034
-289,862	-30,752	-0,045	0,018
-288,847	-200,000	0,009	-0,034
-287,832	-200,000	0,022	0,096
-286,818	8,016	-0,060	-0,033
-285,803	-151,528	0,093	-0,005
-284,789	169,558	0,069	-0,072
-283,774	285,863	0,096	0,127
-282,759	285,836	-0,057	-0,075
-281,745	-200,000	0,021	0,122
-280,730	-200,000	-0,021	0,091
-279,716	79,891	0,112	0,088
-278,701	-79,947	-0,056	0,014
-277,686	800,000	0,091	0,217
-276,672	173,567	-0,123	0,130
-275,657	-200,000	-0,004	0,072
-274,643	-200,000	-0,034	-0,112
-273,628	93,402	-0,075	-0,062
-272,613	-200,000	-0,000	0,064
-271,599	79,512	0,142	-0,112
-270,584	-83,476	0,077	0,018
-269,570	-44,883	-0,122	0,044
-268,555	-97,108	-0,093	0,018
-267,540	-146,450	0,033	-0,002
-266,526	-200,000	-0,027	-0,090
-265,511	389,154	0,077	-0,117
-264,497	239,964	0,065	-0,079
-263,482	-61,928	-0,036	-0,011
-262,467	-94,517	0,110	-0,022
-261,453	-87,669	0,035	-0,008
-260,438	-200,000	-0,015	-0,132
-259,424	-102,945	-0,133	0,023
-258,409	-142,763	0,016	-0,001
-257,395	89,843	-0,068	0,056
-256,380	-97,694	0,011	0,002
-255,365	697,551	0,084	0,161
-254,351	-165,940	0,161	0,005
-253,336	-45,796	-0,160	0,057
-252,322	-200,000	-0,018	0,077
-251,307	172,874	0,028	0,030
-250,292	-200,000	-0,039	0,172
-249,278	800,000	-0,034	0,078
-248,263	-30,003	0,133	0,055
-247,249	-67,753	0,152	0,043
-246,234	205,564	-0,067	-0,076
-245,219	-51,025	-0,109	-0,037
-244,205	401,059	-0,050	-0,077
-243,190	166,933	-0,038	0,040
-242,176	139,725	0,081	0,078
-241,161	92,647	0,071	0,058
-240,146	800,000	-0,022	-0,069
-239,132	-200,000	0,003	-0,011
-238,117	800,000	-0,062	0,131
-237,103	21,525	0,114	-0,068
-236,088	-200,000	-0,005	-0,059
-235,073	450,378	0,026	0,042
-234,059	464,692	0,024	-0,040
-233,044	-90,536	-0,125	-0,026
-232,030	115,859	-0,092	-0,082
-231,015	-31,829	-0,095	-0,039
-230,000	-60,800	-0,142	-0,044
-228,986	423,175	-0,029	0,045
-227,971	-144,354	-0,050	0,003
-226,957	-200,000	-0,062	0,222
-225,942	800,000	-0,005	0,011
-224,927	-114,506	-0,065	-0,009
-223,913	-15,715	-0,141	-0,065
-222,898	-144,961	-0,056	0,004
-221,884	-14,496	0,048	0,023
-220,869	305,527	-0,028	-0,038
-219,855	-44,624	0,137	-0,049
-218,840	63,777	0,016	-0,012
-217,825	43,700	-0,006	-0,004
-216,811	800,000	0,031	-0,094
-215,796	-46,566	0,018	-0,007
-214,782	51,123	-0,049	0,033
-213,767	-108,693	-0,012	0,002
-212,752	800,000	0,023	-0,066
-211,738	-110,276	0,095	0,014
-210,723	-200,000	0,027	0,135
-209,709	48,439	0,038	0,026
-208,694	-200,000	-0,006	0,126
-207,679	118,666	0,104	0,094
-206,665	86,677	0,071	0,057
-205,650	555,071	-0,059	0,104
-204,636	-112,288	-0,114	0,016
-203,621	800,000	0,019	0,057
-202,606	177,414	-0,116	-0,123
-201,592	490,037	0,035	-0,058
-200,577	133,078	-0,036	-0,033
-199,563	237,826	0,060	-0,073
-198,548	800,000	-0,006	-0,016
-197,533	-200,000	-0,006	-0,039
-196,519	800,000	-0,011	0,029
-195,504	52,642	-0,057	-0,039
-194,490	101,117	-0,111	-0,094
-193,475	388,024	-0,043	-0,064
-192,460	800,000	-0,053	-0,140
-191,446	-200,000	-0,042	0,136
-190,431	-200,000	-0,006	-0,086
-189,417	800,000	-0,047	0,103
-188,402	362,740	0,023	0,033
-187,387	166,387	0,062	-0,064
-186,373	800,000	0,027	-0,084
-185,358	386,343	-0,029	0,044
-184,344	-63,736	0,194	0,058
-183,329	325,006	-0,058	0,081
-182,315	163,358	0,107	0,110
-181,300	-200,000	0,019	-0,088
-180,285	-66,585	-0,130	-0,037
-179,271	156,532	-0,011	0,011
-178,256	-200,000	0,002	0,089
-177,242	555,611	0,070	0,124
-176,227	438,337	-0,025	0,040
-175,212	-200,000	-0,012	0,116
-174,198	800,000	0,032	0,094
-173,183	107,281	-0,033	-0,028
-172,169	800,000	0,014	0,034
-171,154	800,000	0,027	-0,065
-170,139	35,259	0,049	-0,031
-169,125	98,491	0,086	0,072
-168,110	800,000	-0,039	0,117
-167,096	625,531	-0,061	0,113
-166,081	427,242	0,028	-0,045
-165,066	396,188	-0,106	0,161
-164,052	60,735	0,043	-0,031
-163,037	787,120	-0,055	0,110
-162,023	-200,000	-0,002	0,061
-161,008	800,000	-0,050	0,124
-159,993	800,000	0,029	0,076
-158,979	-200,000	-0,009	-0,076
-157,964	367,680	-0,058	-0,086
-156,950	752,994	-0,028	-0,055
-155,935	208,273	0,052	0,059
-154,920	-200,000	-0,001	0,090
-153,906	1,655	-0,084	0,044
-152,891	-200,000	0,006	-0,127
-151,877	-200,000	0,021	-0,136
-150,862	-111,837	-0,102	-0,015
-149,847	800,000	-0,043	-0,090
-148,833	205,009	-0,134	-0,152
-147,818	-200,000	0,002	-0,030
-146,804	800,000	0,038	0,092
-145,789	49,980	-0,087	-0,060
-144,775	800,000	-0,044	-0,099
-143,760	-98,186	-0,144	-0,027
-142,745	-200,000	-0,009	0,039
-141,731	-140,690	-0,163	-0,012
-140,716	800,000	-0,024	0,055
-139,702	-131,970	-0,057	0,005
-138,687	-200,000	-0,055	0,218
-137,672	467,788	-0,058	0,094
-136,658	-39,631	0,049	0,019
-135,643	160,419	-0,067	0,068
-134,629	260,702	-0,036	-0,046
-133,614	40,309	0,134	0,088
-132,599	259,573	0,032	0,040
-131,585	-144,009	-0,042	0,003
-130,570	-188,518	0,045	0,000
-129,556	338,703	-0,077	0,109
-128,541	-200,000	0,004	0,033
-127,526	-7,964	-0,055	0,027
-126,512	543,907	0,078	-0,135
-125,497	800,000	0,018	0,057
-124,483	-143,337	-0,098	-0,007
-123,468	160,934	0,113	0,114
-122,453	-39,731	-0,092	0,035
-121,439	-200,000	-0,029	0,154
-120,424	-200,000	-0,005	0,022
-119,410	-69,935	-0,187	0,052
-118,395	800,000	0,059	0,163
-117,380	38,116	0,037	0,024
-116,366	151,322	-0,035	-0,035
-115,351	-200,000	-0,021	0,097
-114,337	-61,438	-0,014	-0,004
-113,322	-200,000	-0,001	0,029
-112,307	-104,017	0,100	-0,017
-111,293	553,758	-0,054	0,094
-110,278	14,050	-0,082	0,046
-109,264	392,002	0,011	0,016
-108,249	455,962	0,053	-0,086
-107,234	-95,285	0,110	-0,021
-106,220	156,791	-0,044	-0,044
-105,205	22,466	0,019	-0,011
-104,191	-55,300	-0,157	0,051
-103,176	-121,408	0,035	0,004
-102,162	337,872	0,015	0,021
-101,147	-158,228	-0,161	-0,007
-100,132	335,605	0,035	-0,049
-99,118	-19,755	-0,109	0,049
-98,103	180,636	0,078	-0,083
-97,089	-200,000	0,003	0,056
-96,074	174,809	0,034	0,035
-95,059	800,000	0,065	-0,139
-94,045	-200,000	-0,039	0,195
-93,030	-200,000	-0,025	-0,088
-92,016	39,226	0,043	-0,028
-91,001	-110,370	-0,181	0,027
-89,986	-200,000	0,025	0,098
-88,972	-45,835	0,148	0,053
-87,957	-200,000	0,016	-0,201
-86,943	-11,793	0,066	-0,031
-85,928	104,495	-0,038	0,032
-84,913	-200,000	0,041	-0,155
-83,899	127,948	0,145	0,134
-82,884	-27,148	0,057	-0,024
-81,870	3,532	-0,138	0,073
-80,855	71,397	-0,095	0,071
-79,840	-200,000	-0,004	-0,041
-78,826	-97,525	-0,065	0,012
-77,811	-31,321	-0,038	-0,015
-76,797	-43,806	-0,075	-0,027
-75,782	-200,000	-0,032	-0,134
-74,767	322,613	0,072	-0,100
-73,753	800,000	-0,025	-0,057
-72,738	324,845	0,010	-0,014
-71,724	258,439	0,003	-0,003
-70,709	-200,000	0,005	-0,172
-69,694	800,000	-0,064	-0,154
-68,680	-28,470	0,184	0,076
-67,665	-128,408	0,116	-0,012
-66,651	-6,502	0,151	-0,074
-65,636	134,185	-0,091	0,085
-64,622	800,000	-0,031	-0,064
-63,607	-2,547	-0,095	-0,048
-62,592	81,119	0,067	-0,052
-61,578	142,054	0,031	0,030
-60,563	800,000	0,041	0,101
-59,549	404,853	0,031	0,047
-58,534	-44,783	-1,395	-0,501
-57,519	478,431	-0,861	-1,417
-56,505	-200,000	-0,993	-4,586
-55,490	12,465	0,683	-0,380
-54,476	800,000	5,092	11,742
-53,461	-200,000	14,596	259,695
-52,446	-200,000	696,381	2235,416
-51,432	565,194	1622,493	2858,952
-50,417	117,612	1630,199	1452,260
-49,403	74,729	1284,121	977,243
-48,388	37,413	1022,497	654,876
-47,373	23,286	981,672	582,344
-46,359	22,456	970,997	573,273
-45,344	21,279	966,630	566,832
-44,330	21,238	965,219	565,849
-43,315	21,130	963,811	564,648
-42,300	21,019	962,876	563,716
-41,286	21,059	961,821	563,206
-40,271	21,043	960,764	562,513
-39,257	20,970	960,072	561,850
-38,242	21,042	958,918	561,387
-37,227	21,086	958,057	561,001
-36,213	21,046	957,183	560,338
-35,198	21,002	956,245	559,626
-34,184	21,018	955,755	559,368
-33,169	20,955	954,652	558,497
-32,154	21,111	953,796	558,475
-31,140	21,062	952,905	557,775
-30,125	21,111	952,130	557,458
-29,111	21,027	951,531	556,813
-28,096	21,092	950,509	556,401
-27,082	21,054	950,040	555,983
-26,067	21,042	949,205	555,434
-25,052	21,051	948,419	554,982
-24,038	21,021	947,959	554,594
-23,023	21,008	947,321	554,158
-22,009	21,172	946,403	554,120
-20,994	21,073	945,901	553,490
-19,979	21,076	945,540	553,265
-18,965	21,079	944,836	552,843
-17,950	21,118	944,193	552,567
-16,936	20,997	943,475	551,739
-15,921	20,983	942,873	551,323
-14,906	20,946	942,043	550,698
-13,892	20,970	941,561	550,469
-12,877	20,884	940,910	549,796
-11,863	20,856	940,226	549,285
-10,848	20,926	939,781	549,225
-9,833	20,970	939,528	549,195
-8,819	20,986	938,632	548,700
-7,804	20,946	938,054	548,212
-6,790	20,976	937,297	547,843
-5,775	20,934	937,028	547,531
-4,760	20,963	936,199	547,116
-3,746	20,958	935,463	546,650
-2,731	20,812	934,868	545,820
-1,717	20,758	934,148	545,207
-0,702	20,758	933,480	544,798
0,313	20,524	932,933	544,565
1,327	23,610	930,882	553,007
2,342	32,839	794,136	496,279
3,356	30,354	450,434	277,729
4,371	0,202	294,215	151,295
5,386	-4,132	275,338	137,471
6,400	-5,524	269,664	133,333
7,415	-5,916	267,305	131,794
8,429	-5,547	265,961	131,457
9,444	-5,466	265,186	131,137
10,459	-5,546	264,419	130,672
11,473	-5,784	263,960	130,218
12,488	-5,909	263,466	129,850
13,502	-5,885	262,919	129,589
14,517	-6,131	262,657	129,227
15,531	-5,818	262,069	129,208
16,546	-5,888	261,803	129,003
17,561	-5,813	261,384	128,852
18,575	-5,937	261,221	128,649
19,590	-5,861	260,850	128,523
20,604	-5,799	260,406	128,348
21,619	-5,845	260,054	128,122
22,634	-5,879	259,740	127,926
23,648	-5,975	259,528	127,724
24,663	-5,776	259,195	127,726
25,677	-5,946	259,080	127,506
26,692	-5,792	258,781	127,485
27,707	-5,666	258,377	127,387
28,721	-5,750	258,129	127,178
29,736	-5,780	257,977	127,065
30,750	-6,026	257,658	126,680
31,765	-5,870	257,462	126,709
32,780	-5,910	257,180	126,524
33,794	-5,824	257,075	126,538
34,809	-5,801	256,753	126,388
35,823	-5,979	256,405	126,049
36,838	-6,000	256,206	125,920
37,853	-5,983	256,075	125,860
38,867	-5,969	255,790	125,721
39,882	-6,015	255,697	125,624
40,896	-5,865	255,359	125,578
41,911	-6,013	254,938	125,230
42,926	-5,877	254,855	125,298
43,940	-5,941	254,474	125,043
44,955	-6,073	254,440	124,900
45,969	-6,034	254,159	124,785
46,984	-6,068	253,807	124,571
47,999	-6,352	253,634	124,228
49,013	-6,528	253,439	123,968
50,028	-6,529	253,271	123,874
51,042	-6,600	252,895	123,618
52,057	-6,690	252,755	123,460
53,071	-6,632	252,505	123,377
54,086	-6,690	252,428	123,278
55,101	-6,583	252,207	123,252
56,115	-6,183	252,038	123,504
57,130	-5,811	251,920	123,757
58,144	-5,831	251,728	123,634
59,159	-5,817	251,512	123,529
60,174	-5,789	251,410	123,492
61,188	-5,913	251,185	123,264
62,203	-5,735	250,899	123,266
63,217	-5,735	250,825	123,218
64,232	-5,779	250,650	123,083
65,247	-5,737	250,337	122,955
66,261	-5,683	250,088	122,868
67,276	-5,987	249,880	122,495
68,290	-6,179	249,517	122,141
69,305	-6,277	249,399	121,989
70,320	-6,092	249,245	122,061
71,334	-6,061	249,036	121,974
72,349	-5,590	248,826	122,262
73,363	-5,652	248,743	122,158
74,378	-5,652	248,392	121,975
75,393	-5,736	248,270	121,832
76,407	-6,113	248,092	121,414
77,422	-5,995	247,841	121,380
78,436	-5,845	247,665	121,410
79,451	-5,774	247,373	121,316
80,466	-5,937	247,267	121,116
81,480	-6,186	246,903	120,716
82,495	-5,994	246,839	120,836
83,509	-6,056	246,627	120,670
84,524	-6,089	246,414	120,526
85,539	-6,305	246,270	120,263
86,553	-6,157	245,959	120,225
87,568	-6,019	245,770	120,238
88,582	-5,964	245,575	120,178
89,597	-6,146	245,514	119,985
90,611	-6,076	245,355	119,955
91,626	-5,839	245,217	120,076
92,641	-5,919	245,109	119,945
93,655	-5,894	244,704	119,757
94,670	-5,918	244,660	119,705
95,684	-5,908	244,424	119,587
96,699	-5,981	244,144	119,379
97,714	-5,847	243,944	119,382
98,728	-6,280	243,761	118,920
99,743	-6,371	243,669	118,790
100,757	-6,403	243,474	118,657
101,772	-6,134	243,139	118,707
102,787	-6,161	242,904	118,559
103,801	-6,244	242,895	118,475
104,816	-5,943	242,706	118,622
105,830	-6,003	242,605	118,512
106,845	-5,693	242,364	118,641
107,860	-5,803	242,179	118,449
108,874	-5,955	241,933	118,192
109,889	-5,980	241,786	118,089
110,903	-5,829	241,574	118,099
111,918	-5,987	241,502	117,923
112,933	-5,819	241,313	117,959
113,947	-5,988	241,245	117,776
114,962	-5,922	240,991	117,696
115,976	-5,985	240,913	117,595
116,991	-5,984	240,575	117,421
118,006	-5,846	240,425	117,451
119,020	-5,857	240,219	117,331
120,035	-5,785	240,120	117,330
121,049	-5,630	240,011	117,394
122,064	-5,729	239,822	117,210
123,079	-5,829	239,545	116,982
124,093	-6,144	239,419	116,653
125,108	-6,257	239,236	116,461
126,122	-6,235	238,951	116,331
127,137	-6,140	238,738	116,294
128,151	-6,183	238,667	116,213
129,166	-6,065	238,442	116,189
130,181	-6,051	238,235	116,089
131,195	-6,180	238,167	115,941
132,210	-6,112	237,977	115,894
133,224	-5,887	237,805	115,982
134,239	-5,997	237,711	115,836
135,254	-6,135	237,592	115,657
136,268	-5,971	237,227	115,602
137,283	-6,290	237,206	115,322
138,297	-6,407	236,958	115,098
139,312	-6,351	236,642	114,979
140,327	-6,018	236,634	115,233
141,341	-5,553	236,559	115,561
142,356	-5,539	236,378	115,474
143,370	-5,690	236,213	115,262
144,385	-5,597	236,085	115,263
145,400	-5,599	235,935	115,178
146,414	-5,637	235,773	115,059
147,429	-5,563	235,450	114,949
148,443	-5,802	235,331	114,690
149,458	-5,607	235,147	114,746
150,473	-5,635	235,009	114,646
151,487	-5,459	234,717	114,633
152,502	-5,614	234,695	114,489
153,516	-5,571	234,574	114,454
154,531	-5,678	234,307	114,229
155,546	-5,756	234,137	114,073
156,560	-5,618	233,904	114,059
157,575	-5,844	233,863	113,850
158,589	-5,801	233,669	113,779
159,604	-5,605	233,458	113,822
160,619	-5,539	233,330	113,802
161,633	-5,466	233,111	113,743
162,648	-5,352	232,982	113,760
163,662	-5,751	232,779	113,334
164,677	-5,711	232,656	113,296
165,692	-5,368	232,539	113,500
166,706	-5,417	232,278	113,325
167,721	-5,308	232,325	113,423
168,735	-5,298	232,171	113,345
169,750	-5,415	231,802	113,063
170,764	-5,489	231,827	113,007
171,779	-5,495	231,728	112,944
172,794	-5,618	231,511	112,731
173,808	-5,563	231,218	112,622
174,823	-6,271	230,966	111,934
175,837	-6,402	230,844	111,762
176,852	-6,041	230,725	111,977
177,867	-5,573	230,635	112,290
178,881	-5,746	230,565	112,111
179,896	-5,533	230,382	112,178
180,910	-5,423	230,323	112,226
181,925	-5,534	230,113	112,026
182,940	-5,583	229,903	111,876
183,954	-5,319	229,819	112,031
184,969	-5,262	229,715	112,015
185,983	-5,459	229,515	111,754
186,998	-5,407	229,245	111,653
188,013	-5,323	229,157	111,665
189,027	-5,460	229,062	111,503
190,042	-5,370	229,008	111,536
191,056	-5,370	228,671	111,362
192,071	-5,379	228,613	111,317
193,086	-5,233	228,347	111,291
194,100	-5,519	228,289	111,031
195,115	-5,678	227,965	110,741
196,129	-6,076	227,725	110,307
197,144	-3,115	228,675	113,051
198,159	1,204	229,840	116,972
199,173	3,750	230,535	119,294
200,188	3,734	230,632	119,321
201,202	3,660	230,390	119,128
202,217	4,117	230,276	119,413
203,232	4,113	230,209	119,364
204,246	4,496	229,972	119,527
205,261	4,488	229,772	119,406
206,275	4,485	229,690	119,350
207,290	4,430	229,525	119,212
208,304	4,525	229,550	119,287
209,319	4,414	229,309	119,067
210,334	4,405	228,996	118,886
211,348	4,193	228,845	118,634
212,363	3,725	228,591	118,132
213,377	3,571	228,350	117,878
214,392	3,579	228,198	117,795
215,407	3,803	228,080	117,896
216,421	3,952	227,833	117,872
217,436	3,774	227,649	117,630
218,450	3,480	227,577	117,357
219,465	3,292	227,497	117,161
220,480	3,567	227,200	117,209
221,494	3,364	227,229	117,057
222,509	3,545	226,959	117,047
223,523	3,407	226,960	116,931
224,538	3,629	226,627	116,918
225,553	3,541	226,508	116,780
226,567	3,818	226,456	116,953
227,582	4,077	226,309	117,063
228,596	4,047	226,339	117,046
229,611	3,864	226,141	116,794
230,626	3,536	225,779	116,348
231,640	3,503	225,658	116,250
232,655	3,849	225,572	116,458
233,669	4,157	225,553	116,671
234,684	4,373	225,492	116,792
235,699	4,158	225,191	116,463
236,713	3,873	225,000	116,139
237,728	3,730	224,910	115,974
238,742	3,588	224,691	115,744
239,757	3,393	224,542	115,510
240,772	3,398	224,396	115,428
241,786	3,569	224,207	115,450
242,801	3,788	224,163	115,581
243,815	4,016	224,155	115,738
244,830	4,140	223,872	115,675
245,844	3,914	223,565	115,337
246,859	3,641	223,463	115,069
247,874	3,810	223,423	115,164
248,888	3,873	223,288	115,132
249,903	3,704	223,248	114,975
250,917	3,699	222,922	114,792
251,932	3,710	222,678	114,665
252,947	3,743	222,550	114,614
253,961	3,563	222,402	114,393
254,976	3,591	222,318	114,360
255,990	3,725	222,281	114,431
257,005	3,703	222,112	114,317
258,020	4,032	222,004	114,497
259,034	3,942	221,816	114,322
260,049	4,118	221,656	114,360
261,063	3,922	221,494	114,121
262,078	3,838	221,426	114,014
263,093	4,009	221,373	114,103
264,107	3,729	221,074	113,731
265,122	3,956	221,021	113,862
266,136	4,014	220,976	113,871
267,151	4,069	220,793	113,807
268,166	4,005	220,454	113,575
269,180	3,459	220,257	113,061
270,195	3,512	220,076	112,997
271,209	3,404	220,153	112,947
272,224	3,453	219,952	112,870
273,239	3,905	219,798	113,113
274,253	3,833	219,557	112,926
275,268	3,622	219,272	112,615
276,282	3,502	219,210	112,485
277,297	3,420	219,079	112,347
278,312	3,516	218,995	112,365
279,326	3,651	218,910	112,410
280,341	3,508	218,762	112,220
281,355	3,607	218,650	112,225
282,370	3,612	218,422	112,101
283,384	3,372	218,265	111,835
284,399	3,047	218,198	111,554
285,414	3,284	218,015	111,623
286,428	3,848	217,836	111,932
287,443	3,728	217,894	111,865
288,457	3,614	217,851	111,750
289,472	3,619	217,424	111,524
290,487	3,196	217,187	111,085
291,501	3,260	217,023	111,038
292,516	3,299	216,845	110,966
293,530	3,359	216,941	111,048
294,545	3,188	216,761	110,822
295,560	3,327	216,663	110,863
296,574	3,716	216,604	111,104
297,589	3,690	216,360	110,950
298,603	3,736	216,351	110,970
299,618	3,820	216,061	110,871
300,633	3,635	216,052	110,723
301,647	3,939	215,983	110,897
302,662	3,673	215,812	110,608
303,676	3,785	215,573	110,556
304,691	3,976	215,626	110,711
305,706	3,983	215,460	110,621
306,720	4,046	215,216	110,531
307,735	3,504	215,166	110,106
308,749	3,668	214,866	110,060
309,764	3,952	214,662	110,149
310,779	3,896	214,748	110,144
311,793	3,967	214,563	110,090
312,808	3,747	214,345	109,811
313,822	3,636	214,199	109,647
314,837	3,819	213,975	109,654
315,852	3,320	213,993	109,296
316,866	3,670	213,759	109,417
317,881	3,809	213,721	109,487
318,895	3,712	213,537	109,313
319,910	3,709	213,327	109,194
320,925	3,465	213,042	108,865
321,939	3,133	212,992	108,594
322,954	3,219	212,997	108,648
323,968	3,754	212,787	108,911
324,983	3,876	212,853	109,022
325,997	4,173	212,504	109,044
327,012	3,772	212,469	108,731
328,027	3,693	212,342	108,601
329,041	3,837	212,287	108,665
330,056	4,142	212,122	108,786
331,070	3,833	211,848	108,418
332,085	3,620	211,603	108,133
333,100	3,423	211,580	107,973
334,114	3,535	211,665	108,085
335,129	3,877	211,414	108,188
336,143	3,771	211,231	108,011
337,158	3,739	210,978	107,849
338,173	3,576	210,957	107,714
339,187	3,460	210,819	107,553
340,202	3,380	210,602	107,377
341,216	3,293	210,366	107,186
342,231	3,301	210,412	107,205
343,246	3,435	210,277	107,221
344,260	3,480	210,043	107,123
345,275	3,439	210,050	107,088
346,289	3,674	209,881	107,157
347,304	3,825	209,813	107,218
348,319	3,328	209,643	106,775
349,333	3,760	209,410	106,948
350,348	3,952	209,163	106,946
351,362	3,887	209,271	106,946
352,377	3,840	209,160	106,847
353,392	3,766	208,777	106,591
354,406	3,579	208,969	106,549
355,421	194,560	1343,933	1431,213
356,435	155,293	1482,278	1431,313
