DTS Sentinel unit serial number:	SN410029Multiplexer serial number:	ORYXHardware model number:	OX2-SRSoftware version number:	ORYX F/W v4,00 Oryx Data Collector v3.7.2.0data status	okinstallation	B6 Nyhavnadifferential loss correction	single-endedforward channel	channel 2reverse channel	N/Adate	2023/12/09time	11:10:08forward acquisition time	300,00reverse acquisition time	0,00gamma	499,1914k internal	0,3139k external	0,3139temperature offset calibration	1,0000default loss term (dB/km)	0,3820temperature slope calibration	1,0000multiplexer offset coefficient	1,0000multiplexer slope coefficient	1,0000fibre end	0,00T internal ref (°C)	18,74T ext. ref 1 (°C)	2,60T ext. ref 2 (°C)	2,59length (m)	temperature (°C)	Stokes	anti-Stokes-744,400	652,338	0,032	-0,062
-743,385	42,041	-0,165	0,111
-742,371	-200,000	-0,003	0,078
-741,356	5,919	-0,249	0,137
-740,342	-200,000	-0,025	0,136
-739,327	-78,865	-0,275	0,069
-738,312	-107,896	-0,016	-0,003
-737,298	-66,187	-0,235	0,069
-736,283	-126,694	0,072	-0,008
-735,269	-52,950	-0,233	0,079
-734,254	-29,514	0,054	0,023
-733,239	-38,042	-0,493	-0,193
-732,225	-168,619	0,264	-0,007
-731,210	136,166	0,070	-0,067
-730,196	-161,605	0,126	-0,005
-729,181	-200,000	-0,001	-0,039
-728,167	800,000	-0,008	-0,025
-727,152	113,092	0,129	0,116
-726,137	-152,760	-0,134	-0,007
-725,123	45,030	-0,058	-0,040
-724,108	-200,000	0,018	-0,186
-723,094	43,032	-0,107	-0,072
-722,079	240,143	0,056	-0,069
-721,064	-18,015	0,106	-0,049
-720,050	71,162	-0,059	-0,045
-719,035	161,484	0,048	-0,050
-718,021	-142,133	-0,089	0,006
-717,006	-200,000	-0,005	-0,096
-715,991	-200,000	-0,016	-0,075
-714,977	104,761	-0,139	-0,121
-713,962	784,078	0,055	0,111
-712,948	-43,007	0,105	-0,039
-711,933	102,076	-0,073	0,063
-710,918	-27,367	0,071	0,030
-709,904	800,000	-0,047	-0,139
-708,889	-153,227	-0,205	-0,010
-707,875	18,455	-0,048	-0,028
-706,860	-47,839	-0,062	0,022
-705,845	-18,815	0,077	0,035
-704,831	-200,000	-0,010	-0,035
-703,816	800,000	-0,027	-0,060
-702,802	77,398	-0,070	-0,055
-701,787	304,815	-0,127	-0,175
-700,772	-46,907	0,011	0,004
-699,758	-140,543	-0,093	0,007
-698,743	274,154	-0,122	0,160
-697,729	-62,075	-0,173	0,053
-696,714	800,000	-0,040	-0,126
-695,699	11,932	-0,066	-0,038
-694,685	-200,000	0,008	-0,048
-693,670	800,000	-0,125	-0,264
-692,656	800,000	-0,065	-0,189
-691,641	-103,009	0,041	-0,007
-690,627	626,979	-0,031	0,058
-689,612	5,047	0,101	-0,055
-688,597	-56,842	-0,066	-0,021
-687,583	-200,000	0,001	-0,223
-686,568	-200,000	0,012	-0,107
-685,554	752,284	0,026	-0,053
-684,539	776,049	-0,078	-0,158
-683,524	-33,604	-0,146	0,060
-682,510	-200,000	0,021	-0,074
-681,495	677,139	0,043	-0,083
-680,481	342,006	-0,046	0,067
-679,466	-98,276	0,053	-0,010
-678,451	191,468	-0,125	-0,139
-677,437	800,000	0,045	-0,107
-676,422	26,001	0,042	0,026
-675,408	90,685	-0,029	0,024
-674,393	-84,123	-0,084	0,020
-673,378	-75,307	-0,108	-0,028
-672,364	107,368	-0,056	-0,049
-671,349	-68,140	-0,076	0,022
-670,335	-130,902	-0,099	0,010
-669,320	-200,000	0,016	-0,131
-668,305	-29,936	0,066	0,028
-667,291	800,000	-0,011	-0,031
-666,276	800,000	0,020	0,042
-665,262	70,069	-0,096	0,073
-664,247	2,348	-0,122	-0,065
-663,232	-200,000	0,001	0,118
-662,218	511,574	0,057	0,099
-661,203	-120,980	-0,036	0,004
-660,189	-200,000	-0,009	0,032
-659,174	34,700	-0,035	-0,023
-658,159	-78,825	-0,182	-0,045
-657,145	800,000	-0,025	0,058
-656,130	3,188	-0,149	-0,080
-655,116	176,568	0,046	-0,049
-654,101	168,477	-0,021	-0,023
-653,086	208,959	-0,063	-0,073
-652,072	74,907	-0,052	-0,040
-651,057	166,039	-0,100	-0,105
-650,043	800,000	-0,004	-0,010
-649,028	-200,000	0,014	-0,201
-648,014	-200,000	-0,021	-0,217
-646,999	170,910	0,051	-0,054
-645,984	21,767	-0,021	-0,012
-644,970	800,000	-0,079	-0,173
-643,955	-54,417	0,081	0,027
-642,941	353,144	0,033	0,049
-641,926	-200,000	-0,010	0,107
-640,911	-200,000	0,007	-0,076
-639,897	-103,923	0,067	0,011
-638,882	91,809	0,050	-0,042
-637,868	-65,500	0,037	-0,011
-636,853	239,114	-0,051	0,063
-635,838	-10,777	-0,098	-0,048
-634,824	105,696	-0,047	0,041
-633,809	415,388	-0,052	0,083
-632,795	238,005	0,036	-0,044
-631,780	157,610	-0,068	-0,070
-630,765	271,701	-0,054	0,070
-629,751	800,000	-0,020	-0,049
-628,736	800,000	-0,014	0,041
-627,722	770,374	-0,046	-0,094
-626,707	-200,000	0,011	-0,091
-625,692	800,000	0,021	0,062
-624,678	-127,528	-0,032	-0,003
-623,663	18,048	-0,086	-0,050
-622,649	238,585	-0,031	0,038
-621,634	-9,247	0,127	-0,063
-620,619	800,000	0,037	-0,080
-619,605	-41,673	-0,021	0,008
-618,590	-200,000	0,026	-0,112
-617,576	328,950	0,013	-0,019
-616,561	65,962	0,026	0,019
-615,546	800,000	-0,058	-0,134
-614,532	800,000	0,026	-0,079
-613,517	-200,000	0,005	-0,067
-612,503	53,165	-0,039	-0,028
-611,488	28,321	-0,043	0,027
-610,474	-101,117	-0,085	0,015
-609,459	-171,682	0,115	0,003
-608,444	278,215	-0,054	-0,071
-607,430	-200,000	-0,008	-0,096
-606,415	-133,174	-0,085	0,008
-605,401	-11,117	-0,149	0,072
-604,386	-200,000	0,033	0,113
-603,371	800,000	0,057	-0,148
-602,357	30,336	0,043	0,027
-601,342	-21,015	-0,068	-0,031
-600,328	5,777	-0,187	-0,102
-599,313	-200,000	0,026	-0,129
-598,298	62,552	0,026	0,019
-597,284	-200,000	-0,002	-0,028
-596,269	-25,612	-0,112	0,049
-595,255	800,000	-0,026	0,072
-594,240	-101,531	-0,155	0,027
-593,225	-69,424	-0,062	-0,017
-592,211	-73,433	-0,021	0,006
-591,196	291,201	-0,082	0,110
-590,182	-200,000	0,004	-0,037
-589,167	214,556	-0,045	-0,053
-588,152	-93,920	-0,154	0,031
-587,138	-200,000	-0,001	0,055
-586,123	800,000	-0,025	-0,069
-585,109	-23,329	0,152	-0,067
-584,094	121,569	-0,071	0,065
-583,079	-14,427	0,047	-0,022
-582,065	-31,362	0,040	0,016
-581,050	101,328	-0,033	-0,028
-580,036	-63,300	-0,105	-0,032
-579,021	-156,936	-0,220	0,010
-578,006	670,985	-0,009	-0,018
-576,992	-200,000	0,001	0,005
-575,977	509,451	0,075	0,129
-574,963	800,000	0,030	0,079
-573,948	-200,000	-0,000	0,058
-572,934	377,388	-0,021	0,032
-571,919	-113,344	-0,031	0,004
-570,904	-200,000	0,005	-0,077
-569,890	-33,261	0,064	0,026
-568,875	800,000	-0,020	0,056
-567,861	176,406	0,125	0,134
-566,846	-200,000	0,017	0,067
-565,831	729,868	-0,076	-0,150
-564,817	2,289	0,120	0,064
-563,802	-200,000	0,011	-0,088
-562,788	800,000	-0,055	-0,125
-561,773	239,493	0,052	0,064
-560,758	6,278	0,132	0,072
-559,744	-200,000	-0,002	0,067
-558,729	357,049	0,063	-0,092
-557,715	-200,000	0,011	-0,070
-556,700	352,512	-0,027	0,039
-555,685	-20,592	-0,017	0,008
-554,671	-135,602	0,091	0,008
-553,656	94,344	0,112	-0,093
-552,642	17,118	0,078	-0,045
-551,627	145,749	0,072	0,071
-550,612	-39,666	-0,044	0,017
-549,598	380,640	-0,046	-0,070
-548,583	-172,935	0,022	-0,000
-547,569	15,276	-0,136	-0,078
-546,554	150,564	0,085	0,085
-545,539	243,313	-0,070	-0,087
-544,525	-169,519	0,071	0,002
-543,510	-200,000	-0,019	0,153
-542,496	670,144	-0,022	0,042
-541,481	-77,143	0,170	-0,043
-540,466	264,828	0,052	0,066
-539,452	-200,000	0,035	0,130
-538,437	244,442	0,046	0,057
-537,423	123,472	0,062	0,058
-536,408	-142,480	0,119	-0,008
-535,393	-200,000	0,012	-0,046
-534,379	1,828	0,046	0,025
-533,364	-117,332	-0,079	-0,010
-532,350	43,544	-0,055	0,037
-531,335	284,010	-0,049	0,065
-530,321	182,655	0,039	0,043
-529,306	800,000	0,034	0,079
-528,291	-11,419	-0,069	-0,033
-527,277	800,000	0,002	-0,007
-526,262	4,686	0,160	-0,086
-525,248	147,812	-0,098	-0,097
-524,233	-100,773	0,058	-0,010
-523,218	800,000	-0,041	-0,093
-522,204	-119,853	-0,019	0,002
-521,189	397,924	-0,040	0,062
-520,175	-200,000	-0,015	0,080
-519,160	-200,000	-0,009	-0,083
-518,145	-23,649	0,109	0,048
-517,131	78,451	-0,119	0,093
-516,116	-93,295	0,199	0,040
-515,102	800,000	-0,052	0,126
-514,087	219,260	-0,051	0,060
-513,072	48,908	-0,128	-0,088
-512,058	800,000	0,019	-0,044
-511,043	-200,000	0,011	-0,126
-510,029	-200,000	-0,003	-0,033
-509,014	-176,107	-0,015	0,000
-507,999	-88,135	0,069	-0,015
-506,985	560,260	-0,057	-0,101
-505,970	-200,000	-0,015	-0,102
-504,956	12,641	0,080	-0,045
-503,941	-200,000	-0,000	0,010
-502,926	57,414	0,110	0,079
-501,912	455,107	0,070	-0,114
-500,897	-50,027	0,107	0,037
-499,883	-7,559	-0,041	-0,020
-498,868	-93,536	0,059	-0,012
-497,853	238,777	-0,113	-0,138
-496,839	-200,000	0,001	0,030
-495,824	30,287	0,102	0,064
-494,810	800,000	-0,042	0,091
-493,795	46,420	0,029	-0,020
-492,781	-132,714	-0,052	-0,005
-491,766	248,918	-0,030	0,037
-490,751	46,413	0,093	0,063
-489,737	177,458	-0,063	0,068
-488,722	800,000	-0,021	0,060
-487,708	-58,843	0,134	0,042
-486,693	150,757	-0,089	0,089
-485,678	38,737	0,035	0,023
-484,664	317,744	-0,052	-0,073
-483,649	-29,173	-0,071	0,030
-482,635	-126,210	0,172	0,019
-481,620	-200,000	-0,006	0,040
-480,605	0,677	-0,071	-0,037
-479,591	503,788	0,031	0,053
-478,576	-90,203	0,048	-0,010
-477,562	-143,237	-0,080	-0,006
-476,547	800,000	-0,020	-0,041
-475,532	-145,020	0,030	0,002
-474,518	36,253	-0,016	-0,010
-473,503	189,811	0,044	-0,048
-472,489	800,000	0,069	-0,172
-471,474	-200,000	0,007	0,023
-470,459	-200,000	-0,027	-0,122
-469,445	-0,889	-0,209	-0,108
-468,430	-41,692	0,066	0,025
-467,416	-200,000	0,038	0,145
-466,401	-200,000	-0,008	-0,115
-465,386	57,273	0,088	0,063
-464,372	49,936	0,118	0,081
-463,357	137,379	-0,133	-0,128
-462,343	-200,000	0,000	-0,116
-461,328	-102,191	-0,097	0,017
-460,313	35,698	-0,062	-0,040
-459,299	-200,000	-0,003	0,056
-458,284	128,562	0,011	0,010
-457,270	123,591	0,046	0,042
-456,255	-200,000	0,007	0,028
-455,241	168,650	-0,067	-0,070
-454,226	361,384	-0,024	-0,036
-453,211	-7,843	0,031	-0,015
-452,197	-19,601	-0,077	-0,035
-451,182	-97,447	0,112	0,021
-450,168	213,139	0,041	0,048
-449,153	-73,020	-0,084	-0,022
-448,138	2,476	-0,111	-0,059
-447,124	-15,903	0,075	-0,035
-446,109	800,000	-0,011	-0,024
-445,095	800,000	0,027	-0,056
-444,080	147,113	0,095	0,094
-443,065	74,257	0,123	0,095
-442,051	158,449	-0,028	-0,028
-441,036	-84,250	-0,165	-0,038
-440,022	164,898	-0,075	-0,078
-439,007	-112,077	-0,131	0,019
-437,992	136,029	-0,020	0,019
-436,978	328,012	0,111	0,157
-435,963	-8,167	0,121	-0,060
-434,949	-101,732	-0,131	-0,023
-433,934	-119,933	-0,165	0,021
-432,919	13,375	-0,077	-0,044
-431,905	-141,233	-0,146	-0,011
-430,890	257,457	-0,053	0,067
-429,876	790,354	0,033	-0,066
-428,861	184,241	-0,092	0,100
-427,846	-200,000	-0,005	-0,054
-426,832	94,839	0,063	0,052
-425,817	432,275	-0,074	-0,119
-424,803	-200,000	-0,008	-0,062
-423,788	268,088	0,033	0,043
-422,773	41,280	-0,094	0,062
-421,759	124,820	0,011	0,010
-420,744	68,795	0,058	0,044
-419,730	-85,700	0,037	-0,008
-418,715	-200,000	-0,012	-0,080
-417,701	255,763	0,071	-0,089
-416,686	305,099	-0,066	-0,089
-415,671	-45,313	0,070	-0,025
-414,657	-200,000	0,002	-0,088
-413,642	-42,837	0,021	-0,008
-412,628	-9,450	-0,048	-0,023
-411,613	465,423	0,027	-0,045
-410,598	207,689	-0,027	-0,031
-409,584	392,027	-0,024	-0,036
-408,569	148,774	0,070	-0,069
-407,555	-200,000	-0,023	-0,157
-406,540	7,657	-0,142	0,078
-405,525	-200,000	-0,018	0,132
-404,511	-35,042	-0,155	-0,062
-403,496	800,000	0,054	-0,119
-402,482	800,000	-0,025	-0,069
-401,467	-77,770	-0,121	0,030
-400,452	323,604	0,054	0,076
-399,438	189,618	0,097	0,106
-398,423	134,732	-0,040	0,038
-397,409	800,000	-0,045	0,096
-396,394	-13,623	0,146	-0,069
-395,379	10,628	0,123	-0,069
-394,365	583,056	-0,018	0,032
-393,350	-200,000	-0,018	-0,087
-392,336	800,000	-0,054	-0,162
-391,321	-28,820	0,065	-0,027
-390,306	-200,000	0,012	0,055
-389,292	106,767	-0,076	-0,066
-388,277	-200,000	0,013	-0,070
-387,263	-200,000	0,026	0,097
-386,248	-52,145	0,063	0,021
-385,233	220,792	-0,081	0,095
-384,219	217,387	0,007	-0,009
-383,204	800,000	0,038	-0,089
-382,190	-79,479	-0,076	0,019
-381,175	-33,998	0,082	-0,033
-380,160	-56,924	-0,093	-0,030
-379,146	-200,000	-0,039	0,204
-378,131	-89,576	0,172	0,037
-377,117	-200,000	0,006	0,065
-376,102	1,654	-0,095	0,050
-375,088	5,746	0,024	-0,013
-374,073	800,000	0,061	-0,177
-373,058	-5,465	-0,033	-0,017
-372,044	331,187	0,036	0,050
-371,029	-200,000	0,004	0,038
-370,015	800,000	-0,011	-0,024
-369,000	-33,386	0,060	-0,024
-367,985	81,736	0,037	-0,029
-366,971	-200,000	-0,001	0,022
-365,956	-74,283	0,143	-0,037
-364,942	702,113	-0,017	-0,032
-363,927	-200,000	-0,000	0,101
-362,912	-200,000	0,005	0,043
-361,898	800,000	0,041	0,100
-360,883	-200,000	-0,001	-0,067
-359,869	421,712	0,030	-0,047
-358,854	-107,901	0,021	-0,003
-357,839	240,728	0,054	-0,066
-356,825	-103,541	0,071	-0,012
-355,810	579,232	0,074	-0,132
-354,796	99,185	0,047	0,039
-353,781	-200,000	0,012	-0,153
-352,766	142,298	0,049	0,047
-351,752	-200,000	-0,014	-0,049
-350,737	-200,000	0,002	0,065
-349,723	-200,000	0,038	0,152
-348,708	800,000	0,024	0,049
-347,693	-200,000	0,006	0,100
-346,679	-200,000	-0,002	-0,009
-345,664	171,693	0,053	-0,056
-344,650	-109,576	0,083	-0,013
-343,635	107,375	0,053	0,046
-342,620	620,885	0,040	-0,074
-341,606	800,000	0,012	0,027
-340,591	14,678	-0,205	-0,117
-339,577	-129,335	-0,105	0,011
-338,562	-47,493	0,108	0,038
-337,548	-136,154	-0,108	-0,009
-336,533	-128,924	0,090	0,009
-335,518	-200,000	-0,001	0,052
-334,504	-28,198	-0,104	0,043
-333,489	251,262	0,057	-0,071
-332,475	-200,000	0,021	-0,129
-331,460	-80,361	-0,075	0,018
-330,445	800,000	0,031	-0,092
-329,431	-68,655	0,220	-0,062
-328,416	-138,487	0,095	-0,007
-327,402	800,000	0,001	0,002
-326,387	222,538	0,083	0,098
-325,372	487,472	-0,028	0,046
-324,358	134,946	-0,040	-0,038
-323,343	170,852	-0,020	-0,021
-322,329	522,948	-0,030	-0,052
-321,314	800,000	-0,087	-0,220
-320,299	-200,000	0,040	0,000
-319,285	-200,000	-0,001	0,058
-318,270	74,083	-0,047	0,036
-317,256	-14,025	-0,055	-0,026
-316,241	-43,071	-0,172	-0,063
-315,226	-200,000	0,017	0,090
-314,212	-0,015	0,106	0,055
-313,197	800,000	0,061	0,148
-312,183	-200,000	-0,004	0,079
-311,168	-200,000	-0,007	-0,188
-310,153	266,666	0,017	0,022
-309,139	-55,773	-0,053	0,017
-308,124	4,257	0,125	0,066
-307,110	572,426	-0,065	-0,115
-306,095	-15,064	0,305	0,142
-305,080	-200,000	0,062	0,227
-304,066	490,992	-0,036	-0,061
-303,051	390,949	0,033	-0,050
-302,037	286,667	-0,091	-0,120
-301,022	-200,000	-0,018	0,148
-300,008	524,381	-0,026	-0,045
-298,993	800,000	-0,038	0,094
-297,978	254,049	-0,043	0,054
-296,964	-81,003	-0,060	-0,014
-295,949	133,803	0,087	0,083
-294,935	-31,112	-0,107	-0,044
-293,920	-70,267	0,109	-0,030
-292,905	64,425	0,126	0,092
-291,891	-200,000	-0,000	-0,029
-290,876	-94,619	0,078	-0,015
-289,862	-124,368	0,105	-0,012
-288,847	126,745	-0,054	-0,050
-287,832	800,000	-0,011	-0,025
-286,818	-123,287	0,050	0,006
-285,803	-162,533	-0,051	0,002
-284,789	-7,896	-0,065	0,032
-283,774	-200,000	-0,014	0,141
-282,759	126,468	0,085	-0,079
-281,745	-200,000	-0,014	0,085
-280,730	384,918	-0,128	-0,192
-279,716	-200,000	0,010	0,062
-278,701	6,155	0,132	0,071
-277,686	-200,000	0,016	0,075
-276,672	-200,000	0,009	0,046
-275,657	-82,765	0,047	0,011
-274,643	132,192	-0,148	-0,138
-273,628	565,573	0,120	-0,213
-272,613	-95,973	0,181	0,035
-271,599	-200,000	0,050	0,180
-270,584	-73,860	-0,100	-0,026
-269,570	244,159	-0,034	0,041
-268,555	-200,000	0,008	-0,066
-267,540	800,000	-0,054	0,119
-266,526	96,239	-0,098	-0,081
-265,511	-200,000	-0,029	-0,136
-264,497	71,936	-0,099	0,075
-263,482	-61,983	0,084	0,025
-262,467	800,000	0,048	0,125
-261,453	134,302	-0,052	0,049
-260,438	-200,000	0,000	-0,028
-259,424	-38,586	-0,035	-0,014
-258,409	252,435	0,102	-0,127
-257,395	49,245	0,100	-0,069
-256,380	183,366	-0,090	0,096
-255,365	-79,269	-0,032	0,008
-254,351	800,000	-0,050	-0,100
-253,336	130,516	0,117	-0,109
-252,322	124,644	-0,084	0,077
-251,307	368,879	0,026	0,038
-250,292	800,000	0,035	0,078
-249,278	-200,000	-0,005	0,085
-248,263	126,178	0,119	0,109
-247,249	52,237	-0,092	0,064
-246,234	-167,693	-0,082	0,002
-245,219	800,000	-0,075	-0,153
-244,205	-55,114	0,028	-0,009
-243,190	22,772	-0,059	0,035
-242,176	-200,000	0,012	-0,114
-241,161	-38,427	-0,037	0,014
-240,146	-98,479	-0,049	0,009
-239,132	22,361	0,042	-0,025
-238,117	-22,731	0,076	0,033
-237,103	-200,000	-0,016	0,150
-236,088	-2,567	0,038	-0,019
-235,073	328,620	-0,030	0,042
-234,059	-137,069	0,080	0,007
-233,044	-200,000	0,020	0,157
-232,030	-200,000	-0,023	0,113
-231,015	800,000	-0,017	0,053
-230,000	-69,466	-0,079	0,022
-228,986	-2,049	0,084	0,043
-227,971	21,897	-0,023	-0,014
-226,957	208,116	0,013	0,015
-225,942	568,296	-0,062	0,110
-224,927	799,632	0,016	0,031
-223,913	-200,000	0,037	-0,141
-222,898	228,480	-0,015	0,018
-221,884	-200,000	0,020	-0,077
-220,869	-47,262	0,134	0,047
-219,855	153,639	-0,015	0,015
-218,840	-200,000	-0,002	-0,040
-217,825	537,524	-0,081	0,141
-216,811	-200,000	0,008	-0,124
-215,796	247,380	-0,030	0,037
-214,782	-200,000	0,001	0,016
-213,767	-54,780	-0,135	-0,044
-212,752	800,000	0,021	0,050
-211,738	-19,684	-0,054	0,024
-210,723	-0,607	-0,018	0,009
-209,709	-162,360	0,138	0,005
-208,694	-200,000	-0,027	-0,111
-207,679	-153,689	-0,028	-0,001
-206,665	106,317	0,046	0,040
-205,650	-200,000	-0,021	0,068
-204,636	-200,000	-0,027	0,136
-203,621	170,759	0,067	-0,069
-202,606	43,995	-0,058	0,038
-201,592	-62,025	-0,027	-0,008
-200,577	71,619	0,022	-0,016
-199,563	-200,000	0,018	-0,080
-198,548	282,669	0,098	0,128
-197,533	800,000	0,045	0,102
-196,519	461,048	-0,027	-0,043
-195,504	235,896	-0,053	0,064
-194,490	-57,773	-0,112	0,035
-193,475	-200,000	0,001	-0,031
-192,460	-77,814	-0,146	-0,036
-191,446	-200,000	-0,009	-0,041
-190,431	288,117	0,052	-0,068
-189,417	-200,000	-0,005	0,099
-188,402	-50,510	-0,145	-0,049
-187,387	-200,000	0,016	-0,060
-186,373	200,460	-0,098	-0,109
-185,358	-125,379	0,095	-0,010
-184,344	-200,000	0,015	0,066
-183,329	170,752	0,027	0,029
-182,315	404,484	0,062	0,095
-181,300	-59,517	-0,123	0,038
-180,285	208,595	-0,040	-0,045
-179,271	-35,043	-0,026	-0,010
-178,256	117,944	0,127	-0,113
-177,242	-200,000	0,015	0,069
-176,227	-53,218	0,097	0,032
-175,212	-200,000	0,024	0,241
-174,198	-200,000	-0,038	0,210
-173,183	218,723	-0,035	-0,041
-172,169	19,250	-0,068	0,039
-171,154	800,000	0,036	0,104
-170,139	-99,845	-0,050	0,009
-169,125	50,130	0,025	0,017
-168,110	800,000	0,042	0,102
-167,096	800,000	0,042	0,091
-166,081	-116,494	-0,140	-0,019
-165,066	800,000	-0,045	0,093
-164,052	173,717	-0,063	-0,066
-163,037	-200,000	0,004	-0,037
-162,023	458,864	0,079	0,129
-161,008	-200,000	0,003	0,044
-159,993	159,452	0,050	0,050
-158,979	-200,000	-0,010	-0,034
-157,964	132,890	0,021	0,020
-156,950	287,798	-0,064	0,084
-155,935	-91,848	0,077	0,016
-154,920	800,000	0,013	0,029
-153,906	0,373	-0,044	-0,023
-152,891	-200,000	0,002	-0,159
-151,877	-76,710	-0,088	0,022
-150,862	136,152	0,021	-0,019
-149,847	271,815	0,055	0,070
-148,833	36,045	0,056	0,036
-147,818	2,729	-0,086	-0,045
-146,804	800,000	0,018	-0,038
-145,789	-31,697	-0,108	-0,044
-144,775	-200,000	0,045	-0,227
-143,760	686,737	0,052	0,100
-142,745	-148,688	-0,047	0,003
-141,731	164,238	0,027	0,027
-140,716	-67,834	0,036	0,010
-139,702	22,794	-0,058	0,034
-138,687	800,000	0,047	-0,138
-137,672	-12,306	-0,034	-0,016
-136,658	134,982	-0,107	-0,101
-135,643	64,929	-0,044	-0,032
-134,629	-115,648	-0,092	-0,012
-133,614	-200,000	-0,017	-0,073
-132,599	-68,436	0,029	0,008
-131,585	291,042	0,027	0,035
-130,570	376,258	-0,047	-0,070
-129,556	96,412	-0,085	-0,070
-128,541	483,905	0,077	-0,127
-127,526	-147,010	-0,077	0,005
-126,512	-200,000	0,007	0,087
-125,497	454,476	0,077	-0,124
-124,483	-200,000	0,030	-0,122
-123,468	-15,669	0,116	-0,053
-122,453	637,753	-0,067	-0,125
-121,439	-136,897	-0,168	-0,014
-120,424	-3,886	0,068	0,034
-119,410	321,792	-0,081	0,111
-118,395	396,836	0,062	0,095
-117,380	-200,000	0,033	0,112
-116,366	-121,436	-0,130	-0,016
-115,351	-85,827	-0,059	0,013
-114,337	279,229	-0,104	-0,134
-113,322	327,512	-0,030	-0,041
-112,307	-200,000	-0,013	-0,074
-111,293	-200,000	-0,019	-0,063
-110,278	-200,000	0,014	0,048
-109,264	-200,000	0,019	0,076
-108,249	-200,000	0,009	0,142
-107,234	12,263	0,090	-0,050
-106,220	429,640	-0,073	0,115
-105,205	102,622	0,092	-0,078
-104,191	4,324	-0,082	-0,043
-103,176	-200,000	0,034	0,144
-102,162	-114,949	0,017	0,002
-101,147	145,466	0,055	0,053
-100,132	687,284	0,017	0,032
-99,118	-200,000	0,030	-0,153
-98,103	302,622	-0,130	0,175
-97,089	-117,284	0,138	-0,018
-96,074	-200,000	-0,005	0,026
-95,059	-200,000	0,015	0,112
-94,045	223,937	0,030	0,035
-93,030	42,107	-0,091	0,060
-92,016	3,333	-0,068	-0,036
-91,001	381,540	0,024	-0,036
-89,986	800,000	-0,036	0,077
-88,972	156,016	0,077	-0,077
-87,957	41,904	-0,085	0,056
-86,943	-24,428	0,093	-0,040
-85,928	-200,000	-0,027	-0,155
-84,913	-119,320	-0,102	0,013
-83,899	-104,232	0,028	0,005
-82,884	75,369	-0,062	-0,047
-81,870	-53,362	0,132	0,043
-80,855	-200,000	0,027	0,086
-79,840	373,923	-0,075	-0,111
-78,826	-1,662	0,051	0,026
-77,811	-35,015	0,052	-0,021
-76,797	575,702	-0,063	-0,112
-75,782	800,000	-0,056	-0,117
-74,767	-200,000	0,015	-0,165
-73,753	118,735	0,095	-0,085
-72,738	196,073	0,082	0,090
-71,724	217,071	-0,049	0,056
-70,709	800,000	-0,050	0,123
-69,694	102,206	-0,075	-0,064
-68,680	492,494	-0,034	-0,056
-67,665	151,506	-0,135	0,133
-66,651	-200,000	0,001	-0,037
-65,636	800,000	0,014	-0,036
-64,622	137,261	0,040	0,038
-63,607	91,872	0,135	-0,110
-62,592	-109,654	-0,019	0,003
-61,578	150,650	0,015	-0,014
-60,563	-200,000	-0,044	0,197
-59,549	800,000	0,010	0,022
-58,534	-52,908	-1,762	-0,582
-57,519	800,000	-0,448	-1,062
-56,505	-200,000	-1,068	-4,721
-55,490	-154,701	0,636	-0,030
-54,476	800,000	5,222	12,198
-53,461	-200,000	15,614	276,103
-52,446	-200,000	701,900	2241,701
-51,432	562,315	1618,723	2838,494
-50,417	120,971	1623,584	1458,110
-49,403	80,835	1283,788	998,669
-48,388	36,768	1027,436	654,009
-47,373	21,627	989,396	579,762
-46,359	20,604	978,138	569,774
-45,344	18,986	973,853	561,940
-44,330	19,076	972,630	561,510
-43,315	18,846	970,792	559,669
-42,300	18,781	969,872	558,904
-41,286	18,783	969,032	558,405
-40,271	18,764	967,830	557,630
-39,257	18,835	966,895	557,299
-38,242	18,755	966,280	556,664
-37,227	18,794	965,463	556,297
-36,213	18,784	964,504	555,690
-35,198	18,792	963,722	555,243
-34,184	18,792	962,962	554,784
-33,169	18,738	962,078	554,075
-32,154	18,812	961,191	553,783
-31,140	18,758	960,439	553,153
-30,125	18,813	959,702	552,887
-29,111	18,791	958,740	552,237
-28,096	18,791	958,190	551,899
-27,082	18,731	957,580	551,332
-26,067	18,748	956,710	550,864
-25,052	18,806	955,941	550,586
-24,038	18,728	955,327	549,961
-23,023	18,764	954,555	549,608
-22,009	18,815	953,754	549,291
-20,994	18,816	953,190	548,948
-19,979	18,738	952,765	548,429
-18,965	18,755	952,162	548,114
-17,950	18,766	951,457	547,722
-16,936	18,655	950,923	547,038
-15,921	18,709	950,123	546,729
-14,906	18,714	949,342	546,274
-13,892	18,712	948,560	545,797
-12,877	18,580	948,208	545,150
-11,863	18,599	947,555	544,812
-10,848	18,670	947,011	544,706
-9,833	18,753	946,426	544,614
-8,819	18,727	945,911	544,210
-7,804	18,644	945,266	543,553
-6,790	18,665	944,618	543,226
-5,775	18,685	944,220	543,039
-4,760	18,685	943,490	542,600
-3,746	18,648	942,825	542,076
-2,731	18,549	942,095	541,323
-1,717	18,467	941,370	540,623
-0,702	18,456	940,503	540,069
0,313	18,287	940,021	540,072
1,327	21,318	938,401	548,682
2,342	30,382	796,064	489,584
3,356	27,514	449,522	272,131
4,371	-1,802	295,487	149,495
5,386	-6,039	276,855	136,027
6,400	-7,331	271,216	132,040
7,415	-7,713	269,005	130,599
8,429	-7,474	267,618	130,134
9,444	-7,604	266,864	129,636
10,459	-7,735	266,097	129,131
11,473	-7,833	265,589	128,784
12,488	-7,811	265,040	128,527
13,502	-7,890	264,489	128,177
14,517	-7,828	264,014	127,991
15,531	-7,915	263,633	127,716
16,546	-7,855	263,311	127,603
17,561	-7,910	262,784	127,286
18,575	-7,999	262,656	127,133
19,590	-8,147	262,254	126,793
20,604	-8,157	262,063	126,681
21,619	-7,919	261,484	126,603
22,634	-8,073	261,261	126,347
23,648	-7,984	260,980	126,279
24,663	-8,006	260,698	126,112
25,677	-7,951	260,494	126,051
26,692	-8,037	260,171	125,807
27,707	-8,039	259,884	125,654
28,721	-8,088	259,653	125,488
29,736	-8,210	259,395	125,244
30,750	-8,083	259,118	125,211
31,765	-8,124	258,962	125,088
32,780	-8,112	258,690	124,956
33,794	-8,136	258,468	124,816
34,809	-8,176	258,204	124,643
35,823	-8,034	258,046	124,681
36,838	-7,991	257,757	124,569
37,853	-8,270	257,454	124,165
38,867	-8,293	257,264	124,041
39,882	-8,186	256,999	123,997
40,896	-8,256	256,788	123,822
41,911	-8,161	256,585	123,797
42,926	-8,262	256,391	123,603
43,940	-8,400	256,144	123,352
44,955	-8,198	255,803	123,354
45,969	-8,438	255,709	123,088
46,984	-8,545	255,375	122,822
47,999	-8,865	255,215	122,455
49,013	-8,951	254,882	122,208
50,028	-8,997	254,651	122,047
51,042	-8,918	254,320	121,946
52,057	-9,014	254,063	121,729
53,071	-9,025	253,817	121,590
54,086	-8,923	253,724	121,623
55,101	-8,715	253,657	121,761
56,115	-8,488	253,453	121,850
57,130	-8,084	253,446	122,186
58,144	-7,920	253,363	122,277
59,159	-7,817	252,878	122,122
60,174	-7,872	252,817	122,034
61,188	-7,803	252,504	121,931
62,203	-7,775	252,347	121,869
63,217	-7,992	252,186	121,593
64,232	-8,105	252,014	121,402
65,247	-7,978	251,751	121,374
66,261	-7,904	251,466	121,289
67,276	-8,448	251,278	120,720
68,290	-8,449	250,909	120,531
69,305	-8,464	250,778	120,444
70,320	-8,669	250,658	120,200
71,334	-8,264	250,493	120,457
72,349	-7,833	250,292	120,719
73,363	-7,551	250,021	120,819
74,378	-7,798	249,837	120,507
75,393	-8,019	249,787	120,284
76,407	-8,045	249,569	120,146
77,422	-8,120	249,300	119,942
78,436	-7,996	249,160	119,969
79,451	-8,079	248,824	119,727
80,466	-8,258	248,725	119,516
81,480	-8,310	248,386	119,299
82,495	-8,162	248,249	119,348
83,509	-8,277	248,083	119,159
84,524	-8,541	247,790	118,785
85,539	-8,592	247,580	118,630
86,553	-8,554	247,548	118,637
87,568	-8,328	247,235	118,667
88,582	-8,436	246,967	118,436
89,597	-8,476	246,935	118,377
90,611	-8,177	246,725	118,518
91,626	-8,258	246,718	118,435
92,641	-8,145	246,402	118,368
93,655	-8,295	246,336	118,200
94,670	-8,266	246,039	118,071
95,684	-8,263	245,999	118,044
96,699	-8,150	245,507	117,892
97,714	-8,393	245,473	117,661
98,728	-8,484	245,216	117,452
99,743	-8,367	244,834	117,356
100,757	-8,594	244,795	117,137
101,772	-8,635	244,701	117,048
102,787	-8,297	244,411	117,181
103,801	-8,309	244,393	117,152
104,816	-8,361	244,179	116,995
105,830	-8,201	244,069	117,065
106,845	-8,118	243,959	117,071
107,860	-8,080	243,689	116,962
108,874	-8,128	243,396	116,772
109,889	-8,317	243,170	116,496
110,903	-8,292	242,922	116,387
111,918	-8,272	242,851	116,360
112,933	-8,093	242,788	116,467
113,947	-8,109	242,701	116,402
114,962	-8,019	242,377	116,310
115,976	-8,193	242,338	116,138
116,991	-8,084	242,055	116,082
118,006	-8,033	241,915	116,046
119,020	-8,161	241,843	115,896
120,035	-8,157	241,631	115,787
121,049	-8,086	241,399	115,724
122,064	-8,155	241,379	115,648
123,079	-8,194	241,120	115,481
124,093	-8,353	240,806	115,190
125,108	-8,537	240,588	114,924
126,122	-8,529	240,371	114,817
127,137	-8,722	240,187	114,562
128,151	-8,589	240,190	114,661
129,166	-8,456	239,892	114,617
130,181	-8,614	239,788	114,428
131,195	-8,486	239,416	114,345
132,210	-8,290	239,330	114,453
133,224	-7,974	239,221	114,648
134,239	-7,884	238,911	114,563
135,254	-8,361	239,006	114,210
136,268	-8,205	238,719	114,190
137,283	-8,305	238,283	113,889
138,297	-8,536	238,169	113,637
139,312	-8,543	237,896	113,492
140,327	-7,988	237,815	113,892
141,341	-7,797	237,885	114,070
142,356	-7,706	237,858	114,120
143,370	-7,692	237,526	113,962
144,385	-7,896	237,532	113,790
145,400	-7,779	237,371	113,797
146,414	-7,875	237,138	113,598
147,429	-7,751	236,901	113,574
148,443	-7,978	236,793	113,330
149,458	-7,786	236,593	113,378
150,473	-7,728	236,368	113,307
151,487	-7,685	236,145	113,224
152,502	-7,902	236,087	113,013
153,516	-7,725	235,866	113,038
154,531	-7,853	235,786	112,887
155,546	-7,841	235,638	112,815
156,560	-8,087	235,476	112,531
157,575	-8,029	235,075	112,376
158,589	-7,961	235,043	112,405
159,604	-7,709	234,967	112,560
160,619	-7,725	234,836	112,474
161,633	-7,695	234,642	112,396
162,648	-7,545	234,441	112,408
163,662	-7,921	234,230	111,998
164,677	-7,961	234,231	111,957
165,692	-7,748	233,924	111,969
166,706	-7,770	233,865	111,914
167,721	-7,562	233,779	112,027
168,735	-7,681	233,661	111,867
169,750	-7,790	233,464	111,676
170,764	-7,731	233,301	111,635
171,779	-7,618	233,129	111,632
172,794	-7,603	232,904	111,526
173,808	-7,950	232,732	111,160
174,823	-8,298	232,318	110,679
175,837	-8,324	232,148	110,567
176,852	-8,146	232,245	110,743
177,867	-8,017	232,188	110,807
178,881	-7,821	232,110	110,915
179,896	-7,495	231,888	111,055
180,910	-7,749	231,721	110,765
181,925	-7,536	231,515	110,824
182,940	-7,701	231,327	110,595
183,954	-7,759	231,255	110,505
184,969	-7,480	231,052	110,617
185,983	-7,436	231,029	110,630
186,998	-7,527	230,870	110,473
188,013	-7,515	230,661	110,373
189,027	-7,562	230,450	110,226
190,042	-7,359	230,254	110,280
191,056	-7,467	230,163	110,142
192,071	-7,528	230,027	110,020
193,086	-7,611	229,883	109,877
194,100	-7,411	229,615	109,894
195,115	-7,347	229,313	109,790
196,129	-7,668	229,267	109,509
197,144	-3,498	230,806	113,487
198,159	1,560	232,173	118,106
199,173	3,365	232,627	119,739
200,188	3,551	232,478	119,796
201,202	3,604	232,295	119,733
202,217	3,614	232,240	119,702
203,232	4,078	232,219	120,042
204,246	4,111	232,093	119,992
205,261	4,232	231,902	119,977
206,275	4,447	231,883	120,124
207,290	4,381	231,631	119,931
208,304	4,408	231,518	119,883
209,319	4,230	231,254	119,597
210,334	4,430	231,089	119,657
211,348	4,106	230,698	119,193
212,363	3,757	230,571	118,846
213,377	3,465	230,328	118,485
214,392	3,489	230,241	118,447
215,407	3,679	230,218	118,572
216,421	3,817	230,064	118,588
217,436	3,513	229,744	118,179
218,450	3,163	229,663	117,857
219,465	3,093	229,463	117,690
220,480	3,334	229,200	117,730
221,494	3,165	229,313	117,648
222,509	3,530	229,067	117,791
223,523	3,500	228,868	117,656
224,538	3,378	228,741	117,486
225,553	3,277	228,738	117,396
226,567	3,335	228,586	117,353
227,582	3,776	228,516	117,644
228,596	3,815	228,308	117,556
229,611	3,582	228,005	117,212
230,626	3,243	227,774	116,823
231,640	3,292	227,638	116,780
232,655	3,568	227,669	116,997
233,669	4,037	227,688	117,354
234,684	4,222	227,405	117,339
235,699	3,875	227,367	117,044
236,713	3,478	227,065	116,577
237,728	3,620	226,795	116,536
238,742	3,429	226,539	116,248
239,757	3,480	226,385	116,198
240,772	3,512	226,311	116,174
241,786	3,462	226,207	116,072
242,801	3,699	226,122	116,197
243,815	3,858	226,157	116,325
244,830	3,846	225,990	116,220
245,844	3,677	225,778	115,973
246,859	3,403	225,609	115,669
247,874	3,842	225,446	115,906
248,888	3,692	225,315	115,716
249,903	3,703	224,925	115,513
250,917	3,660	224,826	115,419
251,932	3,608	224,812	115,363
252,947	3,453	224,590	115,123
253,961	3,471	224,485	115,072
254,976	3,407	224,366	114,953
255,990	3,650	224,393	115,138
257,005	3,639	224,244	115,043
258,020	3,768	224,081	115,046
259,034	3,774	224,083	115,041
260,049	3,690	223,646	114,744
261,063	3,624	223,624	114,673
262,078	3,611	223,657	114,671
263,093	3,747	223,442	114,651
264,107	3,960	223,128	114,638
265,122	3,790	223,066	114,470
266,136	3,914	222,971	114,503
267,151	3,933	222,800	114,419
268,166	3,304	222,651	113,865
269,180	3,454	222,253	113,763
270,195	3,614	222,108	113,797
271,209	3,427	221,962	113,573
272,224	3,336	221,959	113,495
273,239	3,374	221,885	113,474
274,253	3,502	221,712	113,471
275,268	3,395	221,500	113,273
276,282	3,299	221,251	113,065
277,297	3,179	221,079	112,878
278,312	3,332	220,945	112,913
279,326	3,467	220,982	113,021
280,341	3,630	220,846	113,061
281,355	3,475	220,631	112,827
282,370	3,554	220,495	112,806
283,384	3,185	220,231	112,389
284,399	3,188	220,109	112,319
285,414	3,058	220,090	112,204
286,428	3,384	219,894	112,333
287,443	3,759	219,745	112,522
288,457	3,632	219,736	112,414
289,472	3,321	219,545	112,079
290,487	3,227	219,195	111,821
291,501	3,066	219,098	111,644
292,516	3,111	218,986	111,610
293,530	3,271	218,868	111,657
294,545	3,237	218,742	111,558
295,560	3,259	218,714	111,550
296,574	3,409	218,534	111,557
297,589	3,489	218,443	111,559
298,603	3,740	218,284	111,650
299,618	3,535	218,085	111,389
300,633	3,482	218,112	111,355
301,647	3,812	217,954	111,504
302,662	3,586	217,973	111,340
303,676	3,455	217,765	111,128
304,691	3,785	217,404	111,173
305,706	3,798	217,315	111,127
306,720	3,698	217,186	110,979
307,735	3,508	216,995	110,735
308,749	3,305	216,921	110,540
309,764	3,375	216,741	110,489
310,779	3,756	216,664	110,715
311,793	3,601	216,549	110,534
312,808	3,812	216,364	110,582
313,822	3,445	216,222	110,236
314,837	3,865	215,965	110,396
315,852	3,463	215,891	110,060
316,866	3,362	215,812	109,938
317,881	3,657	215,676	110,070
318,895	3,501	215,494	109,855
319,910	3,491	215,286	109,732
320,925	3,216	215,169	109,466
321,939	2,858	215,051	109,141
322,954	2,987	214,878	109,135
323,968	3,347	214,897	109,393
324,983	3,474	214,654	109,349
325,997	3,711	214,678	109,521
327,012	3,767	214,448	109,433
328,027	3,585	214,280	109,208
329,041	3,748	214,332	109,341
330,056	3,882	214,216	109,368
331,070	3,684	213,868	109,040
332,085	3,260	213,689	108,638
333,100	3,678	213,467	108,812
334,114	3,554	213,522	108,743
335,129	3,538	213,379	108,648
336,143	3,486	213,175	108,498
337,158	3,375	213,031	108,336
338,173	3,532	212,787	108,314
339,187	3,314	212,854	108,184
340,202	3,120	212,631	107,924
341,216	3,011	212,416	107,728
342,231	3,340	212,217	107,850
343,246	3,267	212,247	107,804
344,260	3,312	212,109	107,756
345,275	3,296	211,914	107,636
346,289	3,484	211,878	107,740
347,304	3,372	211,826	107,626
348,319	3,611	211,470	107,603
349,333	3,549	211,464	107,546
350,348	3,541	211,336	107,466
351,362	3,631	211,293	107,498
352,377	3,713	211,028	107,411
353,392	3,513	210,865	107,178
354,406	3,749	210,877	107,340
355,421	195,339	1342,534	1428,253
356,435	156,004	1480,443	1428,292
