DTS Sentinel unit serial number:	SN410029Multiplexer serial number:	ORYXHardware model number:	OX2-SRSoftware version number:	ORYX F/W v4,00 Oryx Data Collector v3.7.2.0data status	okinstallation	B6 Nyhavnadifferential loss correction	single-endedforward channel	channel 2reverse channel	N/Adate	2023/12/11time	04:45:08forward acquisition time	300,00reverse acquisition time	0,00gamma	499,1914k internal	0,3126k external	0,3126temperature offset calibration	1,0000default loss term (dB/km)	0,3820temperature slope calibration	1,0000multiplexer offset coefficient	1,0000multiplexer slope coefficient	1,0000fibre end	0,00T internal ref (°C)	20,37T ext. ref 1 (°C)	3,17T ext. ref 2 (°C)	3,19length (m)	temperature (°C)	Stokes	anti-Stokes-744,400	-96,415	0,189	-0,037
-743,385	-151,909	-0,232	0,012
-742,371	262,051	0,028	0,037
-741,356	-200,000	0,006	0,101
-740,342	-90,288	0,186	-0,040
-739,327	131,183	-0,214	0,204
-738,312	181,114	0,076	-0,083
-737,298	-96,974	-0,234	0,045
-736,283	-135,110	0,056	-0,005
-735,269	40,709	-0,218	0,146
-734,254	-2,780	-0,026	-0,013
-733,239	2,173	-0,424	-0,227
-732,225	-25,874	0,108	-0,047
-731,210	800,000	-0,083	0,220
-730,196	565,645	-0,033	-0,060
-729,181	-55,744	-0,095	0,031
-728,167	-163,626	0,052	-0,002
-727,152	90,917	0,038	-0,031
-726,137	-64,422	-0,129	0,039
-725,123	147,725	0,004	-0,004
-724,108	800,000	-0,062	-0,152
-723,094	26,703	-0,195	-0,121
-722,079	-8,988	-0,137	0,068
-721,064	-126,720	-0,023	-0,002
-720,050	9,947	0,044	0,025
-719,035	-67,203	0,063	-0,018
-718,021	294,421	-0,035	-0,048
-717,006	-0,478	-0,070	-0,037
-715,991	150,896	-0,064	-0,065
-714,977	-4,679	-0,103	0,052
-713,962	-61,204	-0,052	0,016
-712,948	-200,000	-0,040	0,148
-711,933	621,402	0,066	0,124
-710,918	33,020	-0,131	-0,085
-709,904	800,000	0,047	-0,137
-708,889	-164,887	0,076	-0,002
-707,875	-200,000	0,009	-0,095
-706,860	37,975	-0,112	-0,074
-705,845	-184,720	-0,058	0,001
-704,831	-200,000	0,012	0,149
-703,816	254,318	0,081	0,103
-702,802	-105,254	-0,099	0,017
-701,787	-200,000	-0,023	-0,086
-700,772	272,820	-0,050	-0,066
-699,758	800,000	-0,017	-0,051
-698,743	-17,083	0,096	-0,045
-697,729	-3,493	0,088	0,045
-696,714	-112,032	0,098	-0,014
-695,699	105,381	-0,099	0,087
-694,685	-200,000	0,044	-0,163
-693,670	-200,000	0,014	-0,050
-692,656	-200,000	0,010	0,058
-691,641	-85,547	0,069	-0,016
-690,627	-200,000	0,004	0,030
-689,612	-151,240	0,010	0,001
-688,597	-115,795	-0,030	-0,004
-687,583	-200,000	-0,027	0,182
-686,568	800,000	0,029	-0,082
-685,554	170,437	0,020	-0,022
-684,539	46,709	-0,154	-0,106
-683,524	-200,000	-0,005	0,072
-682,510	9,537	0,129	0,072
-681,495	-25,428	-0,106	-0,046
-680,481	190,228	-0,121	-0,135
-679,466	450,180	-0,038	0,062
-678,451	-200,000	0,001	-0,032
-677,437	800,000	0,041	-0,132
-676,422	236,463	-0,097	0,119
-675,408	-200,000	-0,024	-0,142
-674,393	-3,187	0,046	0,024
-673,378	56,445	-0,108	-0,078
-672,364	-200,000	0,009	-0,097
-671,349	-93,804	0,057	-0,012
-670,335	-200,000	-0,007	0,128
-669,320	55,721	-0,041	0,029
-668,305	685,030	0,027	0,053
-667,291	-200,000	-0,029	-0,128
-666,276	52,454	-0,089	-0,063
-665,262	599,327	-0,073	-0,135
-664,247	470,166	-0,010	-0,017
-663,232	47,280	0,043	-0,030
-662,218	800,000	-0,005	-0,012
-661,203	-6,988	-0,092	0,046
-660,189	237,594	-0,087	0,107
-659,174	-53,766	0,035	0,012
-658,159	781,144	-0,093	-0,190
-657,145	-72,159	-0,063	-0,017
-656,130	290,433	-0,129	-0,174
-655,116	61,368	-0,069	-0,051
-654,101	29,716	0,013	-0,008
-653,086	-43,943	-0,048	-0,018
-652,072	385,374	-0,044	-0,068
-651,057	-29,896	0,045	0,019
-650,043	48,703	-0,073	-0,051
-649,028	53,584	-0,089	-0,063
-648,014	94,503	-0,007	0,006
-646,999	800,000	0,011	-0,027
-645,984	-33,142	0,093	-0,038
-644,970	238,903	0,096	-0,119
-643,955	266,190	-0,032	0,042
-642,941	800,000	-0,038	-0,123
-641,926	-200,000	0,021	-0,134
-640,911	-15,493	0,111	-0,052
-639,897	-87,873	0,012	-0,003
-638,882	178,462	-0,072	-0,078
-637,868	-107,965	-0,108	0,017
-636,853	6,566	0,024	-0,013
-635,838	800,000	-0,020	0,044
-634,824	-200,000	0,018	-0,091
-633,809	-200,000	0,033	0,212
-632,795	-91,123	-0,049	0,010
-631,780	-146,947	0,062	0,004
-630,765	110,130	0,073	0,065
-629,751	136,200	0,088	-0,085
-628,736	511,900	0,072	0,125
-627,722	-200,000	-0,002	0,081
-626,707	-10,250	0,065	0,032
-625,692	101,192	-0,141	0,121
-624,678	207,541	-0,060	0,069
-623,663	173,591	-0,070	0,075
-622,649	100,131	-0,119	-0,103
-621,634	577,405	-0,076	-0,138
-620,619	83,366	-0,081	-0,066
-619,605	800,000	-0,010	0,029
-618,590	22,924	0,102	0,062
-617,576	-114,643	-0,075	-0,010
-616,561	-200,000	-0,005	-0,029
-615,546	308,014	-0,041	-0,056
-614,532	81,588	-0,105	-0,084
-613,517	-200,000	0,012	-0,065
-612,503	3,626	-0,071	-0,038
-611,488	-200,000	0,034	-0,143
-610,474	10,916	-0,052	0,029
-609,459	-200,000	-0,024	-0,143
-608,444	-48,214	-0,063	-0,022
-607,430	-200,000	0,007	-0,084
-606,415	-200,000	0,007	-0,094
-605,401	-152,481	-0,033	0,002
-604,386	-200,000	0,021	0,107
-603,371	-135,751	0,116	0,010
-602,357	-200,000	0,013	-0,086
-601,342	99,846	-0,110	-0,094
-600,328	219,773	-0,019	0,022
-599,313	58,066	-0,113	-0,082
-598,298	142,828	-0,041	-0,040
-597,284	39,455	0,134	-0,089
-596,269	-200,000	-0,018	-0,067
-595,255	-200,000	0,027	-0,144
-594,240	91,539	0,060	0,050
-593,225	20,166	-0,065	0,039
-592,211	154,749	0,062	-0,063
-591,196	64,458	0,107	0,080
-590,182	208,882	-0,055	-0,063
-589,167	-68,870	0,125	0,036
-588,152	800,000	0,020	-0,053
-587,138	-200,000	-0,017	0,078
-586,123	800,000	0,052	-0,159
-585,109	-77,366	-0,022	0,006
-584,094	-123,033	0,070	-0,008
-583,079	0,306	-0,040	-0,021
-582,065	800,000	0,042	-0,091
-581,050	-2,053	-0,030	0,015
-580,036	-108,152	0,049	0,008
-579,021	-23,132	-0,098	0,043
-578,006	-200,000	-0,036	-0,165
-576,992	-34,519	0,071	-0,029
-575,977	198,187	-0,034	0,038
-574,963	8,111	0,090	-0,050
-573,948	145,429	0,002	0,002
-572,934	-200,000	0,036	0,183
-571,919	47,031	0,034	0,023
-570,904	800,000	-0,018	-0,057
-569,890	4,578	-0,195	0,106
-568,875	-200,000	0,029	0,188
-567,861	-200,000	0,036	0,206
-566,846	178,873	0,070	0,076
-565,831	398,587	-0,042	-0,065
-564,817	168,240	0,043	0,045
-563,802	-92,998	-0,142	0,029
-562,788	-200,000	-0,011	-0,135
-561,773	348,038	-0,034	-0,050
-560,758	195,591	0,099	-0,112
-559,744	749,005	0,046	0,091
-558,729	567,422	0,057	-0,103
-557,715	547,616	-0,084	-0,149
-556,700	520,385	-0,072	-0,125
-555,685	-63,646	-0,083	-0,025
-554,671	800,000	0,016	0,038
-553,656	-200,000	-0,013	0,069
-552,642	800,000	-0,027	0,067
-551,627	800,000	0,043	-0,108
-550,612	-103,105	-0,049	-0,008
-549,598	-82,328	-0,117	-0,028
-548,583	15,534	0,088	-0,051
-547,569	-126,850	-0,044	0,005
-546,554	204,239	0,133	0,152
-545,539	-44,205	0,067	0,025
-544,525	449,507	-0,028	-0,046
-543,510	-200,000	-0,040	-0,134
-542,496	85,023	-0,136	-0,110
-541,481	-81,849	0,139	-0,033
-540,466	625,970	-0,033	0,062
-539,452	222,837	0,051	-0,060
-538,437	267,760	0,140	-0,181
-537,423	-46,209	-0,061	-0,022
-536,408	800,000	0,042	0,086
-535,393	800,000	-0,076	-0,187
-534,379	436,614	-0,011	-0,017
-533,364	800,000	-0,069	-0,146
-532,350	-200,000	0,021	0,097
-531,335	-145,505	0,145	-0,009
-530,321	126,268	-0,099	0,092
-529,306	-39,978	-0,100	0,038
-528,291	-200,000	-0,029	-0,133
-527,277	-160,751	-0,195	0,007
-526,262	225,647	-0,011	0,014
-525,248	800,000	0,024	-0,065
-524,233	-200,000	0,016	0,091
-523,218	137,480	0,067	-0,065
-522,204	4,300	-0,150	0,081
-521,189	74,898	-0,003	0,002
-520,175	800,000	-0,060	-0,161
-519,160	-128,510	0,049	0,005
-518,145	800,000	-0,010	0,026
-517,131	-200,000	0,007	0,026
-516,116	253,778	0,039	-0,049
-515,102	-46,773	-0,043	-0,015
-514,087	-9,395	-0,099	-0,049
-513,072	212,199	-0,113	-0,132
-512,058	6,410	-0,111	-0,061
-511,043	-171,669	-0,024	0,001
-510,029	-67,922	-0,119	-0,034
-509,014	-71,596	0,113	-0,031
-507,999	-200,000	-0,034	-0,172
-506,985	31,955	-0,023	-0,015
-505,970	-4,555	-0,106	-0,054
-504,956	348,682	0,011	0,015
-503,941	29,487	0,039	0,024
-502,926	-200,000	0,000	-0,093
-501,912	-200,000	0,015	-0,059
-500,897	68,718	0,029	0,022
-499,883	221,723	-0,046	-0,055
-498,868	-127,173	0,108	-0,012
-497,853	-32,812	0,020	0,008
-496,839	440,042	-0,002	-0,003
-495,824	-163,019	0,161	0,006
-494,810	800,000	0,067	-0,141
-493,795	-18,465	-0,036	-0,017
-492,781	-200,000	0,006	-0,031
-491,766	-200,000	0,003	0,041
-490,751	149,176	0,050	-0,050
-489,737	-200,000	-0,030	0,116
-488,722	20,942	0,093	0,055
-487,708	-200,000	0,013	0,156
-486,693	-43,701	-0,081	0,030
-485,678	-200,000	-0,014	-0,080
-484,664	-5,241	-0,085	-0,043
-483,649	-76,806	0,083	-0,021
-482,635	147,644	-0,049	-0,048
-481,620	127,110	0,129	0,121
-480,605	-200,000	0,042	0,165
-479,591	543,120	-0,005	0,008
-478,576	-68,540	-0,184	-0,052
-477,562	-200,000	0,011	-0,064
-476,547	-49,656	0,035	-0,012
-475,532	-173,497	0,075	0,002
-474,518	800,000	-0,028	0,080
-473,503	145,111	0,007	-0,007
-472,489	800,000	-0,071	0,147
-471,474	-96,423	0,120	0,023
-470,459	-110,396	0,015	0,002
-469,445	-113,468	0,099	0,014
-468,430	-128,387	0,094	-0,010
-467,416	-200,000	-0,007	0,139
-466,401	68,869	0,026	-0,020
-465,386	-65,390	0,048	0,014
-464,372	0,190	0,068	-0,036
-463,357	-23,687	-0,139	-0,061
-462,343	190,361	-0,063	0,070
-461,328	183,941	0,069	0,076
-460,313	-102,357	0,057	-0,010
-459,299	-107,049	0,038	0,006
-458,284	297,669	-0,060	0,081
-457,270	-103,793	-0,104	0,018
-456,255	-9,551	-0,076	-0,037
-455,241	-11,971	-0,145	-0,070
-454,226	-121,796	-0,088	-0,011
-453,211	450,513	-0,027	0,044
-452,197	-100,767	-0,058	-0,010
-451,182	505,203	0,046	0,079
-450,168	305,503	-0,076	-0,104
-449,153	-62,616	0,078	-0,024
-448,138	496,088	-0,069	0,117
-447,124	-200,000	-0,031	0,119
-446,109	27,223	0,106	-0,065
-445,095	-152,722	0,078	0,004
-444,080	363,298	-0,026	0,038
-443,065	152,929	-0,169	0,170
-442,051	-200,000	-0,047	0,280
-441,036	-200,000	0,041	0,142
-440,022	552,390	0,013	0,023
-439,007	82,055	0,061	-0,049
-437,992	552,493	-0,008	0,014
-436,978	171,746	0,049	0,052
-435,963	118,561	0,061	0,056
-434,949	800,000	-0,026	-0,078
-433,934	-152,981	0,032	0,002
-432,919	662,557	-0,019	-0,036
-431,905	-200,000	0,002	0,068
-430,890	-87,684	0,075	0,017
-429,876	420,290	0,076	0,120
-428,861	560,255	0,042	0,075
-427,846	113,379	0,043	0,039
-426,832	-200,000	0,006	0,022
-425,817	77,885	-0,090	0,071
-424,803	-129,043	0,064	-0,006
-423,788	-200,000	0,013	0,091
-422,773	39,872	0,099	0,065
-421,759	-200,000	0,011	-0,051
-420,744	64,831	-0,073	-0,054
-419,730	-74,561	-0,089	0,023
-418,715	783,080	-0,020	-0,040
-417,701	303,967	-0,090	-0,123
-416,686	5,121	-0,089	-0,048
-415,671	800,000	-0,037	-0,099
-414,657	-200,000	0,006	0,122
-413,642	353,542	-0,058	0,084
-412,628	110,312	-0,076	-0,067
-411,613	-200,000	-0,002	-0,043
-410,598	800,000	0,041	0,089
-409,584	633,689	-0,020	-0,037
-408,569	36,563	0,116	-0,075
-407,555	-17,098	0,038	-0,018
-406,540	170,063	0,017	-0,018
-405,525	-160,205	-0,107	-0,004
-404,511	308,941	-0,078	-0,108
-403,496	-96,884	0,046	-0,009
-402,482	96,460	0,063	0,053
-401,467	16,076	-0,096	0,056
-400,452	800,000	-0,029	0,064
-399,438	-184,895	0,126	0,001
-398,423	-30,621	-0,135	0,056
-397,409	340,476	0,036	0,052
-396,394	800,000	-0,056	-0,148
-395,379	-139,603	0,088	-0,007
-394,365	800,000	-0,018	0,051
-393,350	-80,132	0,049	-0,012
-392,336	16,388	0,029	-0,017
-391,321	-29,443	0,047	0,020
-390,306	465,081	-0,037	0,061
-389,292	131,836	-0,026	0,025
-388,277	800,000	-0,038	-0,117
-387,263	800,000	-0,049	0,123
-386,248	-6,608	0,065	-0,032
-385,233	280,737	-0,076	0,100
-384,219	68,103	-0,027	0,020
-383,204	-153,015	0,135	-0,007
-382,190	45,952	-0,118	-0,080
-381,175	-13,113	0,134	-0,064
-380,160	800,000	-0,037	0,093
-379,146	45,559	-0,080	0,054
-378,131	83,684	0,045	-0,036
-377,117	-200,000	-0,029	-0,097
-376,102	-116,496	0,139	0,019
-375,088	-200,000	-0,007	0,229
-374,073	-200,000	-0,041	-0,139
-373,058	-200,000	0,041	0,147
-372,044	230,369	-0,055	0,066
-371,029	235,685	0,073	0,089
-370,015	-123,538	-0,021	-0,002
-369,000	36,625	-0,116	0,075
-367,985	602,005	-0,071	-0,130
-366,971	-81,788	-0,061	-0,014
-365,956	122,342	0,150	0,138
-364,942	82,986	-0,004	-0,003
-363,927	450,738	-0,019	0,031
-362,912	-200,000	0,010	0,106
-361,898	114,915	-0,074	-0,067
-360,883	-131,708	0,035	-0,003
-359,869	-76,199	0,089	-0,023
-358,854	318,222	-0,010	0,013
-357,839	399,454	-0,055	0,084
-356,825	-200,000	0,023	0,128
-355,810	58,205	-0,114	0,082
-354,796	-200,000	0,019	-0,128
-353,781	466,097	0,030	-0,049
-352,766	-200,000	0,015	0,073
-351,752	-200,000	-0,025	-0,155
-350,737	39,966	0,149	0,098
-349,723	-200,000	-0,008	0,057
-348,708	134,757	-0,137	-0,131
-347,693	44,532	0,048	0,033
-346,679	800,000	0,022	-0,046
-345,664	-200,000	0,009	-0,076
-344,650	-71,551	0,040	-0,011
-343,635	-98,411	0,109	0,020
-342,620	88,292	-0,026	0,021
-341,606	0,244	-0,057	-0,030
-340,591	283,372	-0,049	0,064
-339,577	136,933	0,056	0,053
-338,562	-200,000	0,009	0,044
-337,548	40,726	-0,047	0,031
-336,533	368,391	0,047	-0,070
-335,518	12,272	0,049	0,027
-334,504	225,841	0,091	0,108
-333,489	-200,000	-0,026	0,088
-332,475	-200,000	-0,003	-0,112
-331,460	-200,000	0,022	-0,104
-330,445	-64,082	-0,069	-0,020
-329,431	800,000	0,016	0,048
-328,416	800,000	-0,034	0,099
-327,402	82,224	0,092	-0,073
-326,387	-72,077	-0,106	-0,029
-325,372	800,000	-0,041	-0,122
-324,358	-103,974	-0,099	-0,017
-323,343	800,000	-0,037	0,114
-322,329	-50,973	-0,118	0,040
-321,314	49,571	0,159	-0,110
-320,299	81,039	0,081	0,064
-319,285	800,000	0,027	0,085
-318,270	127,657	-0,067	-0,062
-317,256	-200,000	0,024	0,156
-316,241	-200,000	0,008	-0,056
-315,226	-129,082	0,123	-0,012
-314,212	800,000	-0,011	0,024
-313,197	-83,780	0,095	-0,022
-312,183	800,000	-0,019	-0,052
-311,168	144,149	-0,053	0,052
-310,153	-155,465	0,026	0,001
-309,139	23,609	-0,128	0,077
-308,124	61,394	0,083	-0,060
-307,110	63,058	0,109	0,080
-306,095	-200,000	-0,008	-0,046
-305,080	-114,821	-0,117	0,016
-304,066	-87,979	-0,089	0,019
-303,051	753,795	0,023	-0,045
-302,037	14,627	-0,029	0,017
-301,022	66,306	-0,066	0,049
-300,008	3,173	0,129	0,068
-298,993	-168,396	0,099	0,003
-297,978	800,000	-0,016	-0,035
-296,964	-39,559	-0,113	0,043
-295,949	219,940	-0,086	0,101
-294,935	-94,071	-0,211	0,042
-293,920	-141,433	0,042	-0,003
-292,905	-138,640	0,154	-0,012
-291,891	44,074	0,039	-0,026
-290,876	-64,129	-0,149	0,044
-289,862	-152,890	0,099	-0,005
-288,847	800,000	-0,052	-0,120
-287,832	458,584	0,061	-0,099
-286,818	-83,427	-0,110	-0,025
-285,803	-76,931	0,135	-0,034
-284,789	598,927	-0,055	0,101
-283,774	-200,000	-0,023	-0,099
-282,759	-200,000	0,002	0,009
-281,745	254,970	0,032	0,040
-280,730	162,788	0,084	0,087
-279,716	247,482	0,025	0,031
-278,701	546,497	0,082	-0,143
-277,686	629,820	0,035	0,066
-276,672	4,186	-0,071	-0,038
-275,657	-43,566	-0,052	-0,019
-274,643	291,917	-0,045	0,060
-273,628	-200,000	-0,003	0,066
-272,613	800,000	0,010	-0,033
-271,599	161,466	-0,077	0,079
-270,584	-180,323	0,030	0,000
-269,570	216,940	-0,099	-0,115
-268,555	-200,000	0,001	-0,021
-267,540	68,331	0,079	-0,059
-266,526	-60,542	-0,173	-0,053
-265,511	627,850	0,012	0,023
-264,497	170,564	0,107	-0,112
-263,482	-200,000	-0,010	0,089
-262,467	180,662	0,059	0,063
-261,453	108,235	-0,049	0,043
-260,438	-200,000	-0,045	-0,161
-259,424	273,246	-0,109	-0,141
-258,409	-97,672	-0,185	0,035
-257,395	-30,321	0,111	0,046
-256,380	-185,978	0,156	0,002
-255,365	-30,998	0,091	0,037
-254,351	27,190	0,114	0,070
-253,336	767,595	0,021	0,043
-252,322	598,307	-0,012	-0,022
-251,307	409,489	0,049	-0,075
-250,292	-71,422	-0,063	-0,017
-249,278	4,679	0,068	-0,036
-248,263	705,590	-0,084	0,163
-247,249	89,341	-0,017	-0,014
-246,234	67,133	0,071	0,052
-245,219	800,000	0,030	-0,091
-244,205	-200,000	-0,014	-0,053
-243,190	102,511	0,022	0,019
-242,176	-19,522	0,041	-0,019
-241,161	800,000	-0,031	0,075
-240,146	800,000	-0,015	0,040
-239,132	800,000	-0,012	0,035
-238,117	19,990	0,072	-0,043
-237,103	-21,303	0,087	-0,039
-236,088	-200,000	-0,025	-0,140
-235,073	-162,738	-0,029	0,001
-234,059	-200,000	-0,005	-0,073
-233,044	-94,201	-0,090	0,018
-232,030	127,113	0,061	0,056
-231,015	583,781	-0,013	-0,024
-230,000	800,000	0,042	-0,099
-228,986	-137,749	-0,087	0,007
-227,971	-78,022	0,122	0,030
-226,957	0,772	0,036	-0,019
-225,942	644,875	-0,045	0,085
-224,927	83,994	0,091	0,073
-223,913	-200,000	0,005	0,042
-222,898	115,944	-0,081	-0,072
-221,884	-200,000	0,007	-0,069
-220,869	-200,000	-0,007	0,109
-219,855	800,000	-0,031	0,078
-218,840	-200,000	0,009	0,098
-217,825	-200,000	-0,006	0,030
-216,811	36,709	0,049	-0,031
-215,796	-166,774	-0,099	0,003
-214,782	-200,000	-0,011	0,097
-213,767	800,000	-0,028	-0,081
-212,752	-106,693	0,062	-0,010
-211,738	-200,000	0,003	-0,061
-210,723	39,706	-0,019	0,012
-209,709	91,992	-0,083	0,068
-208,694	62,404	-0,075	-0,054
-207,679	74,529	0,019	0,015
-206,665	-91,893	0,092	-0,019
-205,650	800,000	0,035	0,074
-204,636	226,014	-0,036	-0,043
-203,621	44,383	0,107	0,072
-202,606	180,963	-0,011	-0,012
-201,592	-200,000	-0,018	0,108
-200,577	-168,986	0,084	-0,002
-199,563	26,166	0,068	-0,042
-198,548	-200,000	-0,018	0,154
-197,533	-107,993	0,131	0,021
-196,519	-111,466	0,080	0,012
-195,504	131,602	-0,077	-0,072
-194,490	-52,467	0,107	0,036
-193,475	-200,000	-0,016	-0,090
-192,460	-66,252	-0,105	-0,030
-191,446	-200,000	0,003	0,044
-190,431	-200,000	-0,001	0,115
-189,417	-13,118	-0,038	0,018
-188,402	-192,482	0,054	0,000
-187,387	-200,000	0,005	-0,038
-186,373	-200,000	0,017	-0,143
-185,358	-141,404	-0,148	-0,011
-184,344	800,000	0,039	0,112
-183,329	-13,742	0,161	-0,076
-182,315	-73,659	0,140	-0,037
-181,300	800,000	-0,029	0,068
-180,285	137,219	0,119	-0,113
-179,271	465,685	-0,036	-0,058
-178,256	-176,345	0,066	0,001
-177,242	-82,493	0,136	0,032
-176,227	612,713	0,012	-0,021
-175,212	-200,000	0,029	-0,130
-174,198	-156,461	-0,147	-0,007
-173,183	-200,000	-0,033	-0,131
-172,169	114,228	0,075	-0,066
-171,154	249,448	-0,026	0,033
-170,139	-122,290	0,184	-0,022
-169,125	-200,000	0,024	0,107
-168,110	226,938	0,096	0,113
-167,096	326,945	0,034	0,048
-166,081	-125,522	-0,126	0,014
-165,066	261,402	0,064	-0,081
-164,052	67,978	0,069	-0,052
-163,037	-41,083	0,134	0,050
-162,023	800,000	0,022	0,063
-161,008	-30,519	-0,172	0,071
-159,993	-200,000	0,028	0,153
-158,979	151,974	-0,065	0,065
-157,964	-192,933	-0,097	-0,001
-156,950	-200,000	0,000	-0,148
-155,935	-59,441	0,140	0,044
-154,920	-42,104	-0,074	0,027
-153,906	44,166	-0,134	0,089
-152,891	-200,000	0,024	0,095
-151,877	800,000	-0,027	-0,058
-150,862	-178,899	0,055	0,001
-149,847	41,816	-0,109	-0,072
-148,833	-200,000	0,013	-0,078
-147,818	203,726	0,055	0,062
-146,804	94,522	0,097	0,080
-145,789	-144,983	-0,102	-0,007
-144,775	-0,782	-0,096	-0,049
-143,760	-99,176	-0,023	-0,004
-142,745	800,000	-0,027	-0,066
-141,731	-200,000	0,003	-0,025
-140,716	-41,150	0,069	0,026
-139,702	279,320	0,041	0,054
-138,687	18,581	-0,092	0,054
-137,672	2,377	-0,117	0,061
-136,658	-200,000	0,017	-0,055
-135,643	92,479	0,030	-0,025
-134,629	776,787	0,033	0,066
-133,614	-200,000	0,019	0,083
-132,599	-35,060	-0,088	0,035
-131,585	800,000	0,058	0,144
-130,570	249,257	-0,056	-0,069
-129,556	158,703	0,019	0,019
-128,541	-131,564	-0,166	-0,016
-127,526	51,779	0,123	0,085
-126,512	-200,000	0,031	-0,110
-125,497	800,000	0,014	0,044
-124,483	-200,000	0,019	-0,145
-123,468	0,087	0,132	-0,068
-122,453	689,438	0,041	-0,078
-121,439	369,709	-0,077	-0,114
-120,424	-200,000	-0,024	0,138
-119,410	-200,000	-0,010	0,084
-118,395	-119,516	0,054	-0,007
-117,380	-200,000	0,039	0,132
-116,366	-200,000	0,024	0,096
-115,351	306,159	-0,020	-0,027
-114,337	104,718	0,018	0,016
-113,322	-77,493	0,122	0,030
-112,307	-17,990	0,018	0,008
-111,293	-200,000	-0,012	0,060
-110,278	-5,946	0,084	0,042
-109,264	111,522	-0,042	0,037
-108,249	331,802	0,031	0,044
-107,234	-52,690	-0,113	-0,038
-106,220	-200,000	0,011	-0,063
-105,205	297,259	0,097	0,130
-104,191	17,559	0,008	0,004
-103,176	-200,000	0,003	0,050
-102,162	-35,150	-0,016	0,006
-101,147	640,915	0,027	-0,049
-100,132	800,000	-0,036	-0,090
-99,118	-115,803	-0,050	-0,007
-98,103	10,593	0,093	-0,052
-97,089	114,702	0,029	0,026
-96,074	59,189	0,086	0,062
-95,059	65,920	0,055	-0,040
-94,045	450,468	0,025	-0,041
-93,030	126,830	-0,059	-0,055
-92,016	50,307	-0,055	0,038
-91,001	-78,829	-0,193	-0,047
-89,986	800,000	0,042	0,133
-88,972	184,524	0,101	0,109
-87,957	70,703	0,094	0,071
-86,943	39,646	0,136	0,088
-85,928	122,060	-0,027	0,024
-84,913	-152,773	0,096	0,005
-83,899	-200,000	0,002	-0,032
-82,884	-115,441	0,195	0,026
-81,870	-200,000	0,013	0,045
-80,855	362,389	0,052	-0,076
-79,840	800,000	-0,012	0,035
-78,826	-200,000	0,021	-0,172
-77,811	84,701	-0,028	-0,022
-76,797	104,866	0,039	-0,033
-75,782	325,258	-0,012	0,017
-74,767	-200,000	-0,025	-0,093
-73,753	800,000	0,011	-0,024
-72,738	-200,000	0,030	0,101
-71,724	-137,143	-0,153	-0,013
-70,709	28,897	-0,053	-0,033
-69,694	-62,167	0,024	-0,007
-68,680	800,000	-0,037	-0,077
-67,665	104,174	0,131	0,112
-66,651	800,000	-0,071	-0,162
-65,636	-200,000	0,015	-0,075
-64,622	-200,000	0,002	-0,107
-63,607	50,078	-0,125	0,085
-62,592	-7,185	-0,082	-0,040
-61,578	503,869	-0,038	0,064
-60,563	-174,538	-0,078	-0,002
-59,549	800,000	-0,087	0,195
-58,534	-70,995	-1,486	-0,403
-57,519	800,000	-0,647	-1,416
-56,505	-200,000	-1,100	-4,656
-55,490	-188,231	0,782	-0,007
-54,476	800,000	5,148	11,970
-53,461	-200,000	14,894	264,906
-52,446	-200,000	699,281	2245,196
-51,432	576,861	1622,767	2886,517
-50,417	121,047	1630,210	1470,368
-49,403	80,593	1284,846	1002,585
-48,388	37,971	1023,725	658,381
-47,373	22,870	983,758	582,934
-46,359	21,978	972,767	573,466
-45,344	20,670	968,500	566,644
-44,330	20,723	967,124	565,992
-43,315	20,489	965,687	564,362
-42,300	20,484	964,565	563,669
-41,286	20,510	963,663	563,203
-40,271	20,445	962,658	562,382
-39,257	20,441	961,948	561,933
-38,242	20,416	961,166	561,372
-37,227	20,351	960,352	560,662
-36,213	20,372	959,139	560,001
-35,198	20,356	958,431	559,513
-34,184	20,357	957,845	559,152
-33,169	20,365	956,729	558,505
-32,154	20,497	955,727	558,324
-31,140	20,448	954,934	557,682
-30,125	20,502	954,297	557,462
-29,111	20,438	953,446	556,737
-28,096	20,384	952,865	556,201
-27,082	20,431	951,909	555,772
-26,067	20,396	951,153	555,196
-25,052	20,459	950,240	554,843
-24,038	20,419	949,748	554,406
-23,023	20,387	949,135	553,924
-22,009	20,454	948,461	553,723
-20,994	20,450	947,825	553,317
-19,979	20,415	947,508	552,998
-18,965	20,400	946,567	552,378
-17,950	20,429	946,081	552,166
-16,936	20,340	945,521	551,531
-15,921	20,345	944,669	551,029
-14,906	20,297	944,024	550,478
-13,892	20,302	943,212	549,998
-12,877	20,250	942,664	549,490
-11,863	20,212	942,253	549,108
-10,848	20,234	941,762	548,871
-9,833	20,390	941,080	548,949
-8,819	20,380	940,512	548,562
-7,804	20,321	939,856	547,972
-6,790	20,262	939,509	547,558
-5,775	20,306	938,694	547,201
-4,760	20,268	938,066	546,695
-3,746	20,236	937,655	546,330
-2,731	20,166	936,750	545,560
-1,717	20,055	936,260	544,902
-0,702	20,140	935,480	544,695
0,313	20,004	934,806	544,697
1,327	23,175	932,673	553,396
2,342	32,776	794,486	496,954
3,356	30,115	450,853	277,976
4,371	-1,010	295,567	150,948
5,386	-5,261	276,863	137,327
6,400	-6,956	271,144	132,892
7,415	-7,272	268,857	131,467
8,429	-6,916	267,649	131,193
9,444	-6,782	266,684	130,832
10,459	-6,651	266,149	130,679
11,473	-6,790	265,433	130,188
12,488	-6,931	264,993	129,832
13,502	-7,045	264,441	129,445
14,517	-6,866	264,126	129,443
15,531	-6,592	263,852	129,546
16,546	-6,489	263,559	129,484
17,561	-6,473	262,958	129,192
18,575	-6,430	262,748	129,116
19,590	-6,571	262,425	128,819
20,604	-6,251	262,197	128,985
21,619	-6,496	261,827	128,570
22,634	-6,615	261,479	128,280
23,648	-6,547	261,141	128,165
24,663	-6,500	260,797	128,026
25,677	-6,619	260,742	127,881
26,692	-6,634	260,413	127,695
27,707	-6,386	260,088	127,746
28,721	-6,678	259,937	127,399
29,736	-6,722	259,568	127,168
30,750	-6,537	259,422	127,250
31,765	-6,690	259,182	126,984
32,780	-6,749	258,975	126,819
33,794	-6,706	258,624	126,674
34,809	-6,572	258,474	126,708
35,823	-6,714	258,315	126,493
36,838	-6,617	257,936	126,382
37,853	-6,724	257,743	126,181
38,867	-6,648	257,464	126,101
39,882	-6,568	257,283	126,072
40,896	-6,849	257,250	125,796
41,911	-6,630	256,815	125,765
42,926	-6,812	256,632	125,504
43,940	-6,769	256,354	125,395
44,955	-6,626	256,109	125,389
45,969	-6,869	255,955	125,089
46,984	-6,941	255,703	124,892
47,999	-6,873	255,421	124,803
49,013	-7,126	255,194	124,458
50,028	-7,105	254,985	124,364
51,042	-7,452	254,578	123,850
52,057	-7,506	254,408	123,709
53,071	-7,417	254,415	123,780
54,086	-7,450	254,132	123,601
55,101	-7,181	254,032	123,777
56,115	-7,101	253,936	123,789
57,130	-6,653	253,639	124,024
58,144	-6,477	253,497	124,097
59,159	-6,632	253,392	123,899
60,174	-6,519	253,110	123,849
61,188	-6,564	252,895	123,693
62,203	-6,560	252,679	123,580
63,217	-6,644	252,419	123,369
64,232	-6,554	252,228	123,342
65,247	-6,688	252,139	123,172
66,261	-6,769	251,797	122,924
67,276	-6,695	251,505	122,834
68,290	-6,864	251,281	122,569
69,305	-7,192	251,182	122,226
70,320	-7,014	251,058	122,308
71,334	-6,712	250,694	122,380
72,349	-6,455	250,632	122,560
73,363	-6,480	250,404	122,416
74,378	-6,561	250,310	122,290
75,393	-6,734	249,995	121,976
76,407	-6,605	249,752	121,957
77,422	-6,600	249,621	121,887
78,436	-6,627	249,366	121,728
79,451	-6,885	249,258	121,444
80,466	-6,766	249,066	121,441
81,480	-6,829	248,756	121,226
82,495	-6,737	248,579	121,207
83,509	-6,906	248,348	120,940
84,524	-6,891	248,147	120,844
85,539	-6,861	247,989	120,782
86,553	-6,898	247,779	120,637
87,568	-6,867	247,587	120,559
88,582	-6,748	247,376	120,547
89,597	-6,914	247,288	120,352
90,611	-6,822	247,111	120,333
91,626	-6,729	246,966	120,331
92,641	-6,669	246,741	120,261
93,655	-6,731	246,505	120,082
94,670	-6,862	246,401	119,911
95,684	-6,868	246,226	119,810
96,699	-6,824	246,004	119,729
97,714	-6,970	245,892	119,540
98,728	-6,876	245,538	119,437
99,743	-7,048	245,395	119,212
100,757	-6,832	245,176	119,276
101,772	-7,031	245,050	119,037
102,787	-6,943	244,809	118,983
103,801	-6,743	244,630	119,054
104,816	-6,762	244,515	118,970
105,830	-6,737	244,494	118,971
106,845	-6,726	244,285	118,867
107,860	-6,752	244,054	118,723
108,874	-6,677	243,601	118,555
109,889	-6,914	243,649	118,370
110,903	-6,994	243,416	118,179
111,918	-6,971	243,322	118,142
112,933	-6,877	243,093	118,099
113,947	-6,650	242,844	118,156
114,962	-6,784	242,635	117,932
115,976	-6,730	242,472	117,887
116,991	-6,767	242,370	117,797
118,006	-6,721	242,269	117,775
119,020	-6,772	242,133	117,656
120,035	-6,764	241,973	117,574
121,049	-6,773	241,908	117,525
122,064	-6,847	241,625	117,316
123,079	-6,647	241,393	117,358
124,093	-6,767	241,218	117,163
125,108	-6,951	240,832	116,814
126,122	-7,077	240,721	116,647
127,137	-6,996	240,445	116,569
128,151	-7,137	240,387	116,414
129,166	-6,963	240,199	116,456
130,181	-6,980	240,015	116,342
131,195	-7,070	239,957	116,230
132,210	-7,029	239,813	116,184
133,224	-6,944	239,572	116,126
134,239	-6,636	239,309	116,240
135,254	-6,963	239,286	115,951
136,268	-7,098	238,987	115,686
137,283	-7,091	238,779	115,581
138,297	-7,193	238,694	115,446
139,312	-7,293	238,386	115,205
140,327	-6,891	238,341	115,500
141,341	-6,498	238,185	115,733
142,356	-6,499	238,082	115,672
143,370	-6,656	237,986	115,488
144,385	-6,501	237,767	115,497
145,400	-6,599	237,604	115,329
146,414	-6,524	237,489	115,323
147,429	-6,647	237,451	115,194
148,443	-6,421	236,902	115,101
149,458	-6,429	236,851	115,059
150,473	-6,621	236,785	114,862
151,487	-6,601	236,624	114,789
152,502	-6,500	236,266	114,687
153,516	-6,450	236,275	114,722
154,531	-6,580	236,180	114,560
155,546	-6,547	235,836	114,410
156,560	-6,376	235,466	114,357
157,575	-6,635	235,433	114,123
158,589	-6,656	235,216	113,991
159,604	-6,324	235,139	114,209
160,619	-6,427	235,067	114,081
161,633	-6,408	234,878	113,996
162,648	-6,426	234,724	113,897
163,662	-6,486	234,611	113,783
164,677	-6,730	234,449	113,500
165,692	-6,645	234,247	113,459
166,706	-6,251	234,011	113,649
167,721	-6,409	234,101	113,556
168,735	-6,342	233,850	113,477
169,750	-6,538	233,790	113,283
170,764	-6,477	233,501	113,181
171,779	-6,562	233,418	113,064
172,794	-6,434	233,332	113,113
173,808	-6,444	233,035	112,951
174,823	-6,906	232,737	112,430
175,837	-7,115	232,537	112,159
176,852	-6,813	232,486	112,363
177,867	-6,626	232,297	112,410
178,881	-6,620	232,206	112,360
179,896	-6,303	232,087	112,543
180,910	-6,447	231,946	112,351
181,925	-6,459	231,756	112,239
182,940	-6,576	231,616	112,069
183,954	-6,451	231,377	112,042
184,969	-6,399	231,387	112,078
185,983	-6,292	231,137	112,031
186,998	-6,286	231,016	111,967
188,013	-6,339	230,859	111,839
189,027	-6,068	230,760	111,994
190,042	-6,085	230,568	111,877
191,056	-6,353	230,407	111,579
192,071	-6,405	230,239	111,448
193,086	-6,389	230,131	111,398
194,100	-6,761	229,882	110,977
195,115	-7,049	229,356	110,489
196,129	-7,597	229,349	110,049
197,144	-3,575	230,435	113,705
198,159	0,954	231,906	117,975
199,173	4,098	232,562	120,766
200,188	4,455	232,621	121,067
201,202	4,687	232,396	121,120
202,217	4,565	232,362	120,996
203,232	4,839	232,192	121,111
204,246	4,734	232,203	121,024
205,261	5,041	231,960	121,127
206,275	5,221	231,929	121,241
207,290	5,168	231,787	121,114
208,304	5,123	231,613	120,977
209,319	5,008	231,366	120,748
210,334	4,944	231,313	120,660
211,348	4,612	231,005	120,230
212,363	4,381	230,603	119,830
213,377	4,034	230,451	119,472
214,392	4,109	230,246	119,413
215,407	4,267	230,226	119,514
216,421	4,257	230,128	119,445
217,436	4,287	229,933	119,356
218,450	4,003	229,655	118,982
219,465	3,921	229,362	118,756
220,480	4,000	229,343	118,797
221,494	4,022	229,174	118,715
222,509	4,013	229,146	118,683
223,523	4,134	228,938	118,659
224,538	4,153	228,764	118,572
225,553	4,121	228,732	118,520
226,567	4,363	228,527	118,590
227,582	4,402	228,518	118,604
228,596	4,423	228,460	118,580
229,611	4,164	228,263	118,268
230,626	4,002	227,967	117,980
231,640	4,201	227,644	117,955
232,655	4,406	227,721	118,141
233,669	4,763	227,708	118,397
234,684	4,868	227,538	118,378
235,699	4,710	227,340	118,144
236,713	4,451	227,029	117,774
237,728	4,333	226,831	117,571
238,742	4,175	226,731	117,388
239,757	4,312	226,474	117,349
240,772	4,421	226,403	117,385
241,786	3,853	226,435	116,959
242,801	4,212	226,285	117,144
243,815	4,735	226,160	117,466
244,830	4,630	225,951	117,267
245,844	4,393	225,826	117,012
246,859	4,257	225,606	116,785
247,874	4,459	225,475	116,859
248,888	4,463	225,370	116,797
249,903	4,388	225,124	116,603
250,917	4,222	225,056	116,432
251,932	4,173	224,949	116,329
252,947	3,849	224,753	115,973
253,961	4,213	224,474	116,093
254,976	4,230	224,402	116,058
255,990	4,270	224,502	116,129
257,005	4,590	224,094	116,149
258,020	4,217	224,279	115,954
259,034	4,518	224,096	116,075
260,049	4,533	223,715	115,879
261,063	4,500	223,606	115,787
262,078	4,645	223,559	115,861
263,093	4,664	223,431	115,798
264,107	4,570	223,152	115,573
265,122	4,715	222,998	115,592
266,136	4,728	222,985	115,584
267,151	4,663	222,932	115,498
268,166	4,372	222,523	115,059
269,180	3,974	222,384	114,680
270,195	3,965	222,265	114,602
271,209	4,076	222,095	114,586
272,224	4,114	221,976	114,543
273,239	4,406	221,736	114,626
274,253	4,010	221,817	114,363
275,268	3,744	221,613	114,050
276,282	4,083	221,311	114,136
277,297	3,984	221,055	113,920
278,312	3,938	221,185	113,944
279,326	4,160	220,940	113,971
280,341	4,267	220,857	113,997
281,355	4,057	220,830	113,818
282,370	4,019	220,548	113,635
283,384	4,168	220,357	113,636
284,399	3,890	220,252	113,367
285,414	4,013	220,091	113,364
286,428	4,174	219,981	113,416
287,443	4,297	219,866	113,437
288,457	4,316	219,786	113,399
289,472	4,164	219,603	113,184
290,487	3,930	219,185	112,787
291,501	3,844	219,060	112,649
292,516	3,783	219,105	112,617
293,530	4,145	218,833	112,733
294,545	3,910	218,755	112,511
295,560	4,165	218,655	112,636
296,574	3,969	218,690	112,500
297,589	4,284	218,488	112,616
298,603	4,280	218,400	112,558
299,618	4,250	218,178	112,411
300,633	4,261	217,968	112,301
301,647	4,384	218,097	112,448
302,662	4,604	217,804	112,447
303,676	4,462	217,701	112,280
304,691	4,596	217,520	112,274
305,706	4,717	217,330	112,254
306,720	4,447	217,291	112,027
307,735	4,066	217,098	111,642
308,749	4,070	216,829	111,496
309,764	4,335	216,867	111,698
310,779	4,478	216,746	111,729
311,793	4,395	216,553	111,560
312,808	4,252	216,510	111,424
313,822	4,520	216,069	111,381
314,837	4,333	215,963	111,181
315,852	4,181	215,873	111,016
316,866	4,332	215,794	111,074
317,881	4,228	215,673	110,927
318,895	4,374	215,479	110,922
319,910	4,399	215,296	110,836
320,925	3,793	215,201	110,342
321,939	3,747	214,996	110,194
322,954	3,691	214,954	110,122
323,968	4,073	214,922	110,370
324,983	4,333	214,737	110,452
325,997	4,363	214,622	110,404
327,012	4,156	214,511	110,189
328,027	4,128	214,335	110,068
329,041	4,495	214,199	110,251
330,056	4,796	214,105	110,408
331,070	4,353	213,863	109,957
332,085	3,867	213,576	109,454
333,100	3,914	213,562	109,471
334,114	4,344	213,469	109,719
335,129	4,096	213,295	109,443
336,143	4,095	213,110	109,338
337,158	3,995	213,076	109,240
338,173	3,922	213,094	109,187
339,187	3,958	212,766	109,035
340,202	3,688	212,602	108,750
341,216	3,466	212,467	108,515
342,231	3,726	212,374	108,641
343,246	3,965	212,147	108,684
344,260	4,008	212,185	108,724
345,275	3,941	212,031	108,588
346,289	4,355	211,865	108,786
347,304	4,240	211,912	108,719
348,319	4,171	211,529	108,464
349,333	4,244	211,358	108,418
350,348	4,103	211,262	108,260
351,362	4,545	211,279	108,570
352,377	4,500	211,067	108,420
353,392	4,186	211,056	108,184
354,406	4,285	210,754	108,089
355,421	192,360	1343,605	1425,449
356,435	153,497	1481,690	1425,532
