DTS Sentinel unit serial number:	SN410029Multiplexer serial number:	ORYXHardware model number:	OX2-SRSoftware version number:	ORYX F/W v4,00 Oryx Data Collector v3.7.2.0data status	okinstallation	B6 Nyhavnadifferential loss correction	single-endedforward channel	channel 2reverse channel	N/Adate	2023/12/10time	14:05:08forward acquisition time	300,00reverse acquisition time	0,00gamma	499,1914k internal	0,3122k external	0,3122temperature offset calibration	1,0000default loss term (dB/km)	0,3820temperature slope calibration	1,0000multiplexer offset coefficient	1,0000multiplexer slope coefficient	1,0000fibre end	0,00T internal ref (°C)	22,69T ext. ref 1 (°C)	6,19T ext. ref 2 (°C)	6,21length (m)	temperature (°C)	Stokes	anti-Stokes-744,400	800,000	0,029	-0,077
-743,385	-45,667	-0,328	0,120
-742,371	92,711	0,048	-0,040
-741,356	-8,263	-0,280	0,140
-740,342	-94,534	-0,066	-0,013
-739,327	-165,269	-0,154	-0,005
-738,312	74,841	0,134	-0,105
-737,298	-121,873	-0,255	-0,031
-736,283	271,254	0,067	0,089
-735,269	-59,498	-0,267	0,085
-734,254	-200,000	0,006	-0,043
-733,239	-136,345	-0,425	-0,036
-732,225	-113,583	0,085	0,012
-731,210	213,561	0,059	0,069
-730,196	-200,000	-0,027	0,096
-729,181	800,000	-0,025	0,070
-728,167	800,000	0,035	-0,082
-727,152	-83,832	-0,074	0,017
-726,137	-168,142	0,085	0,002
-725,123	-181,432	-0,144	-0,002
-724,108	-129,670	-0,055	-0,006
-723,094	800,000	-0,052	-0,168
-722,079	-0,155	-0,155	-0,082
-721,064	-48,481	-0,106	-0,038
-720,050	2,200	-0,063	-0,034
-719,035	-104,475	-0,141	-0,024
-718,021	-200,000	0,017	-0,126
-717,006	-86,174	-0,085	0,019
-715,991	67,383	0,036	0,028
-714,977	-77,523	-0,056	0,014
-713,962	180,626	0,094	-0,103
-712,948	46,331	-0,018	-0,013
-711,933	-200,000	0,010	-0,111
-710,918	71,684	-0,042	-0,032
-709,904	-123,511	0,129	0,015
-708,889	69,908	-0,168	-0,129
-707,875	236,817	-0,077	-0,095
-706,860	-200,000	0,009	0,133
-705,845	-143,738	0,133	-0,009
-704,831	-200,000	-0,013	0,080
-703,816	66,588	-0,084	-0,063
-702,802	-200,000	0,006	-0,184
-701,787	-200,000	0,012	-0,087
-700,772	-19,568	-0,064	-0,029
-699,758	-102,399	-0,102	-0,018
-698,743	189,953	0,054	-0,060
-697,729	-200,000	0,041	-0,155
-696,714	63,748	-0,077	-0,058
-695,699	-200,000	-0,017	-0,092
-694,685	1,892	-0,045	-0,024
-693,670	-55,478	0,050	0,017
-692,656	-200,000	-0,021	0,084
-691,641	-200,000	0,014	0,060
-690,627	-93,212	-0,092	0,019
-689,612	116,030	0,107	0,097
-688,597	-200,000	0,016	0,060
-687,583	182,154	-0,031	-0,034
-686,568	800,000	-0,043	-0,129
-685,554	58,264	0,029	0,021
-684,539	269,135	-0,017	-0,023
-683,524	49,094	0,123	-0,086
-682,510	-200,000	-0,000	0,065
-681,495	-200,000	-0,017	-0,128
-680,481	67,038	-0,083	-0,063
-679,466	800,000	0,051	-0,135
-678,451	85,104	-0,041	-0,034
-677,437	-175,920	0,018	0,000
-676,422	-83,882	-0,051	0,012
-675,408	411,096	-0,030	0,048
-674,393	158,193	0,080	0,082
-673,378	800,000	0,063	-0,189
-672,364	-66,648	-0,188	0,055
-671,349	58,015	-0,066	0,048
-670,335	97,450	-0,081	-0,069
-669,320	111,105	-0,094	0,085
-668,305	-158,963	-0,169	0,007
-667,291	800,000	0,018	-0,048
-666,276	102,809	-0,080	0,069
-665,262	-82,534	-0,097	0,023
-664,247	-200,000	0,013	0,103
-663,232	23,179	-0,110	0,067
-662,218	800,000	-0,033	0,108
-661,203	46,076	0,139	0,095
-660,189	-44,883	-0,173	0,064
-659,174	-37,789	-0,129	-0,051
-658,159	-152,381	0,025	-0,001
-657,145	328,054	-0,093	-0,133
-656,130	34,484	-0,084	-0,054
-655,116	-200,000	0,009	-0,127
-654,101	-200,000	-0,013	0,054
-653,086	-35,673	-0,142	0,057
-652,072	18,396	-0,152	-0,090
-651,057	-200,000	0,003	-0,050
-650,043	-200,000	-0,097	0,000
-649,028	164,834	-0,061	-0,064
-648,014	8,233	0,051	0,029
-646,999	618,588	0,075	0,140
-645,984	800,000	-0,002	0,007
-644,970	800,000	0,027	0,068
-643,955	32,824	-0,041	-0,026
-642,941	800,000	0,027	-0,080
-641,926	-200,000	0,012	0,127
-640,911	-200,000	0,023	0,089
-639,897	-200,000	0,005	-0,079
-638,882	694,154	0,028	0,055
-637,868	-37,780	-0,100	-0,039
-636,853	-99,318	-0,207	-0,038
-635,838	800,000	0,009	-0,027
-634,824	800,000	-0,002	0,004
-633,809	800,000	-0,031	-0,075
-632,795	-200,000	-0,003	-0,020
-631,780	-200,000	-0,036	0,153
-630,765	113,813	-0,044	0,039
-629,751	560,860	0,011	0,020
-628,736	333,079	-0,068	-0,098
-627,722	478,018	-0,059	-0,100
-626,707	144,035	0,017	-0,017
-625,692	307,896	0,061	0,084
-624,678	95,916	-0,150	0,127
-623,663	528,426	0,066	-0,116
-622,649	-92,561	0,087	-0,018
-621,634	118,986	-0,082	-0,075
-620,619	-200,000	-0,016	-0,089
-619,605	225,905	0,015	0,018
-618,590	68,645	-0,072	0,055
-617,576	7,771	-0,125	-0,069
-616,561	41,064	-0,105	-0,070
-615,546	112,822	-0,066	-0,059
-614,532	38,262	-0,061	-0,040
-613,517	-37,327	-0,149	-0,059
-612,503	-58,766	-0,061	0,019
-611,488	-200,000	-0,033	0,191
-610,474	229,201	-0,097	0,117
-609,459	74,169	0,092	0,071
-608,444	-200,000	-0,000	0,032
-607,430	270,260	-0,067	-0,087
-606,415	-200,000	-0,022	-0,113
-605,401	-30,864	0,028	0,012
-604,386	-82,519	0,108	0,026
-603,371	-77,598	0,053	0,013
-602,357	170,767	0,050	-0,053
-601,342	-175,082	0,021	0,000
-600,328	1,588	-0,156	0,083
-599,313	-114,619	-0,095	0,013
-598,298	-2,552	0,193	-0,100
-597,284	-19,388	-0,061	-0,028
-596,269	531,177	-0,038	0,067
-595,255	180,665	0,044	0,048
-594,240	214,562	-0,020	0,023
-593,225	-200,000	0,004	0,038
-592,211	-200,000	0,019	-0,190
-591,196	-200,000	0,007	-0,143
-590,182	-125,037	0,124	0,014
-589,167	-121,258	-0,014	0,002
-588,152	800,000	0,077	-0,170
-587,138	-194,547	-0,094	0,001
-586,123	-53,991	-0,040	-0,014
-585,109	-200,000	0,003	-0,023
-584,094	354,492	0,062	-0,091
-583,079	800,000	0,005	-0,013
-582,065	-32,569	0,134	0,055
-581,050	-120,071	0,053	-0,007
-580,036	138,648	-0,134	-0,130
-579,021	57,403	-0,134	-0,097
-578,006	-200,000	-0,016	-0,142
-576,992	800,000	-0,042	0,131
-575,977	212,688	-0,036	-0,042
-574,963	-57,579	-0,081	0,026
-573,948	46,686	-0,040	0,028
-572,934	-139,977	0,053	0,004
-571,919	-200,000	0,004	-0,238
-570,904	279,212	-0,078	-0,103
-569,890	800,000	-0,045	-0,123
-568,875	800,000	-0,096	0,259
-567,861	41,119	-0,011	0,007
-566,846	147,470	-0,038	0,038
-565,831	-58,771	0,074	0,024
-564,817	414,958	0,024	-0,037
-563,802	412,174	-0,072	-0,114
-562,788	1,903	0,130	0,069
-561,773	345,492	-0,066	0,097
-560,758	800,000	0,029	0,081
-559,744	-61,432	0,102	0,032
-558,729	76,117	0,097	0,076
-557,715	35,878	-0,123	0,080
-556,700	42,794	-0,075	-0,050
-555,685	-23,035	-0,144	-0,064
-554,671	800,000	0,057	-0,164
-553,656	759,796	-0,092	-0,185
-552,642	151,785	-0,095	0,096
-551,627	-200,000	-0,008	0,057
-550,612	302,037	0,067	0,092
-549,598	-200,000	0,002	-0,133
-548,583	-120,510	-0,150	-0,019
-547,569	-200,000	-0,000	0,004
-546,554	-200,000	0,005	-0,095
-545,539	143,461	0,053	0,052
-544,525	-140,498	-0,051	0,004
-543,510	-200,000	0,015	-0,122
-542,496	721,780	0,036	-0,072
-541,481	-200,000	0,004	0,019
-540,466	12,728	0,121	0,069
-539,452	101,779	0,056	0,048
-538,437	-68,778	-0,073	-0,021
-537,423	375,535	-0,073	0,110
-536,408	-200,000	-0,003	0,194
-535,393	-98,443	-0,007	-0,001
-534,379	112,877	0,047	-0,042
-533,364	-200,000	0,005	-0,196
-532,350	63,198	0,087	-0,065
-531,335	114,226	0,088	-0,079
-530,321	-200,000	-0,002	0,023
-529,306	-146,262	0,084	-0,005
-528,291	344,793	0,043	-0,063
-527,277	784,295	-0,063	-0,129
-526,262	67,873	-0,035	0,026
-525,248	286,534	-0,062	0,082
-524,233	-200,000	0,017	0,084
-523,218	424,915	-0,035	-0,055
-522,204	441,756	-0,076	0,123
-521,189	132,936	-0,023	0,022
-520,175	-200,000	-0,006	0,057
-519,160	-200,000	0,022	-0,076
-518,145	243,539	0,067	0,084
-517,131	-200,000	0,024	0,104
-516,116	637,068	-0,047	0,088
-515,102	800,000	-0,050	-0,130
-514,087	291,375	-0,025	-0,034
-513,072	452,231	-0,054	-0,088
-512,058	-114,222	-0,128	0,018
-511,043	800,000	0,034	0,092
-510,029	439,999	0,044	-0,072
-509,014	77,362	0,056	0,044
-507,999	108,552	-0,133	-0,117
-506,985	-200,000	-0,015	-0,182
-505,970	-67,321	-0,019	0,006
-504,956	280,927	0,063	-0,083
-503,941	103,685	0,134	-0,117
-502,926	-66,132	0,069	-0,020
-501,912	-200,000	-0,044	-0,145
-500,897	649,840	-0,032	0,061
-499,883	8,246	-0,176	-0,097
-498,868	747,185	0,026	0,052
-497,853	-150,425	0,064	-0,004
-496,839	158,906	-0,086	0,089
-495,824	-17,005	-0,065	0,030
-494,810	-176,538	0,109	-0,002
-493,795	-200,000	0,023	0,139
-492,781	-8,704	0,014	0,007
-491,766	800,000	-0,012	0,035
-490,751	202,194	0,033	-0,038
-489,737	106,512	-0,032	0,028
-488,722	-200,000	-0,012	0,145
-487,708	-75,541	0,159	0,041
-486,693	340,942	0,069	0,099
-485,678	719,216	-0,024	-0,047
-484,664	-200,000	-0,002	0,011
-483,649	-200,000	0,030	-0,185
-482,635	-200,000	-0,028	-0,112
-481,620	262,419	-0,034	0,043
-480,605	-200,000	-0,010	-0,129
-479,591	-18,147	0,037	-0,017
-478,576	10,593	-0,093	0,052
-477,562	685,111	0,041	-0,079
-476,547	-124,532	-0,071	0,008
-475,532	-146,388	-0,077	0,005
-474,518	-200,000	-0,017	0,120
-473,503	382,044	0,074	0,113
-472,489	147,731	0,041	0,041
-471,474	800,000	0,023	0,062
-470,459	-200,000	0,016	0,077
-469,445	383,461	0,043	-0,066
-468,430	800,000	-0,022	-0,071
-467,416	-200,000	0,028	-0,110
-466,401	-200,000	-0,023	-0,116
-465,386	-66,918	0,102	-0,029
-464,372	-50,647	0,147	0,051
-463,357	-133,687	-0,087	-0,008
-462,343	400,959	0,048	-0,074
-461,328	800,000	-0,018	-0,047
-460,313	-131,326	0,108	-0,010
-459,299	-73,159	0,075	-0,020
-458,284	-83,177	0,070	-0,016
-457,270	-200,000	0,004	0,034
-456,255	-89,654	-0,066	-0,014
-455,241	-80,245	-0,117	0,029
-454,226	-47,655	0,046	-0,016
-453,211	-200,000	-0,010	0,170
-452,197	279,296	0,017	0,023
-451,182	800,000	0,068	0,148
-450,168	-52,815	0,071	0,024
-449,153	-57,324	0,142	-0,046
-448,138	-64,445	-0,139	-0,041
-447,124	180,611	0,102	0,111
-446,109	800,000	0,049	0,143
-445,095	-46,226	0,039	0,014
-444,080	-151,128	0,068	0,004
-443,065	-122,247	-0,142	0,017
-442,051	-65,305	-0,158	-0,047
-441,036	223,156	0,072	-0,086
-440,022	800,000	-0,047	-0,132
-439,007	-200,000	-0,003	0,076
-437,992	12,930	0,080	0,046
-436,978	631,794	0,030	0,057
-435,963	-154,045	-0,045	-0,002
-434,949	333,185	-0,080	-0,115
-433,934	215,582	-0,055	-0,064
-432,919	-200,000	0,010	0,036
-431,905	205,182	-0,059	-0,068
-430,890	-200,000	-0,000	-0,114
-429,876	-106,457	0,192	0,031
-428,861	-12,647	0,038	-0,018
-427,846	-12,245	-0,114	-0,055
-426,832	800,000	-0,009	-0,023
-425,817	482,923	0,037	-0,062
-424,803	-132,260	0,144	-0,013
-423,788	-200,000	-0,020	0,088
-422,773	29,748	0,038	0,024
-421,759	62,650	0,163	0,120
-420,744	23,475	0,027	0,017
-419,730	800,000	-0,043	0,088
-418,715	107,048	-0,034	0,030
-417,701	402,741	0,048	0,074
-416,686	-96,170	-0,108	0,021
-415,671	331,045	0,095	0,135
-414,657	95,374	0,059	0,050
-413,642	-113,166	0,068	-0,010
-412,628	-22,834	-0,069	-0,031
-411,613	75,170	-0,038	-0,029
-410,598	-82,848	-0,127	0,030
-409,584	-112,421	0,028	0,004
-408,569	800,000	-0,033	-0,103
-407,555	-127,429	-0,025	-0,003
-406,540	551,679	0,031	-0,055
-405,525	392,882	0,053	0,081
-404,511	98,778	0,010	-0,009
-403,496	800,000	-0,043	-0,131
-402,482	4,072	-0,123	-0,066
-401,467	182,251	0,089	-0,097
-400,452	410,474	0,036	0,056
-399,438	-200,000	-0,030	-0,123
-398,423	800,000	-0,019	0,052
-397,409	30,505	-0,089	-0,056
-396,394	255,047	0,050	-0,063
-395,379	139,842	-0,014	-0,014
-394,365	58,791	0,165	0,119
-393,350	269,372	0,016	-0,021
-392,336	63,314	-0,083	0,061
-391,321	-29,818	0,040	-0,017
-390,306	728,615	0,030	-0,059
-389,292	-200,000	0,042	-0,170
-388,277	-200,000	0,003	0,025
-387,263	139,052	0,118	0,114
-386,248	329,017	0,015	0,022
-385,233	800,000	0,019	-0,046
-384,219	-121,025	-0,048	-0,006
-383,204	125,477	0,072	0,067
-382,190	-78,703	-0,146	-0,036
-381,175	224,288	0,109	-0,130
-380,160	-78,080	0,111	-0,028
-379,146	222,526	-0,079	0,094
-378,131	-80,176	-0,088	-0,021
-377,117	800,000	0,049	0,101
-376,102	33,002	0,042	-0,027
-375,088	-200,000	0,031	0,100
-374,073	-93,806	-0,182	-0,036
-373,058	-4,247	0,034	0,017
-372,044	479,942	-0,040	0,067
-371,029	40,855	-0,049	0,033
-370,015	193,653	0,095	0,106
-369,000	800,000	-0,063	-0,130
-367,985	68,575	0,050	-0,038
-366,971	63,852	-0,024	0,018
-365,956	6,300	0,178	0,097
-364,942	242,488	0,113	0,139
-363,927	-112,686	0,053	-0,008
-362,912	-34,446	-0,156	0,063
-361,898	50,441	-0,058	-0,040
-360,883	771,622	0,078	-0,157
-359,869	63,764	0,016	-0,012
-358,854	327,454	-0,057	-0,081
-357,839	800,000	0,031	0,082
-356,825	250,567	-0,064	0,080
-355,810	800,000	-0,059	-0,122
-354,796	80,836	-0,060	0,047
-353,781	-159,138	-0,194	-0,008
-352,766	-200,000	0,004	0,063
-351,752	136,854	-0,021	0,020
-350,737	-86,235	-0,034	0,008
-349,723	-78,266	0,085	-0,021
-348,708	40,802	-0,073	-0,048
-347,693	232,782	-0,075	-0,090
-346,679	9,718	-0,081	-0,045
-345,664	-200,000	-0,025	-0,106
-344,650	-23,949	0,100	-0,044
-343,635	498,564	0,026	0,043
-342,620	800,000	-0,032	-0,099
-341,606	-125,969	-0,116	0,013
-340,591	-155,521	-0,077	0,004
-339,577	51,369	0,018	-0,012
-338,562	-200,000	-0,059	-0,226
-337,548	800,000	0,056	-0,126
-336,533	-47,716	-0,095	0,034
-335,518	800,000	-0,035	-0,101
-334,504	-200,000	-0,010	-0,038
-333,489	177,612	-0,089	-0,096
-332,475	-200,000	0,012	-0,049
-331,460	130,764	0,039	-0,037
-330,445	800,000	-0,010	-0,023
-329,431	309,807	-0,061	-0,084
-328,416	5,602	0,050	-0,027
-327,402	-200,000	-0,010	-0,114
-326,387	43,334	-0,009	-0,006
-325,372	800,000	-0,037	-0,106
-324,358	-200,000	0,002	0,009
-323,343	34,230	-0,153	-0,098
-322,329	800,000	-0,049	0,153
-321,314	-109,712	0,069	-0,010
-320,299	47,855	0,081	-0,055
-319,285	307,798	0,042	-0,057
-318,270	64,203	0,016	0,012
-317,256	0,094	-0,075	-0,039
-316,241	287,221	-0,066	-0,088
-315,226	183,156	0,061	-0,066
-314,212	334,854	-0,046	0,066
-313,197	-48,063	0,073	-0,026
-312,183	-83,969	-0,045	-0,010
-311,168	34,045	-0,205	-0,131
-310,153	-23,427	-0,096	0,042
-309,139	-100,705	0,100	-0,018
-308,124	3,295	0,065	0,034
-307,110	-200,000	-0,005	-0,066
-306,095	-200,000	0,035	0,128
-305,080	800,000	-0,054	0,155
-304,066	-158,704	-0,067	-0,003
-303,051	-79,357	-0,091	-0,022
-302,037	-39,417	0,053	0,020
-301,022	524,800	0,041	0,071
-300,008	398,079	-0,049	0,075
-298,993	-121,084	0,144	0,017
-297,978	60,711	-0,128	0,093
-296,964	-179,127	0,047	0,001
-295,949	79,260	0,035	0,027
-294,935	53,598	-0,088	-0,062
-293,920	178,234	-0,051	-0,054
-292,905	-200,000	0,016	-0,088
-291,891	143,545	-0,068	-0,067
-290,876	278,583	-0,018	-0,023
-289,862	81,684	-0,015	0,012
-288,847	-200,000	0,009	0,089
-287,832	-25,914	-0,049	-0,021
-286,818	77,047	0,059	-0,046
-285,803	-200,000	0,001	-0,017
-284,789	162,509	0,072	0,074
-283,774	413,486	0,101	0,158
-282,759	-143,368	0,141	0,010
-281,745	579,581	0,050	0,090
-280,730	-100,049	-0,073	0,013
-279,716	-109,305	0,047	-0,007
-278,701	221,395	0,074	-0,087
-277,686	-80,803	-0,139	-0,033
-276,672	-200,000	0,008	-0,029
-275,657	800,000	0,069	-0,158
-274,643	800,000	0,033	-0,073
-273,628	84,769	-0,107	0,086
-272,613	141,704	0,037	0,036
-271,599	78,695	0,104	0,081
-270,584	532,750	-0,042	-0,073
-269,570	-45,662	-0,031	-0,011
-268,555	149,762	-0,099	0,098
-267,540	713,369	0,022	-0,044
-266,526	-34,741	0,110	-0,044
-265,511	572,891	0,060	-0,107
-264,497	287,564	-0,095	0,126
-263,482	197,870	0,060	0,067
-262,467	800,000	0,041	0,089
-261,453	122,955	0,169	0,155
-260,438	522,388	-0,022	-0,038
-259,424	-200,000	-0,000	-0,069
-258,409	200,366	0,118	0,132
-257,395	90,345	-0,079	0,065
-256,380	550,248	-0,055	-0,097
-255,365	-200,000	0,030	0,105
-254,351	-117,529	0,031	-0,004
-253,336	74,125	-0,086	-0,066
-252,322	-111,988	-0,119	0,017
-251,307	633,746	0,006	0,011
-250,292	-200,000	-0,003	-0,093
-249,278	800,000	0,048	0,102
-248,263	800,000	0,033	0,074
-247,249	-200,000	-0,010	0,100
-246,234	49,112	-0,068	0,047
-245,219	167,567	-0,142	-0,148
-244,205	-6,739	0,066	0,033
-243,190	49,086	-0,016	-0,011
-242,176	-135,067	0,101	0,009
-241,161	229,320	0,060	0,072
-240,146	-81,708	0,126	0,030
-239,132	800,000	0,056	0,144
-238,117	800,000	-0,028	0,078
-237,103	-44,680	-0,082	0,030
-236,088	-200,000	-0,018	0,084
-235,073	284,127	0,016	0,022
-234,059	66,062	0,041	0,030
-233,044	-128,036	-0,026	-0,003
-232,030	174,107	-0,036	-0,039
-231,015	263,383	-0,066	0,084
-230,000	403,942	0,013	-0,020
-228,986	-87,389	0,088	-0,019
-227,971	334,364	0,040	0,056
-226,957	-140,843	0,124	0,009
-225,942	-171,864	0,097	0,002
-224,927	180,669	0,048	0,052
-223,913	-200,000	0,007	-0,038
-222,898	-200,000	0,016	-0,088
-221,884	800,000	0,052	-0,153
-220,869	-4,897	0,107	0,054
-219,855	800,000	0,025	-0,073
-218,840	-200,000	-0,037	0,175
-217,825	800,000	0,078	0,185
-216,811	7,686	0,029	-0,016
-215,796	307,096	0,145	0,198
-214,782	409,793	0,007	0,011
-213,767	2,981	0,041	0,021
-212,752	-200,000	-0,006	0,105
-211,738	219,169	-0,080	0,093
-210,723	-47,140	-0,096	-0,034
-209,709	416,379	-0,051	0,080
-208,694	577,192	-0,047	0,084
-207,679	231,717	0,095	0,114
-206,665	81,995	0,079	-0,062
-205,650	800,000	-0,025	-0,062
-204,636	-27,553	0,127	-0,054
-203,621	-56,600	-0,072	-0,023
-202,606	172,256	-0,085	-0,089
-201,592	-200,000	0,009	-0,108
-200,577	77,826	-0,016	0,012
-199,563	-200,000	0,002	-0,028
-198,548	-200,000	0,003	0,091
-197,533	-82,123	-0,096	0,023
-196,519	-200,000	-0,028	0,121
-195,504	230,242	-0,040	0,048
-194,490	-200,000	0,004	0,075
-193,475	-200,000	0,008	0,039
-192,460	231,454	0,044	-0,053
-191,446	-200,000	-0,018	0,181
-190,431	92,211	0,064	0,053
-189,417	18,723	0,139	0,081
-188,402	204,597	-0,047	0,054
-187,387	-22,561	-0,117	0,052
-186,373	-109,350	-0,147	-0,023
-185,358	552,371	-0,045	0,079
-184,344	240,823	-0,049	-0,059
-183,329	-118,394	0,127	-0,016
-182,315	-200,000	-0,016	-0,103
-181,300	185,237	-0,052	0,056
-180,285	251,063	0,046	-0,057
-179,271	-53,694	0,070	-0,023
-178,256	-200,000	-0,013	0,167
-177,242	-18,300	-0,066	-0,030
-176,227	-200,000	-0,001	0,062
-175,212	394,984	0,024	0,037
-174,198	-200,000	0,012	0,125
-173,183	-92,223	0,124	0,025
-172,169	4,201	-0,056	-0,030
-171,154	-22,986	0,209	-0,091
-170,139	-200,000	0,012	0,177
-169,125	-95,270	0,088	0,017
-168,110	220,178	0,051	0,060
-167,096	-149,085	0,109	0,006
-166,081	153,819	-0,033	-0,033
-165,066	61,833	-0,120	-0,087
-164,052	41,679	0,040	-0,027
-163,037	154,653	0,041	-0,041
-162,023	-154,208	0,130	0,006
-161,008	-51,073	0,037	0,013
-159,993	-35,951	0,039	-0,015
-158,979	-47,219	-0,069	-0,025
-157,964	29,184	0,115	0,071
-156,950	25,867	-0,017	0,010
-155,935	-5,553	0,135	0,067
-154,920	-173,404	0,050	0,001
-153,906	89,501	0,019	-0,015
-152,891	107,919	-0,064	-0,056
-151,877	800,000	0,041	-0,087
-150,862	-200,000	-0,014	-0,073
-149,847	-99,112	-0,115	-0,021
-148,833	-200,000	-0,003	-0,064
-147,818	800,000	0,040	-0,086
-146,804	-200,000	-0,030	0,105
-145,789	436,565	0,061	0,097
-144,775	13,353	-0,108	-0,061
-143,760	98,429	-0,040	0,034
-142,745	-200,000	-0,028	-0,096
-141,731	-152,425	-0,108	0,006
-140,716	203,660	0,047	0,053
-139,702	-29,822	0,125	-0,052
-138,687	800,000	0,027	-0,063
-137,672	1,326	-0,102	-0,053
-136,658	-50,239	-0,032	0,011
-135,643	800,000	0,056	0,143
-134,629	247,828	-0,049	-0,061
-133,614	-81,489	0,160	0,038
-132,599	-103,186	0,032	-0,006
-131,585	-24,829	-0,129	-0,055
-130,570	-100,035	0,094	0,017
-129,556	271,830	-0,011	0,014
-128,541	-172,969	-0,049	0,001
-127,526	-92,113	0,078	0,016
-126,512	-89,390	-0,030	-0,006
-125,497	-200,000	0,025	0,089
-124,483	161,636	-0,090	-0,092
-123,468	-71,089	0,175	-0,048
-122,453	486,528	-0,024	-0,040
-121,439	800,000	-0,020	-0,064
-120,424	-11,101	-0,079	0,038
-119,410	156,493	0,071	-0,071
-118,395	-200,000	0,024	0,093
-117,380	-94,444	0,076	-0,015
-116,366	20,605	-0,016	-0,009
-115,351	-15,391	0,058	0,027
-114,337	-165,298	-0,138	-0,004
-113,322	127,442	-0,023	-0,021
-112,307	-131,601	0,138	-0,013
-111,293	-200,000	0,031	0,140
-110,278	-200,000	0,005	0,185
-109,264	800,000	-0,046	0,130
-108,249	-200,000	0,002	0,085
-107,234	-14,800	-0,090	0,042
-106,220	-95,436	-0,073	-0,014
-105,205	342,967	0,083	0,119
-104,191	129,590	-0,058	0,054
-103,176	-168,204	-0,120	-0,003
-102,162	800,000	0,030	-0,065
-101,147	-59,751	-0,054	0,017
-100,132	800,000	0,068	0,151
-99,118	-62,184	-0,102	0,031
-98,103	23,950	0,091	0,055
-97,089	-165,048	0,071	-0,002
-96,074	-200,000	0,020	-0,083
-95,059	-3,959	0,204	0,103
-94,045	-200,000	-0,019	-0,171
-93,030	40,728	-0,071	0,047
-92,016	-32,453	-0,054	0,022
-91,001	800,000	-0,017	0,042
-89,986	153,864	0,044	-0,044
-88,972	-91,491	0,017	-0,003
-87,957	44,462	-0,087	0,058
-86,943	-200,000	-0,014	-0,120
-85,928	-123,060	0,108	0,012
-84,913	-132,210	0,054	0,005
-83,899	-200,000	-0,012	0,077
-82,884	309,183	-0,037	-0,051
-81,870	260,319	0,078	0,099
-80,855	321,359	-0,046	0,063
-79,840	-114,591	-0,014	-0,002
-78,826	127,695	0,046	-0,042
-77,811	-200,000	-0,001	-0,141
-76,797	-200,000	0,017	0,111
-75,782	-200,000	0,022	-0,086
-74,767	-126,817	0,051	0,005
-73,753	30,657	-0,019	0,012
-72,738	-200,000	0,010	0,069
-71,724	-8,983	0,096	-0,046
-70,709	433,510	0,049	0,078
-69,694	161,798	0,023	0,023
-68,680	126,072	0,066	0,061
-67,665	-30,206	-0,115	0,047
-66,651	-200,000	0,003	-0,059
-65,636	176,697	0,045	0,048
-64,622	-7,243	0,095	0,046
-63,607	-200,000	-0,024	-0,079
-62,592	-107,375	0,091	-0,014
-61,578	-138,782	0,071	0,006
-60,563	-110,997	0,098	0,014
-59,549	-200,000	-0,004	0,054
-58,534	-141,639	-1,358	-0,098
-57,519	729,355	-0,754	-1,469
-56,505	-200,000	-0,879	-4,382
-55,490	43,860	0,550	-0,365
-54,476	800,000	5,028	12,013
-53,461	-200,000	13,380	252,999
-52,446	-200,000	688,331	2271,851
-51,432	598,828	1622,596	2933,022
-50,417	121,083	1636,844	1478,433
-49,403	73,708	1290,755	980,646
-48,388	38,486	1025,413	662,074
-47,373	24,650	982,942	589,111
-46,359	23,817	972,746	580,244
-45,344	22,938	968,435	574,772
-44,330	22,853	966,920	573,572
-43,315	22,791	965,465	572,483
-42,300	22,735	964,440	571,671
-41,286	22,688	963,644	571,025
-40,271	22,702	962,553	570,401
-39,257	22,605	961,751	569,586
-38,242	22,712	960,892	569,403
-37,227	22,689	960,044	568,803
-36,213	22,701	959,049	568,231
-35,198	22,630	958,331	567,552
-34,184	22,751	957,546	567,456
-33,169	22,652	956,731	566,633
-32,154	22,681	955,795	566,148
-31,140	22,703	954,781	565,595
-30,125	22,749	953,984	565,249
-29,111	22,773	953,243	564,865
-28,096	22,705	952,507	564,186
-27,082	22,709	951,926	563,835
-26,067	22,761	950,984	563,420
-25,052	22,704	950,379	562,859
-24,038	22,791	949,694	562,706
-23,023	22,759	949,139	562,256
-22,009	22,760	948,467	561,836
-20,994	22,781	947,703	561,431
-19,979	22,751	947,159	560,989
-18,965	22,709	946,640	560,525
-17,950	22,767	945,807	560,196
-16,936	22,672	945,299	559,567
-15,921	22,614	944,810	559,073
-14,906	22,680	943,906	558,727
-13,892	22,606	943,254	558,083
-12,877	22,603	942,712	557,728
-11,863	22,586	941,969	557,215
-10,848	22,643	941,502	557,095
-9,833	22,700	941,058	556,993
-8,819	22,712	940,484	556,669
-7,804	22,650	939,708	555,991
-6,790	22,545	939,205	555,337
-5,775	22,676	938,472	555,297
-4,760	22,635	937,782	554,738
-3,746	22,591	937,290	554,285
-2,731	22,506	936,587	553,580
-1,717	22,440	935,876	552,927
-0,702	22,420	935,210	552,450
0,313	22,250	934,516	552,337
1,327	25,386	932,560	561,003
2,342	35,210	797,022	505,657
3,356	33,280	451,930	283,784
4,371	1,853	293,338	152,896
5,386	-2,559	274,151	138,716
6,400	-3,999	268,273	134,397
7,415	-4,621	265,976	132,662
8,429	-4,295	264,748	132,336
9,444	-4,304	263,728	131,807
10,459	-4,302	263,168	131,516
11,473	-4,390	262,581	131,132
12,488	-4,564	262,195	130,770
13,502	-4,663	261,676	130,410
14,517	-4,553	261,151	130,236
15,531	-4,383	260,780	130,193
16,546	-4,212	260,541	130,215
17,561	-4,251	260,098	129,947
18,575	-4,284	259,794	129,755
19,590	-4,387	259,449	129,478
20,604	-4,384	259,274	129,382
21,619	-4,179	258,677	129,255
22,634	-4,441	258,525	128,934
23,648	-4,522	258,235	128,706
24,663	-4,525	258,066	128,608
25,677	-4,312	257,711	128,609
26,692	-4,549	257,550	128,307
27,707	-4,407	257,118	128,206
28,721	-4,544	256,989	128,008
29,736	-4,337	256,656	128,014
30,750	-4,489	256,463	127,772
31,765	-4,612	256,303	127,572
32,780	-4,573	256,169	127,529
33,794	-4,355	255,779	127,515
34,809	-4,509	255,525	127,242
35,823	-4,319	255,241	127,256
36,838	-4,523	255,042	126,966
37,853	-4,361	254,751	126,953
38,867	-4,551	254,483	126,641
39,882	-4,547	254,341	126,563
40,896	-4,365	253,994	126,538
41,911	-4,406	253,927	126,457
42,926	-4,580	253,792	126,227
43,940	-4,596	253,440	126,026
44,955	-4,442	253,249	126,054
45,969	-4,491	252,891	125,822
46,984	-4,614	252,853	125,684
47,999	-4,978	252,523	125,194
49,013	-5,002	252,252	125,027
50,028	-5,403	252,020	124,554
51,042	-5,213	251,745	124,570
52,057	-5,343	251,591	124,371
53,071	-5,386	251,355	124,206
54,086	-5,326	251,184	124,163
55,101	-5,129	251,226	124,343
56,115	-4,835	250,945	124,446
57,130	-4,377	250,781	124,748
58,144	-4,229	250,660	124,804
59,159	-4,281	250,388	124,613
60,174	-4,233	250,245	124,572
61,188	-4,446	250,088	124,300
62,203	-4,401	249,772	124,170
63,217	-4,592	249,637	123,928
64,232	-4,382	249,452	124,006
65,247	-4,408	249,110	123,802
66,261	-4,381	248,967	123,743
67,276	-4,658	248,817	123,421
68,290	-4,687	248,482	123,219
69,305	-5,031	248,384	122,865
70,320	-4,737	247,930	122,880
71,334	-4,441	247,883	123,099
72,349	-4,340	247,855	123,159
73,363	-4,149	247,551	123,160
74,378	-4,412	247,444	122,872
75,393	-4,437	247,223	122,730
76,407	-4,432	247,008	122,617
77,422	-4,409	246,806	122,525
78,436	-4,314	246,545	122,465
79,451	-4,290	246,249	122,327
80,466	-4,544	246,285	122,120
81,480	-4,691	245,940	121,813
82,495	-4,746	245,843	121,708
83,509	-4,806	245,742	121,597
84,524	-4,623	245,254	121,498
85,539	-4,849	245,273	121,307
86,553	-4,750	244,972	121,230
87,568	-4,622	244,832	121,258
88,582	-4,540	244,610	121,205
89,597	-4,693	244,443	120,984
90,611	-4,715	244,451	120,958
91,626	-4,402	244,145	121,058
92,641	-4,464	244,016	120,932
93,655	-4,375	243,801	120,889
94,670	-4,434	243,606	120,732
95,684	-4,604	243,402	120,479
96,699	-4,527	243,294	120,478
97,714	-4,766	242,970	120,109
98,728	-4,638	242,708	120,075
99,743	-4,688	242,533	119,935
100,757	-4,827	242,364	119,726
101,772	-4,857	242,287	119,653
102,787	-4,798	242,051	119,574
103,801	-4,726	241,864	119,530
104,816	-4,509	241,780	119,658
105,830	-4,522	241,526	119,511
106,845	-4,276	241,597	119,739
107,860	-4,493	241,351	119,427
108,874	-4,598	240,905	119,109
109,889	-4,627	240,887	119,066
110,903	-4,570	240,540	118,930
111,918	-4,733	240,414	118,723
112,933	-4,583	240,249	118,755
113,947	-4,614	240,143	118,666
114,962	-4,455	239,961	118,696
115,976	-4,294	239,794	118,735
116,991	-4,356	239,560	118,558
118,006	-4,653	239,554	118,302
119,020	-4,517	239,352	118,303
120,035	-4,352	239,180	118,342
121,049	-4,375	239,000	118,223
122,064	-4,401	238,858	118,121
123,079	-4,389	238,681	118,033
124,093	-4,679	238,512	117,702
125,108	-4,599	238,193	117,599
126,122	-4,810	237,947	117,296
127,137	-4,810	237,728	117,178
128,151	-4,863	237,625	117,074
129,166	-4,593	237,322	117,132
130,181	-5,063	237,478	116,818
131,195	-4,716	237,071	116,888
132,210	-4,642	237,043	116,923
133,224	-4,568	236,882	116,894
134,239	-4,654	236,782	116,765
135,254	-4,415	236,468	116,792
136,268	-4,852	236,372	116,382
137,283	-4,854	236,022	116,198
138,297	-4,911	235,795	116,029
139,312	-4,889	235,499	115,891
140,327	-4,679	235,601	116,100
141,341	-4,375	235,642	116,355
142,356	-4,008	235,361	116,499
143,370	-4,177	235,264	116,306
144,385	-4,227	235,068	116,158
145,400	-4,046	234,968	116,244
146,414	-4,120	234,678	116,031
147,429	-4,170	234,549	115,916
148,443	-4,189	234,389	115,812
149,458	-4,298	234,328	115,684
150,473	-4,335	234,099	115,531
151,487	-4,385	233,919	115,392
152,502	-4,313	233,697	115,330
153,516	-3,986	233,592	115,528
154,531	-4,218	233,427	115,252
155,546	-4,369	233,361	115,089
156,560	-4,286	232,932	114,932
157,575	-4,378	233,014	114,889
158,589	-4,427	232,791	114,730
159,604	-4,232	232,535	114,749
160,619	-4,141	232,409	114,748
161,633	-4,192	232,289	114,638
162,648	-4,184	232,193	114,588
163,662	-4,184	232,087	114,525
164,677	-4,275	231,822	114,312
165,692	-4,190	231,774	114,346
166,706	-4,084	231,662	114,364
167,721	-4,046	231,335	114,222
168,735	-4,018	231,304	114,218
169,750	-4,090	231,049	114,025
170,764	-4,393	230,977	113,742
171,779	-4,176	230,840	113,834
172,794	-4,277	230,662	113,657
173,808	-4,258	230,310	113,488
174,823	-4,587	230,007	113,072
175,837	-4,810	229,924	112,847
176,852	-4,492	229,868	113,058
177,867	-4,307	229,845	113,181
178,881	-4,079	229,737	113,296
179,896	-4,257	229,580	113,070
180,910	-4,088	229,424	113,114
181,925	-4,050	229,203	113,024
182,940	-4,218	229,235	112,899
183,954	-4,048	228,975	112,894
184,969	-4,205	228,892	112,720
185,983	-3,993	228,632	112,748
186,998	-3,889	228,540	112,772
188,013	-4,044	228,375	112,561
189,027	-3,973	228,172	112,505
190,042	-4,047	227,929	112,319
191,056	-4,078	227,900	112,271
192,071	-4,044	227,731	112,204
193,086	-3,899	227,501	112,192
194,100	-3,970	227,271	112,014
195,115	-4,531	226,997	111,436
196,129	-5,199	226,677	110,755
197,144	-2,019	227,763	113,734
198,159	2,170	228,938	117,558
199,173	4,235	229,279	119,322
200,188	4,319	229,201	119,336
201,202	4,242	229,032	119,177
202,217	4,554	228,924	119,352
203,232	4,670	228,902	119,419
204,246	4,788	228,737	119,414
205,261	4,753	228,626	119,318
206,275	5,025	228,500	119,451
207,290	4,860	228,298	119,208
208,304	5,295	228,103	119,430
209,319	4,975	227,951	119,094
210,334	4,951	227,672	118,920
211,348	4,667	227,583	118,644
212,363	4,333	227,433	118,300
213,377	4,030	227,237	117,954
214,392	4,036	226,818	117,731
215,407	4,106	226,853	117,793
216,421	4,248	226,847	117,887
217,436	4,186	226,517	117,658
218,450	3,942	226,169	117,281
219,465	3,891	226,092	117,192
220,480	3,953	226,022	117,192
221,494	3,826	226,005	117,076
222,509	4,001	225,716	117,049
223,523	3,889	225,679	116,934
224,538	4,025	225,507	116,938
225,553	3,983	225,373	116,826
226,567	4,112	225,302	116,877
227,582	4,359	225,041	116,918
228,596	4,528	225,000	117,014
229,611	4,172	224,769	116,615
230,626	4,021	224,538	116,370
231,640	4,083	224,488	116,381
232,655	4,233	224,348	116,411
233,669	4,710	224,333	116,753
234,684	4,724	224,200	116,684
235,699	4,509	224,005	116,410
236,713	4,335	223,799	116,162
237,728	4,208	223,562	115,933
238,742	3,878	223,357	115,568
239,757	4,115	223,266	115,689
240,772	4,069	223,084	115,549
241,786	3,890	223,049	115,387
242,801	3,950	222,941	115,366
243,815	4,411	222,876	115,667
244,830	4,412	222,726	115,580
245,844	4,286	222,459	115,337
246,859	4,069	222,367	115,117
247,874	4,340	222,265	115,256
248,888	4,513	222,109	115,294
249,903	4,151	221,770	114,838
250,917	4,303	221,637	114,872
251,932	4,205	221,521	114,729
252,947	4,218	221,437	114,684
253,961	3,975	221,295	114,420
254,976	4,171	221,075	114,441
255,990	4,224	221,085	114,476
257,005	4,422	220,934	114,535
258,020	4,135	220,893	114,290
259,034	4,600	220,756	114,554
260,049	4,463	220,572	114,347
261,063	4,428	220,347	114,194
262,078	4,528	220,350	114,259
263,093	4,640	220,047	114,175
264,107	4,444	219,876	113,931
265,122	4,137	219,770	113,639
266,136	4,730	219,664	114,012
267,151	4,626	219,621	113,903
268,166	4,135	219,208	113,317
269,180	3,863	219,140	113,072
270,195	3,818	219,008	112,961
271,209	3,921	218,841	112,940
272,224	4,217	218,618	113,032
273,239	4,080	218,597	112,911
274,253	4,046	218,541	112,846
275,268	4,010	218,260	112,665
276,282	3,779	218,244	112,477
277,297	3,754	217,869	112,256
278,312	3,801	217,879	112,286
279,326	4,013	217,717	112,347
280,341	3,917	217,687	112,251
281,355	4,172	217,442	112,301
282,370	3,777	217,307	111,933
283,384	3,769	217,270	111,898
284,399	3,845	216,865	111,736
285,414	3,711	216,862	111,627
286,428	3,882	216,805	111,711
287,443	4,371	216,762	112,034
288,457	4,321	216,677	111,944
289,472	4,117	216,474	111,681
290,487	3,682	216,160	111,194
291,501	3,571	215,863	110,952
292,516	3,688	215,801	110,994
293,530	3,965	215,743	111,155
294,545	3,523	215,649	110,777
295,560	3,862	215,485	110,928
296,574	3,978	215,404	110,960
297,589	4,210	215,269	111,047
298,603	4,121	215,098	110,885
299,618	4,298	214,859	110,879
300,633	4,105	214,920	110,762
301,647	4,360	214,829	110,889
302,662	4,351	214,779	110,847
303,676	4,096	214,631	110,577
304,691	4,231	214,389	110,540
305,706	4,370	214,233	110,549
306,720	4,372	213,971	110,405
307,735	4,047	213,933	110,143
308,749	3,989	213,782	110,014
309,764	4,242	213,631	110,107
310,779	4,152	213,593	110,014
311,793	3,971	213,439	109,796
312,808	4,263	213,239	109,891
313,822	4,071	213,025	109,634
314,837	4,207	212,886	109,650
315,852	4,126	212,692	109,482
316,866	3,818	212,815	109,316
317,881	4,154	212,617	109,444
318,895	4,172	212,401	109,336
319,910	3,995	212,352	109,175
320,925	3,728	212,009	108,800
321,939	3,838	211,701	108,710
322,954	3,550	211,737	108,515
323,968	4,187	211,857	109,017
324,983	4,302	211,555	108,934
325,997	4,211	211,462	108,812
327,012	4,120	211,325	108,668
328,027	4,198	211,169	108,633
329,041	4,453	211,136	108,786
330,056	4,446	211,197	108,802
331,070	4,267	210,801	108,463
332,085	3,925	210,495	108,055
333,100	3,966	210,473	108,063
334,114	3,867	210,405	107,949
335,129	4,029	210,237	107,967
336,143	3,781	210,071	107,699
337,158	3,726	209,987	107,607
338,173	4,118	209,761	107,756
339,187	3,866	209,639	107,507
340,202	3,828	209,420	107,359
341,216	3,636	209,390	107,200
342,231	3,922	209,293	107,341
343,246	3,877	209,096	107,199
344,260	3,771	208,936	107,033
345,275	3,626	208,934	106,922
346,289	4,185	208,752	107,208
347,304	4,254	208,596	107,166
348,319	4,232	208,373	107,027
349,333	3,900	208,322	106,761
350,348	4,062	208,302	106,853
351,362	4,426	208,088	106,986
352,377	4,376	207,965	106,879
353,392	4,099	207,796	106,590
354,406	4,183	207,679	106,579
355,421	193,587	1345,701	1433,556
356,435	154,428	1484,451	1433,683
