DTS Sentinel unit serial number:	SN410029Multiplexer serial number:	ORYXHardware model number:	OX2-SRSoftware version number:	ORYX F/W v4,00 Oryx Data Collector v3.7.2.0data status	okinstallation	B6 Nyhavnadifferential loss correction	single-endedforward channel	channel 2reverse channel	N/Adate	2023/12/09time	19:25:08forward acquisition time	300,00reverse acquisition time	0,00gamma	499,1914k internal	0,3130k external	0,3130temperature offset calibration	1,0000default loss term (dB/km)	0,3820temperature slope calibration	1,0000multiplexer offset coefficient	1,0000multiplexer slope coefficient	1,0000fibre end	0,00T internal ref (°C)	21,09T ext. ref 1 (°C)	4,97T ext. ref 2 (°C)	4,93length (m)	temperature (°C)	Stokes	anti-Stokes-744,400	800,000	0,073	-0,159
-743,385	-119,306	-0,165	-0,021
-742,371	-200,000	0,002	0,078
-741,356	-14,744	-0,164	0,078
-740,342	671,457	-0,055	0,107
-739,327	-19,948	-0,281	0,128
-738,312	-200,000	0,005	-0,078
-737,298	-115,066	-0,215	0,030
-736,283	-80,678	0,050	-0,012
-735,269	-149,241	-0,346	0,020
-734,254	-107,244	0,147	-0,024
-733,239	-80,823	-0,416	-0,102
-732,225	325,660	0,009	-0,013
-731,210	800,000	0,025	0,074
-730,196	47,470	-0,085	-0,059
-729,181	226,281	0,039	-0,047
-728,167	-200,000	0,018	-0,151
-727,152	-132,284	0,029	0,003
-726,137	-200,000	0,001	0,021
-725,123	-101,405	-0,141	0,025
-724,108	-200,000	-0,007	-0,063
-723,094	219,531	-0,181	-0,215
-722,079	-200,000	-0,000	-0,131
-721,064	800,000	-0,042	-0,102
-720,050	378,250	0,056	-0,086
-719,035	41,343	0,020	0,014
-718,021	23,137	-0,126	0,077
-717,006	-200,000	-0,013	0,149
-715,991	-72,915	-0,141	0,038
-714,977	156,811	-0,047	0,049
-713,962	-200,000	0,013	0,121
-712,948	-200,000	-0,001	-0,055
-711,933	-200,000	-0,013	-0,081
-710,918	800,000	0,018	0,040
-709,904	-200,000	0,014	-0,082
-708,889	156,513	-0,115	-0,118
-707,875	201,044	-0,076	-0,087
-706,860	305,425	0,023	0,032
-705,845	170,677	-0,034	-0,036
-704,831	663,901	0,038	0,073
-703,816	-69,004	-0,127	-0,036
-702,802	48,860	0,108	-0,075
-701,787	-113,827	-0,152	-0,022
-700,772	45,718	-0,086	0,059
-699,758	158,905	-0,063	0,065
-698,743	-53,120	-0,093	0,031
-697,729	-200,000	0,033	-0,116
-696,714	227,481	-0,022	0,026
-695,699	-200,000	0,041	-0,161
-694,685	800,000	0,038	-0,101
-693,670	162,597	0,089	-0,093
-692,656	78,717	0,072	-0,057
-691,641	-200,000	0,004	0,050
-690,627	-41,597	0,109	-0,041
-689,612	448,921	-0,090	0,148
-688,597	-40,463	0,026	0,010
-687,583	-53,845	-0,135	-0,045
-686,568	800,000	-0,072	-0,149
-685,554	-16,629	-0,019	0,009
-684,539	-200,000	0,014	0,095
-683,524	-200,000	0,006	-0,104
-682,510	-177,881	-0,059	-0,001
-681,495	800,000	-0,047	0,120
-680,481	-66,116	-0,043	-0,013
-679,466	62,108	-0,144	0,106
-678,451	317,321	-0,044	-0,061
-677,437	-200,000	-0,019	-0,170
-676,422	17,217	-0,041	-0,024
-675,408	479,875	-0,049	0,083
-674,393	251,827	0,037	0,047
-673,378	-164,828	-0,119	0,004
-672,364	-200,000	-0,001	0,073
-671,349	-72,179	0,115	-0,031
-670,335	52,598	-0,082	-0,058
-669,320	308,553	0,081	0,112
-668,305	47,521	-0,154	0,106
-667,291	-200,000	-0,011	-0,060
-666,276	-200,000	0,010	-0,056
-665,262	-200,000	-0,001	-0,046
-664,247	-151,955	-0,070	0,004
-663,232	453,999	-0,028	0,046
-662,218	217,876	0,020	0,024
-661,203	-73,276	-0,090	-0,024
-660,189	25,122	-0,100	0,061
-659,174	672,296	0,067	-0,129
-658,159	-181,940	0,035	0,000
-657,145	800,000	0,033	-0,095
-656,130	-200,000	0,015	-0,074
-655,116	-39,818	0,152	-0,059
-654,101	-116,899	-0,084	-0,011
-653,086	-74,708	0,027	-0,007
-652,072	160,549	-0,022	-0,022
-651,057	800,000	-0,021	-0,056
-650,043	-65,096	-0,147	-0,044
-649,028	-59,642	0,046	0,015
-648,014	-200,000	-0,007	0,074
-646,999	-104,896	0,177	-0,030
-645,984	-69,109	0,073	-0,021
-644,970	395,181	-0,018	0,029
-643,955	-90,802	0,037	-0,008
-642,941	392,962	-0,032	-0,050
-641,926	800,000	0,021	-0,048
-640,911	373,695	0,081	-0,123
-639,897	176,350	-0,046	0,050
-638,882	-200,000	0,020	0,077
-637,868	7,964	0,028	-0,015
-636,853	-200,000	0,017	-0,062
-635,838	-200,000	0,027	-0,114
-634,824	-39,928	-0,078	-0,030
-633,809	627,475	-0,015	-0,027
-632,795	-22,971	0,062	-0,028
-631,780	269,364	-0,060	-0,078
-630,765	0,155	-0,108	-0,057
-629,751	265,256	-0,052	0,068
-628,736	-200,000	0,005	-0,062
-627,722	800,000	-0,074	-0,168
-626,707	142,458	0,079	-0,077
-625,692	-70,468	-0,044	0,012
-624,678	-192,059	0,080	-0,001
-623,663	-102,940	-0,170	-0,030
-622,649	-53,746	-0,023	0,008
-621,634	-20,594	-0,105	0,047
-620,619	-200,000	-0,026	-0,108
-619,605	800,000	0,029	0,073
-618,590	34,445	0,091	-0,058
-617,576	-200,000	-0,001	-0,072
-616,561	93,471	-0,048	0,040
-615,546	317,209	0,030	-0,042
-614,532	-200,000	-0,024	-0,135
-613,517	171,329	0,120	-0,128
-612,503	800,000	0,017	0,047
-611,488	800,000	0,019	0,040
-610,474	571,409	-0,074	-0,134
-609,459	190,075	-0,062	-0,069
-608,444	-117,171	-0,076	-0,010
-607,430	-117,075	-0,026	0,004
-606,415	27,384	-0,131	-0,081
-605,401	-65,751	-0,024	0,007
-604,386	430,491	0,012	-0,019
-603,371	-2,147	0,136	0,070
-602,357	143,579	0,053	-0,052
-601,342	299,960	-0,061	0,083
-600,328	5,089	-0,026	-0,014
-599,313	800,000	-0,051	-0,123
-598,298	800,000	-0,052	-0,128
-597,284	399,467	0,075	0,116
-596,269	154,899	-0,137	0,140
-595,255	-129,175	0,104	0,011
-594,240	328,346	-0,014	-0,020
-593,225	-200,000	-0,006	0,062
-592,211	800,000	0,061	-0,159
-591,196	-83,297	0,034	-0,008
-590,182	-149,531	0,077	-0,004
-589,167	800,000	-0,024	0,075
-588,152	-1,991	0,116	0,060
-587,138	-200,000	0,027	0,097
-586,123	-39,590	-0,126	0,049
-585,109	188,790	-0,070	-0,078
-584,094	83,217	-0,095	-0,076
-583,079	-90,282	0,166	0,035
-582,065	-175,176	0,037	0,001
-581,050	-200,000	0,005	-0,057
-580,036	8,081	-0,042	-0,023
-579,021	195,762	-0,072	-0,080
-578,006	-87,217	-0,109	0,024
-576,992	-125,536	0,127	0,014
-575,977	55,637	0,121	0,087
-574,963	-200,000	-0,019	-0,086
-573,948	-84,132	-0,030	-0,007
-572,934	-27,942	0,061	0,026
-571,919	216,430	-0,037	-0,044
-570,904	800,000	0,089	-0,239
-569,890	264,361	-0,065	-0,084
-568,875	800,000	0,057	0,158
-567,861	-80,984	-0,106	-0,026
-566,846	20,575	0,122	-0,073
-565,831	800,000	-0,041	-0,085
-564,817	-200,000	-0,018	-0,119
-563,802	26,387	-0,120	-0,074
-562,788	644,884	0,028	-0,053
-561,773	150,759	-0,056	-0,057
-560,758	436,152	0,088	-0,142
-559,744	800,000	-0,028	0,061
-558,729	-117,112	0,048	-0,006
-557,715	442,174	-0,064	-0,104
-556,700	-200,000	0,010	-0,036
-555,685	-200,000	0,002	-0,022
-554,671	-151,456	0,161	-0,009
-553,656	800,000	-0,034	0,104
-552,642	-65,944	0,049	0,014
-551,627	176,499	0,046	0,050
-550,612	-54,505	-0,076	0,025
-549,598	125,732	-0,036	-0,034
-548,583	-200,000	-0,018	-0,068
-547,569	517,996	0,008	0,014
-546,554	-200,000	0,011	0,094
-545,539	203,781	0,055	0,063
-544,525	94,428	0,101	0,085
-543,510	319,431	0,063	-0,088
-542,496	496,085	0,025	-0,042
-541,481	200,145	-0,111	0,126
-540,466	-200,000	0,015	-0,062
-539,452	-22,122	0,132	0,059
-538,437	19,851	0,089	-0,053
-537,423	470,789	0,088	-0,147
-536,408	-66,865	0,080	-0,023
-535,393	490,853	0,039	-0,067
-534,379	-144,389	-0,121	0,008
-533,364	334,833	-0,012	-0,018
-532,350	83,880	0,017	-0,013
-531,335	-53,774	-0,046	0,015
-530,321	-200,000	0,001	-0,153
-529,306	800,000	0,025	-0,051
-528,291	-136,377	-0,076	0,006
-527,277	457,683	0,092	-0,152
-526,262	152,639	0,092	-0,093
-525,248	800,000	0,016	-0,051
-524,233	800,000	-0,010	-0,032
-523,218	-76,514	-0,055	0,014
-522,204	198,894	0,107	0,121
-521,189	533,392	-0,014	-0,024
-520,175	-114,002	-0,033	0,005
-519,160	800,000	0,011	-0,035
-518,145	-105,854	0,126	0,021
-517,131	800,000	0,031	0,101
-516,116	-14,956	-0,097	0,046
-515,102	437,536	0,049	0,078
-514,087	800,000	-0,069	-0,206
-513,072	800,000	-0,080	-0,167
-512,058	171,345	-0,101	-0,107
-511,043	427,795	-0,097	0,155
-510,029	-18,816	-0,090	0,041
-509,014	-109,037	0,117	0,018
-507,999	-82,390	0,040	-0,010
-506,985	-200,000	0,008	-0,126
-505,970	-46,787	0,046	-0,016
-504,956	-22,631	-0,042	-0,018
-503,941	-21,417	0,113	0,051
-502,926	429,985	-0,082	0,131
-501,912	302,549	0,042	-0,058
-500,897	-200,000	-0,031	-0,120
-499,883	-200,000	-0,014	-0,088
-498,868	73,035	0,068	0,052
-497,853	705,464	-0,070	0,137
-496,839	221,996	0,083	0,099
-495,824	800,000	-0,054	0,129
-494,810	-200,000	0,018	0,062
-493,795	385,423	-0,067	-0,101
-492,781	-200,000	0,000	0,018
-491,766	-84,811	-0,068	0,016
-490,751	800,000	0,040	0,117
-489,737	-200,000	0,003	0,059
-488,722	-133,402	0,046	0,004
-487,708	100,230	-0,064	-0,055
-486,693	-100,713	0,093	0,017
-485,678	464,557	-0,043	-0,071
-484,664	-200,000	0,000	-0,028
-483,649	413,561	0,016	-0,026
-482,635	764,341	0,034	-0,068
-481,620	-109,882	-0,062	0,009
-480,605	88,405	-0,070	-0,057
-479,591	243,854	0,100	-0,123
-478,576	-200,000	0,033	0,153
-477,562	-96,487	-0,208	-0,040
-476,547	59,451	0,088	-0,064
-475,532	800,000	-0,017	-0,046
-474,518	178,710	0,110	-0,118
-473,503	-34,486	-0,095	-0,038
-472,489	-94,902	0,124	-0,024
-471,474	14,551	-0,058	0,033
-470,459	311,264	-0,038	0,052
-469,445	-200,000	-0,022	0,139
-468,430	318,566	-0,024	0,034
-467,416	60,992	0,066	-0,048
-466,401	-12,361	0,148	0,071
-465,386	19,926	0,095	0,056
-464,372	-200,000	-0,006	-0,072
-463,357	-133,603	0,066	-0,006
-462,343	58,777	-0,109	-0,078
-461,328	-200,000	0,035	-0,118
-460,313	89,293	0,077	0,063
-459,299	-72,202	-0,074	0,020
-458,284	-10,219	0,121	0,059
-457,270	800,000	-0,045	0,144
-456,255	-77,799	0,088	0,022
-455,241	-200,000	-0,003	-0,182
-454,226	258,437	-0,073	-0,093
-453,211	64,485	0,104	0,077
-452,197	-17,773	0,136	0,063
-451,182	375,849	-0,031	-0,046
-450,168	-86,274	-0,123	0,028
-449,153	-101,667	-0,049	0,009
-448,138	-45,094	0,073	0,026
-447,124	-24,728	-0,115	-0,050
-446,109	-200,000	0,085	0,000
-445,095	124,181	-0,117	0,108
-444,080	-143,083	0,025	-0,002
-443,065	123,276	-0,052	0,048
-442,051	800,000	-0,096	-0,198
-441,036	4,069	0,031	-0,016
-440,022	675,939	-0,023	-0,044
-439,007	-36,403	0,082	0,032
-437,992	66,204	0,087	-0,064
-436,978	301,536	0,036	0,050
-435,963	79,300	0,055	-0,044
-434,949	81,823	-0,081	-0,065
-433,934	393,257	0,131	-0,202
-432,919	-5,267	0,186	0,093
-431,905	-40,386	-0,054	-0,020
-430,890	-64,622	0,138	0,041
-429,876	-0,746	0,009	-0,005
-428,861	800,000	0,077	0,201
-427,846	-200,000	0,015	0,077
-426,832	75,961	0,090	-0,070
-425,817	-4,155	-0,136	0,069
-424,803	199,296	0,041	-0,046
-423,788	800,000	0,007	0,018
-422,773	85,939	0,071	0,058
-421,759	253,418	0,051	0,064
-420,744	-56,898	0,053	0,017
-419,730	-90,406	-0,051	0,011
-418,715	800,000	-0,072	-0,155
-417,701	-116,850	-0,066	0,009
-416,686	672,388	0,041	-0,079
-415,671	183,310	0,074	0,080
-414,657	126,560	0,051	0,047
-413,642	-51,608	0,056	-0,019
-412,628	-9,711	-0,096	-0,047
-411,613	-138,620	-0,165	-0,013
-410,598	800,000	0,027	-0,058
-409,584	-91,852	0,128	-0,026
-408,569	330,806	0,049	0,070
-407,555	-200,000	0,007	-0,079
-406,540	-60,308	-0,103	0,032
-405,525	-200,000	0,018	-0,104
-404,511	358,333	-0,066	0,097
-403,496	-200,000	-0,017	0,082
-402,482	36,294	0,105	-0,068
-401,467	-176,757	-0,159	0,003
-400,452	-200,000	0,010	-0,041
-399,438	-200,000	-0,014	0,110
-398,423	-131,014	0,028	0,003
-397,409	124,650	-0,096	0,089
-396,394	369,602	-0,069	0,102
-395,379	800,000	-0,074	0,217
-394,365	-47,456	0,070	0,025
-393,350	-200,000	0,008	0,131
-392,336	614,878	0,031	0,057
-391,321	-145,081	0,087	0,006
-390,306	-161,187	-0,088	0,003
-389,292	30,756	-0,049	-0,031
-388,277	-143,506	-0,034	-0,002
-387,263	-84,006	-0,055	-0,013
-386,248	56,402	-0,019	-0,013
-385,233	800,000	0,048	-0,121
-384,219	-53,827	-0,041	-0,014
-383,204	-72,932	-0,084	-0,022
-382,190	800,000	-0,037	-0,107
-381,175	800,000	0,048	0,144
-380,160	-200,000	-0,008	0,153
-379,146	-27,566	0,129	0,055
-378,131	800,000	-0,032	0,089
-377,117	-200,000	-0,010	0,091
-376,102	-200,000	0,005	-0,056
-375,088	506,195	-0,049	-0,083
-374,073	144,183	0,056	-0,055
-373,058	137,936	-0,108	0,104
-372,044	800,000	-0,049	0,127
-371,029	-200,000	-0,016	0,101
-370,015	129,774	-0,021	0,019
-369,000	-200,000	0,001	-0,086
-367,985	800,000	0,019	-0,053
-366,971	-200,000	0,017	-0,057
-365,956	53,248	0,083	-0,058
-364,942	56,796	0,048	0,034
-363,927	85,033	0,089	0,072
-362,912	800,000	0,061	0,149
-361,898	-152,976	-0,067	0,003
-360,883	-200,000	-0,093	0,000
-359,869	-200,000	-0,011	0,058
-358,854	-200,000	0,010	-0,131
-357,839	94,569	0,049	0,041
-356,825	-50,535	0,075	-0,026
-355,810	-200,000	0,006	0,037
-354,796	800,000	-0,025	0,051
-353,781	-200,000	0,009	-0,057
-352,766	-59,357	0,083	-0,026
-351,752	301,483	0,038	0,051
-350,737	385,259	0,083	0,125
-349,723	-200,000	-0,013	-0,045
-348,708	231,394	-0,118	-0,141
-347,693	362,618	0,027	-0,039
-346,679	-85,616	-0,074	-0,017
-345,664	225,789	0,081	0,096
-344,650	34,536	-0,092	0,059
-343,635	175,693	0,065	-0,069
-342,620	330,632	0,024	0,035
-341,606	-200,000	0,033	0,114
-340,591	766,675	-0,064	0,128
-339,577	-154,345	0,104	-0,005
-338,562	7,910	0,054	-0,029
-337,548	-3,389	0,078	-0,040
-336,533	-200,000	-0,022	0,150
-335,518	261,997	-0,079	0,101
-334,504	102,254	-0,052	0,045
-333,489	155,018	-0,016	-0,016
-332,475	-44,253	-0,085	0,031
-331,460	-73,639	0,096	-0,026
-330,445	5,948	0,068	0,037
-329,431	548,795	-0,056	-0,099
-328,416	761,511	0,048	0,096
-327,402	-200,000	0,006	0,118
-326,387	54,642	0,095	-0,067
-325,372	-178,636	0,075	0,001
-324,358	221,058	-0,036	-0,043
-323,343	800,000	0,025	-0,070
-322,329	-145,916	-0,096	0,006
-321,314	-97,904	0,149	-0,028
-320,299	-171,971	0,064	0,001
-319,285	-200,000	-0,000	0,014
-318,270	262,064	-0,089	-0,114
-317,256	-200,000	0,010	-0,067
-316,241	-200,000	-0,002	-0,079
-315,226	800,000	0,027	0,064
-314,212	-55,114	0,074	-0,024
-313,197	-3,685	0,071	-0,036
-312,183	-200,000	-0,014	-0,132
-311,168	-200,000	0,024	0,121
-310,153	800,000	0,028	0,080
-309,139	470,569	0,044	-0,072
-308,124	-55,912	0,059	-0,019
-307,110	565,724	0,068	0,121
-306,095	-200,000	-0,015	0,072
-305,080	800,000	0,040	0,117
-304,066	-200,000	-0,002	0,089
-303,051	-200,000	-0,018	-0,135
-302,037	-63,915	0,028	-0,008
-301,022	-200,000	-0,018	-0,073
-300,008	131,495	0,064	0,060
-298,993	155,858	-0,173	-0,174
-297,978	202,415	-0,026	0,029
-296,964	-23,025	-0,098	0,043
-295,949	-47,988	-0,124	-0,044
-294,935	-103,968	-0,071	0,012
-293,920	89,885	-0,031	0,025
-292,905	283,116	-0,049	-0,064
-291,891	-26,777	0,076	0,032
-290,876	800,000	0,042	0,106
-289,862	-119,650	-0,049	-0,006
-288,847	301,684	-0,036	-0,049
-287,832	339,219	-0,008	-0,011
-286,818	-64,386	-0,077	0,023
-285,803	-121,325	0,006	-0,001
-284,789	53,454	-0,017	0,012
-283,774	800,000	0,056	0,118
-282,759	-26,759	-0,076	0,032
-281,745	354,256	-0,045	0,065
-280,730	570,897	-0,064	-0,114
-279,716	-200,000	0,018	-0,095
-278,701	800,000	0,039	0,086
-277,686	-35,569	0,041	-0,016
-276,672	-200,000	0,011	0,104
-275,657	-200,000	0,015	0,064
-274,643	800,000	-0,059	0,124
-273,628	-24,312	0,104	-0,045
-272,613	800,000	0,011	0,029
-271,599	-200,000	-0,001	0,111
-270,584	-59,287	0,101	0,032
-269,570	91,478	0,140	-0,115
-268,555	59,540	0,033	-0,024
-267,540	-16,921	-0,056	0,026
-266,526	263,027	-0,095	0,121
-265,511	-200,000	-0,011	-0,052
-264,497	-200,000	0,005	0,116
-263,482	32,047	-0,083	-0,052
-262,467	237,823	-0,084	-0,102
-261,453	135,995	-0,038	0,036
-260,438	-200,000	-0,019	-0,116
-259,424	57,772	0,161	0,115
-258,409	-200,000	0,011	-0,043
-257,395	1,202	0,071	-0,037
-256,380	-200,000	0,010	0,062
-255,365	-200,000	0,010	0,039
-254,351	800,000	-0,041	-0,124
-253,336	-58,793	-0,027	-0,008
-252,322	58,065	-0,074	-0,053
-251,307	800,000	0,026	0,084
-250,292	64,214	0,196	0,144
-249,278	510,912	-0,054	0,092
-248,263	6,418	-0,089	-0,048
-247,249	800,000	0,019	0,052
-246,234	800,000	0,019	-0,058
-245,219	-187,369	-0,089	0,001
-244,205	484,736	-0,045	-0,075
-243,190	132,921	-0,071	0,067
-242,176	-200,000	0,034	0,140
-241,161	-10,580	0,110	0,053
-240,146	74,188	0,024	0,018
-239,132	-200,000	-0,010	0,146
-238,117	-100,588	-0,034	0,006
-237,103	302,652	-0,099	-0,134
-236,088	-91,264	-0,130	0,027
-235,073	32,043	0,091	0,057
-234,059	16,346	0,062	0,036
-233,044	470,618	-0,060	-0,099
-232,030	800,000	0,013	-0,027
-231,015	-200,000	0,003	-0,018
-230,000	248,276	-0,088	-0,108
-228,986	103,068	-0,006	0,005
-227,971	-144,480	-0,147	-0,010
-226,957	174,973	-0,090	-0,096
-225,942	-1,293	0,014	0,007
-224,927	774,990	-0,049	-0,098
-223,913	-105,746	-0,119	-0,019
-222,898	116,577	0,010	0,009
-221,884	477,006	0,060	0,100
-220,869	360,986	0,047	-0,069
-219,855	-7,509	0,128	0,063
-218,840	800,000	-0,027	0,081
-217,825	-127,552	-0,149	-0,015
-216,811	-138,729	-0,120	-0,009
-215,796	-200,000	0,003	0,081
-214,782	-29,642	-0,047	0,019
-213,767	-73,539	0,046	-0,012
-212,752	174,854	0,082	-0,086
-211,738	800,000	-0,052	-0,128
-210,723	187,582	0,042	0,046
-209,709	-200,000	-0,025	0,090
-208,694	271,657	0,012	0,015
-207,679	-105,064	0,029	0,005
-206,665	0,019	-0,017	-0,009
-205,650	800,000	-0,047	0,119
-204,636	-87,981	0,144	-0,031
-203,621	285,756	0,105	0,138
-202,606	98,092	0,109	0,091
-201,592	198,136	-0,168	-0,188
-200,577	-122,919	0,051	0,006
-199,563	239,155	-0,039	0,048
-198,548	-200,000	-0,015	0,102
-197,533	396,371	-0,016	0,024
-196,519	-200,000	0,010	-0,053
-195,504	33,369	-0,051	0,032
-194,490	-80,389	-0,035	0,009
-193,475	62,067	-0,104	-0,075
-192,460	-59,936	0,111	0,034
-191,446	618,343	0,057	0,105
-190,431	-150,930	-0,089	0,005
-189,417	-200,000	0,002	-0,092
-188,402	-36,162	0,031	0,012
-187,387	180,185	-0,092	0,098
-186,373	-14,003	-0,032	0,015
-185,358	-13,135	-0,081	-0,038
-184,344	-200,000	0,004	0,061
-183,329	600,392	0,054	0,098
-182,315	-200,000	0,012	0,097
-181,300	361,297	-0,014	0,020
-180,285	193,713	-0,138	-0,152
-179,271	-200,000	-0,007	0,081
-178,256	293,656	0,078	0,104
-177,242	593,307	0,011	0,020
-176,227	-122,237	-0,193	-0,023
-175,212	245,429	-0,070	-0,085
-174,198	-94,275	-0,128	-0,025
-173,183	161,442	-0,095	-0,096
-172,169	-63,856	-0,028	0,008
-171,154	-200,000	0,006	0,019
-170,139	21,225	0,148	0,087
-169,125	-200,000	-0,008	0,035
-168,110	311,955	0,083	-0,113
-167,096	-136,667	-0,085	0,007
-166,081	383,806	-0,023	-0,035
-165,066	800,000	0,057	0,119
-164,052	170,544	-0,095	-0,099
-163,037	800,000	0,065	0,149
-162,023	123,099	-0,097	0,088
-161,008	14,597	-0,060	0,034
-159,993	-200,000	-0,000	-0,047
-158,979	-200,000	0,000	-0,008
-157,964	-67,362	-0,110	0,031
-156,950	-200,000	-0,006	-0,068
-155,935	-200,000	-0,028	0,104
-154,920	-78,323	-0,084	0,021
-153,906	517,902	0,033	0,057
-152,891	188,719	0,051	-0,056
-151,877	-200,000	-0,046	0,166
-150,862	360,249	-0,027	0,039
-149,847	-200,000	-0,004	-0,024
-148,833	-155,944	-0,044	-0,002
-147,818	130,286	0,061	0,057
-146,804	101,975	-0,141	0,120
-145,789	88,136	0,066	0,053
-144,775	800,000	0,036	-0,073
-143,760	-104,518	0,083	-0,014
-142,745	-200,000	0,022	0,089
-141,731	-200,000	-0,009	0,032
-140,716	167,169	-0,047	-0,048
-139,702	480,935	0,018	-0,031
-138,687	-200,000	-0,002	0,066
-137,672	7,237	0,076	-0,041
-136,658	-200,000	-0,009	-0,038
-135,643	255,989	-0,081	-0,101
-134,629	-37,263	0,036	0,014
-133,614	84,431	0,127	-0,101
-132,599	-200,000	0,059	0,192
-131,585	482,091	0,092	0,152
-130,570	-101,838	0,060	0,010
-129,556	-200,000	0,005	0,026
-128,541	-200,000	-0,026	0,107
-127,526	186,496	0,046	-0,050
-126,512	-34,665	-0,152	-0,060
-125,497	25,517	0,081	0,049
-124,483	33,152	0,060	0,037
-123,468	-200,000	-0,092	-0,000
-122,453	148,317	0,123	0,120
-121,439	-105,284	-0,081	0,013
-120,424	93,444	-0,100	0,082
-119,410	-200,000	0,016	0,116
-118,395	-200,000	0,004	-0,045
-117,380	319,399	0,022	0,030
-116,366	-59,096	-0,188	-0,058
-115,351	-64,867	0,077	-0,023
-114,337	390,886	0,022	0,033
-113,322	542,466	-0,078	0,136
-112,307	-133,140	-0,164	-0,015
-111,293	-200,000	-0,007	-0,056
-110,278	395,973	0,018	0,027
-109,264	-118,390	-0,035	0,004
-108,249	-200,000	-0,010	0,042
-107,234	149,495	-0,032	0,032
-106,220	385,415	-0,031	-0,046
-105,205	800,000	0,021	0,044
-104,191	-200,000	0,140	-0,000
-103,176	146,217	0,029	-0,028
-102,162	-70,743	0,052	0,014
-101,147	-195,813	-0,189	0,001
-100,132	62,751	0,095	-0,069
-99,118	159,979	-0,104	0,105
-98,103	-70,780	-0,073	0,020
-97,089	-79,819	-0,046	0,011
-96,074	-138,204	-0,016	-0,001
-95,059	764,618	-0,067	0,132
-94,045	111,395	-0,044	0,038
-93,030	-200,000	0,013	-0,066
-92,016	-200,000	0,022	-0,084
-91,001	-200,000	0,006	0,024
-89,986	569,063	-0,012	-0,021
-88,972	-200,000	0,005	0,049
-87,957	-200,000	-0,011	-0,063
-86,943	88,763	0,053	-0,043
-85,928	-200,000	-0,007	-0,034
-84,913	682,769	-0,045	0,085
-83,899	-200,000	0,010	-0,034
-82,884	-200,000	0,002	-0,019
-81,870	-200,000	-0,012	-0,054
-80,855	57,014	-0,104	-0,074
-79,840	-23,149	0,105	-0,046
-78,826	-200,000	0,009	-0,113
-77,811	800,000	-0,040	-0,109
-76,797	222,735	-0,036	0,042
-75,782	-31,701	-0,017	-0,007
-74,767	-116,752	0,053	0,007
-73,753	183,168	0,133	0,143
-72,738	185,587	0,040	0,043
-71,724	600,508	0,046	-0,083
-70,709	-47,926	-0,110	0,038
-69,694	800,000	-0,028	-0,062
-68,680	264,361	0,055	-0,070
-67,665	-200,000	0,008	-0,085
-66,651	-55,205	0,044	-0,014
-65,636	800,000	-0,018	0,046
-64,622	607,611	0,054	0,098
-63,607	358,800	-0,057	-0,083
-62,592	800,000	-0,045	-0,138
-61,578	800,000	-0,037	0,095
-60,563	513,526	0,059	0,100
-59,549	88,148	-0,061	-0,049
-58,534	-56,555	-1,457	-0,465
-57,519	800,000	-0,624	-1,427
-56,505	-200,000	-0,968	-4,612
-55,490	-21,631	0,605	-0,266
-54,476	800,000	4,997	11,746
-53,461	-200,000	14,527	258,484
-52,446	-200,000	695,736	2234,446
-51,432	566,188	1622,481	2861,159
-50,417	117,614	1630,182	1452,363
-49,403	74,497	1284,392	976,586
-48,388	37,401	1022,666	654,994
-47,373	23,298	981,404	582,268
-46,359	22,476	970,800	573,262
-45,344	21,371	966,555	567,128
-44,330	21,335	965,180	566,182
-43,315	21,157	963,734	564,732
-42,300	21,163	962,625	564,080
-41,286	21,090	961,507	563,166
-40,271	21,203	960,424	562,876
-39,257	21,166	959,720	562,321
-38,242	21,076	958,742	561,435
-37,227	21,144	957,857	561,112
-36,213	21,091	956,901	560,358
-35,198	21,052	956,289	559,853
-34,184	21,141	955,414	559,607
-33,169	21,030	954,605	558,752
-32,154	21,141	953,643	558,525
-31,140	21,120	952,813	557,950
-30,125	21,190	952,101	557,733
-29,111	21,153	951,231	557,085
-28,096	21,090	950,520	556,443
-27,082	21,098	949,904	556,088
-26,067	21,150	949,140	555,784
-25,052	21,113	948,477	555,256
-24,038	21,137	947,819	554,924
-23,023	21,193	947,047	554,631
-22,009	21,194	946,430	554,250
-20,994	21,185	945,805	553,831
-19,979	21,145	945,340	553,410
-18,965	21,118	944,772	552,970
-17,950	21,176	943,957	552,656
-16,936	21,066	943,314	551,907
-15,921	21,048	942,596	551,407
-14,906	20,961	941,951	550,732
-13,892	21,024	941,220	550,483
-12,877	20,987	940,764	550,078
-11,863	20,976	940,143	549,657
-10,848	21,015	939,437	549,346
-9,833	21,144	939,037	549,501
-8,819	21,069	938,635	549,005
-7,804	21,033	937,838	548,404
-6,790	20,982	937,459	547,999
-5,775	21,030	936,835	547,762
-4,760	21,020	936,156	547,313
-3,746	21,001	935,517	546,857
-2,731	20,881	934,675	545,967
-1,717	20,825	934,062	545,409
-0,702	20,856	933,204	544,983
0,313	20,680	932,698	544,958
1,327	23,663	930,777	553,152
2,342	33,071	793,747	496,685
3,356	30,601	450,841	278,374
4,371	0,087	294,700	151,440
5,386	-4,118	275,769	137,710
6,400	-5,236	270,193	133,872
7,415	-5,658	267,786	132,279
8,429	-5,585	266,535	131,717
9,444	-5,587	265,780	131,329
10,459	-5,461	264,983	131,039
11,473	-5,719	264,434	130,521
12,488	-5,531	263,787	130,361
13,502	-5,908	263,379	129,806
14,517	-5,814	262,996	129,690
15,531	-5,712	262,601	129,576
16,546	-5,778	262,150	129,282
17,561	-5,811	261,740	129,039
18,575	-5,638	261,581	129,105
19,590	-5,697	261,119	128,812
20,604	-5,819	260,975	128,620
21,619	-5,811	260,660	128,460
22,634	-5,794	260,133	128,205
23,648	-5,763	260,013	128,161
24,663	-5,805	259,737	127,977
25,677	-5,644	259,358	127,922
26,692	-5,752	259,114	127,694
27,707	-5,728	258,940	127,618
28,721	-5,818	258,534	127,327
29,736	-5,869	258,402	127,205
30,750	-5,867	258,066	127,030
31,765	-5,963	257,946	126,875
32,780	-5,803	257,685	126,877
33,794	-5,718	257,328	126,765
34,809	-5,808	257,130	126,577
35,823	-5,855	256,932	126,427
36,838	-5,816	256,584	126,278
37,853	-5,815	256,392	126,174
38,867	-5,916	256,135	125,947
39,882	-5,956	256,032	125,850
40,896	-5,788	255,694	125,820
41,911	-5,783	255,593	125,763
42,926	-6,011	255,284	125,400
43,940	-5,960	255,033	125,310
44,955	-5,931	254,793	125,207
45,969	-6,113	254,693	124,987
46,984	-6,190	254,310	124,721
47,999	-6,537	254,235	124,370
49,013	-6,438	254,014	124,337
50,028	-6,633	253,666	123,986
51,042	-6,744	253,496	123,795
52,057	-6,498	253,111	123,809
53,071	-6,535	252,962	123,694
54,086	-6,468	252,908	123,714
55,101	-6,373	252,698	123,683
56,115	-6,278	252,696	123,754
57,130	-5,774	252,456	124,062
58,144	-5,602	252,290	124,118
59,159	-5,447	251,794	123,996
60,174	-5,548	251,737	123,871
61,188	-5,675	251,422	123,595
62,203	-5,656	251,345	123,562
63,217	-5,700	251,076	123,381
64,232	-5,736	250,893	123,249
65,247	-5,625	250,746	123,261
66,261	-5,911	250,487	122,878
67,276	-5,705	250,179	122,892
68,290	-5,965	249,918	122,530
69,305	-6,177	249,635	122,199
70,320	-6,040	249,442	122,211
71,334	-5,868	249,471	122,361
72,349	-5,599	249,392	122,542
73,363	-5,706	249,127	122,310
74,378	-5,603	248,909	122,278
75,393	-5,803	248,802	122,045
76,407	-5,809	248,470	121,866
77,422	-5,811	248,217	121,729
78,436	-5,680	248,092	121,769
79,451	-5,701	247,914	121,653
80,466	-5,765	247,693	121,479
81,480	-5,927	247,345	121,160
82,495	-5,860	247,133	121,102
83,509	-6,040	247,133	120,940
84,524	-5,919	246,816	120,876
85,539	-6,430	246,761	120,406
86,553	-5,978	246,404	120,602
87,568	-6,016	246,256	120,487
88,582	-5,844	246,037	120,514
89,597	-6,024	245,898	120,284
90,611	-5,858	245,792	120,361
91,626	-5,734	245,592	120,356
92,641	-5,755	245,412	120,240
93,655	-5,986	245,271	119,966
94,670	-5,868	245,019	119,931
95,684	-6,008	244,806	119,699
96,699	-5,720	244,570	119,814
97,714	-5,894	244,418	119,583
98,728	-6,160	244,266	119,276
99,743	-5,966	243,983	119,289
100,757	-6,307	243,969	118,987
101,772	-6,139	243,607	118,939
102,787	-6,102	243,668	118,990
103,801	-5,766	243,213	119,036
104,816	-5,826	243,126	118,933
105,830	-5,796	243,093	118,932
106,845	-5,982	243,025	118,733
107,860	-5,800	242,844	118,785
108,874	-6,035	242,626	118,473
109,889	-5,819	242,228	118,447
110,903	-5,718	241,970	118,394
111,918	-5,972	241,882	118,131
112,933	-5,931	241,735	118,082
113,947	-5,827	241,791	118,185
114,962	-5,692	241,351	118,070
115,976	-5,767	241,356	118,000
116,991	-5,560	240,985	117,979
118,006	-5,642	240,822	117,821
119,020	-5,831	240,827	117,657
120,035	-5,765	240,658	117,619
121,049	-5,543	240,490	117,708
122,064	-5,802	240,301	117,393
123,079	-5,838	240,204	117,306
124,093	-5,779	239,906	117,198
125,108	-6,325	239,676	116,629
126,122	-6,059	239,467	116,734
127,137	-6,081	239,233	116,591
128,151	-6,119	239,097	116,484
129,166	-6,050	239,032	116,498
130,181	-6,136	238,833	116,321
131,195	-6,156	238,568	116,165
132,210	-6,098	238,469	116,153
133,224	-5,941	238,371	116,223
134,239	-5,822	238,143	116,198
135,254	-5,838	237,946	116,078
136,268	-5,899	237,571	115,835
137,283	-6,158	237,530	115,596
138,297	-6,287	237,390	115,413
139,312	-6,036	237,261	115,543
140,327	-5,941	237,038	115,501
141,341	-5,636	237,025	115,731
142,356	-5,599	237,009	115,742
143,370	-5,343	236,643	115,759
144,385	-5,527	236,435	115,499
145,400	-5,658	236,468	115,400
146,414	-5,303	236,192	115,539
147,429	-5,340	235,949	115,381
148,443	-5,433	235,852	115,249
149,458	-5,786	235,794	114,926
150,473	-5,306	235,457	115,137
151,487	-5,581	235,251	114,806
152,502	-5,556	235,114	114,748
153,516	-5,493	235,012	114,739
154,531	-5,472	234,841	114,662
155,546	-5,371	234,715	114,671
156,560	-5,687	234,454	114,281
157,575	-5,883	234,386	114,081
158,589	-5,669	234,069	114,087
159,604	-5,424	234,030	114,253
160,619	-5,411	233,812	114,147
161,633	-5,383	233,630	114,070
162,648	-5,390	233,669	114,073
163,662	-5,336	233,201	113,878
164,677	-5,412	233,177	113,795
165,692	-5,467	233,109	113,709
166,706	-5,345	232,850	113,669
167,721	-5,373	232,881	113,651
168,735	-5,340	232,640	113,550
169,750	-5,389	232,474	113,420
170,764	-5,346	232,223	113,321
171,779	-5,589	232,188	113,103
172,794	-5,231	232,138	113,350
173,808	-5,394	231,753	113,024
174,823	-5,708	231,538	112,662
175,837	-6,101	231,448	112,299
176,852	-5,838	231,262	112,405
177,867	-5,373	231,237	112,748
178,881	-5,531	231,062	112,529
179,896	-5,474	231,003	112,535
180,910	-5,345	230,817	112,535
181,925	-5,341	230,564	112,406
182,940	-5,382	230,458	112,311
183,954	-5,351	230,326	112,262
184,969	-5,430	230,139	112,099
185,983	-5,340	230,036	112,108
186,998	-5,128	229,738	112,119
188,013	-5,339	229,698	111,924
189,027	-5,286	229,570	111,894
190,042	-5,260	229,326	111,785
191,056	-5,340	229,205	111,653
192,071	-5,149	229,049	111,716
193,086	-5,490	228,992	111,414
194,100	-5,241	228,795	111,501
195,115	-5,440	228,557	111,221
196,129	-5,614	228,118	110,863
197,144	-3,192	229,074	113,196
198,159	1,403	230,387	117,414
199,173	3,762	230,965	119,535
200,188	4,091	231,054	119,826
201,202	3,918	230,586	119,438
202,217	3,938	230,520	119,409
203,232	4,457	230,506	119,794
204,246	4,197	230,363	119,508
205,261	4,329	230,227	119,528
206,275	4,488	230,218	119,636
207,290	4,529	229,970	119,528
208,304	4,568	229,855	119,488
209,319	4,241	229,715	119,152
210,334	4,295	229,473	119,057
211,348	4,075	229,283	118,779
212,363	3,761	229,092	118,427
213,377	3,545	228,670	118,032
214,392	3,528	228,567	117,955
215,407	3,823	228,639	118,209
216,421	3,857	228,242	118,019
217,436	3,487	228,242	117,724
218,450	3,565	227,919	117,608
219,465	3,395	227,889	117,451
220,480	3,637	227,593	117,473
221,494	3,380	227,573	117,255
222,509	3,698	227,374	117,386
223,523	3,566	227,282	117,227
224,538	3,526	226,987	117,034
225,553	3,531	227,060	117,065
226,567	3,774	226,887	117,151
227,582	3,897	226,730	117,153
228,596	4,088	226,604	117,223
229,611	3,800	226,490	116,934
230,626	3,455	226,297	116,562
231,640	3,591	226,149	116,579
232,655	3,551	226,129	116,528
233,669	4,085	226,101	116,908
234,684	4,201	225,998	116,932
235,699	3,805	225,694	116,465
236,713	3,843	225,466	116,365
237,728	3,580	225,381	116,112
238,742	3,522	225,119	115,922
239,757	3,593	224,871	115,838
240,772	3,343	224,791	115,599
241,786	3,666	224,422	115,641
242,801	3,648	224,521	115,669
243,815	3,948	224,512	115,880
244,830	3,993	224,298	115,793
245,844	3,718	224,063	115,455
246,859	3,745	223,867	115,363
247,874	3,991	223,803	115,505
248,888	3,889	223,635	115,331
249,903	3,902	223,437	115,229
250,917	3,697	223,415	115,054
251,932	3,549	223,272	114,858
252,947	3,369	223,105	114,628
253,961	3,601	222,827	114,648
254,976	3,572	222,786	114,595
255,990	3,827	222,701	114,732
257,005	3,630	222,628	114,537
258,020	3,767	222,531	114,579
259,034	3,979	222,385	114,651
260,049	3,970	222,062	114,468
261,063	3,805	221,963	114,284
262,078	3,786	221,908	114,231
263,093	4,068	221,775	114,362
264,107	4,123	221,449	114,225
265,122	4,113	221,417	114,191
266,136	3,939	221,451	114,069
267,151	4,072	221,155	114,005
268,166	3,779	220,876	113,634
269,180	3,519	220,636	113,309
270,195	3,509	220,478	113,210
271,209	3,393	220,483	113,117
272,224	3,770	220,235	113,257
273,239	3,629	220,271	113,162
274,253	3,630	220,046	113,037
275,268	3,536	219,708	112,784
276,282	3,311	219,707	112,608
277,297	3,430	219,465	112,561
278,312	3,442	219,413	112,533
279,326	3,631	219,273	112,590
280,341	3,590	219,258	112,542
281,355	3,894	219,163	112,706
282,370	3,648	218,938	112,400
283,384	3,431	218,678	112,098
284,399	3,229	218,637	111,920
285,414	3,425	218,405	111,934
286,428	3,804	218,246	112,119
287,443	3,723	218,222	112,038
288,457	3,900	218,105	112,097
289,472	3,766	217,903	111,885
290,487	3,097	217,761	111,315
291,501	3,118	217,395	111,134
292,516	3,256	217,467	111,261
293,530	3,396	217,318	111,276
294,545	3,449	217,163	111,225
295,560	3,497	217,052	111,193
296,574	3,677	216,974	111,274
297,589	3,555	216,823	111,098
298,603	3,567	216,757	111,063
299,618	3,518	216,550	110,912
300,633	3,546	216,479	110,886
301,647	3,632	216,403	110,899
302,662	4,061	216,188	111,089
303,676	4,042	216,129	111,035
304,691	3,897	215,947	110,827
305,706	3,890	215,735	110,703
306,720	3,883	215,586	110,612
307,735	3,823	215,539	110,535
308,749	3,446	215,457	110,212
309,764	3,481	215,460	110,229
310,779	3,940	215,164	110,397
311,793	3,823	214,885	110,160
312,808	3,812	214,822	110,110
313,822	3,643	214,564	109,847
314,837	3,722	214,436	109,828
315,852	3,554	214,264	109,610
316,866	3,646	214,163	109,615
317,881	3,863	214,208	109,783
318,895	3,777	214,079	109,646
319,910	3,619	213,730	109,344
320,925	3,370	213,575	109,078
321,939	3,300	213,367	108,912
322,954	3,215	213,416	108,867
323,968	3,750	213,341	109,200
324,983	3,735	213,165	109,089
325,997	3,915	213,067	109,157
327,012	3,658	212,946	108,903
328,027	3,573	212,783	108,750
329,041	4,037	212,643	108,997
330,056	4,095	212,562	108,987
331,070	3,707	212,319	108,578
332,085	3,376	212,101	108,223
333,100	3,829	211,912	108,436
334,114	3,817	211,979	108,453
335,129	3,763	211,875	108,352
336,143	3,634	211,533	108,076
337,158	3,609	211,548	108,057
338,173	3,705	211,306	107,991
339,187	3,610	211,167	107,844
340,202	3,431	210,958	107,602
341,216	3,401	210,917	107,550
342,231	3,575	210,722	107,563
343,246	3,408	210,585	107,367
344,260	3,440	210,563	107,369
345,275	3,647	210,504	107,473
346,289	3,403	210,492	107,287
347,304	3,665	210,123	107,273
348,319	3,769	210,038	107,292
349,333	3,857	209,839	107,242
350,348	3,816	209,809	107,189
351,362	3,775	209,787	107,139
352,377	3,924	209,534	107,104
353,392	3,478	209,518	106,776
354,406	3,819	209,272	106,878
355,421	194,378	1344,730	1431,573
356,435	155,136	1483,160	1431,660
