DTS Sentinel unit serial number:	SN410029Multiplexer serial number:	ORYXHardware model number:	OX2-SRSoftware version number:	ORYX F/W v4,00 Oryx Data Collector v3.7.2.0data status	okinstallation	B6 Nyhavnadifferential loss correction	single-endedforward channel	channel 2reverse channel	N/Adate	2023/12/09time	19:50:08forward acquisition time	300,00reverse acquisition time	0,00gamma	499,1914k internal	0,3130k external	0,3130temperature offset calibration	1,0000default loss term (dB/km)	0,3820temperature slope calibration	1,0000multiplexer offset coefficient	1,0000multiplexer slope coefficient	1,0000fibre end	0,00T internal ref (°C)	21,17T ext. ref 1 (°C)	5,16T ext. ref 2 (°C)	5,12length (m)	temperature (°C)	Stokes	anti-Stokes-744,400	-200,000	0,002	-0,043
-743,385	-40,063	-0,157	-0,060
-742,371	-100,039	0,064	-0,012
-741,356	43,007	-0,228	0,154
-740,342	-200,000	0,042	0,149
-739,327	-37,806	-0,202	0,080
-738,312	-200,000	-0,002	-0,055
-737,298	-99,807	-0,181	0,033
-736,283	800,000	-0,019	-0,055
-735,269	-30,496	-0,260	0,109
-734,254	800,000	0,016	0,049
-733,239	-103,075	-0,551	0,096
-732,225	144,414	0,034	0,033
-731,210	-200,000	0,007	0,116
-730,196	-73,073	-0,072	-0,019
-729,181	101,249	0,084	0,073
-728,167	780,261	0,057	0,117
-727,152	52,747	-0,075	-0,053
-726,137	-168,280	-0,051	-0,001
-725,123	-200,000	0,006	-0,055
-724,108	37,721	-0,125	-0,082
-723,094	258,798	0,099	-0,127
-722,079	442,961	-0,021	-0,035
-721,064	-200,000	-0,011	0,052
-720,050	180,471	0,052	-0,057
-719,035	-200,000	0,020	-0,154
-718,021	-27,366	-0,138	0,059
-717,006	800,000	-0,024	0,077
-715,991	-121,436	-0,085	0,010
-714,977	310,838	-0,087	-0,121
-713,962	72,432	-0,153	0,119
-712,948	-200,000	-0,039	0,149
-711,933	-3,517	-0,101	0,052
-710,918	85,833	-0,063	0,052
-709,904	-200,000	-0,015	-0,099
-708,889	-149,413	-0,039	0,002
-707,875	800,000	0,032	-0,089
-706,860	800,000	0,011	-0,034
-705,845	184,180	-0,038	0,042
-704,831	-90,831	0,049	0,010
-703,816	485,422	0,048	0,082
-702,802	26,612	-0,136	-0,084
-701,787	-41,665	-0,065	0,025
-700,772	791,098	-0,054	-0,110
-699,758	-143,749	0,029	-0,002
-698,743	-88,125	-0,101	0,022
-697,729	-73,521	-0,101	-0,027
-696,714	494,364	0,051	0,088
-695,699	-179,736	0,161	-0,003
-694,685	30,156	-0,092	0,058
-693,670	-200,000	0,040	-0,146
-692,656	738,372	-0,051	-0,103
-691,641	188,858	0,053	-0,059
-690,627	199,128	0,044	-0,050
-689,612	-200,000	-0,009	-0,033
-688,597	574,614	0,025	-0,045
-687,583	-152,993	-0,031	0,002
-686,568	800,000	0,042	0,095
-685,554	800,000	-0,019	0,060
-684,539	-64,405	0,003	-0,001
-683,524	3,403	0,116	-0,063
-682,510	-200,000	0,022	0,270
-681,495	-200,000	0,020	0,106
-680,481	149,322	0,039	-0,039
-679,466	-200,000	-0,001	0,081
-678,451	800,000	0,041	-0,127
-677,437	135,481	-0,028	-0,027
-676,422	225,976	-0,011	-0,014
-675,408	390,567	-0,061	-0,095
-674,393	144,572	0,166	-0,164
-673,378	-200,000	0,002	0,065
-672,364	-200,000	-0,019	-0,142
-671,349	-149,425	-0,055	-0,003
-670,335	151,180	-0,014	-0,014
-669,320	-200,000	0,000	0,046
-668,305	36,998	-0,008	0,006
-667,291	800,000	-0,035	0,077
-666,276	659,869	0,074	-0,142
-665,262	42,544	-0,133	-0,090
-664,247	150,489	-0,018	-0,018
-663,232	-159,312	0,092	0,004
-662,218	-134,173	0,038	0,003
-661,203	21,513	-0,091	0,055
-660,189	-200,000	-0,008	-0,080
-659,174	-200,000	0,021	-0,127
-658,159	-37,215	-0,073	-0,029
-657,145	-52,505	-0,096	-0,033
-656,130	-200,000	0,034	-0,111
-655,116	-200,000	-0,001	-0,088
-654,101	-110,542	0,068	-0,010
-653,086	211,723	-0,035	0,041
-652,072	630,692	0,070	0,132
-651,057	-66,952	-0,192	0,056
-650,043	195,366	-0,093	-0,105
-649,028	-9,100	0,068	0,033
-648,014	-126,766	0,146	-0,016
-646,999	-81,707	0,120	0,029
-645,984	-200,000	-0,015	0,068
-644,970	-63,720	0,044	-0,013
-643,955	800,000	0,049	0,126
-642,941	-83,182	-0,085	-0,020
-641,926	-200,000	-0,030	0,099
-640,911	361,376	0,087	0,129
-639,897	46,841	-0,148	0,102
-638,882	-4,294	-0,087	-0,044
-637,868	-200,000	-0,016	0,082
-636,853	-38,112	-0,012	0,005
-635,838	-62,490	-0,058	0,018
-634,824	237,062	-0,090	-0,111
-633,809	-200,000	-0,041	0,157
-632,795	-200,000	-0,023	0,126
-631,780	188,756	0,046	0,051
-630,765	-2,837	0,087	0,045
-629,751	228,627	-0,059	-0,071
-628,736	-72,857	-0,095	-0,026
-627,722	359,260	0,045	0,067
-626,707	-42,180	-0,128	0,048
-625,692	58,388	0,067	0,048
-624,678	185,726	0,043	-0,048
-623,663	367,396	0,079	0,118
-622,649	-124,851	0,029	-0,003
-621,634	-200,000	0,000	-0,157
-620,619	-87,975	-0,055	-0,012
-619,605	-200,000	0,047	-0,000
-618,590	-200,000	-0,012	0,088
-617,576	-92,101	-0,140	0,029
-616,561	49,575	-0,067	0,047
-615,546	-49,022	0,025	-0,009
-614,532	2,208	-0,135	0,072
-613,517	-89,296	0,044	0,010
-612,503	-118,779	0,045	0,006
-611,488	-200,000	0,033	0,174
-610,474	196,388	-0,046	-0,052
-609,459	212,271	-0,132	-0,155
-608,444	449,249	-0,038	0,062
-607,430	800,000	-0,018	-0,041
-606,415	-27,619	0,082	0,035
-605,401	153,613	-0,048	-0,049
-604,386	-188,282	-0,020	0,000
-603,371	35,472	-0,028	0,018
-602,357	54,409	-0,142	0,101
-601,342	230,110	-0,007	-0,008
-600,328	-7,422	-0,146	-0,073
-599,313	179,012	0,051	0,055
-598,298	800,000	-0,033	0,093
-597,284	800,000	0,004	0,011
-596,269	-109,278	-0,092	0,014
-595,255	-200,000	0,018	0,061
-594,240	-200,000	0,042	0,157
-593,225	536,973	-0,074	-0,130
-592,211	-200,000	-0,012	-0,061
-591,196	-200,000	-0,009	-0,126
-590,182	59,449	0,023	0,016
-589,167	-56,329	-0,072	-0,024
-588,152	501,786	0,078	-0,134
-587,138	664,331	-0,050	-0,096
-586,123	-200,000	-0,014	-0,060
-585,109	768,911	0,033	-0,067
-584,094	-152,141	-0,054	-0,003
-583,079	-130,872	-0,025	0,002
-582,065	-96,302	-0,045	-0,009
-581,050	139,091	0,063	0,062
-580,036	138,881	-0,030	-0,029
-579,021	566,612	0,010	-0,019
-578,006	-152,498	-0,115	-0,006
-576,992	30,706	0,005	-0,003
-575,977	-200,000	0,001	-0,031
-574,963	-142,378	0,050	0,004
-573,948	-76,134	0,156	-0,040
-572,934	748,915	0,038	-0,077
-571,919	-200,000	-0,025	0,097
-570,904	-129,623	0,068	-0,007
-569,890	143,875	0,097	0,096
-568,875	422,472	-0,065	0,104
-567,861	-200,000	-0,017	0,129
-566,846	207,819	0,123	0,142
-565,831	800,000	-0,036	0,106
-564,817	446,013	0,085	-0,139
-563,802	-141,863	0,054	0,004
-562,788	800,000	-0,064	0,155
-561,773	64,657	-0,096	-0,072
-560,758	450,275	-0,044	0,072
-559,744	80,533	0,037	0,030
-558,729	47,261	0,080	0,055
-557,715	153,418	-0,121	-0,122
-556,700	800,000	-0,038	-0,100
-555,685	192,791	0,030	0,034
-554,671	800,000	-0,009	0,027
-553,656	-3,086	0,084	-0,043
-552,642	48,780	0,075	0,052
-551,627	-113,237	0,108	0,016
-550,612	-85,782	-0,067	0,015
-549,598	253,465	-0,104	0,131
-548,583	469,400	-0,038	-0,063
-547,569	-200,000	0,034	-0,134
-546,554	22,635	0,095	0,057
-545,539	-200,000	-0,013	0,054
-544,525	684,330	-0,041	0,079
-543,510	213,236	0,067	0,078
-542,496	-200,000	0,007	-0,099
-541,481	-200,000	-0,030	-0,114
-540,466	-135,074	-0,110	-0,010
-539,452	-200,000	0,010	0,050
-538,437	33,387	0,074	-0,047
-537,423	800,000	0,007	-0,021
-536,408	148,221	-0,084	0,084
-535,393	-200,000	-0,004	-0,069
-534,379	-65,108	-0,107	-0,032
-533,364	44,003	0,011	0,007
-532,350	-140,363	0,181	-0,014
-531,335	-65,456	0,150	-0,044
-530,321	-200,000	0,004	-0,027
-529,306	85,628	-0,091	-0,074
-528,291	-44,059	-0,100	-0,037
-527,277	-130,281	-0,049	-0,005
-526,262	-83,891	0,062	-0,014
-525,248	-200,000	0,016	0,106
-524,233	800,000	0,012	0,032
-523,218	269,603	0,049	0,063
-522,204	-169,223	-0,061	-0,002
-521,189	-133,046	-0,036	0,003
-520,175	500,622	-0,029	0,049
-519,160	800,000	0,032	-0,070
-518,145	795,652	-0,049	0,100
-517,131	800,000	-0,016	-0,042
-516,116	79,394	0,030	0,024
-515,102	-166,968	-0,072	0,002
-514,087	-105,201	-0,040	0,007
-513,072	357,482	-0,061	0,090
-512,058	-200,000	-0,014	-0,110
-511,043	615,338	0,047	-0,086
-510,029	-11,787	0,123	-0,059
-509,014	612,082	-0,054	0,099
-507,999	800,000	0,053	-0,134
-506,985	185,043	-0,069	-0,075
-505,970	-135,290	-0,171	-0,015
-504,956	130,632	-0,124	-0,117
-503,941	485,281	-0,082	-0,139
-502,926	255,531	0,120	0,151
-501,912	314,239	-0,072	0,100
-500,897	153,252	-0,041	0,042
-499,883	91,308	-0,079	0,065
-498,868	-142,746	0,039	0,003
-497,853	-104,687	-0,118	0,020
-496,839	-11,924	0,085	0,041
-495,824	558,231	-0,053	-0,095
-494,810	11,916	0,095	0,054
-493,795	-11,801	-0,096	-0,046
-492,781	-200,000	0,002	-0,138
-491,766	-75,435	0,066	0,017
-490,751	126,552	-0,014	-0,013
-489,737	-83,179	0,150	-0,035
-488,722	784,537	0,016	0,032
-487,708	800,000	-0,074	0,156
-486,693	-200,000	0,004	-0,026
-485,678	-200,000	0,017	-0,129
-484,664	162,509	-0,106	-0,110
-483,649	-45,173	0,023	-0,009
-482,635	93,551	-0,050	0,042
-481,620	76,628	0,041	-0,032
-480,605	-56,568	0,075	-0,024
-479,591	800,000	-0,034	-0,074
-478,576	14,642	0,093	-0,053
-477,562	-200,000	0,030	-0,098
-476,547	-56,288	-0,037	-0,012
-475,532	-200,000	-0,003	-0,041
-474,518	-147,756	0,020	-0,001
-473,503	-135,413	-0,047	0,004
-472,489	-117,777	0,061	-0,008
-471,474	-200,000	-0,007	0,052
-470,459	18,862	-0,103	0,061
-469,445	-182,925	0,151	0,002
-468,430	180,067	-0,123	-0,133
-467,416	244,605	0,030	0,037
-466,401	-186,480	-0,035	-0,000
-465,386	669,812	0,050	0,097
-464,372	-62,451	-0,076	-0,023
-463,357	54,046	0,060	-0,043
-462,343	148,110	-0,040	0,040
-461,328	-200,000	0,023	0,088
-460,313	223,978	0,127	0,151
-459,299	-59,096	0,028	-0,009
-458,284	800,000	0,012	0,027
-457,270	210,208	-0,122	0,142
-456,255	411,725	-0,040	-0,063
-455,241	-200,000	-0,007	-0,111
-454,226	-80,410	-0,220	-0,053
-453,211	-200,000	-0,003	-0,014
-452,197	-13,186	-0,026	-0,012
-451,182	-200,000	0,015	0,077
-450,168	330,401	0,073	0,103
-449,153	-153,835	-0,090	-0,004
-448,138	-109,440	-0,097	0,015
-447,124	673,956	0,019	0,036
-446,109	-200,000	-0,016	0,152
-445,095	-72,608	0,143	0,039
-444,080	356,549	0,055	-0,081
-443,065	29,386	-0,037	-0,023
-442,051	35,398	-0,040	0,026
-441,036	-77,249	0,060	0,015
-440,022	-200,000	0,002	-0,015
-439,007	-166,257	0,107	-0,003
-437,992	800,000	-0,036	0,102
-436,978	-200,000	0,023	0,088
-435,963	800,000	0,036	0,074
-434,949	-200,000	0,008	0,068
-433,934	-30,549	-0,122	0,051
-432,919	466,491	0,086	-0,143
-431,905	-200,000	0,006	0,155
-430,890	-200,000	0,001	-0,016
-429,876	44,711	0,106	0,072
-428,861	-12,021	0,021	-0,010
-427,846	117,308	0,027	-0,025
-426,832	-29,712	-0,071	0,030
-425,817	393,315	-0,070	-0,108
-424,803	178,630	-0,037	-0,039
-423,788	-111,609	0,108	0,016
-422,773	-79,162	0,109	0,027
-421,759	-200,000	-0,036	-0,132
-420,744	-200,000	-0,015	-0,064
-419,730	20,245	0,179	-0,106
-418,715	399,073	0,081	-0,125
-417,701	-200,000	-0,024	-0,195
-416,686	-200,000	-0,008	-0,157
-415,671	-200,000	0,020	-0,073
-414,657	528,821	-0,013	0,022
-413,642	-200,000	-0,007	0,179
-412,628	-200,000	0,027	0,122
-411,613	800,000	-0,048	0,140
-410,598	-200,000	0,008	-0,088
-409,584	367,589	-0,053	0,078
-408,569	-200,000	0,011	-0,037
-407,555	-200,000	-0,010	-0,121
-406,540	-71,080	0,087	0,024
-405,525	367,591	-0,073	0,108
-404,511	7,268	-0,026	0,014
-403,496	-76,339	-0,121	-0,031
-402,482	-133,481	-0,042	-0,004
-401,467	9,033	-0,032	0,018
-400,452	196,801	-0,030	-0,033
-399,438	1,610	-0,062	-0,032
-398,423	120,243	0,073	-0,066
-397,409	89,581	-0,060	0,049
-396,394	-200,000	-0,007	-0,089
-395,379	-31,955	0,061	-0,025
-394,365	-200,000	-0,027	0,215
-393,350	800,000	-0,030	0,087
-392,336	-200,000	0,008	-0,025
-391,321	-200,000	0,007	-0,091
-390,306	116,743	-0,045	0,041
-389,292	-200,000	0,004	-0,057
-388,277	-76,704	-0,073	0,019
-387,263	179,497	-0,075	-0,081
-386,248	-200,000	-0,006	0,033
-385,233	361,339	0,047	0,069
-384,219	185,052	0,111	0,121
-383,204	800,000	-0,085	-0,251
-382,190	35,290	-0,059	0,038
-381,175	-126,935	-0,074	-0,008
-380,160	64,183	-0,032	-0,024
-379,146	23,340	0,054	0,032
-378,131	528,446	0,031	-0,054
-377,117	64,202	-0,061	0,045
-376,102	-154,538	-0,135	-0,006
-375,088	339,896	0,045	-0,064
-374,073	87,287	-0,017	-0,014
-373,058	195,487	0,077	0,086
-372,044	66,198	0,028	0,021
-371,029	-200,000	-0,022	0,095
-370,015	-200,000	-0,030	0,100
-369,000	470,587	0,017	0,028
-367,985	-200,000	0,030	-0,176
-366,971	-200,000	0,006	-0,045
-365,956	-200,000	-0,000	0,109
-364,942	212,328	0,104	0,121
-363,927	-50,145	-0,114	0,039
-362,912	-200,000	0,022	0,109
-361,898	-200,000	-0,049	-0,166
-360,883	-200,000	0,004	-0,028
-359,869	-200,000	0,031	-0,105
-358,854	-160,013	-0,158	-0,006
-357,839	-200,000	-0,005	0,187
-356,825	-80,300	0,056	-0,014
-355,810	642,924	-0,043	-0,081
-354,796	-79,631	0,046	0,011
-353,781	-54,014	-0,189	-0,063
-352,766	21,312	-0,042	0,025
-351,752	-200,000	0,006	-0,058
-350,737	-200,000	0,003	0,162
-349,723	99,562	0,055	0,046
-348,708	800,000	0,017	0,052
-347,693	87,076	0,057	-0,046
-346,679	-200,000	0,002	-0,100
-345,664	-56,842	-0,070	-0,022
-344,650	-200,000	0,013	0,081
-343,635	800,000	-0,034	-0,084
-342,620	-12,153	0,056	0,027
-341,606	-200,000	0,022	-0,083
-340,591	-200,000	-0,008	-0,054
-339,577	-154,117	-0,084	0,004
-338,562	-200,000	-0,019	-0,078
-337,548	-200,000	0,007	-0,038
-336,533	-61,455	0,121	-0,037
-335,518	319,449	0,092	0,128
-334,504	-200,000	0,041	0,163
-333,489	689,948	0,067	0,128
-332,475	-200,000	0,009	-0,067
-331,460	241,672	-0,079	-0,097
-330,445	-74,673	0,076	0,020
-329,431	269,094	0,042	-0,054
-328,416	-16,378	0,083	0,038
-327,402	225,210	0,076	0,090
-326,387	268,404	0,027	-0,035
-325,372	264,242	-0,042	-0,053
-324,358	594,146	0,086	-0,157
-323,343	-200,000	0,019	-0,158
-322,329	-200,000	-0,002	-0,049
-321,314	-200,000	-0,016	0,104
-320,299	-43,041	-0,126	0,046
-319,285	-130,011	-0,046	-0,005
-318,270	-71,098	-0,029	-0,008
-317,256	800,000	-0,016	0,050
-316,241	52,615	0,076	-0,053
-315,226	669,462	-0,057	0,108
-314,212	15,411	0,061	0,035
-313,197	-200,000	0,001	-0,070
-312,183	457,205	-0,024	0,039
-311,168	-200,000	0,005	0,044
-310,153	-187,163	-0,052	0,001
-309,139	-17,952	-0,032	-0,015
-308,124	166,761	0,073	-0,075
-307,110	239,563	-0,027	-0,033
-306,095	-54,462	0,151	0,050
-305,080	-73,968	-0,059	-0,016
-304,066	-200,000	0,016	0,077
-303,051	-200,000	0,011	-0,049
-302,037	-200,000	0,005	0,065
-301,022	-200,000	0,010	0,161
-300,008	-113,610	0,088	0,012
-298,993	-24,858	-0,152	0,066
-297,978	4,733	-0,028	-0,015
-296,964	800,000	-0,045	-0,094
-295,949	800,000	0,026	-0,071
-294,935	563,095	0,035	-0,063
-293,920	661,307	0,037	-0,070
-292,905	-104,334	-0,061	-0,010
-291,891	800,000	-0,035	-0,110
-290,876	-92,262	0,247	-0,051
-289,862	-173,511	0,109	0,002
-288,847	-200,000	-0,052	-0,177
-287,832	137,781	-0,109	-0,104
-286,818	-200,000	-0,019	0,065
-285,803	-127,095	0,089	-0,009
-284,789	671,205	0,052	-0,099
-283,774	-66,417	-0,100	0,029
-282,759	135,995	-0,058	0,056
-281,745	800,000	0,050	-0,122
-280,730	70,267	-0,027	-0,020
-279,716	181,348	-0,026	-0,028
-278,701	-200,000	0,020	0,080
-277,686	41,219	-0,068	-0,045
-276,672	16,571	-0,074	0,042
-275,657	800,000	0,041	-0,099
-274,643	-200,000	-0,021	-0,080
-273,628	79,777	0,066	-0,051
-272,613	171,120	0,011	0,011
-271,599	265,655	-0,061	0,078
-270,584	71,429	0,122	-0,092
-269,570	-27,556	-0,065	-0,027
-268,555	-86,455	0,073	0,016
-267,540	-200,000	-0,025	-0,175
-266,526	170,507	-0,059	0,061
-265,511	74,448	0,047	-0,036
-264,497	172,793	0,109	0,115
-263,482	412,644	-0,086	0,133
-262,467	14,955	0,160	0,091
-261,453	160,963	0,050	-0,051
-260,438	108,551	-0,065	-0,057
-259,424	-82,713	0,102	0,024
-258,409	-72,481	-0,143	-0,038
-257,395	-200,000	0,025	0,087
-256,380	-127,887	0,074	0,008
-255,365	-114,880	-0,084	-0,011
-254,351	-200,000	0,002	-0,091
-253,336	36,689	0,122	-0,079
-252,322	-29,220	0,068	-0,028
-251,307	800,000	-0,035	-0,083
-250,292	-200,000	-0,012	-0,102
-249,278	1,054	0,128	0,067
-248,263	53,370	0,090	-0,063
-247,249	-200,000	0,007	0,071
-246,234	-200,000	0,010	0,057
-245,219	-200,000	-0,007	-0,074
-244,205	-131,078	0,135	0,013
-243,190	143,152	-0,029	-0,028
-242,176	-200,000	0,044	-0,144
-241,161	436,197	0,078	-0,124
-240,146	-42,902	0,060	-0,022
-239,132	-200,000	-0,003	0,079
-238,117	-51,063	0,067	0,023
-237,103	-46,454	-0,046	-0,016
-236,088	716,609	0,071	-0,137
-235,073	94,108	0,036	0,030
-234,059	203,104	-0,024	0,027
-233,044	-200,000	0,028	0,138
-232,030	800,000	0,031	0,065
-231,015	-59,012	-0,064	-0,020
-230,000	-200,000	0,005	-0,084
-228,986	-22,113	0,136	0,060
-227,971	62,230	-0,026	0,019
-226,957	-96,888	-0,005	-0,001
-225,942	19,247	0,069	0,040
-224,927	-200,000	0,015	0,060
-223,913	60,945	-0,097	-0,070
-222,898	-200,000	-0,011	0,048
-221,884	-200,000	0,044	-0,192
-220,869	309,630	0,077	-0,106
-219,855	107,489	-0,053	0,046
-218,840	17,681	-0,101	-0,058
-217,825	-166,717	0,062	-0,002
-216,811	-200,000	-0,001	0,087
-215,796	800,000	-0,004	-0,010
-214,782	-200,000	-0,012	-0,085
-213,767	800,000	-0,034	0,085
-212,752	-200,000	-0,007	0,120
-211,738	94,756	0,048	-0,040
-210,723	179,255	0,033	-0,035
-209,709	-200,000	-0,003	0,058
-208,694	106,250	0,118	-0,102
-207,679	-200,000	0,002	0,026
-206,665	800,000	0,007	0,016
-205,650	134,259	-0,079	0,075
-204,636	-82,163	0,139	0,033
-203,621	800,000	-0,038	0,108
-202,606	800,000	-0,034	-0,076
-201,592	464,917	0,054	-0,089
-200,577	15,755	-0,017	0,010
-199,563	800,000	-0,044	0,096
-198,548	800,000	0,016	-0,049
-197,533	158,304	0,137	0,138
-196,519	5,078	-0,076	-0,041
-195,504	360,358	0,034	0,049
-194,490	-200,000	0,027	0,130
-193,475	-23,110	-0,133	-0,058
-192,460	-200,000	0,006	-0,094
-191,446	-72,407	-0,060	-0,016
-190,431	800,000	0,071	0,145
-189,417	258,787	0,070	-0,089
-188,402	218,833	-0,096	-0,111
-187,387	-200,000	0,004	-0,085
-186,373	289,457	0,100	-0,132
-185,358	-200,000	-0,010	0,038
-184,344	-200,000	0,023	-0,100
-183,329	800,000	0,041	0,126
-182,315	64,559	-0,111	-0,082
-181,300	-136,184	0,089	0,007
-180,285	-200,000	-0,009	-0,039
-179,271	-110,494	-0,203	-0,030
-178,256	-104,471	0,131	-0,022
-177,242	73,872	-0,052	0,039
-176,227	-200,000	-0,003	-0,060
-175,212	-200,000	-0,022	-0,112
-174,198	-200,000	-0,005	0,092
-173,183	323,141	-0,113	0,157
-172,169	-200,000	0,002	-0,064
-171,154	122,422	0,060	-0,054
-170,139	185,693	0,065	-0,071
-169,125	-98,387	-0,029	-0,005
-168,110	-164,291	-0,093	-0,003
-167,096	-200,000	0,000	-0,034
-166,081	-76,389	-0,035	-0,009
-165,066	800,000	-0,044	0,127
-164,052	-200,000	0,027	0,116
-163,037	-200,000	0,017	-0,112
-162,023	-200,000	-0,000	0,052
-161,008	678,907	-0,051	0,096
-159,993	-33,604	-0,156	-0,062
-158,979	171,405	0,060	0,063
-157,964	-51,807	0,048	0,016
-156,950	-53,916	-0,044	0,015
-155,935	-200,000	-0,012	0,068
-154,920	-37,022	0,143	0,056
-153,906	-66,603	0,140	0,040
-152,891	617,462	0,015	-0,028
-151,877	16,564	0,080	0,046
-150,862	-127,286	-0,091	-0,010
-149,847	-200,000	-0,022	0,080
-148,833	170,533	-0,092	-0,095
-147,818	347,692	-0,060	0,086
-146,804	-87,729	0,195	0,042
-145,789	800,000	-0,076	0,155
-144,775	800,000	0,018	0,052
-143,760	-59,214	-0,088	0,027
-142,745	102,617	0,068	-0,058
-141,731	-23,708	0,056	0,024
-140,716	123,835	-0,078	-0,071
-139,702	-200,000	0,004	-0,087
-138,687	53,151	0,113	0,078
-137,672	3,847	-0,088	-0,047
-136,658	-200,000	-0,011	0,112
-135,643	133,525	-0,120	-0,113
-134,629	271,795	0,119	0,153
-133,614	-200,000	0,007	0,062
-132,599	98,350	0,030	-0,025
-131,585	588,988	-0,042	0,076
-130,570	-122,470	0,116	-0,014
-129,556	681,575	-0,058	-0,110
-128,541	-80,477	0,125	-0,030
-127,526	633,019	0,048	0,089
-126,512	-136,544	0,221	0,018
-125,497	-200,000	-0,004	0,102
-124,483	105,808	0,012	-0,010
-123,468	800,000	-0,043	-0,114
-122,453	202,920	-0,132	-0,148
-121,439	76,400	-0,023	-0,018
-120,424	89,708	0,124	-0,101
-119,410	-153,887	0,209	-0,010
-118,395	-62,170	0,041	-0,012
-117,380	216,149	-0,084	0,097
-116,366	800,000	0,023	-0,067
-115,351	-200,000	0,033	0,113
-114,337	-70,754	-0,055	0,015
-113,322	168,397	-0,098	0,102
-112,307	-200,000	0,006	0,183
-111,293	723,468	0,048	-0,094
-110,278	18,449	-0,074	-0,043
-109,264	-200,000	-0,025	0,099
-108,249	-200,000	-0,007	-0,035
-107,234	261,448	0,016	-0,020
-106,220	51,023	-0,104	0,071
-105,205	-200,000	0,006	0,103
-104,191	-80,853	0,045	0,011
-103,176	-27,999	0,080	0,033
-102,162	-200,000	0,003	-0,034
-101,147	11,883	0,055	-0,031
-100,132	-200,000	0,000	-0,174
-99,118	388,944	-0,016	-0,024
-98,103	29,434	-0,110	0,068
-97,089	49,697	-0,133	0,091
-96,074	601,932	0,079	0,144
-95,059	-38,457	0,028	0,011
-94,045	-5,138	0,040	-0,020
-93,030	-200,000	0,010	0,042
-92,016	367,351	-0,083	-0,122
-91,001	-200,000	0,042	-0,151
-89,986	-3,007	0,060	-0,030
-88,972	123,574	-0,160	0,145
-87,957	355,544	0,032	0,047
-86,943	353,164	-0,044	-0,064
-85,928	-26,763	0,007	0,003
-84,913	-78,959	-0,050	0,012
-83,899	105,983	-0,109	0,093
-82,884	-200,000	-0,011	0,039
-81,870	106,810	0,107	0,092
-80,855	-200,000	0,005	-0,068
-79,840	512,001	0,026	0,043
-78,826	344,112	-0,055	0,079
-77,811	392,561	-0,050	-0,075
-76,797	8,705	-0,016	-0,009
-75,782	136,227	-0,078	0,074
-74,767	-200,000	-0,038	0,149
-73,753	20,711	0,088	-0,052
-72,738	-156,311	0,036	0,002
-71,724	800,000	-0,054	-0,143
-70,709	-108,314	-0,072	0,011
-69,694	800,000	0,014	0,040
-68,680	800,000	0,010	0,030
-67,665	172,191	-0,036	0,037
-66,651	53,137	0,099	0,069
-65,636	-30,601	-0,095	0,039
-64,622	800,000	0,056	-0,150
-63,607	63,622	-0,184	-0,133
-62,592	-125,181	0,131	-0,014
-61,578	-34,072	0,083	-0,033
-60,563	218,365	-0,071	0,082
-59,549	800,000	-0,036	-0,110
-58,534	-92,209	-1,383	-0,280
-57,519	800,000	-0,544	-1,466
-56,505	-200,000	-0,987	-4,736
-55,490	-72,993	0,684	-0,181
-54,476	800,000	5,077	11,689
-53,461	-200,000	14,509	258,076
-52,446	-200,000	696,986	2233,286
-51,432	565,249	1623,417	2861,004
-50,417	117,270	1630,698	1451,236
-49,403	74,196	1284,586	975,553
-48,388	37,382	1022,706	654,978
-47,373	23,306	981,812	582,556
-46,359	22,560	970,964	573,655
-45,344	21,379	966,592	567,199
-44,330	21,385	965,243	566,402
-43,315	21,200	963,890	564,985
-42,300	21,240	962,671	564,376
-41,286	21,215	961,618	563,658
-40,271	21,155	960,748	562,929
-39,257	21,175	959,914	562,482
-38,242	21,221	958,907	562,021
-37,227	21,174	958,142	561,398
-36,213	21,163	957,078	560,715
-35,198	21,148	956,193	560,126
-34,184	21,137	955,727	559,795
-33,169	21,160	954,722	559,258
-32,154	21,283	953,670	559,018
-31,140	21,201	952,907	558,284
-30,125	21,195	952,246	557,854
-29,111	21,193	951,518	557,401
-28,096	21,254	950,674	557,078
-27,082	21,252	950,097	556,712
-26,067	21,252	949,319	556,235
-25,052	21,188	948,560	555,563
-24,038	21,155	948,016	555,117
-23,023	21,217	947,089	554,750
-22,009	21,190	946,566	554,337
-20,994	21,204	945,997	554,024
-19,979	21,261	945,406	553,839
-18,965	21,215	944,710	553,262
-17,950	21,212	944,196	552,928
-16,936	21,200	943,463	552,440
-15,921	21,174	942,524	551,784
-14,906	21,116	941,953	551,245
-13,892	21,078	941,484	550,827
-12,877	21,111	940,794	550,507
-11,863	21,038	940,354	549,997
-10,848	21,084	939,773	549,781
-9,833	21,163	939,111	549,622
-8,819	21,200	938,558	549,394
-7,804	21,123	937,949	548,773
-6,790	21,065	937,384	548,236
-5,775	21,094	936,800	547,966
-4,760	21,098	936,129	547,563
-3,746	21,092	935,633	547,232
-2,731	20,940	934,750	546,216
-1,717	20,886	934,020	545,596
-0,702	20,860	933,578	545,235
0,313	20,666	932,783	544,984
1,327	23,744	930,805	553,440
2,342	32,938	794,100	496,572
3,356	30,535	451,127	278,460
4,371	0,429	295,130	152,012
5,386	-3,908	276,227	138,143
6,400	-5,156	270,640	134,174
7,415	-5,428	268,240	132,720
8,429	-5,369	266,878	132,089
9,444	-5,381	266,009	131,636
10,459	-5,316	265,428	131,396
11,473	-5,458	264,729	130,909
12,488	-5,429	264,343	130,733
13,502	-5,579	263,741	130,287
14,517	-5,697	263,344	129,973
15,531	-5,458	262,835	129,926
16,546	-5,518	262,430	129,660
17,561	-5,663	262,168	129,389
18,575	-5,448	261,824	129,401
19,590	-5,446	261,404	129,184
20,604	-5,503	261,146	128,992
21,619	-5,555	260,980	128,853
22,634	-5,543	260,523	128,627
23,648	-5,723	260,163	128,276
24,663	-5,762	259,994	128,147
25,677	-5,698	259,596	127,996
26,692	-5,649	259,467	127,965
27,707	-5,577	259,140	127,856
28,721	-5,600	258,913	127,712
29,736	-5,508	258,529	127,594
30,750	-5,703	258,402	127,346
31,765	-5,657	258,279	127,315
32,780	-5,754	257,968	127,064
33,794	-5,714	257,913	127,062
34,809	-5,545	257,455	126,974
35,823	-5,746	257,274	126,695
36,838	-5,540	256,887	126,675
37,853	-5,899	256,774	126,292
38,867	-5,935	256,615	126,171
39,882	-5,680	256,322	126,240
40,896	-5,776	256,129	126,049
41,911	-5,891	255,859	125,804
42,926	-5,638	255,534	125,855
43,940	-5,904	255,356	125,522
44,955	-5,675	255,089	125,581
45,969	-6,022	254,890	125,168
46,984	-5,915	254,717	125,165
47,999	-6,091	254,487	124,887
49,013	-6,272	254,152	124,554
50,028	-6,286	253,932	124,423
51,042	-6,371	253,625	124,187
52,057	-6,348	253,359	124,066
53,071	-6,368	253,277	123,997
54,086	-6,162	253,086	124,071
55,101	-6,200	252,945	123,958
56,115	-6,073	252,789	123,981
57,130	-5,663	252,752	124,308
58,144	-5,344	252,383	124,392
59,159	-5,240	252,242	124,401
60,174	-5,305	251,948	124,189
61,188	-5,559	251,824	123,897
62,203	-5,393	251,723	123,979
63,217	-5,800	251,537	123,525
64,232	-5,640	251,357	123,565
65,247	-5,772	251,138	123,331
66,261	-5,746	250,805	123,180
67,276	-5,668	250,539	123,105
68,290	-5,982	250,301	122,707
69,305	-6,073	250,139	122,539
70,320	-5,815	249,800	122,583
71,334	-5,636	249,684	122,668
72,349	-5,528	249,571	122,694
73,363	-5,603	249,423	122,547
74,378	-5,609	249,273	122,457
75,393	-5,594	249,061	122,354
76,407	-5,785	248,868	122,086
77,422	-5,531	248,401	122,062
78,436	-5,675	248,399	121,928
79,451	-5,622	248,226	121,877
80,466	-5,772	247,866	121,562
81,480	-5,890	247,816	121,427
82,495	-5,947	247,597	121,260
83,509	-5,830	247,299	121,203
84,524	-5,981	247,225	121,028
85,539	-6,098	247,026	120,821
86,553	-6,242	246,889	120,621
87,568	-5,811	246,418	120,744
88,582	-5,867	246,407	120,680
89,597	-5,801	246,098	120,574
90,611	-5,773	246,037	120,557
91,626	-5,689	245,835	120,517
92,641	-5,678	245,654	120,427
93,655	-5,864	245,529	120,199
94,670	-5,898	245,278	120,037
95,684	-5,783	245,148	120,059
96,699	-5,686	245,057	120,085
97,714	-5,967	244,671	119,650
98,728	-5,897	244,593	119,660
99,743	-6,053	244,354	119,402
100,757	-6,067	244,092	119,252
101,772	-5,894	243,887	119,285
102,787	-5,652	243,810	119,438
103,801	-5,911	243,623	119,120
104,816	-5,936	243,484	119,021
105,830	-5,861	243,344	119,004
106,845	-5,571	243,194	119,161
107,860	-5,578	243,081	119,090
108,874	-5,884	242,781	118,679
109,889	-5,663	242,512	118,719
110,903	-5,898	242,383	118,452
111,918	-5,788	242,047	118,367
112,933	-5,728	241,960	118,363
113,947	-5,829	241,939	118,259
114,962	-5,655	241,597	118,225
115,976	-5,883	241,588	118,022
116,991	-5,645	241,235	118,035
118,006	-5,537	240,917	117,958
119,020	-5,542	241,079	118,022
120,035	-5,535	240,875	117,918
121,049	-5,572	240,707	117,794
122,064	-5,625	240,542	117,660
123,079	-5,690	240,327	117,491
124,093	-5,717	240,140	117,367
125,108	-5,798	239,956	117,201
126,122	-5,820	239,582	116,989
127,137	-6,037	239,403	116,714
128,151	-5,805	239,204	116,796
129,166	-5,881	239,261	116,752
130,181	-6,116	239,046	116,444
131,195	-6,093	238,930	116,396
132,210	-5,693	238,591	116,547
133,224	-5,701	238,504	116,487
134,239	-5,614	238,314	116,454
135,254	-5,768	238,345	116,334
136,268	-5,785	237,917	116,101
137,283	-6,030	237,746	115,809
138,297	-5,982	237,593	115,763
139,312	-6,176	237,306	115,455
140,327	-5,992	237,451	115,664
141,341	-5,239	237,211	116,146
142,356	-5,451	237,111	115,915
143,370	-5,375	237,058	115,941
144,385	-5,423	236,898	115,813
145,400	-5,328	236,536	115,702
146,414	-5,394	236,508	115,625
147,429	-5,435	236,171	115,417
148,443	-5,527	236,194	115,344
149,458	-5,436	235,940	115,283
150,473	-5,413	235,755	115,200
151,487	-5,268	235,439	115,152
152,502	-5,428	235,357	114,974
153,516	-5,554	235,232	114,801
154,531	-5,409	235,065	114,826
155,546	-5,463	234,820	114,653
156,560	-5,358	234,740	114,687
157,575	-5,735	234,595	114,305
158,589	-5,449	234,388	114,422
159,604	-5,499	234,164	114,262
160,619	-5,334	234,097	114,352
161,633	-5,326	233,928	114,265
162,648	-5,133	233,636	114,266
163,662	-5,157	233,663	114,249
164,677	-5,326	233,379	113,967
165,692	-5,459	233,327	113,826
166,706	-5,321	233,102	113,814
167,721	-5,284	233,046	113,806
168,735	-5,133	232,797	113,795
169,750	-5,316	232,662	113,573
170,764	-5,326	232,556	113,504
171,779	-5,224	232,480	113,537
172,794	-5,238	232,293	113,424
173,808	-5,296	232,067	113,259
174,823	-5,725	231,551	112,660
175,837	-5,852	231,671	112,607
176,852	-5,530	231,483	112,759
177,867	-5,524	231,564	112,793
178,881	-5,237	231,332	112,895
179,896	-5,432	231,202	112,669
180,910	-5,014	230,864	112,822
181,925	-5,208	230,791	112,624
182,940	-5,154	230,685	112,604
183,954	-5,247	230,444	112,405
184,969	-5,267	230,343	112,329
185,983	-5,089	230,193	112,385
186,998	-5,333	230,150	112,164
188,013	-5,254	229,876	112,082
189,027	-5,176	229,704	112,049
190,042	-5,283	229,641	111,925
191,056	-5,161	229,531	111,956
192,071	-5,290	229,324	111,744
193,086	-5,154	229,116	111,739
194,100	-5,301	229,070	111,593
195,115	-5,460	228,720	111,289
196,129	-5,817	228,557	110,923
197,144	-2,689	229,321	113,713
198,159	1,389	230,690	117,561
199,173	3,701	231,056	119,538
200,188	3,807	231,100	119,633
201,202	4,010	230,974	119,715
202,217	4,068	230,832	119,676
203,232	4,280	230,788	119,808
204,246	4,417	230,519	119,763
205,261	4,420	230,363	119,674
206,275	4,551	230,381	119,774
207,290	4,637	230,328	119,802
208,304	4,515	230,007	119,530
209,319	4,599	229,859	119,508
210,334	4,443	229,609	119,246
211,348	4,139	229,454	118,921
212,363	3,790	229,204	118,512
213,377	3,429	228,986	118,110
214,392	3,475	228,794	118,036
215,407	3,778	228,742	118,232
216,421	3,706	228,634	118,110
217,436	3,614	228,362	117,889
218,450	3,445	228,053	117,589
219,465	3,423	227,924	117,494
220,480	3,491	227,806	117,476
221,494	3,459	227,836	117,456
222,509	3,457	227,737	117,393
223,523	3,672	227,525	117,437
224,538	3,754	227,220	117,332
225,553	3,718	227,124	117,245
226,567	3,978	227,060	117,399
227,582	4,227	226,918	117,506
228,596	4,099	226,822	117,348
229,611	3,934	226,576	117,085
230,626	3,588	226,425	116,733
231,640	3,433	226,237	116,508
232,655	4,073	225,980	116,851
233,669	4,240	226,146	117,053
234,684	4,297	225,913	116,965
235,699	4,102	225,844	116,771
236,713	3,714	225,647	116,365
237,728	3,717	225,393	116,226
238,742	3,711	225,195	116,109
239,757	3,652	225,018	115,963
240,772	3,518	224,897	115,789
241,786	3,524	224,842	115,754
242,801	3,656	224,770	115,807
243,815	4,049	224,647	116,030
244,830	4,180	224,492	116,038
245,844	3,991	224,148	115,708
246,859	3,792	224,103	115,524
247,874	3,728	224,007	115,416
248,888	3,856	223,831	115,412
249,903	3,799	223,724	115,304
250,917	3,796	223,502	115,176
251,932	3,565	223,391	114,936
252,947	3,489	223,269	114,806
253,961	3,518	223,050	114,705
254,976	3,740	222,852	114,759
255,990	3,719	222,972	114,795
257,005	3,908	222,754	114,813
258,020	3,744	222,624	114,613
259,034	4,162	222,623	114,915
260,049	4,069	222,300	114,669
261,063	3,899	222,063	114,410
262,078	3,956	221,986	114,402
263,093	3,918	221,958	114,349
264,107	3,931	221,759	114,246
265,122	3,982	221,583	114,183
266,136	4,138	221,516	114,254
267,151	4,204	221,325	114,194
268,166	3,727	221,223	113,778
269,180	3,353	220,907	113,329
270,195	3,567	220,731	113,386
271,209	3,484	220,691	113,294
272,224	3,784	220,544	113,431
273,239	3,780	220,400	113,343
274,253	3,666	220,137	113,114
275,268	3,384	220,097	112,876
276,282	3,224	219,965	112,680
277,297	3,466	219,690	112,707
278,312	3,608	219,544	112,727
279,326	3,680	219,557	112,776
280,341	3,639	219,370	112,640
281,355	3,677	219,266	112,604
282,370	3,602	219,001	112,403
283,384	3,506	218,858	112,250
284,399	3,457	218,674	112,109
285,414	3,414	218,601	112,030
286,428	3,607	218,517	112,118
287,443	3,652	218,421	112,092
288,457	3,860	218,252	112,147
289,472	3,600	218,160	111,900
290,487	3,242	217,619	111,352
291,501	3,010	217,858	111,296
292,516	3,351	217,472	111,336
293,530	3,431	217,446	111,372
294,545	3,604	217,435	111,481
295,560	3,538	217,254	111,331
296,574	3,816	217,026	111,405
297,589	3,743	216,878	111,267
298,603	3,668	216,853	111,190
299,618	3,753	216,683	111,154
300,633	3,676	216,494	110,991
301,647	3,754	216,498	111,041
302,662	3,907	216,334	111,057
303,676	3,870	216,385	111,046
304,691	3,975	216,110	110,970
305,706	3,878	216,043	110,857
306,720	4,087	215,750	110,847
307,735	3,749	215,656	110,545
308,749	3,437	215,532	110,247
309,764	3,830	215,366	110,435
310,779	3,852	215,310	110,412
311,793	3,760	215,151	110,255
312,808	3,911	214,894	110,222
313,822	3,935	214,813	110,187
314,837	3,440	214,733	109,782
315,852	3,595	214,447	109,737
316,866	3,647	214,335	109,708
317,881	4,082	214,218	109,948
318,895	3,934	214,061	109,752
319,910	3,770	213,971	109,579
320,925	3,427	213,699	109,186
321,939	3,041	213,493	108,796
322,954	3,133	213,670	108,942
323,968	3,691	213,496	109,241
324,983	3,837	213,309	109,239
325,997	4,005	213,184	109,285
327,012	3,652	213,071	108,966
328,027	3,757	212,924	108,956
329,041	4,131	212,934	109,217
330,056	4,211	212,739	109,164
331,070	3,923	212,540	108,848
332,085	3,519	212,156	108,356
333,100	3,581	212,121	108,373
334,114	3,788	212,068	108,482
335,129	3,776	211,875	108,365
336,143	3,482	211,794	108,107
337,158	3,546	211,743	108,116
338,173	3,633	211,482	108,035
339,187	3,461	211,263	107,792
340,202	3,583	211,228	107,850
341,216	3,401	211,030	107,612
342,231	3,660	210,881	107,708
343,246	3,556	210,842	107,605
344,260	3,665	210,711	107,605
345,275	3,658	210,565	107,517
346,289	3,813	210,430	107,546
347,304	3,791	210,296	107,453
348,319	3,804	210,211	107,409
349,333	3,778	210,077	107,313
350,348	3,492	210,015	107,072
351,362	3,705	209,869	107,136
352,377	4,023	209,582	107,202
353,392	3,936	209,422	107,049
354,406	3,546	209,473	106,794
355,421	195,538	1342,921	1433,479
356,435	156,124	1481,099	1433,562
