DTS Sentinel unit serial number:	SN410029Multiplexer serial number:	ORYXHardware model number:	OX2-SRSoftware version number:	ORYX F/W v4,00 Oryx Data Collector v3.7.2.0data status	okinstallation	B6 Nyhavnadifferential loss correction	single-endedforward channel	channel 2reverse channel	N/Adate	2023/12/09time	15:45:08forward acquisition time	300,00reverse acquisition time	0,00gamma	499,1914k internal	0,3132k external	0,3132temperature offset calibration	1,0000default loss term (dB/km)	0,3820temperature slope calibration	1,0000multiplexer offset coefficient	1,0000multiplexer slope coefficient	1,0000fibre end	0,00T internal ref (°C)	20,72T ext. ref 1 (°C)	4,65T ext. ref 2 (°C)	4,64length (m)	temperature (°C)	Stokes	anti-Stokes-744,400	-68,281	0,055	-0,016
-743,385	-127,202	-0,290	0,031
-742,371	-105,753	0,053	0,009
-741,356	12,417	-0,188	-0,108
-740,342	800,000	0,040	-0,095
-739,327	-81,545	-0,259	-0,063
-738,312	-110,245	0,068	0,010
-737,298	-59,585	-0,250	0,079
-736,283	312,885	0,080	0,111
-735,269	-200,000	-0,300	-0,001
-734,254	15,044	0,149	0,086
-733,239	-168,091	-0,541	0,015
-732,225	193,981	0,093	0,104
-731,210	384,228	-0,033	0,050
-730,196	-6,788	-0,015	0,008
-729,181	-85,452	-0,033	-0,008
-728,167	-200,000	0,001	-0,031
-727,152	111,748	-0,054	-0,049
-726,137	-80,467	-0,033	0,008
-725,123	164,101	-0,045	-0,048
-724,108	57,531	-0,070	-0,051
-723,094	244,177	-0,040	-0,050
-722,079	-85,276	-0,130	0,030
-721,064	178,036	0,064	0,070
-720,050	-200,000	0,004	0,032
-719,035	-200,000	-0,005	0,053
-718,021	71,046	-0,046	-0,035
-717,006	132,048	-0,023	0,022
-715,991	518,722	-0,101	-0,176
-714,977	800,000	-0,025	0,076
-713,962	63,791	-0,043	-0,032
-712,948	79,608	0,076	-0,061
-711,933	-200,000	0,007	0,084
-710,918	148,830	0,058	0,059
-709,904	-200,000	-0,018	-0,142
-708,889	-137,010	-0,157	-0,013
-707,875	-49,677	-0,202	0,071
-706,860	119,295	0,060	-0,056
-705,845	-54,319	-0,038	-0,013
-704,831	800,000	0,011	0,031
-703,816	46,636	-0,149	0,102
-702,802	-29,955	-0,145	-0,061
-701,787	386,757	-0,086	-0,132
-700,772	-33,437	-0,076	0,031
-699,758	269,210	-0,055	0,072
-698,743	800,000	0,068	0,174
-697,729	-200,000	-0,032	0,159
-696,714	444,541	0,058	0,095
-695,699	-26,537	-0,062	-0,027
-694,685	-145,848	-0,078	0,005
-693,670	-67,838	0,115	-0,033
-692,656	-19,969	-0,146	0,067
-691,641	-11,275	-0,057	0,028
-690,627	398,298	0,018	-0,028
-689,612	-8,203	-0,114	-0,057
-688,597	800,000	-0,044	0,132
-687,583	-200,000	-0,012	-0,057
-686,568	-90,607	-0,169	-0,036
-685,554	800,000	-0,025	-0,069
-684,539	800,000	-0,023	-0,074
-683,524	685,025	0,102	-0,198
-682,510	-200,000	-0,006	0,163
-681,495	440,366	-0,041	-0,066
-680,481	800,000	-0,042	-0,093
-679,466	349,350	-0,071	-0,104
-678,451	630,513	0,070	0,132
-677,437	-18,725	-0,045	0,021
-676,422	-114,876	0,065	-0,009
-675,408	800,000	-0,029	0,070
-674,393	606,695	-0,010	-0,019
-673,378	-47,569	0,059	-0,021
-672,364	-24,984	-0,026	-0,011
-671,349	131,690	-0,145	0,139
-670,335	405,275	0,015	0,023
-669,320	-200,000	0,010	0,107
-668,305	48,799	0,063	0,044
-667,291	800,000	-0,037	-0,095
-666,276	-102,091	-0,026	0,005
-665,262	-200,000	-0,024	-0,165
-664,247	13,134	-0,084	0,048
-663,232	-143,622	0,077	-0,005
-662,218	232,776	-0,094	0,115
-661,203	-110,195	0,154	-0,023
-660,189	43,519	-0,081	0,055
-659,174	645,361	0,009	0,017
-658,159	174,712	-0,095	-0,101
-657,145	122,200	-0,090	-0,084
-656,130	187,481	0,096	0,106
-655,116	63,138	-0,061	-0,045
-654,101	-9,747	0,138	0,068
-653,086	800,000	0,007	-0,017
-652,072	307,201	-0,049	-0,068
-651,057	216,524	-0,073	-0,086
-650,043	-119,075	0,114	0,015
-649,028	-106,032	-0,072	0,012
-648,014	145,512	0,107	-0,106
-646,999	-200,000	-0,005	0,044
-645,984	196,840	0,031	-0,035
-644,970	800,000	-0,021	-0,066
-643,955	482,546	-0,087	-0,147
-642,941	-33,570	0,071	0,029
-641,926	5,218	0,078	0,042
-640,911	420,906	0,004	0,006
-639,897	-148,669	0,108	-0,006
-638,882	-200,000	0,013	0,234
-637,868	-4,509	0,069	-0,035
-636,853	206,957	0,039	-0,045
-635,838	110,649	0,062	-0,056
-634,824	60,552	0,036	0,026
-633,809	-200,000	-0,007	0,055
-632,795	-200,000	-0,010	-0,145
-631,780	260,457	0,096	0,123
-630,765	-200,000	-0,006	0,043
-629,751	-111,161	-0,110	0,017
-628,736	47,198	-0,076	-0,052
-627,722	-200,000	-0,011	-0,084
-626,707	271,865	-0,069	-0,091
-625,692	165,874	0,039	-0,041
-624,678	-36,365	0,062	0,025
-623,663	-46,222	0,087	0,031
-622,649	-117,821	-0,137	-0,018
-621,634	82,187	-0,121	-0,097
-620,619	-42,192	-0,110	-0,041
-619,605	-133,618	0,074	0,007
-618,590	-200,000	-0,004	0,043
-617,576	-113,328	0,214	-0,031
-616,561	219,022	0,073	0,086
-615,546	800,000	-0,024	0,059
-614,532	800,000	-0,041	-0,091
-613,517	14,447	-0,115	-0,066
-612,503	-200,000	0,022	-0,093
-611,488	-117,293	-0,050	0,007
-610,474	-200,000	0,006	-0,096
-609,459	-47,919	-0,078	0,028
-608,444	-59,946	0,086	-0,027
-607,430	800,000	-0,055	-0,136
-606,415	-200,000	0,002	-0,077
-605,401	-200,000	-0,001	0,077
-604,386	800,000	0,027	0,066
-603,371	11,240	0,018	-0,010
-602,357	-49,206	-0,065	-0,023
-601,342	137,860	-0,067	0,065
-600,328	-44,130	-0,054	-0,020
-599,313	-200,000	-0,007	-0,071
-598,298	-200,000	0,017	-0,072
-597,284	-200,000	0,005	-0,070
-596,269	-200,000	0,035	0,131
-595,255	-200,000	-0,008	0,047
-594,240	800,000	0,014	0,031
-593,225	800,000	0,014	0,035
-592,211	60,174	-0,135	-0,099
-591,196	478,263	0,087	0,146
-590,182	121,618	0,088	0,081
-589,167	-200,000	-0,097	-0,000
-588,152	225,754	0,117	0,141
-587,138	-108,685	-0,125	0,020
-586,123	-101,551	-0,127	0,023
-585,109	-200,000	0,009	0,079
-584,094	-29,995	0,058	-0,024
-583,079	-200,000	0,019	-0,129
-582,065	56,524	0,079	-0,057
-581,050	420,753	0,057	0,090
-580,036	-31,952	-0,059	-0,024
-579,021	-43,328	-0,105	0,039
-578,006	-200,000	0,007	-0,042
-576,992	159,501	-0,106	-0,109
-575,977	38,010	0,094	-0,061
-574,963	-200,000	-0,056	0,186
-573,948	-119,701	-0,066	0,008
-572,934	-200,000	0,000	-0,055
-571,919	-129,437	-0,120	0,012
-570,904	800,000	0,037	0,081
-569,890	92,999	-0,131	-0,109
-568,875	-151,361	0,100	-0,005
-567,861	800,000	0,012	0,033
-566,846	50,281	0,051	-0,035
-565,831	-68,323	-0,188	-0,054
-564,817	-200,000	0,020	0,067
-563,802	800,000	-0,037	-0,109
-562,788	-93,117	0,039	-0,008
-561,773	-106,502	-0,078	0,013
-560,758	89,456	0,058	-0,048
-559,744	-138,634	-0,113	0,009
-558,729	-200,000	-0,018	-0,065
-557,715	-200,000	0,022	-0,076
-556,700	501,771	0,043	-0,074
-555,685	-2,535	-0,050	0,026
-554,671	630,259	0,044	0,083
-553,656	-101,684	0,116	0,021
-552,642	140,444	-0,064	0,063
-551,627	-158,752	-0,207	0,009
-550,612	-200,000	-0,026	-0,130
-549,598	-200,000	-0,011	-0,053
-548,583	-200,000	0,002	-0,058
-547,569	-200,000	0,001	-0,051
-546,554	-101,032	-0,070	0,013
-545,539	800,000	-0,055	0,170
-544,525	800,000	-0,018	-0,039
-543,510	-200,000	-0,004	0,039
-542,496	615,217	-0,013	0,025
-541,481	97,238	-0,024	-0,020
-540,466	-56,996	-0,177	-0,057
-539,452	-200,000	0,029	0,115
-538,437	244,533	0,127	0,158
-537,423	800,000	0,053	0,159
-536,408	115,683	-0,028	0,025
-535,393	572,058	-0,124	-0,224
-534,379	10,012	0,085	0,048
-533,364	-139,305	0,052	0,004
-532,350	-72,977	0,104	-0,028
-531,335	-21,620	0,045	0,020
-530,321	-200,000	0,039	-0,151
-529,306	800,000	0,014	0,037
-528,291	-1,776	-0,053	0,027
-527,277	-121,995	-0,041	0,005
-526,262	-145,940	-0,040	-0,003
-525,248	19,255	0,123	0,073
-524,233	800,000	0,043	0,112
-523,218	109,946	0,059	0,052
-522,204	-0,259	-0,079	0,041
-521,189	134,727	-0,101	0,097
-520,175	800,000	-0,030	0,082
-519,160	-200,000	-0,016	-0,191
-518,145	622,430	0,046	0,086
-517,131	-200,000	0,043	0,278
-516,116	107,340	0,037	0,033
-515,102	298,565	0,037	0,050
-514,087	-200,000	-0,011	-0,074
-513,072	-200,000	0,001	-0,250
-512,058	-82,728	-0,074	0,018
-511,043	800,000	-0,033	0,080
-510,029	-26,141	0,126	0,054
-509,014	-70,381	0,131	0,036
-507,999	-40,922	-0,037	-0,014
-506,985	-36,446	-0,142	0,056
-505,970	327,527	-0,050	-0,071
-504,956	208,229	-0,101	-0,116
-503,941	103,004	-0,045	0,039
-502,926	-51,131	0,178	-0,061
-501,912	-200,000	0,017	0,084
-500,897	132,583	-0,087	0,083
-499,883	800,000	-0,046	0,127
-498,868	594,562	-0,019	-0,035
-497,853	13,881	-0,020	-0,011
-496,839	707,376	-0,059	0,116
-495,824	144,173	-0,026	-0,026
-494,810	800,000	0,025	0,052
-493,795	-115,965	-0,038	0,005
-492,781	-200,000	-0,013	-0,089
-491,766	-89,113	0,039	0,008
-490,751	107,560	-0,206	-0,181
-489,737	-24,990	0,074	-0,032
-488,722	-87,923	0,157	0,034
-487,708	-200,000	0,007	-0,029
-486,693	337,247	-0,009	0,013
-485,678	800,000	-0,028	0,080
-484,664	-25,333	-0,056	0,024
-483,649	-92,397	-0,136	-0,028
-482,635	-200,000	-0,003	-0,061
-481,620	284,809	0,043	-0,057
-480,605	800,000	0,022	0,068
-479,591	441,653	-0,037	-0,059
-478,576	-78,623	-0,169	0,042
-477,562	200,276	-0,047	0,053
-476,547	800,000	0,066	-0,194
-475,532	-200,000	0,000	-0,065
-474,518	2,884	0,060	-0,032
-473,503	-154,013	-0,033	-0,002
-472,489	-200,000	0,010	-0,105
-471,474	65,501	-0,089	-0,066
-470,459	22,007	-0,046	0,028
-469,445	-200,000	0,013	0,107
-468,430	591,818	0,015	-0,027
-467,416	247,926	0,047	0,059
-466,401	33,106	0,036	-0,023
-465,386	66,765	0,052	-0,039
-464,372	222,022	0,082	-0,097
-463,357	-129,532	-0,056	0,006
-462,343	6,973	-0,042	0,023
-461,328	-200,000	0,006	0,051
-460,313	169,629	0,132	0,139
-459,299	101,120	0,073	0,062
-458,284	-2,356	-0,095	-0,049
-457,270	96,366	-0,117	0,099
-456,255	-20,134	-0,017	0,008
-455,241	525,673	-0,104	-0,181
-454,226	800,000	-0,065	-0,169
-453,211	800,000	0,038	-0,117
-452,197	-61,050	-0,047	-0,014
-451,182	46,151	-0,081	-0,055
-450,168	-200,000	0,027	-0,102
-449,153	-200,000	0,011	0,050
-448,138	-93,715	0,170	-0,034
-447,124	-150,428	-0,066	0,004
-446,109	800,000	-0,003	-0,009
-445,095	29,778	0,055	0,034
-444,080	110,445	0,069	0,061
-443,065	152,166	0,088	-0,088
-442,051	-200,000	0,001	-0,009
-441,036	800,000	-0,043	0,093
-440,022	22,636	0,119	-0,071
-439,007	133,506	0,051	-0,049
-437,992	140,615	0,024	-0,023
-436,978	114,883	0,108	0,097
-435,963	99,197	0,066	-0,056
-434,949	-200,000	0,018	-0,102
-433,934	-118,584	-0,082	-0,011
-432,919	13,554	-0,069	-0,039
-431,905	-49,897	0,114	-0,039
-430,890	64,823	0,085	-0,063
-429,876	800,000	0,042	0,109
-428,861	-122,709	0,011	-0,001
-427,846	360,907	0,054	-0,079
-426,832	-200,000	-0,003	-0,057
-425,817	11,144	0,035	-0,020
-424,803	472,388	0,045	-0,075
-423,788	-200,000	-0,004	0,079
-422,773	-200,000	0,007	0,088
-421,759	-13,217	0,144	0,068
-420,744	90,258	-0,024	-0,019
-419,730	800,000	-0,037	-0,101
-418,715	-200,000	0,019	-0,269
-417,701	800,000	0,028	0,069
-416,686	36,285	0,033	0,022
-415,671	-200,000	-0,008	0,192
-414,657	10,043	-0,093	0,052
-413,642	90,450	0,079	0,065
-412,628	-112,916	0,068	-0,010
-411,613	524,892	-0,019	-0,033
-410,598	142,161	-0,042	-0,041
-409,584	-136,317	-0,126	-0,011
-408,569	-200,000	-0,029	0,100
-407,555	-200,000	0,008	0,076
-406,540	-200,000	0,041	0,190
-405,525	800,000	0,043	0,089
-404,511	178,040	-0,037	0,040
-403,496	-200,000	-0,010	0,143
-402,482	-200,000	0,003	-0,231
-401,467	800,000	0,056	-0,127
-400,452	246,935	0,023	-0,028
-399,438	-9,853	0,086	-0,042
-398,423	323,631	-0,040	0,057
-397,409	-55,526	-0,110	0,036
-396,394	-41,254	-0,059	0,022
-395,379	-111,921	-0,059	0,009
-394,365	31,131	0,009	-0,006
-393,350	-200,000	0,009	-0,055
-392,336	-16,908	-0,115	0,053
-391,321	800,000	0,064	-0,171
-390,306	-0,035	-0,106	-0,055
-389,292	-147,169	0,050	0,003
-388,277	652,603	-0,031	0,059
-387,263	-200,000	0,023	-0,081
-386,248	-56,014	-0,034	-0,011
-385,233	-200,000	-0,001	0,124
-384,219	-166,351	0,089	0,003
-383,204	-200,000	-0,025	-0,080
-382,190	257,973	-0,011	0,013
-381,175	274,532	0,040	-0,052
-380,160	800,000	0,066	-0,154
-379,146	-200,000	0,018	0,085
-378,131	117,613	-0,026	0,023
-377,117	-200,000	0,006	-0,051
-376,102	639,956	-0,055	-0,102
-375,088	-200,000	-0,021	-0,077
-374,073	32,290	0,142	0,090
-373,058	-200,000	0,012	-0,060
-372,044	-200,000	-0,002	0,052
-371,029	-200,000	-0,034	0,133
-370,015	-200,000	0,015	0,102
-369,000	-113,116	-0,167	0,024
-367,985	-200,000	0,016	-0,062
-366,971	-101,817	-0,037	-0,006
-365,956	-54,736	0,129	0,043
-364,942	264,516	0,029	0,038
-363,927	-70,272	0,094	0,026
-362,912	191,801	-0,032	-0,036
-361,898	467,734	0,104	0,172
-360,883	96,795	-0,030	-0,026
-359,869	-39,493	0,061	0,023
-358,854	800,000	0,066	-0,154
-357,839	-62,924	-0,172	0,052
-356,825	51,301	-0,100	-0,069
-355,810	174,154	0,081	0,086
-354,796	-70,493	-0,116	-0,032
-353,781	800,000	0,002	0,005
-352,766	800,000	-0,013	0,029
-351,752	658,241	0,049	0,093
-350,737	128,957	0,076	0,071
-349,723	555,668	0,018	0,031
-348,708	234,114	0,063	-0,076
-347,693	-71,593	-0,127	-0,034
-346,679	741,549	0,064	-0,126
-345,664	293,461	0,035	-0,047
-344,650	423,711	0,067	-0,106
-343,635	-69,688	0,043	0,012
-342,620	-63,293	0,033	0,010
-341,606	173,907	-0,114	0,120
-340,591	800,000	0,028	-0,078
-339,577	800,000	-0,042	-0,090
-338,562	-92,124	-0,129	-0,027
-337,548	181,641	-0,029	0,031
-336,533	-200,000	0,030	-0,156
-335,518	-200,000	0,004	0,081
-334,504	-200,000	0,019	-0,179
-333,489	-200,000	-0,003	-0,116
-332,475	-200,000	-0,021	-0,081
-331,460	784,328	-0,035	-0,071
-330,445	-78,162	-0,197	0,049
-329,431	344,262	-0,028	0,040
-328,416	209,684	0,129	0,149
-327,402	162,122	0,073	0,075
-326,387	252,576	0,089	-0,111
-325,372	-200,000	-0,016	-0,180
-324,358	-200,000	0,005	0,036
-323,343	-166,521	0,137	-0,004
-322,329	-200,000	-0,017	0,084
-321,314	-30,714	-0,137	-0,056
-320,299	-200,000	0,026	0,108
-319,285	-25,897	0,152	-0,065
-318,270	-32,610	0,036	-0,015
-317,256	800,000	0,055	-0,124
-316,241	428,324	0,076	-0,120
-315,226	-97,588	-0,055	0,010
-314,212	-24,221	0,118	0,051
-313,197	345,653	0,073	0,106
-312,183	-12,570	0,076	0,036
-311,168	-99,864	0,084	0,015
-310,153	-27,779	-0,038	-0,016
-309,139	587,359	-0,088	-0,158
-308,124	17,176	0,130	0,075
-307,110	-27,922	0,184	-0,078
-306,095	359,591	-0,027	-0,039
-305,080	-117,853	0,105	0,014
-304,066	800,000	-0,067	0,138
-303,051	91,464	0,054	-0,045
-302,037	102,253	-0,058	-0,049
-301,022	-200,000	-0,025	0,125
-300,008	-200,000	-0,005	-0,072
-298,993	800,000	0,024	0,063
-297,978	800,000	-0,062	0,164
-296,964	-7,488	0,050	0,024
-295,949	-200,000	-0,013	-0,093
-294,935	-200,000	0,027	-0,155
-293,920	800,000	-0,011	0,028
-292,905	-200,000	-0,022	0,094
-291,891	-200,000	-0,019	0,109
-290,876	53,574	0,117	-0,082
-289,862	800,000	-0,045	0,122
-288,847	652,267	-0,022	-0,041
-287,832	-126,665	-0,163	-0,017
-286,818	30,463	-0,045	-0,028
-285,803	-86,478	-0,067	0,015
-284,789	693,452	0,091	0,174
-283,774	-200,000	0,014	0,200
-282,759	16,618	-0,088	0,051
-281,745	-51,205	0,112	-0,038
-280,730	50,149	0,105	0,072
-279,716	-1,400	-0,069	-0,035
-278,701	-200,000	-0,049	0,190
-277,686	33,028	0,080	-0,051
-276,672	-26,557	0,061	-0,026
-275,657	-82,979	0,065	-0,015
-274,643	-200,000	-0,048	-0,163
-273,628	10,343	-0,114	0,063
-272,613	387,284	-0,046	0,070
-271,599	13,114	0,027	0,015
-270,584	196,734	0,063	0,070
-269,570	50,713	0,013	0,009
-268,555	-200,000	-0,028	0,105
-267,540	84,810	-0,119	-0,095
-266,526	-200,000	-0,008	-0,113
-265,511	800,000	-0,038	-0,103
-264,497	800,000	0,024	0,061
-263,482	-36,737	0,088	0,034
-262,467	-200,000	0,004	0,075
-261,453	-86,394	-0,037	0,008
-260,438	-200,000	0,002	-0,011
-259,424	7,091	0,032	-0,017
-258,409	-200,000	-0,010	0,107
-257,395	-111,512	0,113	0,017
-256,380	684,601	-0,070	-0,134
-255,365	-34,333	0,039	-0,015
-254,351	-94,621	-0,097	0,019
-253,336	800,000	0,019	-0,047
-252,322	637,901	-0,024	-0,044
-251,307	-122,955	-0,152	0,018
-250,292	-1,601	0,060	-0,031
-249,278	-128,993	-0,036	0,004
-248,263	-162,448	-0,119	0,004
-247,249	-121,785	0,096	-0,011
-246,234	-44,329	-0,064	0,023
-245,219	-82,137	-0,073	0,017
-244,205	310,786	-0,096	-0,131
-243,190	128,082	-0,059	-0,054
-242,176	-29,207	0,098	-0,041
-241,161	17,749	-0,058	0,033
-240,146	48,328	-0,039	-0,027
-239,132	644,208	-0,071	0,133
-238,117	589,015	0,032	-0,058
-237,103	-117,766	0,117	0,015
-236,088	194,643	-0,056	-0,063
-235,073	-200,000	0,010	0,189
-234,059	-200,000	-0,003	0,036
-233,044	800,000	0,056	0,121
-232,030	722,274	0,014	0,026
-231,015	-200,000	0,001	-0,015
-230,000	-200,000	-0,023	0,112
-228,986	193,325	0,048	0,053
-227,971	90,676	-0,077	0,063
-226,957	-83,889	-0,051	-0,012
-225,942	800,000	0,024	-0,051
-224,927	800,000	-0,075	0,168
-223,913	-200,000	0,027	-0,109
-222,898	800,000	0,055	-0,118
-221,884	244,112	-0,026	-0,032
-220,869	-183,098	0,107	-0,001
-219,855	-154,764	-0,125	-0,006
-218,840	523,151	-0,043	0,075
-217,825	-200,000	-0,002	0,036
-216,811	-47,817	-0,055	0,019
-215,796	400,543	-0,068	-0,104
-214,782	-200,000	-0,016	-0,086
-213,767	-200,000	-0,004	-0,138
-212,752	800,000	-0,031	-0,094
-211,738	800,000	0,019	-0,043
-210,723	-200,000	-0,004	0,074
-209,709	-200,000	-0,022	0,175
-208,694	495,941	0,054	-0,090
-207,679	-63,147	0,187	0,056
-206,665	-166,523	0,016	0,000
-205,650	800,000	-0,029	-0,090
-204,636	426,786	0,062	0,097
-203,621	-200,000	-0,055	0,178
-202,606	-200,000	0,044	0,146
-201,592	-109,761	-0,108	0,016
-200,577	29,375	0,107	0,066
-199,563	87,671	-0,027	0,022
-198,548	586,211	0,066	0,118
-197,533	-200,000	-0,009	0,055
-196,519	104,128	0,038	0,032
-195,504	-2,634	0,047	-0,024
-194,490	-117,825	-0,049	0,006
-193,475	321,273	-0,104	-0,144
-192,460	-200,000	0,022	0,115
-191,446	-200,000	-0,016	0,130
-190,431	12,436	0,125	-0,070
-189,417	-113,006	0,051	0,007
-188,402	-200,000	-0,002	0,068
-187,387	378,770	-0,054	0,080
-186,373	-38,550	0,068	-0,026
-185,358	177,134	-0,028	0,030
-184,344	129,227	-0,140	-0,130
-183,329	-200,000	0,035	-0,122
-182,315	800,000	0,037	0,091
-181,300	10,647	0,116	-0,064
-180,285	-44,051	0,033	-0,012
-179,271	20,111	0,031	0,018
-178,256	-200,000	0,001	-0,004
-177,242	-65,094	0,131	-0,038
-176,227	-200,000	-0,009	0,035
-175,212	168,268	0,052	-0,054
-174,198	-59,602	-0,039	0,012
-173,183	-143,966	-0,083	-0,006
-172,169	-44,133	-0,057	-0,021
-171,154	-152,021	-0,075	0,004
-170,139	-200,000	-0,014	0,056
-169,125	173,427	0,044	0,047
-168,110	371,351	0,028	0,041
-167,096	-200,000	-0,005	-0,130
-166,081	671,569	0,058	-0,110
-165,066	-58,016	0,154	-0,048
-164,052	56,865	-0,049	0,034
-163,037	67,983	0,045	0,033
-162,023	205,302	0,082	0,092
-161,008	-33,483	0,040	0,016
-159,993	376,889	0,086	0,128
-158,979	-132,147	-0,167	0,016
-157,964	557,097	-0,006	0,011
-156,950	478,063	-0,087	-0,144
-155,935	101,161	-0,122	-0,103
-154,920	-200,000	-0,049	0,179
-153,906	-43,595	0,093	-0,034
-152,891	124,345	-0,050	0,046
-151,877	-172,128	-0,139	-0,003
-150,862	130,396	-0,066	-0,061
-149,847	31,927	-0,075	0,047
-148,833	-50,061	-0,205	-0,070
-147,818	482,663	-0,019	-0,032
-146,804	800,000	0,034	0,076
-145,789	-69,149	-0,136	0,038
-144,775	65,812	-0,055	-0,040
-143,760	591,238	-0,071	-0,127
-142,745	219,210	-0,103	-0,119
-141,731	800,000	0,010	-0,023
-140,716	-77,599	0,123	0,031
-139,702	-200,000	-0,035	0,000
-138,687	800,000	0,065	-0,164
-137,672	110,456	-0,055	0,048
-136,658	165,376	-0,052	0,053
-135,643	-200,000	0,006	0,032
-134,629	800,000	0,031	-0,065
-133,614	-58,022	0,160	0,050
-132,599	800,000	-0,023	0,052
-131,585	-10,535	-0,125	0,060
-130,570	800,000	-0,021	0,050
-129,556	-200,000	-0,075	0,000
-128,541	-118,768	-0,139	-0,018
-127,526	58,330	0,141	-0,100
-126,512	-123,177	0,093	-0,011
-125,497	-200,000	0,001	-0,123
-124,483	800,000	-0,043	0,099
-123,468	800,000	-0,027	-0,057
-122,453	-106,911	-0,110	-0,017
-121,439	-200,000	0,036	-0,153
-120,424	-140,452	-0,058	-0,004
-119,410	800,000	0,049	0,125
-118,395	-26,448	0,122	0,052
-117,380	329,632	0,024	-0,034
-116,366	-200,000	-0,001	0,040
-115,351	144,363	-0,187	-0,182
-114,337	-200,000	0,005	0,062
-113,322	81,767	0,010	0,008
-112,307	-180,782	0,097	0,001
-111,293	-120,216	-0,037	0,004
-110,278	-157,792	-0,122	0,005
-109,264	454,571	-0,025	0,041
-108,249	-33,409	-0,114	-0,045
-107,234	-96,371	-0,092	-0,018
-106,220	-200,000	0,010	-0,085
-105,205	-200,000	0,049	0,174
-104,191	-104,541	-0,128	0,021
-103,176	800,000	0,015	-0,036
-102,162	800,000	-0,085	0,205
-101,147	29,900	0,006	0,004
-100,132	-200,000	0,028	-0,110
-99,118	-200,000	0,014	-0,104
-98,103	96,648	0,048	0,040
-97,089	190,617	0,048	-0,053
-96,074	42,321	-0,095	-0,062
-95,059	-82,412	0,049	-0,011
-94,045	-132,350	0,088	0,008
-93,030	102,512	0,043	0,037
-92,016	-158,240	-0,088	0,004
-91,001	176,064	0,024	0,025
-89,986	319,566	0,092	0,127
-88,972	554,229	0,045	-0,078
-87,957	95,390	-0,115	0,095
-86,943	165,675	0,100	-0,103
-85,928	800,000	-0,019	0,052
-84,913	-104,179	0,055	0,009
-83,899	-111,169	-0,057	-0,008
-82,884	12,851	0,191	-0,107
-81,870	-164,953	-0,027	-0,001
-80,855	63,785	0,079	0,057
-79,840	-101,566	-0,116	0,020
-78,826	25,499	-0,076	-0,046
-77,811	289,000	0,030	-0,039
-76,797	-54,487	-0,067	-0,022
-75,782	-64,403	-0,113	0,033
-74,767	-131,675	0,150	-0,014
-73,753	800,000	0,038	-0,100
-72,738	-200,000	-0,001	-0,016
-71,724	39,230	0,044	-0,028
-70,709	83,862	0,067	-0,053
-69,694	-102,055	-0,069	0,012
-68,680	-101,490	0,127	0,022
-67,665	800,000	-0,007	-0,015
-66,651	-14,026	0,094	-0,044
-65,636	553,215	0,019	0,034
-64,622	76,857	-0,064	-0,049
-63,607	-200,000	-0,008	0,137
-62,592	94,892	0,075	0,062
-61,578	626,741	-0,062	0,113
-60,563	-200,000	-0,020	-0,065
-59,549	-129,739	0,015	0,002
-58,534	-76,268	-1,674	-0,424
-57,519	800,000	-0,744	-1,499
-56,505	-200,000	-1,062	-4,629
-55,490	-34,076	0,619	-0,245
-54,476	800,000	4,962	11,928
-53,461	-200,000	14,666	260,771
-52,446	-200,000	695,687	2236,111
-51,432	566,518	1620,914	2856,789
-50,417	118,587	1629,059	1454,814
-49,403	75,764	1283,438	980,182
-48,388	37,474	1022,045	654,321
-47,373	22,963	981,616	580,823
-46,359	22,206	970,949	572,011
-45,344	20,944	966,791	565,425
-44,330	20,944	965,368	564,569
-43,315	20,773	963,642	562,981
-42,300	20,780	962,541	562,339
-41,286	20,775	961,772	561,849
-40,271	20,771	960,548	561,099
-39,257	20,795	959,696	560,657
-38,242	20,741	958,879	559,985
-37,227	20,781	958,040	559,599
-36,213	20,717	957,112	558,830
-35,198	20,680	956,115	558,105
-34,184	20,806	955,274	558,000
-33,169	20,645	954,629	557,082
-32,154	20,751	953,595	556,798
-31,140	20,756	952,726	556,285
-30,125	20,820	951,950	556,013
-29,111	20,788	951,242	555,477
-28,096	20,806	950,484	555,068
-27,082	20,772	949,840	554,564
-26,067	20,752	949,133	554,064
-25,052	20,747	948,257	553,512
-24,038	20,723	947,916	553,215
-23,023	20,766	946,799	552,680
-22,009	20,794	946,285	552,446
-20,994	20,844	945,804	552,304
-19,979	20,777	945,325	551,788
-18,965	20,783	944,609	551,368
-17,950	20,739	943,979	550,838
-16,936	20,678	943,274	550,210
-15,921	20,661	942,656	549,775
-14,906	20,662	941,868	549,296
-13,892	20,653	941,218	548,867
-12,877	20,619	940,645	548,402
-11,863	20,603	940,025	547,968
-10,848	20,599	939,664	547,724
-9,833	20,733	939,130	547,814
-8,819	20,651	938,723	547,297
-7,804	20,651	937,953	546,825
-6,790	20,644	937,305	546,404
-5,775	20,658	936,711	546,082
-4,760	20,691	936,184	545,856
-3,746	20,638	935,468	545,250
-2,731	20,486	934,846	544,387
-1,717	20,548	933,758	543,925
-0,702	20,469	933,371	543,432
0,313	20,299	932,665	543,305
1,327	23,267	930,965	551,584
2,342	32,475	793,856	494,785
3,356	29,890	451,370	277,407
4,371	0,145	296,178	152,137
5,386	-4,293	277,234	138,164
6,400	-5,663	271,535	134,031
7,415	-5,793	269,135	132,714
8,429	-5,609	267,916	132,271
9,444	-5,715	267,098	131,758
10,459	-5,723	266,428	131,408
11,473	-5,968	265,873	130,899
12,488	-5,924	265,171	130,582
13,502	-5,917	264,654	130,321
14,517	-6,010	264,214	130,009
15,531	-6,025	263,908	129,833
16,546	-5,889	263,340	129,665
17,561	-6,142	263,177	129,345
18,575	-5,966	262,633	129,225
19,590	-6,046	262,484	129,068
20,604	-6,086	262,334	128,947
21,619	-5,900	261,642	128,762
22,634	-6,058	261,524	128,550
23,648	-6,110	261,026	128,248
24,663	-5,947	260,883	128,312
25,677	-6,016	260,643	128,121
26,692	-6,041	260,369	127,952
27,707	-6,069	260,072	127,770
28,721	-5,924	259,734	127,722
29,736	-6,317	259,552	127,270
30,750	-6,185	259,420	127,311
31,765	-6,095	259,111	127,229
32,780	-6,204	258,759	126,948
33,794	-6,109	258,549	126,918
34,809	-6,126	258,341	126,789
35,823	-6,199	258,218	126,652
36,838	-6,290	257,774	126,343
37,853	-6,241	257,561	126,271
38,867	-6,307	257,520	126,181
39,882	-6,284	257,207	126,037
40,896	-6,214	256,999	125,985
41,911	-6,091	256,811	125,991
42,926	-6,307	256,558	125,665
43,940	-6,255	256,143	125,496
44,955	-6,325	256,114	125,410
45,969	-6,398	255,936	125,246
46,984	-6,668	255,667	124,867
47,999	-6,800	255,409	124,614
49,013	-6,936	255,053	124,310
50,028	-6,993	254,702	124,078
51,042	-7,006	254,448	123,932
52,057	-6,976	254,282	123,866
53,071	-7,099	254,098	123,659
54,086	-6,877	254,039	123,812
55,101	-6,884	253,876	123,716
56,115	-6,536	253,713	123,928
57,130	-6,280	253,659	124,113
58,144	-5,903	253,421	124,314
59,159	-5,951	253,240	124,172
60,174	-5,888	252,943	124,070
61,188	-6,153	252,910	123,813
62,203	-5,965	252,571	123,799
63,217	-6,063	252,344	123,591
64,232	-6,072	252,189	123,497
65,247	-6,055	251,918	123,368
66,261	-6,074	251,801	123,283
67,276	-6,325	251,443	122,880
68,290	-6,493	251,106	122,561
69,305	-6,651	250,856	122,292
70,320	-6,700	250,739	122,182
71,334	-6,151	250,609	122,579
72,349	-5,921	250,496	122,710
73,363	-5,826	250,325	122,697
74,378	-6,046	250,125	122,399
75,393	-6,003	249,898	122,314
76,407	-6,127	249,588	122,045
77,422	-6,110	249,396	121,955
78,436	-5,870	249,299	122,102
79,451	-6,102	248,969	121,731
80,466	-5,987	248,687	121,680
81,480	-6,312	248,475	121,289
82,495	-6,383	248,233	121,100
83,509	-6,251	248,084	121,129
84,524	-6,502	248,116	120,920
85,539	-6,581	247,661	120,621
86,553	-6,557	247,449	120,528
87,568	-6,570	247,432	120,497
88,582	-6,409	247,257	120,537
89,597	-6,403	247,051	120,432
90,611	-6,402	247,002	120,398
91,626	-6,158	246,865	120,526
92,641	-5,931	246,467	120,512
93,655	-6,269	246,456	120,211
94,670	-6,274	246,211	120,077
95,684	-6,514	246,006	119,764
96,699	-6,178	245,722	119,897
97,714	-6,266	245,471	119,691
98,728	-6,266	245,409	119,650
99,743	-6,543	244,982	119,199
100,757	-6,582	244,888	119,110
101,772	-6,481	244,722	119,103
102,787	-6,293	244,517	119,150
103,801	-6,525	244,462	118,919
104,816	-6,350	244,419	119,033
105,830	-6,015	244,185	119,188
106,845	-6,003	244,131	119,161
107,860	-6,217	243,809	118,815
108,874	-6,269	243,551	118,636
109,889	-6,373	243,413	118,471
110,903	-6,272	243,108	118,397
111,918	-6,425	243,147	118,278
112,933	-6,186	242,820	118,306
113,947	-6,305	242,658	118,119
114,962	-6,153	242,688	118,247
115,976	-6,234	242,357	118,009
116,991	-6,142	242,172	117,985
118,006	-6,199	242,024	117,855
119,020	-6,422	241,952	117,626
120,035	-6,108	241,811	117,805
121,049	-6,047	241,689	117,785
122,064	-6,136	241,322	117,523
123,079	-6,303	241,363	117,395
124,093	-6,271	240,999	117,234
125,108	-6,506	240,746	116,907
126,122	-6,548	240,490	116,739
127,137	-6,733	240,342	116,504
128,151	-6,560	240,173	116,554
129,166	-6,480	240,044	116,546
130,181	-6,588	239,925	116,389
131,195	-6,621	239,489	116,141
132,210	-6,254	239,346	116,360
133,224	-6,183	239,414	116,441
134,239	-6,240	239,146	116,254
135,254	-6,233	239,044	116,200
136,268	-6,182	238,587	116,009
137,283	-6,286	238,237	115,744
138,297	-6,419	238,174	115,595
139,312	-6,618	238,251	115,460
140,327	-6,289	238,082	115,635
141,341	-5,822	238,138	116,031
142,356	-5,735	237,865	115,957
143,370	-5,669	237,602	115,873
144,385	-5,848	237,546	115,691
145,400	-5,745	237,357	115,671
146,414	-5,701	237,185	115,612
147,429	-5,849	237,069	115,426
148,443	-5,797	236,843	115,347
149,458	-6,008	236,711	115,103
150,473	-5,811	236,443	115,121
151,487	-5,916	236,313	114,963
152,502	-5,944	236,231	114,891
153,516	-5,733	235,935	114,906
154,531	-5,966	235,841	114,663
155,546	-5,880	235,607	114,608
156,560	-6,147	235,464	114,314
157,575	-6,154	235,343	114,240
158,589	-6,193	235,101	114,081
159,604	-5,870	235,027	114,293
160,619	-5,686	234,883	114,359
161,633	-5,708	234,673	114,229
162,648	-5,661	234,587	114,215
163,662	-5,790	234,369	113,995
164,677	-6,042	234,392	113,796
165,692	-6,042	234,082	113,635
166,706	-5,627	233,927	113,880
167,721	-5,911	233,772	113,568
168,735	-5,748	233,739	113,671
169,750	-5,761	233,507	113,538
170,764	-5,813	233,431	113,450
171,779	-5,780	233,129	113,319
172,794	-5,874	233,113	113,227
173,808	-5,843	232,743	113,062
174,823	-6,579	232,505	112,355
175,837	-6,331	232,240	112,412
176,852	-5,994	232,210	112,654
177,867	-5,910	232,186	112,698
178,881	-5,671	232,096	112,832
179,896	-5,836	231,897	112,596
180,910	-5,812	231,764	112,540
181,925	-5,620	231,505	112,556
182,940	-5,766	231,405	112,382
183,954	-5,834	231,356	112,294
184,969	-5,522	231,235	112,471
185,983	-5,617	231,098	112,320
186,998	-5,825	230,868	112,035
188,013	-5,578	230,625	112,100
189,027	-5,624	230,541	112,013
190,042	-5,373	230,332	112,098
191,056	-5,530	230,273	111,937
192,071	-5,726	230,172	111,725
193,086	-5,704	229,949	111,624
194,100	-5,583	229,843	111,656
195,115	-5,444	229,386	111,532
196,129	-6,490	229,142	110,591
197,144	-3,431	230,132	113,443
198,159	0,900	231,515	117,502
199,173	3,739	232,045	119,980
200,188	4,158	232,050	120,299
201,202	4,068	231,898	120,140
202,217	4,101	231,944	120,178
203,232	4,256	231,675	120,149
204,246	4,441	231,499	120,191
205,261	4,507	231,315	120,136
206,275	4,392	231,320	120,039
207,290	4,605	231,157	120,109
208,304	4,651	230,937	120,019
209,319	4,738	230,761	119,985
210,334	4,382	230,663	119,647
211,348	4,036	230,504	119,286
212,363	3,982	230,128	119,039
213,377	3,582	229,880	118,591
214,392	3,465	229,889	118,494
215,407	3,803	229,575	118,583
216,421	3,742	229,691	118,585
217,436	3,552	229,352	118,253
218,450	3,579	228,943	118,052
219,465	3,542	229,080	118,084
220,480	3,526	228,914	117,976
221,494	3,429	228,668	117,764
222,509	3,735	228,560	117,933
223,523	3,606	228,329	117,704
224,538	3,575	228,117	117,560
225,553	3,636	228,092	117,584
226,567	3,733	228,079	117,641
227,582	4,006	228,013	117,806
228,596	4,041	227,903	117,765
229,611	3,867	227,560	117,445
230,626	3,582	227,360	117,113
231,640	3,406	227,179	116,875
232,655	4,069	227,137	117,349
233,669	4,141	227,184	117,417
234,684	4,356	226,983	117,466
235,699	4,043	226,840	117,144
236,713	3,725	226,554	116,744
237,728	3,666	226,339	116,578
238,742	3,516	226,226	116,396
239,757	3,840	225,991	116,510
240,772	3,530	225,956	116,247
241,786	3,630	225,738	116,200
242,801	3,813	225,715	116,316
243,815	4,101	225,590	116,459
244,830	4,048	225,485	116,354
245,844	3,607	225,199	115,864
246,859	3,842	225,074	115,967
247,874	3,904	224,990	115,960
248,888	4,017	224,829	115,952
249,903	3,810	224,666	115,701
250,917	3,670	224,559	115,530
251,932	3,618	224,414	115,406
252,947	3,704	224,074	115,286
253,961	3,686	224,050	115,249
254,976	3,615	223,829	115,072
255,990	3,955	223,781	115,292
257,005	4,021	223,522	115,198
258,020	4,005	223,481	115,154
259,034	4,156	223,533	115,284
260,049	4,245	223,136	115,135
261,063	4,032	223,008	114,900
262,078	4,189	222,952	114,978
263,093	4,235	222,872	114,961
264,107	4,009	222,687	114,687
265,122	4,065	222,568	114,657
266,136	4,079	222,383	114,562
267,151	4,283	222,349	114,686
268,166	3,715	222,063	114,107
269,180	3,496	221,705	113,749
270,195	3,479	221,558	113,651
271,209	3,546	221,519	113,671
272,224	3,679	221,369	113,683
273,239	3,805	221,348	113,755
274,253	3,855	221,157	113,683
275,268	3,645	220,843	113,357
276,282	3,365	220,698	113,066
277,297	3,507	220,482	113,049
278,312	3,348	220,628	112,997
279,326	3,871	220,368	113,239
280,341	3,726	220,268	113,071
281,355	3,793	220,201	113,076
282,370	3,694	219,961	112,869
283,384	3,494	219,652	112,554
284,399	3,428	219,578	112,458
285,414	3,477	219,395	112,390
286,428	3,753	219,264	112,515
287,443	3,880	219,270	112,601
288,457	3,754	219,138	112,431
289,472	3,719	219,011	112,331
290,487	3,372	218,624	111,868
291,501	3,190	218,575	111,701
292,516	3,328	218,458	111,731
293,530	3,478	218,296	111,748
294,545	3,282	218,262	111,578
295,560	3,674	218,050	111,745
296,574	3,646	218,003	111,691
297,589	3,760	217,924	111,723
298,603	3,918	217,754	111,741
299,618	3,669	217,633	111,488
300,633	3,609	217,590	111,412
301,647	3,874	217,434	111,515
302,662	3,883	217,287	111,436
303,676	3,819	217,142	111,305
304,691	3,771	216,886	111,129
305,706	3,702	216,639	110,943
306,720	3,829	216,564	110,986
307,735	3,922	216,605	111,065
308,749	3,594	216,313	110,668
309,764	4,042	216,344	110,998
310,779	3,988	216,143	110,845
311,793	3,822	216,007	110,646
312,808	3,539	215,934	110,395
313,822	3,880	215,699	110,510
314,837	3,698	215,505	110,270
315,852	3,634	215,235	110,076
316,866	3,715	215,221	110,118
317,881	3,789	215,174	110,137
318,895	3,859	215,084	110,132
319,910	3,772	214,742	109,884
320,925	3,378	214,657	109,549
321,939	3,083	214,452	109,224
322,954	3,271	214,521	109,384
323,968	3,591	214,401	109,541
324,983	3,822	214,315	109,652
325,997	3,808	214,102	109,524
327,012	3,856	213,915	109,453
328,027	3,782	213,835	109,349
329,041	3,977	213,782	109,451
330,056	3,985	213,647	109,378
331,070	3,619	213,445	109,005
332,085	3,498	213,222	108,795
333,100	3,592	213,084	108,782
334,114	3,595	213,001	108,732
335,129	3,569	212,820	108,611
336,143	3,553	212,614	108,485
337,158	3,680	212,462	108,488
338,173	3,873	212,308	108,536
339,187	3,855	212,219	108,467
340,202	3,365	212,121	108,062
341,216	3,313	211,872	107,889
342,231	3,562	211,618	107,925
343,246	3,381	211,510	107,733
344,260	3,368	211,540	107,730
345,275	3,547	211,590	107,871
346,289	3,743	211,595	108,002
347,304	3,795	211,307	107,883
348,319	3,785	210,992	107,705
349,333	3,785	210,939	107,669
350,348	3,678	210,895	107,562
351,362	3,985	210,820	107,728
352,377	4,021	210,615	107,639
353,392	3,877	210,390	107,414
354,406	4,016	210,160	107,384
355,421	195,108	1343,117	1431,098
356,435	155,788	1481,230	1431,193
