DTS Sentinel unit serial number:	SN410029Multiplexer serial number:	ORYXHardware model number:	OX2-SRSoftware version number:	ORYX F/W v4,00 Oryx Data Collector v3.7.2.0data status	okinstallation	B6 Nyhavnadifferential loss correction	single-endedforward channel	channel 2reverse channel	N/Adate	2023/12/09time	14:05:08forward acquisition time	300,00reverse acquisition time	0,00gamma	499,1914k internal	0,3134k external	0,3134temperature offset calibration	1,0000default loss term (dB/km)	0,3820temperature slope calibration	1,0000multiplexer offset coefficient	1,0000multiplexer slope coefficient	1,0000fibre end	0,00T internal ref (°C)	20,44T ext. ref 1 (°C)	4,34T ext. ref 2 (°C)	4,36length (m)	temperature (°C)	Stokes	anti-Stokes-744,400	273,868	0,076	0,100
-743,385	-196,079	-0,341	0,002
-742,371	-30,639	0,155	0,065
-741,356	-79,065	-0,223	0,056
-740,342	-129,453	0,136	-0,014
-739,327	-29,214	-0,270	0,114
-738,312	-200,000	0,036	-0,138
-737,298	-29,027	-0,245	0,104
-736,283	800,000	-0,018	0,047
-735,269	-189,777	-0,222	0,002
-734,254	-200,000	-0,020	-0,071
-733,239	-53,232	-0,381	-0,129
-732,225	-168,510	0,100	0,003
-731,210	92,899	0,051	0,043
-730,196	311,289	-0,051	-0,071
-729,181	-101,652	-0,076	-0,014
-728,167	194,297	-0,075	-0,084
-727,152	-200,000	-0,009	-0,059
-726,137	-79,455	-0,050	-0,012
-725,123	-96,994	0,065	0,013
-724,108	441,908	-0,060	-0,098
-723,094	-120,884	0,075	-0,009
-722,079	-3,315	-0,061	0,031
-721,064	-119,187	-0,071	-0,009
-720,050	57,547	0,082	-0,060
-719,035	-45,887	0,040	-0,015
-718,021	-27,851	0,099	0,043
-717,006	89,134	-0,049	-0,040
-715,991	28,797	-0,063	-0,040
-714,977	-42,027	0,081	0,031
-713,962	54,857	-0,098	0,070
-712,948	-200,000	-0,018	-0,075
-711,933	-55,097	-0,077	-0,026
-710,918	-26,097	-0,132	-0,057
-709,904	-50,801	-0,130	-0,045
-708,889	97,772	0,040	0,034
-707,875	800,000	-0,027	-0,073
-706,860	-54,234	0,071	0,024
-705,845	-72,574	-0,157	-0,043
-704,831	800,000	0,024	-0,060
-703,816	-93,326	-0,067	-0,014
-702,802	-15,696	-0,036	-0,017
-701,787	637,843	0,038	0,072
-700,772	800,000	-0,019	0,040
-699,758	-200,000	0,000	-0,078
-698,743	-21,070	0,057	0,026
-697,729	-200,000	0,013	0,065
-696,714	-200,000	0,019	-0,136
-695,699	-110,498	0,070	0,011
-694,685	172,337	-0,108	-0,115
-693,670	755,947	-0,024	-0,049
-692,656	20,848	0,100	0,060
-691,641	330,790	0,089	0,127
-690,627	321,343	0,092	0,130
-689,612	-7,169	-0,066	0,033
-688,597	460,899	-0,007	-0,011
-687,583	287,230	0,103	0,138
-686,568	-92,251	-0,206	0,043
-685,554	-135,369	-0,148	0,013
-684,539	161,381	0,053	0,055
-683,524	-65,354	0,076	0,022
-682,510	-156,428	-0,074	-0,003
-681,495	158,091	0,039	0,040
-680,481	-76,865	-0,081	-0,021
-679,466	-112,187	0,082	0,012
-678,451	-151,551	-0,094	-0,005
-677,437	800,000	0,052	0,128
-676,422	800,000	0,024	0,074
-675,408	108,974	-0,066	-0,059
-674,393	94,762	-0,133	-0,112
-673,378	246,569	-0,041	-0,052
-672,364	-151,829	-0,083	0,004
-671,349	800,000	-0,053	-0,119
-670,335	29,407	0,097	0,061
-669,320	180,239	-0,054	0,058
-668,305	317,153	-0,023	0,032
-667,291	800,000	0,012	-0,038
-666,276	-200,000	-0,008	0,039
-665,262	-124,273	0,062	-0,007
-664,247	-146,497	-0,117	-0,007
-663,232	64,725	0,032	-0,024
-662,218	800,000	0,026	-0,071
-661,203	-17,661	0,023	-0,010
-660,189	144,540	-0,056	0,056
-659,174	381,805	-0,053	-0,081
-658,159	-200,000	-0,014	-0,126
-657,145	635,282	-0,063	-0,118
-656,130	-200,000	-0,042	0,139
-655,116	-200,000	-0,011	0,055
-654,101	-137,227	0,099	-0,008
-653,086	120,822	0,031	-0,028
-652,072	-200,000	0,004	-0,027
-651,057	-30,340	-0,106	-0,045
-650,043	-200,000	0,011	-0,088
-649,028	800,000	0,043	-0,096
-648,014	-41,121	-0,017	-0,006
-646,999	500,141	-0,070	-0,119
-645,984	800,000	-0,007	0,021
-644,970	51,225	-0,042	0,030
-643,955	-93,595	-0,007	-0,002
-642,941	800,000	-0,079	-0,199
-641,926	-200,000	0,025	-0,108
-640,911	-92,572	0,131	0,027
-639,897	555,103	0,035	0,062
-638,882	-125,248	0,052	0,006
-637,868	88,642	0,060	0,049
-636,853	-193,598	-0,056	-0,000
-635,838	-84,325	-0,082	-0,019
-634,824	-48,605	0,042	-0,015
-633,809	91,992	0,074	-0,061
-632,795	-200,000	-0,018	0,092
-631,780	-48,965	0,106	0,037
-630,765	-200,000	0,003	0,043
-629,751	-200,000	-0,024	-0,096
-628,736	68,274	-0,125	-0,095
-627,722	236,727	-0,137	-0,167
-626,707	800,000	-0,025	0,062
-625,692	89,774	-0,076	-0,063
-624,678	145,147	0,135	-0,133
-623,663	-119,712	-0,186	-0,023
-622,649	-120,150	-0,087	-0,011
-621,634	680,699	0,015	0,030
-620,619	-200,000	-0,027	-0,112
-619,605	5,477	0,040	-0,022
-618,590	-200,000	-0,011	-0,261
-617,576	800,000	-0,025	0,063
-616,561	537,100	-0,032	0,056
-615,546	273,898	-0,018	0,024
-614,532	209,370	-0,028	-0,032
-613,517	256,742	0,008	-0,011
-612,503	-200,000	0,010	-0,121
-611,488	23,281	-0,124	-0,075
-610,474	-71,958	0,050	0,014
-609,459	8,444	-0,147	-0,081
-608,444	-200,000	-0,008	-0,054
-607,430	-65,700	-0,056	-0,017
-606,415	-200,000	-0,022	-0,144
-605,401	630,361	0,029	0,055
-604,386	800,000	-0,053	0,117
-603,371	-91,156	0,124	-0,026
-602,357	-111,317	-0,048	-0,007
-601,342	182,281	0,106	0,115
-600,328	-1,886	-0,084	-0,044
-599,313	-122,875	-0,033	0,004
-598,298	800,000	-0,048	0,147
-597,284	249,153	0,088	0,110
-596,269	800,000	0,037	0,079
-595,255	800,000	-0,031	-0,095
-594,240	-29,287	-0,037	0,016
-593,225	110,538	-0,061	0,054
-592,211	800,000	-0,016	0,036
-591,196	158,411	0,069	0,071
-590,182	-118,384	-0,146	0,019
-589,167	-200,000	-0,015	0,063
-588,152	454,105	0,056	0,093
-587,138	800,000	0,024	-0,061
-586,123	-55,356	-0,017	0,006
-585,109	72,252	-0,122	-0,094
-584,094	144,465	-0,084	0,083
-583,079	226,585	-0,106	0,128
-582,065	-132,003	0,070	0,007
-581,050	18,572	-0,078	0,046
-580,036	159,425	0,079	-0,081
-579,021	-200,000	0,005	-0,056
-578,006	-200,000	0,020	0,110
-576,992	24,984	-0,081	0,050
-575,977	800,000	0,007	0,022
-574,963	72,212	0,157	-0,121
-573,948	144,211	-0,070	0,069
-572,934	800,000	-0,007	0,018
-571,919	-21,790	0,064	0,029
-570,904	315,975	0,005	0,007
-569,890	4,171	-0,087	-0,047
-568,875	-54,590	0,147	0,049
-567,861	-132,427	0,032	0,003
-566,846	-200,000	-0,035	0,126
-565,831	71,213	-0,012	-0,010
-564,817	488,809	-0,036	-0,061
-563,802	-200,000	-0,023	-0,121
-562,788	152,999	0,084	-0,085
-561,773	-34,523	-0,109	0,044
-560,758	4,375	0,100	-0,054
-559,744	251,114	0,045	-0,056
-558,729	-200,000	0,019	-0,082
-557,715	-105,954	0,096	0,016
-556,700	-15,850	-0,054	-0,025
-555,685	263,655	-0,071	-0,091
-554,671	-200,000	0,015	-0,070
-553,656	58,531	0,067	0,049
-552,642	800,000	0,025	0,064
-551,627	187,675	-0,014	0,016
-550,612	-200,000	-0,016	-0,205
-549,598	151,646	-0,058	-0,059
-548,583	183,010	-0,067	-0,073
-547,569	800,000	-0,019	0,049
-546,554	128,175	0,111	-0,105
-545,539	82,076	0,166	-0,132
-544,525	372,751	-0,021	-0,031
-543,510	-69,047	0,051	-0,014
-542,496	-200,000	-0,014	-0,056
-541,481	87,106	-0,070	0,057
-540,466	-200,000	-0,003	-0,046
-539,452	-200,000	-0,009	0,149
-538,437	290,849	-0,099	0,133
-537,423	411,480	0,028	0,043
-536,408	-200,000	-0,003	0,047
-535,393	800,000	-0,058	-0,147
-534,379	-54,125	0,066	-0,022
-533,364	85,209	-0,072	-0,058
-532,350	-200,000	-0,003	0,047
-531,335	-0,516	-0,038	-0,020
-530,321	-155,897	0,066	0,003
-529,306	-200,000	-0,003	0,070
-528,291	30,997	0,019	-0,012
-527,277	-138,496	0,007	-0,001
-526,262	800,000	0,035	-0,079
-525,248	-89,605	0,074	-0,016
-524,233	263,316	-0,022	0,029
-523,218	423,637	0,044	0,070
-522,204	-13,616	-0,073	0,035
-521,189	-3,697	-0,054	-0,028
-520,175	-111,348	0,060	-0,009
-519,160	800,000	-0,023	-0,048
-518,145	-200,000	0,029	-0,153
-517,131	284,965	-0,043	0,057
-516,116	-152,617	-0,129	0,007
-515,102	-200,000	0,006	0,144
-514,087	65,060	-0,030	-0,023
-513,072	-38,721	0,097	-0,038
-512,058	-82,739	0,138	-0,033
-511,043	-21,724	0,061	-0,027
-510,029	-200,000	-0,009	0,110
-509,014	-200,000	-0,077	0,000
-507,999	676,379	0,042	0,080
-506,985	339,313	0,066	-0,094
-505,970	305,354	-0,045	-0,062
-504,956	-94,923	0,075	-0,015
-503,941	214,664	-0,087	0,101
-502,926	-75,880	0,008	0,002
-501,912	800,000	0,085	-0,222
-500,897	-200,000	-0,004	0,032
-499,883	231,301	0,086	-0,104
-498,868	27,532	-0,221	-0,137
-497,853	-200,000	0,004	-0,057
-496,839	-200,000	-0,011	-0,056
-495,824	-200,000	0,001	0,086
-494,810	167,614	0,036	-0,037
-493,795	2,769	0,123	0,066
-492,781	62,207	-0,127	-0,093
-491,766	200,756	0,077	-0,087
-490,751	258,205	0,059	-0,075
-489,737	25,555	-0,126	-0,077
-488,722	-33,054	0,101	-0,041
-487,708	-200,000	-0,008	0,068
-486,693	-200,000	-0,010	0,061
-485,678	195,997	0,107	0,120
-484,664	687,341	-0,039	0,075
-483,649	800,000	-0,022	-0,065
-482,635	-166,043	0,063	0,002
-481,620	800,000	-0,017	0,047
-480,605	29,567	0,079	-0,050
-479,591	268,013	-0,057	0,074
-478,576	-130,694	0,142	0,014
-477,562	-114,741	0,052	-0,007
-476,547	-108,513	-0,194	-0,030
-475,532	389,363	0,114	-0,174
-474,518	-200,000	-0,002	-0,098
-473,503	-37,321	0,110	0,043
-472,489	-200,000	-0,002	0,063
-471,474	10,940	-0,078	0,044
-470,459	-200,000	-0,017	0,081
-469,445	800,000	-0,023	0,074
-468,430	72,827	-0,033	-0,026
-467,416	-46,669	0,122	0,044
-466,401	276,899	-0,079	0,104
-465,386	-35,493	0,134	0,053
-464,372	87,336	0,024	0,019
-463,357	510,006	0,057	-0,098
-462,343	-144,980	-0,054	-0,004
-461,328	-81,076	-0,072	0,017
-460,313	800,000	0,027	-0,076
-459,299	190,339	0,119	0,131
-458,284	-200,000	0,002	-0,038
-457,270	87,610	0,096	0,078
-456,255	800,000	-0,068	-0,146
-455,241	6,786	-0,063	-0,034
-454,226	-11,548	-0,034	-0,017
-453,211	121,359	-0,082	0,075
-452,197	18,873	0,194	0,114
-451,182	-70,789	0,063	-0,017
-450,168	119,407	-0,038	-0,035
-449,153	-200,000	-0,031	-0,101
-448,138	-78,963	-0,027	0,007
-447,124	94,035	-0,165	-0,138
-446,109	792,289	0,013	0,026
-445,095	86,157	0,156	-0,126
-444,080	800,000	-0,035	0,074
-443,065	-58,392	0,021	-0,007
-442,051	17,012	0,049	0,028
-441,036	800,000	0,034	-0,099
-440,022	-51,779	-0,099	0,034
-439,007	90,511	-0,034	-0,028
-437,992	61,655	0,049	-0,035
-436,978	417,606	-0,043	0,068
-435,963	-107,036	-0,157	0,025
-434,949	264,212	-0,015	0,020
-433,934	-200,000	-0,000	0,084
-432,919	-200,000	0,014	-0,101
-431,905	-200,000	-0,006	-0,036
-430,890	-89,824	0,099	0,021
-429,876	97,713	0,078	-0,066
-428,861	800,000	0,021	-0,061
-427,846	238,866	-0,055	-0,068
-426,832	-84,389	-0,065	0,015
-425,817	-200,000	0,016	-0,067
-424,803	800,000	-0,017	0,045
-423,788	128,830	-0,044	-0,041
-422,773	537,668	-0,038	0,066
-421,759	-21,881	-0,123	0,055
-420,744	102,855	-0,024	0,021
-419,730	353,540	-0,055	0,080
-418,715	-200,000	0,012	-0,073
-417,701	800,000	-0,045	0,107
-416,686	-200,000	-0,003	0,120
-415,671	800,000	0,018	0,054
-414,657	82,457	0,040	-0,032
-413,642	-125,026	0,093	0,010
-412,628	136,545	0,045	-0,043
-411,613	-200,000	-0,023	-0,110
-410,598	800,000	-0,030	-0,062
-409,584	-134,569	-0,043	-0,004
-408,569	-28,263	-0,042	-0,017
-407,555	-200,000	-0,005	0,134
-406,540	20,180	0,101	0,060
-405,525	36,331	0,078	-0,051
-404,511	800,000	-0,027	-0,062
-403,496	383,572	0,061	-0,092
-402,482	782,752	0,054	0,108
-401,467	-200,000	0,002	0,169
-400,452	272,710	0,018	0,023
-399,438	-94,928	0,144	0,028
-398,423	-83,509	-0,128	0,030
-397,409	166,657	0,092	0,096
-396,394	272,906	-0,069	-0,089
-395,379	-200,000	-0,036	-0,139
-394,365	-200,000	-0,002	0,039
-393,350	632,756	0,094	-0,176
-392,336	800,000	0,020	0,050
-391,321	-200,000	-0,009	-0,085
-390,306	80,282	-0,088	-0,070
-389,292	217,436	-0,011	-0,013
-388,277	-91,956	0,195	0,040
-387,263	205,161	0,015	0,017
-386,248	800,000	-0,032	-0,081
-385,233	730,183	0,021	0,042
-384,219	142,323	-0,065	-0,063
-383,204	-118,031	-0,187	-0,024
-382,190	122,686	-0,075	-0,069
-381,175	159,237	-0,075	0,076
-380,160	-164,185	-0,036	0,001
-379,146	-24,706	0,042	0,018
-378,131	800,000	0,025	0,054
-377,117	-79,947	-0,091	0,022
-376,102	720,624	0,038	-0,074
-375,088	-25,380	-0,076	0,033
-374,073	-200,000	-0,024	0,094
-373,058	730,216	0,033	0,065
-372,044	94,127	0,062	-0,052
-371,029	305,552	0,120	0,164
-370,015	800,000	0,034	-0,089
-369,000	-200,000	-0,030	-0,107
-367,985	800,000	-0,023	-0,065
-366,971	-200,000	-0,002	-0,139
-365,956	-17,675	-0,080	0,037
-364,942	-132,206	0,053	0,005
-363,927	68,973	-0,068	-0,051
-362,912	369,604	-0,039	-0,057
-361,898	5,310	-0,127	0,068
-360,883	-200,000	-0,039	-0,143
-359,869	-200,000	-0,029	0,124
-358,854	315,179	0,123	-0,171
-357,839	107,628	0,057	-0,050
-356,825	192,750	0,052	0,057
-355,810	51,034	-0,164	0,114
-354,796	-46,894	-0,032	0,012
-353,781	-200,000	0,000	-0,056
-352,766	800,000	-0,013	-0,037
-351,752	-200,000	0,015	0,050
-350,737	800,000	0,011	0,034
-349,723	543,729	-0,015	-0,026
-348,708	334,910	0,080	0,113
-347,693	-200,000	0,025	0,105
-346,679	-200,000	-0,006	-0,103
-345,664	-186,431	-0,126	0,001
-344,650	-179,425	-0,194	-0,003
-343,635	79,559	0,039	-0,030
-342,620	60,010	-0,077	0,056
-341,606	-200,000	0,005	0,051
-340,591	-200,000	-0,012	0,051
-339,577	800,000	-0,043	-0,100
-338,562	-200,000	0,025	-0,143
-337,548	-200,000	-0,021	0,108
-336,533	800,000	-0,015	-0,048
-335,518	421,172	0,043	0,067
-334,504	135,083	0,021	-0,020
-333,489	34,710	-0,070	0,045
-332,475	107,788	0,106	-0,092
-331,460	-101,983	0,094	0,016
-330,445	290,668	-0,081	-0,108
-329,431	-81,107	0,045	0,011
-328,416	-15,049	0,131	0,061
-327,402	-85,193	-0,145	-0,033
-326,387	800,000	0,028	0,066
-325,372	198,177	-0,015	0,017
-324,358	-1,800	-0,136	-0,070
-323,343	121,067	0,065	-0,059
-322,329	99,873	0,060	-0,051
-321,314	128,134	-0,030	0,028
-320,299	-29,323	0,153	0,064
-319,285	-200,000	0,038	-0,172
-318,270	70,589	0,163	-0,123
-317,256	170,872	-0,039	0,041
-316,241	233,826	0,041	-0,050
-315,226	-200,000	-0,001	0,134
-314,212	-58,378	0,114	-0,036
-313,197	24,019	-0,079	0,048
-312,183	-200,000	0,007	-0,103
-311,168	-200,000	0,032	0,153
-310,153	-57,295	-0,120	-0,038
-309,139	-200,000	-0,009	-0,032
-308,124	-200,000	0,026	0,145
-307,110	-194,312	0,095	-0,001
-306,095	800,000	0,064	0,141
-305,080	800,000	0,030	-0,092
-304,066	244,661	-0,097	0,119
-303,051	-88,617	0,059	-0,013
-302,037	0,397	-0,126	0,066
-301,022	0,131	-0,036	0,019
-300,008	505,742	0,093	-0,158
-298,993	282,327	0,043	0,056
-297,978	288,295	-0,103	0,136
-296,964	-200,000	0,000	0,051
-295,949	800,000	-0,011	0,033
-294,935	-72,903	-0,084	0,022
-293,920	585,009	0,011	-0,020
-292,905	-9,750	-0,084	-0,041
-291,891	243,605	0,140	0,171
-290,876	-183,974	-0,082	-0,001
-289,862	-37,400	-0,089	0,035
-288,847	319,912	-0,052	-0,073
-287,832	-52,016	-0,040	0,013
-286,818	72,193	0,142	0,108
-285,803	-200,000	0,004	0,092
-284,789	-53,933	0,158	-0,052
-283,774	179,698	0,070	0,075
-282,759	401,540	0,062	0,096
-281,745	165,419	-0,083	-0,086
-280,730	800,000	0,061	-0,146
-279,716	136,998	0,037	0,035
-278,701	800,000	0,062	0,142
-277,686	37,707	-0,034	-0,022
-276,672	800,000	0,029	0,082
-275,657	-175,817	-0,108	-0,002
-274,643	60,480	-0,113	-0,081
-273,628	483,005	-0,092	0,154
-272,613	41,667	0,053	0,035
-271,599	-200,000	0,027	0,144
-270,584	-200,000	0,014	0,211
-269,570	-97,761	0,021	0,004
-268,555	-163,913	-0,052	-0,002
-267,540	-6,835	0,054	0,027
-266,526	-77,323	-0,232	-0,058
-265,511	69,750	0,021	-0,015
-264,497	11,574	0,065	-0,036
-263,482	-200,000	0,053	0,179
-262,467	0,608	-0,116	0,060
-261,453	800,000	-0,066	0,190
-260,438	-83,556	-0,025	-0,006
-259,424	125,565	0,082	-0,075
-258,409	-137,142	0,073	-0,006
-257,395	-200,000	-0,000	0,025
-256,380	133,839	0,099	-0,094
-255,365	-72,536	0,033	-0,009
-254,351	-155,215	0,081	-0,004
-253,336	800,000	0,046	-0,132
-252,322	-3,582	-0,094	-0,047
-251,307	-115,017	-0,061	0,008
-250,292	-15,013	-0,139	0,065
-249,278	-57,550	0,127	0,040
-248,263	37,406	0,134	0,086
-247,249	12,417	0,076	-0,043
-246,234	179,303	-0,075	-0,080
-245,219	385,431	-0,019	0,029
-244,205	-66,797	0,055	-0,016
-243,190	-200,000	-0,015	0,058
-242,176	-162,510	0,067	-0,002
-241,161	-36,831	-0,109	0,043
-240,146	85,507	0,174	0,140
-239,132	-200,000	0,026	0,098
-238,117	-63,030	0,095	0,028
-237,103	800,000	-0,036	0,087
-236,088	215,730	-0,101	0,117
-235,073	800,000	-0,042	0,110
-234,059	743,297	-0,026	-0,050
-233,044	-25,846	0,054	-0,023
-232,030	800,000	-0,028	0,058
-231,015	-200,000	-0,002	-0,100
-230,000	47,484	-0,118	0,080
-228,986	-82,602	0,067	0,016
-227,971	160,006	0,023	0,023
-226,957	221,795	0,093	0,109
-225,942	-200,000	-0,011	-0,040
-224,927	-158,806	-0,030	-0,001
-223,913	600,018	0,032	-0,057
-222,898	-200,000	0,034	-0,113
-221,884	-56,867	0,109	-0,035
-220,869	27,713	0,097	-0,059
-219,855	248,784	0,046	0,056
-218,840	270,859	0,039	-0,050
-217,825	-200,000	-0,034	0,131
-216,811	148,961	-0,089	0,088
-215,796	274,352	-0,038	0,049
-214,782	15,336	0,152	0,087
-213,767	-143,327	-0,214	-0,015
-212,752	-124,546	0,163	0,018
-211,738	800,000	-0,027	0,061
-210,723	-58,732	0,072	0,022
-209,709	-147,440	0,132	-0,008
-208,694	-147,235	-0,025	-0,002
-207,679	72,103	0,089	0,067
-206,665	-200,000	-0,016	-0,055
-205,650	-200,000	0,008	-0,026
-204,636	-200,000	0,031	0,169
-203,621	-118,764	-0,110	0,014
-202,606	800,000	0,021	-0,057
-201,592	-78,539	-0,059	0,015
-200,577	-200,000	0,009	-0,083
-199,563	-200,000	0,015	0,082
-198,548	150,401	-0,047	-0,046
-197,533	-128,680	0,122	0,012
-196,519	-92,359	-0,047	-0,010
-195,504	200,595	-0,067	0,074
-194,490	181,466	0,071	-0,076
-193,475	94,017	0,046	-0,038
-192,460	26,162	-0,053	-0,032
-191,446	563,652	0,057	-0,101
-190,431	800,000	-0,021	-0,054
-189,417	133,391	0,082	-0,077
-188,402	169,129	-0,014	-0,014
-187,387	-4,317	-0,122	-0,061
-186,373	-200,000	-0,019	-0,066
-185,358	-200,000	-0,004	0,033
-184,344	800,000	0,020	0,054
-183,329	119,551	0,151	0,136
-182,315	800,000	-0,027	0,068
-181,300	4,429	-0,010	0,005
-180,285	800,000	-0,016	0,034
-179,271	438,795	-0,109	-0,173
-178,256	67,047	0,072	-0,053
-177,242	220,056	-0,056	0,066
-176,227	-200,000	0,023	0,097
-175,212	-200,000	-0,015	-0,051
-174,198	-200,000	0,049	0,175
-173,183	288,200	0,056	-0,074
-172,169	800,000	-0,033	-0,068
-171,154	132,270	-0,043	0,040
-170,139	696,505	0,073	0,141
-169,125	-200,000	-0,029	0,105
-168,110	-158,757	-0,067	-0,003
-167,096	129,294	-0,123	0,114
-166,081	2,611	-0,072	-0,038
-165,066	-57,855	-0,140	-0,044
-164,052	377,289	0,031	-0,047
-163,037	208,329	0,122	-0,138
-162,023	-83,369	-0,088	0,020
-161,008	71,059	0,046	-0,035
-159,993	-200,000	0,012	0,112
-158,979	-194,525	-0,076	0,000
-157,964	554,585	-0,068	-0,120
-156,950	800,000	-0,022	-0,051
-155,935	168,540	0,034	0,035
-154,920	292,464	0,095	0,126
-153,906	-200,000	0,008	-0,082
-152,891	583,255	0,028	-0,050
-151,877	187,340	-0,055	-0,060
-150,862	270,617	-0,049	-0,063
-149,847	-79,334	-0,200	0,049
-148,833	58,315	0,083	0,059
-147,818	-200,000	0,020	0,113
-146,804	-125,746	0,138	-0,015
-145,789	738,268	-0,093	0,182
-144,775	451,421	-0,045	-0,072
-143,760	-54,533	0,097	0,032
-142,745	489,602	-0,066	-0,110
-141,731	-200,000	-0,007	-0,073
-140,716	-108,372	0,173	-0,027
-139,702	800,000	-0,062	-0,128
-138,687	428,140	0,031	0,049
-137,672	-200,000	-0,025	0,091
-136,658	-200,000	-0,001	-0,124
-135,643	109,188	-0,098	-0,085
-134,629	-200,000	0,017	0,071
-133,614	-120,509	-0,064	0,008
-132,599	-135,778	0,185	-0,016
-131,585	214,138	-0,106	-0,122
-130,570	85,086	-0,069	-0,055
-129,556	701,843	-0,072	-0,137
-128,541	800,000	-0,060	-0,126
-127,526	-22,801	-0,093	0,041
-126,512	800,000	0,044	-0,127
-125,497	183,968	0,060	0,064
-124,483	216,377	0,062	0,072
-123,468	-74,705	-0,137	-0,035
-122,453	-200,000	-0,000	0,045
-121,439	-200,000	-0,007	0,064
-120,424	170,675	0,075	-0,078
-119,410	-65,228	-0,019	-0,006
-118,395	693,737	0,026	0,049
-117,380	800,000	-0,028	-0,066
-116,366	800,000	-0,045	-0,129
-115,351	-200,000	-0,015	-0,056
-114,337	-200,000	0,006	-0,158
-113,322	69,432	-0,066	-0,049
-112,307	-27,640	-0,107	-0,045
-111,293	79,343	0,057	0,045
-110,278	-24,183	-0,115	-0,050
-109,264	-200,000	-0,002	0,019
-108,249	-200,000	0,016	0,096
-107,234	227,146	0,012	0,014
-106,220	-65,737	0,048	-0,014
-105,205	-200,000	0,033	-0,109
-104,191	-36,603	0,145	-0,056
-103,176	-111,529	0,156	-0,023
-102,162	196,580	-0,077	-0,085
-101,147	-142,457	-0,031	-0,002
-100,132	-86,174	0,087	0,019
-99,118	18,039	-0,076	0,043
-98,103	26,462	-0,108	-0,065
-97,089	-200,000	0,005	-0,057
-96,074	800,000	-0,026	0,076
-95,059	-5,251	0,062	-0,031
-94,045	800,000	0,014	-0,035
-93,030	-16,652	-0,055	-0,025
-92,016	102,042	0,107	0,091
-91,001	-200,000	0,019	-0,093
-89,986	-200,000	-0,017	-0,066
-88,972	3,709	0,078	0,041
-87,957	173,361	0,101	0,105
-86,943	-200,000	0,003	-0,011
-85,928	-76,502	-0,047	0,012
-84,913	102,059	-0,045	-0,038
-83,899	-92,808	0,124	0,025
-82,884	-146,950	0,137	0,008
-81,870	-200,000	-0,029	0,160
-80,855	-200,000	-0,007	0,069
-79,840	-175,573	-0,095	0,002
-78,826	-30,422	-0,077	-0,031
-77,811	758,387	-0,021	0,041
-76,797	302,845	-0,019	-0,025
-75,782	138,683	0,032	0,031
-74,767	-53,439	-0,054	-0,018
-73,753	800,000	0,053	0,142
-72,738	-200,000	0,011	0,044
-71,724	-200,000	-0,016	-0,054
-70,709	-77,280	-0,158	0,040
-69,694	-200,000	0,031	0,112
-68,680	275,550	-0,024	0,030
-67,665	-200,000	-0,004	0,100
-66,651	307,441	-0,014	-0,019
-65,636	476,282	-0,076	0,124
-64,622	-36,812	0,109	-0,042
-63,607	45,171	-0,136	-0,091
-62,592	39,077	-0,024	0,016
-61,578	431,641	0,053	-0,083
-60,563	-25,161	-0,066	0,028
-59,549	8,270	-0,074	0,040
-58,534	-94,417	-1,628	-0,318
-57,519	759,863	-0,689	-1,357
-56,505	-200,000	-1,102	-4,597
-55,490	-111,267	0,687	-0,100
-54,476	800,000	4,985	11,979
-53,461	-200,000	14,828	263,127
-52,446	-200,000	698,555	2237,102
-51,432	563,874	1622,442	2853,093
-50,417	119,152	1628,633	1456,586
-49,403	76,671	1282,903	983,061
-48,388	37,418	1022,252	654,029
-47,373	22,776	981,947	580,191
-46,359	21,943	971,145	571,060
-45,344	20,746	966,897	564,636
-44,330	20,705	965,487	563,659
-43,315	20,525	964,074	562,224
-42,300	20,505	963,038	561,531
-41,286	20,493	962,108	560,930
-40,271	20,391	961,126	560,004
-39,257	20,483	960,377	559,844
-38,242	20,539	959,122	559,270
-37,227	20,459	958,508	558,633
-36,213	20,399	957,680	557,933
-35,198	20,459	956,485	557,409
-34,184	20,491	955,771	557,075
-33,169	20,441	955,181	556,547
-32,154	20,428	954,127	555,867
-31,140	20,535	953,201	555,652
-30,125	20,508	952,658	555,226
-29,111	20,544	951,660	554,737
-28,096	20,465	951,098	554,134
-27,082	20,495	950,235	553,707
-26,067	20,415	949,547	553,027
-25,052	20,496	948,547	552,683
-24,038	20,449	948,147	552,276
-23,023	20,435	947,468	551,813
-22,009	20,510	946,777	551,628
-20,994	20,469	946,250	551,169
-19,979	20,523	945,524	550,897
-18,965	20,484	945,128	550,518
-17,950	20,520	944,214	550,081
-16,936	20,414	943,726	549,437
-15,921	20,377	943,075	548,919
-14,906	20,384	942,305	548,472
-13,892	20,377	941,745	548,102
-12,877	20,314	941,128	547,519
-11,863	20,327	940,419	547,126
-10,848	20,359	939,930	546,922
-9,833	20,424	939,504	546,859
-8,819	20,440	938,786	546,468
-7,804	20,341	938,418	545,920
-6,790	20,347	937,761	545,535
-5,775	20,370	936,999	545,145
-4,760	20,428	936,347	544,925
-3,746	20,360	935,965	544,468
-2,731	20,259	935,177	543,669
-1,717	20,140	934,475	542,863
-0,702	20,170	933,925	542,616
0,313	19,944	933,233	542,322
1,327	23,098	931,216	551,002
2,342	32,287	793,125	493,654
3,356	29,635	450,439	276,352
4,371	-0,416	295,825	151,331
5,386	-4,664	276,876	137,583
6,400	-5,798	271,087	133,636
7,415	-6,415	269,069	132,058
8,429	-5,985	267,670	131,756
9,444	-6,000	266,812	131,308
10,459	-6,118	266,239	130,906
11,473	-6,081	265,499	130,564
12,488	-6,336	265,125	130,137
13,502	-6,431	264,688	129,823
14,517	-6,306	264,069	129,622
15,531	-6,438	263,710	129,315
16,546	-6,144	263,337	129,386
17,561	-6,239	262,961	129,104
18,575	-6,278	262,736	128,947
19,590	-6,365	262,267	128,627
20,604	-6,353	262,056	128,523
21,619	-6,239	261,769	128,473
22,634	-6,315	261,260	128,144
23,648	-6,379	261,146	128,019
24,663	-6,609	260,951	127,705
25,677	-6,342	260,573	127,748
26,692	-6,505	260,440	127,525
27,707	-6,519	260,072	127,322
28,721	-6,438	259,872	127,284
29,736	-6,560	259,539	127,001
30,750	-6,627	259,283	126,805
31,765	-6,427	258,939	126,803
32,780	-6,414	258,818	126,745
33,794	-6,484	258,580	126,554
34,809	-6,335	258,174	126,476
35,823	-6,638	258,114	126,167
36,838	-6,460	257,963	126,240
37,853	-6,651	257,589	125,877
38,867	-6,481	257,299	125,874
39,882	-6,362	257,106	125,874
40,896	-6,530	256,856	125,591
41,911	-6,473	256,577	125,494
42,926	-6,668	256,318	125,185
43,940	-6,512	256,341	125,322
44,955	-6,638	255,902	124,985
45,969	-6,679	255,698	124,839
46,984	-6,941	255,488	124,495
47,999	-7,166	255,243	124,168
49,013	-7,073	254,924	124,083
50,028	-7,317	254,738	123,768
51,042	-7,316	254,272	123,532
52,057	-7,442	254,254	123,402
53,071	-7,259	253,949	123,402
54,086	-7,320	253,793	123,262
55,101	-7,286	253,581	123,178
56,115	-7,073	253,579	123,351
57,130	-6,714	253,499	123,613
58,144	-6,246	253,353	123,938
59,159	-6,061	252,904	123,867
60,174	-6,296	252,874	123,638
61,188	-6,441	252,683	123,408
62,203	-6,556	252,542	123,228
63,217	-6,546	252,212	123,065
64,232	-6,457	252,031	123,043
65,247	-6,467	251,769	122,895
66,261	-6,401	251,576	122,847
67,276	-6,653	251,315	122,492
68,290	-6,813	251,091	122,234
69,305	-7,038	250,779	121,877
70,320	-7,003	250,599	121,809
71,334	-6,744	250,583	122,013
72,349	-6,359	250,365	122,226
73,363	-6,311	250,182	122,167
74,378	-6,202	249,954	122,138
75,393	-6,284	249,700	121,933
76,407	-6,430	249,585	121,741
77,422	-6,373	249,234	121,608
78,436	-6,187	249,118	121,699
79,451	-6,378	248,943	121,440
80,466	-6,656	248,630	121,040
81,480	-6,641	248,322	120,892
82,495	-6,686	248,242	120,804
83,509	-6,652	248,235	120,819
84,524	-6,675	247,830	120,591
85,539	-6,735	247,603	120,419
86,553	-6,951	247,496	120,174
87,568	-6,864	247,418	120,199
88,582	-6,806	247,088	120,077
89,597	-6,682	246,749	120,006
90,611	-6,711	246,833	120,012
91,626	-6,515	246,743	120,122
92,641	-6,651	246,505	119,881
93,655	-6,625	246,348	119,816
94,670	-6,786	245,986	119,493
95,684	-6,632	245,849	119,546
96,699	-6,800	245,703	119,323
97,714	-6,554	245,509	119,425
98,728	-6,793	245,261	119,094
99,743	-6,817	245,073	118,971
100,757	-6,733	244,759	118,879
101,772	-6,740	244,498	118,735
102,787	-6,719	244,408	118,698
103,801	-6,628	244,261	118,692
104,816	-6,702	244,351	118,664
105,830	-6,634	244,099	118,587
106,845	-6,440	243,852	118,619
107,860	-6,372	243,656	118,570
108,874	-6,630	243,373	118,206
109,889	-6,599	243,164	118,120
110,903	-6,639	242,962	117,978
111,918	-6,954	242,898	117,675
112,933	-6,518	242,675	117,918
113,947	-6,567	242,663	117,861
114,962	-6,544	242,452	117,767
115,976	-6,442	242,184	117,711
116,991	-6,518	242,097	117,595
118,006	-6,524	241,925	117,497
119,020	-6,446	241,801	117,490
120,035	-6,524	241,680	117,356
121,049	-6,601	241,550	117,220
122,064	-6,514	241,238	117,129
123,079	-6,735	240,954	116,800
124,093	-6,658	240,882	116,817
125,108	-6,746	240,582	116,589
126,122	-6,876	240,364	116,367
127,137	-7,096	240,290	116,140
128,151	-6,966	240,061	116,125
129,166	-6,705	239,843	116,223
130,181	-6,850	239,660	116,006
131,195	-7,150	239,500	115,673
132,210	-6,621	239,383	116,037
133,224	-6,482	239,193	116,048
134,239	-6,613	239,157	115,914
135,254	-6,597	238,963	115,822
136,268	-6,793	238,791	115,569
137,283	-6,814	238,309	115,309
138,297	-6,997	238,128	115,062
139,312	-6,984	237,946	114,974
140,327	-6,722	238,019	115,212
141,341	-6,340	238,037	115,520
142,356	-6,276	237,792	115,442
143,370	-6,403	237,637	115,254
144,385	-6,331	237,581	115,275
145,400	-6,023	237,348	115,401
146,414	-6,168	237,093	115,149
147,429	-6,154	236,948	115,080
148,443	-6,212	236,690	114,898
149,458	-6,177	236,655	114,898
150,473	-6,225	236,344	114,699
151,487	-6,352	236,183	114,509
152,502	-6,249	236,008	114,496
153,516	-6,008	235,925	114,639
154,531	-5,970	235,497	114,452
155,546	-6,214	235,419	114,208
156,560	-6,521	235,447	113,966
157,575	-6,440	235,174	113,888
158,589	-6,359	234,927	113,823
159,604	-6,066	234,904	114,036
160,619	-6,071	234,720	113,932
161,633	-5,878	234,530	113,983
162,648	-6,105	234,438	113,747
163,662	-6,206	234,337	113,608
164,677	-6,121	234,158	113,579
165,692	-6,155	233,933	113,432
166,706	-6,203	233,809	113,324
167,721	-6,285	233,854	113,270
168,735	-6,226	233,617	113,192
169,750	-6,260	233,437	113,068
170,764	-6,252	233,321	113,009
171,779	-6,197	233,242	113,004
172,794	-5,922	232,845	113,019
173,808	-6,209	232,735	112,728
174,823	-6,658	232,305	112,156
175,837	-6,920	232,094	111,838
176,852	-6,360	232,107	112,275
177,867	-6,190	232,071	112,382
178,881	-6,149	231,948	112,344
179,896	-6,153	231,774	112,247
180,910	-6,286	231,742	112,117
181,925	-6,281	231,542	112,013
182,940	-6,130	231,464	112,085
183,954	-6,005	231,220	112,054
184,969	-6,183	231,157	111,874
185,983	-5,894	230,977	112,004
186,998	-5,826	230,828	111,975
188,013	-6,122	230,642	111,643
189,027	-5,787	230,341	111,748
190,042	-5,846	230,271	111,659
191,056	-6,202	230,139	111,307
192,071	-5,792	229,831	111,467
193,086	-6,175	229,898	111,192
194,100	-5,808	229,634	111,340
195,115	-6,226	229,285	110,836
196,129	-7,159	229,134	110,029
197,144	-3,235	230,169	113,573
198,159	1,049	231,601	117,620
199,173	3,640	232,034	119,854
200,188	3,921	231,844	119,965
201,202	3,670	231,752	119,711
202,217	3,905	231,685	119,849
203,232	4,440	231,624	120,223
204,246	4,241	231,602	120,046
205,261	4,276	231,400	119,957
206,275	4,198	231,381	119,876
207,290	4,432	231,199	119,953
208,304	4,308	230,985	119,735
209,319	4,425	230,750	119,693
210,334	4,395	230,557	119,560
211,348	4,140	230,327	119,233
212,363	3,818	230,028	118,818
213,377	3,965	229,604	118,702
214,392	3,411	229,795	118,362
215,407	3,687	229,577	118,452
216,421	3,742	229,489	118,438
217,436	3,549	229,266	118,164
218,450	3,178	229,220	117,844
219,465	3,151	228,965	117,682
220,480	3,461	228,785	117,817
221,494	3,281	228,701	117,625
222,509	3,637	228,459	117,763
223,523	3,607	228,392	117,695
224,538	3,445	228,177	117,449
225,553	3,602	227,946	117,440
226,567	3,536	228,015	117,415
227,582	3,944	227,982	117,700
228,596	3,991	227,858	117,661
229,611	3,683	227,573	117,268
230,626	3,228	227,394	116,818
231,640	3,558	227,248	116,985
232,655	3,744	227,015	116,996
233,669	4,032	227,138	117,268
234,684	4,441	226,988	117,492
235,699	4,045	226,651	117,005
236,713	3,627	226,497	116,599
237,728	3,664	226,309	116,519
238,742	3,487	226,154	116,295
239,757	3,624	225,996	116,307
240,772	3,683	225,821	116,252
241,786	3,394	225,749	115,985
242,801	3,701	225,689	116,176
243,815	3,692	225,635	116,131
244,830	3,856	225,492	116,171
245,844	3,752	225,130	115,896
246,859	3,665	225,047	115,777
247,874	3,936	224,965	115,930
248,888	4,087	224,681	115,886
249,903	3,622	224,639	115,504
250,917	3,728	224,354	115,427
251,932	3,715	224,205	115,330
252,947	3,457	224,183	115,115
253,961	3,598	223,899	115,065
254,976	3,497	223,757	114,906
255,990	3,868	223,719	115,154
257,005	3,608	223,703	114,941
258,020	3,850	223,496	115,005
259,034	3,923	223,519	115,061
260,049	3,837	223,158	114,801
261,063	3,906	223,130	114,828
262,078	4,044	223,010	114,859
263,093	4,035	222,798	114,732
264,107	3,890	222,588	114,506
265,122	4,089	222,492	114,595
266,136	4,107	222,501	114,603
267,151	4,014	222,178	114,357
268,166	3,744	221,943	114,025
269,180	3,459	221,694	113,676
270,195	3,610	221,572	113,715
271,209	3,509	221,517	113,601
272,224	3,642	221,468	113,665
273,239	3,622	221,361	113,586
274,253	3,726	221,063	113,499
275,268	3,339	220,892	113,115
276,282	3,290	220,796	113,020
277,297	3,335	220,455	112,869
278,312	3,528	220,383	112,964
279,326	3,428	220,453	112,916
280,341	3,639	220,362	113,015
281,355	3,757	220,141	112,978
282,370	3,417	219,965	112,628
283,384	3,328	219,775	112,455
284,399	3,199	219,571	112,246
285,414	3,291	219,422	112,227
286,428	3,665	219,380	112,470
287,443	3,614	219,412	112,439
288,457	3,546	219,220	112,280
289,472	3,622	218,886	112,155
290,487	3,457	218,676	111,917
291,501	3,109	218,626	111,627
292,516	3,353	218,507	111,734
293,530	3,198	218,481	111,598
294,545	3,219	218,345	111,534
295,560	3,127	218,290	111,429
296,574	3,609	218,014	111,629
297,589	3,431	217,940	111,452
298,603	3,514	217,672	111,365
299,618	3,511	217,693	111,364
300,633	3,518	217,494	111,257
301,647	3,834	217,454	111,456
302,662	3,895	217,332	111,428
303,676	3,881	217,185	111,332
304,691	3,794	216,992	111,160
305,706	3,677	216,826	110,981
306,720	3,626	216,562	110,799
307,735	3,227	216,402	110,419
308,749	3,376	216,398	110,515
309,764	3,680	216,424	110,738
310,779	3,670	216,293	110,653
311,793	3,849	215,988	110,616
312,808	3,756	215,747	110,416
313,822	3,764	215,601	110,337
314,837	3,624	215,479	110,165
315,852	3,438	215,319	109,940
316,866	3,433	215,179	109,855
317,881	3,928	215,052	110,134
318,895	3,993	215,031	110,161
319,910	3,295	214,827	109,547
320,925	3,079	214,764	109,351
321,939	2,993	214,408	109,098
322,954	3,246	214,368	109,249
323,968	3,704	214,205	109,482
324,983	3,539	214,227	109,367
325,997	3,887	214,103	109,542
327,012	3,542	213,895	109,179
328,027	3,938	213,733	109,369
329,041	3,962	213,826	109,423
330,056	3,860	213,738	109,296
331,070	3,674	213,394	108,978
332,085	3,288	213,123	108,557
333,100	3,409	213,010	108,575
334,114	3,508	212,938	108,599
335,129	3,594	212,661	108,509
336,143	3,756	212,630	108,598
337,158	3,349	212,516	108,242
338,173	3,580	212,352	108,312
339,187	3,566	212,094	108,161
340,202	3,399	212,111	108,042
341,216	3,173	211,897	107,764
342,231	3,307	211,798	107,799
343,246	3,418	211,681	107,808
344,260	3,172	211,542	107,555
345,275	3,440	211,398	107,660
346,289	3,628	211,329	107,747
347,304	3,580	211,192	107,634
348,319	3,507	211,156	107,555
349,333	3,548	210,952	107,470
350,348	3,786	210,649	107,473
351,362	3,869	210,717	107,556
352,377	3,952	210,758	107,625
353,392	3,755	210,431	107,312
354,406	3,562	210,322	107,112
355,421	194,314	1343,076	1427,951
356,435	155,123	1481,157	1428,027
