DTS Sentinel unit serial number:	SN410029Multiplexer serial number:	ORYXHardware model number:	OX2-SRSoftware version number:	ORYX F/W v4,00 Oryx Data Collector v3.7.2.0data status	okinstallation	B6 Nyhavnadifferential loss correction	single-endedforward channel	channel 2reverse channel	N/Adate	2023/12/09time	06:30:09forward acquisition time	300,00reverse acquisition time	0,00gamma	499,1914k internal	0,3140k external	0,3140temperature offset calibration	1,0000default loss term (dB/km)	0,3820temperature slope calibration	1,0000multiplexer offset coefficient	1,0000multiplexer slope coefficient	1,0000fibre end	0,00T internal ref (°C)	18,44T ext. ref 1 (°C)	2,25T ext. ref 2 (°C)	2,28length (m)	temperature (°C)	Stokes	anti-Stokes-744,400	249,257	0,064	0,080
-743,385	-5,367	-0,303	0,154
-742,371	-200,000	0,113	0,000
-741,356	-186,611	-0,327	0,003
-740,342	70,353	0,100	0,076
-739,327	-22,029	-0,254	0,114
-738,312	60,512	0,021	0,015
-737,298	-1,921	-0,310	0,161
-736,283	88,058	0,095	0,078
-735,269	-141,736	-0,336	0,025
-734,254	-69,424	0,085	0,024
-733,239	-8,082	-0,398	-0,198
-732,225	272,412	0,061	0,080
-731,210	-200,000	-0,010	0,074
-730,196	177,808	0,048	0,051
-729,181	-98,255	-0,104	-0,020
-728,167	166,333	0,112	-0,118
-727,152	-88,068	-0,116	0,026
-726,137	-108,592	0,072	-0,011
-725,123	157,610	-0,062	0,063
-724,108	-99,197	-0,199	-0,037
-723,094	800,000	-0,039	-0,115
-722,079	-145,328	-0,062	-0,004
-721,064	29,475	-0,082	0,052
-720,050	-8,739	0,159	-0,079
-719,035	-200,000	-0,026	0,112
-718,021	201,143	0,084	-0,096
-717,006	-7,046	-0,115	-0,057
-715,991	-114,973	0,042	0,006
-714,977	183,530	-0,047	0,052
-713,962	10,191	-0,022	-0,012
-712,948	231,570	0,062	0,075
-711,933	44,963	-0,089	-0,061
-710,918	-18,718	-0,051	0,023
-709,904	-117,594	0,018	0,002
-708,889	-35,861	-0,142	-0,057
-707,875	-10,832	0,062	-0,030
-706,860	76,171	-0,083	0,065
-705,845	112,814	-0,082	0,074
-704,831	295,687	-0,075	0,102
-703,816	-31,260	0,094	-0,039
-702,802	82,253	0,045	-0,036
-701,787	452,285	-0,102	-0,168
-700,772	290,720	-0,031	-0,042
-699,758	-200,000	-0,006	-0,118
-698,743	539,625	0,077	0,136
-697,729	800,000	0,057	-0,131
-696,714	-82,918	-0,117	-0,028
-695,699	-18,275	-0,058	-0,027
-694,685	-144,946	-0,125	0,008
-693,670	218,523	-0,074	-0,088
-692,656	-162,225	0,080	-0,003
-691,641	-12,427	0,103	-0,050
-690,627	698,873	-0,047	0,091
-689,612	-18,933	0,112	0,051
-688,597	-62,709	0,076	-0,023
-687,583	-200,000	-0,012	-0,160
-686,568	-200,000	-0,004	-0,097
-685,554	760,631	-0,057	-0,116
-684,539	-16,536	-0,062	-0,029
-683,524	53,707	0,128	0,091
-682,510	527,015	0,012	0,021
-681,495	-200,000	0,006	-0,091
-680,481	185,847	0,002	-0,002
-679,466	-129,811	-0,138	-0,014
-678,451	800,000	0,085	-0,196
-677,437	800,000	-0,064	-0,132
-676,422	2,751	-0,021	0,011
-675,408	651,661	0,055	0,104
-674,393	-113,920	-0,049	-0,007
-673,378	-200,000	-0,027	-0,133
-672,364	83,657	-0,126	-0,102
-671,349	146,575	-0,139	-0,138
-670,335	-17,451	0,121	0,056
-669,320	-131,956	-0,060	0,006
-668,305	-42,609	-0,053	-0,020
-667,291	800,000	-0,020	-0,059
-666,276	-200,000	0,001	-0,082
-665,262	297,105	-0,033	0,045
-664,247	81,148	-0,081	-0,065
-663,232	-29,151	0,085	0,036
-662,218	-32,915	-0,080	0,033
-661,203	190,568	0,060	-0,067
-660,189	-71,165	-0,088	-0,024
-659,174	-35,651	-0,156	0,062
-658,159	6,810	-0,046	0,025
-657,145	-200,000	0,017	0,105
-656,130	2,927	0,120	0,064
-655,116	800,000	-0,026	0,075
-654,101	-96,381	0,179	0,035
-653,086	-200,000	-0,019	-0,066
-652,072	800,000	-0,038	-0,091
-651,057	251,649	-0,105	0,132
-650,043	283,697	-0,131	-0,175
-649,028	800,000	0,027	0,072
-648,014	40,337	0,018	0,012
-646,999	-200,000	-0,034	-0,149
-645,984	-112,634	0,045	0,007
-644,970	-77,703	-0,134	-0,034
-643,955	800,000	0,063	-0,132
-642,941	-81,610	-0,146	-0,035
-641,926	15,201	-0,016	0,009
-640,911	-200,000	-0,014	-0,139
-639,897	800,000	0,035	0,083
-638,882	-200,000	0,011	0,148
-637,868	-200,000	-0,019	0,078
-636,853	47,604	-0,035	0,024
-635,838	800,000	-0,050	0,132
-634,824	800,000	0,027	-0,066
-633,809	-102,158	0,159	-0,028
-632,795	613,908	0,069	-0,128
-631,780	175,099	-0,027	-0,028
-630,765	-33,130	0,051	0,021
-629,751	-27,843	-0,194	-0,083
-628,736	-200,000	-0,005	-0,130
-627,722	-200,000	-0,031	-0,136
-626,707	452,899	0,037	0,060
-625,692	1,726	0,100	-0,053
-624,678	-91,758	0,130	-0,027
-623,663	162,501	-0,040	0,041
-622,649	-200,000	0,008	-0,095
-621,634	-200,000	0,009	0,031
-620,619	26,257	-0,044	0,027
-619,605	-117,396	0,083	0,011
-618,590	-200,000	-0,023	0,113
-617,576	229,986	0,048	-0,058
-616,561	606,096	0,025	-0,046
-615,546	-123,190	-0,065	-0,008
-614,532	-200,000	-0,004	-0,223
-613,517	-98,753	-0,203	0,038
-612,503	85,467	0,170	0,137
-611,488	-65,619	-0,182	0,054
-610,474	77,806	0,053	0,042
-609,459	426,275	0,037	0,059
-608,444	19,041	-0,049	-0,029
-607,430	21,388	0,094	-0,056
-606,415	36,395	-0,031	-0,020
-605,401	414,643	-0,014	-0,022
-604,386	53,264	0,062	0,044
-603,371	76,075	-0,006	-0,005
-602,357	24,966	-0,102	0,062
-601,342	-41,243	0,029	0,011
-600,328	-200,000	-0,038	-0,180
-599,313	-34,307	0,102	0,041
-598,298	105,897	-0,051	0,045
-597,284	-11,286	0,081	0,039
-596,269	-200,000	-0,004	0,000
-595,255	-200,000	0,030	0,172
-594,240	-65,434	-0,046	-0,014
-593,225	-181,992	-0,159	-0,002
-592,211	308,316	-0,032	0,044
-591,196	49,184	0,106	-0,073
-590,182	-200,000	0,014	-0,078
-589,167	-200,000	0,008	-0,058
-588,152	-5,181	0,018	-0,009
-587,138	-200,000	-0,085	0,000
-586,123	-200,000	-0,033	-0,136
-585,109	329,604	-0,073	-0,104
-584,094	206,314	-0,097	-0,112
-583,079	-142,479	0,085	-0,006
-582,065	-200,000	-0,001	0,021
-581,050	-188,764	-0,135	0,001
-580,036	800,000	-0,029	0,071
-579,021	-87,522	0,130	-0,029
-578,006	2,380	-0,022	-0,012
-576,992	-110,709	-0,061	-0,009
-575,977	65,286	-0,015	0,011
-574,963	-56,078	0,062	0,020
-573,948	-200,000	0,022	0,084
-572,934	-68,052	-0,012	-0,003
-571,919	-65,964	0,041	-0,012
-570,904	-81,216	-0,149	0,036
-569,890	58,542	-0,055	-0,040
-568,875	147,414	0,032	0,031
-567,861	-78,071	-0,040	0,010
-566,846	-200,000	0,045	-0,166
-565,831	800,000	0,030	-0,072
-564,817	-41,771	0,048	0,018
-563,802	81,793	-0,062	-0,049
-562,788	98,408	0,072	0,061
-561,773	124,241	-0,032	-0,029
-560,758	-125,571	0,072	0,008
-559,744	-77,854	-0,082	-0,021
-558,729	287,910	-0,123	0,164
-557,715	-82,109	-0,089	0,021
-556,700	172,093	-0,090	-0,095
-555,685	116,187	0,056	0,051
-554,671	-200,000	0,014	-0,106
-553,656	-200,000	0,008	0,042
-552,642	504,297	0,039	-0,067
-551,627	67,670	0,095	0,072
-550,612	206,231	-0,125	0,144
-549,598	248,753	0,041	0,052
-548,583	715,789	-0,032	0,063
-547,569	-110,832	0,087	0,013
-546,554	-200,000	0,006	0,032
-545,539	-188,492	0,073	0,001
-544,525	450,869	0,048	0,078
-543,510	-200,000	-0,005	-0,039
-542,496	48,743	0,122	0,084
-541,481	56,258	0,053	-0,038
-540,466	226,786	0,023	0,028
-539,452	-200,000	-0,002	-0,061
-538,437	-200,000	-0,030	0,112
-537,423	-200,000	-0,020	0,180
-536,408	800,000	-0,019	0,048
-535,393	312,932	-0,141	-0,195
-534,379	800,000	-0,011	0,029
-533,364	-68,074	0,041	0,012
-532,350	71,108	0,101	-0,077
-531,335	800,000	-0,066	-0,140
-530,321	-77,038	0,045	-0,011
-529,306	800,000	-0,100	-0,220
-528,291	231,273	-0,098	-0,119
-527,277	110,528	0,039	-0,035
-526,262	100,993	-0,044	0,038
-525,248	-28,769	0,188	-0,079
-524,233	-29,390	0,099	-0,041
-523,218	119,891	0,085	0,078
-522,204	108,728	-0,038	-0,033
-521,189	500,622	0,042	-0,072
-520,175	151,820	-0,095	-0,096
-519,160	279,010	-0,043	0,057
-518,145	226,518	0,028	-0,034
-517,131	127,512	-0,075	-0,070
-516,116	160,870	0,082	-0,084
-515,102	-200,000	-0,044	0,160
-514,087	94,926	-0,079	-0,066
-513,072	-51,528	-0,087	-0,030
-512,058	-28,155	-0,050	0,021
-511,043	36,511	0,097	-0,063
-510,029	800,000	0,067	-0,175
-509,014	-200,000	0,024	0,118
-507,999	800,000	0,033	-0,082
-506,985	-200,000	-0,019	0,076
-505,970	-25,951	0,151	-0,065
-504,956	800,000	-0,026	-0,082
-503,941	800,000	0,012	-0,035
-502,926	326,040	0,087	0,123
-501,912	-11,315	-0,068	0,033
-500,897	-16,290	-0,051	0,024
-499,883	150,361	0,156	0,156
-498,868	-1,988	0,096	-0,049
-497,853	800,000	-0,037	0,094
-496,839	-102,920	0,144	0,025
-495,824	-36,261	-0,094	0,037
-494,810	112,018	0,079	-0,070
-493,795	-99,298	0,103	0,019
-492,781	234,034	-0,118	-0,143
-491,766	295,990	-0,017	-0,023
-490,751	800,000	0,038	0,112
-489,737	361,351	-0,030	-0,044
-488,722	44,809	0,075	0,050
-487,708	-170,883	0,053	-0,001
-486,693	269,881	0,061	0,079
-485,678	102,880	-0,033	0,028
-484,664	-200,000	0,007	-0,037
-483,649	353,442	0,034	0,050
-482,635	800,000	-0,028	-0,069
-481,620	-126,704	0,142	-0,015
-480,605	-200,000	0,028	0,096
-479,591	-89,611	0,038	0,008
-478,576	-200,000	-0,008	0,033
-477,562	-40,668	-0,019	0,007
-476,547	-200,000	-0,020	-0,166
-475,532	-50,231	-0,126	-0,044
-474,518	50,319	-0,129	0,089
-473,503	78,175	0,011	-0,009
-472,489	303,880	0,083	-0,113
-471,474	-200,000	0,000	-0,056
-470,459	-150,679	-0,100	0,006
-469,445	286,106	-0,064	-0,085
-468,430	-200,000	-0,006	-0,030
-467,416	102,275	-0,073	0,063
-466,401	-168,416	-0,078	-0,002
-465,386	-133,187	0,061	0,006
-464,372	-86,735	-0,082	0,018
-463,357	-116,647	-0,144	-0,019
-462,343	-200,000	-0,005	0,107
-461,328	387,683	0,044	0,066
-460,313	132,243	0,099	-0,093
-459,299	230,852	-0,031	0,037
-458,284	-14,937	-0,063	0,029
-457,270	-200,000	0,021	-0,094
-456,255	-142,026	0,030	0,002
-455,241	-185,601	-0,090	0,001
-454,226	-200,000	0,041	-0,182
-453,211	106,387	0,076	0,066
-452,197	-60,207	0,142	-0,044
-451,182	120,824	0,002	-0,001
-450,168	800,000	0,011	-0,024
-449,153	-22,131	-0,033	0,015
-448,138	429,531	0,051	0,081
-447,124	-96,720	0,085	-0,016
-446,109	-46,852	-0,025	0,009
-445,095	-164,700	0,020	-0,001
-444,080	444,012	0,051	0,083
-443,065	-50,521	0,128	-0,044
-442,051	421,467	-0,031	0,048
-441,036	-200,000	0,008	0,225
-440,022	465,573	0,012	-0,020
-439,007	-200,000	-0,007	-0,038
-437,992	-22,226	-0,053	0,024
-436,978	800,000	0,025	0,054
-435,963	-28,052	-0,106	0,045
-434,949	-200,000	0,015	0,064
-433,934	800,000	-0,047	-0,123
-432,919	-55,117	0,046	-0,015
-431,905	-154,696	-0,095	-0,005
-430,890	-73,344	-0,131	0,035
-429,876	-170,433	0,077	-0,002
-428,861	357,633	0,055	0,080
-427,846	-200,000	0,002	0,071
-426,832	224,783	-0,041	-0,048
-425,817	-124,134	0,145	-0,016
-424,803	97,137	0,035	0,030
-423,788	800,000	0,037	0,076
-422,773	131,590	0,125	0,118
-421,759	-20,617	0,103	0,046
-420,744	-200,000	0,005	-0,089
-419,730	-28,980	0,067	-0,028
-418,715	210,426	0,074	-0,085
-417,701	109,298	-0,088	0,077
-416,686	389,968	0,072	0,110
-415,671	800,000	0,013	-0,027
-414,657	445,258	0,088	0,142
-413,642	97,961	0,048	-0,040
-412,628	405,144	0,056	-0,087
-411,613	-176,659	0,077	0,001
-410,598	436,034	0,030	-0,048
-409,584	-134,163	0,096	0,009
-408,569	-47,113	-0,024	-0,008
-407,555	-128,222	0,093	-0,010
-406,540	800,000	0,028	-0,066
-405,525	-200,000	0,005	-0,100
-404,511	800,000	-0,022	-0,058
-403,496	-200,000	0,017	-0,111
-402,482	-200,000	-0,006	0,120
-401,467	324,832	0,052	0,073
-400,452	-138,589	-0,044	-0,003
-399,438	-200,000	0,010	0,050
-398,423	632,155	0,018	0,034
-397,409	-77,266	-0,082	-0,021
-396,394	16,503	0,028	-0,016
-395,379	30,709	-0,076	0,047
-394,365	-200,000	-0,010	0,090
-393,350	-109,408	0,038	-0,006
-392,336	800,000	-0,038	0,094
-391,321	-83,607	-0,040	0,009
-390,306	296,517	-0,059	0,080
-389,292	110,530	-0,093	0,081
-388,277	-200,000	0,033	0,136
-387,263	-200,000	0,019	0,180
-386,248	800,000	0,023	0,067
-385,233	214,634	0,051	0,059
-384,219	121,068	-0,134	0,122
-383,204	-145,910	0,010	0,001
-382,190	-156,762	-0,071	0,003
-381,175	131,639	-0,060	-0,056
-380,160	-200,000	-0,022	0,078
-379,146	800,000	0,024	0,049
-378,131	164,317	0,027	-0,028
-377,117	240,307	0,030	0,036
-376,102	313,226	-0,086	-0,119
-375,088	-89,184	0,033	0,007
-374,073	-200,000	-0,010	0,051
-373,058	275,194	0,066	0,086
-372,044	173,721	0,021	-0,022
-371,029	-200,000	-0,010	0,183
-370,015	800,000	0,058	-0,127
-369,000	-134,436	-0,196	-0,017
-367,985	-200,000	-0,028	-0,118
-366,971	800,000	0,028	0,069
-365,956	86,749	-0,059	-0,048
-364,942	146,727	0,056	0,055
-363,927	-63,250	-0,129	0,039
-362,912	-200,000	-0,025	-0,101
-361,898	-200,000	0,001	-0,113
-360,883	-40,326	-0,119	-0,045
-359,869	677,975	-0,052	-0,100
-358,854	-19,994	0,043	-0,019
-357,839	800,000	0,025	0,070
-356,825	-200,000	0,009	0,101
-355,810	14,873	-0,097	-0,055
-354,796	-76,178	0,059	-0,015
-353,781	-67,899	-0,047	0,013
-352,766	800,000	-0,021	0,046
-351,752	-156,410	0,094	0,004
-350,737	800,000	0,036	0,079
-349,723	-1,767	0,060	0,031
-348,708	309,898	0,024	0,032
-347,693	-52,208	-0,070	-0,023
-346,679	292,190	-0,077	-0,103
-345,664	210,204	-0,050	-0,057
-344,650	228,642	0,120	-0,143
-343,635	-4,861	0,027	0,014
-342,620	87,077	-0,067	-0,054
-341,606	800,000	0,050	0,142
-340,591	-152,249	0,027	-0,001
-339,577	-168,544	-0,036	0,001
-338,562	800,000	-0,052	0,111
-337,548	137,641	-0,036	-0,034
-336,533	800,000	-0,049	0,116
-335,518	-99,437	0,126	-0,023
-334,504	-14,313	0,079	-0,037
-333,489	-22,872	0,069	-0,030
-332,475	219,905	-0,134	-0,156
-331,460	800,000	-0,085	-0,237
-330,445	94,505	0,023	-0,019
-329,431	-200,000	0,000	-0,009
-328,416	-41,238	0,089	0,033
-327,402	694,110	-0,044	0,084
-326,387	-200,000	0,002	0,088
-325,372	-41,765	-0,089	-0,033
-324,358	130,125	0,067	0,063
-323,343	-105,855	-0,105	-0,017
-322,329	307,613	-0,006	0,008
-321,314	800,000	-0,029	0,085
-320,299	-200,000	0,001	0,116
-319,285	-14,100	0,120	0,056
-318,270	-200,000	-0,038	-0,134
-317,256	-200,000	0,008	-0,168
-316,241	-200,000	-0,007	-0,097
-315,226	800,000	0,009	0,025
-314,212	-200,000	-0,007	0,107
-313,197	220,944	-0,026	0,030
-312,183	-121,953	0,028	0,003
-311,168	45,314	0,111	-0,075
-310,153	151,635	-0,052	-0,051
-309,139	800,000	0,048	-0,132
-308,124	-6,604	0,033	-0,016
-307,110	327,694	0,097	0,136
-306,095	-182,663	0,075	-0,001
-305,080	402,256	0,078	0,120
-304,066	-131,890	-0,088	-0,008
-303,051	-200,000	0,001	-0,022
-302,037	65,999	0,137	-0,101
-301,022	29,075	0,120	0,074
-300,008	800,000	-0,004	-0,011
-298,993	-159,907	0,118	0,005
-297,978	470,465	0,047	0,077
-296,964	-200,000	-0,013	-0,172
-295,949	800,000	-0,054	0,117
-294,935	-122,878	-0,100	0,012
-293,920	-161,006	0,141	-0,005
-292,905	15,634	-0,082	0,047
-291,891	579,081	0,036	-0,064
-290,876	-78,314	-0,054	0,013
-289,862	-11,537	0,033	0,016
-288,847	329,742	-0,074	0,104
-287,832	155,154	-0,085	-0,085
-286,818	-200,000	0,010	-0,036
-285,803	-103,430	0,106	0,018
-284,789	274,564	-0,060	-0,077
-283,774	8,492	0,054	0,029
-282,759	-2,119	-0,068	-0,035
-281,745	-83,376	-0,175	-0,041
-280,730	-23,659	-0,069	0,030
-279,716	-200,000	0,009	0,047
-278,701	800,000	0,017	-0,053
-277,686	219,757	-0,028	-0,032
-276,672	-38,846	0,042	-0,016
-275,657	423,429	0,051	0,080
-274,643	222,860	-0,024	0,028
-273,628	-107,178	0,031	0,005
-272,613	108,746	0,048	0,042
-271,599	473,383	0,045	-0,074
-270,584	124,882	0,090	0,083
-269,570	-154,339	0,045	-0,002
-268,555	-200,000	0,000	0,056
-267,540	475,041	0,077	-0,127
-266,526	134,595	0,088	-0,083
-265,511	59,446	-0,039	-0,028
-264,497	-2,039	0,167	0,085
-263,482	409,194	0,021	-0,032
-262,467	83,184	-0,025	-0,020
-261,453	-145,451	-0,136	-0,009
-260,438	-200,000	0,015	-0,052
-259,424	-200,000	0,015	-0,057
-258,409	800,000	-0,034	-0,097
-257,395	-130,822	-0,038	0,004
-256,380	800,000	0,025	0,067
-255,365	-200,000	0,008	0,047
-254,351	-200,000	-0,006	-0,032
-253,336	-155,222	-0,072	0,003
-252,322	800,000	-0,032	-0,100
-251,307	134,331	0,082	-0,078
-250,292	-86,024	-0,063	-0,014
-249,278	800,000	0,053	-0,149
-248,263	14,151	0,015	0,008
-247,249	139,632	-0,064	0,061
-246,234	-95,957	0,065	-0,012
-245,219	-8,091	-0,086	0,042
-244,205	-128,268	0,080	0,008
-243,190	-99,491	0,049	-0,009
-242,176	66,442	-0,064	0,047
-241,161	204,455	0,091	0,103
-240,146	-82,307	0,106	-0,025
-239,132	-185,255	0,039	-0,000
-238,117	46,143	-0,023	-0,016
-237,103	800,000	-0,024	0,058
-236,088	-200,000	-0,021	0,162
-235,073	517,587	-0,066	0,112
-234,059	304,437	-0,053	0,072
-233,044	800,000	-0,022	0,069
-232,030	-200,000	0,003	0,088
-231,015	11,880	-0,111	-0,062
-230,000	-200,000	-0,012	-0,079
-228,986	44,158	-0,071	0,047
-227,971	299,603	0,066	-0,088
-226,957	-69,210	0,123	-0,034
-225,942	-160,619	-0,102	-0,004
-224,927	-200,000	-0,002	0,071
-223,913	-200,000	-0,048	0,192
-222,898	800,000	0,018	0,049
-221,884	658,597	-0,019	-0,035
-220,869	7,881	-0,082	-0,044
-219,855	-0,841	0,099	0,051
-218,840	800,000	0,093	0,276
-217,825	-200,000	-0,004	0,096
-216,811	9,929	-0,082	0,045
-215,796	-200,000	-0,006	-0,096
-214,782	655,300	-0,033	-0,062
-213,767	-147,003	0,053	0,003
-212,752	-102,336	0,041	-0,007
-211,738	59,781	-0,051	0,036
-210,723	142,061	-0,136	0,131
-209,709	0,243	0,072	-0,037
-208,694	-139,708	-0,138	-0,010
-207,679	-122,614	-0,154	-0,018
-206,665	110,156	0,026	-0,023
-205,650	-200,000	-0,005	-0,075
-204,636	5,467	-0,046	0,025
-203,621	41,732	-0,074	0,049
-202,606	-124,383	-0,107	-0,012
-201,592	296,207	-0,091	0,121
-200,577	-1,841	-0,095	-0,049
-199,563	800,000	-0,042	0,097
-198,548	215,856	-0,010	0,011
-197,533	800,000	0,018	0,053
-196,519	-126,606	0,059	-0,006
-195,504	-133,782	0,108	-0,010
-194,490	130,990	-0,046	-0,043
-193,475	-200,000	-0,032	-0,147
-192,460	3,106	0,058	0,031
-191,446	800,000	-0,027	0,062
-190,431	800,000	0,015	-0,032
-189,417	-51,516	-0,094	0,032
-188,402	175,240	-0,060	0,063
-187,387	-200,000	0,023	-0,128
-186,373	-3,791	-0,114	0,057
-185,358	-141,252	-0,036	0,003
-184,344	186,528	-0,119	0,128
-183,329	413,767	0,055	0,085
-182,315	165,556	-0,061	-0,063
-181,300	-200,000	0,002	-0,007
-180,285	-200,000	-0,005	0,033
-179,271	288,617	0,018	-0,023
-178,256	-200,000	0,005	-0,037
-177,242	2,046	-0,062	0,032
-176,227	580,854	-0,012	0,021
-175,212	149,507	0,058	-0,057
-174,198	198,534	-0,011	0,012
-173,183	-28,688	-0,161	-0,067
-172,169	-54,345	0,127	-0,041
-171,154	800,000	0,034	-0,080
-170,139	-200,000	0,021	-0,086
-169,125	492,576	0,078	-0,130
-168,110	-200,000	0,003	0,028
-167,096	800,000	0,024	-0,052
-166,081	13,838	0,018	0,010
-165,066	-200,000	-0,055	-0,223
-164,052	-200,000	-0,029	-0,122
-163,037	315,363	-0,063	0,087
-162,023	546,139	0,048	0,083
-161,008	-18,448	0,032	-0,014
-159,993	800,000	-0,048	-0,140
-158,979	653,176	-0,039	0,073
-157,964	-0,631	0,034	-0,017
-156,950	-200,000	-0,032	-0,104
-155,935	-200,000	-0,014	0,162
-154,920	45,326	-0,088	-0,059
-153,906	-116,581	0,104	0,014
-152,891	-78,616	0,079	0,019
-151,877	704,423	-0,039	0,074
-150,862	-38,871	-0,119	-0,045
-149,847	208,650	0,021	0,024
-148,833	-200,000	-0,019	0,063
-147,818	31,677	0,053	-0,033
-146,804	19,408	-0,034	0,020
-145,789	335,035	0,071	-0,101
-144,775	427,913	-0,052	-0,082
-143,760	172,975	-0,105	0,109
-142,745	-71,750	-0,116	-0,031
-141,731	246,681	-0,028	0,034
-140,716	-200,000	0,007	0,127
-139,702	-200,000	-0,002	0,187
-138,687	104,759	-0,022	0,019
-137,672	-200,000	-0,044	0,146
-136,658	324,540	-0,059	0,082
-135,643	800,000	0,041	-0,122
-134,629	-45,251	-0,055	-0,020
-133,614	-200,000	-0,010	0,081
-132,599	800,000	0,033	0,067
-131,585	-1,381	0,193	0,098
-130,570	121,374	-0,084	0,076
-129,556	-148,689	0,062	0,004
-128,541	481,810	0,037	0,061
-127,526	-200,000	-0,006	-0,084
-126,512	141,258	0,088	-0,085
-125,497	-200,000	0,014	-0,172
-124,483	-28,453	-0,126	-0,052
-123,468	800,000	0,024	-0,055
-122,453	800,000	-0,038	-0,092
-121,439	720,571	-0,001	0,002
-120,424	26,703	0,137	0,083
-119,410	800,000	0,042	-0,096
-118,395	148,929	0,017	0,017
-117,380	800,000	0,042	0,106
-116,366	-70,815	-0,097	0,026
-115,351	379,016	0,024	0,035
-114,337	-77,297	0,114	-0,028
-113,322	-13,784	0,051	-0,024
-112,307	15,256	-0,068	-0,038
-111,293	157,958	-0,105	0,105
-110,278	-130,645	0,155	-0,015
-109,264	63,502	0,085	0,062
-108,249	800,000	-0,037	-0,083
-107,234	-31,266	0,096	-0,039
-106,220	-117,831	-0,158	-0,020
-105,205	306,078	0,068	-0,092
-104,191	546,344	-0,036	-0,062
-103,176	800,000	0,074	0,165
-102,162	-159,177	0,041	-0,002
-101,147	-200,000	-0,019	0,077
-100,132	-170,614	-0,035	0,001
-99,118	104,312	-0,097	0,082
-98,103	-82,288	0,139	0,033
-97,089	-27,094	0,089	-0,037
-96,074	800,000	0,068	0,169
-95,059	85,401	-0,105	0,084
-94,045	-120,889	-0,214	0,026
-93,030	482,004	0,057	-0,094
-92,016	-200,000	0,007	0,107
-91,001	77,430	-0,114	0,088
-89,986	-61,766	0,078	0,023
-88,972	95,384	-0,100	-0,083
-87,957	727,081	0,068	-0,132
-86,943	-165,406	-0,084	0,003
-85,928	-43,160	-0,160	0,058
-84,913	800,000	0,030	0,070
-83,899	419,528	0,055	0,086
-82,884	-200,000	0,006	-0,043
-81,870	-75,410	-0,172	0,044
-80,855	-93,118	-0,049	0,010
-79,840	-149,281	0,078	-0,004
-78,826	70,742	-0,145	-0,108
-77,811	465,569	0,027	-0,044
-76,797	-200,000	-0,010	0,126
-75,782	-200,000	-0,015	0,083
-74,767	-200,000	-0,013	0,081
-73,753	-200,000	-0,016	0,054
-72,738	800,000	-0,015	0,034
-71,724	-141,608	-0,039	-0,003
-70,709	8,631	-0,056	-0,030
-69,694	-141,469	0,133	0,010
-68,680	-5,517	0,174	0,086
-67,665	800,000	-0,046	-0,109
-66,651	56,240	0,090	0,063
-65,636	274,820	0,039	-0,050
-64,622	165,376	0,065	-0,066
-63,607	-200,000	-0,009	0,037
-62,592	364,006	0,059	-0,085
-61,578	133,286	-0,131	-0,122
-60,563	-200,000	0,044	0,143
-59,549	116,175	0,076	0,067
-58,534	-37,474	-1,760	-0,675
-57,519	800,000	-0,593	-1,260
-56,505	-200,000	-1,120	-4,833
-55,490	-96,932	0,758	-0,142
-54,476	800,000	5,418	12,159
-53,461	-200,000	15,922	278,606
-52,446	-200,000	703,343	2244,150
-51,432	560,956	1619,742	2836,787
-50,417	121,374	1623,661	1459,687
-49,403	81,795	1284,437	1002,733
-48,388	36,680	1028,525	654,233
-47,373	21,506	990,181	579,671
-46,359	20,443	979,171	569,697
-45,344	18,720	974,864	561,504
-44,330	18,857	973,611	561,209
-43,315	18,576	971,713	559,173
-42,300	18,511	970,574	558,282
-41,286	18,488	969,960	557,831
-40,271	18,484	968,969	557,224
-39,257	18,504	968,106	556,773
-38,242	18,495	967,248	556,226
-37,227	18,452	966,678	555,736
-36,213	18,514	965,682	555,344
-35,198	18,426	964,869	554,567
-34,184	18,457	964,033	554,166
-33,169	18,434	963,037	553,499
-32,154	18,601	962,215	553,545
-31,140	18,545	961,286	552,809
-30,125	18,535	960,559	552,335
-29,111	18,527	959,794	551,848
-28,096	18,541	959,339	551,608
-27,082	18,504	958,290	550,865
-26,067	18,467	957,781	550,432
-25,052	18,491	956,789	549,916
-24,038	18,437	956,277	549,425
-23,023	18,487	955,439	549,084
-22,009	18,471	954,839	548,666
-20,994	18,476	954,364	548,387
-19,979	18,516	953,795	548,167
-18,965	18,453	953,143	547,569
-17,950	18,506	952,608	547,410
-16,936	18,368	952,001	546,596
-15,921	18,379	951,171	546,131
-14,906	18,345	950,519	545,628
-13,892	18,327	949,900	545,193
-12,877	18,327	949,257	544,801
-11,863	18,282	948,403	544,145
-10,848	18,254	948,008	543,810
-9,833	18,383	947,756	544,056
-8,819	18,462	946,863	543,774
-7,804	18,321	946,259	542,956
-6,790	18,323	945,622	542,575
-5,775	18,408	945,017	542,477
-4,760	18,380	944,374	541,995
-3,746	18,360	943,802	541,582
-2,731	18,217	943,118	540,714
-1,717	18,166	942,330	540,078
-0,702	18,195	941,543	539,697
0,313	17,989	941,037	539,571
1,327	21,135	939,325	548,502
2,342	30,319	796,726	489,698
3,356	27,474	449,777	272,154
4,371	-2,247	295,697	149,110
5,386	-6,463	276,983	135,652
6,400	-7,705	271,233	131,666
7,415	-8,372	269,093	129,997
8,429	-8,040	267,681	129,610
9,444	-7,971	266,776	129,223
10,459	-7,830	266,189	129,056
11,473	-8,104	265,560	128,489
12,488	-8,187	265,024	128,143
13,502	-8,313	264,521	127,775
14,517	-8,342	263,998	127,484
15,531	-8,217	263,664	127,424
16,546	-8,317	263,246	127,121
17,561	-8,268	263,051	127,059
18,575	-8,194	262,703	126,947
19,590	-8,221	262,191	126,664
20,604	-8,276	261,926	126,476
21,619	-8,354	261,662	126,266
22,634	-8,412	261,108	125,936
23,648	-8,412	260,888	125,818
24,663	-8,495	260,796	125,688
25,677	-8,275	260,545	125,752
26,692	-8,385	260,326	125,537
27,707	-8,195	259,873	125,477
28,721	-8,416	259,653	125,163
29,736	-8,280	259,374	125,139
30,750	-8,590	259,177	124,757
31,765	-8,416	258,738	124,688
32,780	-8,432	258,610	124,602
33,794	-8,657	258,594	124,383
34,809	-8,375	258,287	124,474
35,823	-8,428	257,924	124,242
36,838	-8,420	257,733	124,145
37,853	-8,414	257,513	124,033
38,867	-8,566	257,198	123,737
39,882	-8,533	256,922	123,622
40,896	-8,531	256,701	123,506
41,911	-8,338	256,624	123,628
42,926	-8,499	256,206	123,274
43,940	-8,677	256,059	123,037
44,955	-8,665	255,849	122,935
45,969	-8,646	255,633	122,837
46,984	-8,735	255,326	122,601
47,999	-9,030	255,133	122,239
49,013	-9,253	254,815	121,881
50,028	-9,166	254,496	121,793
51,042	-9,514	254,310	121,390
52,057	-9,372	254,159	121,431
53,071	-9,359	253,924	121,319
54,086	-9,149	253,768	121,416
55,101	-9,153	253,598	121,321
56,115	-8,697	253,522	121,669
57,130	-8,361	253,448	121,914
58,144	-8,257	253,319	121,932
59,159	-8,081	253,074	121,956
60,174	-8,291	252,770	121,617
61,188	-8,338	252,719	121,541
62,203	-8,226	252,572	121,556
63,217	-8,340	252,144	121,241
64,232	-8,339	251,875	121,101
65,247	-8,191	251,603	121,087
66,261	-8,454	251,539	120,819
67,276	-8,496	251,239	120,628
68,290	-8,876	250,870	120,114
69,305	-8,940	250,702	119,968
70,320	-8,679	250,493	120,081
71,334	-8,609	250,446	120,108
72,349	-8,206	250,321	120,382
73,363	-8,081	250,086	120,365
74,378	-8,379	249,877	120,000
75,393	-8,410	249,744	119,898
76,407	-8,559	249,627	119,704
77,422	-8,478	249,409	119,658
78,436	-8,418	249,044	119,524
79,451	-8,421	248,916	119,449
80,466	-8,500	248,626	119,232
81,480	-8,623	248,327	118,974
82,495	-8,602	248,191	118,915
83,509	-8,778	248,095	118,710
84,524	-8,885	247,881	118,507
85,539	-8,716	247,519	118,465
86,553	-8,852	247,344	118,256
87,568	-8,848	247,409	118,280
88,582	-8,582	246,931	118,265
89,597	-8,701	246,744	118,065
90,611	-8,583	246,826	118,193
91,626	-8,444	246,617	118,200
92,641	-8,428	246,411	118,104
93,655	-8,486	246,093	117,892
94,670	-8,728	246,113	117,688
95,684	-8,498	245,793	117,717
96,699	-8,678	245,660	117,492
97,714	-8,822	245,490	117,280
98,728	-8,774	245,214	117,178
99,743	-8,713	244,955	117,094
100,757	-8,885	244,693	116,815
101,772	-8,869	244,534	116,742
102,787	-8,853	244,418	116,690
103,801	-8,633	244,328	116,820
104,816	-8,555	244,169	116,798
105,830	-8,456	243,920	116,751
106,845	-8,444	243,888	116,735
107,860	-8,417	243,704	116,660
108,874	-8,486	243,320	116,408
109,889	-8,660	243,206	116,199
110,903	-8,564	242,995	116,167
111,918	-8,716	242,938	116,004
112,933	-8,466	242,654	116,064
113,947	-8,559	242,574	115,939
114,962	-8,365	242,410	116,011
115,976	-8,509	242,126	115,745
116,991	-8,574	241,988	115,616
118,006	-8,579	241,918	115,568
119,020	-8,533	241,746	115,513
120,035	-8,447	241,556	115,482
121,049	-8,304	241,304	115,469
122,064	-8,443	241,229	115,309
123,079	-8,408	240,980	115,209
124,093	-8,528	240,763	114,996
125,108	-8,820	240,533	114,636
126,122	-9,029	240,388	114,386
127,137	-8,953	240,071	114,288
128,151	-9,090	240,108	114,182
129,166	-8,878	239,830	114,213
130,181	-8,949	239,655	114,063
131,195	-9,043	239,509	113,906
132,210	-8,543	239,287	114,197
133,224	-8,440	239,120	114,191
134,239	-8,434	238,948	114,104
135,254	-8,401	238,902	114,099
136,268	-8,605	238,601	113,779
137,283	-8,846	238,323	113,441
138,297	-9,197	238,347	113,158
139,312	-8,945	237,963	113,169
140,327	-8,590	237,899	113,416
141,341	-8,117	237,889	113,783
142,356	-7,964	237,726	113,819
143,370	-8,189	237,556	113,546
144,385	-7,932	237,424	113,680
145,400	-7,978	237,299	113,573
146,414	-8,001	237,012	113,407
147,429	-8,123	236,964	113,275
148,443	-7,971	236,657	113,241
149,458	-8,210	236,508	112,968
150,473	-8,039	236,358	113,023
151,487	-8,202	236,133	112,775
152,502	-8,267	236,072	112,684
153,516	-8,238	235,938	112,633
154,531	-8,189	235,791	112,592
155,546	-8,168	235,371	112,398
156,560	-8,420	235,282	112,144
157,575	-8,338	235,089	112,107
158,589	-8,263	234,886	112,060
159,604	-7,977	234,818	112,246
160,619	-7,975	234,769	112,214
161,633	-7,850	234,375	112,115
162,648	-7,925	234,310	112,015
163,662	-8,003	234,303	111,939
164,677	-8,582	234,132	111,387
165,692	-8,272	233,951	111,538
166,706	-8,101	233,911	111,644
167,721	-7,871	233,589	111,663
168,735	-7,917	233,541	111,593
169,750	-7,920	233,250	111,442
170,764	-8,119	233,217	111,259
171,779	-7,924	233,023	111,311
172,794	-7,850	232,916	111,308
173,808	-8,274	232,595	110,810
174,823	-8,704	232,260	110,303
175,837	-8,825	232,158	110,149
176,852	-8,393	232,169	110,484
177,867	-7,960	232,017	110,742
178,881	-8,102	231,877	110,554
179,896	-7,816	231,792	110,728
180,910	-8,085	231,679	110,453
181,925	-7,993	231,587	110,471
182,940	-7,879	231,307	110,417
183,954	-7,912	231,094	110,280
184,969	-7,946	231,114	110,253
185,983	-7,853	230,848	110,190
186,998	-7,815	230,735	110,155
188,013	-7,750	230,573	110,119
189,027	-7,708	230,464	110,090
190,042	-7,782	230,312	109,950
191,056	-7,785	230,089	109,831
192,071	-7,804	229,955	109,742
193,086	-7,786	229,674	109,612
194,100	-7,822	229,602	109,541
195,115	-8,006	229,337	109,262
196,129	-8,342	229,032	108,846
197,144	-4,744	230,348	112,263
198,159	0,316	231,902	116,967
199,173	3,271	232,670	119,657
200,188	3,698	232,557	119,921
201,202	3,664	232,485	119,847
202,217	3,825	232,367	119,901
203,232	3,816	232,243	119,820
204,246	4,078	232,109	119,944
205,261	4,040	232,058	119,877
206,275	4,089	231,991	119,869
207,290	4,095	231,776	119,752
208,304	4,159	231,653	119,728
209,319	4,318	231,449	119,736
210,334	4,464	231,145	119,680
211,348	4,017	230,830	119,161
212,363	3,428	230,635	118,594
213,377	3,171	230,517	118,323
214,392	3,257	230,459	118,350
215,407	3,257	230,214	118,213
216,421	3,400	230,025	118,216
217,436	3,519	229,911	118,239
218,450	3,308	229,567	117,889
219,465	3,039	229,565	117,670
220,480	3,169	229,485	117,719
221,494	3,185	229,195	117,572
222,509	3,370	229,295	117,755
223,523	3,484	228,988	117,674
224,538	3,157	228,921	117,379
225,553	3,326	228,713	117,391
226,567	3,538	228,557	117,463
227,582	3,496	228,666	117,476
228,596	3,858	228,329	117,570
229,611	3,357	228,055	117,035
230,626	3,072	227,964	116,761
231,640	3,204	227,780	116,756
232,655	3,574	227,700	116,988
233,669	3,910	227,706	117,236
234,684	3,853	227,632	117,144
235,699	3,688	227,411	116,894
236,713	3,652	226,997	116,644
237,728	3,230	226,814	116,219
238,742	3,346	226,791	116,285
239,757	3,333	226,635	116,184
240,772	3,334	226,463	116,087
241,786	3,348	226,251	115,978
242,801	3,333	226,278	115,971
243,815	3,610	226,244	116,153
244,830	3,778	225,972	116,129
245,844	3,450	225,801	115,783
246,859	3,459	225,529	115,641
247,874	3,479	225,557	115,659
248,888	3,648	225,426	115,709
249,903	3,317	225,297	115,383
250,917	3,244	225,082	115,208
251,932	3,363	224,724	115,104
252,947	3,104	224,789	114,933
253,961	3,232	224,583	114,913
254,976	3,508	224,474	115,054
255,990	3,579	224,425	115,072
257,005	3,747	224,258	115,102
258,020	3,497	224,134	114,841
259,034	3,517	224,052	114,803
260,049	3,493	223,803	114,648
261,063	3,558	223,636	114,600
262,078	3,639	223,461	114,561
263,093	3,724	223,388	114,577
264,107	3,878	223,119	114,544
265,122	3,692	222,880	114,272
266,136	3,973	222,968	114,516
267,151	3,705	222,915	114,279
268,166	3,265	222,572	113,766
269,180	3,353	222,276	113,670
270,195	3,108	222,269	113,475
271,209	3,445	222,099	113,628
272,224	3,541	221,942	113,608
273,239	3,432	221,917	113,504
274,253	3,310	221,731	113,309
275,268	3,367	221,397	113,170
276,282	3,032	221,267	112,847
277,297	3,028	221,263	112,831
278,312	3,221	221,202	112,932
279,326	3,392	221,050	112,971
280,341	3,443	220,953	112,949
281,355	3,312	220,744	112,736
282,370	3,136	220,608	112,526
283,384	2,963	220,333	112,249
284,399	3,214	220,194	112,353
285,414	3,201	220,118	112,294
286,428	3,401	220,009	112,376
287,443	3,889	219,781	112,607
288,457	3,597	219,782	112,384
289,472	3,235	219,592	112,012
290,487	3,124	219,167	111,703
291,501	3,028	219,103	111,590
292,516	2,935	219,058	111,490
293,530	2,942	218,858	111,383
294,545	2,910	218,765	111,302
295,560	2,962	218,828	111,362
296,574	3,314	218,596	111,491
297,589	3,553	218,362	111,535
298,603	3,713	218,379	111,650
299,618	3,444	218,206	111,357
300,633	3,610	218,061	111,394
301,647	3,637	218,039	111,392
302,662	3,643	217,900	111,315
303,676	3,559	217,616	111,099
304,691	3,904	217,571	111,316
305,706	3,444	217,509	110,941
306,720	3,748	217,329	111,060
307,735	3,517	217,072	110,751
308,749	3,258	216,862	110,448
309,764	3,612	216,934	110,730
310,779	3,448	216,882	110,575
311,793	3,378	216,612	110,377
312,808	3,380	216,389	110,255
313,822	3,370	216,278	110,182
314,837	3,112	216,133	109,913
315,852	3,010	215,877	109,699
316,866	3,168	215,848	109,788
317,881	3,638	215,725	110,053
318,895	3,881	215,552	110,129
319,910	3,608	215,362	109,826
320,925	3,167	215,122	109,379
321,939	2,889	214,914	109,065
322,954	3,127	215,002	109,270
323,968	3,494	215,091	109,568
324,983	3,492	214,789	109,402
325,997	3,620	214,590	109,383
327,012	3,450	214,634	109,275
328,027	3,507	214,334	109,152
329,041	3,843	214,311	109,370
330,056	4,077	214,196	109,468
331,070	3,533	213,873	108,907
332,085	2,905	213,752	108,390
333,100	3,177	213,716	108,555
334,114	3,390	213,510	108,592
335,129	3,612	213,362	108,664
336,143	3,161	213,213	108,259
337,158	3,076	212,979	108,070
338,173	3,249	212,941	108,164
339,187	3,139	212,850	108,030
340,202	3,014	212,695	107,854
341,216	3,077	212,466	107,772
342,231	3,139	212,253	107,698
343,246	3,037	212,373	107,678
344,260	3,289	212,314	107,816
345,275	3,277	212,109	107,693
346,289	3,510	211,942	107,763
347,304	3,447	211,796	107,635
348,319	3,482	211,624	107,563
349,333	3,365	211,465	107,390
350,348	3,319	211,396	107,314
351,362	3,481	211,343	107,390
352,377	3,486	211,212	107,318
353,392	3,428	210,901	107,109
354,406	3,429	210,903	107,102
355,421	194,716	1341,466	1424,724
356,435	155,489	1479,233	1424,767
