DTS Sentinel unit serial number:	SN410029Multiplexer serial number:	ORYXHardware model number:	OX2-SRSoftware version number:	ORYX F/W v4,00 Oryx Data Collector v3.7.2.0data status	okinstallation	B6 Nyhavnadifferential loss correction	single-endedforward channel	channel 2reverse channel	N/Adate	2023/12/08time	14:35:08forward acquisition time	300,00reverse acquisition time	0,00gamma	499,1914k internal	0,3159k external	0,3159temperature offset calibration	1,0000default loss term (dB/km)	0,3820temperature slope calibration	1,0000multiplexer offset coefficient	1,0000multiplexer slope coefficient	1,0000fibre end	0,00T internal ref (°C)	15,06T ext. ref 1 (°C)	-1,53T ext. ref 2 (°C)	-1,53length (m)	temperature (°C)	Stokes	anti-Stokes-744,400	-166,463	0,180	-0,005
-743,385	5,603	-0,148	-0,081
-742,371	800,000	-0,033	0,089
-741,356	53,230	-0,143	0,101
-740,342	-91,486	0,154	0,032
-739,327	-144,757	-0,260	0,017
-738,312	-59,561	-0,129	-0,041
-737,298	-85,288	-0,242	0,055
-736,283	84,964	0,100	0,080
-735,269	-22,857	-0,202	0,089
-734,254	-200,000	0,035	-0,122
-733,239	0,208	-0,454	-0,238
-732,225	2,374	0,184	0,098
-731,210	-200,000	-0,000	0,029
-730,196	800,000	-0,053	-0,128
-729,181	122,384	-0,091	0,084
-728,167	-200,000	-0,039	-0,138
-727,152	156,075	-0,127	-0,129
-726,137	-190,255	-0,114	-0,001
-725,123	455,336	-0,024	-0,039
-724,108	800,000	-0,044	-0,125
-723,094	-200,000	0,030	-0,193
-722,079	-200,000	-0,058	-0,228
-721,064	-200,000	0,016	-0,137
-720,050	800,000	0,021	-0,057
-719,035	192,939	-0,038	0,042
-718,021	155,679	-0,108	-0,110
-717,006	83,608	-0,140	-0,112
-715,991	-200,000	0,015	-0,135
-714,977	-101,242	-0,084	-0,015
-713,962	127,846	-0,090	-0,084
-712,948	-200,000	0,021	0,078
-711,933	-72,644	-0,123	-0,033
-710,918	-43,445	-0,098	-0,036
-709,904	-200,000	0,013	-0,264
-708,889	187,875	-0,017	-0,019
-707,875	-200,000	0,012	0,066
-706,860	-102,912	-0,170	0,029
-705,845	-200,000	0,002	0,010
-704,831	-200,000	-0,020	0,076
-703,816	800,000	-0,062	0,151
-702,802	-106,649	-0,130	0,021
-701,787	-200,000	0,004	-0,146
-700,772	-200,000	0,003	-0,104
-699,758	636,331	-0,032	0,059
-698,743	800,000	-0,033	0,099
-697,729	531,890	-0,055	-0,096
-696,714	188,416	0,046	0,050
-695,699	154,828	0,039	0,039
-694,685	800,000	-0,055	-0,124
-693,670	-166,818	-0,056	-0,002
-692,656	11,704	0,043	0,024
-691,641	-200,000	0,034	-0,163
-690,627	-200,000	-0,019	-0,185
-689,612	94,099	0,099	0,083
-688,597	800,000	-0,050	0,145
-687,583	-80,965	-0,066	-0,016
-686,568	52,270	-0,138	0,097
-685,554	-54,537	0,051	0,017
-684,539	507,155	-0,016	-0,028
-683,524	28,597	0,045	0,028
-682,510	158,826	-0,133	-0,136
-681,495	-200,000	0,011	-0,102
-680,481	800,000	0,017	-0,051
-679,466	-18,791	0,038	-0,017
-678,451	119,042	-0,021	-0,019
-677,437	0,532	-0,044	-0,023
-676,422	-35,782	0,061	-0,024
-675,408	-200,000	0,004	-0,075
-674,393	-75,561	-0,088	-0,023
-673,378	-109,366	-0,060	0,009
-672,364	429,273	0,028	-0,044
-671,349	-200,000	-0,028	-0,159
-670,335	623,827	-0,026	-0,049
-669,320	-28,736	0,069	-0,029
-668,305	-200,000	-0,004	0,051
-667,291	-40,707	-0,072	0,027
-666,276	-145,222	-0,164	-0,011
-665,262	-200,000	0,006	-0,106
-664,247	-200,000	-0,016	-0,056
-663,232	-50,727	-0,160	-0,055
-662,218	145,749	0,117	-0,115
-661,203	-200,000	-0,073	0,000
-660,189	177,789	-0,083	0,089
-659,174	-59,004	-0,157	0,050
-658,159	-51,332	0,095	-0,032
-657,145	99,686	-0,188	-0,160
-656,130	-200,000	-0,024	-0,113
-655,116	-200,000	-0,012	0,130
-654,101	-200,000	-0,005	0,126
-653,086	-200,000	-0,030	-0,127
-652,072	-200,000	-0,018	-0,063
-651,057	67,590	0,044	-0,033
-650,043	800,000	0,040	-0,102
-649,028	54,577	-0,101	-0,071
-648,014	245,561	0,044	-0,054
-646,999	-122,941	0,077	0,009
-645,984	45,941	-0,087	0,059
-644,970	-177,528	-0,066	0,001
-643,955	362,099	-0,074	-0,109
-642,941	16,592	-0,060	0,035
-641,926	-200,000	0,014	-0,124
-640,911	-44,086	0,124	0,045
-639,897	458,768	-0,046	0,076
-638,882	417,312	0,042	-0,065
-637,868	-65,101	-0,161	-0,047
-636,853	-200,000	-0,003	0,083
-635,838	-69,534	0,061	-0,017
-634,824	-74,612	-0,041	0,011
-633,809	192,498	0,038	0,042
-632,795	13,108	0,164	-0,093
-631,780	3,834	-0,076	-0,041
-630,765	-1,780	-0,074	-0,038
-629,751	-200,000	0,014	-0,127
-628,736	-103,968	-0,083	0,014
-627,722	524,518	-0,010	0,018
-626,707	-60,817	0,165	-0,051
-625,692	495,868	0,022	-0,037
-624,678	458,415	-0,045	0,074
-623,663	-28,373	-0,004	-0,002
-622,649	-32,690	-0,148	-0,060
-621,634	46,080	-0,108	-0,073
-620,619	171,894	0,014	0,015
-619,605	800,000	-0,036	0,105
-618,590	-200,000	-0,023	-0,079
-617,576	800,000	0,006	0,019
-616,561	-127,855	0,062	0,006
-615,546	-24,732	-0,044	0,019
-614,532	-188,323	0,112	-0,001
-613,517	-200,000	0,010	-0,073
-612,503	-200,000	-0,019	0,157
-611,488	800,000	0,021	0,045
-610,474	19,062	0,099	-0,058
-609,459	153,060	-0,069	0,069
-608,444	100,405	-0,030	-0,025
-607,430	-200,000	-0,013	-0,105
-606,415	761,889	-0,033	-0,066
-605,401	43,646	0,121	-0,081
-604,386	-200,000	-0,011	-0,135
-603,371	-30,029	0,118	0,049
-602,357	667,818	-0,037	-0,070
-601,342	-1,235	-0,106	-0,055
-600,328	800,000	0,021	-0,067
-599,313	299,266	-0,087	-0,118
-598,298	800,000	0,016	-0,036
-597,284	243,988	-0,030	-0,037
-596,269	7,919	-0,090	-0,049
-595,255	-144,635	0,061	-0,004
-594,240	-200,000	-0,001	0,064
-593,225	84,145	-0,040	-0,032
-592,211	312,461	-0,031	-0,042
-591,196	40,252	0,112	-0,073
-590,182	-200,000	0,047	0,191
-589,167	800,000	0,016	0,041
-588,152	800,000	-0,018	0,042
-587,138	-200,000	0,005	-0,040
-586,123	174,844	-0,106	-0,112
-585,109	800,000	-0,024	-0,078
-584,094	-16,389	0,026	-0,012
-583,079	-61,907	0,075	-0,023
-582,065	-200,000	-0,003	0,092
-581,050	43,291	-0,029	0,019
-580,036	7,658	0,101	0,055
-579,021	256,081	-0,068	0,086
-578,006	-200,000	0,006	0,073
-576,992	-38,396	-0,070	0,027
-575,977	63,483	-0,068	-0,050
-574,963	18,542	0,102	-0,060
-573,948	229,113	0,046	0,055
-572,934	800,000	-0,007	-0,015
-571,919	-58,788	-0,085	-0,027
-570,904	5,630	-0,083	0,045
-569,890	-90,727	0,094	-0,020
-568,875	142,377	-0,081	0,078
-567,861	483,023	0,048	0,081
-566,846	29,414	-0,021	0,013
-565,831	-200,000	-0,005	-0,038
-564,817	-136,686	-0,089	0,007
-563,802	9,345	0,058	0,032
-562,788	-42,717	-0,086	-0,032
-561,773	-200,000	-0,001	-0,036
-560,758	-200,000	0,013	0,054
-559,744	-200,000	-0,027	0,100
-558,729	112,750	0,115	0,102
-557,715	-116,230	-0,057	-0,008
-556,700	-200,000	-0,021	-0,089
-555,685	800,000	-0,026	-0,055
-554,671	330,576	-0,062	-0,088
-553,656	-100,676	0,147	0,026
-552,642	74,047	0,128	0,098
-551,627	-200,000	0,012	0,123
-550,612	-105,461	-0,021	-0,003
-549,598	59,404	0,035	-0,025
-548,583	-90,266	-0,166	-0,035
-547,569	-200,000	-0,019	0,092
-546,554	800,000	0,018	-0,039
-545,539	-54,689	-0,010	0,003
-544,525	800,000	-0,025	-0,071
-543,510	219,026	-0,034	0,040
-542,496	161,296	0,060	-0,061
-541,481	267,817	-0,033	-0,042
-540,466	-200,000	0,009	0,045
-539,452	7,318	-0,163	0,089
-538,437	-100,393	-0,081	-0,015
-537,423	331,284	0,040	-0,057
-536,408	-113,532	-0,109	0,015
-535,393	90,074	-0,107	-0,087
-534,379	-133,302	0,047	0,004
-533,364	-92,197	0,124	0,025
-532,350	8,127	-0,104	-0,057
-531,335	138,502	0,147	0,141
-530,321	-119,978	0,181	0,022
-529,306	330,055	-0,065	0,092
-528,291	-200,000	0,025	-0,146
-527,277	12,578	-0,070	-0,040
-526,262	-148,581	0,087	-0,005
-525,248	-81,498	-0,118	-0,028
-524,233	618,767	0,069	0,128
-523,218	-200,000	0,006	-0,059
-522,204	572,626	0,042	0,075
-521,189	120,758	-0,153	-0,139
-520,175	57,793	0,042	-0,030
-519,160	196,829	-0,037	-0,042
-518,145	52,933	-0,070	0,049
-517,131	-118,535	0,127	-0,016
-516,116	337,130	-0,134	-0,191
-515,102	800,000	0,017	-0,054
-514,087	800,000	-0,025	-0,054
-513,072	-152,608	0,094	0,005
-512,058	-33,726	0,110	-0,044
-511,043	174,963	0,069	0,073
-510,029	-200,000	0,007	0,117
-509,014	-140,580	-0,119	-0,009
-507,999	-75,251	-0,079	0,020
-506,985	-150,447	0,059	-0,003
-505,970	-200,000	-0,041	-0,150
-504,956	96,332	-0,048	0,040
-503,941	-200,000	0,039	0,132
-502,926	-114,429	0,098	0,014
-501,912	-200,000	0,021	0,146
-500,897	-200,000	-0,001	-0,033
-499,883	-200,000	-0,005	-0,024
-498,868	123,972	-0,073	-0,067
-497,853	-111,676	-0,087	0,013
-496,839	95,330	0,101	0,084
-495,824	-136,006	0,089	0,008
-494,810	594,330	0,074	0,135
-493,795	24,182	0,142	0,085
-492,781	-120,584	-0,082	-0,010
-491,766	204,879	-0,025	0,028
-490,751	800,000	0,060	-0,183
-489,737	305,904	0,076	-0,103
-488,722	-200,000	0,026	0,100
-487,708	-102,655	-0,106	0,018
-486,693	-52,389	0,084	0,028
-485,678	302,852	-0,052	0,071
-484,664	-200,000	0,008	-0,197
-483,649	800,000	-0,054	-0,122
-482,635	-67,908	0,106	0,030
-481,620	-74,989	0,082	-0,021
-480,605	800,000	-0,026	0,058
-479,591	800,000	-0,026	0,071
-478,576	-200,000	-0,007	0,084
-477,562	-57,759	-0,060	-0,019
-476,547	-81,293	-0,044	-0,010
-475,532	74,294	0,064	-0,049
-474,518	-200,000	0,005	0,031
-473,503	-185,599	-0,075	0,001
-472,489	-200,000	0,012	0,128
-471,474	800,000	-0,030	0,078
-470,459	-87,368	-0,012	-0,003
-469,445	-200,000	-0,001	-0,120
-468,430	102,590	0,061	-0,052
-467,416	-53,054	0,034	-0,011
-466,401	-104,491	0,070	0,012
-465,386	-156,581	-0,137	0,006
-464,372	-200,000	0,023	-0,106
-463,357	-200,000	0,003	0,061
-462,343	-35,479	-0,091	-0,036
-461,328	-200,000	0,034	-0,123
-460,313	-200,000	0,011	-0,057
-459,299	394,568	0,046	0,070
-458,284	800,000	-0,024	0,052
-457,270	800,000	0,040	0,120
-456,255	-200,000	-0,008	-0,025
-455,241	491,084	0,036	0,060
-454,226	143,760	-0,048	0,047
-453,211	-74,441	0,100	0,026
-452,197	581,013	0,036	-0,064
-451,182	-200,000	-0,001	0,056
-450,168	165,319	-0,114	-0,117
-449,153	443,380	0,056	0,090
-448,138	-142,181	-0,107	-0,008
-447,124	800,000	-0,026	0,066
-446,109	800,000	0,029	-0,086
-445,095	167,050	0,140	0,145
-444,080	-200,000	-0,002	-0,037
-443,065	800,000	0,034	0,107
-442,051	79,725	0,031	0,024
-441,036	-174,169	-0,023	0,000
-440,022	427,385	-0,014	0,022
-439,007	59,611	-0,033	-0,024
-437,992	-200,000	0,029	0,125
-436,978	-13,905	0,099	0,047
-435,963	558,486	-0,046	0,081
-434,949	-200,000	-0,002	0,100
-433,934	298,105	0,039	0,052
-432,919	-33,843	-0,114	-0,046
-431,905	126,652	-0,034	-0,031
-430,890	-200,000	-0,047	-0,153
-429,876	5,594	0,089	0,048
-428,861	-200,000	-0,003	-0,039
-427,846	68,978	-0,069	0,052
-426,832	-82,479	-0,110	-0,026
-425,817	-200,000	0,003	-0,057
-424,803	-106,002	-0,114	-0,018
-423,788	-141,106	-0,065	-0,005
-422,773	149,392	0,055	0,054
-421,759	-118,621	0,052	-0,007
-420,744	221,724	-0,023	0,027
-419,730	-11,628	0,039	-0,018
-418,715	-200,000	-0,022	0,211
-417,701	591,175	-0,094	-0,169
-416,686	-104,159	-0,057	-0,010
-415,671	-157,674	-0,035	0,001
-414,657	-62,458	-0,105	-0,032
-413,642	125,834	-0,054	0,050
-412,628	462,445	0,003	0,006
-411,613	421,316	-0,064	-0,100
-410,598	503,207	-0,077	-0,130
-409,584	24,720	0,062	-0,037
-408,569	146,527	0,058	0,057
-407,555	-26,273	0,053	0,022
-406,540	-50,829	-0,087	-0,029
-405,525	214,819	-0,092	-0,106
-404,511	-200,000	0,016	-0,158
-403,496	513,889	-0,049	-0,083
-402,482	-200,000	-0,031	0,106
-401,467	-146,025	0,119	0,008
-400,452	444,441	0,105	0,168
-399,438	-200,000	-0,006	0,048
-398,423	-200,000	-0,012	-0,076
-397,409	32,703	0,030	0,019
-396,394	-200,000	-0,002	0,068
-395,379	217,933	-0,086	0,100
-394,365	-200,000	0,007	0,105
-393,350	-175,815	0,072	0,001
-392,336	116,495	-0,097	0,087
-391,321	664,936	-0,021	-0,040
-390,306	-16,541	-0,061	0,028
-389,292	151,367	-0,063	0,062
-388,277	-142,806	-0,112	-0,008
-387,263	531,590	0,050	0,086
-386,248	800,000	0,025	0,055
-385,233	-200,000	-0,013	-0,070
-384,219	35,033	-0,046	0,029
-383,204	208,391	-0,086	-0,098
-382,190	-175,048	-0,019	-0,000
-381,175	-200,000	0,011	0,081
-380,160	-138,287	-0,040	-0,003
-379,146	800,000	-0,019	0,058
-378,131	-50,385	0,174	-0,059
-377,117	-200,000	-0,015	-0,122
-376,102	-200,000	-0,009	-0,131
-375,088	205,825	-0,087	-0,099
-374,073	-41,114	-0,044	-0,016
-373,058	-160,132	0,074	0,003
-372,044	-106,185	0,153	-0,025
-371,029	-29,297	0,062	0,026
-370,015	-200,000	-0,036	-0,126
-369,000	279,139	-0,061	-0,079
-367,985	65,976	-0,093	-0,069
-366,971	53,835	0,088	0,061
-365,956	-88,285	0,078	0,017
-364,942	-9,295	0,049	-0,023
-363,927	7,805	-0,091	0,050
-362,912	189,746	0,038	-0,041
-361,898	-43,753	-0,062	-0,022
-360,883	619,993	0,051	-0,093
-359,869	53,841	-0,119	-0,083
-358,854	2,868	0,199	-0,104
-357,839	800,000	0,016	0,044
-356,825	-40,946	0,018	-0,007
-355,810	67,885	0,107	0,079
-354,796	-31,306	-0,168	-0,068
-353,781	-15,206	0,041	-0,019
-352,766	194,361	-0,013	0,014
-351,752	-11,157	0,094	-0,045
-350,737	590,570	0,013	0,023
-349,723	800,000	0,044	0,091
-348,708	369,776	0,091	-0,134
-347,693	448,402	0,019	-0,031
-346,679	800,000	-0,030	0,084
-345,664	403,879	0,030	0,046
-344,650	133,055	-0,038	-0,036
-343,635	-57,913	-0,134	-0,042
-342,620	-200,000	0,016	0,084
-341,606	-200,000	0,003	-0,059
-340,591	-200,000	-0,030	-0,104
-339,577	230,091	-0,072	-0,085
-338,562	-200,000	0,014	-0,089
-337,548	-170,424	0,098	-0,002
-336,533	789,803	-0,038	0,076
-335,518	-200,000	0,009	0,065
-334,504	301,078	-0,037	0,049
-333,489	800,000	-0,010	0,032
-332,475	208,868	0,053	-0,060
-331,460	-174,199	-0,097	-0,002
-330,445	800,000	0,042	0,109
-329,431	151,315	0,036	0,035
-328,416	-200,000	-0,012	0,076
-327,402	-32,020	0,119	0,048
-326,387	800,000	0,039	-0,092
-325,372	286,160	-0,036	0,047
-324,358	426,274	-0,014	0,021
-323,343	-200,000	0,032	0,139
-322,329	-174,563	-0,071	-0,001
-321,314	-32,021	0,054	0,022
-320,299	5,260	-0,026	0,014
-319,285	-36,537	-0,111	-0,043
-318,270	-200,000	0,039	-0,136
-317,256	-200,000	-0,007	-0,104
-316,241	-200,000	0,015	-0,121
-315,226	79,592	0,051	0,040
-314,212	800,000	0,075	0,165
-313,197	39,213	0,110	0,071
-312,183	182,628	0,079	0,084
-311,168	351,635	-0,029	0,042
-310,153	-200,000	0,026	-0,118
-309,139	99,402	-0,054	-0,045
-308,124	67,927	0,055	0,041
-307,110	506,183	0,025	-0,043
-306,095	180,192	0,025	-0,027
-305,080	12,003	0,058	0,032
-304,066	-17,048	-0,047	-0,021
-303,051	-161,347	0,089	-0,003
-302,037	110,015	-0,146	-0,127
-301,022	216,686	0,104	-0,120
-300,008	338,972	0,107	0,151
-298,993	800,000	-0,005	0,013
-297,978	254,082	-0,096	0,119
-296,964	153,525	-0,041	-0,041
-295,949	-200,000	-0,001	-0,072
-294,935	16,238	0,094	0,054
-293,920	-200,000	-0,001	-0,025
-292,905	-37,100	-0,055	-0,021
-291,891	-144,890	0,120	-0,008
-290,876	-200,000	0,011	-0,052
-289,862	-200,000	0,018	-0,135
-288,847	22,090	-0,096	-0,057
-287,832	-124,678	-0,134	-0,015
-286,818	217,530	0,046	0,053
-285,803	389,008	0,056	-0,085
-284,789	800,000	0,035	0,077
-283,774	-150,261	0,088	0,005
-282,759	-14,422	-0,052	-0,024
-281,745	169,546	0,093	-0,096
-280,730	-200,000	-0,014	0,086
-279,716	-9,239	-0,063	0,030
-278,701	-162,726	0,172	0,006
-277,686	-200,000	0,032	0,141
-276,672	5,254	-0,120	-0,064
-275,657	-88,941	-0,125	0,027
-274,643	146,594	-0,070	-0,069
-273,628	-43,541	-0,037	-0,013
-272,613	-170,428	-0,116	0,003
-271,599	70,477	-0,064	0,048
-270,584	58,034	0,149	0,106
-269,570	-200,000	0,002	0,200
-268,555	291,872	-0,049	-0,065
-267,540	-200,000	-0,002	0,043
-266,526	-94,756	-0,091	-0,018
-265,511	800,000	0,026	-0,053
-264,497	536,046	0,044	-0,075
-263,482	-200,000	-0,041	0,163
-262,467	-200,000	0,015	-0,115
-261,453	-200,000	-0,003	-0,027
-260,438	49,645	-0,042	-0,029
-259,424	-40,260	0,083	0,031
-258,409	54,080	-0,135	0,093
-257,395	-200,000	0,000	0,044
-256,380	-9,496	0,225	-0,108
-255,365	226,646	-0,053	-0,062
-254,351	-87,611	-0,147	-0,032
-253,336	-157,970	-0,120	0,005
-252,322	-78,458	0,100	-0,024
-251,307	-200,000	0,010	-0,062
-250,292	-200,000	0,004	0,031
-249,278	76,233	0,041	0,031
-248,263	-65,509	0,097	0,028
-247,249	-200,000	-0,006	-0,090
-246,234	-79,175	0,051	0,012
-245,219	-193,487	0,101	0,001
-244,205	-53,483	-0,063	-0,021
-243,190	-28,028	-0,150	-0,063
-242,176	-15,757	0,069	0,032
-241,161	34,438	0,020	0,013
-240,146	-115,539	0,058	0,008
-239,132	-200,000	-0,005	0,151
-238,117	294,024	-0,080	-0,106
-237,103	800,000	-0,057	0,127
-236,088	-96,824	0,143	0,027
-235,073	290,181	0,108	-0,142
-234,059	84,049	-0,060	-0,047
-233,044	-200,000	-0,004	0,054
-232,030	-115,204	0,138	0,019
-231,015	1,270	-0,170	-0,088
-230,000	800,000	-0,035	-0,092
-228,986	9,126	-0,077	-0,042
-227,971	-200,000	0,024	0,093
-226,957	142,574	0,120	0,115
-225,942	421,669	-0,041	0,063
-224,927	43,290	-0,069	-0,046
-223,913	-200,000	0,009	-0,077
-222,898	110,606	-0,061	-0,053
-221,884	-200,000	-0,034	-0,121
-220,869	-200,000	0,023	0,142
-219,855	334,566	0,100	-0,140
-218,840	162,846	0,106	0,107
-217,825	-200,000	-0,003	0,061
-216,811	144,830	0,025	0,024
-215,796	-92,084	-0,121	0,025
-214,782	85,716	-0,060	0,047
-213,767	560,841	-0,023	0,040
-212,752	800,000	-0,030	-0,081
-211,738	-14,809	0,050	-0,023
-210,723	-5,045	-0,056	0,028
-209,709	30,149	0,052	-0,032
-208,694	-51,369	-0,088	-0,030
-207,679	278,535	0,085	0,110
-206,665	800,000	-0,019	-0,051
-205,650	49,141	0,008	0,005
-204,636	-200,000	-0,026	0,134
-203,621	720,620	0,041	0,080
-202,606	-200,000	-0,008	-0,111
-201,592	-67,565	-0,036	0,010
-200,577	-105,522	-0,173	-0,028
-199,563	200,223	0,035	0,039
-198,548	9,101	0,174	0,095
-197,533	85,541	0,051	-0,040
-196,519	673,615	0,032	-0,060
-195,504	-4,885	0,077	-0,038
-194,490	-136,195	0,077	0,006
-193,475	-125,750	0,113	0,012
-192,460	800,000	0,045	0,107
-191,446	-120,431	-0,037	-0,004
-190,431	21,072	-0,065	0,038
-189,417	800,000	-0,037	0,093
-188,402	-200,000	0,001	0,130
-187,387	-150,516	-0,096	-0,005
-186,373	204,729	0,059	0,066
-185,358	-200,000	0,036	0,186
-184,344	647,083	0,019	0,035
-183,329	-200,000	-0,006	0,106
-182,315	800,000	0,036	-0,103
-181,300	-200,000	-0,028	-0,098
-180,285	144,275	-0,018	-0,017
-179,271	800,000	0,032	-0,078
-178,256	-200,000	0,011	0,112
-177,242	800,000	0,025	-0,063
-176,227	-3,736	0,047	-0,024
-175,212	104,195	0,154	0,130
-174,198	-200,000	0,005	0,032
-173,183	100,228	-0,099	-0,082
-172,169	-88,661	-0,067	0,014
-171,154	-64,275	-0,108	0,031
-170,139	-92,792	-0,102	-0,020
-169,125	-41,630	0,135	0,050
-168,110	284,976	-0,034	-0,044
-167,096	533,723	-0,044	0,076
-166,081	800,000	0,032	-0,102
-165,066	64,413	0,011	-0,008
-164,052	-31,374	-0,096	-0,039
-163,037	153,704	0,133	0,131
-162,023	-84,827	0,120	0,027
-161,008	91,830	0,089	0,072
-159,993	800,000	0,059	0,135
-158,979	758,289	-0,060	-0,118
-157,964	179,406	0,095	-0,100
-156,950	296,060	-0,031	-0,042
-155,935	98,001	-0,030	0,025
-154,920	510,306	0,048	0,080
-153,906	-200,000	0,023	0,110
-152,891	-200,000	-0,005	-0,109
-151,877	800,000	-0,027	-0,071
-150,862	564,446	-0,065	-0,113
-149,847	-102,949	0,011	0,002
-148,833	800,000	-0,019	0,040
-147,818	313,772	0,023	0,032
-146,804	-200,000	-0,007	-0,043
-145,789	-200,000	-0,006	0,143
-144,775	-200,000	0,004	-0,024
-143,760	-200,000	-0,021	-0,136
-142,745	800,000	-0,034	0,069
-141,731	-200,000	0,016	0,142
-140,716	46,562	0,044	-0,029
-139,702	360,228	0,059	0,085
-138,687	382,684	-0,039	-0,057
-137,672	317,111	0,079	0,107
-136,658	270,003	-0,050	0,063
-135,643	7,738	-0,088	-0,048
-134,629	-47,614	0,174	0,061
-133,614	-200,000	0,007	0,058
-132,599	613,187	0,027	0,049
-131,585	-59,490	-0,113	0,035
-130,570	193,693	-0,019	0,021
-129,556	-200,000	0,004	-0,017
-128,541	371,676	-0,022	-0,032
-127,526	-145,243	0,118	-0,008
-126,512	-39,609	-0,075	0,028
-125,497	-200,000	0,022	0,202
-124,483	315,666	0,145	0,197
-123,468	-200,000	-0,004	0,034
-122,453	800,000	-0,026	0,071
-121,439	103,411	-0,069	0,058
-120,424	-200,000	0,002	0,022
-119,410	-200,000	-0,020	0,087
-118,395	-142,835	0,114	0,008
-117,380	-112,257	-0,100	-0,014
-116,366	800,000	-0,050	-0,131
-115,351	800,000	-0,007	-0,017
-114,337	-48,479	0,100	0,034
-113,322	800,000	0,062	0,143
-112,307	-27,307	-0,088	0,037
-111,293	800,000	0,038	0,092
-110,278	-55,032	0,050	0,016
-109,264	-63,367	-0,121	0,035
-108,249	81,160	-0,013	-0,010
-107,234	117,054	0,139	0,123
-106,220	-47,985	-0,140	-0,048
-105,205	-200,000	0,023	-0,074
-104,191	-48,528	0,096	0,033
-103,176	387,611	-0,058	0,087
-102,162	800,000	0,023	-0,055
-101,147	-128,245	-0,119	-0,012
-100,132	-200,000	0,027	-0,095
-99,118	-47,937	0,065	0,023
-98,103	54,422	-0,130	0,090
-97,089	-97,812	0,156	0,029
-96,074	165,641	0,089	0,090
-95,059	-79,127	-0,066	-0,016
-94,045	349,569	0,041	-0,058
-93,030	-47,033	-0,195	-0,068
-92,016	-19,133	0,076	0,034
-91,001	126,504	0,067	0,061
-89,986	152,255	-0,073	0,072
-88,972	-86,058	0,175	0,038
-87,957	684,749	0,021	0,040
-86,943	84,140	-0,118	-0,093
-85,928	800,000	-0,077	-0,177
-84,913	-42,109	-0,063	0,023
-83,899	115,060	-0,041	0,036
-82,884	18,932	-0,146	-0,084
-81,870	-105,885	-0,055	0,009
-80,855	800,000	-0,042	0,113
-79,840	338,134	-0,081	0,113
-78,826	800,000	0,039	-0,083
-77,811	800,000	0,011	-0,024
-76,797	67,058	-0,127	-0,093
-75,782	800,000	0,043	-0,117
-74,767	318,786	0,022	0,030
-73,753	-200,000	-0,021	0,137
-72,738	412,972	0,036	0,055
-71,724	-72,652	-0,161	0,042
-70,709	-200,000	-0,028	-0,163
-69,694	-200,000	0,005	-0,064
-68,680	39,382	-0,029	-0,018
-67,665	285,600	0,062	-0,081
-66,651	-36,821	0,092	-0,035
-65,636	-200,000	0,007	-0,120
-64,622	-3,773	0,063	-0,031
-63,607	78,008	-0,145	-0,111
-62,592	65,728	0,037	-0,027
-61,578	547,238	0,066	0,113
-60,563	119,211	-0,052	0,046
-59,549	-44,565	-0,106	0,038
-58,534	4,244	-2,075	-1,087
-57,519	-200,000	-0,105	-0,507
-56,505	-200,000	-1,367	-5,029
-55,490	113,583	0,911	0,794
-54,476	800,000	5,153	11,674
-53,461	-200,000	17,923	289,630
-52,446	800,000	728,036	2223,626
-51,432	532,071	1641,122	2795,905
-50,417	108,674	1630,177	1396,518
-49,403	72,602	1283,344	959,181
-48,388	31,164	1025,988	629,943
-47,373	19,886	988,079	569,526
-46,359	18,183	975,949	556,938
-45,344	15,406	972,163	545,685
-44,330	15,631	970,685	545,569
-43,315	15,151	968,797	542,919
-42,300	15,064	967,823	542,070
-41,286	15,088	966,612	541,448
-40,271	15,049	965,752	540,818
-39,257	15,088	964,858	540,423
-38,242	15,111	963,947	539,965
-37,227	15,092	963,341	539,544
-36,213	15,093	962,375	538,985
-35,198	15,024	961,646	538,330
-34,184	15,182	960,716	538,300
-33,169	15,046	959,753	537,300
-32,154	15,123	959,008	537,110
-31,140	15,134	957,902	536,503
-30,125	15,154	957,240	536,176
-29,111	15,130	956,404	535,609
-28,096	15,086	955,950	535,194
-27,082	15,096	955,208	534,788
-26,067	15,090	954,303	534,240
-25,052	15,099	953,584	533,845
-24,038	15,104	952,791	533,397
-23,023	15,111	952,193	533,064
-22,009	15,127	951,560	532,740
-20,994	15,069	951,094	532,271
-19,979	15,106	950,277	531,913
-18,965	15,066	949,884	531,542
-17,950	15,074	949,135	531,128
-16,936	15,036	948,513	530,638
-15,921	15,065	947,693	530,250
-14,906	15,008	947,053	529,691
-13,892	14,963	946,428	529,176
-12,877	15,008	945,814	528,954
-11,863	14,940	945,173	528,360
-10,848	14,930	944,736	528,062
-9,833	15,086	944,184	528,227
-8,819	15,007	943,684	527,678
-7,804	15,031	943,021	527,362
-6,790	14,984	942,457	526,877
-5,775	15,004	941,919	526,616
-4,760	15,005	941,314	526,260
-3,746	14,930	940,669	525,642
-2,731	14,897	939,846	525,058
-1,717	14,766	939,322	524,332
-0,702	14,845	938,432	524,061
0,313	14,592	938,080	523,859
1,327	18,202	935,796	533,890
2,342	27,555	789,325	474,933
3,356	23,940	444,431	262,041
4,371	-5,603	295,454	144,690
5,386	-9,591	277,086	131,906
6,400	-11,045	271,420	127,846
7,415	-11,116	269,058	126,658
8,429	-11,191	267,748	125,960
9,444	-11,239	266,775	125,448
10,459	-11,289	266,238	125,138
11,473	-11,351	265,625	124,783
12,488	-11,239	265,150	124,650
13,502	-11,582	264,522	124,033
14,517	-11,542	264,110	123,865
15,531	-11,377	263,721	123,820
16,546	-11,229	263,364	123,775
17,561	-11,269	263,082	123,596
18,575	-11,240	262,762	123,460
19,590	-11,343	262,373	123,175
20,604	-11,195	261,980	123,111
21,619	-11,244	261,621	122,888
22,634	-11,287	261,390	122,730
23,648	-11,289	261,086	122,575
24,663	-11,490	260,765	122,234
25,677	-11,379	260,424	122,162
26,692	-11,392	260,281	122,072
27,707	-11,532	259,889	121,753
28,721	-11,670	259,778	121,568
29,736	-11,456	259,419	121,579
30,750	-11,511	259,113	121,376
31,765	-11,415	258,913	121,357
32,780	-11,421	258,779	121,277
33,794	-11,342	258,542	121,225
34,809	-11,620	258,259	120,837
35,823	-11,583	257,992	120,734
36,838	-11,517	257,657	120,624
37,853	-11,454	257,545	120,616
38,867	-11,616	257,301	120,349
39,882	-11,559	257,144	120,314
40,896	-11,561	256,831	120,155
41,911	-11,560	256,523	120,002
42,926	-11,473	256,366	119,994
43,940	-11,519	256,001	119,772
44,955	-11,600	255,812	119,603
45,969	-11,664	255,550	119,414
46,984	-11,726	255,253	119,210
47,999	-12,142	255,120	118,775
49,013	-12,106	254,816	118,654
50,028	-12,291	254,506	118,339
51,042	-12,418	254,383	118,161
52,057	-12,343	254,004	118,040
53,071	-12,316	253,851	117,981
54,086	-12,181	253,715	118,024
55,101	-12,350	253,696	117,859
56,115	-11,816	253,406	118,175
57,130	-11,468	253,489	118,504
58,144	-11,227	253,185	118,559
59,159	-11,029	252,899	118,584
60,174	-11,202	252,676	118,321
61,188	-11,642	252,695	117,941
62,203	-11,241	252,327	118,103
63,217	-11,352	252,027	117,856
64,232	-11,233	251,800	117,842
65,247	-11,486	251,694	117,565
66,261	-11,414	251,343	117,452
67,276	-11,613	251,105	117,160
68,290	-11,777	250,955	116,939
69,305	-11,826	250,631	116,736
70,320	-12,016	250,526	116,515
71,334	-11,638	250,399	116,768
72,349	-11,459	250,309	116,868
73,363	-11,258	250,118	116,939
74,378	-11,327	249,833	116,737
75,393	-11,491	249,621	116,488
76,407	-11,441	249,429	116,430
77,422	-11,553	249,204	116,220
78,436	-11,358	249,123	116,338
79,451	-11,394	248,705	116,102
80,466	-11,380	248,430	115,975
81,480	-11,444	248,158	115,783
82,495	-11,847	248,066	115,390
83,509	-11,654	247,941	115,484
84,524	-11,690	247,674	115,320
85,539	-11,790	247,426	115,109
86,553	-11,854	247,337	115,004
87,568	-11,612	246,961	115,022
88,582	-11,814	246,790	114,763
89,597	-11,655	246,651	114,821
90,611	-11,396	246,540	114,976
91,626	-11,493	246,351	114,797
92,641	-11,442	246,265	114,788
93,655	-11,648	246,112	114,535
94,670	-11,714	245,742	114,298
95,684	-11,611	245,652	114,331
96,699	-11,564	245,349	114,219
97,714	-11,718	245,302	114,059
98,728	-11,899	245,117	113,813
99,743	-11,897	244,747	113,632
100,757	-11,875	244,545	113,547
101,772	-11,679	244,365	113,615
102,787	-11,616	244,158	113,561
103,801	-11,613	243,966	113,464
104,816	-11,605	244,019	113,485
105,830	-11,588	243,837	113,404
106,845	-11,547	243,745	113,385
107,860	-11,404	243,511	113,385
108,874	-11,690	243,193	112,991
109,889	-11,533	242,972	113,008
110,903	-11,491	242,690	112,901
111,918	-11,769	242,472	112,561
112,933	-11,685	242,575	112,668
113,947	-11,567	242,273	112,614
114,962	-11,719	242,159	112,426
115,976	-11,587	241,960	112,432
116,991	-11,522	241,812	112,406
118,006	-11,630	241,593	112,206
119,020	-11,593	241,523	112,194
120,035	-11,419	241,453	112,294
121,049	-11,344	241,144	112,202
122,064	-11,265	240,929	112,156
123,079	-11,595	240,726	111,782
124,093	-11,591	240,501	111,671
125,108	-11,811	240,247	111,364
126,122	-11,905	240,050	111,187
127,137	-12,086	239,906	110,963
128,151	-11,955	239,660	110,945
129,166	-11,750	239,566	111,058
130,181	-11,972	239,379	110,782
131,195	-11,793	239,146	110,809
132,210	-11,653	238,855	110,778
133,224	-11,791	238,907	110,680
134,239	-11,695	238,675	110,640
135,254	-11,535	238,636	110,742
136,268	-11,610	238,178	110,459
137,283	-12,021	238,031	110,049
138,297	-12,012	237,875	109,975
139,312	-12,092	237,578	109,764
140,327	-11,724	237,525	110,025
141,341	-11,289	237,638	110,417
142,356	-11,094	237,379	110,443
143,370	-11,143	237,171	110,298
144,385	-10,965	236,980	110,342
145,400	-11,107	236,895	110,178
146,414	-11,309	236,655	109,895
147,429	-11,227	236,492	109,875
148,443	-11,297	236,268	109,706
149,458	-11,367	236,211	109,613
150,473	-11,273	236,064	109,611
151,487	-11,389	235,771	109,372
152,502	-11,135	235,627	109,498
153,516	-11,053	235,533	109,510
154,531	-11,304	235,352	109,216
155,546	-11,278	235,292	109,199
156,560	-11,334	234,919	108,972
157,575	-11,304	234,665	108,868
158,589	-11,290	234,497	108,791
159,604	-11,279	234,548	108,815
160,619	-11,173	234,450	108,843
161,633	-11,105	234,114	108,731
162,648	-11,114	234,047	108,683
163,662	-11,392	234,000	108,432
164,677	-11,273	233,585	108,324
165,692	-11,238	233,469	108,288
166,706	-11,319	233,558	108,256
167,721	-11,115	233,242	108,260
168,735	-10,838	233,143	108,423
169,750	-11,269	233,056	108,034
170,764	-11,263	232,879	107,947
171,779	-11,033	232,455	107,921
172,794	-11,047	232,651	107,991
173,808	-11,298	232,176	107,565
174,823	-11,850	232,005	107,044
175,837	-11,892	231,786	106,901
176,852	-11,302	231,725	107,324
177,867	-11,269	231,586	107,276
178,881	-11,228	231,538	107,276
179,896	-10,897	231,334	107,430
180,910	-11,173	231,252	107,167
181,925	-10,992	231,145	107,249
182,940	-11,065	230,865	107,052
183,954	-11,115	230,615	106,888
184,969	-10,902	230,721	107,094
185,983	-10,697	230,382	107,085
186,998	-10,779	230,222	106,938
188,013	-11,031	230,069	106,662
189,027	-10,900	229,981	106,714
190,042	-10,968	229,731	106,536
191,056	-10,797	229,466	106,535
192,071	-10,906	229,613	106,509
193,086	-11,132	229,283	106,173
194,100	-10,886	229,108	106,272
195,115	-11,102	228,827	105,965
196,129	-11,414	228,918	105,758
197,144	-5,923	230,433	110,702
198,159	-0,364	232,239	115,889
199,173	2,775	233,094	118,752
200,188	3,269	232,983	119,070
201,202	3,236	232,816	118,948
202,217	3,315	232,870	119,026
203,232	3,610	232,843	119,231
204,246	3,459	232,684	119,022
205,261	3,681	232,392	119,034
206,275	3,890	232,303	119,139
207,290	3,825	232,273	119,063
208,304	3,829	232,086	118,960
209,319	3,812	231,806	118,793
210,334	3,730	231,672	118,650
211,348	3,699	231,353	118,452
212,363	3,171	231,178	117,945
213,377	2,662	231,077	117,491
214,392	3,116	230,858	117,718
215,407	3,005	230,761	117,573
216,421	3,251	230,561	117,649
217,436	3,298	230,230	117,506
218,450	2,795	230,152	117,070
219,465	2,805	230,005	116,993
220,480	2,893	229,916	117,004
221,494	2,921	229,799	116,956
222,509	3,172	229,655	117,064
223,523	2,999	229,528	116,857
224,538	2,913	229,319	116,674
225,553	2,986	229,133	116,625
226,567	3,315	229,017	116,806
227,582	3,022	229,095	116,612
228,596	3,254	228,962	116,711
229,611	3,266	228,573	116,511
230,626	2,864	228,243	116,028
231,640	2,805	228,261	115,981
232,655	3,089	228,147	116,128
233,669	3,464	228,123	116,391
234,684	3,621	228,091	116,483
235,699	3,277	227,847	116,087
236,713	3,097	227,569	115,799
237,728	3,179	227,378	115,753
238,742	2,990	227,182	115,501
239,757	3,020	227,017	115,429
240,772	3,031	226,951	115,394
241,786	3,189	226,798	115,424
242,801	3,185	226,710	115,367
243,815	3,358	226,690	115,477
244,830	3,429	226,520	115,433
245,844	3,297	226,162	115,141
246,859	3,239	226,070	115,041
247,874	3,364	226,022	115,100
248,888	3,439	225,749	115,007
249,903	3,064	225,734	114,707
250,917	2,872	225,611	114,490
251,932	2,953	225,345	114,406
252,947	2,916	225,185	114,287
253,961	2,860	224,997	114,140
254,976	2,889	224,917	114,110
255,990	3,271	224,865	114,359
257,005	3,344	224,775	114,358
258,020	3,246	224,594	114,182
259,034	3,291	224,533	114,175
260,049	3,401	224,288	114,122
261,063	3,258	224,047	113,883
262,078	3,465	223,969	113,987
263,093	3,580	223,799	113,976
264,107	3,460	223,653	113,802
265,122	3,403	223,492	113,668
266,136	3,595	223,446	113,777
267,151	3,701	223,294	113,767
268,166	3,201	222,991	113,233
269,180	2,894	222,831	112,915
270,195	2,830	222,723	112,803
271,209	2,799	222,557	112,685
272,224	3,210	222,329	112,863
273,239	3,092	222,385	112,794
274,253	2,872	222,198	112,528
275,268	2,798	222,098	112,412
276,282	2,751	221,746	112,189
277,297	2,716	221,595	112,077
278,312	2,770	221,508	112,063
279,326	2,949	221,465	112,163
280,341	2,957	221,302	112,076
281,355	3,073	221,161	112,080
282,370	2,921	221,019	111,887
283,384	2,896	220,830	111,763
284,399	2,869	220,669	111,651
285,414	2,825	220,601	111,575
286,428	2,981	220,497	111,626
287,443	3,181	220,295	111,660
288,457	3,156	220,133	111,550
289,472	3,032	219,923	111,343
290,487	2,465	219,772	110,844
291,501	2,536	219,641	110,820
292,516	2,812	219,428	110,903
293,530	2,786	219,494	110,907
294,545	2,810	219,291	110,812
295,560	2,925	219,199	110,839
296,574	3,213	219,060	110,968
297,589	2,984	218,792	110,657
298,603	3,183	218,738	110,763
299,618	3,271	218,510	110,702
300,633	3,041	218,566	110,553
301,647	3,279	218,459	110,662
302,662	3,326	218,370	110,641
303,676	3,388	218,044	110,511
304,691	3,308	218,138	110,491
305,706	3,339	217,858	110,361
306,720	3,410	217,538	110,241
307,735	2,938	217,541	109,892
308,749	2,777	217,504	109,748
309,764	3,140	217,229	109,861
310,779	3,198	217,214	109,885
311,793	3,241	216,898	109,746
312,808	3,228	216,837	109,696
313,822	3,076	216,688	109,502
314,837	3,022	216,542	109,380
315,852	2,772	216,402	109,120
316,866	3,088	216,296	109,283
317,881	3,200	216,250	109,330
318,895	3,339	215,978	109,282
319,910	3,442	215,759	109,235
320,925	2,960	215,699	108,851
321,939	2,738	215,442	108,554
322,954	2,642	215,359	108,434
323,968	2,971	215,393	108,676
324,983	3,240	215,251	108,786
325,997	3,232	215,065	108,677
327,012	3,029	214,994	108,487
328,027	3,151	214,917	108,525
329,041	3,514	214,802	108,714
330,056	3,447	214,573	108,541
331,070	3,060	214,339	108,140
332,085	2,797	214,108	107,827
333,100	2,695	214,018	107,701
334,114	3,004	213,997	107,899
335,129	3,217	213,793	107,936
336,143	2,951	213,681	107,682
337,158	3,310	213,536	107,852
338,173	3,246	213,479	107,769
339,187	3,045	213,228	107,492
340,202	2,822	212,975	107,198
341,216	2,832	212,846	107,130
342,231	2,864	212,861	107,150
343,246	2,899	212,692	107,080
344,260	3,044	212,536	107,095
345,275	3,344	212,453	107,253
346,289	3,418	212,273	107,205
347,304	3,093	212,251	106,956
348,319	3,073	212,005	106,809
349,333	3,150	211,962	106,831
350,348	2,923	211,855	106,609
351,362	3,362	211,734	106,845
352,377	3,513	211,573	106,860
353,392	3,239	211,479	106,612
354,406	3,273	211,296	106,534
355,421	194,231	1339,957	1412,819
356,435	155,096	1477,436	1412,786
