DTS Sentinel unit serial number:	SN410029Multiplexer serial number:	ORYXHardware model number:	OX2-SRSoftware version number:	ORYX F/W v4,00 Oryx Data Collector v3.7.2.0data status	okinstallation	B6 Nyhavnadifferential loss correction	single-endedforward channel	channel 2reverse channel	N/Adate	2023/12/10time	19:20:08forward acquisition time	300,00reverse acquisition time	0,00gamma	499,1914k internal	0,3122k external	0,3122temperature offset calibration	1,0000default loss term (dB/km)	0,3820temperature slope calibration	1,0000multiplexer offset coefficient	1,0000multiplexer slope coefficient	1,0000fibre end	0,00T internal ref (°C)	22,32T ext. ref 1 (°C)	6,03T ext. ref 2 (°C)	6,03length (m)	temperature (°C)	Stokes	anti-Stokes-744,400	-84,912	0,090	0,021
-743,385	-101,215	-0,264	0,048
-742,371	68,536	0,054	-0,041
-741,356	800,000	-0,048	0,146
-740,342	598,373	-0,026	-0,048
-739,327	8,552	-0,252	0,141
-738,312	-200,000	0,018	-0,103
-737,298	-173,364	-0,321	-0,007
-736,283	524,401	-0,018	0,032
-735,269	-35,484	-0,094	0,038
-734,254	-128,084	0,110	-0,012
-733,239	-135,583	-0,434	0,038
-732,225	-200,000	0,003	-0,101
-731,210	17,717	-0,123	0,073
-730,196	79,527	0,062	-0,049
-729,181	-106,540	-0,204	-0,034
-728,167	-118,296	-0,109	0,014
-727,152	69,916	0,106	0,082
-726,137	-200,000	-0,034	-0,114
-725,123	-132,986	-0,051	-0,005
-724,108	61,259	-0,087	0,065
-723,094	-75,350	-0,083	-0,022
-722,079	412,628	-0,053	0,083
-721,064	545,389	0,075	0,134
-720,050	-78,791	-0,070	0,018
-719,035	-200,000	-0,002	-0,085
-718,021	393,274	0,052	-0,081
-717,006	-200,000	-0,005	-0,106
-715,991	223,140	-0,136	-0,164
-714,977	800,000	-0,028	-0,086
-713,962	-165,292	-0,093	0,003
-712,948	-200,000	0,024	-0,083
-711,933	-200,000	0,048	-0,175
-710,918	-200,000	-0,003	-0,022
-709,904	312,806	-0,092	-0,130
-708,889	300,992	0,077	-0,105
-707,875	67,953	-0,123	-0,094
-706,860	-200,000	-0,001	-0,030
-705,845	800,000	0,021	-0,055
-704,831	316,354	0,175	0,247
-703,816	-38,182	-0,057	0,023
-702,802	30,592	-0,063	-0,040
-701,787	-55,462	-0,122	0,041
-700,772	-127,537	-0,098	0,010
-699,758	-200,000	0,020	-0,101
-698,743	140,345	0,043	-0,043
-697,729	-157,509	0,079	-0,003
-696,714	-42,639	0,190	-0,072
-695,699	800,000	0,013	0,034
-694,685	-42,992	-0,109	0,041
-693,670	800,000	-0,060	-0,125
-692,656	160,349	-0,060	-0,063
-691,641	471,395	0,026	-0,044
-690,627	390,218	-0,078	0,121
-689,612	357,038	-0,039	-0,059
-688,597	-109,883	0,150	-0,023
-687,583	-131,788	-0,084	0,008
-686,568	440,435	-0,025	-0,041
-685,554	-200,000	-0,038	0,139
-684,539	-106,905	0,079	-0,013
-683,524	264,895	-0,048	-0,062
-682,510	-200,000	0,012	-0,097
-681,495	189,492	-0,106	-0,118
-680,481	-200,000	0,012	-0,046
-679,466	800,000	-0,054	-0,128
-678,451	761,430	0,045	-0,091
-677,437	800,000	0,042	-0,095
-676,422	800,000	0,023	0,053
-675,408	93,428	-0,028	0,023
-674,393	-200,000	0,005	-0,060
-673,378	20,742	0,122	-0,073
-672,364	-162,913	-0,214	0,008
-671,349	46,523	0,091	-0,062
-670,335	-26,870	0,073	-0,032
-669,320	297,716	0,067	-0,092
-668,305	-39,553	0,066	-0,025
-667,291	-200,000	0,010	0,073
-666,276	800,000	-0,010	0,025
-665,262	-100,934	-0,057	0,010
-664,247	-101,803	0,116	0,021
-663,232	269,189	-0,024	0,032
-662,218	-54,423	0,130	-0,043
-661,203	800,000	-0,044	-0,115
-660,189	-39,399	-0,134	0,052
-659,174	699,571	0,079	0,156
-658,159	-200,000	-0,010	-0,068
-657,145	366,872	-0,054	-0,081
-656,130	47,085	-0,124	0,085
-655,116	-200,000	-0,008	0,060
-654,101	800,000	-0,033	0,100
-653,086	-200,000	0,003	0,017
-652,072	132,390	-0,090	0,086
-651,057	-200,000	-0,026	-0,103
-650,043	-200,000	-0,002	-0,022
-649,028	-15,916	-0,061	-0,029
-648,014	-84,945	0,036	0,008
-646,999	800,000	0,030	0,071
-645,984	-23,676	-0,015	0,007
-644,970	-151,905	-0,163	0,009
-643,955	-76,019	-0,067	0,018
-642,941	-69,757	-0,125	-0,035
-641,926	153,515	-0,036	0,037
-640,911	731,138	0,067	0,135
-639,897	-36,720	0,039	-0,015
-638,882	13,915	0,113	0,065
-637,868	351,786	-0,007	0,010
-636,853	-200,000	0,032	-0,143
-635,838	-118,428	-0,075	-0,010
-634,824	755,640	0,022	0,045
-633,809	-191,671	0,133	-0,001
-632,795	388,720	-0,041	-0,064
-631,780	197,157	0,116	0,131
-630,765	21,087	0,042	-0,025
-629,751	88,660	-0,046	-0,038
-628,736	800,000	-0,042	0,100
-627,722	-89,924	-0,164	0,035
-626,707	526,336	-0,014	-0,025
-625,692	77,222	0,121	0,096
-624,678	170,332	-0,088	0,093
-623,663	800,000	0,021	0,044
-622,649	-200,000	-0,011	-0,085
-621,634	69,657	-0,054	-0,041
-620,619	-200,000	-0,014	-0,199
-619,605	-200,000	0,006	0,079
-618,590	-60,494	0,047	0,015
-617,576	-100,116	-0,107	-0,020
-616,561	800,000	0,019	-0,046
-615,546	-200,000	-0,007	-0,039
-614,532	-107,146	-0,030	-0,005
-613,517	-149,719	-0,055	0,003
-612,503	-144,050	-0,064	0,004
-611,488	-200,000	-0,005	0,021
-610,474	800,000	-0,048	0,116
-609,459	-92,219	0,021	-0,004
-608,444	238,393	0,075	-0,092
-607,430	-200,000	0,001	-0,115
-606,415	800,000	-0,045	-0,113
-605,401	-200,000	-0,022	-0,139
-604,386	-108,233	0,054	0,009
-603,371	453,556	-0,014	-0,023
-602,357	550,047	0,022	0,040
-601,342	72,156	-0,087	-0,067
-600,328	503,615	-0,084	-0,145
-599,313	800,000	-0,047	0,110
-598,298	144,118	0,091	0,090
-597,284	-60,841	0,026	-0,008
-596,269	-109,024	-0,059	0,009
-595,255	83,326	0,041	-0,033
-594,240	43,231	-0,057	0,039
-593,225	800,000	0,029	-0,071
-592,211	8,287	0,099	-0,055
-591,196	148,676	-0,031	-0,031
-590,182	-84,486	0,058	-0,014
-589,167	284,389	0,079	0,106
-588,152	166,087	-0,063	0,066
-587,138	-15,787	0,008	-0,004
-586,123	-200,000	-0,026	-0,104
-585,109	749,289	-0,060	-0,121
-584,094	41,500	-0,061	-0,041
-583,079	74,765	-0,027	0,021
-582,065	-200,000	0,005	-0,038
-581,050	413,414	-0,011	0,018
-580,036	-87,378	-0,046	0,010
-579,021	800,000	-0,006	0,016
-578,006	350,691	0,023	-0,034
-576,992	-200,000	0,005	0,020
-575,977	225,238	-0,101	0,121
-574,963	-200,000	-0,036	0,174
-573,948	133,713	0,107	0,103
-572,934	-1,320	0,071	-0,037
-571,919	97,496	-0,130	0,111
-570,904	130,228	-0,064	-0,061
-569,890	-200,000	-0,007	-0,077
-568,875	-200,000	-0,003	-0,014
-567,861	-97,303	0,040	-0,008
-566,846	-63,479	0,241	0,073
-565,831	177,005	0,080	0,086
-564,817	800,000	0,034	0,095
-563,802	-98,549	-0,286	-0,054
-562,788	70,858	0,053	0,041
-561,773	-48,194	-0,099	-0,035
-560,758	158,183	0,024	-0,024
-559,744	-74,094	-0,091	0,024
-558,729	-80,702	-0,190	0,046
-557,715	137,713	0,055	-0,053
-556,700	-200,000	-0,011	0,102
-555,685	800,000	-0,051	-0,161
-554,671	222,002	-0,067	0,080
-553,656	86,208	-0,032	-0,026
-552,642	-46,220	-0,053	0,019
-551,627	311,147	-0,018	-0,025
-550,612	-200,000	-0,011	0,046
-549,598	118,753	-0,088	-0,081
-548,583	26,638	-0,126	-0,078
-547,569	212,103	-0,050	0,058
-546,554	-64,389	0,220	0,066
-545,539	-200,000	0,001	0,093
-544,525	-200,000	-0,044	0,189
-543,510	-127,463	-0,109	0,012
-542,496	-200,000	-0,018	-0,114
-541,481	-112,521	0,031	-0,004
-540,466	800,000	0,062	0,141
-539,452	-33,556	-0,135	-0,055
-538,437	-84,738	0,071	0,016
-537,423	-200,000	0,023	0,099
-536,408	-52,279	-0,074	-0,025
-535,393	0,716	0,045	-0,024
-534,379	313,015	-0,047	-0,065
-533,364	-200,000	-0,006	0,058
-532,350	-141,074	0,150	-0,011
-531,335	235,005	-0,075	0,092
-530,321	773,434	0,087	-0,176
-529,306	722,810	-0,037	-0,074
-528,291	161,540	-0,033	0,035
-527,277	-200,000	0,023	-0,095
-526,262	227,041	-0,099	-0,119
-525,248	-200,000	0,011	0,042
-524,233	247,722	-0,050	-0,062
-523,218	800,000	-0,069	-0,175
-522,204	99,044	0,151	-0,129
-521,189	13,254	0,130	-0,074
-520,175	-200,000	-0,007	0,042
-519,160	-113,811	0,148	-0,021
-518,145	9,892	0,190	-0,106
-517,131	136,872	0,132	0,127
-516,116	-88,188	0,067	0,015
-515,102	-200,000	0,023	0,153
-514,087	76,235	-0,015	0,012
-513,072	11,871	-0,116	0,066
-512,058	-200,000	0,013	0,064
-511,043	62,273	-0,107	-0,079
-510,029	-200,000	0,012	0,135
-509,014	-200,000	-0,009	0,071
-507,999	-42,496	-0,042	0,016
-506,985	800,000	0,016	0,035
-505,970	-84,846	0,039	-0,009
-504,956	549,422	-0,045	-0,079
-503,941	-103,594	0,036	-0,006
-502,926	-96,953	0,058	0,011
-501,912	226,158	0,078	0,094
-500,897	748,901	-0,037	-0,073
-499,883	34,761	-0,084	0,054
-498,868	-130,535	0,069	-0,007
-497,853	800,000	0,012	-0,033
-496,839	-147,793	0,097	0,006
-495,824	-39,846	-0,159	0,061
-494,810	244,596	0,117	-0,146
-493,795	800,000	0,021	0,060
-492,781	-200,000	0,003	0,035
-491,766	-146,794	-0,063	-0,004
-490,751	-33,275	-0,137	-0,056
-489,737	-115,191	0,156	0,022
-488,722	-42,754	-0,080	0,030
-487,708	149,325	-0,075	0,075
-486,693	136,083	0,101	-0,098
-485,678	6,416	0,027	0,015
-484,664	69,395	-0,020	0,015
-483,649	-200,000	0,012	-0,060
-482,635	94,332	-0,144	0,121
-481,620	-200,000	0,020	0,070
-480,605	28,795	0,116	0,073
-479,591	-168,155	0,096	-0,003
-478,576	-200,000	0,009	0,037
-477,562	65,039	0,073	0,055
-476,547	-200,000	-0,003	0,011
-475,532	110,400	-0,041	-0,037
-474,518	800,000	-0,055	-0,125
-473,503	800,000	0,127	-0,260
-472,489	626,995	-0,061	0,114
-471,474	-200,000	-0,011	0,047
-470,459	604,012	-0,006	-0,011
-469,445	-31,095	-0,047	-0,019
-468,430	-49,625	-0,053	-0,019
-467,416	-168,191	0,082	0,002
-466,401	20,703	0,174	0,104
-465,386	800,000	0,035	0,076
-464,372	-134,611	-0,098	0,009
-463,357	492,505	-0,046	0,079
-462,343	21,599	-0,066	-0,040
-461,328	169,383	-0,092	0,097
-460,313	96,942	-0,040	0,034
-459,299	800,000	0,055	0,141
-458,284	-200,000	0,002	0,026
-457,270	123,150	-0,103	0,096
-456,255	-200,000	-0,022	0,153
-455,241	-86,857	-0,081	-0,018
-454,226	477,717	-0,035	-0,059
-453,211	-200,000	0,010	-0,105
-452,197	185,214	-0,120	-0,131
-451,182	291,982	0,024	0,033
-450,168	197,381	0,123	0,139
-449,153	-71,772	-0,046	-0,013
-448,138	-85,371	-0,069	-0,016
-447,124	-200,000	0,028	-0,094
-446,109	800,000	0,026	0,079
-445,095	356,228	0,017	-0,025
-444,080	-200,000	0,013	-0,132
-443,065	-73,022	0,039	-0,010
-442,051	800,000	-0,014	0,030
-441,036	142,815	-0,109	-0,107
-440,022	179,775	0,036	0,039
-439,007	-200,000	0,011	0,070
-437,992	800,000	0,008	0,022
-436,978	225,331	-0,036	0,043
-435,963	-88,454	0,232	-0,051
-434,949	74,166	-0,090	0,070
-433,934	-200,000	0,001	0,133
-432,919	-200,000	-0,005	0,126
-431,905	379,517	-0,040	-0,061
-430,890	-55,574	0,035	-0,012
-429,876	-155,033	0,127	0,006
-428,861	59,715	-0,032	0,023
-427,846	28,184	-0,124	-0,077
-426,832	-200,000	0,033	0,125
-425,817	800,000	0,008	-0,018
-424,803	800,000	0,024	-0,071
-423,788	-116,970	-0,026	-0,003
-422,773	-200,000	0,019	0,107
-421,759	27,898	-0,031	-0,019
-420,744	158,068	-0,053	-0,055
-419,730	-65,975	-0,060	-0,018
-418,715	800,000	-0,057	-0,126
-417,701	267,751	0,101	-0,131
-416,686	800,000	0,036	-0,086
-415,671	-200,000	-0,002	0,064
-414,657	800,000	-0,047	0,116
-413,642	-120,783	-0,129	-0,016
-412,628	43,088	-0,050	-0,033
-411,613	131,288	0,050	-0,048
-410,598	235,501	-0,024	-0,029
-409,584	150,846	0,020	0,020
-408,569	10,620	0,044	0,025
-407,555	-146,551	-0,034	0,002
-406,540	-38,058	-0,066	0,026
-405,525	6,209	0,081	0,044
-404,511	207,561	-0,064	-0,074
-403,496	-35,663	0,054	0,021
-402,482	113,390	0,074	0,066
-401,467	-137,301	0,146	-0,012
-400,452	85,016	0,036	-0,029
-399,438	-124,958	0,130	0,015
-398,423	-36,836	-0,089	0,035
-397,409	-167,299	-0,047	0,001
-396,394	237,540	-0,140	-0,172
-395,379	800,000	0,047	-0,099
-394,365	-37,839	0,040	0,015
-393,350	-200,000	-0,011	-0,168
-392,336	23,240	0,061	0,037
-391,321	33,986	-0,054	-0,034
-390,306	-200,000	0,029	-0,116
-389,292	-134,918	-0,079	-0,007
-388,277	800,000	-0,052	-0,118
-387,263	39,904	0,068	-0,045
-386,248	-117,759	0,123	-0,016
-385,233	-200,000	-0,024	0,090
-384,219	800,000	-0,021	-0,051
-383,204	-200,000	0,029	0,121
-382,190	57,549	0,073	-0,052
-381,175	199,061	-0,038	0,043
-380,160	-200,000	0,014	0,109
-379,146	536,969	-0,081	0,142
-378,131	-200,000	-0,001	0,096
-377,117	174,997	0,134	0,143
-376,102	104,738	-0,126	-0,109
-375,088	-200,000	0,009	-0,049
-374,073	18,759	-0,063	-0,037
-373,058	-200,000	-0,016	0,079
-372,044	-66,636	0,172	-0,050
-371,029	800,000	0,044	0,130
-370,015	-200,000	-0,005	-0,067
-369,000	-200,000	-0,008	-0,100
-367,985	-66,434	-0,096	-0,028
-366,971	-10,742	-0,057	0,028
-365,956	-200,000	0,027	-0,169
-364,942	-168,986	0,073	-0,002
-363,927	-200,000	0,016	0,120
-362,912	214,161	-0,080	-0,093
-361,898	-34,039	0,085	0,034
-360,883	-142,643	-0,035	0,002
-359,869	-200,000	-0,027	-0,162
-358,854	-133,518	0,053	0,005
-357,839	-12,619	0,062	-0,030
-356,825	522,293	0,053	-0,092
-355,810	-200,000	0,028	0,239
-354,796	-119,554	0,047	-0,006
-353,781	659,157	0,091	-0,173
-352,766	37,635	0,072	-0,047
-351,752	-200,000	0,020	0,216
-350,737	112,158	0,131	0,116
-349,723	800,000	-0,037	-0,081
-348,708	108,720	-0,075	0,066
-347,693	-121,467	-0,076	-0,009
-346,679	-76,086	-0,108	0,028
-345,664	800,000	-0,011	-0,034
-344,650	-200,000	-0,002	-0,135
-343,635	-95,501	0,124	0,024
-342,620	800,000	0,054	-0,125
-341,606	-172,260	0,076	0,002
-340,591	513,167	0,076	-0,130
-339,577	26,526	-0,047	-0,029
-338,562	-200,000	0,035	-0,126
-337,548	134,496	-0,069	-0,065
-336,533	-28,965	0,020	-0,008
-335,518	149,262	0,081	0,081
-334,504	-72,848	0,046	-0,012
-333,489	800,000	-0,071	0,147
-332,475	33,011	0,079	0,050
-331,460	800,000	0,013	0,041
-330,445	-74,164	-0,112	0,030
-329,431	603,377	-0,039	0,071
-328,416	-123,943	0,191	0,022
-327,402	-99,586	-0,052	-0,009
-326,387	33,106	0,165	0,105
-325,372	527,382	-0,049	-0,084
-324,358	-200,000	0,013	-0,060
-323,343	174,594	0,019	-0,020
-322,329	-42,080	-0,084	-0,031
-321,314	66,102	0,042	-0,031
-320,299	-175,224	0,121	-0,002
-319,285	-200,000	0,027	0,137
-318,270	50,938	-0,078	-0,054
-317,256	283,399	-0,040	0,052
-316,241	211,221	-0,139	0,160
-315,226	25,697	0,024	0,015
-314,212	131,941	0,142	0,135
-313,197	511,304	0,081	-0,139
-312,183	-7,660	-0,192	0,095
-311,168	89,049	-0,094	0,077
-310,153	-52,137	0,064	0,022
-309,139	21,110	-0,011	-0,007
-308,124	-20,862	0,089	0,040
-307,110	-63,558	0,110	-0,033
-306,095	221,019	-0,013	-0,015
-305,080	183,089	0,065	-0,070
-304,066	-200,000	0,024	-0,092
-303,051	800,000	-0,024	0,052
-302,037	491,032	-0,064	-0,108
-301,022	187,528	-0,029	-0,032
-300,008	82,515	0,096	-0,076
-298,993	-151,105	0,101	-0,005
-297,978	-124,126	0,045	0,005
-296,964	65,230	-0,038	-0,028
-295,949	-200,000	-0,008	-0,058
-294,935	393,386	-0,069	-0,106
-293,920	-75,570	-0,049	-0,013
-292,905	60,621	0,148	0,107
-291,891	111,208	0,043	0,038
-290,876	-200,000	-0,018	0,094
-289,862	111,159	0,061	-0,054
-288,847	260,314	-0,024	-0,030
-287,832	-21,375	-0,047	-0,021
-286,818	-99,739	-0,055	-0,010
-285,803	18,453	0,130	-0,076
-284,789	69,558	0,030	-0,023
-283,774	-13,190	0,102	0,048
-282,759	353,873	-0,065	-0,095
-281,745	163,586	-0,025	0,026
-280,730	-89,280	-0,113	0,024
-279,716	106,300	0,046	0,040
-278,701	-200,000	-0,012	0,075
-277,686	34,647	-0,025	-0,016
-276,672	-62,638	0,054	-0,016
-275,657	-171,239	0,077	-0,002
-274,643	800,000	0,036	-0,106
-273,628	-200,000	0,022	-0,127
-272,613	-200,000	0,016	-0,104
-271,599	-6,575	0,102	-0,051
-270,584	39,941	-0,030	0,020
-269,570	-200,000	-0,001	0,222
-268,555	-69,448	-0,105	-0,029
-267,540	800,000	0,035	0,076
-266,526	800,000	0,020	0,047
-265,511	-193,500	-0,101	0,001
-264,497	261,153	-0,023	0,029
-263,482	-104,732	-0,012	-0,002
-262,467	-97,193	0,155	-0,029
-261,453	-114,389	-0,199	-0,028
-260,438	-200,000	-0,005	-0,090
-259,424	-13,299	-0,086	0,041
-258,409	-43,794	-0,082	-0,030
-257,395	-124,503	0,067	0,008
-256,380	51,522	0,098	0,068
-255,365	-200,000	0,020	0,083
-254,351	800,000	-0,006	0,020
-253,336	375,313	-0,036	-0,053
-252,322	-60,725	-0,054	-0,017
-251,307	160,702	-0,102	-0,105
-250,292	-106,659	0,083	0,013
-249,278	-114,210	-0,023	-0,003
-248,263	37,671	0,091	-0,059
-247,249	800,000	-0,019	0,050
-246,234	-200,000	0,027	-0,089
-245,219	-46,268	0,011	0,004
-244,205	66,232	-0,121	-0,089
-243,190	-160,344	0,023	-0,001
-242,176	64,880	-0,076	0,056
-241,161	-200,000	-0,012	-0,148
-240,146	48,735	0,046	0,032
-239,132	-185,817	0,094	-0,001
-238,117	-105,211	-0,075	0,012
-237,103	517,346	0,075	-0,128
-236,088	-200,000	-0,005	-0,079
-235,073	800,000	0,078	0,232
-234,059	430,302	0,048	0,077
-233,044	128,216	-0,058	-0,054
-232,030	254,028	0,107	-0,134
-231,015	-114,955	-0,090	0,012
-230,000	800,000	-0,040	-0,114
-228,986	-200,000	-0,015	0,077
-227,971	97,140	0,096	0,081
-226,957	-61,293	0,170	0,052
-225,942	-26,483	-0,033	-0,014
-224,927	-200,000	0,021	-0,171
-223,913	-144,387	-0,102	0,007
-222,898	24,514	-0,060	0,036
-221,884	-30,783	0,018	-0,008
-220,869	800,000	0,041	0,122
-219,855	-200,000	-0,030	0,112
-218,840	-27,872	0,115	0,048
-217,825	204,358	-0,064	-0,073
-216,811	-68,555	-0,059	0,017
-215,796	-200,000	-0,149	0,000
-214,782	-200,000	0,003	0,186
-213,767	7,049	0,125	0,068
-212,752	586,510	0,041	0,074
-211,738	101,371	-0,016	0,014
-210,723	-200,000	0,004	-0,062
-209,709	-91,776	0,043	-0,009
-208,694	-200,000	0,023	-0,094
-207,679	701,373	-0,096	-0,185
-206,665	800,000	0,031	0,080
-205,650	-161,948	0,141	0,005
-204,636	203,822	0,100	-0,114
-203,621	13,457	0,068	-0,039
-202,606	287,210	-0,102	0,135
-201,592	-200,000	-0,015	-0,070
-200,577	57,394	0,107	-0,076
-199,563	-97,556	0,051	-0,009
-198,548	-54,980	0,138	0,045
-197,533	-12,348	0,086	0,041
-196,519	-40,398	-0,095	0,036
-195,504	-14,429	0,132	0,062
-194,490	463,251	-0,031	-0,051
-193,475	-200,000	-0,013	0,048
-192,460	800,000	-0,051	-0,111
-191,446	267,353	-0,039	-0,050
-190,431	-200,000	0,006	0,024
-189,417	-27,231	-0,087	-0,037
-188,402	478,301	-0,041	0,068
-187,387	800,000	-0,041	-0,098
-186,373	-135,501	-0,142	0,012
-185,358	-200,000	-0,018	0,099
-184,344	-200,000	-0,005	0,104
-183,329	28,717	0,016	0,010
-182,315	800,000	-0,052	-0,133
-181,300	-154,167	-0,094	0,005
-180,285	181,175	-0,092	-0,099
-179,271	110,769	-0,102	-0,090
-178,256	22,167	-0,036	-0,022
-177,242	-200,000	0,017	-0,056
-176,227	153,535	-0,039	-0,039
-175,212	-200,000	-0,032	0,177
-174,198	-200,000	-0,011	0,052
-173,183	800,000	-0,052	0,112
-172,169	-151,634	0,121	-0,006
-171,154	53,007	-0,104	0,073
-170,139	-145,032	-0,064	0,004
-169,125	10,292	0,048	-0,026
-168,110	-156,713	0,121	0,005
-167,096	800,000	0,062	0,190
-166,081	-200,000	-0,001	-0,007
-165,066	328,386	-0,100	-0,141
-164,052	-178,226	-0,108	0,002
-163,037	800,000	0,061	0,137
-162,023	189,686	0,084	-0,092
-161,008	-200,000	0,002	-0,011
-159,993	-200,000	0,005	0,090
-158,979	125,293	0,115	-0,106
-157,964	-52,097	-0,015	-0,005
-156,950	14,522	-0,096	-0,054
-155,935	-200,000	-0,005	0,129
-154,920	93,786	-0,070	-0,058
-153,906	-160,240	-0,082	-0,003
-152,891	800,000	-0,017	-0,043
-151,877	-105,042	-0,116	0,019
-150,862	-98,929	-0,024	0,004
-149,847	-200,000	0,014	-0,060
-148,833	540,378	0,078	0,136
-147,818	-96,662	-0,056	0,011
-146,804	-92,030	0,032	-0,006
-145,789	149,864	-0,088	0,087
-144,775	163,103	-0,067	0,069
-143,760	-200,000	-0,028	-0,145
-142,745	30,234	-0,117	0,072
-141,731	-200,000	0,021	0,076
-140,716	800,000	0,051	-0,111
-139,702	-82,720	0,184	0,043
-138,687	-200,000	-0,019	0,141
-137,672	291,709	0,090	0,119
-136,658	-200,000	0,001	-0,003
-135,643	384,182	-0,052	-0,078
-134,629	258,798	-0,086	0,109
-133,614	635,068	-0,010	-0,019
-132,599	800,000	0,052	-0,139
-131,585	-40,910	-0,047	-0,018
-130,570	-170,023	-0,111	0,003
-129,556	27,552	-0,058	-0,036
-128,541	-41,202	-0,083	-0,031
-127,526	-130,450	-0,042	-0,004
-126,512	652,318	0,040	-0,075
-125,497	-17,223	0,059	0,027
-124,483	-200,000	-0,015	0,079
-123,468	800,000	0,019	-0,057
-122,453	-118,644	0,044	0,006
-121,439	285,744	-0,035	0,046
-120,424	800,000	-0,041	0,123
-119,410	19,461	-0,096	-0,056
-118,395	-200,000	0,008	-0,066
-117,380	800,000	0,036	0,077
-116,366	-200,000	0,023	-0,086
-115,351	31,961	0,083	-0,052
-114,337	-200,000	0,043	-0,171
-113,322	-200,000	-0,001	-0,126
-112,307	800,000	-0,028	0,060
-111,293	-77,791	-0,023	-0,006
-110,278	52,965	0,025	0,018
-109,264	306,429	-0,088	0,119
-108,249	-87,916	-0,038	-0,008
-107,234	52,331	0,044	-0,030
-106,220	-200,000	0,037	-0,158
-105,205	-96,867	0,095	0,018
-104,191	-40,928	0,112	0,042
-103,176	96,276	-0,069	0,057
-102,162	800,000	0,008	-0,025
-101,147	-30,920	-0,075	0,031
-100,132	-122,985	0,045	0,005
-99,118	314,639	0,049	0,067
-98,103	-35,353	0,090	-0,035
-97,089	196,481	-0,084	0,093
-96,074	455,696	0,034	0,055
-95,059	-87,962	0,068	0,015
-94,045	800,000	0,056	-0,137
-93,030	275,793	0,050	0,064
-92,016	49,979	0,030	-0,020
-91,001	800,000	-0,073	-0,159
-89,986	-65,795	0,069	0,020
-88,972	800,000	0,014	-0,030
-87,957	9,597	0,052	0,029
-86,943	-93,353	-0,070	0,014
-85,928	800,000	-0,024	0,062
-84,913	27,934	-0,087	0,053
-83,899	800,000	0,031	0,069
-82,884	-200,000	-0,009	-0,062
-81,870	-72,497	0,108	-0,029
-80,855	91,770	-0,053	-0,043
-79,840	684,738	-0,017	0,033
-78,826	-53,022	-0,142	-0,047
-77,811	334,729	0,017	-0,024
-76,797	281,027	-0,070	-0,091
-75,782	238,334	0,033	0,040
-74,767	156,352	-0,044	0,045
-73,753	5,834	-0,096	-0,051
-72,738	-148,300	0,102	0,006
-71,724	18,702	0,124	0,072
-70,709	38,623	-0,078	-0,050
-69,694	-140,845	-0,072	0,005
-68,680	-200,000	0,004	-0,037
-67,665	-144,249	0,162	0,011
-66,651	5,259	-0,093	0,050
-65,636	16,924	0,120	-0,069
-64,622	-200,000	-0,004	-0,058
-63,607	76,644	-0,044	-0,034
-62,592	13,141	-0,064	-0,036
-61,578	-200,000	-0,007	0,040
-60,563	-72,186	0,136	0,036
-59,549	-100,225	-0,143	-0,026
-58,534	-109,559	-1,380	-0,209
-57,519	724,625	-0,835	-1,623
-56,505	-200,000	-1,019	-4,527
-55,490	103,355	0,548	-0,467
-54,476	800,000	4,948	11,758
-53,461	-200,000	13,671	253,780
-52,446	-200,000	689,932	2258,811
-51,432	589,790	1622,735	2915,666
-50,417	119,048	1635,064	1467,121
-49,403	73,100	1288,817	976,675
-48,388	37,965	1024,460	659,671
-47,373	24,201	982,140	587,129
-46,359	23,508	971,685	578,580
-45,344	22,467	967,565	572,703
-44,330	22,443	965,828	571,574
-43,315	22,358	964,456	570,460
-42,300	22,319	963,345	569,653
-41,286	22,347	962,498	569,221
-40,271	22,334	961,333	568,469
-39,257	22,297	960,607	567,896
-38,242	22,294	959,531	567,226
-37,227	22,315	958,895	566,898
-36,213	22,340	957,829	566,326
-35,198	22,278	957,024	565,626
-34,184	22,320	956,381	565,359
-33,169	22,330	955,348	564,757
-32,154	22,343	954,532	564,297
-31,140	22,402	953,599	563,913
-30,125	22,414	952,889	563,508
-29,111	22,351	952,021	562,771
-28,096	22,419	951,293	562,536
-27,082	22,398	950,548	562,007
-26,067	22,325	950,029	561,442
-25,052	22,354	949,327	561,097
-24,038	22,352	948,559	560,616
-23,023	22,411	947,841	560,359
-22,009	22,395	947,381	560,012
-20,994	22,374	946,770	559,560
-19,979	22,383	946,030	559,131
-18,965	22,341	945,343	558,568
-17,950	22,332	944,765	558,176
-16,936	22,248	944,286	557,601
-15,921	22,249	943,273	556,987
-14,906	22,270	942,659	556,668
-13,892	22,242	942,029	556,186
-12,877	22,174	941,612	555,701
-11,863	22,218	940,874	555,384
-10,848	22,251	940,176	555,052
-9,833	22,378	939,597	555,093
-8,819	22,342	939,311	554,788
-7,804	22,291	938,334	554,027
-6,790	22,198	938,070	553,553
-5,775	22,254	937,226	553,211
-4,760	22,221	936,750	552,805
-3,746	22,232	936,073	552,417
-2,731	22,104	935,504	551,655
-1,717	22,014	934,796	550,931
-0,702	22,049	934,025	550,566
0,313	21,869	933,294	550,397
1,327	25,091	931,329	559,323
2,342	34,753	795,954	503,754
3,356	32,685	451,626	282,689
4,371	1,540	293,840	152,838
5,386	-2,761	274,978	138,940
6,400	-4,115	268,923	134,611
7,415	-4,818	266,640	132,809
8,429	-4,420	265,316	132,503
9,444	-4,408	264,566	132,127
10,459	-4,522	263,964	131,710
11,473	-4,719	263,426	131,251
12,488	-4,793	262,859	130,890
13,502	-4,897	262,324	130,518
14,517	-4,768	261,865	130,394
15,531	-4,701	261,571	130,297
16,546	-4,614	261,134	130,146
17,561	-4,714	260,739	129,848
18,575	-4,421	260,403	129,932
19,590	-4,529	260,064	129,654
20,604	-4,585	259,865	129,493
21,619	-4,639	259,477	129,240
22,634	-4,664	259,233	129,085
23,648	-4,631	258,777	128,875
24,663	-4,586	258,527	128,779
25,677	-4,643	258,272	128,590
26,692	-4,871	258,225	128,353
27,707	-4,748	257,812	128,245
28,721	-4,771	257,585	128,101
29,736	-4,801	257,288	127,915
30,750	-4,809	256,980	127,743
31,765	-4,867	257,004	127,693
32,780	-4,766	256,586	127,562
33,794	-4,795	256,323	127,395
34,809	-4,788	256,142	127,299
35,823	-4,888	255,842	127,051
36,838	-5,030	255,821	126,904
37,853	-4,785	255,313	126,856
38,867	-4,884	255,176	126,689
39,882	-4,875	255,050	126,624
40,896	-4,905	254,741	126,433
41,911	-4,847	254,511	126,358
42,926	-4,883	254,263	126,192
43,940	-4,833	253,973	126,081
44,955	-4,898	253,863	125,958
45,969	-5,037	253,509	125,650
46,984	-4,982	253,196	125,532
47,999	-5,348	253,189	125,198
49,013	-5,591	252,837	124,801
50,028	-5,598	252,569	124,652
51,042	-5,570	252,312	124,539
52,057	-5,789	252,160	124,262
53,071	-5,571	251,967	124,344
54,086	-5,540	251,611	124,185
55,101	-5,488	251,604	124,215
56,115	-5,278	251,481	124,326
57,130	-4,943	251,490	124,608
58,144	-4,471	251,126	124,825
59,159	-4,524	251,007	124,708
60,174	-4,528	250,751	124,567
61,188	-4,676	250,673	124,390
62,203	-4,831	250,520	124,168
63,217	-4,793	250,206	124,035
64,232	-4,832	249,977	123,876
65,247	-4,563	249,788	124,003
66,261	-4,673	249,545	123,777
67,276	-4,875	249,271	123,457
68,290	-5,139	249,038	123,105
69,305	-5,113	248,797	122,997
70,320	-5,172	248,618	122,847
71,334	-4,802	248,503	123,095
72,349	-4,591	248,275	123,151
73,363	-4,635	248,155	123,043
74,378	-4,586	248,096	123,044
75,393	-4,729	247,732	122,731
76,407	-4,918	247,677	122,533
77,422	-4,833	247,423	122,468
78,436	-4,605	247,114	122,498
79,451	-4,647	246,857	122,324
80,466	-4,843	246,677	122,058
81,480	-4,884	246,424	121,887
82,495	-5,096	246,265	121,619
83,509	-4,905	246,075	121,675
84,524	-4,951	245,846	121,512
85,539	-5,054	245,526	121,257
86,553	-5,175	245,460	121,111
87,568	-5,048	245,356	121,156
88,582	-4,982	245,169	121,108
89,597	-5,013	244,999	120,987
90,611	-4,837	244,850	121,051
91,626	-4,826	244,745	120,997
92,641	-4,675	244,450	120,967
93,655	-4,809	244,274	120,757
94,670	-4,949	244,165	120,575
95,684	-4,877	243,940	120,514
96,699	-4,839	243,836	120,483
97,714	-4,897	243,523	120,270
98,728	-4,951	243,181	120,045
99,743	-5,032	243,131	119,942
100,757	-5,062	242,777	119,731
101,772	-5,046	242,840	119,765
102,787	-5,244	242,526	119,435
103,801	-5,033	242,615	119,644
104,816	-4,702	242,289	119,747
105,830	-4,936	242,186	119,491
106,845	-4,851	242,038	119,478
107,860	-4,599	241,814	119,566
108,874	-4,851	241,603	119,242
109,889	-4,962	241,311	118,996
110,903	-4,721	241,175	119,117
111,918	-5,083	241,065	118,753
112,933	-5,010	240,850	118,697
113,947	-4,800	240,715	118,793
114,962	-4,966	240,718	118,647
115,976	-4,828	240,366	118,577
116,991	-4,866	240,072	118,390
118,006	-4,926	240,030	118,309
119,020	-4,849	239,895	118,295
120,035	-4,792	239,791	118,280
121,049	-4,699	239,694	118,297
122,064	-4,853	239,365	117,999
123,079	-4,973	239,221	117,819
124,093	-4,906	238,965	117,737
125,108	-5,164	238,671	117,371
126,122	-5,481	238,664	117,099
127,137	-5,353	238,383	117,055
128,151	-5,266	238,186	117,019
129,166	-5,145	238,144	117,086
130,181	-5,143	237,698	116,858
131,195	-5,181	237,672	116,804
132,210	-4,988	237,523	116,877
133,224	-4,646	237,361	117,064
134,239	-4,951	237,154	116,704
135,254	-4,726	237,117	116,858
136,268	-4,914	236,840	116,559
137,283	-5,060	236,591	116,308
138,297	-5,277	236,322	115,990
139,312	-5,399	236,140	115,792
140,327	-5,084	236,191	116,061
141,341	-4,608	236,118	116,398
142,356	-4,638	235,888	116,251
143,370	-4,624	235,916	116,265
144,385	-4,526	235,731	116,243
145,400	-4,599	235,458	116,039
146,414	-4,399	235,270	116,096
147,429	-4,606	235,056	115,815
148,443	-4,610	234,993	115,770
149,458	-4,508	234,745	115,719
150,473	-4,594	234,672	115,604
151,487	-4,615	234,490	115,487
152,502	-4,461	234,229	115,471
153,516	-4,499	234,296	115,463
154,531	-4,587	233,990	115,233
155,546	-4,714	233,923	115,088
156,560	-4,678	233,672	114,983
157,575	-4,712	233,435	114,829
158,589	-4,787	233,266	114,676
159,604	-4,545	233,116	114,784
160,619	-4,476	233,013	114,778
161,633	-4,398	232,864	114,756
162,648	-4,215	232,634	114,777
163,662	-4,499	232,491	114,472
164,677	-4,673	232,375	114,266
165,692	-4,501	232,181	114,297
166,706	-4,492	232,217	114,312
167,721	-4,475	232,048	114,232
168,735	-4,221	231,755	114,278
169,750	-4,458	231,646	114,027
170,764	-4,557	231,513	113,874
171,779	-4,273	231,191	113,929
172,794	-4,199	231,126	113,945
173,808	-4,541	230,909	113,559
174,823	-4,875	230,571	113,121
175,837	-5,126	230,573	112,914
176,852	-4,662	230,338	113,153
177,867	-4,532	230,451	113,300
178,881	-4,461	230,234	113,239
179,896	-4,290	229,951	113,223
180,910	-4,539	230,013	113,049
181,925	-4,322	229,741	113,074
182,940	-4,350	229,573	112,960
183,954	-4,546	229,575	112,798
184,969	-4,632	229,283	112,578
185,983	-4,196	229,258	112,895
186,998	-4,253	229,019	112,723
188,013	-4,098	228,807	112,729
189,027	-4,458	228,671	112,372
190,042	-4,144	228,530	112,537
191,056	-4,261	228,406	112,375
192,071	-4,417	228,221	112,152
193,086	-4,605	228,263	112,018
194,100	-4,224	227,983	112,165
195,115	-4,314	227,517	111,856
196,129	-5,802	227,057	110,473
197,144	-2,811	228,147	113,310
198,159	1,982	229,510	117,702
199,173	4,183	230,121	119,717
200,188	4,491	229,922	119,842
201,202	4,446	229,647	119,653
202,217	4,580	229,756	119,803
203,232	4,665	229,600	119,777
204,246	4,756	229,432	119,749
205,261	4,986	229,260	119,827
206,275	5,094	229,101	119,816
207,290	5,031	228,929	119,667
208,304	5,058	228,707	119,561
209,319	4,830	228,664	119,352
210,334	5,014	228,443	119,368
211,348	4,668	228,157	118,941
212,363	4,278	227,968	118,533
213,377	3,704	227,932	118,062
214,392	3,943	227,641	118,084
215,407	4,130	227,606	118,199
216,421	4,075	227,458	118,069
217,436	4,106	227,177	117,937
218,450	3,962	226,899	117,671
219,465	3,819	226,863	117,534
220,480	3,976	226,840	117,630
221,494	3,688	226,716	117,335
222,509	4,009	226,417	117,416
223,523	4,002	226,239	117,308
224,538	4,089	226,070	117,275
225,553	4,008	226,015	117,175
226,567	4,211	225,850	117,233
227,582	4,418	225,870	117,390
228,596	4,394	225,768	117,309
229,611	4,313	225,365	117,028
230,626	3,848	225,449	116,708
231,640	4,047	225,073	116,654
232,655	4,335	225,056	116,853
233,669	4,461	225,088	116,955
234,684	4,927	224,817	117,156
235,699	4,541	224,598	116,740
236,713	4,269	224,510	116,478
237,728	4,013	224,342	116,187
238,742	3,929	224,052	115,963
239,757	3,964	223,956	115,930
240,772	4,033	223,802	115,892
241,786	4,134	223,616	115,861
242,801	4,067	223,543	115,762
243,815	4,300	223,594	115,953
244,830	4,525	223,337	115,978
245,844	4,069	223,253	115,583
246,859	4,279	222,979	115,588
247,874	4,428	222,788	115,590
248,888	4,382	222,698	115,499
249,903	4,042	222,614	115,190
250,917	3,964	222,517	115,072
251,932	4,144	222,210	115,037
252,947	4,245	221,983	114,985
253,961	3,960	221,941	114,740
254,976	3,845	221,862	114,603
255,990	4,070	221,835	114,747
257,005	4,346	221,590	114,815
258,020	4,487	221,488	114,857
259,034	4,448	221,403	114,774
260,049	4,381	221,223	114,620
261,063	4,399	221,034	114,526
262,078	4,442	220,943	114,500
263,093	4,602	220,822	114,546
264,107	4,395	220,681	114,309
265,122	4,487	220,467	114,256
266,136	4,511	220,432	114,246
267,151	4,435	220,214	114,067
268,166	4,049	220,064	113,693
269,180	3,878	219,711	113,375
270,195	4,135	219,676	113,536
271,209	3,991	219,432	113,294
272,224	4,039	219,400	113,303
273,239	4,265	219,267	113,390
274,253	4,114	219,060	113,162
275,268	3,989	218,872	112,963
276,282	3,815	218,685	112,729
277,297	3,774	218,536	112,612
278,312	3,859	218,461	112,626
279,326	3,929	218,476	112,674
280,341	4,017	218,239	112,606
281,355	4,138	218,130	112,628
282,370	4,200	217,816	112,502
283,384	3,982	217,719	112,282
284,399	3,957	217,585	112,185
285,414	3,813	217,545	112,049
286,428	4,023	217,423	112,130
287,443	4,443	217,323	112,374
288,457	4,231	217,181	112,136
289,472	4,056	217,050	111,931
290,487	3,832	216,613	111,534
291,501	3,705	216,725	111,489
292,516	3,583	216,611	111,332
293,530	3,821	216,458	111,416
294,545	3,771	216,221	111,247
295,560	4,048	216,162	111,408
296,574	4,073	216,010	111,338
297,589	4,017	215,896	111,229
298,603	4,088	215,752	111,196
299,618	4,173	215,683	111,212
300,633	4,212	215,551	111,162
301,647	4,345	215,389	111,164
302,662	4,429	215,378	111,209
303,676	4,395	215,225	111,096
304,691	4,227	215,017	110,858
305,706	4,487	214,856	110,951
306,720	4,536	214,727	110,910
307,735	4,069	214,509	110,453
308,749	4,044	214,400	110,369
309,764	4,169	214,277	110,385
310,779	4,528	214,248	110,618
311,793	4,296	213,950	110,288
312,808	4,234	213,910	110,213
313,822	4,361	213,749	110,211
314,837	3,993	213,572	109,847
315,852	3,956	213,305	109,673
316,866	3,970	213,292	109,667
317,881	4,183	213,242	109,784
318,895	4,154	213,100	109,680
319,910	4,190	212,813	109,548
320,925	3,733	212,584	109,096
321,939	3,507	212,558	108,913
322,954	3,703	212,312	108,916
323,968	4,008	212,379	109,157
324,983	4,420	212,310	109,404
325,997	4,420	212,151	109,312
327,012	4,288	211,887	109,073
328,027	4,405	211,669	109,034
329,041	4,555	211,802	109,198
330,056	4,580	211,737	109,173
331,070	3,975	211,419	108,572
332,085	3,730	211,204	108,279
333,100	3,847	211,032	108,263
334,114	4,008	211,033	108,368
335,129	3,985	210,994	108,322
336,143	4,039	210,724	108,212
337,158	3,897	210,588	108,032
338,173	3,927	210,467	107,982
339,187	3,807	210,285	107,794
340,202	3,729	210,140	107,656
341,216	3,853	209,862	107,591
342,231	3,982	209,815	107,648
343,246	3,858	209,664	107,474
344,260	3,933	209,621	107,494
345,275	4,043	209,573	107,537
346,289	3,830	209,517	107,350
347,304	4,208	209,171	107,427
348,319	4,049	209,109	107,275
349,333	4,084	208,859	107,161
350,348	4,326	208,818	107,299
351,362	4,203	208,781	107,185
352,377	4,302	208,681	107,192
353,392	4,235	208,522	107,055
354,406	4,173	208,251	106,863
355,421	193,132	1346,889	1433,290
356,435	154,053	1485,731	1433,416
