DTS Sentinel unit serial number:	SN410029Multiplexer serial number:	ORYXHardware model number:	OX2-SRSoftware version number:	ORYX F/W v4,00 Oryx Data Collector v3.7.2.0data status	okinstallation	B6 Nyhavnadifferential loss correction	single-endedforward channel	channel 2reverse channel	N/Adate	2023/12/08time	21:55:08forward acquisition time	300,00reverse acquisition time	0,00gamma	499,1914k internal	0,3157k external	0,3157temperature offset calibration	1,0000default loss term (dB/km)	0,3820temperature slope calibration	1,0000multiplexer offset coefficient	1,0000multiplexer slope coefficient	1,0000fibre end	0,00T internal ref (°C)	15,25T ext. ref 1 (°C)	-1,25T ext. ref 2 (°C)	-1,26length (m)	temperature (°C)	Stokes	anti-Stokes-744,400	800,000	0,020	-0,042
-743,385	-186,772	-0,334	-0,003
-742,371	-74,520	0,147	-0,039
-741,356	-124,025	-0,207	-0,024
-740,342	-58,064	0,135	0,043
-739,327	-89,715	-0,275	0,059
-738,312	170,821	0,043	-0,046
-737,298	-118,107	-0,314	-0,041
-736,283	8,344	0,006	0,004
-735,269	-169,420	-0,352	-0,009
-734,254	-157,099	0,144	-0,006
-733,239	22,850	-0,470	-0,283
-732,225	-127,705	0,294	0,031
-731,210	800,000	0,022	0,059
-730,196	134,924	-0,058	0,056
-729,181	800,000	0,016	-0,050
-728,167	-70,791	-0,069	-0,019
-727,152	170,731	0,049	0,052
-726,137	-39,787	-0,076	-0,029
-725,123	-92,771	-0,068	-0,014
-724,108	251,881	-0,115	-0,145
-723,094	93,175	-0,144	-0,120
-722,079	-12,570	-0,080	-0,038
-721,064	105,242	-0,145	-0,126
-720,050	-200,000	-0,005	-0,021
-719,035	-16,192	-0,120	0,056
-718,021	30,589	-0,109	-0,069
-717,006	225,416	-0,084	-0,100
-715,991	-31,944	-0,051	0,021
-714,977	756,518	-0,041	-0,082
-713,962	42,435	-0,067	-0,045
-712,948	356,838	0,047	-0,070
-711,933	-26,981	0,098	-0,042
-710,918	-100,264	-0,135	0,024
-709,904	-200,000	0,021	-0,083
-708,889	-200,000	-0,020	-0,082
-707,875	111,800	-0,179	-0,159
-706,860	211,662	-0,059	0,068
-705,845	-168,373	-0,112	-0,003
-704,831	550,114	-0,021	-0,038
-703,816	10,539	-0,021	-0,012
-702,802	19,405	0,097	-0,057
-701,787	-136,247	-0,156	-0,013
-700,772	17,426	-0,046	-0,027
-699,758	-100,450	0,087	-0,016
-698,743	519,194	0,056	0,097
-697,729	193,108	-0,044	-0,049
-696,714	-200,000	0,036	-0,143
-695,699	-2,943	-0,052	-0,026
-694,685	-109,992	-0,140	-0,021
-693,670	-200,000	0,000	0,161
-692,656	14,321	-0,086	-0,049
-691,641	-58,781	-0,010	-0,003
-690,627	604,858	0,030	0,056
-689,612	-200,000	0,000	-0,122
-688,597	490,903	-0,012	-0,021
-687,583	-184,638	-0,074	-0,001
-686,568	-3,745	-0,188	-0,096
-685,554	800,000	0,031	-0,098
-684,539	-130,511	0,191	-0,019
-683,524	392,954	-0,073	0,112
-682,510	573,180	-0,046	0,083
-681,495	-200,000	-0,023	-0,100
-680,481	-200,000	0,013	-0,108
-679,466	93,733	-0,090	-0,075
-678,451	-25,002	-0,052	0,023
-677,437	-136,153	-0,007	-0,001
-676,422	-200,000	-0,020	0,114
-675,408	800,000	0,052	0,124
-674,393	800,000	0,030	-0,095
-673,378	1,194	-0,071	-0,038
-672,364	79,936	0,162	-0,128
-671,349	8,281	0,166	0,091
-670,335	599,595	0,031	-0,056
-669,320	207,589	0,112	0,129
-668,305	75,100	-0,063	0,049
-667,291	115,880	0,006	-0,005
-666,276	148,648	0,031	-0,030
-665,262	79,790	-0,091	-0,072
-664,247	40,836	-0,119	0,079
-663,232	143,721	0,037	0,036
-662,218	-98,402	-0,077	-0,014
-661,203	46,638	-0,132	-0,090
-660,189	89,410	0,068	0,056
-659,174	-31,810	-0,136	0,056
-658,159	278,037	-0,056	-0,074
-657,145	538,368	-0,065	-0,113
-656,130	-200,000	0,028	-0,109
-655,116	800,000	-0,024	0,052
-654,101	-96,456	0,087	0,017
-653,086	-103,582	0,066	-0,011
-652,072	504,122	-0,065	-0,111
-651,057	-29,396	-0,134	0,056
-650,043	-200,000	0,040	-0,135
-649,028	-200,000	0,020	-0,078
-648,014	475,643	-0,048	0,081
-646,999	800,000	0,044	0,135
-645,984	-129,469	-0,033	-0,003
-644,970	-200,000	-0,000	-0,022
-643,955	449,328	-0,131	-0,213
-642,941	-178,426	-0,090	-0,001
-641,926	19,832	0,154	0,091
-640,911	800,000	-0,017	0,047
-639,897	375,635	-0,061	0,092
-638,882	554,138	-0,070	0,124
-637,868	800,000	0,018	-0,043
-636,853	-84,964	-0,025	-0,006
-635,838	320,142	-0,017	-0,024
-634,824	-150,146	0,139	0,008
-633,809	-200,000	0,012	-0,078
-632,795	339,786	0,031	-0,045
-631,780	800,000	-0,010	0,025
-630,765	281,496	0,015	0,020
-629,751	800,000	-0,034	-0,109
-628,736	322,622	-0,064	-0,089
-627,722	800,000	-0,021	0,055
-626,707	-37,399	0,004	-0,001
-625,692	173,149	0,099	0,105
-624,678	800,000	0,112	0,251
-623,663	-200,000	0,020	-0,077
-622,649	-200,000	-0,002	-0,070
-621,634	-200,000	-0,021	-0,132
-620,619	219,107	0,030	-0,035
-619,605	38,555	-0,143	0,093
-618,590	-200,000	0,004	-0,066
-617,576	84,886	0,060	0,048
-616,561	324,051	0,023	-0,032
-615,546	744,367	0,071	0,140
-614,532	-131,160	-0,092	0,009
-613,517	61,902	-0,180	-0,131
-612,503	-148,711	0,221	-0,013
-611,488	6,744	-0,060	0,033
-610,474	800,000	0,007	0,018
-609,459	311,364	-0,040	0,055
-608,444	50,601	0,040	0,028
-607,430	800,000	-0,008	0,023
-606,415	45,974	-0,051	0,034
-605,401	-200,000	0,002	0,047
-604,386	210,663	0,048	0,055
-603,371	17,376	-0,077	-0,045
-602,357	221,390	-0,024	0,028
-601,342	-81,047	-0,099	0,024
-600,328	25,876	-0,017	0,010
-599,313	-110,257	-0,155	0,023
-598,298	481,170	-0,057	-0,096
-597,284	648,989	0,042	0,079
-596,269	-110,096	0,075	-0,011
-595,255	242,781	0,077	-0,094
-594,240	-200,000	0,013	-0,108
-593,225	-200,000	-0,025	0,198
-592,211	-70,060	-0,087	-0,024
-591,196	-200,000	-0,014	0,087
-590,182	-40,775	0,202	0,076
-589,167	-200,000	-0,003	0,025
-588,152	-103,258	0,112	-0,019
-587,138	-200,000	-0,002	0,109
-586,123	-39,402	-0,080	-0,031
-585,109	540,750	-0,064	-0,111
-584,094	-200,000	-0,037	-0,151
-583,079	-36,669	0,044	0,017
-582,065	-200,000	0,014	0,083
-581,050	124,496	0,080	0,074
-580,036	-39,572	-0,077	0,029
-579,021	-168,251	0,050	0,001
-578,006	800,000	-0,036	-0,096
-576,992	800,000	0,055	-0,115
-575,977	800,000	-0,013	-0,038
-574,963	-132,143	0,062	0,006
-573,948	-200,000	0,037	0,166
-572,934	-78,648	0,059	0,015
-571,919	370,575	-0,130	-0,194
-570,904	-38,389	-0,108	-0,041
-569,890	-200,000	0,018	0,100
-568,875	-200,000	-0,015	-0,117
-567,861	30,483	-0,073	0,046
-566,846	24,094	0,104	-0,063
-565,831	-14,005	-0,101	-0,048
-564,817	-52,739	-0,157	0,053
-563,802	412,392	-0,131	-0,205
-562,788	-43,463	-0,026	-0,010
-561,773	-58,954	-0,107	0,034
-560,758	-120,914	-0,151	0,018
-559,744	-74,110	0,060	-0,016
-558,729	800,000	0,018	0,037
-557,715	-98,525	0,088	-0,016
-556,700	114,606	-0,089	-0,079
-555,685	397,095	-0,101	-0,155
-554,671	751,044	0,019	-0,037
-553,656	800,000	-0,047	0,131
-552,642	433,074	-0,039	0,063
-551,627	-50,985	0,068	-0,023
-550,612	-200,000	0,018	0,064
-549,598	67,486	-0,126	-0,094
-548,583	279,313	0,041	-0,054
-547,569	-88,168	0,047	0,010
-546,554	725,500	0,028	-0,056
-545,539	-200,000	0,015	0,200
-544,525	-200,000	-0,010	0,080
-543,510	-133,736	-0,133	-0,012
-542,496	-118,568	-0,147	-0,019
-541,481	-45,770	0,094	-0,034
-540,466	-172,442	-0,044	-0,001
-539,452	800,000	0,020	-0,043
-538,437	174,675	0,053	0,056
-537,423	126,486	0,076	0,070
-536,408	170,681	0,112	-0,117
-535,393	-106,962	-0,066	-0,011
-534,379	800,000	0,045	-0,145
-533,364	800,000	0,009	0,019
-532,350	209,146	0,029	0,034
-531,335	800,000	0,032	0,071
-530,321	-200,000	0,030	0,110
-529,306	-200,000	-0,007	0,125
-528,291	-106,090	-0,184	0,030
-527,277	-200,000	0,011	-0,066
-526,262	1,789	-0,122	-0,064
-525,248	45,536	0,131	0,088
-524,233	631,875	-0,084	0,156
-523,218	800,000	0,038	0,091
-522,204	-200,000	-0,013	0,167
-521,189	-145,930	0,022	0,001
-520,175	133,341	-0,037	-0,035
-519,160	-200,000	0,002	-0,026
-518,145	144,966	0,161	0,158
-517,131	800,000	-0,025	-0,062
-516,116	160,703	0,053	-0,054
-515,102	136,921	0,021	0,020
-514,087	-200,000	-0,048	0,169
-513,072	377,017	0,060	-0,090
-512,058	537,055	-0,022	0,038
-511,043	-74,906	0,138	0,036
-510,029	-116,664	0,141	0,019
-509,014	-80,583	0,068	-0,016
-507,999	49,905	0,027	-0,018
-506,985	-5,284	-0,117	-0,059
-505,970	117,986	0,182	0,164
-504,956	188,765	-0,017	-0,019
-503,941	110,656	-0,054	-0,048
-502,926	68,247	-0,065	0,049
-501,912	-95,242	0,026	-0,005
-500,897	157,956	-0,057	-0,058
-499,883	800,000	0,017	-0,040
-498,868	-67,491	-0,116	-0,033
-497,853	-200,000	0,021	-0,103
-496,839	-200,000	-0,005	-0,024
-495,824	-200,000	-0,024	0,089
-494,810	-200,000	-0,024	0,096
-493,795	44,221	0,080	-0,054
-492,781	567,011	-0,020	0,035
-491,766	800,000	-0,032	-0,098
-490,751	578,198	0,028	-0,050
-489,737	-200,000	0,015	0,087
-488,722	-75,525	0,067	-0,017
-487,708	61,291	0,067	0,049
-486,693	5,648	-0,017	0,009
-485,678	664,654	-0,042	0,079
-484,664	0,374	-0,137	-0,071
-483,649	21,003	0,045	-0,027
-482,635	23,578	-0,063	0,038
-481,620	-115,155	0,058	-0,008
-480,605	-55,807	-0,017	-0,006
-479,591	-131,376	0,081	-0,008
-478,576	385,088	0,028	-0,042
-477,562	-68,593	-0,056	0,016
-476,547	-200,000	0,008	-0,065
-475,532	800,000	-0,051	0,113
-474,518	261,824	-0,027	-0,035
-473,503	47,939	0,064	0,044
-472,489	800,000	0,061	-0,164
-471,474	-46,559	0,100	-0,036
-470,459	-200,000	0,011	-0,063
-469,445	-200,000	0,010	-0,075
-468,430	43,096	0,100	-0,067
-467,416	-130,844	0,020	0,002
-466,401	-99,800	0,114	0,021
-465,386	-66,011	-0,100	-0,029
-464,372	17,632	-0,102	-0,059
-463,357	457,276	0,055	0,090
-462,343	17,229	-0,027	-0,016
-461,328	-140,550	0,043	0,003
-460,313	-132,246	0,059	0,006
-459,299	5,474	0,148	0,080
-458,284	-65,957	0,047	-0,014
-457,270	1,584	0,018	0,009
-456,255	-175,377	-0,071	-0,001
-455,241	629,992	-0,034	-0,064
-454,226	-200,000	0,036	0,172
-453,211	82,503	0,071	-0,056
-452,197	-200,000	-0,014	0,047
-451,182	-100,585	-0,097	0,017
-450,168	321,886	0,024	0,033
-449,153	-64,804	0,117	0,034
-448,138	377,392	-0,048	-0,071
-447,124	-200,000	-0,002	-0,006
-446,109	800,000	0,048	-0,146
-445,095	-200,000	0,009	0,056
-444,080	-200,000	-0,001	-0,144
-443,065	-200,000	0,003	-0,038
-442,051	68,710	-0,069	-0,051
-441,036	-200,000	0,004	-0,015
-440,022	-15,931	-0,032	0,015
-439,007	-3,673	0,092	0,046
-437,992	-200,000	0,011	0,055
-436,978	-73,679	0,070	-0,018
-435,963	76,060	0,013	-0,010
-434,949	-200,000	-0,006	0,089
-433,934	-200,000	-0,012	-0,103
-432,919	30,942	0,139	0,087
-431,905	207,269	-0,016	0,018
-430,890	120,507	0,027	0,025
-429,876	276,501	0,051	-0,066
-428,861	-32,041	0,077	-0,031
-427,846	-200,000	-0,008	0,046
-426,832	-164,039	-0,107	0,004
-425,817	558,194	0,041	0,072
-424,803	36,604	-0,059	0,038
-423,788	-200,000	-0,010	-0,055
-422,773	-47,806	-0,036	-0,013
-421,759	123,314	0,024	-0,022
-420,744	-200,000	0,020	-0,075
-419,730	606,600	0,027	0,049
-418,715	-200,000	-0,007	-0,036
-417,701	-10,501	-0,049	0,024
-416,686	-200,000	0,031	0,117
-415,671	89,781	0,085	-0,069
-414,657	-200,000	0,012	-0,068
-413,642	-120,306	0,040	-0,005
-412,628	112,294	-0,034	0,030
-411,613	-135,872	-0,150	-0,013
-410,598	800,000	0,023	0,074
-409,584	219,222	-0,106	-0,124
-408,569	76,389	0,066	0,051
-407,555	57,046	0,154	0,109
-406,540	800,000	0,074	0,163
-405,525	-111,374	-0,148	0,022
-404,511	161,450	-0,041	-0,042
-403,496	269,265	-0,132	0,168
-402,482	-200,000	-0,017	0,070
-401,467	-200,000	-0,003	0,033
-400,452	-60,337	-0,081	-0,025
-399,438	800,000	-0,040	-0,088
-398,423	45,630	0,023	0,015
-397,409	-153,115	-0,134	0,007
-396,394	365,412	0,086	-0,126
-395,379	76,495	0,110	0,085
-394,365	337,119	0,045	0,064
-393,350	591,359	-0,029	0,053
-392,336	364,753	0,021	-0,031
-391,321	-200,000	0,006	0,052
-390,306	800,000	-0,012	0,032
-389,292	-21,084	-0,139	-0,062
-388,277	190,314	0,042	-0,046
-387,263	-200,000	0,005	0,051
-386,248	483,096	0,067	0,110
-385,233	-125,072	0,168	0,018
-384,219	787,362	-0,037	0,073
-383,204	800,000	0,041	-0,086
-382,190	209,544	-0,069	-0,079
-381,175	-25,473	-0,090	0,039
-380,160	265,868	-0,024	-0,031
-379,146	-56,723	-0,022	-0,007
-378,131	800,000	-0,025	0,073
-377,117	800,000	0,023	-0,065
-376,102	68,999	-0,038	-0,029
-375,088	-162,990	-0,125	-0,004
-374,073	-119,637	0,087	0,011
-373,058	800,000	-0,010	0,024
-372,044	-200,000	0,022	0,080
-371,029	-124,428	-0,029	-0,003
-370,015	-200,000	0,011	-0,053
-369,000	8,705	-0,059	0,032
-367,985	800,000	-0,031	-0,070
-366,971	758,800	-0,049	-0,097
-365,956	47,947	0,068	0,046
-364,942	273,770	-0,087	0,112
-363,927	-18,868	-0,069	0,031
-362,912	-200,000	0,025	0,092
-361,898	-200,000	-0,001	0,038
-360,883	-200,000	-0,000	-0,040
-359,869	-63,129	-0,085	-0,025
-358,854	261,195	-0,117	-0,148
-357,839	-137,261	0,037	-0,003
-356,825	800,000	0,023	0,053
-355,810	317,966	-0,067	-0,092
-354,796	-19,751	0,026	-0,012
-353,781	315,490	0,061	-0,083
-352,766	-26,778	-0,082	0,034
-351,752	-15,659	0,018	0,009
-350,737	-200,000	0,002	0,026
-349,723	-31,696	0,047	-0,019
-348,708	-89,147	-0,123	-0,026
-347,693	49,274	0,055	0,037
-346,679	-60,582	-0,128	0,039
-345,664	-30,916	0,053	-0,022
-344,650	-109,364	-0,067	-0,010
-343,635	-120,103	0,184	-0,023
-342,620	127,707	0,088	0,081
-341,606	43,495	-0,039	0,026
-340,591	800,000	-0,039	0,110
-339,577	217,286	-0,113	-0,131
-338,562	339,825	0,104	-0,147
-337,548	-127,215	-0,113	-0,012
-336,533	296,896	-0,061	0,081
-335,518	77,547	0,130	0,100
-334,504	-200,000	-0,007	-0,029
-333,489	-200,000	-0,027	0,105
-332,475	-200,000	0,027	0,114
-331,460	800,000	-0,027	-0,081
-330,445	187,591	-0,066	0,071
-329,431	-200,000	0,016	0,058
-328,416	162,809	0,068	0,070
-327,402	152,705	-0,030	0,030
-326,387	-200,000	0,026	0,090
-325,372	-25,087	0,053	-0,023
-324,358	-200,000	-0,003	-0,121
-323,343	552,910	-0,041	-0,073
-322,329	178,190	0,009	-0,009
-321,314	73,841	-0,059	-0,045
-320,299	509,587	-0,051	0,087
-319,285	-62,301	0,175	-0,052
-318,270	28,698	-0,136	-0,083
-317,256	-125,303	0,059	-0,006
-316,241	252,696	0,048	0,059
-315,226	-51,556	-0,084	-0,028
-314,212	-200,000	-0,005	-0,043
-313,197	25,286	-0,086	0,052
-312,183	-200,000	0,003	0,029
-311,168	-60,219	-0,017	0,005
-310,153	-60,725	-0,167	-0,051
-309,139	800,000	0,070	0,142
-308,124	-57,622	-0,061	0,019
-307,110	-81,326	0,055	-0,013
-306,095	459,910	0,043	0,069
-305,080	-65,535	-0,032	-0,009
-304,066	-156,609	0,034	-0,001
-303,051	-72,629	-0,141	-0,037
-302,037	800,000	0,030	-0,085
-301,022	142,224	0,062	-0,059
-300,008	-200,000	-0,000	-0,024
-298,993	800,000	0,008	-0,019
-297,978	-170,645	0,087	-0,002
-296,964	-200,000	-0,021	-0,077
-295,949	-169,692	0,050	-0,001
-294,935	-159,630	0,096	-0,004
-293,920	414,519	-0,051	0,079
-292,905	754,332	-0,102	0,200
-291,891	-22,348	0,115	0,050
-290,876	348,207	0,041	0,059
-289,862	171,697	-0,086	-0,090
-288,847	-74,627	-0,022	0,006
-287,832	800,000	-0,035	0,078
-286,818	-77,817	0,052	-0,013
-285,803	-30,231	0,096	0,039
-284,789	800,000	-0,018	0,055
-283,774	-200,000	-0,011	0,113
-282,759	-118,188	-0,056	0,007
-281,745	-115,361	0,052	0,007
-280,730	-200,000	0,031	-0,144
-279,716	-200,000	0,005	-0,028
-278,701	375,479	-0,066	0,098
-277,686	-63,693	0,130	-0,038
-276,672	-19,582	0,247	-0,110
-275,657	800,000	0,010	0,021
-274,643	144,752	-0,094	-0,091
-273,628	32,909	-0,042	-0,026
-272,613	751,652	0,044	-0,085
-271,599	-193,804	0,112	0,001
-270,584	329,367	0,076	-0,106
-269,570	-167,728	0,096	-0,003
-268,555	-200,000	0,003	0,073
-267,540	-68,178	0,049	-0,014
-266,526	-36,871	-0,157	-0,061
-265,511	568,250	0,049	0,086
-264,497	233,363	-0,082	0,097
-263,482	-148,716	0,004	0,000
-262,467	-8,472	0,053	0,026
-261,453	123,340	0,054	0,049
-260,438	800,000	-0,036	-0,101
-259,424	-70,587	0,093	-0,025
-258,409	159,608	-0,051	0,052
-257,395	-142,277	0,086	0,006
-256,380	-200,000	0,007	-0,049
-255,365	-166,501	0,036	-0,001
-254,351	-200,000	0,012	-0,044
-253,336	10,699	0,126	-0,069
-252,322	800,000	-0,037	-0,097
-251,307	-36,379	-0,076	-0,029
-250,292	45,175	-0,120	-0,080
-249,278	800,000	0,029	0,092
-248,263	-124,584	0,077	0,009
-247,249	2,162	-0,081	0,042
-246,234	55,088	-0,068	0,047
-245,219	119,574	0,037	-0,033
-244,205	-24,085	-0,034	0,014
-243,190	-12,134	0,043	0,020
-242,176	-200,000	-0,039	-0,172
-241,161	-200,000	0,003	0,051
-240,146	6,541	0,062	0,033
-239,132	684,802	-0,012	-0,022
-238,117	85,228	0,054	0,043
-237,103	-125,943	-0,045	0,005
-236,088	128,156	-0,022	0,020
-235,073	800,000	-0,007	0,020
-234,059	-200,000	-0,015	0,063
-233,044	743,149	0,018	-0,036
-232,030	800,000	-0,056	0,113
-231,015	-200,000	0,013	-0,074
-230,000	39,250	0,018	-0,011
-228,986	-69,796	-0,103	0,028
-227,971	153,379	0,019	-0,018
-226,957	800,000	-0,017	0,043
-225,942	-113,308	0,115	0,016
-224,927	800,000	-0,033	-0,073
-223,913	-34,944	-0,056	0,022
-222,898	-200,000	-0,015	-0,190
-221,884	75,142	-0,205	-0,156
-220,869	-200,000	-0,009	0,139
-219,855	-137,083	-0,050	0,004
-218,840	-62,910	0,107	-0,032
-217,825	74,657	-0,016	-0,012
-216,811	-200,000	-0,000	-0,002
-215,796	133,678	0,139	-0,130
-214,782	-52,534	-0,156	-0,052
-213,767	-200,000	0,048	0,193
-212,752	412,699	0,013	0,019
-211,738	-200,000	0,007	0,079
-210,723	55,614	-0,040	0,028
-209,709	361,005	-0,033	-0,048
-208,694	302,889	-0,039	-0,053
-207,679	166,171	-0,130	-0,133
-206,665	-200,000	0,044	-0,163
-205,650	114,834	0,080	0,071
-204,636	497,519	0,047	0,079
-203,621	-62,377	-0,229	0,068
-202,606	-200,000	0,002	0,050
-201,592	-200,000	-0,023	-0,174
-200,577	79,307	-0,069	-0,053
-199,563	53,722	0,062	-0,043
-198,548	-33,704	0,050	-0,020
-197,533	-200,000	0,011	0,038
-196,519	800,000	-0,035	0,080
-195,504	-61,430	0,148	-0,045
-194,490	624,140	-0,039	0,072
-193,475	371,437	-0,055	0,080
-192,460	800,000	0,033	0,080
-191,446	800,000	-0,031	-0,077
-190,431	10,515	0,106	0,058
-189,417	800,000	0,045	-0,128
-188,402	15,792	-0,058	-0,033
-187,387	-200,000	-0,003	-0,144
-186,373	800,000	0,061	-0,140
-185,358	-83,656	0,045	0,010
-184,344	196,295	0,007	-0,008
-183,329	-200,000	0,033	-0,119
-182,315	-200,000	0,003	0,062
-181,300	800,000	-0,041	-0,087
-180,285	566,585	-0,034	-0,060
-179,271	800,000	-0,042	-0,110
-178,256	568,246	0,069	0,121
-177,242	-126,882	0,013	-0,001
-176,227	-117,898	0,086	-0,011
-175,212	426,137	-0,087	0,135
-174,198	-57,384	0,071	0,022
-173,183	456,712	-0,043	-0,069
-172,169	-200,000	0,026	0,093
-171,154	-200,000	-0,007	-0,047
-170,139	-200,000	0,008	0,142
-169,125	435,048	0,068	0,107
-168,110	-200,000	-0,010	0,061
-167,096	-200,000	0,022	-0,072
-166,081	800,000	0,011	-0,033
-165,066	62,659	0,097	-0,070
-164,052	-200,000	0,013	-0,115
-163,037	-200,000	0,017	-0,142
-162,023	-200,000	0,024	-0,085
-161,008	97,503	-0,080	0,066
-159,993	-94,320	0,097	-0,019
-158,979	156,933	-0,032	-0,031
-157,964	800,000	-0,017	-0,052
-156,950	-1,463	-0,152	0,077
-155,935	23,634	0,065	-0,038
-154,920	449,415	0,089	-0,142
-153,906	-34,712	0,082	0,032
-152,891	20,451	-0,052	0,030
-151,877	800,000	0,046	-0,113
-150,862	-163,823	-0,153	0,005
-149,847	277,066	0,023	-0,029
-148,833	-87,024	0,074	0,016
-147,818	-64,162	0,232	0,068
-146,804	800,000	-0,037	0,078
-145,789	-61,520	-0,009	-0,003
-144,775	-109,621	-0,073	-0,011
-143,760	47,028	-0,059	-0,040
-142,745	190,850	-0,085	-0,092
-141,731	-134,692	-0,237	-0,021
-140,716	244,945	0,046	0,055
-139,702	237,118	0,047	0,056
-138,687	9,334	-0,047	0,026
-137,672	-200,000	-0,017	0,209
-136,658	21,697	0,078	0,045
-135,643	39,800	0,110	0,071
-134,629	-44,879	-0,039	-0,014
-133,614	-200,000	0,001	-0,020
-132,599	62,895	0,144	-0,104
-131,585	79,865	-0,031	0,024
-130,570	72,792	-0,115	-0,086
-129,556	174,613	0,046	0,048
-128,541	-60,297	0,083	-0,025
-127,526	-72,735	0,036	0,009
-126,512	-200,000	-0,023	-0,081
-125,497	800,000	0,027	0,076
-124,483	-134,025	-0,008	-0,001
-123,468	-200,000	-0,009	0,105
-122,453	-200,000	-0,016	-0,182
-121,439	-200,000	0,006	-0,130
-120,424	-82,517	0,129	0,030
-119,410	800,000	0,037	0,081
-118,395	192,641	-0,076	0,083
-117,380	12,547	0,102	-0,056
-116,366	77,559	-0,054	-0,041
-115,351	295,693	0,081	-0,107
-114,337	4,870	-0,174	-0,092
-113,322	195,531	0,029	-0,032
-112,307	-152,879	-0,011	-0,001
-111,293	800,000	0,023	-0,057
-110,278	-200,000	-0,013	0,045
-109,264	-56,976	0,058	0,018
-108,249	-69,449	-0,181	0,050
-107,234	-61,495	-0,102	-0,031
-106,220	-18,051	0,110	-0,049
-105,205	-200,000	0,010	-0,051
-104,191	45,384	-0,032	-0,021
-103,176	138,247	-0,039	-0,036
-102,162	165,496	-0,061	0,062
-101,147	800,000	-0,031	-0,068
-100,132	-29,931	-0,092	-0,037
-99,118	-13,161	0,094	-0,044
-98,103	-48,224	-0,091	-0,031
-97,089	211,033	0,044	-0,050
-96,074	29,436	-0,182	0,111
-95,059	-200,000	-0,013	0,192
-94,045	-36,939	-0,130	-0,050
-93,030	-53,699	-0,013	-0,004
-92,016	129,574	0,042	-0,039
-91,001	800,000	-0,026	-0,072
-89,986	565,633	0,054	0,095
-88,972	296,314	0,067	0,088
-87,957	-200,000	-0,008	0,067
-86,943	133,027	0,027	0,025
-85,928	268,401	-0,105	-0,132
-84,913	37,458	0,063	-0,040
-83,899	131,884	0,125	-0,116
-82,884	32,155	0,056	-0,034
-81,870	228,359	-0,029	0,034
-80,855	-200,000	0,010	0,142
-79,840	-111,248	-0,145	-0,021
-78,826	146,930	-0,058	0,056
-77,811	9,089	0,062	0,033
-76,797	800,000	0,063	-0,146
-75,782	-200,000	-0,036	-0,143
-74,767	275,751	0,073	-0,093
-73,753	800,000	-0,054	-0,120
-72,738	-200,000	-0,042	-0,158
-71,724	-51,023	-0,149	-0,050
-70,709	-200,000	-0,030	-0,118
-69,694	12,980	-0,068	-0,038
-68,680	-200,000	0,000	0,005
-67,665	-9,350	-0,160	-0,077
-66,651	-160,425	0,029	0,001
-65,636	-52,726	-0,121	-0,040
-64,622	132,788	0,035	0,033
-63,607	131,725	-0,063	0,058
-62,592	-200,000	-0,011	-0,184
-61,578	-83,513	0,067	0,015
-60,563	-200,000	0,001	0,055
-59,549	53,197	-0,062	0,043
-58,534	18,479	-1,962	-1,123
-57,519	-200,000	-0,153	-0,876
-56,505	-200,000	-1,307	-4,850
-55,490	-3,626	0,939	0,467
-54,476	800,000	5,169	11,875
-53,461	-200,000	17,810	289,826
-52,446	800,000	725,613	2230,941
-51,432	537,818	1639,043	2806,170
-50,417	109,839	1629,680	1402,409
-49,403	73,419	1283,745	963,273
-48,388	31,657	1026,201	632,086
-47,373	19,950	988,233	570,134
-46,359	18,331	976,228	557,885
-45,344	15,535	972,444	546,558
-44,330	15,772	971,101	546,556
-43,315	15,331	969,014	543,922
-42,300	15,299	968,063	543,261
-41,286	15,266	967,083	542,583
-40,271	15,224	966,230	541,947
-39,257	15,260	965,218	541,475
-38,242	15,214	964,616	540,967
-37,227	15,277	963,302	540,412
-36,213	15,266	962,714	540,025
-35,198	15,246	961,937	539,503
-34,184	15,312	961,141	539,248
-33,169	15,230	960,200	538,434
-32,154	15,290	959,409	538,164
-31,140	15,296	958,323	537,553
-30,125	15,337	957,714	537,322
-29,111	15,278	956,838	536,619
-28,096	15,288	956,301	536,329
-27,082	15,304	955,488	535,903
-26,067	15,387	954,492	535,588
-25,052	15,228	953,933	534,744
-24,038	15,288	953,190	534,499
-23,023	15,161	952,916	533,915
-22,009	15,279	951,958	533,738
-20,994	15,300	951,232	533,376
-19,979	15,291	950,853	533,113
-18,965	15,291	949,974	532,598
-17,950	15,248	949,661	532,264
-16,936	15,253	948,977	531,877
-15,921	15,254	948,195	531,419
-14,906	15,210	947,439	530,834
-13,892	15,165	946,772	530,298
-12,877	15,149	946,166	529,885
-11,863	15,155	945,610	529,571
-10,848	15,160	944,970	529,208
-9,833	15,295	944,613	529,415
-8,819	15,281	943,792	528,891
-7,804	15,162	943,340	528,241
-6,790	15,195	942,666	527,944
-5,775	15,203	942,208	527,692
-4,760	15,210	941,446	527,267
-3,746	15,182	940,867	526,833
-2,731	15,062	940,186	526,051
-1,717	14,971	939,617	525,426
-0,702	14,957	938,939	524,982
0,313	14,821	938,209	524,936
1,327	18,223	936,314	534,540
2,342	27,407	790,155	475,300
3,356	23,951	444,611	262,305
4,371	-5,589	295,058	144,588
5,386	-9,510	276,685	131,863
6,400	-10,679	270,913	128,015
7,415	-10,753	268,594	126,840
8,429	-10,867	267,161	126,049
9,444	-10,913	266,293	125,586
10,459	-11,044	265,713	125,182
11,473	-11,139	265,200	124,843
12,488	-11,141	264,559	124,528
13,502	-11,401	263,949	123,995
14,517	-11,229	263,588	123,970
15,531	-11,279	263,403	123,826
16,546	-11,272	262,954	123,610
17,561	-11,205	262,544	123,466
18,575	-10,932	262,136	123,509
19,590	-11,174	261,714	123,082
20,604	-11,298	261,538	122,878
21,619	-11,038	261,173	122,927
22,634	-11,088	260,915	122,750
23,648	-11,280	260,480	122,364
24,663	-11,173	260,304	122,366
25,677	-11,294	259,979	122,095
26,692	-11,132	259,617	122,057
27,707	-11,388	259,556	121,791
28,721	-11,290	259,367	121,778
29,736	-11,456	258,901	121,401
30,750	-11,484	258,784	121,311
31,765	-11,441	258,355	121,137
32,780	-11,127	258,202	121,332
33,794	-11,143	257,857	121,144
34,809	-11,260	257,652	120,935
35,823	-11,366	257,426	120,724
36,838	-11,209	257,233	120,761
37,853	-11,345	256,925	120,486
38,867	-11,377	256,745	120,363
39,882	-11,416	256,432	120,171
40,896	-11,373	256,390	120,178
41,911	-11,415	256,060	119,977
42,926	-11,431	255,879	119,867
43,940	-11,530	255,600	119,639
44,955	-11,464	255,383	119,585
45,969	-11,529	255,016	119,346
46,984	-11,883	254,908	118,976
47,999	-11,953	254,526	118,726
49,013	-12,196	254,374	118,434
50,028	-12,114	254,059	118,348
51,042	-12,178	253,790	118,156
52,057	-12,344	253,580	117,905
53,071	-12,288	253,354	117,838
54,086	-12,042	253,196	117,966
55,101	-12,113	253,059	117,830
56,115	-11,794	252,925	118,033
57,130	-11,244	252,811	118,443
58,144	-11,209	252,774	118,446
59,159	-11,017	252,328	118,391
60,174	-11,147	252,266	118,240
61,188	-11,048	251,953	118,167
62,203	-11,143	251,812	118,009
63,217	-11,217	251,728	117,896
64,232	-11,241	251,448	117,733
65,247	-11,252	251,248	117,620
66,261	-11,223	250,942	117,491
67,276	-11,361	250,512	117,162
68,290	-11,518	250,308	116,922
69,305	-11,701	250,095	116,656
70,320	-11,848	250,021	116,485
71,334	-11,576	249,843	116,624
72,349	-11,348	249,762	116,770
73,363	-11,123	249,547	116,850
74,378	-11,199	249,286	116,653
75,393	-11,149	249,143	116,617
76,407	-11,382	248,885	116,289
77,422	-11,419	248,837	116,226
78,436	-11,031	248,423	116,350
79,451	-11,050	248,207	116,222
80,466	-11,260	247,829	115,858
81,480	-11,283	247,708	115,771
82,495	-11,521	247,631	115,524
83,509	-11,514	247,370	115,398
84,524	-11,695	247,142	115,129
85,539	-11,555	246,844	115,098
86,553	-11,717	246,811	114,936
87,568	-11,636	246,627	114,908
88,582	-11,819	246,583	114,724
89,597	-11,693	246,263	114,670
90,611	-11,625	246,144	114,662
91,626	-11,460	245,987	114,716
92,641	-11,367	245,822	114,707
93,655	-11,229	245,508	114,665
94,670	-11,444	245,356	114,404
95,684	-11,458	245,144	114,284
96,699	-11,494	245,033	114,192
97,714	-11,550	244,738	113,998
98,728	-11,714	244,567	113,772
99,743	-11,756	244,226	113,568
100,757	-11,894	244,016	113,346
101,772	-11,732	243,933	113,431
102,787	-11,705	243,757	113,362
103,801	-11,570	243,625	113,403
104,816	-11,547	243,578	113,390
105,830	-11,293	243,374	113,494
106,845	-11,172	243,220	113,512
107,860	-11,179	243,102	113,441
108,874	-11,592	242,789	112,945
109,889	-11,454	242,544	112,934
110,903	-11,366	242,328	112,896
111,918	-11,460	242,052	112,680
112,933	-11,522	241,991	112,590
113,947	-11,384	241,949	112,674
114,962	-11,263	241,741	112,667
115,976	-11,352	241,502	112,472
116,991	-11,498	241,203	112,203
118,006	-11,410	241,250	112,287
119,020	-11,361	240,949	112,177
120,035	-11,295	240,899	112,198
121,049	-11,196	240,745	112,197
122,064	-11,260	240,549	112,043
123,079	-11,415	240,273	111,779
124,093	-11,377	240,127	111,732
125,108	-11,684	239,790	111,315
126,122	-11,787	239,689	111,175
127,137	-11,915	239,352	110,905
128,151	-11,771	239,248	110,963
129,166	-11,572	239,014	111,006
130,181	-11,643	238,839	110,858
131,195	-11,743	238,816	110,756
132,210	-11,435	238,580	110,886
133,224	-11,303	238,224	110,817
134,239	-11,337	238,342	110,835
135,254	-11,382	238,176	110,711
136,268	-11,463	237,867	110,493
137,283	-11,985	237,838	110,049
138,297	-11,814	237,410	109,978
139,312	-11,882	237,192	109,813
140,327	-11,679	237,169	109,955
141,341	-11,132	237,194	110,396
142,356	-11,098	237,028	110,337
143,370	-11,110	236,928	110,270
144,385	-11,048	236,715	110,211
145,400	-10,778	236,393	110,267
146,414	-10,839	236,306	110,168
147,429	-11,009	236,053	109,904
148,443	-11,376	236,016	109,585
149,458	-11,213	235,828	109,618
150,473	-11,036	235,591	109,638
151,487	-11,013	235,338	109,529
152,502	-11,049	235,161	109,409
153,516	-10,948	235,174	109,485
154,531	-11,031	234,895	109,280
155,546	-11,046	234,631	109,135
156,560	-11,116	234,633	109,071
157,575	-11,169	234,288	108,859
158,589	-11,424	234,271	108,639
159,604	-10,943	234,096	108,929
160,619	-10,893	233,973	108,901
161,633	-10,770	233,786	108,901
162,648	-10,990	233,683	108,670
163,662	-11,189	233,639	108,484
164,677	-11,317	233,402	108,263
165,692	-11,066	233,211	108,363
166,706	-11,017	233,121	108,350
167,721	-10,989	232,975	108,294
168,735	-10,931	232,687	108,196
169,750	-10,991	232,751	108,169
170,764	-11,108	232,446	107,926
171,779	-11,107	232,352	107,873
172,794	-10,660	232,072	108,084
173,808	-10,979	231,901	107,745
174,823	-11,752	231,570	106,977
175,837	-11,793	231,419	106,866
176,852	-11,326	231,485	107,252
177,867	-11,272	231,457	107,271
178,881	-11,085	231,263	107,318
179,896	-10,834	231,051	107,406
180,910	-10,934	230,871	107,234
181,925	-10,934	230,700	107,145
182,940	-10,959	230,573	107,057
183,954	-10,974	230,399	106,955
184,969	-10,858	230,396	107,034
185,983	-10,824	230,074	106,902
186,998	-10,736	229,932	106,894
188,013	-10,728	229,751	106,807
189,027	-10,786	229,640	106,701
190,042	-10,841	229,550	106,607
191,056	-10,953	229,437	106,458
192,071	-11,024	229,312	106,336
193,086	-10,851	229,053	106,340
194,100	-10,840	228,847	106,244
195,115	-11,077	228,512	105,896
196,129	-11,131	228,602	105,887
197,144	-5,300	230,510	111,282
198,159	0,664	232,081	116,672
199,173	2,971	232,795	118,816
200,188	3,163	232,613	118,862
201,202	3,301	232,487	118,894
202,217	3,548	232,539	119,102
203,232	3,642	232,483	119,135
204,246	3,635	232,296	119,024
205,261	4,055	232,085	119,231
206,275	4,257	231,987	119,326
207,290	4,218	231,822	119,200
208,304	4,166	231,576	119,022
209,319	4,109	231,554	118,957
210,334	3,952	231,198	118,643
211,348	3,759	231,092	118,428
212,363	3,576	230,773	118,113
213,377	3,047	230,758	117,688
214,392	3,109	230,489	117,588
215,407	3,250	230,473	117,677
216,421	3,347	230,277	117,642
217,436	3,486	230,045	117,620
218,450	3,037	229,733	117,105
219,465	3,090	229,629	117,082
220,480	3,254	229,602	117,183
221,494	3,008	229,390	116,877
222,509	3,152	229,407	116,986
223,523	3,371	229,166	117,019
224,538	2,926	229,070	116,620
225,553	3,338	228,841	116,807
226,567	3,304	228,815	116,758
227,582	3,468	228,641	116,784
228,596	3,557	228,668	116,854
229,611	3,289	228,320	116,462
230,626	3,114	228,023	116,168
231,640	3,194	227,837	116,123
232,655	3,234	228,058	116,256
233,669	3,914	227,835	116,648
234,684	3,885	227,753	116,574
235,699	3,406	227,594	116,119
236,713	3,402	227,220	115,915
237,728	3,167	227,078	115,655
238,742	3,110	227,001	115,562
239,757	3,349	226,800	115,629
240,772	3,186	226,618	115,403
241,786	3,147	226,442	115,274
242,801	3,346	226,415	115,400
243,815	3,621	226,386	115,582
244,830	3,597	226,121	115,418
245,844	3,321	226,031	115,155
246,859	3,337	225,839	115,058
247,874	3,620	225,646	115,163
248,888	3,570	225,622	115,103
249,903	3,398	225,328	114,813
250,917	3,317	225,105	114,629
251,932	3,204	224,952	114,456
252,947	3,387	224,705	114,457
253,961	3,237	224,703	114,334
254,976	3,194	224,463	114,169
255,990	3,644	224,395	114,460
257,005	3,450	224,324	114,269
258,020	3,522	224,176	114,237
259,034	3,750	224,136	114,376
260,049	3,668	223,953	114,212
261,063	3,336	223,915	113,936
262,078	3,633	223,606	113,988
263,093	4,010	223,404	114,155
264,107	3,391	223,355	113,661
265,122	3,593	223,250	113,746
266,136	3,794	223,169	113,844
267,151	3,549	223,104	113,619
268,166	3,352	222,731	113,274
269,180	2,835	222,513	112,771
270,195	2,912	222,392	112,756
271,209	3,087	222,165	112,760
272,224	3,219	222,134	112,832
273,239	3,308	222,007	112,823
274,253	3,243	221,833	112,676
275,268	2,917	221,723	112,371
276,282	2,897	221,537	112,251
277,297	2,990	221,302	112,191
278,312	3,089	221,237	112,220
279,326	3,468	221,133	112,436
280,341	3,191	220,923	112,116
281,355	3,325	220,887	112,186
282,370	3,396	220,667	112,117
283,384	2,984	220,497	111,718
284,399	2,931	220,423	111,632
285,414	2,913	220,243	111,518
286,428	3,294	220,026	111,676
287,443	3,501	220,058	111,833
288,457	3,579	219,928	111,814
289,472	3,050	219,631	111,268
290,487	2,743	219,425	110,930
291,501	2,737	219,291	110,848
292,516	3,099	219,212	111,062
293,530	3,083	218,975	110,920
294,545	2,941	218,949	110,794
295,560	3,125	218,827	110,856
296,574	3,224	218,621	110,813
297,589	3,261	218,486	110,762
298,603	3,218	218,522	110,739
299,618	3,343	218,275	110,694
300,633	3,222	218,315	110,617
301,647	3,407	218,170	110,668
302,662	3,546	218,021	110,682
303,676	3,410	217,852	110,489
304,691	3,444	217,707	110,430
305,706	3,452	217,534	110,338
306,720	3,619	217,426	110,394
307,735	3,140	217,102	109,875
308,749	2,980	217,105	109,752
309,764	3,538	216,958	110,068
310,779	3,335	216,989	109,928
311,793	3,559	216,681	109,924
312,808	3,279	216,584	109,664
313,822	3,306	216,375	109,567
314,837	3,207	216,290	109,444
315,852	2,969	216,094	109,164
316,866	3,100	216,036	109,219
317,881	3,340	216,050	109,388
318,895	3,371	215,773	109,260
319,910	3,288	215,499	109,052
320,925	3,100	215,333	108,825
321,939	2,950	215,139	108,610
322,954	2,984	215,087	108,598
323,968	3,121	215,099	108,693
324,983	3,095	214,836	108,531
325,997	3,387	214,765	108,693
327,012	3,725	214,670	108,875
328,027	3,560	214,538	108,682
329,041	3,727	214,558	108,800
330,056	3,476	214,495	108,581
331,070	3,240	214,103	108,206
332,085	3,241	213,799	108,043
333,100	3,102	213,726	107,898
334,114	3,250	213,717	107,989
335,129	3,492	213,439	108,009
336,143	3,276	213,301	107,778
337,158	3,377	213,134	107,755
338,173	3,314	212,999	107,633
339,187	3,304	212,846	107,539
340,202	2,801	212,682	107,093
341,216	3,023	212,642	107,219
342,231	3,167	212,510	107,244
343,246	2,991	212,540	107,126
344,260	3,003	212,317	107,012
345,275	3,277	212,115	107,093
346,289	3,302	212,052	107,069
347,304	3,384	211,891	107,036
348,319	3,177	211,822	106,847
349,333	3,221	211,680	106,797
350,348	3,464	211,443	106,836
351,362	3,799	211,462	107,070
352,377	3,506	211,280	106,764
353,392	3,234	211,162	106,506
354,406	3,204	211,208	106,499
355,421	194,973	1339,597	1415,593
356,435	155,718	1477,038	1415,556
