DTS Sentinel unit serial number:	SN410029Multiplexer serial number:	ORYXHardware model number:	OX2-SRSoftware version number:	ORYX F/W v4,00 Oryx Data Collector v3.7.2.0data status	okinstallation	B6 Nyhavnadifferential loss correction	single-endedforward channel	channel 2reverse channel	N/Adate	2023/12/08time	21:10:08forward acquisition time	300,00reverse acquisition time	0,00gamma	499,1914k internal	0,3158k external	0,3158temperature offset calibration	1,0000default loss term (dB/km)	0,3820temperature slope calibration	1,0000multiplexer offset coefficient	1,0000multiplexer slope coefficient	1,0000fibre end	0,00T internal ref (°C)	15,22T ext. ref 1 (°C)	-1,35T ext. ref 2 (°C)	-1,35length (m)	temperature (°C)	Stokes	anti-Stokes-744,400	16,240	0,071	-0,041
-743,385	-143,597	-0,291	-0,020
-742,371	-200,000	-0,039	0,143
-741,356	-42,243	-0,178	0,067
-740,342	-166,077	0,199	-0,006
-739,327	-95,177	-0,306	-0,060
-738,312	-200,000	0,015	-0,145
-737,298	-117,136	-0,324	0,043
-736,283	-34,097	0,134	0,054
-735,269	-6,972	-0,179	0,089
-734,254	108,855	0,082	-0,073
-733,239	-96,534	-0,515	-0,099
-732,225	128,462	0,187	0,176
-731,210	-91,332	-0,092	0,019
-730,196	70,624	0,058	0,045
-729,181	-200,000	0,025	-0,082
-728,167	19,587	-0,059	0,035
-727,152	-91,113	-0,049	-0,010
-726,137	-48,499	-0,048	0,017
-725,123	-139,764	-0,139	-0,011
-724,108	16,960	-0,159	-0,092
-723,094	-200,000	-0,014	-0,086
-722,079	106,538	0,137	-0,120
-721,064	-200,000	-0,011	-0,083
-720,050	217,875	0,043	0,050
-719,035	115,321	0,114	-0,103
-718,021	644,658	-0,113	0,213
-717,006	199,514	0,062	-0,070
-715,991	225,030	-0,067	-0,080
-714,977	-200,000	-0,000	-0,026
-713,962	150,770	-0,012	-0,012
-712,948	-106,221	-0,084	-0,014
-711,933	-179,715	-0,058	0,001
-710,918	488,184	-0,023	0,039
-709,904	-200,000	-0,031	-0,109
-708,889	528,638	-0,098	-0,171
-707,875	507,521	0,019	-0,033
-706,860	-112,597	0,040	0,006
-705,845	-200,000	0,001	-0,006
-704,831	800,000	-0,065	0,200
-703,816	-145,289	-0,085	0,006
-702,802	-25,998	-0,074	0,032
-701,787	-200,000	0,040	-0,142
-700,772	53,125	-0,048	0,034
-699,758	165,856	0,067	-0,069
-698,743	-5,622	0,116	-0,059
-697,729	-200,000	0,013	-0,165
-696,714	20,022	-0,064	-0,038
-695,699	-107,235	0,179	-0,029
-694,685	619,333	0,029	0,054
-693,670	-125,031	-0,229	-0,026
-692,656	-117,714	0,109	0,014
-691,641	109,509	0,061	0,054
-690,627	-200,000	-0,001	-0,092
-689,612	800,000	-0,007	-0,015
-688,597	140,266	-0,145	-0,141
-687,583	-151,053	-0,132	-0,007
-686,568	-90,463	-0,066	-0,014
-685,554	89,284	-0,046	-0,038
-684,539	82,368	-0,098	-0,078
-683,524	-152,642	0,028	0,001
-682,510	166,176	-0,067	0,070
-681,495	800,000	0,006	-0,014
-680,481	800,000	-0,044	-0,114
-679,466	53,548	-0,114	-0,081
-678,451	-78,021	-0,138	0,035
-677,437	-141,336	0,076	-0,006
-676,422	-200,000	-0,004	0,072
-675,408	-200,000	-0,018	-0,130
-674,393	-200,000	0,005	-0,049
-673,378	-1,056	-0,115	-0,059
-672,364	800,000	-0,017	0,047
-671,349	2,689	-0,051	-0,027
-670,335	-107,884	0,027	-0,004
-669,320	-108,640	0,033	0,005
-668,305	150,010	-0,073	0,073
-667,291	170,001	0,013	-0,013
-666,276	-25,224	-0,166	-0,072
-665,262	644,060	-0,047	0,088
-664,247	-116,333	-0,074	0,010
-663,232	-200,000	-0,006	0,057
-662,218	-200,000	0,013	0,064
-661,203	-87,077	0,110	0,024
-660,189	-87,160	-0,060	-0,013
-659,174	-48,069	-0,106	-0,038
-658,159	800,000	0,042	-0,088
-657,145	-200,000	-0,005	-0,067
-656,130	-76,012	-0,045	-0,012
-655,116	689,832	0,031	-0,059
-654,101	-52,388	0,141	-0,048
-653,086	-55,612	-0,097	0,032
-652,072	50,748	0,096	-0,066
-651,057	115,600	-0,092	-0,083
-650,043	179,552	-0,087	-0,094
-649,028	84,375	-0,034	-0,028
-648,014	800,000	0,022	-0,058
-646,999	206,691	-0,022	0,025
-645,984	56,641	-0,029	0,020
-644,970	342,469	0,049	-0,071
-643,955	258,644	-0,042	0,053
-642,941	-200,000	0,009	-0,035
-641,926	113,243	0,119	-0,106
-640,911	-200,000	-0,004	0,092
-639,897	199,083	0,038	0,043
-638,882	800,000	0,032	0,099
-637,868	312,441	-0,041	-0,057
-636,853	65,635	-0,036	-0,027
-635,838	-34,519	-0,035	-0,014
-634,824	800,000	-0,037	0,105
-633,809	-168,071	0,179	-0,005
-632,795	-36,156	0,057	-0,023
-631,780	-200,000	0,001	-0,065
-630,765	-80,480	-0,102	0,025
-629,751	105,476	-0,101	0,088
-628,736	32,187	-0,129	-0,081
-627,722	800,000	-0,075	-0,161
-626,707	-92,243	-0,023	0,005
-625,692	46,380	-0,013	-0,009
-624,678	-106,249	-0,144	0,023
-623,663	143,823	0,077	-0,075
-622,649	-112,200	-0,199	-0,029
-621,634	424,598	-0,048	-0,076
-620,619	-200,000	0,001	0,088
-619,605	-200,000	-0,003	0,103
-618,590	722,710	-0,101	0,198
-617,576	400,204	-0,010	0,016
-616,561	800,000	0,035	-0,095
-615,546	31,992	-0,041	0,026
-614,532	-200,000	0,005	-0,070
-613,517	-101,700	-0,087	-0,015
-612,503	103,891	-0,128	0,110
-611,488	-22,791	-0,131	0,058
-610,474	49,700	0,040	0,028
-609,459	-113,874	0,051	0,007
-608,444	-64,082	-0,095	-0,028
-607,430	-186,205	-0,121	0,001
-606,415	-90,661	-0,150	-0,032
-605,401	800,000	-0,034	-0,089
-604,386	88,416	0,067	-0,054
-603,371	304,142	0,042	-0,058
-602,357	104,194	-0,084	-0,073
-601,342	-4,657	-0,043	-0,022
-600,328	451,366	-0,018	-0,029
-599,313	464,546	0,039	-0,064
-598,298	621,495	-0,059	0,109
-597,284	459,293	-0,066	-0,108
-596,269	-98,576	-0,021	-0,004
-595,255	68,256	0,130	0,098
-594,240	-156,772	-0,118	0,005
-593,225	38,028	-0,035	0,023
-592,211	657,540	0,055	0,104
-591,196	-155,965	0,048	-0,002
-590,182	-82,759	-0,074	-0,017
-589,167	562,297	-0,015	0,026
-588,152	-193,897	0,061	0,000
-587,138	46,387	0,136	-0,092
-586,123	53,300	-0,143	-0,100
-585,109	-72,058	-0,063	0,017
-584,094	-98,377	0,162	0,030
-583,079	800,000	-0,027	-0,065
-582,065	209,106	-0,091	0,105
-581,050	-200,000	0,020	0,140
-580,036	800,000	-0,010	0,024
-579,021	-116,557	-0,062	-0,008
-578,006	147,435	0,164	-0,162
-576,992	446,668	-0,095	-0,153
-575,977	-200,000	0,008	-0,036
-574,963	0,436	0,049	0,026
-573,948	-200,000	0,011	0,120
-572,934	577,595	0,026	-0,046
-571,919	-81,397	-0,139	-0,033
-570,904	800,000	-0,048	-0,118
-569,890	131,931	0,088	-0,083
-568,875	-142,248	0,081	0,006
-567,861	-121,763	0,058	-0,007
-566,846	-36,523	0,110	-0,043
-565,831	-200,000	-0,007	-0,134
-564,817	-200,000	0,013	-0,144
-563,802	83,117	0,094	-0,075
-562,788	800,000	0,041	-0,102
-561,773	-200,000	-0,005	0,080
-560,758	-4,791	-0,071	0,036
-559,744	-195,868	0,098	-0,000
-558,729	722,756	-0,041	0,080
-557,715	78,923	-0,093	-0,073
-556,700	-200,000	0,005	-0,069
-555,685	108,993	0,024	-0,021
-554,671	800,000	0,043	-0,129
-553,656	667,590	0,063	0,119
-552,642	197,817	0,055	0,062
-551,627	-44,697	0,092	0,033
-550,612	504,458	0,024	-0,042
-549,598	268,035	-0,034	0,044
-548,583	-124,243	-0,045	0,005
-547,569	800,000	-0,023	0,056
-546,554	51,543	-0,050	0,035
-545,539	-62,244	0,081	-0,025
-544,525	-122,387	-0,087	0,010
-543,510	800,000	-0,039	-0,112
-542,496	108,734	-0,091	0,080
-541,481	-200,000	-0,030	-0,171
-540,466	800,000	-0,084	-0,195
-539,452	14,045	0,067	-0,038
-538,437	-104,537	-0,081	0,014
-537,423	800,000	0,010	-0,031
-536,408	-122,751	0,082	0,010
-535,393	-200,000	0,010	-0,133
-534,379	246,017	-0,096	-0,118
-533,364	-49,994	-0,072	0,025
-532,350	-153,601	0,153	-0,008
-531,335	800,000	0,028	0,064
-530,321	-200,000	-0,022	0,132
-529,306	-200,000	0,004	0,085
-528,291	103,329	-0,072	-0,061
-527,277	432,140	0,036	-0,058
-526,262	-190,647	0,023	0,000
-525,248	285,288	-0,027	-0,036
-524,233	-200,000	-0,009	0,130
-523,218	-51,094	0,134	0,046
-522,204	48,971	-0,065	0,045
-521,189	-17,264	-0,023	-0,010
-520,175	-200,000	0,026	-0,103
-519,160	-200,000	0,001	0,026
-518,145	-2,917	-0,081	0,041
-517,131	-174,548	-0,145	0,003
-516,116	53,928	0,068	0,048
-515,102	13,652	-0,043	-0,024
-514,087	-35,081	0,059	0,023
-513,072	-31,728	-0,128	0,052
-512,058	105,467	-0,095	-0,082
-511,043	-200,000	0,009	-0,048
-510,029	800,000	0,025	0,081
-509,014	-47,371	0,091	0,032
-507,999	-94,085	0,100	-0,020
-506,985	-200,000	0,036	0,000
-505,970	65,480	-0,099	-0,073
-504,956	-10,732	-0,061	-0,029
-503,941	-200,000	-0,002	0,139
-502,926	-4,412	-0,030	-0,015
-501,912	49,129	0,095	0,065
-500,897	800,000	0,041	0,099
-499,883	447,873	-0,064	0,104
-498,868	800,000	0,029	-0,067
-497,853	796,221	-0,055	-0,110
-496,839	91,464	0,115	-0,094
-495,824	98,932	0,070	0,059
-494,810	123,374	0,107	0,098
-493,795	-60,525	-0,042	0,013
-492,781	-200,000	-0,011	-0,160
-491,766	84,393	0,035	0,028
-490,751	-86,477	-0,179	0,040
-489,737	-94,537	-0,066	0,013
-488,722	185,781	-0,019	-0,021
-487,708	42,860	0,073	0,048
-486,693	242,058	0,067	-0,082
-485,678	5,085	0,104	-0,056
-484,664	51,912	-0,064	-0,044
-483,649	800,000	0,021	-0,067
-482,635	19,949	-0,041	0,024
-481,620	800,000	0,019	0,051
-480,605	188,999	0,121	-0,132
-479,591	-200,000	0,025	-0,115
-478,576	51,472	0,045	-0,031
-477,562	2,670	0,100	0,053
-476,547	233,486	-0,107	0,128
-475,532	800,000	0,026	-0,056
-474,518	232,985	0,013	-0,016
-473,503	323,864	-0,041	0,057
-472,489	-64,907	0,046	0,013
-471,474	-16,820	0,050	-0,023
-470,459	-35,194	0,109	0,043
-469,445	231,363	-0,084	-0,101
-468,430	190,238	-0,039	-0,043
-467,416	61,223	-0,025	-0,018
-466,401	-79,904	0,076	-0,018
-465,386	-200,000	0,028	0,091
-464,372	149,998	-0,021	0,021
-463,357	-77,928	-0,054	0,013
-462,343	539,911	0,026	-0,045
-461,328	72,407	0,036	-0,028
-460,313	495,313	0,006	0,010
-459,299	-200,000	0,005	0,077
-458,284	-200,000	0,006	0,193
-457,270	7,132	0,019	0,010
-456,255	800,000	0,057	0,160
-455,241	124,785	0,097	0,089
-454,226	-37,686	-0,019	-0,007
-453,211	-200,000	-0,017	0,086
-452,197	-200,000	0,015	0,139
-451,182	162,449	0,144	-0,148
-450,168	-143,462	-0,061	-0,004
-449,153	686,923	0,054	0,104
-448,138	-200,000	-0,010	-0,063
-447,124	-113,565	0,097	-0,014
-446,109	81,402	-0,152	0,119
-445,095	27,449	-0,040	-0,024
-444,080	-200,000	-0,012	0,071
-443,065	-200,000	-0,004	0,072
-442,051	800,000	-0,052	-0,163
-441,036	51,203	0,024	0,016
-440,022	-88,246	-0,149	-0,032
-439,007	310,953	-0,074	0,101
-437,992	167,497	0,063	0,065
-436,978	-200,000	0,002	0,080
-435,963	66,142	-0,040	-0,029
-434,949	-92,597	0,055	0,011
-433,934	410,318	-0,118	-0,182
-432,919	-200,000	0,004	-0,102
-431,905	-200,000	0,010	-0,095
-430,890	139,515	0,098	0,094
-429,876	374,170	0,070	0,103
-428,861	-200,000	0,006	0,057
-427,846	-153,014	-0,121	0,006
-426,832	-200,000	0,003	-0,068
-425,817	190,544	0,038	0,042
-424,803	800,000	-0,019	-0,058
-423,788	-200,000	-0,007	-0,037
-422,773	800,000	-0,012	0,025
-421,759	51,917	0,028	0,020
-420,744	-178,394	-0,159	-0,003
-419,730	-200,000	0,013	0,059
-418,715	759,469	0,053	-0,106
-417,701	-200,000	0,014	-0,102
-416,686	-200,000	0,001	0,037
-415,671	-50,654	-0,180	0,061
-414,657	-200,000	0,007	0,031
-413,642	178,605	0,035	0,037
-412,628	-200,000	0,014	-0,142
-411,613	-200,000	0,002	-0,130
-410,598	637,472	-0,047	0,087
-409,584	-35,530	0,147	0,058
-408,569	13,464	0,084	0,047
-407,555	181,923	0,070	0,075
-406,540	19,653	0,112	0,065
-405,525	46,976	-0,009	0,006
-404,511	800,000	0,031	-0,069
-403,496	-200,000	-0,003	-0,010
-402,482	90,798	0,064	-0,052
-401,467	158,615	0,041	-0,042
-400,452	-49,437	-0,077	0,027
-399,438	487,020	0,024	-0,039
-398,423	473,689	-0,084	-0,138
-397,409	114,470	0,070	-0,062
-396,394	367,444	0,059	-0,086
-395,379	-200,000	-0,033	-0,121
-394,365	-200,000	-0,005	0,139
-393,350	-200,000	0,000	0,025
-392,336	-84,505	0,161	0,037
-391,321	462,109	-0,027	0,044
-390,306	170,258	-0,042	-0,044
-389,292	323,435	-0,020	-0,028
-388,277	-200,000	-0,023	0,147
-387,263	-12,451	0,048	0,023
-386,248	218,073	0,043	-0,049
-385,233	77,712	-0,005	0,004
-384,219	456,134	0,025	0,041
-383,204	800,000	-0,044	-0,125
-382,190	-200,000	-0,080	0,000
-381,175	-102,417	-0,025	0,004
-380,160	-56,132	-0,081	-0,026
-379,146	123,157	0,108	0,098
-378,131	-192,081	-0,026	0,000
-377,117	381,737	-0,048	0,072
-376,102	-200,000	0,007	0,052
-375,088	29,064	0,108	-0,067
-374,073	-200,000	0,000	0,056
-373,058	-14,502	0,160	0,074
-372,044	-200,000	-0,003	-0,022
-371,029	800,000	0,031	-0,074
-370,015	-124,645	-0,032	0,004
-369,000	-109,373	-0,071	-0,011
-367,985	-72,717	-0,095	0,025
-366,971	608,684	0,112	-0,204
-365,956	740,402	0,040	0,078
-364,942	800,000	0,089	0,214
-363,927	701,423	0,007	-0,013
-362,912	-200,000	0,005	0,222
-361,898	360,124	0,024	0,035
-360,883	-148,177	-0,135	-0,008
-359,869	-200,000	0,014	-0,144
-358,854	-103,066	-0,043	0,007
-357,839	-200,000	0,034	0,228
-356,825	-200,000	-0,045	0,147
-355,810	185,217	0,063	0,068
-354,796	800,000	0,038	0,097
-353,781	-107,570	-0,061	-0,010
-352,766	703,026	0,026	0,050
-351,752	225,800	-0,055	0,065
-350,737	-61,090	0,185	0,056
-349,723	-83,342	0,105	0,024
-348,708	-200,000	0,019	0,079
-347,693	281,477	0,036	-0,047
-346,679	283,831	-0,021	-0,028
-345,664	-145,182	-0,069	-0,004
-344,650	800,000	0,024	-0,071
-343,635	-200,000	-0,008	0,168
-342,620	-200,000	0,156	0,000
-341,606	-200,000	-0,013	0,052
-340,591	6,370	-0,176	-0,094
-339,577	177,990	-0,078	-0,083
-338,562	522,605	-0,049	-0,085
-337,548	118,979	-0,162	-0,146
-336,533	-2,975	-0,042	-0,021
-335,518	800,000	0,025	0,062
-334,504	-3,748	0,056	0,028
-333,489	-200,000	-0,004	-0,063
-332,475	39,597	0,066	0,043
-331,460	-142,007	-0,133	-0,009
-330,445	-104,502	0,151	-0,025
-329,431	524,948	-0,037	-0,063
-328,416	279,606	0,053	-0,069
-327,402	-177,809	0,135	-0,002
-326,387	41,744	-0,043	0,028
-325,372	-200,000	-0,001	-0,082
-324,358	-200,000	-0,015	-0,151
-323,343	-116,224	-0,025	0,003
-322,329	79,019	0,076	0,059
-321,314	-200,000	0,037	0,192
-320,299	324,234	0,052	-0,073
-319,285	243,784	-0,042	-0,052
-318,270	247,683	0,073	-0,089
-317,256	256,080	0,066	0,082
-316,241	388,296	0,046	0,069
-315,226	-200,000	0,012	0,142
-314,212	800,000	0,010	0,022
-313,197	-200,000	0,022	0,071
-312,183	-200,000	-0,022	0,110
-311,168	502,809	-0,065	-0,110
-310,153	-126,867	-0,102	-0,011
-309,139	-23,649	-0,110	-0,047
-308,124	-200,000	0,031	0,161
-307,110	-101,790	-0,085	0,015
-306,095	-200,000	-0,005	0,084
-305,080	-93,283	0,068	-0,014
-304,066	-46,902	-0,273	-0,096
-303,051	202,323	-0,118	-0,132
-302,037	88,466	0,052	0,042
-301,022	-23,068	-0,101	0,044
-300,008	800,000	-0,085	0,182
-298,993	362,168	0,056	-0,081
-297,978	-44,242	0,141	-0,051
-296,964	-200,000	-0,013	-0,125
-295,949	157,083	-0,089	0,090
-294,935	598,439	0,103	-0,186
-293,920	292,958	-0,038	0,050
-292,905	620,243	-0,054	-0,100
-291,891	-200,000	-0,019	0,067
-290,876	36,701	-0,045	-0,029
-289,862	-200,000	0,009	0,064
-288,847	-200,000	-0,016	0,122
-287,832	-200,000	0,005	-0,056
-286,818	180,754	0,117	0,125
-285,803	203,189	-0,051	0,057
-284,789	-200,000	-0,001	0,055
-283,774	800,000	0,038	0,103
-282,759	800,000	0,019	0,057
-281,745	126,243	-0,094	-0,086
-280,730	-200,000	0,001	-0,061
-279,716	-200,000	-0,000	0,054
-278,701	-200,000	0,011	0,057
-277,686	87,637	-0,024	-0,019
-276,672	108,068	-0,092	0,079
-275,657	-200,000	0,009	-0,112
-274,643	-98,544	0,075	0,014
-273,628	-200,000	-0,006	-0,145
-272,613	-140,433	-0,061	0,004
-271,599	119,939	-0,051	0,045
-270,584	-200,000	-0,021	0,093
-269,570	-200,000	0,021	0,110
-268,555	29,010	-0,021	-0,013
-267,540	219,698	0,057	-0,066
-266,526	93,357	-0,022	-0,018
-265,511	-157,595	0,012	-0,000
-264,497	99,035	-0,046	0,038
-263,482	112,846	-0,028	0,025
-262,467	-200,000	-0,006	0,047
-261,453	-200,000	0,013	0,064
-260,438	-200,000	-0,017	0,105
-259,424	127,599	-0,064	0,059
-258,409	-200,000	0,024	-0,083
-257,395	68,190	0,112	-0,083
-256,380	-200,000	0,014	0,136
-255,365	98,166	0,086	-0,071
-254,351	223,111	0,033	0,038
-253,336	-23,587	0,084	-0,036
-252,322	-200,000	0,075	0,000
-251,307	484,337	-0,037	-0,062
-250,292	800,000	-0,019	-0,046
-249,278	286,805	0,022	0,029
-248,263	28,578	0,042	0,026
-247,249	341,000	0,058	0,082
-246,234	3,748	0,035	-0,019
-245,219	800,000	0,029	-0,081
-244,205	-76,422	-0,071	0,018
-243,190	-156,479	0,114	-0,005
-242,176	800,000	-0,048	0,102
-241,161	33,570	0,199	0,125
-240,146	176,413	-0,062	0,065
-239,132	800,000	-0,016	0,037
-238,117	-38,023	-0,132	-0,050
-237,103	-200,000	0,037	-0,231
-236,088	83,758	0,037	-0,029
-235,073	-102,640	0,117	0,020
-234,059	196,939	0,058	0,065
-233,044	271,026	-0,042	0,053
-232,030	800,000	0,024	-0,062
-231,015	-18,665	-0,164	-0,074
-230,000	-10,901	-0,049	0,023
-228,986	-200,000	-0,015	0,121
-227,971	153,837	0,039	-0,039
-226,957	-200,000	-0,002	-0,030
-225,942	-159,201	-0,112	-0,004
-224,927	258,765	-0,010	-0,012
-223,913	81,377	0,025	0,019
-222,898	-200,000	0,003	-0,128
-221,884	205,914	-0,144	-0,161
-220,869	-200,000	-0,016	0,092
-219,855	123,646	0,048	0,044
-218,840	217,982	-0,096	-0,110
-217,825	530,148	-0,023	-0,039
-216,811	30,996	-0,099	-0,061
-215,796	-200,000	-0,022	-0,072
-214,782	52,021	0,069	-0,048
-213,767	22,024	0,214	-0,126
-212,752	-200,000	0,015	-0,074
-211,738	-200,000	-0,006	0,047
-210,723	-159,414	-0,107	0,004
-209,709	-79,380	0,083	-0,020
-208,694	112,673	-0,102	-0,089
-207,679	59,990	0,061	-0,043
-206,665	109,408	0,067	0,058
-205,650	-200,000	0,073	-0,000
-204,636	198,557	-0,090	-0,099
-203,621	800,000	-0,006	0,012
-202,606	38,405	-0,095	-0,061
-201,592	-20,197	-0,072	0,032
-200,577	-53,172	-0,172	-0,057
-199,563	-200,000	-0,001	-0,006
-198,548	203,973	-0,034	0,038
-197,533	-55,993	0,114	0,036
-196,519	800,000	-0,020	0,042
-195,504	5,762	0,038	0,020
-194,490	-200,000	0,008	-0,039
-193,475	-200,000	-0,002	-0,044
-192,460	-155,534	0,140	0,006
-191,446	170,927	0,068	0,070
-190,431	0,226	-0,076	0,039
-189,417	242,502	0,026	-0,032
-188,402	-64,506	0,032	-0,009
-187,387	2,061	-0,021	-0,011
-186,373	-9,942	-0,078	0,037
-185,358	-44,116	-0,152	0,055
-184,344	98,408	-0,048	-0,040
-183,329	425,635	0,089	0,138
-182,315	-52,350	0,064	0,021
-181,300	0,145	-0,062	-0,032
-180,285	-200,000	0,028	-0,125
-179,271	-200,000	-0,030	-0,123
-178,256	-200,000	-0,002	0,033
-177,242	88,855	-0,099	0,079
-176,227	800,000	0,011	0,030
-175,212	-38,547	0,154	0,058
-174,198	-200,000	-0,050	0,185
-173,183	-15,371	0,105	0,048
-172,169	-121,373	0,081	-0,010
-171,154	38,948	-0,039	-0,025
-170,139	-94,898	0,107	-0,021
-169,125	268,119	0,032	0,040
-168,110	-28,538	0,102	0,042
-167,096	-90,845	-0,057	-0,012
-166,081	263,408	0,041	-0,052
-165,066	-7,636	0,108	-0,052
-164,052	-33,355	0,034	-0,014
-163,037	-111,111	-0,072	-0,011
-162,023	-19,438	0,117	0,052
-161,008	-111,385	0,153	0,022
-159,993	-110,115	-0,090	0,013
-158,979	-129,199	0,032	0,003
-157,964	26,152	0,076	-0,046
-156,950	-200,000	-0,025	-0,103
-155,935	8,932	0,074	0,040
-154,920	253,499	-0,058	-0,072
-153,906	-48,272	0,101	-0,035
-152,891	461,416	-0,045	0,072
-151,877	-200,000	0,007	-0,074
-150,862	-200,000	-0,030	0,127
-149,847	-15,800	0,034	-0,016
-148,833	32,737	-0,113	0,070
-147,818	79,813	-0,067	-0,052
-146,804	80,343	0,032	-0,025
-145,789	-148,006	-0,102	-0,006
-144,775	800,000	-0,035	-0,091
-143,760	194,889	0,102	-0,112
-142,745	148,968	0,060	-0,059
-141,731	21,065	0,077	-0,045
-140,716	171,890	0,070	0,072
-139,702	-200,000	-0,007	0,079
-138,687	19,125	-0,031	-0,018
-137,672	183,767	-0,036	0,038
-136,658	221,666	-0,089	-0,103
-135,643	-142,908	-0,167	-0,012
-134,629	478,405	-0,073	-0,119
-133,614	71,721	0,166	-0,124
-132,599	587,889	0,075	-0,134
-131,585	-200,000	0,039	0,141
-130,570	314,948	-0,017	0,023
-129,556	98,412	-0,058	-0,048
-128,541	-168,429	-0,094	0,003
-127,526	-200,000	-0,009	-0,112
-126,512	-38,816	0,141	-0,053
-125,497	-55,100	0,084	-0,027
-124,483	-71,622	-0,096	-0,026
-123,468	656,114	-0,026	0,048
-122,453	250,900	-0,124	-0,152
-121,439	387,496	-0,021	-0,032
-120,424	296,662	0,033	-0,043
-119,410	-48,812	0,101	0,035
-118,395	36,913	-0,028	-0,018
-117,380	66,640	0,086	0,063
-116,366	-200,000	0,006	-0,201
-115,351	-110,371	0,097	-0,014
-114,337	-76,097	0,073	-0,018
-113,322	-200,000	0,018	-0,069
-112,307	-153,567	-0,131	-0,006
-111,293	-44,115	-0,056	-0,020
-110,278	72,174	-0,035	-0,026
-109,264	-145,643	-0,098	0,006
-108,249	-60,030	0,058	-0,018
-107,234	89,077	-0,027	-0,022
-106,220	800,000	-0,066	0,133
-105,205	-200,000	0,005	0,030
-104,191	-108,919	0,078	0,012
-103,176	-200,000	0,021	0,105
-102,162	135,910	-0,121	-0,114
-101,147	-14,791	-0,044	0,020
-100,132	-155,014	0,033	-0,002
-99,118	-200,000	-0,007	-0,042
-98,103	75,107	0,068	-0,052
-97,089	-12,888	-0,078	0,036
-96,074	-200,000	-0,007	0,240
-95,059	-10,112	0,016	-0,008
-94,045	33,383	0,065	0,040
-93,030	295,784	-0,138	-0,182
-92,016	800,000	0,033	-0,074
-91,001	-200,000	-0,024	-0,173
-89,986	-92,466	0,042	0,008
-88,972	-149,011	-0,030	-0,002
-87,957	210,569	0,015	-0,017
-86,943	86,991	-0,047	-0,037
-85,928	560,578	0,111	-0,193
-84,913	151,471	-0,076	-0,075
-83,899	105,439	-0,137	-0,116
-82,884	-127,931	-0,058	0,006
-81,870	-200,000	0,017	-0,085
-80,855	22,135	0,061	-0,036
-79,840	-41,305	0,064	-0,024
-78,826	19,527	-0,119	0,068
-77,811	367,064	-0,100	-0,146
-76,797	21,830	-0,107	-0,062
-75,782	800,000	-0,042	-0,117
-74,767	393,478	-0,062	0,093
-73,753	-96,819	-0,091	0,017
-72,738	576,407	-0,042	0,075
-71,724	800,000	0,050	-0,107
-70,709	5,156	-0,076	0,040
-69,694	-88,756	0,070	0,015
-68,680	-200,000	-0,033	-0,124
-67,665	-146,185	-0,068	-0,004
-66,651	-80,284	0,053	-0,013
-65,636	411,049	0,062	0,095
-64,622	-19,673	-0,013	0,006
-63,607	-200,000	-0,007	-0,143
-62,592	40,503	-0,163	0,105
-61,578	-77,936	0,089	-0,022
-60,563	335,618	-0,046	0,065
-59,549	-85,865	-0,095	0,021
-58,534	10,978	-2,192	-1,199
-57,519	-200,000	-0,128	-0,808
-56,505	-200,000	-1,225	-4,973
-55,490	37,192	0,868	0,550
-54,476	800,000	5,212	11,937
-53,461	-200,000	17,772	290,323
-52,446	800,000	726,770	2229,978
-51,432	536,577	1639,425	2803,596
-50,417	109,545	1629,355	1400,436
-49,403	73,182	1283,322	961,805
-48,388	31,446	1026,235	631,261
-47,373	19,859	988,625	569,943
-46,359	18,233	976,185	557,423
-45,344	15,564	972,471	546,556
-44,330	15,801	970,954	546,454
-43,315	15,289	969,075	543,705
-42,300	15,243	968,003	542,934
-41,286	15,198	967,083	542,249
-40,271	15,210	966,047	541,685
-39,257	15,263	965,182	541,350
-38,242	15,247	964,243	540,751
-37,227	15,291	963,455	540,430
-36,213	15,215	962,633	539,704
-35,198	15,230	961,675	539,193
-34,184	15,277	960,905	538,892
-33,169	15,221	960,083	538,227
-32,154	15,276	959,195	537,886
-31,140	15,249	958,279	537,264
-30,125	15,267	957,511	536,871
-29,111	15,258	956,509	536,256
-28,096	15,266	956,016	535,985
-27,082	15,275	955,306	535,595
-26,067	15,226	954,605	535,023
-25,052	15,229	953,764	534,541
-24,038	15,277	953,077	534,287
-23,023	15,278	952,398	533,890
-22,009	15,242	951,845	533,445
-20,994	15,238	951,179	533,036
-19,979	15,229	950,562	532,641
-18,965	15,259	950,066	532,436
-17,950	15,265	949,456	532,094
-16,936	15,168	948,885	531,445
-15,921	15,207	948,047	531,077
-14,906	15,191	947,362	530,621
-13,892	15,178	946,766	530,224
-12,877	15,162	946,118	529,791
-11,863	15,075	945,590	529,197
-10,848	15,105	945,031	528,958
-9,833	15,202	944,564	528,983
-8,819	15,186	943,856	528,516
-7,804	15,134	943,298	528,017
-6,790	15,097	942,725	527,558
-5,775	15,200	942,118	527,523
-4,760	15,180	941,424	527,052
-3,746	15,173	940,827	526,674
-2,731	15,028	940,003	525,732
-1,717	14,968	939,492	525,238
-0,702	14,966	938,913	524,885
0,313	14,750	938,230	524,614
1,327	18,149	936,142	534,100
2,342	27,399	789,810	474,974
3,356	23,841	444,739	262,163
4,371	-5,632	295,494	144,728
5,386	-9,638	277,300	132,007
6,400	-10,993	271,678	128,059
7,415	-10,998	269,249	126,897
8,429	-11,182	267,917	126,090
9,444	-10,953	266,964	125,839
10,459	-11,191	266,456	125,371
11,473	-11,125	265,631	125,032
12,488	-11,247	265,228	124,721
13,502	-11,270	264,433	124,315
14,517	-11,378	264,365	124,174
15,531	-11,327	263,905	123,993
16,546	-11,147	263,354	123,885
17,561	-11,374	263,069	123,536
18,575	-11,000	262,794	123,732
19,590	-11,154	262,198	123,302
20,604	-11,065	262,074	123,313
21,619	-11,461	261,928	122,878
22,634	-11,035	261,380	122,991
23,648	-11,196	261,119	122,714
24,663	-11,156	260,731	122,556
25,677	-11,237	260,571	122,398
26,692	-11,203	260,304	122,292
27,707	-11,258	260,155	122,162
28,721	-11,386	259,860	121,898
29,736	-11,339	259,494	121,758
30,750	-11,394	259,246	121,582
31,765	-11,216	259,027	121,626
32,780	-11,436	258,691	121,263
33,794	-11,312	258,597	121,318
34,809	-11,377	258,347	121,132
35,823	-11,453	258,080	120,930
36,838	-11,598	257,880	120,697
37,853	-11,356	257,588	120,762
38,867	-11,548	257,360	120,476
39,882	-11,482	257,131	120,416
40,896	-11,303	256,885	120,447
41,911	-11,434	256,637	120,205
42,926	-11,325	256,345	120,153
43,940	-11,573	256,197	119,856
44,955	-11,591	256,047	119,760
45,969	-11,675	255,668	119,498
46,984	-12,001	255,550	119,148
47,999	-11,905	255,008	118,969
49,013	-12,148	254,986	118,736
50,028	-12,269	254,662	118,470
51,042	-12,392	254,552	118,301
52,057	-12,489	254,205	118,045
53,071	-12,156	254,148	118,297
54,086	-12,016	253,769	118,231
55,101	-11,886	253,735	118,317
56,115	-11,952	253,626	118,199
57,130	-11,433	253,548	118,601
58,144	-10,979	253,200	118,819
59,159	-11,097	253,147	118,682
60,174	-11,269	252,845	118,381
61,188	-11,363	252,738	118,240
62,203	-11,212	252,479	118,237
63,217	-11,157	252,228	118,157
64,232	-11,295	252,061	117,950
65,247	-11,121	251,808	117,970
66,261	-11,214	251,554	117,761
67,276	-11,555	251,361	117,368
68,290	-11,609	250,953	117,121
69,305	-11,936	250,810	116,764
70,320	-11,719	250,630	116,855
71,334	-11,324	250,381	117,066
72,349	-11,441	250,466	116,995
73,363	-11,132	250,055	117,056
74,378	-11,201	249,903	116,916
75,393	-11,267	249,812	116,807
76,407	-11,195	249,579	116,748
77,422	-11,282	249,365	116,564
78,436	-11,093	249,032	116,558
79,451	-11,136	248,847	116,425
80,466	-11,413	248,681	116,103
81,480	-11,569	248,459	115,856
82,495	-11,634	248,113	115,630
83,509	-11,764	248,161	115,532
84,524	-11,541	247,878	115,578
85,539	-11,956	247,701	115,136
86,553	-11,857	247,430	115,083
87,568	-11,471	247,193	115,287
88,582	-11,557	247,047	115,136
89,597	-11,794	246,959	114,886
90,611	-11,552	246,764	114,988
91,626	-11,397	246,614	115,037
92,641	-11,281	246,464	115,055
93,655	-11,518	246,226	114,734
94,670	-11,368	245,957	114,725
95,684	-11,502	245,863	114,559
96,699	-11,531	245,614	114,408
97,714	-11,493	245,340	114,302
98,728	-11,673	245,006	113,987
99,743	-11,662	245,015	113,989
100,757	-11,924	244,719	113,624
101,772	-11,667	244,678	113,808
102,787	-11,715	244,294	113,579
103,801	-11,560	244,280	113,692
104,816	-11,518	244,139	113,651
105,830	-11,456	243,922	113,591
106,845	-11,179	243,804	113,756
107,860	-11,346	243,534	113,481
108,874	-11,723	243,408	113,101
109,889	-11,506	243,183	113,165
110,903	-11,532	242,986	113,042
111,918	-11,743	242,660	112,707
112,933	-11,499	242,541	112,842
113,947	-11,516	242,345	112,727
114,962	-11,344	242,204	112,793
115,976	-11,506	242,105	112,603
116,991	-11,359	241,859	112,600
118,006	-11,445	241,686	112,438
119,020	-11,177	241,520	112,570
120,035	-11,314	241,637	112,503
121,049	-11,178	241,374	112,482
122,064	-11,595	241,266	112,080
123,079	-11,448	240,861	112,002
124,093	-11,805	240,794	111,670
125,108	-11,896	240,458	111,429
126,122	-11,739	240,147	111,403
127,137	-11,941	240,000	111,161
128,151	-11,693	239,761	111,242
129,166	-11,727	239,722	111,187
130,181	-11,834	239,534	111,003
131,195	-11,901	239,294	110,827
132,210	-11,607	239,124	110,977
133,224	-11,457	238,986	111,024
134,239	-11,511	238,950	110,953
135,254	-11,431	238,724	110,903
136,268	-11,501	238,403	110,687
137,283	-11,767	238,310	110,420
138,297	-11,866	237,987	110,181
139,312	-12,144	237,841	109,880
140,327	-11,615	237,839	110,295
141,341	-11,071	237,734	110,674
142,356	-10,992	237,635	110,681
143,370	-10,961	237,399	110,587
144,385	-10,952	237,271	110,524
145,400	-11,058	237,096	110,348
146,414	-10,952	236,923	110,342
147,429	-11,288	236,863	110,036
148,443	-11,201	236,520	109,936
149,458	-11,081	236,320	109,929
150,473	-11,111	236,207	109,843
151,487	-11,271	236,053	109,634
152,502	-11,094	235,907	109,697
153,516	-11,180	235,831	109,584
154,531	-11,168	235,627	109,489
155,546	-11,135	235,280	109,344
156,560	-11,329	235,134	109,112
157,575	-11,327	234,924	109,007
158,589	-11,169	234,712	109,024
159,604	-11,045	234,716	109,114
160,619	-11,093	234,522	108,976
161,633	-11,023	234,438	108,983
162,648	-10,941	234,281	108,965
163,662	-11,073	234,020	108,729
164,677	-11,350	233,931	108,459
165,692	-11,121	233,774	108,558
166,706	-11,030	233,600	108,539
167,721	-10,784	233,447	108,652
168,735	-10,824	233,261	108,524
169,750	-11,102	233,219	108,276
170,764	-11,109	233,053	108,184
171,779	-11,129	232,904	108,090
172,794	-11,066	232,692	108,031
173,808	-11,342	232,558	107,743
174,823	-11,775	232,175	107,217
175,837	-11,898	232,047	107,052
176,852	-11,552	231,835	107,215
177,867	-11,115	231,836	107,548
178,881	-11,122	231,701	107,470
179,896	-10,878	231,621	107,614
180,910	-11,061	231,508	107,408
181,925	-11,139	231,270	107,228
182,940	-10,978	231,137	107,282
183,954	-11,010	230,941	107,156
184,969	-10,909	230,899	107,206
185,983	-10,779	230,826	107,264
186,998	-10,685	230,508	107,180
188,013	-10,514	230,240	107,177
189,027	-10,674	230,145	107,000
190,042	-10,623	229,953	106,941
191,056	-10,871	229,853	106,693
192,071	-10,874	229,639	106,581
193,086	-11,038	229,583	106,420
194,100	-10,701	229,238	106,510
195,115	-11,129	228,981	106,051
196,129	-11,958	229,023	105,422
197,144	-5,970	231,020	110,985
198,159	0,558	232,700	116,876
199,173	2,894	233,435	119,058
200,188	3,202	233,240	119,188
201,202	3,242	233,148	119,162
202,217	3,515	233,010	119,293
203,232	3,661	232,918	119,349
204,246	3,856	232,791	119,425
205,261	3,900	232,679	119,391
206,275	4,080	232,610	119,484
207,290	4,024	232,495	119,371
208,304	4,040	232,258	119,251
209,319	4,035	232,039	119,124
210,334	3,804	231,939	118,883
211,348	3,724	231,651	118,663
212,363	3,547	231,407	118,391
213,377	3,176	231,302	118,040
214,392	2,973	231,036	117,738
215,407	3,406	230,906	117,994
216,421	3,330	230,876	117,910
217,436	3,042	230,637	117,556
218,450	3,097	230,361	117,447
219,465	3,131	230,228	117,395
220,480	3,043	229,975	117,188
221,494	2,965	229,841	117,049
222,509	3,124	229,888	117,185
223,523	3,233	229,608	117,115
224,538	3,026	229,540	116,911
225,553	3,095	229,388	116,877
226,567	3,285	229,362	116,998
227,582	3,656	229,270	117,224
228,596	3,665	229,028	117,097
229,611	3,505	228,834	116,865
230,626	3,127	228,613	116,454
231,640	3,109	228,457	116,351
232,655	3,554	228,374	116,636
233,669	3,787	228,409	116,821
234,684	3,819	228,164	116,710
235,699	3,603	228,043	116,473
236,713	3,287	227,814	116,106
237,728	3,049	227,697	115,855
238,742	3,122	227,473	115,787
239,757	3,116	227,374	115,722
240,772	3,048	227,178	115,560
241,786	3,277	226,853	115,557
242,801	3,233	226,980	115,579
243,815	3,699	226,860	115,858
244,830	3,826	226,640	115,832
245,844	3,301	226,287	115,246
246,859	3,212	226,376	115,214
247,874	3,411	226,208	115,268
248,888	3,584	226,134	115,350
249,903	3,301	225,979	115,048
250,917	3,218	225,742	114,855
251,932	3,105	225,517	114,645
252,947	3,149	225,357	114,587
253,961	3,074	225,421	114,553
254,976	3,056	225,193	114,413
255,990	3,457	225,083	114,648
257,005	3,188	224,926	114,356
258,020	3,519	224,797	114,527
259,034	3,574	224,787	114,553
260,049	3,423	224,596	114,333
261,063	3,532	224,349	114,278
262,078	3,572	224,222	114,233
263,093	3,562	224,202	114,205
264,107	3,529	223,991	114,063
265,122	3,375	223,902	113,893
266,136	3,682	223,647	113,982
267,151	3,560	223,681	113,898
268,166	3,555	223,245	113,662
269,180	3,231	222,889	113,231
270,195	3,169	222,921	113,191
271,209	3,214	222,889	113,198
272,224	3,209	222,705	113,090
273,239	3,451	222,527	113,169
274,253	3,243	222,257	112,868
275,268	2,900	222,245	112,599
276,282	3,032	222,076	112,601
277,297	3,069	221,774	112,465
278,312	3,004	221,865	112,453
279,326	3,090	221,763	112,454
280,341	3,232	221,505	112,418
281,355	3,390	221,442	112,492
282,370	3,414	221,248	112,402
283,384	3,025	220,937	111,948
284,399	3,031	220,834	111,890
285,414	3,020	220,746	111,828
286,428	3,176	220,673	111,895
287,443	3,262	220,729	111,977
288,457	3,205	220,490	111,803
289,472	3,286	220,125	111,667
290,487	2,869	220,014	111,298
291,501	2,840	219,834	111,175
292,516	2,795	219,718	111,074
293,530	2,745	219,605	110,970
294,545	2,910	219,417	110,985
295,560	3,063	219,443	111,100
296,574	3,080	219,307	111,033
297,589	3,018	219,057	110,852
298,603	3,485	218,924	111,114
299,618	3,162	218,821	110,817
300,633	3,109	218,874	110,796
301,647	3,395	218,811	110,961
302,662	3,620	218,577	110,995
303,676	3,242	218,412	110,629
304,691	3,348	218,270	110,623
305,706	3,322	217,916	110,415
306,720	3,437	217,984	110,523
307,735	3,032	217,800	110,127
308,749	3,092	217,681	110,101
309,764	3,351	217,535	110,203
310,779	3,652	217,363	110,323
311,793	3,639	217,277	110,260
312,808	3,302	217,118	109,928
313,822	3,378	216,930	109,877
314,837	3,297	216,716	109,701
315,852	3,058	216,562	109,442
316,866	3,322	216,439	109,559
317,881	3,199	216,377	109,430
318,895	3,501	216,297	109,596
319,910	3,377	216,052	109,373
320,925	3,069	215,780	109,006
321,939	2,677	215,688	108,670
322,954	2,828	215,566	108,707
323,968	3,254	215,524	108,979
324,983	3,185	215,206	108,760
325,997	3,512	215,235	108,997
327,012	3,345	215,100	108,800
328,027	3,394	215,154	108,853
329,041	3,648	215,088	108,990
330,056	3,521	214,870	108,780
331,070	3,175	214,620	108,398
332,085	3,022	214,350	108,144
333,100	3,106	214,278	108,158
334,114	3,419	214,208	108,334
335,129	3,434	213,918	108,188
336,143	3,095	213,894	107,927
337,158	3,238	213,751	107,946
338,173	3,303	213,618	107,915
339,187	2,969	213,444	107,583
340,202	3,017	213,316	107,542
341,216	3,024	213,060	107,409
342,231	3,078	213,087	107,450
343,246	3,038	212,866	107,301
344,260	3,086	212,750	107,267
345,275	3,347	212,695	107,413
346,289	3,401	212,640	107,413
347,304	3,365	212,560	107,338
348,319	3,107	212,212	106,972
349,333	3,263	212,144	107,038
350,348	3,159	211,966	106,865
351,362	3,375	212,020	107,034
352,377	3,396	211,875	106,966
353,392	3,427	211,637	106,858
354,406	3,354	211,527	106,742
355,421	195,751	1340,569	1418,833
356,435	156,374	1478,105	1418,806
