DTS Sentinel unit serial number:	SN410029Multiplexer serial number:	ORYXHardware model number:	OX2-SRSoftware version number:	ORYX F/W v4,00 Oryx Data Collector v3.7.2.0data status	okinstallation	B6 Nyhavnadifferential loss correction	single-endedforward channel	channel 2reverse channel	N/Adate	2023/12/07time	16:25:08forward acquisition time	300,00reverse acquisition time	0,00gamma	499,1914k internal	0,3164k external	0,3164temperature offset calibration	1,0000default loss term (dB/km)	0,3820temperature slope calibration	1,0000multiplexer offset coefficient	1,0000multiplexer slope coefficient	1,0000fibre end	0,00T internal ref (°C)	14,52T ext. ref 1 (°C)	-2,13T ext. ref 2 (°C)	-2,13length (m)	temperature (°C)	Stokes	anti-Stokes-744,400	-127,757	0,135	-0,014
-743,385	-107,626	-0,324	-0,052
-742,371	-191,899	0,223	0,002
-741,356	-46,113	-0,168	0,061
-740,342	53,535	0,097	0,069
-739,327	-120,023	-0,303	0,038
-738,312	-200,000	-0,011	0,052
-737,298	-87,452	-0,298	-0,066
-736,283	-59,648	0,158	0,050
-735,269	-99,938	-0,350	0,064
-734,254	-116,965	0,136	0,018
-733,239	-36,213	-0,561	-0,222
-732,225	-59,427	0,245	0,077
-731,210	-58,569	-0,114	0,036
-730,196	800,000	0,018	0,038
-729,181	-200,000	-0,005	-0,050
-728,167	339,867	-0,072	-0,103
-727,152	2,102	0,102	0,054
-726,137	-200,000	0,019	-0,077
-725,123	-46,076	-0,035	-0,013
-724,108	800,000	-0,066	-0,153
-723,094	800,000	0,024	-0,070
-722,079	-200,000	0,007	-0,066
-721,064	800,000	0,041	-0,098
-720,050	-154,709	-0,068	0,003
-719,035	771,296	-0,074	-0,149
-718,021	336,210	-0,028	-0,040
-717,006	-130,229	-0,107	-0,011
-715,991	10,727	-0,113	-0,063
-714,977	-41,223	-0,039	-0,015
-713,962	169,655	-0,074	-0,078
-712,948	90,824	0,157	-0,130
-711,933	233,722	-0,037	-0,045
-710,918	54,732	-0,148	0,105
-709,904	800,000	-0,004	-0,011
-708,889	797,387	-0,078	-0,159
-707,875	-200,000	-0,021	-0,111
-706,860	-200,000	-0,021	-0,086
-705,845	-197,900	-0,016	0,000
-704,831	-200,000	0,002	0,205
-703,816	800,000	-0,078	-0,172
-702,802	92,950	0,026	-0,022
-701,787	318,237	-0,072	-0,100
-700,772	251,001	-0,047	-0,058
-699,758	53,114	-0,028	-0,020
-698,743	203,976	0,118	0,134
-697,729	109,615	0,045	-0,040
-696,714	800,000	-0,015	0,033
-695,699	111,557	0,047	0,042
-694,685	-0,077	-0,110	-0,057
-693,670	-30,631	-0,102	-0,042
-692,656	-139,752	0,098	-0,008
-691,641	800,000	-0,032	-0,075
-690,627	-200,000	0,019	0,115
-689,612	59,645	-0,119	-0,086
-688,597	198,136	-0,066	-0,074
-687,583	265,090	-0,076	-0,098
-686,568	116,272	-0,049	-0,044
-685,554	-45,616	0,015	-0,005
-684,539	-200,000	0,041	0,205
-683,524	96,829	-0,029	0,024
-682,510	-106,769	-0,051	-0,008
-681,495	-34,232	-0,097	0,039
-680,481	800,000	0,036	-0,116
-679,466	187,519	-0,087	-0,096
-678,451	39,046	0,049	-0,032
-677,437	66,824	0,082	-0,061
-676,422	771,375	-0,007	-0,014
-675,408	-120,586	-0,100	-0,012
-674,393	27,355	-0,097	-0,059
-673,378	-120,025	0,078	-0,010
-672,364	800,000	-0,046	-0,102
-671,349	172,423	0,036	-0,038
-670,335	357,497	-0,075	0,111
-669,320	-44,057	-0,054	-0,020
-668,305	-99,560	0,123	-0,022
-667,291	-200,000	-0,008	-0,108
-666,276	97,237	-0,108	0,091
-665,262	-45,865	-0,069	-0,025
-664,247	-200,000	-0,004	0,027
-663,232	158,653	0,061	0,062
-662,218	-200,000	0,004	0,056
-661,203	262,995	0,086	0,110
-660,189	138,479	-0,031	0,030
-659,174	-200,000	-0,008	-0,096
-658,159	596,416	-0,073	-0,132
-657,145	800,000	-0,029	-0,069
-656,130	-37,352	0,123	0,048
-655,116	68,358	0,039	-0,029
-654,101	-200,000	-0,015	0,141
-653,086	-89,231	-0,080	-0,017
-652,072	-112,549	0,064	0,009
-651,057	-44,193	-0,143	-0,052
-650,043	-60,722	0,137	-0,042
-649,028	8,180	0,011	0,006
-648,014	282,730	0,065	-0,086
-646,999	-53,909	0,040	0,013
-645,984	-138,061	0,060	-0,005
-644,970	-69,900	-0,039	-0,011
-643,955	-200,000	0,029	-0,126
-642,941	-88,306	-0,124	-0,027
-641,926	216,068	0,087	-0,101
-640,911	268,235	-0,029	-0,037
-639,897	-200,000	-0,013	0,073
-638,882	71,350	0,041	-0,031
-637,868	-129,937	-0,153	0,015
-636,853	-200,000	-0,005	-0,064
-635,838	800,000	-0,068	-0,151
-634,824	800,000	-0,038	0,112
-633,809	74,631	-0,130	-0,100
-632,795	-40,030	0,084	0,032
-631,780	-106,822	0,111	-0,018
-630,765	224,080	-0,152	-0,180
-629,751	-200,000	-0,009	-0,098
-628,736	139,860	-0,066	-0,063
-627,722	115,667	0,056	0,050
-626,707	167,927	-0,091	-0,095
-625,692	96,417	0,032	0,027
-624,678	-16,022	-0,127	-0,059
-623,663	-113,767	-0,190	0,027
-622,649	-16,779	0,058	0,027
-621,634	-200,000	0,004	-0,050
-620,619	-16,570	-0,116	0,054
-619,605	8,707	-0,104	0,057
-618,590	800,000	-0,017	-0,043
-617,576	-98,307	0,130	-0,024
-616,561	168,534	-0,135	-0,141
-615,546	318,780	-0,071	-0,099
-614,532	800,000	0,054	0,132
-613,517	-200,000	0,009	0,044
-612,503	16,537	-0,067	0,039
-611,488	-93,654	-0,131	-0,026
-610,474	243,603	0,019	-0,024
-609,459	-142,184	0,039	0,003
-608,444	157,506	-0,071	-0,072
-607,430	81,791	0,055	0,044
-606,415	-200,000	0,004	-0,051
-605,401	-129,950	0,147	0,015
-604,386	800,000	-0,046	0,105
-603,371	213,241	-0,051	-0,059
-602,357	-94,430	0,074	-0,015
-601,342	-200,000	-0,017	-0,055
-600,328	800,000	0,056	-0,122
-599,313	35,993	-0,056	-0,036
-598,298	24,819	-0,139	0,084
-597,284	381,326	-0,044	0,066
-596,269	-127,849	-0,130	-0,014
-595,255	29,662	0,082	-0,051
-594,240	582,742	-0,033	-0,059
-593,225	569,705	-0,084	-0,150
-592,211	58,054	0,039	0,028
-591,196	49,973	-0,128	0,088
-590,182	-200,000	0,014	-0,046
-589,167	-117,130	-0,066	-0,009
-588,152	400,064	-0,096	0,148
-587,138	-84,913	-0,063	-0,014
-586,123	100,256	-0,134	-0,114
-585,109	151,527	0,040	0,040
-584,094	340,722	0,044	-0,063
-583,079	-200,000	-0,006	0,052
-582,065	800,000	-0,027	-0,065
-581,050	34,466	-0,045	-0,028
-580,036	60,520	0,053	-0,039
-579,021	800,000	0,009	-0,023
-578,006	27,160	-0,082	-0,050
-576,992	-182,650	-0,051	0,001
-575,977	-72,000	0,071	-0,019
-574,963	113,279	0,046	0,041
-573,948	800,000	0,072	0,194
-572,934	-71,427	0,090	-0,024
-571,919	-200,000	0,019	0,072
-570,904	50,446	0,099	-0,068
-569,890	-200,000	0,023	-0,153
-568,875	81,113	-0,043	0,034
-567,861	-113,186	0,105	-0,015
-566,846	-168,089	0,178	-0,005
-565,831	76,549	0,039	-0,030
-564,817	387,251	0,137	0,208
-563,802	-200,000	-0,018	0,085
-562,788	-120,845	0,062	-0,008
-561,773	462,419	-0,046	-0,075
-560,758	-200,000	0,011	-0,112
-559,744	126,043	-0,034	0,031
-558,729	463,114	0,058	0,095
-557,715	24,826	0,089	0,054
-556,700	800,000	0,037	-0,098
-555,685	210,617	-0,080	0,092
-554,671	451,820	-0,032	-0,052
-553,656	800,000	-0,019	0,049
-552,642	160,404	-0,063	0,064
-551,627	56,127	0,070	-0,050
-550,612	-200,000	0,032	-0,114
-549,598	-200,000	0,012	-0,042
-548,583	313,453	0,105	-0,144
-547,569	-174,209	0,092	-0,002
-546,554	108,002	0,026	-0,023
-545,539	-104,616	-0,073	-0,012
-544,525	364,825	-0,042	-0,062
-543,510	709,177	-0,019	0,036
-542,496	-200,000	-0,007	-0,040
-541,481	665,298	-0,043	-0,081
-540,466	91,006	-0,028	0,023
-539,452	-8,156	0,066	-0,032
-538,437	220,262	-0,053	0,062
-537,423	102,030	-0,004	-0,004
-536,408	-139,702	-0,176	-0,013
-535,393	-133,908	0,018	-0,002
-534,379	540,178	0,047	-0,082
-533,364	163,578	0,048	-0,049
-532,350	-200,000	-0,005	0,095
-531,335	38,013	0,063	0,041
-530,321	800,000	0,045	-0,098
-529,306	97,329	0,054	-0,045
-528,291	-64,051	-0,051	-0,015
-527,277	-200,000	0,027	-0,122
-526,262	-200,000	-0,019	-0,128
-525,248	-97,212	0,204	0,038
-524,233	-200,000	0,005	0,079
-523,218	178,091	0,056	-0,060
-522,204	800,000	0,032	-0,082
-521,189	-200,000	-0,008	-0,028
-520,175	-156,194	-0,046	0,002
-519,160	800,000	-0,022	-0,054
-518,145	268,054	0,077	-0,099
-517,131	-200,000	-0,004	-0,054
-516,116	-151,585	0,155	0,008
-515,102	-200,000	0,005	-0,058
-514,087	-78,870	-0,080	0,020
-513,072	-77,441	-0,068	0,017
-512,058	32,201	-0,131	-0,082
-511,043	59,298	0,073	0,053
-510,029	344,304	-0,025	0,036
-509,014	8,555	0,078	0,043
-507,999	298,953	-0,015	0,020
-506,985	-200,000	0,011	-0,169
-505,970	800,000	-0,030	-0,073
-504,956	-200,000	0,019	0,128
-503,941	339,392	0,058	-0,082
-502,926	-161,905	0,130	-0,005
-501,912	462,119	0,045	0,074
-500,897	280,614	0,078	0,102
-499,883	800,000	-0,010	0,031
-498,868	-200,000	0,005	-0,159
-497,853	800,000	-0,018	-0,043
-496,839	27,805	0,073	0,044
-495,824	800,000	0,030	0,078
-494,810	-21,662	-0,026	-0,012
-493,795	-200,000	0,017	0,072
-492,781	-200,000	0,001	0,124
-491,766	-200,000	0,008	0,078
-490,751	-120,675	-0,032	-0,004
-489,737	-200,000	0,027	-0,199
-488,722	-9,861	-0,045	-0,022
-487,708	-200,000	-0,002	0,047
-486,693	-200,000	-0,005	0,100
-485,678	646,117	-0,056	0,105
-484,664	-59,798	0,087	-0,027
-483,649	800,000	-0,053	-0,126
-482,635	-13,749	-0,086	0,040
-481,620	-200,000	0,013	0,112
-480,605	-140,783	-0,053	0,004
-479,591	-200,000	0,034	0,125
-478,576	-76,627	0,076	0,019
-477,562	-200,000	0,001	-0,071
-476,547	240,212	0,061	-0,074
-475,532	-17,721	-0,151	-0,069
-474,518	283,055	0,066	0,086
-473,503	-84,083	0,102	-0,023
-472,489	283,443	-0,100	0,131
-471,474	800,000	0,052	0,114
-470,459	248,375	0,011	0,013
-469,445	-200,000	-0,030	0,104
-468,430	13,327	0,063	-0,036
-467,416	193,408	-0,057	0,063
-466,401	-200,000	-0,010	0,098
-465,386	-127,721	0,112	0,012
-464,372	100,906	0,081	-0,068
-463,357	128,220	0,059	0,055
-462,343	582,088	-0,098	-0,176
-461,328	584,352	0,008	0,014
-460,313	-94,333	0,128	0,025
-459,299	533,974	0,067	0,116
-458,284	163,447	0,018	-0,019
-457,270	-200,000	-0,038	0,151
-456,255	54,777	-0,038	0,027
-455,241	800,000	-0,070	0,158
-454,226	128,396	0,029	-0,027
-453,211	-93,094	0,060	0,012
-452,197	-200,000	-0,053	0,245
-451,182	-200,000	-0,040	0,136
-450,168	-33,905	-0,079	0,032
-449,153	-98,635	-0,126	0,023
-448,138	-1,961	0,155	-0,079
-447,124	669,416	-0,024	-0,046
-446,109	-21,584	0,067	-0,029
-445,095	-200,000	-0,034	0,260
-444,080	165,350	0,124	0,128
-443,065	22,760	0,070	0,041
-442,051	192,741	0,026	-0,029
-441,036	800,000	0,049	-0,128
-440,022	433,466	-0,074	-0,117
-439,007	-13,385	-0,122	-0,057
-437,992	-53,917	0,067	0,022
-436,978	-39,253	0,055	0,021
-435,963	-107,463	0,089	-0,014
-434,949	119,329	-0,024	0,022
-433,934	-69,644	-0,068	0,019
-432,919	-200,000	-0,016	-0,074
-431,905	-1,988	0,130	0,066
-430,890	-50,006	-0,023	-0,008
-429,876	800,000	-0,057	-0,123
-428,861	8,323	-0,008	0,004
-427,846	-200,000	0,016	0,085
-426,832	24,233	-0,141	0,084
-425,817	388,805	-0,085	-0,128
-424,803	-58,389	0,068	-0,021
-423,788	122,264	-0,038	-0,035
-422,773	-200,000	-0,029	-0,135
-421,759	-200,000	-0,003	0,045
-420,744	-200,000	0,011	0,098
-419,730	606,035	-0,038	0,069
-418,715	487,625	-0,070	-0,116
-417,701	5,412	0,054	0,029
-416,686	67,973	-0,058	0,043
-415,671	-69,277	0,066	-0,018
-414,657	-139,647	0,098	0,007
-413,642	319,711	-0,095	-0,131
-412,628	-75,177	0,071	0,018
-411,613	800,000	-0,008	-0,023
-410,598	11,746	0,079	-0,044
-409,584	216,790	-0,073	0,085
-408,569	41,093	-0,100	0,066
-407,555	-59,488	0,148	-0,046
-406,540	-200,000	-0,016	0,097
-405,525	243,330	-0,099	-0,121
-404,511	236,461	-0,106	-0,128
-403,496	-200,000	0,004	-0,033
-402,482	-40,012	0,108	0,041
-401,467	57,442	-0,017	0,012
-400,452	-120,917	-0,280	0,034
-399,438	-200,000	0,017	0,087
-398,423	130,600	-0,100	-0,093
-397,409	313,568	0,080	0,110
-396,394	-200,000	-0,001	-0,090
-395,379	-49,587	0,110	-0,038
-394,365	13,120	-0,159	0,089
-393,350	-157,888	0,140	-0,006
-392,336	95,535	-0,061	-0,050
-391,321	-160,121	0,043	0,002
-390,306	800,000	-0,024	-0,049
-389,292	-15,037	-0,130	0,060
-388,277	469,740	-0,037	0,060
-387,263	-91,939	0,104	-0,021
-386,248	-70,134	-0,010	0,003
-385,233	-200,000	-0,011	-0,075
-384,219	3,051	-0,054	0,028
-383,204	214,058	0,050	0,057
-382,190	-200,000	-0,009	-0,137
-381,175	800,000	0,049	0,100
-380,160	82,391	0,069	0,055
-379,146	103,297	-0,126	0,107
-378,131	-38,838	0,094	0,036
-377,117	-34,550	-0,095	-0,038
-376,102	531,425	-0,043	-0,075
-375,088	-200,000	0,028	-0,093
-374,073	-200,000	-0,008	0,088
-373,058	-200,000	0,024	0,090
-372,044	385,781	0,057	0,085
-371,029	-200,000	0,017	0,069
-370,015	-200,000	-0,016	0,087
-369,000	-184,653	-0,146	0,002
-367,985	-200,000	0,020	-0,112
-366,971	-200,000	0,010	0,055
-365,956	-148,817	0,111	0,006
-364,942	455,788	-0,055	0,088
-363,927	-37,421	0,093	0,036
-362,912	-200,000	0,024	0,077
-361,898	-51,553	-0,135	0,046
-360,883	-200,000	0,008	-0,049
-359,869	48,089	0,107	0,073
-358,854	77,537	-0,017	0,013
-357,839	800,000	0,032	0,076
-356,825	-200,000	-0,017	0,101
-355,810	-200,000	0,004	0,091
-354,796	696,425	-0,016	-0,031
-353,781	326,405	-0,054	0,075
-352,766	-126,826	0,052	-0,005
-351,752	-43,268	0,183	0,067
-350,737	-3,618	-0,143	0,072
-349,723	-200,000	-0,006	0,087
-348,708	552,514	0,116	0,202
-347,693	-69,396	0,045	0,012
-346,679	800,000	0,017	-0,047
-345,664	-56,497	-0,082	-0,026
-344,650	800,000	-0,045	-0,123
-343,635	226,788	0,123	-0,144
-342,620	-200,000	-0,021	0,119
-341,606	-135,697	0,047	0,004
-340,591	-10,370	-0,140	0,067
-339,577	-200,000	-0,003	-0,065
-338,562	-13,422	0,080	-0,037
-337,548	301,802	0,092	-0,124
-336,533	-33,369	-0,082	-0,033
-335,518	-4,638	-0,085	-0,042
-334,504	311,973	-0,027	0,036
-333,489	92,680	-0,129	0,106
-332,475	800,000	-0,021	-0,048
-331,460	-200,000	0,002	-0,042
-330,445	800,000	0,027	-0,083
-329,431	-103,141	0,081	0,014
-328,416	31,103	0,137	0,085
-327,402	143,510	0,111	0,107
-326,387	-159,161	-0,079	0,003
-325,372	86,048	0,064	-0,051
-324,358	-200,000	-0,010	-0,108
-323,343	-200,000	0,004	-0,148
-322,329	74,264	-0,048	-0,037
-321,314	246,037	0,077	0,094
-320,299	-83,950	0,013	-0,003
-319,285	800,000	-0,020	0,056
-318,270	-57,893	-0,081	-0,025
-317,256	-200,000	0,003	-0,095
-316,241	46,784	0,038	-0,026
-315,226	10,442	-0,054	0,030
-314,212	-143,610	0,125	-0,008
-313,197	68,289	-0,043	-0,032
-312,183	115,530	0,036	-0,032
-311,168	384,220	-0,095	-0,142
-310,153	-185,773	0,096	0,001
-309,139	-200,000	-0,013	-0,055
-308,124	-84,382	0,150	-0,034
-307,110	-91,094	-0,037	0,008
-306,095	-200,000	0,007	-0,030
-305,080	72,628	0,107	0,081
-304,066	-200,000	-0,001	0,069
-303,051	317,664	0,043	0,059
-302,037	128,899	-0,057	0,053
-301,022	-65,375	0,079	-0,023
-300,008	53,412	0,046	0,032
-298,993	-200,000	0,015	0,066
-297,978	-200,000	-0,025	0,248
-296,964	621,430	0,022	0,040
-295,949	-200,000	-0,029	0,094
-294,935	-14,603	0,041	0,019
-293,920	-61,901	-0,106	-0,032
-292,905	-200,000	0,025	-0,150
-291,891	800,000	0,056	0,126
-290,876	-200,000	0,016	0,056
-289,862	158,529	-0,056	-0,056
-288,847	113,098	0,072	-0,063
-287,832	-200,000	0,016	-0,069
-286,818	-16,861	0,116	-0,053
-285,803	361,963	-0,071	0,104
-284,789	-200,000	0,010	-0,101
-283,774	212,159	0,064	0,073
-282,759	-84,085	0,094	-0,021
-281,745	-193,927	-0,122	-0,001
-280,730	-200,000	-0,010	0,064
-279,716	-200,000	0,008	0,039
-278,701	74,180	0,038	0,029
-277,686	-13,427	-0,043	0,020
-276,672	30,531	-0,035	-0,021
-275,657	-200,000	0,005	-0,057
-274,643	157,540	-0,057	0,057
-273,628	54,990	-0,083	-0,058
-272,613	-200,000	-0,045	-0,187
-271,599	-43,677	0,027	0,010
-270,584	231,206	0,088	0,104
-269,570	54,182	0,133	0,092
-268,555	-139,784	-0,090	0,007
-267,540	-40,723	0,073	-0,027
-266,526	-200,000	0,012	0,059
-265,511	153,601	-0,033	0,033
-264,497	330,970	0,076	0,107
-263,482	-200,000	0,004	0,018
-262,467	8,524	0,120	0,065
-261,453	-101,682	-0,027	-0,005
-260,438	-109,794	-0,048	-0,007
-259,424	-200,000	-0,028	0,092
-258,409	-6,564	-0,102	-0,050
-257,395	497,377	0,042	-0,071
-256,380	-200,000	-0,007	0,061
-255,365	-33,701	-0,041	0,016
-254,351	-190,692	-0,074	0,001
-253,336	-200,000	-0,008	0,120
-252,322	571,424	-0,119	-0,210
-251,307	-200,000	-0,003	-0,091
-250,292	-200,000	0,005	0,145
-249,278	593,425	-0,052	-0,093
-248,263	16,671	0,123	0,070
-247,249	271,780	-0,064	0,082
-246,234	214,953	0,083	0,095
-245,219	800,000	0,042	-0,091
-244,205	508,990	0,051	-0,085
-243,190	-113,693	0,208	-0,029
-242,176	138,046	-0,035	0,033
-241,161	-89,794	0,094	0,020
-240,146	47,858	-0,164	-0,110
-239,132	416,153	0,029	-0,045
-238,117	312,198	0,045	-0,061
-237,103	800,000	0,029	-0,089
-236,088	-109,910	-0,098	0,015
-235,073	190,226	-0,091	0,098
-234,059	322,563	-0,128	-0,176
-233,044	-4,279	0,069	-0,035
-232,030	-200,000	0,001	0,068
-231,015	-41,520	-0,123	0,045
-230,000	800,000	0,014	0,042
-228,986	-93,710	-0,057	0,011
-227,971	-10,559	-0,045	0,022
-226,957	-58,655	0,059	0,018
-225,942	-80,736	-0,113	-0,027
-224,927	-116,344	-0,091	-0,012
-223,913	-75,804	-0,108	0,027
-222,898	-101,677	-0,191	-0,033
-221,884	790,867	0,032	0,064
-220,869	-33,707	0,052	0,020
-219,855	-137,428	0,128	0,010
-218,840	-94,907	0,061	-0,012
-217,825	-200,000	0,017	0,062
-216,811	46,828	-0,087	-0,058
-215,796	362,578	-0,102	-0,148
-214,782	217,042	0,073	-0,084
-213,767	-109,583	-0,050	-0,008
-212,752	800,000	-0,022	0,054
-211,738	61,466	0,071	0,051
-210,723	218,940	0,008	0,009
-209,709	-34,936	0,028	0,011
-208,694	-65,712	-0,138	-0,040
-207,679	105,383	-0,145	-0,124
-206,665	800,000	0,077	0,174
-205,650	133,060	0,033	0,031
-204,636	283,146	-0,076	-0,098
-203,621	27,274	-0,049	0,029
-202,606	-114,893	-0,113	-0,015
-201,592	-200,000	-0,005	-0,025
-200,577	293,360	-0,058	-0,076
-199,563	800,000	0,046	0,097
-198,548	-200,000	-0,040	0,180
-197,533	19,956	-0,084	0,049
-196,519	27,689	0,078	0,047
-195,504	-200,000	-0,024	-0,104
-194,490	539,889	-0,024	0,041
-193,475	-200,000	-0,013	-0,046
-192,460	-141,597	-0,107	-0,008
-191,446	-50,406	0,128	0,043
-190,431	9,478	-0,099	-0,054
-189,417	-200,000	0,005	-0,031
-188,402	203,159	0,031	-0,035
-187,387	-118,601	-0,081	-0,010
-186,373	110,145	-0,037	0,032
-185,358	-161,275	0,071	0,003
-184,344	50,222	0,006	0,004
-183,329	-79,974	0,125	0,030
-182,315	62,173	0,050	-0,036
-181,300	-200,000	0,018	-0,104
-180,285	93,987	-0,045	-0,037
-179,271	-143,058	0,118	-0,008
-178,256	660,298	-0,054	-0,101
-177,242	-200,000	0,010	0,053
-176,227	800,000	-0,030	0,085
-175,212	-200,000	0,023	0,093
-174,198	56,555	0,045	0,031
-173,183	-30,249	0,106	0,043
-172,169	-53,457	0,091	-0,030
-171,154	-103,436	-0,046	-0,008
-170,139	196,018	0,082	-0,090
-169,125	114,751	0,016	-0,014
-168,110	-156,940	0,034	-0,001
-167,096	-155,999	-0,123	0,006
-166,081	800,000	0,029	-0,065
-165,066	-21,416	-0,074	-0,032
-164,052	-200,000	-0,018	-0,136
-163,037	161,391	-0,039	0,039
-162,023	89,043	0,058	-0,046
-161,008	5,037	0,087	0,046
-159,993	126,265	0,054	0,049
-158,979	-200,000	0,004	0,109
-157,964	-200,000	0,012	-0,070
-156,950	124,762	0,075	-0,068
-155,935	-200,000	-0,007	-0,029
-154,920	-200,000	0,004	0,143
-153,906	61,103	-0,044	0,032
-152,891	220,959	0,061	-0,070
-151,877	-102,108	0,018	0,003
-150,862	-200,000	-0,001	-0,096
-149,847	77,241	0,059	-0,045
-148,833	43,843	-0,067	-0,044
-147,818	-200,000	0,016	0,123
-146,804	482,874	0,076	0,125
-145,789	-70,530	0,100	0,027
-144,775	593,489	0,029	0,052
-143,760	-64,533	0,122	0,035
-142,745	-200,000	-0,034	-0,135
-141,731	-200,000	0,003	-0,092
-140,716	42,071	0,029	0,019
-139,702	-200,000	-0,023	0,177
-138,687	-200,000	-0,013	0,121
-137,672	-200,000	0,031	0,149
-136,658	800,000	0,029	-0,067
-135,643	322,800	-0,057	-0,078
-134,629	160,948	-0,107	0,107
-133,614	83,959	0,033	0,026
-132,599	800,000	-0,024	-0,068
-131,585	-48,903	0,042	0,014
-130,570	-200,000	-0,005	0,070
-129,556	155,423	0,092	-0,091
-128,541	-100,778	-0,025	0,004
-127,526	-143,936	-0,022	-0,001
-126,512	563,976	-0,042	-0,074
-125,497	63,737	-0,067	0,048
-124,483	-20,567	0,097	-0,043
-123,468	-196,621	-0,125	0,001
-122,453	312,930	-0,065	-0,087
-121,439	279,069	0,059	-0,075
-120,424	-200,000	-0,006	0,145
-119,410	-101,881	-0,018	-0,003
-118,395	-200,000	0,041	0,193
-117,380	58,915	-0,068	0,048
-116,366	-18,818	-0,034	-0,015
-115,351	800,000	0,012	0,033
-114,337	800,000	-0,033	0,082
-113,322	88,520	-0,109	0,087
-112,307	-171,358	-0,096	-0,002
-111,293	-13,647	-0,065	0,030
-110,278	-200,000	0,015	-0,120
-109,264	-118,852	-0,117	-0,015
-108,249	-200,000	0,038	-0,143
-107,234	800,000	-0,030	0,087
-106,220	-15,385	-0,081	-0,037
-105,205	-200,000	-0,005	0,054
-104,191	241,027	0,069	0,083
-103,176	315,161	0,050	0,068
-102,162	452,632	0,031	-0,049
-101,147	-200,000	-0,009	0,068
-100,132	15,772	-0,103	0,058
-99,118	163,460	-0,046	-0,046
-98,103	480,657	-0,037	0,060
-97,089	99,936	0,076	0,063
-96,074	46,154	-0,028	-0,019
-95,059	-186,887	0,129	-0,001
-94,045	190,793	-0,029	0,031
-93,030	53,948	-0,063	0,043
-92,016	-200,000	-0,001	-0,110
-91,001	-200,000	0,010	-0,131
-89,986	117,037	0,061	0,054
-88,972	228,575	0,157	0,184
-87,957	-200,000	-0,002	0,016
-86,943	-200,000	0,048	0,182
-85,928	110,141	-0,033	0,028
-84,913	72,053	0,050	-0,037
-83,899	663,657	-0,065	0,121
-82,884	-143,902	-0,074	-0,005
-81,870	800,000	0,018	0,053
-80,855	-31,630	0,056	0,022
-79,840	-97,079	-0,060	-0,011
-78,826	-77,932	-0,106	-0,026
-77,811	151,994	0,077	-0,075
-76,797	496,134	-0,067	0,110
-75,782	38,033	-0,151	0,096
-74,767	-47,217	0,116	-0,040
-73,753	249,577	-0,017	0,020
-72,738	-200,000	0,001	0,011
-71,724	381,443	-0,061	-0,090
-70,709	800,000	-0,033	-0,079
-69,694	-28,139	-0,158	0,065
-68,680	6,821	-0,075	0,040
-67,665	-200,000	-0,007	-0,128
-66,651	-200,000	-0,025	0,090
-65,636	800,000	0,022	0,054
-64,622	73,337	0,084	0,063
-63,607	-200,000	0,003	0,060
-62,592	-45,570	0,036	-0,013
-61,578	-30,024	0,043	-0,017
-60,563	-95,069	-0,054	0,010
-59,549	-200,000	-0,017	-0,059
-58,534	29,224	-2,089	-1,268
-57,519	800,000	-0,270	-0,723
-56,505	-200,000	-1,324	-5,246
-55,490	91,694	0,858	0,690
-54,476	800,000	5,407	12,083
-53,461	-200,000	18,182	291,347
-52,446	800,000	729,602	2215,874
-51,432	523,717	1641,670	2774,526
-50,417	107,646	1630,533	1389,802
-49,403	72,171	1282,991	955,745
-48,388	30,689	1024,749	626,623
-47,373	19,823	986,670	567,648
-46,359	17,942	974,399	554,428
-45,344	14,838	970,438	542,041
-44,330	15,147	968,987	542,216
-43,315	14,617	967,135	539,436
-42,300	14,574	965,884	538,577
-41,286	14,548	965,137	538,054
-40,271	14,483	964,187	537,291
-39,257	14,532	963,325	536,951
-38,242	14,543	962,153	536,311
-37,227	14,520	961,530	535,867
-36,213	14,598	960,500	535,525
-35,198	14,504	959,794	534,806
-34,184	14,531	959,058	534,461
-33,169	14,475	957,971	533,653
-32,154	14,622	957,016	533,575
-31,140	14,556	956,325	532,956
-30,125	14,569	955,438	532,480
-29,111	14,496	954,857	531,902
-28,096	14,600	954,175	531,835
-27,082	14,587	953,224	531,242
-26,067	14,563	952,450	530,714
-25,052	14,529	951,920	530,288
-24,038	14,545	951,228	529,932
-23,023	14,531	950,639	529,539
-22,009	14,570	949,809	529,181
-20,994	14,529	949,421	528,811
-19,979	14,573	948,656	528,506
-18,965	14,550	948,084	528,092
-17,950	14,562	947,516	527,794
-16,936	14,516	946,719	527,181
-15,921	14,510	946,089	526,792
-14,906	14,428	945,364	526,105
-13,892	14,422	944,741	525,718
-12,877	14,455	944,150	525,475
-11,863	14,475	943,497	525,152
-10,848	14,430	943,042	524,735
-9,833	14,547	942,490	524,778
-8,819	14,497	941,851	524,246
-7,804	14,473	941,208	523,789
-6,790	14,463	940,584	523,389
-5,775	14,489	939,978	523,113
-4,760	14,471	939,495	522,767
-3,746	14,441	938,733	522,227
-2,731	14,346	937,992	521,496
-1,717	14,220	937,495	520,804
-0,702	14,312	936,598	520,573
0,313	14,051	936,190	520,311
1,327	17,458	934,001	529,734
2,342	26,242	787,073	469,433
3,356	22,444	442,811	258,485
4,371	-6,639	295,181	143,295
5,386	-10,545	277,023	130,774
6,400	-11,705	271,396	127,030
7,415	-11,830	268,960	125,764
8,429	-12,130	267,557	124,822
9,444	-12,011	266,786	124,559
10,459	-11,933	265,950	124,229
11,473	-12,286	265,411	123,646
12,488	-12,536	264,836	123,141
13,502	-12,459	264,254	122,928
14,517	-12,492	263,820	122,686
15,531	-12,555	263,545	122,490
16,546	-12,502	263,200	122,368
17,561	-12,491	262,678	122,124
18,575	-12,555	262,490	121,968
19,590	-12,350	261,939	121,884
20,604	-12,282	261,652	121,801
21,619	-12,677	261,379	121,310
22,634	-12,411	260,976	121,349
23,648	-12,479	260,764	121,180
24,663	-12,446	260,345	121,004
25,677	-12,383	260,259	121,009
26,692	-12,559	259,893	120,671
27,707	-12,295	259,710	120,809
28,721	-12,538	259,370	120,426
29,736	-12,591	259,160	120,271
30,750	-12,544	258,937	120,198
31,765	-12,567	258,514	119,970
32,780	-12,629	258,403	119,854
33,794	-12,659	258,108	119,680
34,809	-12,511	257,928	119,716
35,823	-12,525	257,654	119,566
36,838	-12,699	257,338	119,256
37,853	-12,767	257,187	119,116
38,867	-12,507	256,768	119,139
39,882	-12,789	256,694	118,846
40,896	-12,569	256,512	118,944
41,911	-12,633	256,272	118,766
42,926	-12,612	256,000	118,648
43,940	-12,512	255,542	118,512
44,955	-12,556	255,553	118,469
45,969	-12,629	255,222	118,241
46,984	-12,647	255,102	118,159
47,999	-13,046	254,701	117,617
49,013	-13,046	254,501	117,514
50,028	-13,083	254,157	117,312
51,042	-13,298	254,131	117,104
52,057	-13,323	253,708	116,877
53,071	-13,249	253,516	116,842
54,086	-13,060	253,402	116,942
55,101	-13,165	253,345	116,815
56,115	-12,858	253,062	116,938
57,130	-12,400	252,838	117,219
58,144	-12,383	252,800	117,205
59,159	-12,436	252,547	117,032
60,174	-12,442	252,465	116,979
61,188	-12,407	252,095	116,826
62,203	-12,537	251,805	116,570
63,217	-12,420	251,693	116,608
64,232	-12,627	251,563	116,360
65,247	-12,264	251,184	116,485
66,261	-12,457	251,056	116,250
67,276	-12,521	250,742	116,040
68,290	-12,729	250,506	115,743
69,305	-13,031	250,351	115,404
70,320	-12,931	250,131	115,378
71,334	-12,840	250,132	115,445
72,349	-12,573	249,802	115,510
73,363	-12,432	249,546	115,500
74,378	-12,284	249,348	115,523
75,393	-12,363	249,273	115,412
76,407	-12,555	249,112	115,165
77,422	-12,502	248,815	115,061
78,436	-12,496	248,516	114,918
79,451	-12,491	248,444	114,879
80,466	-12,524	248,007	114,639
81,480	-12,748	247,980	114,427
82,495	-12,516	247,637	114,454
83,509	-12,731	247,576	114,235
84,524	-12,735	247,316	114,101
85,539	-12,887	247,105	113,866
86,553	-12,797	246,861	113,819
87,568	-12,641	246,659	113,846
88,582	-12,588	246,524	113,818
89,597	-12,666	246,299	113,639
90,611	-12,423	246,005	113,696
91,626	-12,449	246,078	113,698
92,641	-12,519	245,853	113,525
93,655	-12,534	245,566	113,370
94,670	-12,664	245,329	113,142
95,684	-12,499	245,269	113,242
96,699	-12,635	245,016	113,002
97,714	-12,640	244,689	112,837
98,728	-12,886	244,617	112,590
99,743	-12,793	244,412	112,562
100,757	-12,714	244,085	112,468
101,772	-12,608	243,955	112,485
102,787	-12,725	243,876	112,342
103,801	-12,701	243,647	112,246
104,816	-12,526	243,451	112,290
105,830	-12,504	243,454	112,300
106,845	-12,406	243,265	112,283
107,860	-12,449	243,008	112,119
108,874	-12,445	242,748	111,992
109,889	-12,552	242,590	111,822
110,903	-12,536	242,376	111,726
111,918	-12,506	242,063	111,597
112,933	-12,622	242,002	111,463
113,947	-12,548	241,797	111,420
114,962	-12,386	241,699	111,498
115,976	-12,469	241,489	111,322
116,991	-12,366	241,253	111,288
118,006	-12,526	241,188	111,117
119,020	-12,430	241,050	111,122
120,035	-12,569	241,023	110,986
121,049	-12,363	240,650	110,973
122,064	-12,427	240,520	110,851
123,079	-12,198	240,215	110,886
124,093	-12,504	239,920	110,492
125,108	-12,527	239,680	110,353
126,122	-12,963	239,639	109,970
127,137	-13,100	239,559	109,813
128,151	-12,840	239,252	109,873
129,166	-12,697	239,174	109,943
130,181	-12,911	238,920	109,644
131,195	-12,949	238,732	109,517
132,210	-12,489	238,450	109,749
133,224	-12,378	238,391	109,801
134,239	-12,637	238,396	109,585
135,254	-12,314	238,097	109,698
136,268	-12,555	237,909	109,408
137,283	-12,838	237,542	109,002
138,297	-12,920	237,391	108,857
139,312	-12,940	237,298	108,788
140,327	-12,556	237,223	109,052
141,341	-12,254	237,187	109,268
142,356	-12,237	237,040	109,204
143,370	-12,260	236,817	109,074
144,385	-12,490	236,712	108,831
145,400	-12,244	236,426	108,886
146,414	-12,215	236,262	108,824
147,429	-12,392	236,000	108,553
148,443	-12,490	235,920	108,428
149,458	-12,328	235,690	108,443
150,473	-12,464	235,697	108,327
151,487	-12,383	235,326	108,211
152,502	-12,241	235,168	108,242
153,516	-12,295	235,086	108,152
154,531	-12,431	234,861	107,931
155,546	-12,233	234,683	107,996
156,560	-12,500	234,564	107,720
157,575	-12,469	234,266	107,599
158,589	-12,361	234,112	107,604
159,604	-12,045	233,957	107,772
160,619	-12,059	233,914	107,732
161,633	-12,317	233,946	107,533
162,648	-12,403	233,693	107,339
163,662	-12,335	233,499	107,294
164,677	-12,539	233,320	107,042
165,692	-12,402	233,134	107,055
166,706	-12,246	233,015	107,113
167,721	-11,934	232,836	107,266
168,735	-12,007	232,766	107,167
169,750	-12,001	232,487	107,034
170,764	-12,256	232,444	106,804
171,779	-12,360	232,305	106,650
172,794	-12,291	232,055	106,580
173,808	-12,419	231,878	106,388
174,823	-12,765	231,457	105,917
175,837	-12,784	231,223	105,785
176,852	-12,378	231,377	106,163
177,867	-12,238	231,184	106,173
178,881	-12,468	231,088	105,941
179,896	-12,200	230,968	106,084
180,910	-12,333	230,703	105,850
181,925	-12,150	230,576	105,925
182,940	-12,210	230,461	105,815
183,954	-12,168	230,251	105,742
184,969	-12,167	230,210	105,715
185,983	-12,111	230,028	105,666
186,998	-12,003	229,899	105,681
188,013	-12,137	229,746	105,497
189,027	-11,923	229,517	105,548
190,042	-12,251	229,428	105,244
191,056	-12,043	229,220	105,300
192,071	-11,891	229,034	105,322
193,086	-12,136	228,852	105,041
194,100	-11,828	228,759	105,225
195,115	-12,378	228,559	104,701
196,129	-12,131	228,641	104,919
197,144	-7,364	229,994	109,213
198,159	-2,900	231,553	113,408
199,173	0,814	232,465	116,732
200,188	1,618	232,376	117,300
201,202	1,383	232,327	117,083
202,217	1,372	232,028	116,913
203,232	1,460	231,942	116,927
204,246	1,518	231,842	116,911
205,261	1,704	231,658	116,952
206,275	1,988	231,516	117,089
207,290	1,903	231,560	117,035
208,304	1,951	231,385	116,974
209,319	1,837	231,095	116,729
210,334	1,849	230,891	116,624
211,348	1,609	230,798	116,382
212,363	1,411	230,553	116,097
213,377	1,340	230,283	115,895
214,392	1,241	230,166	115,750
215,407	1,496	230,090	115,897
216,421	1,605	229,813	115,831
217,436	1,408	229,682	115,604
218,450	1,061	229,517	115,244
219,465	1,021	229,481	115,186
220,480	1,137	229,154	115,100
221,494	1,073	229,018	114,973
222,509	1,334	229,062	115,183
223,523	1,519	228,831	115,198
224,538	1,337	228,700	114,983
225,553	1,473	228,430	114,941
226,567	1,462	228,371	114,892
227,582	1,643	228,475	115,073
228,596	1,661	228,234	114,955
229,611	1,412	228,101	114,688
230,626	1,187	227,803	114,358
231,640	1,168	227,667	114,265
232,655	1,655	227,333	114,455
233,669	1,755	227,595	114,653
234,684	2,146	227,474	114,877
235,699	2,157	227,056	114,664
236,713	1,319	227,034	114,010
237,728	1,278	226,850	113,877
238,742	1,163	226,635	113,672
239,757	1,388	226,502	113,764
240,772	1,377	226,198	113,594
241,786	1,380	226,176	113,574
242,801	1,641	226,006	113,675
243,815	1,843	226,200	113,915
244,830	1,756	225,952	113,714
245,844	1,427	225,431	113,195
246,859	1,389	225,385	113,134
247,874	1,461	225,344	113,157
248,888	1,556	225,215	113,153
249,903	1,545	225,149	113,102
250,917	1,060	225,063	112,685
251,932	1,424	224,561	112,696
252,947	1,236	224,373	112,451
253,961	1,146	224,397	112,386
254,976	1,391	224,251	112,485
255,990	1,537	224,141	112,529
257,005	1,720	223,988	112,579
258,020	1,649	223,896	112,469
259,034	1,723	223,776	112,453
260,049	1,709	223,540	112,315
261,063	1,678	223,403	112,213
262,078	1,898	223,330	112,329
263,093	1,969	223,280	112,346
264,107	1,909	223,037	112,170
265,122	1,619	222,795	111,824
266,136	1,866	222,815	112,007
267,151	1,758	222,656	111,837
268,166	1,551	222,372	111,532
269,180	1,173	222,000	111,057
270,195	1,502	221,872	111,225
271,209	1,270	221,849	111,033
272,224	1,285	221,893	111,056
273,239	1,492	221,710	111,107
274,253	1,570	221,414	111,005
275,268	1,002	221,371	110,557
276,282	1,008	221,125	110,429
277,297	0,944	221,018	110,318
278,312	1,292	220,928	110,519
279,326	1,198	220,810	110,381
280,341	1,319	220,718	110,414
281,355	1,481	220,516	110,422
282,370	1,646	220,392	110,470
283,384	1,098	220,140	109,934
284,399	1,032	220,009	109,811
285,414	1,261	219,896	109,911
286,428	1,304	219,841	109,905
287,443	1,633	219,709	110,069
288,457	1,691	219,567	110,030
289,472	1,474	219,271	109,714
290,487	1,161	218,876	109,281
291,501	0,678	218,986	108,975
292,516	1,073	218,799	109,158
293,530	0,926	218,841	109,063
294,545	1,089	218,706	109,104
295,560	1,209	218,598	109,127
296,574	1,384	218,431	109,161
297,589	1,448	218,284	109,123
298,603	1,605	218,112	109,142
299,618	1,518	217,947	108,986
300,633	1,521	217,985	108,998
301,647	1,739	217,807	109,056
302,662	1,614	217,778	108,942
303,676	1,743	217,552	108,912
304,691	1,665	217,307	108,723
305,706	1,720	217,248	108,724
306,720	1,834	216,988	108,666
307,735	1,403	216,792	108,249
308,749	1,570	216,657	108,292
309,764	1,696	216,617	108,352
310,779	1,643	216,567	108,279
311,793	1,549	216,340	108,089
312,808	1,497	216,267	108,006
313,822	1,687	216,056	108,026
314,837	1,579	215,849	107,836
315,852	1,317	215,684	107,557
316,866	1,291	215,680	107,527
317,881	1,543	215,607	107,661
318,895	1,586	215,397	107,577
319,910	1,572	215,100	107,409
320,925	1,045	214,867	106,909
321,939	0,786	214,755	106,660
322,954	0,967	214,841	106,822
323,968	1,683	214,714	107,257
324,983	1,731	214,686	107,267
325,997	1,843	214,572	107,280
327,012	1,646	214,427	107,059
328,027	1,559	214,258	106,903
329,041	1,726	214,118	106,942
330,056	1,338	213,878	106,539
331,070	1,135	213,594	106,244
332,085	1,243	213,544	106,287
333,100	1,449	213,359	106,330
334,114	1,734	213,375	106,529
335,129	1,703	213,162	106,392
336,143	1,568	212,910	106,161
337,158	1,585	212,918	106,168
338,173	1,613	212,718	106,078
339,187	1,342	212,519	105,780
340,202	1,330	212,478	105,741
341,216	1,182	212,397	105,588
342,231	1,273	212,242	105,565
343,246	1,319	212,070	105,502
344,260	1,493	211,886	105,523
345,275	1,225	212,017	105,391
346,289	1,747	211,852	105,664
347,304	2,066	211,600	105,752
348,319	1,800	211,506	105,510
349,333	1,646	211,267	105,274
350,348	1,602	211,161	105,181
351,362	1,827	211,259	105,377
352,377	2,011	210,861	105,297
353,392	1,660	210,839	105,033
354,406	1,659	210,746	104,977
355,421	196,558	1314,701	1391,440
356,435	157,158	1449,164	1391,408
