DTS Sentinel unit serial number:	SN410029Multiplexer serial number:	ORYXHardware model number:	OX2-SRSoftware version number:	ORYX F/W v4,00 Oryx Data Collector v3.7.2.0data status	okinstallation	B6 Nyhavnadifferential loss correction	single-endedforward channel	channel 2reverse channel	N/Adate	2023/12/07time	12:50:08forward acquisition time	300,00reverse acquisition time	0,00gamma	499,1914k internal	0,3203k external	0,3203temperature offset calibration	1,0000default loss term (dB/km)	0,3820temperature slope calibration	1,0000multiplexer offset coefficient	1,0000multiplexer slope coefficient	1,0000fibre end	0,00T internal ref (°C)	10,76T ext. ref 1 (°C)	-2,84T ext. ref 2 (°C)	-2,81length (m)	temperature (°C)	Stokes	anti-Stokes-744,400	-66,101	0,097	-0,028
-743,385	-102,525	-0,221	-0,038
-742,371	-71,805	0,260	0,070
-741,356	-86,691	-0,380	0,084
-740,342	-52,805	0,189	0,063
-739,327	-131,741	-0,290	-0,027
-738,312	-8,409	0,176	0,086
-737,298	0,786	-0,387	-0,200
-736,283	-114,304	0,175	-0,024
-735,269	-42,783	-0,220	-0,081
-734,254	-133,038	0,090	0,008
-733,239	-25,546	-0,540	-0,230
-732,225	-168,554	0,172	0,005
-731,210	800,000	0,006	0,014
-730,196	-200,000	0,014	-0,107
-729,181	-43,955	0,090	0,033
-728,167	-108,273	-0,118	0,018
-727,152	-50,950	-0,101	0,034
-726,137	-79,969	0,087	0,021
-725,123	-85,394	0,057	0,013
-724,108	-117,492	-0,103	0,013
-723,094	17,100	0,062	-0,035
-722,079	187,469	-0,027	0,030
-721,064	-200,000	-0,035	0,159
-720,050	-13,273	-0,094	-0,044
-719,035	800,000	-0,016	-0,039
-718,021	-115,512	-0,074	0,010
-717,006	74,916	-0,103	-0,078
-715,991	22,036	-0,054	0,032
-714,977	71,274	0,031	-0,023
-713,962	-127,574	-0,025	0,003
-712,948	800,000	-0,041	-0,097
-711,933	-40,906	0,022	-0,008
-710,918	168,112	0,048	0,050
-709,904	633,505	0,073	-0,135
-708,889	-69,952	-0,045	-0,012
-707,875	-151,448	-0,104	-0,005
-706,860	785,191	-0,032	0,064
-705,845	-200,000	-0,010	0,069
-704,831	-7,127	0,083	0,041
-703,816	-139,718	-0,114	0,009
-702,802	-120,538	-0,182	-0,022
-701,787	-77,466	-0,106	-0,027
-700,772	-200,000	-0,025	-0,089
-699,758	-200,000	0,016	0,109
-698,743	-41,905	0,096	0,036
-697,729	122,261	0,045	0,041
-696,714	-29,470	0,061	0,025
-695,699	-115,444	-0,099	0,013
-694,685	-9,523	-0,171	-0,083
-693,670	18,653	-0,177	-0,102
-692,656	37,310	0,084	-0,054
-691,641	-138,822	-0,039	0,003
-690,627	-200,000	0,005	0,047
-689,612	800,000	-0,058	-0,144
-688,597	-200,000	0,022	-0,127
-687,583	800,000	-0,057	-0,180
-686,568	800,000	0,041	-0,096
-685,554	800,000	-0,021	-0,050
-684,539	-200,000	-0,012	-0,139
-683,524	800,000	0,032	0,083
-682,510	469,309	-0,028	0,045
-681,495	462,195	0,079	-0,128
-680,481	-200,000	-0,025	-0,135
-679,466	-200,000	0,023	-0,148
-678,451	-200,000	0,004	-0,136
-677,437	-200,000	0,003	0,101
-676,422	-10,718	-0,082	0,039
-675,408	114,587	0,028	-0,025
-674,393	-200,000	0,008	-0,048
-673,378	136,736	0,117	-0,111
-672,364	-200,000	0,009	0,030
-671,349	-200,000	0,042	-0,203
-670,335	345,327	0,051	0,072
-669,320	-118,236	0,102	-0,013
-668,305	70,030	0,067	-0,050
-667,291	-200,000	0,032	0,105
-666,276	106,123	-0,106	-0,091
-665,262	0,600	-0,121	-0,062
-664,247	-122,150	0,043	-0,005
-663,232	45,933	-0,157	0,105
-662,218	6,672	0,049	-0,026
-661,203	547,610	-0,099	-0,172
-660,189	-61,418	-0,078	0,024
-659,174	-200,000	-0,004	-0,052
-658,159	441,020	0,040	0,063
-657,145	174,315	-0,090	-0,094
-656,130	25,914	0,097	-0,058
-655,116	-60,634	0,136	0,041
-654,101	-200,000	0,014	0,095
-653,086	64,426	-0,105	0,076
-652,072	-46,190	-0,063	-0,022
-651,057	242,692	-0,070	-0,085
-650,043	-51,292	0,164	-0,055
-649,028	-200,000	0,054	-0,179
-648,014	-28,042	0,076	0,032
-646,999	-200,000	-0,030	0,099
-645,984	800,000	-0,041	0,108
-644,970	800,000	-0,084	0,184
-643,955	800,000	-0,043	-0,099
-642,941	-166,933	-0,112	0,003
-641,926	795,662	-0,031	-0,061
-640,911	-124,161	0,038	-0,004
-639,897	-83,959	-0,091	0,021
-638,882	45,204	0,011	0,007
-637,868	-68,143	-0,138	-0,039
-636,853	-200,000	-0,043	-0,163
-635,838	-74,768	0,035	0,009
-634,824	-150,349	0,111	0,006
-633,809	515,507	-0,024	0,041
-632,795	317,066	-0,060	0,083
-631,780	131,344	-0,055	0,051
-630,765	-2,693	-0,096	-0,048
-629,751	752,397	-0,015	-0,029
-628,736	-62,108	-0,099	-0,030
-627,722	800,000	0,034	-0,092
-626,707	-200,000	0,004	-0,054
-625,692	-12,502	0,147	-0,069
-624,678	281,350	-0,050	0,066
-623,663	800,000	0,011	-0,029
-622,649	800,000	-0,038	0,099
-621,634	-200,000	0,020	0,085
-620,619	800,000	-0,020	-0,061
-619,605	-143,282	0,105	0,007
-618,590	-115,315	-0,093	-0,013
-617,576	-27,065	0,100	-0,042
-616,561	800,000	0,018	-0,057
-615,546	-75,770	-0,080	-0,020
-614,532	64,064	-0,060	-0,043
-613,517	214,347	0,013	0,015
-612,503	-71,564	-0,137	0,037
-611,488	184,713	0,082	0,088
-610,474	-163,252	-0,044	-0,001
-609,459	-200,000	0,026	-0,133
-608,444	210,749	-0,154	-0,175
-607,430	-58,876	-0,141	-0,044
-606,415	800,000	-0,049	-0,119
-605,401	-200,000	0,013	-0,047
-604,386	-51,739	0,052	0,017
-603,371	800,000	0,041	-0,122
-602,357	-16,007	0,105	0,048
-601,342	186,934	-0,099	-0,107
-600,328	71,491	-0,064	-0,048
-599,313	-27,670	0,115	-0,048
-598,298	35,362	-0,058	0,037
-597,284	-200,000	-0,005	-0,088
-596,269	13,734	0,111	0,062
-595,255	-68,420	-0,128	-0,036
-594,240	-200,000	0,021	-0,081
-593,225	143,125	0,011	0,010
-592,211	280,584	-0,071	-0,092
-591,196	-139,594	0,059	0,004
-590,182	109,722	0,067	-0,058
-589,167	-200,000	0,022	0,094
-588,152	361,162	0,024	0,035
-587,138	146,398	-0,099	-0,096
-586,123	-200,000	-0,016	-0,080
-585,109	68,651	-0,061	-0,045
-584,094	471,408	0,099	-0,162
-583,079	-200,000	0,009	0,077
-582,065	-3,686	0,130	-0,065
-581,050	-91,267	-0,149	0,031
-580,036	-185,454	0,012	0,000
-579,021	-89,699	-0,062	-0,013
-578,006	287,053	-0,111	-0,145
-576,992	336,858	0,005	-0,007
-575,977	-200,000	0,009	0,096
-574,963	430,436	0,068	0,106
-573,948	800,000	0,015	0,041
-572,934	800,000	-0,036	0,099
-571,919	800,000	-0,004	-0,009
-570,904	-200,000	-0,001	-0,008
-569,890	-70,415	0,095	0,026
-568,875	-15,757	-0,038	-0,018
-567,861	20,843	0,096	0,056
-566,846	-200,000	-0,001	-0,039
-565,831	-200,000	-0,013	-0,102
-564,817	553,619	-0,060	-0,104
-563,802	271,541	-0,040	-0,051
-562,788	694,928	-0,049	-0,093
-561,773	-24,094	-0,084	0,036
-560,758	43,640	-0,049	0,032
-559,744	765,752	-0,016	-0,032
-558,729	184,879	0,028	0,030
-557,715	800,000	0,028	0,056
-556,700	9,866	-0,126	-0,069
-555,685	14,575	0,084	-0,047
-554,671	125,328	-0,119	-0,108
-553,656	148,781	0,041	0,040
-552,642	-147,089	0,113	0,007
-551,627	62,730	-0,140	0,101
-550,612	309,605	-0,011	-0,014
-549,598	800,000	-0,028	-0,068
-548,583	700,817	0,018	-0,035
-547,569	800,000	0,012	-0,025
-546,554	-49,753	0,110	0,038
-545,539	243,674	0,050	0,060
-544,525	-200,000	0,005	-0,058
-543,510	69,527	0,095	-0,071
-542,496	-200,000	0,009	-0,138
-541,481	-46,608	0,085	-0,030
-540,466	800,000	-0,037	-0,093
-539,452	-200,000	-0,010	0,055
-538,437	-4,010	-0,087	0,044
-537,423	-72,792	0,092	-0,024
-536,408	466,923	-0,004	0,006
-535,393	59,973	0,122	-0,087
-534,379	0,489	-0,145	-0,075
-533,364	-200,000	-0,003	0,039
-532,350	214,030	0,052	0,059
-531,335	98,259	0,057	0,047
-530,321	-41,693	-0,007	-0,003
-529,306	-200,000	-0,009	0,068
-528,291	-18,153	0,074	0,033
-527,277	800,000	-0,017	0,052
-526,262	-200,000	0,005	0,041
-525,248	-200,000	0,004	-0,077
-524,233	469,832	-0,040	0,066
-523,218	19,873	0,054	0,031
-522,204	-144,558	-0,070	0,005
-521,189	-147,291	0,047	0,003
-520,175	180,355	-0,029	0,031
-519,160	-200,000	-0,004	0,034
-518,145	-27,626	-0,073	-0,030
-517,131	473,668	-0,070	0,114
-516,116	-116,939	0,087	-0,011
-515,102	-9,972	0,044	-0,021
-514,087	-43,073	-0,066	-0,024
-513,072	410,938	-0,059	0,091
-512,058	57,565	-0,116	-0,082
-511,043	-30,797	-0,110	0,045
-510,029	117,506	0,160	0,142
-509,014	800,000	-0,041	0,128
-507,999	226,950	-0,087	-0,102
-506,985	800,000	0,023	-0,046
-505,970	126,591	-0,117	-0,107
-504,956	12,852	-0,038	0,021
-503,941	105,033	0,136	0,115
-502,926	594,353	-0,072	0,129
-501,912	-157,101	0,066	0,003
-500,897	13,345	0,125	-0,070
-499,883	311,710	0,038	0,051
-498,868	-57,477	0,061	0,019
-497,853	-88,988	-0,080	0,017
-496,839	243,844	-0,041	-0,049
-495,824	-148,031	0,118	0,007
-494,810	-34,191	-0,094	0,037
-493,795	408,367	0,030	-0,046
-492,781	89,686	0,060	-0,048
-491,766	-126,418	-0,032	0,003
-490,751	661,889	0,053	-0,100
-489,737	-170,230	0,180	0,004
-488,722	101,488	0,031	0,026
-487,708	-11,968	-0,125	0,059
-486,693	-107,912	0,182	0,028
-485,678	677,538	-0,038	0,071
-484,664	86,732	-0,076	0,060
-483,649	626,794	0,035	0,064
-482,635	14,488	-0,006	0,003
-481,620	-200,000	0,008	0,097
-480,605	179,077	0,090	-0,095
-479,591	-200,000	0,038	-0,134
-478,576	800,000	0,051	-0,122
-477,562	-138,441	0,030	0,002
-476,547	-200,000	-0,025	-0,098
-475,532	73,137	0,045	0,034
-474,518	23,482	-0,055	0,032
-473,503	25,990	0,123	0,073
-472,489	96,775	0,127	0,104
-471,474	-12,409	-0,066	0,031
-470,459	800,000	-0,033	-0,079
-469,445	-84,138	0,047	-0,011
-468,430	76,142	-0,035	-0,026
-467,416	-106,148	0,059	-0,009
-466,401	-140,989	0,083	-0,006
-465,386	-12,279	0,094	-0,044
-464,372	-70,627	0,210	0,057
-463,357	-200,000	-0,043	-0,158
-462,343	-66,386	-0,050	0,014
-461,328	-200,000	-0,018	-0,087
-460,313	599,817	-0,076	-0,136
-459,299	482,121	0,083	-0,136
-458,284	13,735	0,100	0,056
-457,270	-26,703	0,083	-0,035
-456,255	380,619	0,069	-0,103
-455,241	-146,306	-0,097	-0,006
-454,226	171,711	-0,089	-0,092
-453,211	-165,970	0,199	0,006
-452,197	18,605	-0,081	0,046
-451,182	-200,000	0,005	-0,032
-450,168	-200,000	0,014	0,152
-449,153	800,000	-0,057	-0,118
-448,138	-200,000	0,008	-0,081
-447,124	-200,000	0,011	0,091
-446,109	562,157	-0,066	-0,115
-445,095	-73,843	0,166	0,043
-444,080	-200,000	0,006	0,113
-443,065	354,777	-0,081	-0,117
-442,051	-200,000	0,037	-0,122
-441,036	-200,000	-0,000	-0,063
-440,022	-200,000	-0,000	-0,083
-439,007	-159,197	-0,050	0,002
-437,992	800,000	0,005	-0,015
-436,978	-100,776	-0,061	0,011
-435,963	800,000	0,060	0,165
-434,949	598,823	-0,078	-0,139
-433,934	-200,000	-0,011	-0,070
-432,919	-200,000	-0,003	-0,056
-431,905	181,876	-0,027	0,028
-430,890	-52,647	0,042	-0,014
-429,876	690,914	-0,061	-0,115
-428,861	-200,000	0,005	0,042
-427,846	800,000	0,050	0,112
-426,832	800,000	0,011	0,023
-425,817	118,565	-0,075	-0,066
-424,803	800,000	0,048	0,121
-423,788	800,000	-0,049	-0,137
-422,773	294,171	-0,055	0,073
-421,759	-152,094	0,168	-0,009
-420,744	-100,064	0,086	0,015
-419,730	142,177	0,053	-0,051
-418,715	108,058	0,098	0,084
-417,701	-79,968	-0,144	0,034
-416,686	-43,588	0,054	0,019
-415,671	-200,000	0,008	0,069
-414,657	-36,898	0,066	-0,025
-413,642	142,062	-0,013	-0,013
-412,628	598,832	0,056	0,101
-411,613	-200,000	-0,020	-0,156
-410,598	72,205	-0,030	-0,022
-409,584	-200,000	0,008	-0,051
-408,569	800,000	-0,029	0,089
-407,555	190,500	0,043	0,047
-406,540	728,058	0,033	0,063
-405,525	152,058	0,073	0,071
-404,511	800,000	-0,018	-0,056
-403,496	-121,993	-0,102	0,012
-402,482	689,695	-0,039	-0,073
-401,467	-200,000	0,003	-0,103
-400,452	333,631	0,038	0,053
-399,438	59,825	-0,050	-0,035
-398,423	-4,148	-0,049	-0,024
-397,409	-141,068	0,090	0,006
-396,394	-200,000	0,003	0,210
-395,379	378,190	0,025	0,037
-394,365	-200,000	-0,006	0,130
-393,350	194,833	0,013	0,014
-392,336	487,929	0,049	0,081
-391,321	-200,000	-0,010	0,045
-390,306	15,906	-0,054	0,030
-389,292	-200,000	0,012	-0,073
-388,277	-200,000	0,016	0,053
-387,263	-175,111	-0,077	-0,001
-386,248	-45,912	0,094	0,033
-385,233	753,921	0,004	-0,007
-384,219	-53,119	0,158	-0,052
-383,204	158,761	-0,069	0,069
-382,190	-200,000	-0,020	-0,070
-381,175	-4,584	-0,152	0,075
-380,160	-200,000	-0,009	-0,069
-379,146	-200,000	0,010	0,137
-378,131	-129,964	0,035	-0,003
-377,117	-80,935	-0,096	0,023
-376,102	55,516	0,121	-0,084
-375,088	157,126	0,069	-0,069
-374,073	-200,000	0,015	0,114
-373,058	-200,000	0,024	0,117
-372,044	-200,000	-0,004	-0,040
-371,029	43,935	-0,046	0,030
-370,015	-114,070	0,071	-0,010
-369,000	-52,403	0,027	-0,009
-367,985	-200,000	0,006	-0,052
-366,971	-32,743	-0,044	-0,017
-365,956	-114,776	0,089	-0,012
-364,942	800,000	0,011	0,027
-363,927	800,000	0,021	-0,062
-362,912	338,522	0,107	0,150
-361,898	-200,000	-0,016	-0,147
-360,883	235,357	-0,038	0,045
-359,869	-200,000	0,027	0,179
-358,854	-200,000	0,024	0,077
-357,839	-200,000	-0,009	0,130
-356,825	-76,009	-0,022	0,006
-355,810	-200,000	0,001	0,085
-354,796	-200,000	-0,023	-0,145
-353,781	-27,393	-0,064	0,027
-352,766	-148,369	-0,089	-0,005
-351,752	-200,000	-0,005	-0,033
-350,737	174,397	0,047	-0,048
-349,723	-121,334	-0,098	-0,012
-348,708	-200,000	-0,004	0,049
-347,693	99,131	-0,058	0,048
-346,679	-162,020	0,073	-0,003
-345,664	105,955	-0,123	0,104
-344,650	55,053	0,169	0,117
-343,635	800,000	0,040	0,116
-342,620	-32,813	-0,089	-0,035
-341,606	-200,000	0,002	0,092
-340,591	-65,564	-0,064	0,018
-339,577	29,891	-0,098	0,060
-338,562	304,409	-0,075	-0,100
-337,548	800,000	0,033	0,103
-336,533	-200,000	-0,025	0,122
-335,518	-200,000	-0,001	0,107
-334,504	-200,000	-0,001	0,019
-333,489	147,622	0,008	-0,008
-332,475	75,138	-0,078	-0,059
-331,460	450,034	-0,019	-0,030
-330,445	140,835	0,036	0,034
-329,431	71,515	0,070	0,052
-328,416	333,633	-0,046	0,063
-327,402	800,000	0,031	-0,073
-326,387	9,750	0,113	-0,061
-325,372	269,039	-0,076	-0,096
-324,358	331,481	-0,052	0,072
-323,343	462,829	0,101	0,161
-322,329	78,103	0,137	-0,104
-321,314	15,465	-0,094	-0,053
-320,299	148,766	0,014	0,013
-319,285	-43,792	-0,101	0,036
-318,270	34,007	-0,029	0,018
-317,256	121,086	0,122	-0,108
-316,241	364,735	-0,024	0,035
-315,226	-200,000	0,112	0,000
-314,212	590,927	-0,049	-0,086
-313,197	111,008	0,120	0,103
-312,183	-200,000	0,004	0,094
-311,168	346,333	0,103	-0,146
-310,153	-74,648	-0,078	0,020
-309,139	-200,000	0,026	-0,085
-308,124	188,989	0,014	-0,015
-307,110	800,000	0,033	0,084
-306,095	-200,000	-0,029	0,109
-305,080	-48,322	-0,143	0,049
-304,066	-200,000	-0,012	0,129
-303,051	570,916	0,108	-0,189
-302,037	585,370	0,053	0,094
-301,022	41,261	0,085	0,055
-300,008	-42,724	-0,038	0,014
-298,993	-37,306	0,033	0,012
-297,978	-200,000	0,045	0,202
-296,964	518,258	0,038	0,064
-295,949	347,041	-0,049	-0,069
-294,935	417,372	-0,058	-0,089
-293,920	54,011	0,116	-0,079
-292,905	-53,851	0,095	-0,031
-291,891	-200,000	0,038	0,136
-290,876	800,000	0,043	-0,094
-289,862	-200,000	-0,011	-0,038
-288,847	-15,779	-0,150	0,068
-287,832	-155,697	0,081	-0,004
-286,818	-0,839	0,088	0,044
-285,803	87,760	0,037	-0,029
-284,789	-49,706	-0,094	-0,032
-283,774	529,485	-0,030	0,051
-282,759	242,728	-0,094	0,113
-281,745	-200,000	-0,021	-0,129
-280,730	68,392	0,054	-0,039
-279,716	-200,000	0,013	0,059
-278,701	-100,678	-0,074	0,013
-277,686	-4,410	0,155	-0,076
-276,672	-200,000	0,014	0,188
-275,657	-200,000	0,001	0,034
-274,643	163,029	-0,096	-0,096
-273,628	-200,000	0,006	-0,112
-272,613	125,171	0,100	0,090
-271,599	378,249	-0,043	0,063
-270,584	218,128	-0,057	-0,065
-269,570	633,404	-0,017	0,031
-268,555	-200,000	-0,020	-0,079
-267,540	566,786	-0,071	-0,124
-266,526	-200,000	0,004	-0,112
-265,511	800,000	-0,054	0,114
-264,497	-200,000	-0,003	0,110
-263,482	65,289	0,029	0,021
-262,467	258,841	0,019	-0,024
-261,453	-137,702	-0,020	-0,002
-260,438	-43,467	-0,055	-0,020
-259,424	-99,404	0,088	-0,016
-258,409	334,098	-0,067	-0,092
-257,395	-106,565	-0,128	0,020
-256,380	99,250	0,065	0,053
-255,365	186,393	-0,019	-0,020
-254,351	519,370	-0,022	0,037
-253,336	-131,942	-0,196	-0,018
-252,322	225,264	0,085	-0,098
-251,307	-78,328	-0,041	0,010
-250,292	0,147	-0,100	-0,051
-249,278	-162,693	-0,075	-0,003
-248,263	382,567	-0,068	0,099
-247,249	-200,000	-0,018	0,164
-246,234	136,401	0,060	-0,056
-245,219	13,841	-0,092	-0,051
-244,205	-200,000	0,028	0,124
-243,190	675,999	0,040	0,075
-242,176	-85,504	-0,100	-0,022
-241,161	128,360	-0,069	0,063
-240,146	128,157	-0,057	0,052
-239,132	-11,842	-0,093	0,044
-238,117	800,000	-0,036	0,086
-237,103	19,948	0,159	-0,091
-236,088	637,748	0,049	-0,089
-235,073	-200,000	0,018	0,068
-234,059	-200,000	0,039	0,182
-233,044	79,362	-0,102	-0,078
-232,030	56,882	-0,088	0,061
-231,015	475,897	0,016	-0,026
-230,000	-0,627	0,147	-0,074
-228,986	800,000	-0,026	-0,060
-227,971	730,865	0,024	0,045
-226,957	-77,123	0,147	0,036
-225,942	696,426	-0,065	0,123
-224,927	-25,739	0,065	0,027
-223,913	562,226	-0,024	-0,042
-222,898	-200,000	-0,005	-0,048
-221,884	39,215	0,027	-0,017
-220,869	-200,000	0,001	-0,036
-219,855	134,739	-0,064	0,059
-218,840	120,684	-0,075	0,066
-217,825	632,722	0,037	-0,066
-216,811	-83,922	0,127	0,029
-215,796	-121,892	-0,152	0,018
-214,782	-57,812	0,081	-0,025
-213,767	406,457	-0,081	-0,122
-212,752	-19,250	0,084	0,037
-211,738	388,132	-0,039	0,058
-210,723	276,479	-0,089	-0,113
-209,709	138,544	0,175	-0,163
-208,694	-137,651	-0,126	0,010
-207,679	-100,407	0,052	0,009
-206,665	400,047	0,083	0,124
-205,650	-4,718	-0,106	0,052
-204,636	0,302	0,206	0,104
-203,621	498,353	-0,030	0,049
-202,606	-145,818	-0,017	-0,001
-201,592	-200,000	-0,001	0,026
-200,577	-87,455	0,099	-0,021
-199,563	116,556	-0,021	-0,019
-198,548	-200,000	0,005	-0,029
-197,533	-200,000	0,000	-0,137
-196,519	27,236	0,106	-0,063
-195,504	800,000	-0,042	-0,089
-194,490	800,000	-0,020	-0,056
-193,475	-106,888	-0,150	0,023
-192,460	306,852	-0,076	0,101
-191,446	-126,887	0,090	0,009
-190,431	187,349	-0,088	0,093
-189,417	-200,000	0,029	0,125
-188,402	0,626	0,092	0,047
-187,387	381,116	-0,068	-0,099
-186,373	-200,000	0,004	-0,014
-185,358	595,197	-0,007	0,012
-184,344	-128,110	-0,024	0,002
-183,329	-72,725	0,012	0,003
-182,315	220,378	0,080	-0,091
-181,300	-200,000	-0,016	0,060
-180,285	119,804	0,057	-0,050
-179,271	-75,520	-0,115	-0,029
-178,256	-13,789	-0,050	-0,023
-177,242	73,421	0,090	0,067
-176,227	454,890	0,018	-0,028
-175,212	-10,657	-0,062	0,029
-174,198	540,226	-0,015	0,025
-173,183	800,000	0,016	0,040
-172,169	-37,060	-0,177	-0,067
-171,154	-55,716	0,042	-0,013
-170,139	-200,000	-0,001	0,075
-169,125	-200,000	-0,015	0,096
-168,110	-56,457	0,097	0,030
-167,096	28,265	0,069	-0,041
-166,081	800,000	-0,063	-0,184
-165,066	73,667	-0,126	-0,093
-164,052	-67,858	-0,069	-0,019
-163,037	17,945	0,095	0,054
-162,023	106,072	-0,049	0,041
-161,008	42,727	0,060	-0,039
-159,993	800,000	-0,016	0,047
-158,979	-121,958	-0,043	-0,005
-157,964	-9,907	0,061	0,029
-156,950	2,523	-0,030	0,015
-155,935	140,013	0,022	0,021
-154,920	-77,530	0,048	-0,012
-153,906	-200,000	-0,021	-0,077
-152,891	-83,243	-0,125	-0,028
-151,877	15,762	-0,071	-0,039
-150,862	66,494	0,027	-0,020
-149,847	-200,000	-0,003	-0,017
-148,833	-200,000	-0,009	-0,145
-147,818	800,000	-0,026	0,069
-146,804	133,871	0,110	0,101
-145,789	-62,358	0,068	0,020
-144,775	-42,262	-0,043	-0,016
-143,760	-200,000	-0,018	-0,085
-142,745	800,000	0,055	0,143
-141,731	-58,024	-0,160	0,049
-140,716	-26,952	-0,093	-0,038
-139,702	-200,000	0,020	-0,078
-138,687	103,063	0,034	0,029
-137,672	-53,654	0,052	0,017
-136,658	-200,000	-0,005	-0,058
-135,643	-200,000	-0,008	0,029
-134,629	-200,000	-0,019	-0,066
-133,614	-11,038	0,042	0,020
-132,599	-200,000	0,000	0,055
-131,585	-162,491	-0,047	-0,002
-130,570	-200,000	0,002	-0,024
-129,556	-82,417	-0,039	0,009
-128,541	-200,000	0,005	-0,041
-127,526	-200,000	-0,011	0,180
-126,512	-200,000	-0,040	-0,141
-125,497	-87,253	-0,040	-0,009
-124,483	726,922	0,055	0,104
-123,468	68,777	-0,037	0,027
-122,453	-114,044	0,050	0,007
-121,439	800,000	-0,040	-0,098
-120,424	83,216	-0,039	0,030
-119,410	-200,000	0,020	0,161
-118,395	235,912	0,094	-0,110
-117,380	-0,742	0,104	0,052
-116,366	-200,000	-0,008	0,054
-115,351	-200,000	0,031	-0,108
-114,337	-61,131	0,141	-0,042
-113,322	134,912	0,065	-0,060
-112,307	-200,000	-0,031	-0,193
-111,293	800,000	0,014	-0,028
-110,278	510,909	0,051	0,084
-109,264	-113,764	0,159	-0,022
-108,249	-149,294	-0,089	-0,005
-107,234	-93,910	-0,098	0,019
-106,220	29,706	-0,016	-0,010
-105,205	-200,000	0,004	0,028
-104,191	-175,427	0,122	0,002
-103,176	176,507	0,055	0,056
-102,162	-85,520	0,048	0,011
-101,147	606,345	-0,057	0,102
-100,132	-71,562	-0,221	0,058
-99,118	-200,000	0,005	-0,066
-98,103	-2,543	-0,070	0,034
-97,089	341,930	0,066	0,092
-96,074	5,092	-0,028	-0,014
-95,059	-147,123	0,123	-0,007
-94,045	244,885	0,101	0,121
-93,030	800,000	-0,044	-0,094
-92,016	-200,000	-0,018	-0,215
-91,001	-200,000	-0,016	-0,147
-89,986	0,520	0,143	0,072
-88,972	-200,000	-0,000	-0,070
-87,957	131,438	0,075	-0,068
-86,943	800,000	0,022	-0,050
-85,928	-200,000	0,005	-0,059
-84,913	618,138	-0,028	-0,050
-83,899	-200,000	-0,009	-0,190
-82,884	-25,313	-0,121	0,050
-81,870	-146,907	0,100	-0,006
-80,855	-13,508	0,097	-0,044
-79,840	-200,000	0,028	-0,147
-78,826	-200,000	-0,029	-0,151
-77,811	434,720	0,054	0,083
-76,797	-200,000	-0,003	0,157
-75,782	310,379	-0,028	-0,037
-74,767	600,727	0,062	0,110
-73,753	-37,896	-0,124	-0,046
-72,738	-20,099	-0,095	0,041
-71,724	295,662	0,048	0,062
-70,709	-200,000	-0,008	0,039
-69,694	-200,000	0,025	-0,077
-68,680	-200,000	0,002	0,073
-67,665	800,000	0,063	0,158
-66,651	222,822	0,022	-0,026
-65,636	174,169	0,087	0,089
-64,622	48,540	-0,140	-0,093
-63,607	-200,000	0,004	0,019
-62,592	12,844	0,176	0,096
-61,578	800,000	0,041	-0,113
-60,563	22,588	0,138	0,079
-59,549	-200,000	-0,007	0,078
-58,534	68,680	-2,257	-1,637
-57,519	-200,000	0,091	-0,410
-56,505	-200,000	-1,561	-5,265
-55,490	252,018	0,966	1,166
-54,476	800,000	5,385	11,778
-53,461	-200,000	20,518	330,791
-52,446	800,000	755,078	2306,406
-51,432	534,407	1660,461	2794,984
-50,417	71,694	1678,035	1232,294
-49,403	17,673	1599,738	897,772
-48,388	12,362	1554,548	844,963
-47,373	18,665	1547,968	873,735
-46,359	15,575	1537,124	851,841
-45,344	10,977	1532,979	826,071
-44,330	10,871	1530,995	824,427
-43,315	10,808	1529,287	823,152
-42,300	10,764	1527,717	822,051
-41,286	10,763	1526,125	821,159
-40,271	10,784	1524,316	820,257
-39,257	10,834	1522,837	819,685
-38,242	10,777	1521,710	818,755
-37,227	10,772	1520,388	817,987
-36,213	10,758	1519,116	817,201
-35,198	10,774	1517,957	816,623
-34,184	10,802	1516,492	815,945
-33,169	10,841	1514,920	815,265
-32,154	10,856	1513,472	814,529
-31,140	10,874	1512,134	813,866
-30,125	10,877	1510,760	813,112
-29,111	10,808	1509,652	812,136
-28,096	10,810	1508,644	811,571
-27,082	10,828	1507,719	811,128
-26,067	10,809	1506,323	810,250
-25,052	10,815	1505,156	809,623
-24,038	10,796	1503,791	808,761
-23,023	10,764	1502,986	808,134
-22,009	10,741	1501,935	807,424
-20,994	10,806	1500,943	807,181
-19,979	10,757	1499,857	806,322
-18,965	10,784	1498,760	805,837
-17,950	10,700	1498,213	805,090
-16,936	10,735	1497,058	804,610
-15,921	10,724	1495,821	803,858
-14,906	10,681	1494,644	802,983
-13,892	10,685	1493,701	802,464
-12,877	10,668	1492,926	801,932
-11,863	10,651	1491,527	801,065
-10,848	10,638	1490,915	800,639
-9,833	10,771	1489,816	800,675
-8,819	10,786	1488,892	800,221
-7,804	10,693	1487,892	799,189
-6,790	10,694	1486,999	798,685
-5,775	10,758	1486,274	798,581
-4,760	10,696	1485,384	797,764
-3,746	10,703	1484,026	797,038
-2,731	10,565	1482,962	795,755
-1,717	10,509	1481,837	794,843
-0,702	10,494	1480,995	794,283
0,313	10,345	1479,835	794,129
1,327	14,298	1477,288	812,120
2,342	24,072	1239,179	721,193
3,356	20,699	696,456	397,558
4,371	-8,184	468,657	222,280
5,386	-11,865	440,834	203,589
6,400	-13,024	431,630	197,632
7,415	-12,694	427,800	196,337
8,429	-13,938	425,093	193,292
9,444	-14,124	423,621	192,339
10,459	-14,239	422,356	191,583
11,473	-14,414	421,439	190,900
12,488	-14,545	420,459	190,253
13,502	-14,899	419,635	189,362
14,517	-14,973	418,643	188,794
15,531	-15,195	417,838	188,100
16,546	-15,348	417,021	187,500
17,561	-15,359	416,603	187,280
18,575	-15,437	415,964	186,867
19,590	-15,480	415,333	186,506
20,604	-15,459	414,812	186,285
21,619	-15,412	414,293	186,101
22,634	-15,444	413,705	185,775
23,648	-15,548	413,231	185,401
24,663	-15,527	412,822	185,230
25,677	-15,578	412,458	184,980
26,692	-15,383	411,801	184,938
27,707	-15,550	411,516	184,563
28,721	-15,475	410,970	184,406
29,736	-15,746	410,524	183,814
30,750	-15,626	410,060	183,756
31,765	-15,669	409,705	183,521
32,780	-15,741	409,290	183,218
33,794	-15,709	409,020	183,126
34,809	-15,580	408,477	183,044
35,823	-15,725	408,113	182,665
36,838	-15,773	407,586	182,347
37,853	-15,802	407,266	182,148
38,867	-15,620	407,022	182,273
39,882	-15,718	406,573	181,920
40,896	-15,625	406,078	181,811
41,911	-15,835	405,926	181,439
42,926	-15,797	405,318	181,203
43,940	-15,774	405,085	181,114
44,955	-15,737	404,519	180,894
45,969	-16,043	404,366	180,393
46,984	-16,128	403,763	179,992
47,999	-16,200	403,490	179,756
49,013	-16,081	402,977	179,675
50,028	-16,261	402,583	179,238
51,042	-16,389	402,170	178,865
52,057	-16,383	401,797	178,691
53,071	-16,253	401,527	178,731
54,086	-16,139	401,163	178,707
55,101	-16,102	401,037	178,686
56,115	-15,854	400,854	178,922
57,130	-15,450	400,696	179,380
58,144	-15,196	400,390	179,570
59,159	-15,181	399,981	179,390
60,174	-15,241	399,528	179,091
61,188	-15,326	399,327	178,870
62,203	-15,400	398,966	178,593
63,217	-15,250	398,381	178,516
64,232	-15,376	398,311	178,300
65,247	-15,336	398,055	178,223
66,261	-15,191	397,499	178,152
67,276	-15,629	396,997	177,327
68,290	-15,902	396,529	176,738
69,305	-15,867	396,104	176,579
70,320	-15,879	395,871	176,444
71,334	-15,552	395,653	176,767
72,349	-15,306	395,657	177,079
73,363	-15,139	395,179	177,071
74,378	-15,332	395,013	176,725
75,393	-15,306	394,345	176,445
76,407	-15,453	393,933	176,050
77,422	-15,395	393,674	175,996
78,436	-15,421	393,481	175,859
79,451	-15,275	392,992	175,817
80,466	-15,522	392,553	175,279
81,480	-15,662	392,021	174,842
82,495	-15,781	391,792	174,568
83,509	-15,694	391,672	174,613
84,524	-15,771	391,391	174,371
85,539	-15,950	390,821	173,868
86,553	-15,926	390,628	173,797
87,568	-15,780	390,345	173,846
88,582	-15,755	390,149	173,777
89,597	-15,733	389,626	173,558
90,611	-15,659	389,569	173,613
91,626	-15,421	389,153	173,723
92,641	-15,510	388,820	173,443
93,655	-15,642	388,487	173,106
94,670	-15,660	388,162	172,924
95,684	-15,577	388,015	172,950
96,699	-15,572	387,572	172,743
97,714	-15,658	387,302	172,496
98,728	-15,612	387,080	172,441
99,743	-15,875	386,453	171,807
100,757	-15,823	386,043	171,676
101,772	-15,726	386,092	171,808
102,787	-15,545	385,728	171,864
103,801	-15,532	385,411	171,724
104,816	-15,626	385,373	171,571
105,830	-15,367	385,076	171,757
106,845	-15,334	384,682	171,609
107,860	-15,384	384,469	171,434
108,874	-15,453	384,052	171,145
109,889	-15,420	383,696	171,013
110,903	-15,426	383,376	170,848
111,918	-15,412	383,225	170,783
112,933	-15,351	382,740	170,630
113,947	-15,427	382,469	170,396
114,962	-15,305	382,275	170,451
115,976	-15,313	382,087	170,341
116,991	-15,426	381,743	170,028
118,006	-15,462	381,439	169,832
119,020	-15,429	381,261	169,780
120,035	-15,284	380,978	169,823
121,049	-15,342	380,697	169,609
122,064	-15,230	380,539	169,666
123,079	-15,320	380,111	169,345
124,093	-15,521	379,790	168,932
125,108	-15,670	379,261	168,493
126,122	-15,794	378,853	168,139
127,137	-15,928	378,584	167,836
128,151	-15,897	378,353	167,758
129,166	-15,763	378,135	167,816
130,181	-15,810	377,784	167,586
131,195	-15,765	377,433	167,471
132,210	-15,558	377,419	167,712
133,224	-15,349	377,178	167,853
134,239	-15,293	376,817	167,748
135,254	-15,189	376,572	167,755
136,268	-15,375	376,109	167,300
137,283	-15,739	375,748	166,668
138,297	-15,759	375,346	166,449
139,312	-15,879	375,049	166,152
140,327	-15,366	374,900	166,714
141,341	-15,077	374,855	167,041
142,356	-14,932	374,799	167,183
143,370	-15,064	374,458	166,850
144,385	-14,985	374,001	166,730
145,400	-14,991	373,778	166,608
146,414	-15,070	373,754	166,485
147,429	-15,177	373,358	166,160
148,443	-15,143	372,930	165,996
149,458	-15,125	372,689	165,897
150,473	-14,965	372,373	165,941
151,487	-15,126	372,243	165,668
152,502	-15,014	371,840	165,613
153,516	-15,035	371,535	165,436
154,531	-15,049	371,255	165,280
155,546	-15,080	370,991	165,108
156,560	-15,150	370,722	164,887
157,575	-15,064	370,341	164,809
158,589	-15,061	370,316	164,788
159,604	-14,894	370,072	164,870
160,619	-14,948	369,710	164,628
161,633	-14,959	369,525	164,518
162,648	-14,986	369,158	164,306
163,662	-15,055	368,888	164,087
164,677	-15,078	368,668	163,945
165,692	-15,000	368,480	163,943
166,706	-14,951	368,357	163,935
167,721	-14,889	368,164	163,910
168,735	-14,812	367,868	163,857
169,750	-14,820	367,565	163,698
170,764	-14,854	367,369	163,554
171,779	-14,802	367,084	163,477
172,794	-14,831	366,832	163,315
173,808	-15,065	366,414	162,829
174,823	-15,342	365,847	162,224
175,837	-15,589	365,767	161,873
176,852	-15,037	365,813	162,552
177,867	-14,695	365,466	162,799
178,881	-14,828	365,326	162,561
179,896	-14,903	365,007	162,313
180,910	-14,885	364,727	162,196
181,925	-14,769	364,556	162,247
182,940	-14,905	364,496	162,040
183,954	-14,643	364,202	162,213
184,969	-14,813	363,868	161,843
185,983	-14,756	363,412	161,696
186,998	-14,741	363,428	161,707
188,013	-14,696	362,954	161,535
189,027	-14,756	362,789	161,375
190,042	-14,670	362,438	161,307
191,056	-14,606	362,253	161,288
192,071	-14,486	362,081	161,342
193,086	-14,413	362,021	161,388
194,100	-13,841	362,002	162,053
195,115	-13,227	361,796	162,685
196,129	-12,370	362,467	164,004
197,144	-8,333	364,262	169,682
198,159	-5,195	365,837	174,204
199,173	-1,914	367,288	178,864
200,188	-1,343	367,273	179,534
201,202	-1,633	366,630	178,852
202,217	-1,484	366,430	178,920
203,232	-1,337	366,504	179,118
204,246	-1,170	366,197	179,154
205,261	-0,953	366,030	179,319
206,275	-0,806	366,004	179,466
207,290	-0,893	365,658	179,177
208,304	-0,962	365,274	178,889
209,319	-0,922	365,026	178,799
210,334	-1,193	364,936	178,414
211,348	-1,123	364,488	178,262
212,363	-1,151	364,242	178,092
213,377	-1,017	363,979	178,109
214,392	-1,037	363,927	178,044
215,407	-0,988	363,779	178,014
216,421	-0,832	363,637	178,116
217,436	-0,846	363,175	177,857
218,450	-1,108	362,921	177,403
219,465	-1,181	362,575	177,131
220,480	-1,181	362,468	177,063
221,494	-0,876	362,136	177,249
222,509	-0,785	362,260	177,402
223,523	-0,615	361,683	177,307
224,538	-0,971	361,503	176,779
225,553	-1,152	361,315	176,456
226,567	-1,038	361,080	176,461
227,582	-0,682	361,084	176,870
228,596	-0,326	360,938	177,206
229,611	-0,611	360,367	176,572
230,626	-1,199	360,084	175,720
231,640	-1,056	359,885	175,777
232,655	-0,755	359,823	176,088
233,669	-0,469	359,704	176,352
234,684	-0,321	359,472	176,397
235,699	-0,450	359,126	176,060
236,713	-0,798	358,823	175,485
237,728	-0,929	358,371	175,093
238,742	-1,055	358,020	174,758
239,757	-1,022	357,856	174,701
240,772	-1,153	357,805	174,506
241,786	-0,992	357,435	174,500
242,801	-0,663	357,424	174,866
243,815	-0,551	357,255	174,898
244,830	-0,719	356,898	174,512
245,844	-1,006	356,459	173,944
246,859	-1,210	356,213	173,570
247,874	-0,846	356,222	173,986
248,888	-0,649	356,080	174,132
249,903	-0,646	355,656	173,912
250,917	-0,764	355,546	173,704
251,932	-0,849	355,186	173,414
252,947	-1,016	354,857	173,043
253,961	-1,006	354,525	172,877
254,976	-0,948	354,475	172,906
255,990	-0,782	354,402	173,048
257,005	-0,686	354,288	173,089
258,020	-0,682	354,057	172,965
259,034	-0,677	353,709	172,785
260,049	-0,646	353,409	172,658
261,063	-0,697	353,111	172,439
262,078	-0,499	353,074	172,635
263,093	-0,325	353,028	172,798
264,107	-0,419	352,692	172,510
265,122	-0,650	352,327	172,049
266,136	-0,478	352,236	172,187
267,151	-0,404	351,830	172,059
268,166	-0,916	351,419	171,253
269,180	-1,067	351,102	170,908
270,195	-1,023	351,053	170,920
271,209	-0,787	350,828	171,067
272,224	-0,756	350,664	171,008
273,239	-0,691	350,468	170,972
274,253	-0,775	350,177	170,719
275,268	-1,037	349,911	170,272
276,282	-1,100	349,503	169,987
277,297	-1,220	349,507	169,835
278,312	-0,839	349,265	170,139
279,326	-0,792	349,105	170,100
280,341	-0,817	348,859	169,937
281,355	-0,810	348,506	169,758
282,370	-0,559	348,451	170,002
283,384	-0,768	348,143	169,598
284,399	-0,979	347,719	169,135
285,414	-1,179	347,625	168,848
286,428	-0,974	347,595	169,051
287,443	-0,703	347,313	169,207
288,457	-0,565	347,004	169,198
289,472	-0,852	346,693	168,706
290,487	-1,153	346,509	168,260
291,501	-1,161	346,200	168,086
292,516	-1,144	346,059	168,021
293,530	-0,904	345,793	168,150
294,545	-0,944	345,609	168,000
295,560	-0,741	345,452	168,138
296,574	-0,738	345,252	168,029
297,589	-0,796	344,968	167,810
298,603	-0,743	344,678	167,713
299,618	-0,785	344,516	167,573
300,633	-0,600	344,414	167,717
301,647	-0,608	344,213	167,595
302,662	-0,414	343,938	167,664
303,676	-0,577	343,870	167,433
304,691	-0,467	343,617	167,418
305,706	-0,497	343,302	167,216
306,720	-0,627	342,969	166,894
307,735	-0,861	342,712	166,491
308,749	-0,937	342,662	166,367
309,764	-0,478	342,443	166,759
310,779	-0,592	342,190	166,494
311,793	-0,799	341,946	166,129
312,808	-0,651	341,777	166,198
313,822	-0,684	341,528	166,025
314,837	-0,623	341,132	165,885
315,852	-0,830	341,017	165,584
316,866	-0,678	340,878	165,671
317,881	-0,614	340,647	165,616
318,895	-0,528	340,471	165,610
319,910	-0,842	340,138	165,084
320,925	-1,071	339,612	164,560
321,939	-1,344	339,321	164,103
322,954	-1,016	339,374	164,477
323,968	-0,643	339,460	164,917
324,983	-0,341	339,262	165,141
325,997	-0,238	339,066	165,146
327,012	-0,341	338,745	164,860
328,027	-0,384	338,538	164,697
329,041	-0,179	338,353	164,819
330,056	-0,260	338,155	164,618
331,070	-0,591	337,611	163,975
332,085	-0,878	337,467	163,574
333,100	-0,758	337,265	163,593
334,114	-0,455	337,206	163,884
335,129	-0,334	336,949	163,876
336,143	-0,503	336,711	163,561
337,158	-0,559	336,514	163,389
338,173	-0,666	336,428	163,215
339,187	-0,788	336,111	162,913
340,202	-0,823	335,814	162,716
341,216	-0,676	335,599	162,759
342,231	-0,660	335,475	162,702
343,246	-0,721	335,169	162,472
344,260	-0,659	334,821	162,356
345,275	-0,522	334,696	162,431
346,289	-0,577	334,466	162,245
347,304	-0,707	334,225	161,971
348,319	-0,677	334,121	161,939
349,333	-0,398	334,084	162,211
350,348	-0,202	333,906	162,323
351,362	-0,132	333,724	162,296
352,377	-0,132	333,271	162,061
353,392	-0,392	333,077	161,670
354,406	-0,389	333,068	161,656
355,421	196,940	1327,678	1389,155
356,435	161,252	1448,729	1389,055
