DTS Sentinel unit serial number:	SN410029Multiplexer serial number:	ORYXHardware model number:	OX2-SRSoftware version number:	ORYX F/W v4,00 Oryx Data Collector v3.7.2.0data status	okinstallation	B6 Nyhavnadifferential loss correction	single-endedforward channel	channel 2reverse channel	N/Adate	2023/12/10time	02:10:08forward acquisition time	300,00reverse acquisition time	0,00gamma	499,1914k internal	0,3125k external	0,3125temperature offset calibration	1,0000default loss term (dB/km)	0,3820temperature slope calibration	1,0000multiplexer offset coefficient	1,0000multiplexer slope coefficient	1,0000fibre end	0,00T internal ref (°C)	21,94T ext. ref 1 (°C)	5,71T ext. ref 2 (°C)	5,68length (m)	temperature (°C)	Stokes	anti-Stokes-744,400	-200,000	0,002	0,013
-743,385	-18,645	-0,322	0,149
-742,371	-152,543	0,236	0,012
-741,356	-127,267	-0,280	0,030
-740,342	320,692	0,104	-0,147
-739,327	-13,082	-0,106	0,051
-738,312	800,000	-0,025	-0,078
-737,298	-130,681	-0,291	0,029
-736,283	-21,865	0,076	-0,034
-735,269	800,000	-0,097	0,207
-734,254	-18,749	-0,048	0,022
-733,239	-179,155	-0,660	-0,011
-732,225	800,000	0,024	-0,075
-731,210	-200,000	0,022	0,099
-730,196	229,798	-0,062	-0,076
-729,181	-200,000	-0,018	-0,086
-728,167	-200,000	-0,009	-0,045
-727,152	-200,000	0,015	-0,059
-726,137	67,728	-0,042	-0,032
-725,123	-200,000	-0,017	-0,072
-724,108	251,800	-0,090	0,114
-723,094	311,378	-0,014	0,020
-722,079	-99,123	-0,114	-0,021
-721,064	-13,137	-0,065	-0,031
-720,050	800,000	0,030	0,080
-719,035	-200,000	0,007	0,157
-718,021	8,484	-0,060	0,033
-717,006	-118,720	-0,212	-0,027
-715,991	800,000	-0,044	-0,142
-714,977	-109,258	-0,132	0,021
-713,962	523,336	0,008	-0,014
-712,948	-64,423	-0,144	0,043
-711,933	-8,469	-0,074	0,037
-710,918	-200,000	-0,002	0,130
-709,904	800,000	0,060	0,148
-708,889	800,000	0,022	-0,069
-707,875	61,729	-0,099	-0,073
-706,860	19,315	-0,058	-0,035
-705,845	-80,641	-0,124	-0,030
-704,831	-200,000	0,017	0,103
-703,816	-200,000	-0,004	-0,078
-702,802	161,417	0,019	-0,020
-701,787	800,000	-0,055	-0,167
-700,772	800,000	-0,014	-0,046
-699,758	9,735	-0,034	-0,019
-698,743	45,025	-0,048	-0,033
-697,729	-5,118	0,094	-0,048
-696,714	-81,809	0,109	0,026
-695,699	193,270	-0,056	-0,063
-694,685	-200,000	-0,007	0,043
-693,670	11,328	-0,139	-0,079
-692,656	800,000	0,095	0,253
-691,641	303,264	0,041	-0,057
-690,627	-200,000	0,009	0,093
-689,612	-200,000	0,015	-0,074
-688,597	800,000	-0,014	-0,045
-687,583	-153,907	-0,101	-0,005
-686,568	55,799	-0,119	-0,086
-685,554	0,515	-0,238	0,126
-684,539	-78,472	-0,117	-0,030
-683,524	-141,853	0,014	0,001
-682,510	-183,343	-0,161	0,002
-681,495	73,626	0,067	0,052
-680,481	393,067	-0,016	0,024
-679,466	149,306	-0,137	-0,138
-678,451	70,730	-0,059	-0,045
-677,437	60,074	-0,151	-0,111
-676,422	-93,681	0,068	-0,014
-675,408	-25,411	-0,024	0,010
-674,393	-46,145	-0,053	0,019
-673,378	601,945	-0,030	0,056
-672,364	-111,131	-0,007	0,001
-671,349	-9,919	-0,073	0,036
-670,335	-78,921	-0,039	-0,010
-669,320	-112,966	-0,135	0,020
-668,305	262,779	0,028	0,037
-667,291	800,000	-0,022	-0,063
-666,276	-200,000	-0,011	-0,040
-665,262	-47,205	0,030	-0,011
-664,247	-45,751	0,074	0,027
-663,232	-200,000	-0,010	0,137
-662,218	125,790	0,035	0,033
-661,203	-8,870	0,062	-0,031
-660,189	230,464	0,035	0,043
-659,174	-200,000	0,001	0,015
-658,159	-89,470	-0,127	-0,027
-657,145	398,407	-0,083	-0,129
-656,130	-138,347	0,070	-0,006
-655,116	-121,195	0,073	-0,009
-654,101	800,000	-0,011	0,034
-653,086	-190,193	-0,087	0,001
-652,072	124,903	0,037	0,034
-651,057	48,788	0,102	-0,071
-650,043	-58,138	-0,069	0,022
-649,028	85,332	0,037	-0,030
-648,014	-138,976	-0,098	-0,008
-646,999	-125,793	-0,102	0,011
-645,984	-29,325	0,079	0,033
-644,970	116,137	-0,122	-0,111
-643,955	-73,415	-0,128	0,035
-642,941	762,696	0,014	-0,027
-641,926	-56,999	0,097	0,031
-640,911	671,470	-0,016	0,030
-639,897	-90,629	-0,051	0,011
-638,882	4,816	-0,077	0,042
-637,868	-67,473	-0,073	-0,021
-636,853	-200,000	-0,010	-0,076
-635,838	-200,000	0,005	-0,088
-634,824	-200,000	0,004	-0,222
-633,809	295,890	0,039	0,053
-632,795	-194,468	-0,083	0,000
-631,780	142,268	-0,088	0,087
-630,765	318,050	-0,067	0,094
-629,751	2,277	-0,109	-0,058
-628,736	800,000	-0,045	0,131
-627,722	-200,000	-0,031	0,117
-626,707	63,245	0,049	0,036
-625,692	-148,196	0,111	0,007
-624,678	-56,251	0,061	0,020
-623,663	-25,573	0,092	-0,040
-622,649	79,903	0,075	-0,060
-621,634	-200,000	0,001	0,034
-620,619	-200,000	0,016	-0,074
-619,605	-34,509	-0,066	0,027
-618,590	448,836	0,026	0,043
-617,576	-71,477	0,069	0,019
-616,561	-200,000	0,013	0,108
-615,546	800,000	-0,048	0,131
-614,532	-200,000	-0,010	-0,056
-613,517	723,907	-0,037	0,074
-612,503	80,294	0,033	-0,026
-611,488	-200,000	-0,005	0,115
-610,474	146,983	0,090	-0,090
-609,459	45,612	-0,037	-0,025
-608,444	-200,000	0,018	0,096
-607,430	-10,196	-0,065	-0,032
-606,415	-200,000	0,001	0,119
-605,401	11,917	0,032	0,018
-604,386	220,825	-0,072	-0,086
-603,371	-200,000	0,000	-0,203
-602,357	452,834	0,068	-0,111
-601,342	26,826	-0,098	0,061
-600,328	-24,515	0,028	-0,012
-599,313	132,464	0,069	-0,066
-598,298	49,607	-0,077	-0,054
-597,284	-44,850	0,107	-0,039
-596,269	-50,761	0,075	0,026
-595,255	-98,423	-0,009	0,002
-594,240	-200,000	-0,036	-0,142
-593,225	323,367	0,037	-0,052
-592,211	-57,507	-0,054	-0,017
-591,196	-200,000	0,019	-0,070
-590,182	-200,000	0,001	0,041
-589,167	800,000	0,084	-0,235
-588,152	28,905	0,136	-0,085
-587,138	-200,000	-0,031	0,137
-586,123	-200,000	0,032	-0,145
-585,109	-51,560	0,024	0,008
-584,094	-167,497	0,139	0,004
-583,079	129,795	0,035	0,033
-582,065	-145,745	0,022	0,001
-581,050	-92,384	-0,115	0,024
-580,036	800,000	-0,029	-0,069
-579,021	800,000	-0,009	0,028
-578,006	-200,000	0,003	0,062
-576,992	-126,642	0,112	0,012
-575,977	12,760	0,101	-0,058
-574,963	-200,000	0,003	0,093
-573,948	-200,000	-0,029	0,103
-572,934	413,177	0,069	0,110
-571,919	-200,000	0,004	-0,108
-570,904	800,000	-0,040	-0,098
-569,890	-145,793	-0,054	0,004
-568,875	188,886	0,047	0,052
-567,861	-167,120	-0,082	0,002
-566,846	47,064	0,049	0,034
-565,831	679,315	-0,062	0,120
-564,817	-200,000	0,015	-0,133
-563,802	333,447	0,016	0,023
-562,788	-200,000	0,013	-0,053
-561,773	-200,000	-0,029	-0,146
-560,758	-200,000	-0,005	0,036
-559,744	800,000	0,044	-0,136
-558,729	-13,116	-0,140	0,067
-557,715	-130,662	0,109	0,011
-556,700	-200,000	-0,023	-0,084
-555,685	-200,000	-0,010	0,042
-554,671	558,320	-0,017	0,031
-553,656	-43,597	0,106	0,039
-552,642	-200,000	-0,016	0,116
-551,627	-51,861	0,032	-0,011
-550,612	334,320	-0,052	-0,075
-549,598	800,000	0,066	-0,208
-548,583	800,000	0,051	-0,123
-547,569	-147,657	0,220	-0,013
-546,554	122,374	-0,071	-0,066
-545,539	442,697	-0,068	0,111
-544,525	-37,184	0,061	0,024
-543,510	800,000	-0,033	-0,106
-542,496	-200,000	-0,030	-0,155
-541,481	-200,000	-0,008	-0,032
-540,466	800,000	-0,037	0,088
-539,452	87,191	0,052	0,042
-538,437	-200,000	0,018	0,139
-537,423	-94,055	-0,081	-0,016
-536,408	-147,116	0,069	0,004
-535,393	467,045	-0,062	0,104
-534,379	173,724	0,077	-0,083
-533,364	-135,819	-0,098	0,008
-532,350	-110,582	-0,064	-0,010
-531,335	800,000	0,024	0,074
-530,321	536,730	-0,036	-0,064
-529,306	-200,000	-0,003	-0,035
-528,291	-109,833	0,017	0,003
-527,277	584,854	0,023	-0,042
-526,262	792,238	0,050	0,103
-525,248	7,140	-0,029	-0,016
-524,233	-13,162	0,101	0,048
-523,218	-200,000	-0,001	0,101
-522,204	800,000	-0,031	0,076
-521,189	26,197	-0,144	0,089
-520,175	223,462	-0,060	0,071
-519,160	116,346	-0,076	-0,069
-518,145	-200,000	-0,013	0,048
-517,131	39,940	0,167	-0,111
-516,116	545,818	0,010	-0,018
-515,102	88,997	-0,051	0,042
-514,087	215,309	0,004	0,005
-513,072	-83,457	-0,084	-0,020
-512,058	309,636	0,044	-0,061
-511,043	14,925	-0,074	-0,043
-510,029	800,000	-0,022	0,047
-509,014	-63,832	-0,097	0,029
-507,999	-200,000	0,001	0,065
-506,985	-69,568	-0,068	0,019
-505,970	102,655	-0,066	-0,057
-504,956	120,516	0,029	-0,027
-503,941	-19,459	0,136	-0,062
-502,926	800,000	-0,010	-0,031
-501,912	-200,000	-0,005	-0,149
-500,897	-200,000	0,012	-0,052
-499,883	214,447	-0,021	-0,024
-498,868	-200,000	-0,036	-0,193
-497,853	-7,291	-0,145	0,072
-496,839	800,000	-0,028	0,083
-495,824	420,910	0,031	0,050
-494,810	-200,000	-0,016	0,059
-493,795	-54,851	-0,101	-0,033
-492,781	800,000	-0,022	-0,051
-491,766	-200,000	0,025	0,096
-490,751	-200,000	0,004	0,092
-489,737	-200,000	-0,022	0,096
-488,722	-200,000	0,016	0,103
-487,708	-62,583	0,047	-0,014
-486,693	252,966	-0,029	0,037
-485,678	-200,000	-0,000	-0,006
-484,664	-200,000	-0,016	-0,134
-483,649	45,384	-0,091	-0,062
-482,635	24,730	-0,126	0,077
-481,620	272,088	0,131	0,171
-480,605	-142,817	0,122	-0,009
-479,591	71,266	0,122	0,093
-478,576	-200,000	-0,009	-0,187
-477,562	61,655	-0,059	0,043
-476,547	-46,945	-0,071	0,025
-475,532	-50,224	0,037	0,013
-474,518	-28,343	-0,079	0,034
-473,503	-19,462	0,078	-0,036
-472,489	118,100	-0,086	-0,078
-471,474	218,008	0,099	0,117
-470,459	-193,645	-0,132	0,001
-469,445	36,630	0,055	0,036
-468,430	-134,085	-0,160	0,014
-467,416	626,086	0,045	-0,084
-466,401	800,000	-0,066	0,188
-465,386	-72,750	0,123	-0,033
-464,372	800,000	-0,025	0,057
-463,357	38,055	0,072	0,047
-462,343	-58,769	-0,063	-0,020
-461,328	211,900	0,074	0,086
-460,313	-48,292	0,028	0,010
-459,299	287,514	0,095	0,126
-458,284	-200,000	-0,000	0,179
-457,270	-200,000	0,019	-0,070
-456,255	-173,704	0,083	-0,002
-455,241	357,311	-0,009	-0,013
-454,226	-117,725	0,053	0,007
-453,211	-200,000	-0,036	0,164
-452,197	-200,000	0,022	0,000
-451,182	-116,875	0,061	0,008
-450,168	10,158	0,086	-0,048
-449,153	-61,018	-0,086	0,027
-448,138	34,374	-0,052	-0,034
-447,124	-200,000	0,030	-0,173
-446,109	-200,000	-0,007	-0,064
-445,095	-200,000	0,002	-0,077
-444,080	-97,773	0,151	0,028
-443,065	-106,244	0,210	-0,034
-442,051	-27,365	-0,132	0,056
-441,036	357,940	0,072	-0,106
-440,022	724,607	-0,033	-0,065
-439,007	-31,431	0,095	0,039
-437,992	146,386	0,023	0,023
-436,978	595,366	-0,020	-0,037
-435,963	-121,717	-0,079	-0,010
-434,949	-200,000	0,018	0,081
-433,934	800,000	0,016	-0,034
-432,919	800,000	-0,037	0,089
-431,905	124,454	-0,036	0,033
-430,890	33,385	0,099	-0,063
-429,876	46,923	0,074	0,051
-428,861	164,069	0,067	0,069
-427,846	800,000	0,038	-0,078
-426,832	228,526	-0,123	-0,148
-425,817	-162,983	0,066	0,002
-424,803	-87,822	-0,020	0,004
-423,788	365,106	0,036	-0,053
-422,773	-200,000	0,008	0,063
-421,759	117,261	0,079	0,072
-420,744	-33,053	0,079	0,032
-419,730	800,000	-0,024	-0,051
-418,715	-80,779	-0,146	0,036
-417,701	232,866	0,016	-0,019
-416,686	-62,044	0,063	-0,019
-415,671	0,643	0,078	-0,041
-414,657	298,384	-0,094	0,127
-413,642	562,303	-0,038	0,068
-412,628	-200,000	-0,019	0,119
-411,613	-200,000	0,048	0,000
-410,598	-200,000	-0,017	-0,066
-409,584	800,000	-0,054	0,160
-408,569	800,000	0,031	0,080
-407,555	-80,466	0,014	-0,004
-406,540	800,000	-0,026	0,057
-405,525	-125,929	-0,022	0,002
-404,511	-154,217	-0,117	0,006
-403,496	73,089	0,062	0,047
-402,482	-200,000	0,004	-0,026
-401,467	5,370	0,031	0,017
-400,452	-148,599	0,094	-0,006
-399,438	-72,551	0,180	0,049
-398,423	-89,700	0,101	0,022
-397,409	800,000	0,051	0,113
-396,394	-81,720	-0,129	0,031
-395,379	-115,101	0,062	-0,008
-394,365	-200,000	-0,028	0,110
-393,350	63,118	0,043	0,032
-392,336	133,159	-0,100	0,095
-391,321	409,530	-0,066	-0,103
-390,306	157,010	-0,056	0,057
-389,292	800,000	-0,026	0,067
-388,277	-200,000	-0,003	-0,032
-387,263	116,810	-0,094	-0,085
-386,248	-38,097	-0,108	0,042
-385,233	364,722	-0,053	0,079
-384,219	-200,000	0,035	0,130
-383,204	404,778	-0,057	-0,089
-382,190	-200,000	0,013	-0,045
-381,175	-200,000	0,001	0,042
-380,160	187,716	-0,012	0,013
-379,146	800,000	0,044	0,093
-378,131	-148,141	-0,083	-0,005
-377,117	-139,936	-0,136	0,010
-376,102	23,604	-0,124	-0,075
-375,088	-134,807	0,085	-0,008
-374,073	-129,477	-0,038	-0,004
-373,058	79,125	0,102	0,080
-372,044	690,345	0,040	0,078
-371,029	800,000	0,031	0,067
-370,015	-92,400	-0,147	-0,030
-369,000	-36,382	-0,189	-0,074
-367,985	1,802	0,087	-0,046
-366,971	-30,297	-0,083	0,035
-365,956	24,597	-0,078	-0,047
-364,942	43,113	0,141	0,094
-363,927	117,116	0,107	-0,097
-362,912	800,000	-0,031	-0,097
-361,898	-200,000	-0,010	-0,040
-360,883	-114,199	-0,175	-0,024
-359,869	773,237	0,046	-0,092
-358,854	11,699	-0,039	-0,022
-357,839	-200,000	-0,013	-0,072
-356,825	800,000	-0,017	0,053
-355,810	-200,000	0,002	0,097
-354,796	-25,786	-0,087	0,037
-353,781	-200,000	-0,040	-0,155
-352,766	20,325	0,107	-0,063
-351,752	-16,642	0,052	0,024
-350,737	-5,592	-0,075	-0,038
-349,723	800,000	-0,011	0,024
-348,708	-76,657	0,086	0,022
-347,693	-42,457	-0,047	0,017
-346,679	800,000	-0,034	0,091
-345,664	-72,019	-0,057	-0,015
-344,650	25,794	0,082	0,050
-343,635	29,483	0,109	-0,068
-342,620	-200,000	0,009	-0,205
-341,606	717,543	-0,021	-0,040
-340,591	78,199	-0,021	0,017
-339,577	-200,000	-0,032	0,111
-338,562	800,000	-0,045	-0,114
-337,548	123,148	0,078	0,072
-336,533	-37,321	0,053	-0,021
-335,518	143,143	0,061	-0,059
-334,504	-200,000	-0,014	0,072
-333,489	-200,000	0,005	-0,046
-332,475	800,000	-0,041	-0,124
-331,460	800,000	0,032	-0,068
-330,445	31,112	-0,075	-0,047
-329,431	588,760	0,024	0,044
-328,416	298,356	0,095	0,128
-327,402	56,871	-0,018	0,013
-326,387	74,964	0,036	-0,028
-325,372	-19,572	-0,161	0,073
-324,358	-200,000	-0,002	-0,013
-323,343	-200,000	0,021	0,071
-322,329	36,581	0,038	0,025
-321,314	-200,000	-0,009	0,132
-320,299	-200,000	0,009	0,071
-319,285	-156,929	0,039	0,002
-318,270	209,214	-0,091	-0,105
-317,256	-26,702	-0,081	-0,035
-316,241	798,614	-0,057	-0,117
-315,226	148,341	0,093	0,092
-314,212	192,386	0,072	0,080
-313,197	154,892	0,085	0,086
-312,183	800,000	0,025	0,076
-311,168	-200,000	0,003	-0,085
-310,153	560,702	0,067	-0,119
-309,139	-200,000	0,030	-0,102
-308,124	-93,283	0,069	-0,014
-307,110	-16,376	0,166	0,077
-306,095	-34,082	-0,072	-0,029
-305,080	-59,821	-0,059	0,018
-304,066	-200,000	0,013	0,057
-303,051	-74,705	-0,091	0,024
-302,037	-61,929	0,029	-0,009
-301,022	-200,000	0,005	-0,067
-300,008	800,000	-0,023	-0,073
-298,993	175,973	0,112	0,119
-297,978	-200,000	0,034	0,161
-296,964	-46,871	0,043	-0,015
-295,949	-61,309	0,188	-0,058
-294,935	129,402	-0,057	-0,053
-293,920	-139,378	0,143	-0,011
-292,905	-200,000	0,018	0,066
-291,891	136,034	-0,044	0,042
-290,876	-177,325	-0,158	0,003
-289,862	159,874	0,094	-0,096
-288,847	62,702	-0,126	-0,092
-287,832	-69,676	0,053	-0,015
-286,818	-200,000	-0,020	-0,153
-285,803	-45,328	-0,044	0,016
-284,789	199,268	-0,053	0,060
-283,774	23,026	0,079	0,047
-282,759	-200,000	0,032	-0,108
-281,745	-100,166	0,028	-0,005
-280,730	170,234	0,021	-0,022
-279,716	-200,000	-0,011	0,056
-278,701	-28,050	0,151	-0,064
-277,686	379,894	-0,021	-0,032
-276,672	-100,906	-0,191	0,034
-275,657	-31,530	0,074	-0,030
-274,643	-200,000	-0,025	-0,102
-273,628	800,000	-0,060	-0,133
-272,613	372,943	-0,052	-0,077
-271,599	800,000	0,024	0,074
-270,584	396,785	-0,063	0,096
-269,570	-14,371	0,026	0,012
-268,555	750,514	-0,017	0,033
-267,540	180,120	0,061	0,066
-266,526	189,125	-0,059	-0,065
-265,511	-19,998	-0,108	-0,048
-264,497	319,637	0,099	0,137
-263,482	-200,000	0,002	0,071
-262,467	-200,000	0,021	0,107
-261,453	-200,000	0,008	0,031
-260,438	800,000	-0,020	-0,046
-259,424	-34,047	0,110	0,044
-258,409	800,000	-0,068	-0,159
-257,395	360,525	0,021	0,031
-256,380	160,349	0,080	0,082
-255,365	-34,312	-0,088	-0,035
-254,351	680,731	0,019	0,037
-253,336	167,308	-0,101	0,104
-252,322	11,941	-0,081	0,045
-251,307	800,000	-0,031	-0,094
-250,292	25,913	-0,042	0,026
-249,278	237,278	-0,117	0,141
-248,263	234,009	0,078	0,094
-247,249	26,877	-0,052	0,032
-246,234	800,000	0,035	-0,075
-245,219	-200,000	-0,022	-0,104
-244,205	-200,000	0,047	-0,179
-243,190	-200,000	-0,007	-0,146
-242,176	-38,753	0,074	-0,028
-241,161	171,701	0,098	0,103
-240,146	105,250	-0,066	-0,057
-239,132	218,466	-0,098	-0,115
-238,117	-200,000	-0,002	-0,078
-237,103	311,959	0,004	-0,005
-236,088	-200,000	-0,004	-0,017
-235,073	-26,709	0,065	-0,028
-234,059	800,000	-0,044	-0,106
-233,044	-155,801	-0,112	-0,005
-232,030	312,651	-0,095	-0,131
-231,015	800,000	0,024	-0,063
-230,000	-110,004	0,082	-0,012
-228,986	23,496	-0,046	-0,028
-227,971	297,701	0,066	0,088
-226,957	27,584	-0,079	0,049
-225,942	-96,747	0,055	-0,010
-224,927	214,559	0,058	-0,067
-223,913	800,000	-0,045	0,098
-222,898	-200,000	0,002	0,143
-221,884	-46,625	0,059	0,021
-220,869	-76,471	0,014	-0,004
-219,855	-71,690	0,109	0,029
-218,840	-44,523	-0,081	0,030
-217,825	-86,489	0,055	0,012
-216,811	-200,000	-0,000	-0,076
-215,796	-42,407	-0,064	-0,024
-214,782	446,694	0,032	0,052
-213,767	329,930	0,033	-0,047
-212,752	-200,000	-0,023	0,089
-211,738	-13,471	-0,072	0,034
-210,723	337,168	-0,032	-0,046
-209,709	800,000	0,009	0,018
-208,694	211,532	0,021	0,024
-207,679	-200,000	-0,026	-0,250
-206,665	800,000	-0,039	-0,116
-205,650	30,015	-0,092	0,057
-204,636	-200,000	-0,002	0,121
-203,621	-200,000	-0,013	-0,115
-202,606	-200,000	-0,034	-0,152
-201,592	-200,000	0,005	-0,101
-200,577	-79,703	0,157	-0,038
-199,563	-81,625	0,081	-0,019
-198,548	563,044	0,036	0,064
-197,533	-200,000	0,001	-0,102
-196,519	-96,950	-0,086	0,016
-195,504	-200,000	-0,040	-0,130
-194,490	139,140	-0,065	-0,063
-193,475	42,761	-0,118	0,078
-192,460	-160,178	-0,018	-0,001
-191,446	-200,000	-0,018	-0,125
-190,431	572,152	0,043	-0,077
-189,417	381,211	-0,086	-0,129
-188,402	292,084	-0,045	-0,060
-187,387	201,848	-0,015	-0,016
-186,373	-200,000	-0,010	0,116
-185,358	363,818	0,027	-0,039
-184,344	686,038	0,050	0,095
-183,329	800,000	0,056	0,171
-182,315	800,000	0,040	0,090
-181,300	-66,656	0,111	0,032
-180,285	-77,255	0,015	0,004
-179,271	800,000	-0,055	-0,132
-178,256	136,147	-0,045	0,043
-177,242	155,485	0,066	-0,066
-176,227	-167,215	0,073	-0,002
-175,212	441,086	-0,060	-0,095
-174,198	396,407	0,030	0,045
-173,183	493,056	-0,037	0,061
-172,169	-200,000	-0,027	-0,087
-171,154	-142,797	-0,127	-0,009
-170,139	-200,000	-0,020	0,079
-169,125	430,790	-0,005	-0,008
-168,110	-51,075	-0,054	-0,018
-167,096	-200,000	-0,005	0,127
-166,081	-46,760	-0,044	0,016
-165,066	-53,770	-0,206	-0,068
-164,052	-20,419	0,142	-0,063
-163,037	-85,897	0,095	0,021
-162,023	-30,824	0,105	0,043
-161,008	800,000	-0,008	0,021
-159,993	82,168	0,063	0,049
-158,979	108,458	-0,037	-0,032
-157,964	582,146	-0,078	0,140
-156,950	-133,016	0,073	0,007
-155,935	-155,802	0,103	-0,005
-154,920	128,168	0,104	0,097
-153,906	800,000	0,106	0,269
-152,891	16,012	-0,040	-0,023
-151,877	-200,000	-0,000	0,019
-150,862	-195,755	-0,046	-0,000
-149,847	800,000	0,066	0,181
-148,833	244,918	-0,027	0,033
-147,818	434,211	0,060	-0,095
-146,804	-93,392	-0,053	0,011
-145,789	-105,374	0,028	0,005
-144,775	24,365	0,093	-0,056
-143,760	265,745	-0,018	-0,023
-142,745	800,000	0,054	-0,138
-141,731	-75,956	0,116	0,030
-140,716	235,271	-0,084	0,101
-139,702	119,229	0,024	-0,022
-138,687	194,001	-0,133	0,147
-137,672	-200,000	0,007	-0,086
-136,658	78,440	0,089	0,069
-135,643	-15,891	0,007	0,003
-134,629	396,987	0,035	0,054
-133,614	-62,770	-0,090	-0,027
-132,599	-176,715	0,144	-0,003
-131,585	-179,847	0,053	0,001
-130,570	800,000	0,024	-0,052
-129,556	235,496	0,043	-0,052
-128,541	52,466	-0,057	-0,040
-127,526	-49,940	-0,085	0,029
-126,512	63,834	-0,015	0,011
-125,497	41,431	0,100	0,066
-124,483	-200,000	-0,011	0,035
-123,468	117,702	0,116	0,104
-122,453	-164,843	-0,084	0,003
-121,439	619,406	0,037	-0,069
-120,424	21,574	-0,043	0,025
-119,410	-200,000	-0,007	0,052
-118,395	800,000	0,043	0,100
-117,380	-79,486	0,098	-0,024
-116,366	-25,220	-0,096	0,041
-115,351	357,479	-0,045	-0,066
-114,337	-200,000	0,011	0,150
-113,322	178,596	0,071	0,076
-112,307	60,478	0,097	0,070
-111,293	-42,108	0,092	-0,034
-110,278	800,000	-0,077	0,161
-109,264	-111,728	0,139	-0,020
-108,249	-76,971	-0,064	-0,016
-107,234	-10,350	-0,052	0,025
-106,220	-22,873	-0,065	-0,028
-105,205	774,044	-0,013	0,025
-104,191	-200,000	0,025	0,139
-103,176	-132,718	-0,092	0,008
-102,162	-200,000	0,018	0,077
-101,147	87,762	0,010	0,008
-100,132	-200,000	0,009	0,066
-99,118	208,731	-0,053	-0,061
-98,103	-112,327	-0,044	-0,006
-97,089	-74,436	0,120	0,031
-96,074	-55,430	-0,052	0,017
-95,059	232,123	0,060	0,072
-94,045	-128,854	-0,032	-0,003
-93,030	293,497	-0,049	-0,065
-92,016	-179,852	-0,157	-0,002
-91,001	-43,655	0,067	-0,025
-89,986	29,578	-0,072	0,044
-88,972	-59,066	0,141	-0,044
-87,957	-48,752	0,078	-0,027
-86,943	30,286	0,085	-0,052
-85,928	-107,211	0,148	0,023
-84,913	-101,399	0,031	0,005
-83,899	-30,955	-0,161	-0,066
-82,884	376,958	0,027	-0,040
-81,870	652,898	-0,040	0,075
-80,855	142,322	-0,116	-0,111
-79,840	216,427	0,054	-0,062
-78,826	-117,808	0,089	0,011
-77,811	60,522	-0,121	0,087
-76,797	247,057	0,089	-0,109
-75,782	329,609	0,043	0,061
-74,767	-53,458	0,089	0,030
-73,753	483,151	0,035	-0,058
-72,738	-115,976	0,113	0,015
-71,724	6,769	-0,090	-0,048
-70,709	-106,822	-0,168	-0,027
-69,694	-200,000	0,014	-0,051
-68,680	99,845	0,037	-0,031
-67,665	-122,923	0,180	0,021
-66,651	-18,812	0,058	-0,026
-65,636	-200,000	0,019	-0,082
-64,622	-19,042	0,101	0,045
-63,607	800,000	0,010	-0,020
-62,592	-17,339	-0,063	-0,028
-61,578	800,000	-0,025	-0,080
-60,563	56,355	0,108	0,076
-59,549	800,000	-0,020	0,053
-58,534	-115,535	-1,403	-0,189
-57,519	800,000	-0,708	-1,528
-56,505	-200,000	-0,918	-4,498
-55,490	7,747	0,587	-0,318
-54,476	800,000	5,019	11,653
-53,461	-200,000	13,962	253,041
-52,446	-200,000	693,231	2239,807
-51,432	574,877	1623,800	2885,613
-50,417	117,532	1632,995	1456,812
-49,403	72,360	1286,742	971,278
-48,388	37,471	1023,318	656,703
-47,373	23,935	981,372	585,294
-46,359	23,175	970,849	576,506
-45,344	22,161	966,437	570,554
-44,330	22,178	964,984	569,726
-43,315	21,973	963,786	568,329
-42,300	21,920	962,714	567,504
-41,286	21,989	961,614	567,054
-40,271	22,006	960,540	566,455
-39,257	21,950	959,593	565,693
-38,242	21,926	958,844	565,150
-37,227	21,951	958,076	564,756
-36,213	21,912	957,064	564,012
-35,198	21,911	956,128	563,433
-34,184	21,983	955,621	563,345
-33,169	21,875	954,746	562,459
-32,154	21,930	953,875	562,101
-31,140	21,959	952,931	561,617
-30,125	22,027	951,979	561,251
-29,111	21,977	951,226	560,624
-28,096	22,040	950,513	560,384
-27,082	21,980	949,898	559,808
-26,067	21,972	949,049	559,257
-25,052	22,000	948,452	558,974
-24,038	21,944	947,897	558,445
-23,023	21,954	947,157	558,019
-22,009	22,057	946,220	557,776
-20,994	21,975	945,893	557,297
-19,979	22,039	945,102	557,012
-18,965	21,978	944,620	556,514
-17,950	21,962	944,097	556,132
-16,936	21,993	943,110	555,626
-15,921	21,908	942,624	555,047
-14,906	21,888	941,863	554,512
-13,892	21,832	941,355	554,016
-12,877	21,879	940,570	553,679
-11,863	21,729	940,174	552,948
-10,848	21,874	939,527	553,008
-9,833	21,925	939,084	552,886
-8,819	21,953	938,423	552,563
-7,804	21,917	937,712	552,010
-6,790	21,888	937,101	551,535
-5,775	21,941	936,510	551,334
-4,760	21,840	935,908	550,638
-3,746	21,782	935,478	550,181
-2,731	21,714	934,596	549,424
-1,717	21,684	934,018	548,968
-0,702	21,648	933,184	548,343
0,313	21,475	932,708	548,347
1,327	24,542	930,609	556,697
2,342	34,070	794,782	500,780
3,356	31,944	450,685	280,747
4,371	0,940	293,785	152,073
5,386	-3,286	274,711	138,190
6,400	-4,746	269,169	134,035
7,415	-5,230	266,855	132,424
8,429	-4,838	265,551	132,125
9,444	-4,871	264,758	131,688
10,459	-4,662	263,968	131,474
11,473	-5,026	263,597	130,947
12,488	-4,904	263,098	130,798
13,502	-4,992	262,455	130,387
14,517	-5,134	262,057	130,049
15,531	-4,871	261,646	130,071
16,546	-4,969	261,274	129,786
17,561	-4,879	260,909	129,675
18,575	-4,873	260,729	129,579
19,590	-5,079	260,405	129,221
20,604	-4,753	260,081	129,341
21,619	-4,955	259,685	128,952
22,634	-5,095	259,493	128,720
23,648	-4,832	259,048	128,722
24,663	-5,120	258,980	128,420
25,677	-4,872	258,495	128,389
26,692	-5,009	258,404	128,211
27,707	-5,133	258,055	127,915
28,721	-5,090	257,748	127,790
29,736	-5,146	257,545	127,628
30,750	-4,923	257,242	127,664
31,765	-5,108	257,046	127,392
32,780	-5,033	256,883	127,367
33,794	-5,077	256,520	127,136
34,809	-5,033	256,363	127,085
35,823	-5,108	256,212	126,933
36,838	-5,041	255,782	126,768
37,853	-5,213	255,798	126,613
38,867	-5,251	255,595	126,469
39,882	-5,088	255,276	126,442
40,896	-5,205	255,069	126,225
41,911	-5,100	254,806	126,176
42,926	-5,164	254,612	126,013
43,940	-5,132	254,232	125,842
44,955	-5,324	254,123	125,609
45,969	-5,290	253,952	125,543
46,984	-5,457	253,661	125,242
47,999	-5,696	253,477	124,932
49,013	-5,624	253,068	124,781
50,028	-5,607	252,759	124,633
51,042	-5,747	252,613	124,428
52,057	-5,736	252,321	124,283
53,071	-5,772	252,178	124,170
54,086	-5,603	252,031	124,233
55,101	-5,562	251,857	124,171
56,115	-5,297	251,731	124,328
57,130	-4,855	251,609	124,638
58,144	-4,978	251,574	124,503
59,159	-5,066	251,251	124,257
60,174	-4,992	251,077	124,223
61,188	-4,744	250,920	124,348
62,203	-5,052	250,644	123,935
63,217	-4,988	250,468	123,892
64,232	-4,976	250,119	123,719
65,247	-4,840	249,888	123,710
66,261	-4,813	249,757	123,658
67,276	-5,105	249,448	123,244
68,290	-5,315	249,161	122,911
69,305	-5,398	248,894	122,697
70,320	-5,359	248,948	122,747
71,334	-5,009	248,748	122,936
72,349	-4,779	248,581	123,039
73,363	-4,842	248,327	122,848
74,378	-4,818	248,154	122,772
75,393	-4,928	248,018	122,600
76,407	-4,918	247,757	122,469
77,422	-5,089	247,551	122,211
78,436	-4,972	247,394	122,222
79,451	-5,111	247,163	121,979
80,466	-4,800	246,735	122,020
81,480	-4,949	246,574	121,803
82,495	-5,146	246,561	121,620
83,509	-5,100	246,379	121,558
84,524	-5,047	246,121	121,464
85,539	-5,177	245,869	121,220
86,553	-5,288	245,725	121,044
87,568	-5,346	245,616	120,931
88,582	-5,214	245,377	120,914
89,597	-5,142	245,209	120,881
90,611	-5,067	245,073	120,866
91,626	-5,054	244,925	120,793
92,641	-5,081	244,662	120,630
93,655	-5,133	244,580	120,535
94,670	-5,242	244,338	120,314
95,684	-5,266	244,086	120,158
96,699	-5,150	243,915	120,161
97,714	-5,092	243,689	120,087
98,728	-5,165	243,621	119,982
99,743	-5,410	243,280	119,599
100,757	-5,380	243,141	119,545
101,772	-5,470	243,015	119,398
102,787	-5,308	242,719	119,376
103,801	-5,430	242,720	119,264
104,816	-5,109	242,554	119,439
105,830	-4,987	242,268	119,389
106,845	-4,972	242,201	119,357
107,860	-4,875	241,909	119,284
108,874	-4,982	241,688	119,075
109,889	-5,048	241,546	118,940
110,903	-5,135	241,461	118,816
111,918	-5,199	241,146	118,597
112,933	-5,355	241,020	118,396
113,947	-5,108	240,943	118,552
114,962	-4,903	240,680	118,580
115,976	-5,097	240,574	118,358
116,991	-5,115	240,374	118,234
118,006	-5,115	240,187	118,132
119,020	-5,096	239,982	118,036
120,035	-5,174	240,068	118,003
121,049	-5,026	239,859	118,012
122,064	-4,908	239,457	117,899
123,079	-5,160	239,381	117,646
124,093	-5,091	239,108	117,557
125,108	-5,318	239,039	117,328
126,122	-5,390	238,716	117,100
127,137	-5,476	238,585	116,955
128,151	-5,362	238,440	116,967
129,166	-5,425	238,245	116,809
130,181	-5,390	238,126	116,769
131,195	-5,678	237,917	116,422
132,210	-5,350	237,843	116,641
133,224	-5,086	237,526	116,690
134,239	-5,225	237,459	116,534
135,254	-5,048	237,296	116,586
136,268	-5,157	237,130	116,407
137,283	-5,455	236,895	116,040
138,297	-5,244	236,463	115,988
139,312	-5,461	236,394	115,769
140,327	-5,097	236,282	115,998
141,341	-4,664	236,393	116,390
142,356	-4,660	236,107	116,242
143,370	-4,773	236,018	116,098
144,385	-4,551	235,830	116,173
145,400	-4,606	235,601	116,006
146,414	-4,857	235,421	115,705
147,429	-4,857	235,482	115,725
148,443	-4,784	235,159	115,615
149,458	-4,762	234,950	115,519
150,473	-4,711	234,886	115,518
151,487	-4,701	234,628	115,389
152,502	-4,826	234,569	115,250
153,516	-4,849	234,328	115,102
154,531	-4,686	234,162	115,141
155,546	-4,809	233,983	114,945
156,560	-4,964	233,826	114,734
157,575	-4,931	233,571	114,625
158,589	-4,985	233,369	114,472
159,604	-4,771	233,375	114,635
160,619	-4,468	233,058	114,710
161,633	-4,604	233,057	114,591
162,648	-4,640	232,818	114,435
163,662	-4,694	232,755	114,351
164,677	-4,790	232,570	114,173
165,692	-5,035	232,408	113,891
166,706	-4,770	232,241	114,007
167,721	-4,819	232,201	113,939
168,735	-4,533	231,964	114,039
169,750	-4,611	231,882	113,926
170,764	-4,781	231,590	113,639
171,779	-4,675	231,601	113,717
172,794	-4,771	231,433	113,550
173,808	-4,763	231,081	113,373
174,823	-5,131	230,782	112,927
175,837	-5,433	230,630	112,606
176,852	-5,085	230,565	112,837
177,867	-4,749	230,523	113,069
178,881	-4,804	230,458	112,985
179,896	-4,667	230,169	112,940
180,910	-4,620	230,027	112,898
181,925	-4,779	230,067	112,782
182,940	-4,727	229,681	112,624
183,954	-4,606	229,566	112,652
184,969	-4,611	229,447	112,579
185,983	-4,565	229,342	112,554
186,998	-4,336	229,095	112,600
188,013	-4,409	229,043	112,508
189,027	-4,673	228,893	112,220
190,042	-4,504	228,758	112,274
191,056	-4,688	228,495	111,992
192,071	-4,643	228,308	111,926
193,086	-4,651	228,227	111,870
194,100	-4,681	228,052	111,751
195,115	-4,876	227,829	111,481
196,129	-5,794	227,523	110,612
197,144	-3,111	228,116	112,967
198,159	1,125	229,371	116,868
199,173	3,848	229,994	119,290
200,188	3,967	230,045	119,398
201,202	4,011	229,886	119,339
202,217	4,260	229,772	119,462
203,232	4,570	229,727	119,668
204,246	4,591	229,461	119,536
205,261	4,441	229,492	119,425
206,275	4,726	229,355	119,563
207,290	4,622	229,213	119,398
208,304	4,857	228,979	119,447
209,319	4,760	228,876	119,307
210,334	4,689	228,610	119,104
211,348	4,362	228,262	118,660
212,363	4,276	228,108	118,503
213,377	3,705	228,075	118,037
214,392	3,734	227,794	117,903
215,407	3,718	227,711	117,838
216,421	3,944	227,567	117,926
217,436	3,776	227,250	117,622
218,450	3,579	227,103	117,385
219,465	3,553	226,907	117,254
220,480	3,760	226,789	117,340
221,494	3,449	226,838	117,117
222,509	3,843	226,678	117,325
223,523	3,691	226,471	117,092
224,538	3,470	226,363	116,857
225,553	3,733	226,146	116,935
226,567	4,067	226,059	117,133
227,582	4,074	225,885	117,038
228,596	4,095	225,896	117,049
229,611	3,990	225,665	116,840
230,626	3,654	225,390	116,432
231,640	3,750	225,277	116,436
232,655	4,174	225,170	116,692
233,669	4,375	225,347	116,925
234,684	4,642	224,912	116,891
235,699	4,336	224,766	116,573
236,713	4,005	224,530	116,191
237,728	3,858	224,336	115,969
238,742	3,709	224,134	115,742
239,757	3,675	224,068	115,672
240,772	3,796	223,959	115,697
241,786	3,665	223,836	115,524
242,801	3,832	223,615	115,525
243,815	3,942	223,706	115,644
244,830	4,298	223,467	115,778
245,844	3,825	223,240	115,296
246,859	3,782	223,175	115,219
247,874	4,183	223,051	115,445
248,888	4,103	222,872	115,282
249,903	3,900	222,762	115,063
250,917	3,979	222,580	115,019
251,932	3,922	222,355	114,849
252,947	3,857	222,064	114,641
253,961	3,645	222,046	114,462
254,976	3,613	221,974	114,391
255,990	4,061	221,888	114,671
257,005	3,843	221,707	114,404
258,020	4,309	221,585	114,678
259,034	4,203	221,624	114,609
260,049	3,937	221,368	114,269
261,063	3,870	221,183	114,114
262,078	4,218	221,070	114,303
263,093	4,164	220,963	114,198
264,107	4,060	220,652	113,950
265,122	4,356	220,546	114,104
266,136	4,260	220,492	113,994
267,151	4,276	220,255	113,874
268,166	3,905	220,212	113,567
269,180	3,563	219,887	113,138
270,195	3,560	219,916	113,140
271,209	3,837	219,635	113,189
272,224	3,807	219,413	113,043
273,239	3,756	219,378	112,977
274,253	3,831	219,152	112,906
275,268	3,559	219,113	112,676
276,282	3,306	218,935	112,388
277,297	3,581	218,620	112,419
278,312	3,684	218,555	112,451
279,326	3,738	218,496	112,450
280,341	3,773	218,420	112,426
281,355	3,971	218,202	112,449
282,370	3,896	217,988	112,274
283,384	3,521	217,868	111,928
284,399	3,387	217,830	111,801
285,414	3,475	217,594	111,734
286,428	3,611	217,589	111,821
287,443	3,832	217,520	111,936
288,457	3,777	217,339	111,792
289,472	3,837	217,157	111,733
290,487	3,545	216,746	111,299
291,501	3,226	216,611	110,989
292,516	3,269	216,636	111,023
293,530	3,111	216,453	110,805
294,545	3,275	216,411	110,892
295,560	3,471	216,469	111,054
296,574	3,970	216,141	111,237
297,589	3,903	216,043	111,128
298,603	4,000	215,822	111,074
299,618	3,668	215,799	110,813
300,633	3,868	215,674	110,884
301,647	4,164	215,583	111,040
302,662	3,915	215,583	110,851
303,676	4,021	215,347	110,796
304,691	3,933	215,148	110,620
305,706	3,955	215,114	110,609
306,720	4,046	214,857	110,531
307,735	4,012	214,698	110,416
308,749	3,693	214,478	110,064
309,764	3,922	214,442	110,200
310,779	4,147	214,304	110,281
311,793	4,188	214,120	110,205
312,808	3,993	214,089	110,040
313,822	3,936	213,965	109,926
314,837	3,677	213,611	109,549
315,852	3,616	213,528	109,453
316,866	3,705	213,286	109,383
317,881	4,051	213,422	109,689
318,895	4,074	213,175	109,569
319,910	3,746	212,963	109,217
320,925	3,679	212,786	109,069
321,939	3,193	212,721	108,681
322,954	3,556	212,472	108,801
323,968	3,909	212,536	109,075
324,983	4,202	212,423	109,215
325,997	4,212	212,229	109,112
327,012	3,708	212,049	108,654
328,027	3,989	211,995	108,815
329,041	4,277	211,866	108,943
330,056	4,410	211,866	109,027
331,070	3,852	211,630	108,502
332,085	3,835	211,257	108,290
333,100	3,728	211,156	108,152
334,114	3,866	211,045	108,183
335,129	3,597	211,104	108,014
336,143	3,901	210,799	108,062
337,158	3,761	210,721	107,914
338,173	3,672	210,622	107,791
339,187	3,558	210,541	107,660
340,202	3,441	210,334	107,463
341,216	3,360	210,032	107,242
342,231	3,565	210,022	107,371
343,246	3,664	209,910	107,374
344,260	3,499	209,748	107,166
345,275	3,598	209,619	107,159
346,289	4,071	209,524	107,431
347,304	3,808	209,409	107,179
348,319	3,929	209,333	107,216
349,333	3,872	209,172	107,084
350,348	3,935	209,044	107,052
351,362	3,924	208,949	106,987
352,377	4,041	208,851	107,008
353,392	3,983	208,664	106,863
354,406	4,093	208,593	106,893
355,421	194,015	1344,791	1432,747
356,435	154,818	1483,306	1432,857
