DTS Sentinel unit serial number:	SN410029Multiplexer serial number:	ORYXHardware model number:	OX2-SRSoftware version number:	ORYX F/W v4,00 Oryx Data Collector v3.7.2.0data status	okinstallation	B6 Nyhavnadifferential loss correction	single-endedforward channel	channel 2reverse channel	N/Adate	2023/12/11time	03:05:08forward acquisition time	300,00reverse acquisition time	0,00gamma	499,1914k internal	0,3123k external	0,3123temperature offset calibration	1,0000default loss term (dB/km)	0,3820temperature slope calibration	1,0000multiplexer offset coefficient	1,0000multiplexer slope coefficient	1,0000fibre end	0,00T internal ref (°C)	21,40T ext. ref 1 (°C)	4,19T ext. ref 2 (°C)	4,21length (m)	temperature (°C)	Stokes	anti-Stokes-744,400	-53,770	0,085	0,029
-743,385	-129,288	-0,211	-0,022
-742,371	800,000	-0,022	0,060
-741,356	179,260	-0,179	0,195
-740,342	-68,100	0,083	0,024
-739,327	-63,666	-0,350	0,106
-738,312	275,643	-0,019	-0,025
-737,298	-17,454	-0,218	-0,102
-736,283	-174,630	-0,029	-0,001
-735,269	23,801	-0,184	0,113
-734,254	800,000	0,037	-0,082
-733,239	-63,894	-0,387	-0,117
-732,225	-14,364	0,096	0,046
-731,210	37,874	-0,060	0,040
-730,196	63,454	0,086	0,064
-729,181	411,121	-0,058	-0,091
-728,167	-200,000	-0,008	-0,040
-727,152	465,948	0,096	-0,160
-726,137	-20,337	-0,114	-0,052
-725,123	-9,623	-0,132	-0,065
-724,108	800,000	0,003	-0,010
-723,094	635,966	-0,064	-0,122
-722,079	800,000	-0,044	-0,123
-721,064	73,814	-0,132	-0,103
-720,050	691,295	-0,060	0,117
-719,035	48,155	-0,067	-0,046
-718,021	137,414	-0,117	-0,114
-717,006	-153,662	-0,212	0,011
-715,991	315,273	-0,127	-0,178
-714,977	-161,127	-0,229	0,009
-713,962	-73,036	0,073	0,020
-712,948	104,272	0,022	-0,020
-711,933	34,969	0,030	-0,020
-710,918	-28,624	0,132	0,056
-709,904	-68,943	0,044	0,013
-708,889	-71,541	-0,101	-0,028
-707,875	36,181	-0,099	-0,065
-706,860	36,590	-0,089	0,058
-705,845	-83,754	0,125	0,029
-704,831	27,227	0,110	-0,068
-703,816	246,615	-0,078	-0,098
-702,802	800,000	-0,064	-0,176
-701,787	114,979	0,060	-0,055
-700,772	232,865	-0,093	-0,113
-699,758	452,676	0,018	-0,031
-698,743	8,799	-0,102	0,057
-697,729	-200,000	0,006	0,091
-696,714	800,000	0,003	-0,009
-695,699	-176,067	-0,104	-0,002
-694,685	-176,345	-0,091	0,002
-693,670	138,960	-0,062	-0,060
-692,656	-164,708	0,056	-0,002
-691,641	-200,000	-0,003	-0,032
-690,627	106,533	-0,114	0,100
-689,612	-200,000	0,004	-0,062
-688,597	-64,546	-0,074	0,022
-687,583	363,801	0,026	0,039
-686,568	-63,705	-0,048	-0,015
-685,554	16,722	-0,082	-0,048
-684,539	103,837	0,035	0,031
-683,524	-200,000	-0,032	0,132
-682,510	-200,000	-0,008	-0,028
-681,495	-200,000	-0,009	0,049
-680,481	79,365	0,056	-0,044
-679,466	-17,030	-0,091	-0,043
-678,451	-200,000	-0,031	0,105
-677,437	-113,086	0,078	0,011
-676,422	23,687	0,197	0,120
-675,408	155,331	-0,043	0,044
-674,393	800,000	-0,017	-0,047
-673,378	-200,000	-0,002	0,135
-672,364	18,262	-0,102	-0,061
-671,349	800,000	-0,006	0,017
-670,335	-4,437	0,134	0,069
-669,320	-200,000	-0,143	-0,000
-668,305	-200,000	-0,004	0,155
-667,291	-129,568	-0,159	-0,016
-666,276	-200,000	-0,005	0,136
-665,262	-0,957	-0,096	0,050
-664,247	70,913	-0,083	-0,064
-663,232	30,978	0,125	0,080
-662,218	746,866	-0,047	-0,094
-661,203	111,450	-0,096	0,086
-660,189	297,495	-0,138	-0,188
-659,174	324,886	0,056	-0,080
-658,159	-123,554	0,127	0,015
-657,145	-200,000	-0,010	-0,069
-656,130	-17,578	-0,067	0,031
-655,116	-200,000	0,001	-0,089
-654,101	-13,406	-0,088	-0,042
-653,086	76,259	-0,087	0,069
-652,072	-29,005	-0,106	-0,045
-651,057	39,059	-0,097	0,064
-650,043	-200,000	0,002	-0,041
-649,028	800,000	0,036	-0,103
-648,014	122,763	0,082	-0,076
-646,999	-200,000	-0,008	-0,107
-645,984	-200,000	0,001	0,077
-644,970	377,380	-0,042	0,064
-643,955	-200,000	0,004	0,088
-642,941	245,922	-0,090	-0,113
-641,926	-54,138	-0,020	-0,007
-640,911	277,557	0,077	0,102
-639,897	319,346	-0,020	-0,028
-638,882	-200,000	-0,000	0,067
-637,868	-60,359	-0,072	-0,022
-636,853	-200,000	-0,023	-0,087
-635,838	-104,140	-0,119	0,020
-634,824	-119,719	0,058	-0,007
-633,809	-9,364	0,040	-0,020
-632,795	-30,714	0,058	0,024
-631,780	-43,568	0,144	0,054
-630,765	-17,941	0,173	0,080
-629,751	-200,000	0,036	-0,123
-628,736	-113,107	-0,083	-0,012
-627,722	88,144	-0,101	0,083
-626,707	446,118	0,028	-0,046
-625,692	-101,234	0,071	-0,013
-624,678	-106,920	-0,079	0,013
-623,663	138,439	0,075	0,073
-622,649	-17,583	0,046	0,021
-621,634	-200,000	-0,027	0,109
-620,619	198,858	-0,078	-0,089
-619,605	235,814	-0,079	-0,096
-618,590	-136,421	0,048	0,004
-617,576	-200,000	0,002	0,091
-616,561	614,196	-0,029	-0,053
-615,546	800,000	-0,056	-0,156
-614,532	-200,000	-0,017	-0,179
-613,517	21,256	-0,031	-0,018
-612,503	323,888	-0,010	-0,014
-611,488	-35,086	0,148	-0,060
-610,474	-59,292	0,073	-0,023
-609,459	-77,491	0,034	0,009
-608,444	-200,000	-0,007	-0,033
-607,430	639,223	-0,044	-0,083
-606,415	-74,602	-0,080	-0,021
-605,401	-56,148	-0,135	-0,044
-604,386	681,469	-0,024	-0,047
-603,371	-54,506	0,052	-0,017
-602,357	-186,999	0,081	-0,001
-601,342	666,028	0,032	0,062
-600,328	-200,000	-0,005	0,023
-599,313	376,513	0,088	-0,133
-598,298	-200,000	-0,003	0,149
-597,284	47,152	0,088	-0,061
-596,269	-74,805	-0,052	0,014
-595,255	41,258	0,132	-0,088
-594,240	151,637	-0,037	-0,038
-593,225	-200,000	0,001	-0,083
-592,211	-200,000	0,041	-0,208
-591,196	800,000	0,047	-0,111
-590,182	-200,000	0,000	0,135
-589,167	12,602	-0,072	-0,041
-588,152	-200,000	0,012	0,041
-587,138	381,798	0,045	-0,068
-586,123	-200,000	0,018	-0,074
-585,109	78,347	-0,118	-0,093
-584,094	-8,711	0,068	-0,034
-583,079	-191,052	0,175	-0,001
-582,065	100,955	0,093	0,080
-581,050	-17,052	-0,114	0,053
-580,036	71,120	-0,078	-0,060
-579,021	389,464	-0,079	-0,122
-578,006	-200,000	-0,017	-0,105
-576,992	-200,000	0,005	-0,073
-575,977	-63,375	0,011	-0,003
-574,963	-60,370	0,171	0,053
-573,948	222,149	0,032	-0,038
-572,934	800,000	-0,014	0,035
-571,919	182,220	-0,085	-0,093
-570,904	242,993	0,073	-0,090
-569,890	-26,648	-0,074	0,032
-568,875	-200,000	0,009	0,065
-567,861	-33,894	-0,040	0,016
-566,846	800,000	-0,026	0,083
-565,831	-109,539	-0,113	-0,018
-564,817	-149,981	-0,085	0,005
-563,802	-200,000	-0,011	-0,112
-562,788	63,528	-0,063	-0,047
-561,773	-133,746	0,039	-0,004
-560,758	332,938	0,077	0,110
-559,744	-200,000	-0,006	-0,068
-558,729	-44,911	-0,079	-0,029
-557,715	57,119	-0,086	-0,062
-556,700	567,169	-0,035	-0,064
-555,685	-200,000	0,007	0,108
-554,671	-22,147	-0,014	0,006
-553,656	-63,930	0,196	-0,059
-552,642	76,761	0,041	-0,032
-551,627	800,000	0,028	-0,070
-550,612	70,330	-0,134	0,103
-549,598	237,333	-0,039	0,047
-548,583	-200,000	-0,012	-0,091
-547,569	113,509	-0,117	-0,105
-546,554	-194,462	0,134	-0,001
-545,539	136,020	-0,050	-0,048
-544,525	-200,000	0,023	0,104
-543,510	656,558	0,009	0,017
-542,496	0,915	0,098	-0,052
-541,481	173,201	-0,056	0,059
-540,466	-200,000	0,015	0,131
-539,452	63,456	0,096	0,071
-538,437	-200,000	-0,011	0,044
-537,423	407,403	0,021	0,032
-536,408	255,275	-0,096	-0,122
-535,393	-200,000	0,004	-0,026
-534,379	-72,894	0,024	-0,006
-533,364	534,532	-0,012	-0,022
-532,350	-31,803	-0,108	0,045
-531,335	-101,353	0,050	0,009
-530,321	50,481	-0,024	0,017
-529,306	800,000	-0,033	-0,076
-528,291	-200,000	0,005	-0,144
-527,277	70,543	-0,024	-0,018
-526,262	-200,000	-0,003	-0,153
-525,248	-87,488	-0,093	0,021
-524,233	-135,290	0,124	0,011
-523,218	24,251	0,090	0,055
-522,204	-200,000	0,008	0,029
-521,189	757,277	0,048	-0,097
-520,175	79,224	-0,133	-0,105
-519,160	800,000	-0,037	0,109
-518,145	5,970	0,112	-0,061
-517,131	-10,454	0,133	-0,065
-516,116	800,000	0,021	-0,068
-515,102	-1,614	0,149	-0,077
-514,087	800,000	-0,040	-0,123
-513,072	35,680	-0,138	-0,089
-512,058	143,945	0,109	-0,107
-511,043	-61,943	0,016	0,005
-510,029	643,102	0,103	0,195
-509,014	-44,630	-0,113	-0,041
-507,999	133,777	-0,047	-0,045
-506,985	-200,000	0,016	-0,076
-505,970	386,461	-0,030	-0,046
-504,956	-148,481	0,092	-0,005
-503,941	179,400	0,082	0,088
-502,926	-200,000	-0,009	0,077
-501,912	91,716	-0,036	0,030
-500,897	78,956	0,033	-0,026
-499,883	59,255	-0,124	-0,090
-498,868	-200,000	0,019	-0,077
-497,853	265,078	-0,074	-0,095
-496,839	-28,334	0,073	-0,031
-495,824	-200,000	-0,044	-0,160
-494,810	236,886	-0,084	-0,103
-493,795	47,630	0,076	0,052
-492,781	163,380	-0,094	-0,097
-491,766	-200,000	-0,023	-0,234
-490,751	773,571	0,016	0,033
-489,737	-200,000	0,021	-0,092
-488,722	392,424	-0,075	-0,115
-487,708	800,000	-0,017	-0,049
-486,693	355,169	-0,069	-0,102
-485,678	-125,345	0,100	0,011
-484,664	-15,473	-0,170	-0,080
-483,649	800,000	0,039	0,091
-482,635	19,785	-0,057	0,034
-481,620	-33,990	0,059	-0,024
-480,605	250,594	-0,033	-0,042
-479,591	280,404	0,041	-0,054
-478,576	142,042	0,018	-0,018
-477,562	-156,994	-0,026	0,001
-476,547	800,000	-0,051	0,128
-475,532	9,031	-0,129	0,071
-474,518	183,454	-0,067	0,073
-473,503	732,286	0,017	0,033
-472,489	-109,583	0,035	-0,005
-471,474	145,825	-0,033	0,033
-470,459	800,000	-0,017	-0,042
-469,445	-200,000	0,009	-0,085
-468,430	-200,000	0,001	-0,137
-467,416	36,486	0,100	-0,065
-466,401	800,000	-0,052	-0,111
-465,386	-200,000	-0,005	0,071
-464,372	283,134	-0,121	0,161
-463,357	-200,000	-0,017	0,076
-462,343	62,788	-0,086	-0,064
-461,328	-22,553	0,031	-0,014
-460,313	63,428	0,109	-0,081
-459,299	76,378	0,036	-0,028
-458,284	181,332	0,042	-0,046
-457,270	-32,209	0,046	-0,019
-456,255	-200,000	0,004	-0,051
-455,241	556,772	0,043	0,076
-454,226	46,821	-0,058	-0,040
-453,211	-47,464	0,091	0,032
-452,197	-182,898	0,029	-0,000
-451,182	800,000	0,050	0,148
-450,168	139,740	-0,032	0,031
-449,153	-200,000	0,023	-0,084
-448,138	-69,463	-0,105	-0,030
-447,124	738,346	0,019	-0,038
-446,109	-113,461	0,100	0,014
-445,095	800,000	-0,074	0,205
-444,080	486,812	-0,025	0,042
-443,065	-200,000	-0,005	0,025
-442,051	-85,766	0,163	-0,037
-441,036	-99,759	-0,086	-0,016
-440,022	-27,741	-0,089	-0,038
-439,007	405,551	0,015	-0,023
-437,992	-130,407	0,143	-0,014
-436,978	-66,325	-0,104	-0,030
-435,963	-200,000	-0,012	0,088
-434,949	279,538	0,094	0,124
-433,934	800,000	0,014	0,041
-432,919	-0,960	-0,090	0,047
-431,905	800,000	0,048	-0,156
-430,890	209,230	0,103	0,119
-429,876	800,000	0,021	0,060
-428,861	25,377	0,081	0,049
-427,846	-200,000	-0,010	0,050
-426,832	208,658	-0,037	-0,043
-425,817	-121,273	0,039	-0,005
-424,803	35,896	0,030	-0,020
-423,788	-200,000	0,019	0,069
-422,773	226,523	-0,085	0,102
-421,759	-10,829	0,046	0,022
-420,744	431,789	0,081	0,130
-419,730	75,395	-0,067	0,052
-418,715	-82,076	0,100	-0,024
-417,701	800,000	0,067	0,144
-416,686	-200,000	0,000	0,147
-415,671	71,359	0,029	-0,022
-414,657	-200,000	0,044	0,190
-413,642	800,000	0,046	0,122
-412,628	-155,778	0,093	0,004
-411,613	-200,000	-0,008	-0,072
-410,598	800,000	-0,026	-0,081
-409,584	270,791	0,054	-0,070
-408,569	322,143	-0,035	0,050
-407,555	-95,071	0,115	-0,023
-406,540	103,898	-0,054	0,047
-405,525	624,976	-0,024	0,045
-404,511	243,143	-0,029	-0,036
-403,496	-200,000	-0,016	0,062
-402,482	-200,000	0,018	0,112
-401,467	800,000	0,017	0,037
-400,452	140,742	0,070	0,068
-399,438	248,485	-0,099	0,123
-398,423	22,198	-0,049	0,029
-397,409	313,687	-0,035	0,048
-396,394	-200,000	0,002	-0,060
-395,379	-77,428	0,056	-0,014
-394,365	232,671	0,088	-0,106
-393,350	-200,000	-0,041	0,168
-392,336	123,770	-0,121	0,112
-391,321	-90,266	0,081	-0,017
-390,306	-120,391	0,076	-0,009
-389,292	-17,035	0,089	-0,041
-388,277	-200,000	0,015	0,099
-387,263	204,906	0,052	0,059
-386,248	744,492	0,046	-0,092
-385,233	311,261	0,158	0,218
-384,219	-29,034	0,118	-0,050
-383,204	53,135	-0,092	-0,065
-382,190	644,096	-0,021	0,039
-381,175	-17,555	0,044	-0,020
-380,160	-47,259	-0,185	0,066
-379,146	410,897	0,043	0,067
-378,131	254,861	-0,066	0,083
-377,117	21,981	-0,101	-0,060
-376,102	119,558	0,078	0,071
-375,088	20,270	-0,091	0,054
-374,073	3,049	-0,071	0,038
-373,058	165,873	0,097	0,101
-372,044	324,552	0,103	0,144
-371,029	7,746	0,046	0,025
-370,015	800,000	-0,062	0,162
-369,000	92,154	-0,062	-0,051
-367,985	127,693	0,025	-0,024
-366,971	87,337	-0,198	0,161
-365,956	-29,690	-0,064	0,027
-364,942	800,000	0,034	0,088
-363,927	-200,000	0,005	0,052
-362,912	34,628	0,049	0,031
-361,898	395,706	-0,041	0,063
-360,883	133,662	-0,058	-0,055
-359,869	-200,000	-0,006	0,063
-358,854	271,587	0,014	0,019
-357,839	-61,220	-0,076	-0,023
-356,825	553,506	-0,023	-0,042
-355,810	497,524	-0,026	-0,045
-354,796	75,895	0,130	-0,101
-353,781	-200,000	-0,022	0,096
-352,766	458,299	0,035	-0,057
-351,752	111,218	-0,012	0,011
-350,737	800,000	0,026	-0,074
-349,723	120,410	0,037	0,033
-348,708	105,098	0,039	-0,034
-347,693	223,242	0,060	-0,071
-346,679	5,607	-0,061	-0,033
-345,664	6,954	0,023	0,012
-344,650	-200,000	0,037	-0,160
-343,635	18,315	0,082	-0,048
-342,620	800,000	0,013	0,038
-341,606	370,788	-0,023	-0,034
-340,591	110,735	0,081	-0,072
-339,577	-34,904	-0,116	-0,046
-338,562	-112,785	-0,045	-0,006
-337,548	551,960	0,070	-0,124
-336,533	-200,000	0,012	-0,046
-335,518	-200,000	-0,012	0,093
-334,504	800,000	-0,056	0,162
-333,489	-200,000	0,006	0,120
-332,475	-79,630	-0,198	0,049
-331,460	713,090	-0,073	0,143
-330,445	231,461	0,043	-0,051
-329,431	-200,000	-0,030	0,148
-328,416	-200,000	0,015	0,123
-327,402	435,422	0,085	0,137
-326,387	-82,609	-0,104	-0,025
-325,372	93,530	-0,077	-0,064
-324,358	-2,110	0,073	0,038
-323,343	-157,758	-0,058	0,002
-322,329	-200,000	0,024	0,128
-321,314	453,777	-0,033	-0,054
-320,299	23,306	0,098	0,059
-319,285	-200,000	-0,028	0,092
-318,270	23,595	-0,086	-0,052
-317,256	79,321	0,035	0,028
-316,241	-27,575	-0,137	-0,058
-315,226	-132,774	-0,128	-0,012
-314,212	-107,953	-0,076	0,012
-313,197	-200,000	-0,003	0,078
-312,183	658,116	0,085	0,160
-311,168	639,546	0,036	-0,068
-310,153	-200,000	0,035	-0,194
-309,139	3,404	-0,020	-0,011
-308,124	302,814	0,014	-0,019
-307,110	412,431	-0,072	0,113
-306,095	-113,125	0,082	-0,012
-305,080	-175,750	-0,029	-0,001
-304,066	-200,000	-0,046	-0,161
-303,051	-103,626	-0,079	-0,014
-302,037	189,078	-0,019	-0,021
-301,022	50,210	-0,058	0,040
-300,008	800,000	0,010	-0,020
-298,993	224,450	0,046	0,054
-297,978	81,731	0,114	-0,090
-296,964	453,577	0,040	-0,065
-295,949	285,478	0,085	-0,112
-294,935	-176,566	-0,124	-0,002
-293,920	730,447	0,050	0,099
-292,905	19,247	0,075	-0,044
-291,891	-200,000	-0,014	0,146
-290,876	61,039	-0,136	0,099
-289,862	-162,008	-0,100	0,004
-288,847	200,787	0,075	-0,084
-287,832	203,390	-0,030	0,034
-286,818	-173,094	0,048	0,001
-285,803	-91,977	0,118	0,024
-284,789	39,498	0,082	0,054
-283,774	-200,000	0,006	0,073
-282,759	-161,725	-0,053	-0,002
-281,745	29,778	0,074	0,046
-280,730	33,042	0,131	-0,083
-279,716	800,000	-0,004	-0,010
-278,701	-18,929	0,108	0,049
-277,686	-200,000	0,008	0,090
-276,672	728,460	0,040	-0,078
-275,657	-105,763	0,087	0,014
-274,643	-78,887	-0,089	-0,022
-273,628	800,000	0,041	-0,105
-272,613	800,000	0,047	-0,144
-271,599	-26,010	0,085	0,036
-270,584	-200,000	0,017	0,162
-269,570	192,123	-0,124	0,137
-268,555	-84,394	-0,079	0,018
-267,540	-200,000	0,018	-0,058
-266,526	196,096	0,083	-0,093
-265,511	-11,267	0,117	0,056
-264,497	-54,304	0,079	0,026
-263,482	380,935	0,094	0,142
-262,467	-14,319	0,050	-0,024
-261,453	-46,173	0,015	0,005
-260,438	219,129	-0,036	-0,042
-259,424	-120,742	0,042	-0,005
-258,409	-64,549	-0,071	0,021
-257,395	-55,862	-0,051	-0,017
-256,380	-200,000	0,003	-0,031
-255,365	157,422	0,038	0,038
-254,351	-100,976	-0,048	-0,009
-253,336	-78,712	-0,060	-0,015
-252,322	12,908	-0,145	-0,082
-251,307	0,923	0,094	0,049
-250,292	-200,000	0,006	0,035
-249,278	-137,653	0,121	-0,010
-248,263	-200,000	-0,010	-0,075
-247,249	506,273	-0,024	-0,040
-246,234	-156,661	-0,136	-0,006
-245,219	-34,928	0,062	-0,025
-244,205	-200,000	0,003	0,084
-243,190	11,433	-0,035	-0,020
-242,176	800,000	-0,032	-0,076
-241,161	-200,000	0,034	0,116
-240,146	212,915	0,035	0,040
-239,132	57,487	-0,039	-0,028
-238,117	-147,688	0,111	0,007
-237,103	-200,000	-0,021	-0,079
-236,088	-200,000	0,105	0,000
-235,073	-22,300	0,125	0,055
-234,059	631,332	0,058	0,107
-233,044	143,733	-0,048	0,047
-232,030	7,146	-0,038	0,021
-231,015	338,744	-0,041	0,059
-230,000	7,363	-0,137	-0,075
-228,986	-200,000	-0,029	-0,115
-227,971	-200,000	0,009	-0,074
-226,957	335,695	-0,086	0,122
-225,942	-42,251	0,069	-0,026
-224,927	47,799	-0,126	0,086
-223,913	-200,000	0,032	0,109
-222,898	370,292	-0,076	-0,113
-221,884	34,767	-0,070	0,044
-220,869	-7,342	-0,131	0,064
-219,855	-105,476	0,153	0,025
-218,840	-77,311	0,053	-0,013
-217,825	800,000	-0,086	-0,202
-216,811	72,416	-0,037	-0,028
-215,796	750,999	0,052	-0,102
-214,782	164,086	-0,054	-0,055
-213,767	-88,328	-0,087	-0,019
-212,752	140,862	-0,067	-0,065
-211,738	428,161	0,058	0,091
-210,723	-46,284	-0,048	-0,017
-209,709	-200,000	0,019	-0,108
-208,694	312,488	-0,080	0,110
-207,679	-200,000	0,005	-0,146
-206,665	286,545	-0,096	0,127
-205,650	-3,330	0,105	0,053
-204,636	61,092	0,087	0,063
-203,621	149,841	-0,087	-0,086
-202,606	-78,592	-0,034	0,008
-201,592	800,000	0,042	0,089
-200,577	800,000	-0,014	0,030
-199,563	-23,457	0,080	-0,035
-198,548	-200,000	-0,025	0,083
-197,533	-200,000	-0,030	0,129
-196,519	62,490	-0,067	0,049
-195,504	800,000	0,026	-0,065
-194,490	66,778	-0,091	-0,067
-193,475	800,000	0,017	-0,044
-192,460	-173,513	0,108	0,002
-191,446	-135,309	-0,071	0,006
-190,431	-200,000	0,014	-0,059
-189,417	91,038	0,145	0,118
-188,402	-200,000	0,006	-0,062
-187,387	244,497	0,100	-0,122
-186,373	-66,737	0,106	-0,030
-185,358	-200,000	-0,012	0,074
-184,344	-200,000	0,011	0,091
-183,329	-200,000	0,003	0,085
-182,315	800,000	0,013	0,039
-181,300	91,928	-0,075	0,062
-180,285	45,662	-0,010	0,007
-179,271	-200,000	-0,010	-0,149
-178,256	-47,730	0,076	0,027
-177,242	800,000	-0,026	-0,055
-176,227	-26,267	0,074	0,031
-175,212	-105,514	-0,140	0,023
-174,198	364,633	-0,102	0,150
-173,183	-200,000	-0,013	-0,131
-172,169	800,000	-0,029	0,091
-171,154	-200,000	-0,061	-0,198
-170,139	-58,081	0,018	0,006
-169,125	552,772	-0,043	0,076
-168,110	38,131	0,060	0,039
-167,096	258,686	-0,070	0,089
-166,081	-80,849	-0,137	0,033
-165,066	77,237	-0,129	-0,100
-164,052	-4,169	0,091	-0,046
-163,037	731,864	0,063	0,124
-162,023	464,909	0,083	0,137
-161,008	-200,000	0,003	0,099
-159,993	-35,498	-0,118	-0,047
-158,979	232,728	-0,056	-0,067
-157,964	355,812	0,023	-0,033
-156,950	800,000	-0,035	-0,081
-155,935	-200,000	0,006	-0,038
-154,920	540,353	-0,014	-0,025
-153,906	-51,600	-0,123	0,042
-152,891	-200,000	-0,163	-0,000
-151,877	-5,167	-0,065	0,033
-150,862	-76,519	-0,119	0,030
-149,847	131,588	-0,054	0,050
-148,833	462,575	-0,069	0,112
-147,818	659,263	0,043	-0,081
-146,804	174,789	0,075	0,079
-145,789	101,361	-0,040	0,034
-144,775	606,809	-0,010	0,018
-143,760	-200,000	-0,006	0,142
-142,745	-200,000	0,002	0,027
-141,731	-102,036	-0,075	0,013
-140,716	-112,858	0,126	-0,018
-139,702	-200,000	-0,004	0,015
-138,687	-200,000	-0,017	0,073
-137,672	-200,000	0,008	0,028
-136,658	800,000	-0,042	-0,108
-135,643	111,220	0,074	0,065
-134,629	800,000	-0,035	-0,102
-133,614	-150,193	-0,054	-0,003
-132,599	49,647	0,160	0,109
-131,585	-200,000	0,039	0,136
-130,570	377,985	-0,039	-0,058
-129,556	108,518	0,018	0,015
-128,541	-172,655	-0,043	0,001
-127,526	-200,000	-0,006	-0,061
-126,512	410,553	0,049	0,075
-125,497	581,063	0,058	0,104
-124,483	-19,482	0,053	-0,024
-123,468	-200,000	-0,001	0,027
-122,453	-200,000	0,006	0,038
-121,439	800,000	-0,050	0,149
-120,424	-200,000	0,010	-0,100
-119,410	-114,919	0,033	0,004
-118,395	-48,484	-0,052	0,018
-117,380	-158,708	-0,051	-0,002
-116,366	-32,538	0,033	-0,013
-115,351	31,448	-0,046	0,029
-114,337	800,000	-0,033	-0,077
-113,322	592,246	-0,055	0,100
-112,307	-89,897	0,092	0,019
-111,293	385,269	-0,014	-0,021
-110,278	-41,435	0,064	0,024
-109,264	800,000	0,027	0,066
-108,249	-200,000	0,012	-0,059
-107,234	58,715	0,042	-0,030
-106,220	218,427	0,072	0,083
-105,205	-112,679	0,033	-0,005
-104,191	-30,178	0,093	0,038
-103,176	174,075	-0,140	0,147
-102,162	800,000	0,042	-0,119
-101,147	375,167	-0,019	0,028
-100,132	-192,576	-0,064	0,000
-99,118	-43,925	0,122	0,044
-98,103	-5,854	-0,108	0,054
-97,089	-120,058	-0,142	-0,017
-96,074	-200,000	-0,010	0,070
-95,059	-38,780	0,096	-0,036
-94,045	-200,000	-0,018	-0,093
-93,030	-200,000	-0,006	0,046
-92,016	60,170	0,032	-0,023
-91,001	-200,000	0,007	-0,086
-89,986	97,758	-0,041	-0,034
-88,972	88,148	0,138	0,111
-87,957	28,220	0,009	0,005
-86,943	-200,000	0,049	-0,215
-85,928	257,077	0,110	-0,137
-84,913	-200,000	0,003	-0,117
-83,899	-200,000	0,027	-0,092
-82,884	-87,737	0,044	-0,010
-81,870	800,000	-0,010	-0,021
-80,855	800,000	-0,072	0,185
-79,840	-200,000	-0,065	0,239
-78,826	-200,000	0,000	-0,009
-77,811	-135,135	-0,026	0,002
-76,797	18,239	-0,048	-0,028
-75,782	-16,335	0,104	0,048
-74,767	123,347	-0,096	0,087
-73,753	241,937	0,015	0,018
-72,738	267,331	0,039	0,049
-71,724	610,381	-0,075	-0,136
-70,709	168,061	-0,021	-0,021
-69,694	-73,503	0,115	0,030
-68,680	86,874	-0,012	-0,010
-67,665	-200,000	-0,036	0,159
-66,651	-104,507	0,091	0,015
-65,636	174,282	-0,026	-0,027
-64,622	67,417	0,049	0,036
-63,607	-200,000	0,005	-0,071
-62,592	463,389	0,041	-0,066
-61,578	253,463	0,058	-0,072
-60,563	800,000	-0,027	-0,062
-59,549	-52,801	-0,079	-0,026
-58,534	-121,072	-1,486	-0,179
-57,519	711,323	-0,813	-1,569
-56,505	-200,000	-0,997	-4,537
-55,490	-83,006	0,708	-0,164
-54,476	800,000	4,953	11,849
-53,461	-200,000	14,417	260,731
-52,446	-200,000	696,128	2265,444
-51,432	584,601	1624,024	2906,830
-50,417	118,528	1633,086	1462,386
-49,403	75,383	1286,753	984,041
-48,388	37,749	1024,372	658,662
-47,373	23,601	983,185	585,568
-46,359	22,751	972,603	576,451
-45,344	21,686	968,144	570,297
-44,330	21,623	966,871	569,319
-43,315	21,488	965,380	567,977
-42,300	21,474	964,153	567,187
-41,286	21,441	963,291	566,552
-40,271	21,514	962,162	566,102
-39,257	21,451	961,312	565,376
-38,242	21,390	960,603	564,739
-37,227	21,414	959,626	564,218
-36,213	21,371	958,631	563,473
-35,198	21,335	957,827	562,859
-34,184	21,427	956,995	562,646
-33,169	21,419	956,160	562,108
-32,154	21,460	955,193	561,649
-31,140	21,446	954,536	561,194
-30,125	21,446	953,784	560,733
-29,111	21,427	953,039	560,211
-28,096	21,431	952,506	559,887
-27,082	21,428	951,529	559,280
-26,067	21,469	950,706	558,906
-25,052	21,486	949,785	558,398
-24,038	21,430	949,403	557,973
-23,023	21,464	948,509	557,533
-22,009	21,463	948,147	557,293
-20,994	21,454	947,443	556,830
-19,979	21,481	946,835	556,536
-18,965	21,501	946,112	556,154
-17,950	21,469	945,546	555,697
-16,936	21,368	945,125	555,105
-15,921	21,385	944,351	554,683
-14,906	21,403	943,349	554,129
-13,892	21,302	943,028	553,595
-12,877	21,283	942,258	553,060
-11,863	21,335	941,342	552,667
-10,848	21,329	941,084	552,475
-9,833	21,390	940,703	552,425
-8,819	21,400	939,982	552,010
-7,804	21,358	939,329	551,473
-6,790	21,323	938,742	550,993
-5,775	21,327	938,204	550,668
-4,760	21,296	937,568	550,175
-3,746	21,388	936,914	550,060
-2,731	21,158	936,210	548,898
-1,717	21,100	935,814	548,460
-0,702	21,075	935,044	547,908
0,313	20,925	934,332	547,846
1,327	24,092	932,292	556,578
2,342	33,549	795,548	500,139
3,356	30,912	451,806	280,031
4,371	0,014	295,268	151,979
5,386	-4,350	276,194	137,994
6,400	-6,059	270,471	133,525
7,415	-6,379	268,113	132,054
8,429	-5,995	267,050	131,872
9,444	-5,803	266,275	131,654
10,459	-5,837	265,507	131,232
11,473	-6,008	264,978	130,802
12,488	-5,893	264,381	130,601
13,502	-6,007	263,859	130,227
14,517	-5,872	263,423	130,123
15,531	-5,739	263,302	130,173
16,546	-5,633	262,835	130,026
17,561	-5,612	262,446	129,841
18,575	-5,707	262,173	129,609
19,590	-5,640	261,771	129,459
20,604	-5,551	261,531	129,410
21,619	-5,578	261,183	129,201
22,634	-5,509	260,935	129,129
23,648	-5,557	260,527	128,873
24,663	-5,863	260,398	128,522
25,677	-5,674	260,003	128,485
26,692	-5,799	259,753	128,239
27,707	-5,492	259,555	128,404
28,721	-5,720	259,264	128,045
29,736	-5,690	258,905	127,883
30,750	-5,711	258,730	127,766
31,765	-5,657	258,474	127,677
32,780	-5,674	258,336	127,582
33,794	-5,880	258,139	127,290
34,809	-5,546	257,784	127,401
35,823	-5,684	257,509	127,131
36,838	-5,780	257,271	126,917
37,853	-5,790	256,952	126,739
38,867	-5,800	256,946	126,716
39,882	-5,785	256,618	126,557
40,896	-5,792	256,416	126,439
41,911	-5,713	256,200	126,391
42,926	-5,610	255,891	126,318
43,940	-5,734	255,768	126,137
44,955	-5,843	255,682	125,987
45,969	-5,824	255,174	125,743
46,984	-6,021	255,048	125,497
47,999	-6,278	254,876	125,175
49,013	-6,272	254,498	124,983
50,028	-6,534	254,314	124,652
51,042	-6,450	253,882	124,503
52,057	-6,568	253,886	124,391
53,071	-6,567	253,641	124,261
54,086	-6,483	253,623	124,314
55,101	-6,469	253,317	124,166
56,115	-6,046	253,135	124,433
57,130	-5,677	252,888	124,621
58,144	-5,649	253,007	124,693
59,159	-5,680	252,782	124,545
60,174	-5,492	252,341	124,479
61,188	-5,683	252,240	124,253
62,203	-5,495	252,051	124,311
63,217	-5,751	251,862	123,985
64,232	-5,542	251,675	124,063
65,247	-5,867	251,475	123,673
66,261	-5,721	251,182	123,644
67,276	-5,829	250,941	123,421
68,290	-5,969	250,654	123,148
69,305	-6,394	250,586	122,738
70,320	-6,035	250,352	122,921
71,334	-5,874	250,151	122,949
72,349	-5,596	249,972	123,089
73,363	-5,750	249,841	122,882
74,378	-5,657	249,610	122,836
75,393	-5,678	249,350	122,680
76,407	-5,848	249,140	122,421
77,422	-5,604	249,051	122,574
78,436	-5,682	248,802	122,374
79,451	-5,625	248,649	122,336
80,466	-5,672	248,378	122,152
81,480	-5,756	248,077	121,922
82,495	-5,931	247,885	121,668
83,509	-5,924	247,824	121,633
84,524	-5,848	247,575	121,565
85,539	-5,831	247,171	121,370
86,553	-5,890	247,065	121,257
87,568	-5,844	246,853	121,181
88,582	-5,886	246,716	121,067
89,597	-6,056	246,497	120,806
90,611	-5,762	246,453	121,021
91,626	-5,665	246,315	121,025
92,641	-5,865	246,088	120,734
93,655	-5,746	245,884	120,723
94,670	-5,742	245,689	120,620
95,684	-5,745	245,587	120,557
96,699	-5,850	245,443	120,387
97,714	-5,967	245,208	120,163
98,728	-5,961	245,033	120,071
99,743	-5,925	244,619	119,888
100,757	-5,984	244,614	119,825
101,772	-6,019	244,250	119,607
102,787	-6,235	244,275	119,428
103,801	-5,866	243,921	119,552
104,816	-5,828	243,764	119,497
105,830	-5,897	243,584	119,340
106,845	-5,764	243,666	119,481
107,860	-5,718	243,486	119,420
108,874	-5,936	243,026	119,003
109,889	-6,165	242,841	118,711
110,903	-6,110	242,782	118,717
111,918	-6,045	242,473	118,609
112,933	-5,980	242,505	118,668
113,947	-5,948	242,304	118,585
114,962	-5,857	242,078	118,541
115,976	-5,857	241,895	118,440
116,991	-5,829	241,795	118,403
118,006	-5,712	241,434	118,313
119,020	-5,902	241,532	118,193
120,035	-5,775	241,318	118,183
121,049	-5,599	241,121	118,221
122,064	-5,832	240,872	117,897
123,079	-5,950	240,728	117,719
124,093	-5,931	240,435	117,580
125,108	-5,922	240,344	117,532
126,122	-6,081	240,037	117,242
127,137	-6,140	239,784	117,059
128,151	-6,182	239,671	116,959
129,166	-6,095	239,690	117,029
130,181	-6,225	239,314	116,729
131,195	-6,172	239,207	116,710
132,210	-6,066	239,079	116,724
133,224	-5,894	238,837	116,735
134,239	-5,886	238,848	116,737
135,254	-5,716	238,549	116,718
136,268	-5,937	238,297	116,405
137,283	-6,140	237,972	116,071
138,297	-6,300	237,901	115,896
139,312	-6,084	237,635	115,931
140,327	-5,877	237,594	116,069
141,341	-5,406	237,614	116,451
142,356	-5,390	237,492	116,393
143,370	-5,513	237,310	116,194
144,385	-5,519	237,177	116,114
145,400	-5,468	236,884	116,002
146,414	-5,478	236,621	115,854
147,429	-5,632	236,660	115,738
148,443	-5,635	236,495	115,644
149,458	-5,714	236,166	115,410
150,473	-5,690	236,044	115,359
151,487	-5,810	235,848	115,157
152,502	-5,720	235,811	115,201
153,516	-5,518	235,659	115,278
154,531	-5,605	235,364	115,054
155,546	-5,651	235,175	114,915
156,560	-5,592	234,975	114,854
157,575	-5,745	234,758	114,616
158,589	-5,873	234,647	114,448
159,604	-5,439	234,482	114,705
160,619	-5,421	234,349	114,643
161,633	-5,336	234,236	114,646
162,648	-5,459	234,151	114,496
163,662	-5,522	233,878	114,302
164,677	-5,746	233,845	114,098
165,692	-5,595	233,851	114,211
166,706	-5,377	233,478	114,192
167,721	-5,652	233,518	113,982
168,735	-5,481	233,323	114,013
169,750	-5,440	232,893	113,825
170,764	-5,615	232,904	113,681
171,779	-5,500	232,674	113,650
172,794	-5,492	232,492	113,557
173,808	-5,488	232,303	113,458
174,823	-6,212	232,200	112,825
175,837	-6,071	231,965	112,813
176,852	-5,893	231,898	112,910
177,867	-5,721	231,850	113,012
178,881	-5,499	231,618	113,065
179,896	-5,682	231,594	112,899
180,910	-5,449	231,402	112,978
181,925	-5,460	231,148	112,835
182,940	-5,631	231,130	112,682
183,954	-5,591	230,881	112,582
184,969	-5,261	230,679	112,733
185,983	-5,164	230,623	112,771
186,998	-5,128	230,417	112,688
188,013	-5,336	230,329	112,472
189,027	-5,397	230,144	112,325
190,042	-5,210	229,899	112,340
191,056	-5,150	229,751	112,305
192,071	-5,527	229,633	111,944
193,086	-5,659	229,499	111,765
194,100	-5,820	229,157	111,464
195,115	-6,291	228,686	110,858
196,129	-7,171	228,485	110,068
197,144	-3,543	229,665	113,456
198,159	1,345	231,008	117,934
199,173	4,082	231,743	120,442
200,188	4,404	231,669	120,645
201,202	4,305	231,565	120,502
202,217	4,591	231,385	120,621
203,232	4,698	231,354	120,678
204,246	4,942	231,164	120,758
205,261	4,977	231,108	120,745
206,275	5,254	230,974	120,880
207,290	5,176	230,884	120,762
208,304	5,116	230,707	120,611
209,319	4,963	230,519	120,383
210,334	4,953	230,186	120,191
211,348	4,833	230,078	120,031
212,363	4,403	229,822	119,554
213,377	4,067	229,579	119,157
214,392	4,134	229,420	119,116
215,407	4,551	229,181	119,303
216,421	4,470	229,113	119,194
217,436	4,103	228,931	118,806
218,450	4,018	228,813	118,668
219,465	3,883	228,614	118,451
220,480	3,994	228,392	118,410
221,494	4,065	228,314	118,414
222,509	4,114	228,199	118,381
223,523	4,211	228,150	118,420
224,538	4,063	227,886	118,159
225,553	4,048	227,751	118,067
226,567	4,130	227,738	118,112
227,582	4,419	227,546	118,223
228,596	4,704	227,262	118,283
229,611	4,213	227,238	117,885
230,626	4,067	227,105	117,694
231,640	4,000	226,934	117,543
232,655	4,287	226,871	117,719
233,669	4,871	226,778	118,107
234,684	4,857	226,681	118,034
235,699	4,377	226,464	117,545
236,713	4,391	226,087	117,350
237,728	4,200	225,973	117,135
238,742	4,219	225,806	117,052
239,757	4,271	225,730	117,042
240,772	4,269	225,480	116,900
241,786	4,179	225,547	116,857
242,801	4,381	225,323	116,883
243,815	4,634	225,366	117,087
244,830	4,638	225,119	116,952
245,844	4,345	224,923	116,618
246,859	4,389	224,821	116,587
247,874	4,479	224,656	116,559
248,888	4,710	224,424	116,602
249,903	4,403	224,201	116,245
250,917	4,392	223,989	116,116
251,932	4,207	224,022	115,984
252,947	4,394	223,794	115,996
253,961	4,072	223,678	115,684
254,976	4,215	223,403	115,639
255,990	4,334	223,433	115,734
257,005	4,532	223,159	115,729
258,020	4,427	223,202	115,663
259,034	4,500	223,172	115,691
260,049	4,596	222,830	115,576
261,063	4,174	222,686	115,175
262,078	4,630	222,753	115,540
263,093	4,722	222,458	115,446
264,107	4,476	222,370	115,207
265,122	4,506	222,253	115,158
266,136	4,649	222,024	115,136
267,151	4,448	222,076	115,003
268,166	4,159	221,576	114,518
269,180	4,284	221,309	114,463
270,195	4,129	221,300	114,333
271,209	4,184	221,130	114,276
272,224	4,307	221,074	114,328
273,239	4,168	220,967	114,159
274,253	4,051	220,728	113,939
275,268	4,015	220,550	113,811
276,282	4,225	220,324	113,838
277,297	3,715	220,270	113,424
278,312	4,031	220,166	113,594
279,326	4,214	219,983	113,624
280,341	4,231	219,970	113,620
281,355	4,365	219,698	113,568
282,370	4,210	219,713	113,452
283,384	3,862	219,472	113,061
284,399	3,845	219,404	113,003
285,414	4,081	219,217	113,071
286,428	4,228	219,100	113,108
287,443	4,062	219,097	112,974
288,457	4,309	218,856	113,021
289,472	4,351	218,696	112,959
290,487	3,952	218,404	112,506
291,501	3,906	218,232	112,374
292,516	3,996	218,269	112,449
293,530	4,099	218,051	112,402
294,545	4,087	217,804	112,256
295,560	3,928	217,875	112,166
296,574	4,283	217,666	112,307
297,589	4,250	217,523	112,199
298,603	4,189	217,428	112,096
299,618	4,030	217,280	111,895
300,633	4,244	217,173	111,985
301,647	4,599	217,098	112,193
302,662	4,633	216,956	112,135
303,676	4,571	216,782	111,990
304,691	4,229	216,694	111,687
305,706	4,622	216,403	111,811
306,720	4,392	216,404	111,635
307,735	4,395	216,144	111,494
308,749	3,982	216,007	111,114
309,764	4,308	215,894	111,282
310,779	4,517	215,755	111,351
311,793	4,227	215,716	111,112
312,808	4,283	215,624	111,095
313,822	4,232	215,372	110,918
314,837	4,243	215,226	110,841
315,852	4,091	214,993	110,602
316,866	4,210	214,863	110,611
317,881	4,581	214,774	110,821
318,895	4,426	214,772	110,699
319,910	4,331	214,471	110,467
320,925	3,975	214,354	110,141
321,939	3,808	214,158	109,911
322,954	3,489	214,132	109,660
323,968	3,988	213,963	109,920
324,983	4,307	213,876	110,094
325,997	4,481	213,711	110,123
327,012	4,247	213,625	109,901
328,027	3,948	213,539	109,635
329,041	4,491	213,324	109,901
330,056	4,515	213,260	109,876
331,070	4,171	212,935	109,454
332,085	3,928	212,750	109,177
333,100	4,008	212,717	109,206
334,114	4,385	212,547	109,377
335,129	4,073	212,390	109,065
336,143	3,962	212,195	108,877
337,158	3,757	212,194	108,722
338,173	4,026	212,124	108,866
339,187	3,868	211,834	108,596
340,202	3,958	211,800	108,632
341,216	3,818	211,485	108,363
342,231	3,955	211,503	108,459
343,246	3,941	211,462	108,419
344,260	3,796	211,252	108,199
345,275	4,117	211,141	108,358
346,289	4,281	211,082	108,433
347,304	4,209	210,848	108,253
348,319	4,301	210,611	108,187
349,333	4,224	210,567	108,100
350,348	4,219	210,504	108,055
351,362	4,450	210,427	108,167
352,377	4,366	210,291	108,028
353,392	4,137	210,083	107,752
354,406	4,214	210,041	107,774
355,421	193,992	1344,549	1433,150
356,435	154,842	1482,854	1433,251
