DTS Sentinel unit serial number:	SN410029Multiplexer serial number:	ORYXHardware model number:	OX2-SRSoftware version number:	ORYX F/W v4,00 Oryx Data Collector v3.7.2.0data status	okinstallation	B6 Nyhavnadifferential loss correction	single-endedforward channel	channel 2reverse channel	N/Adate	2023/12/09time	15:05:08forward acquisition time	300,00reverse acquisition time	0,00gamma	499,1914k internal	0,3133k external	0,3133temperature offset calibration	1,0000default loss term (dB/km)	0,3820temperature slope calibration	1,0000multiplexer offset coefficient	1,0000multiplexer slope coefficient	1,0000fibre end	0,00T internal ref (°C)	20,58T ext. ref 1 (°C)	4,37T ext. ref 2 (°C)	4,35length (m)	temperature (°C)	Stokes	anti-Stokes-744,400	350,857	-0,075	-0,111
-743,385	14,162	-0,274	0,158
-742,371	-87,477	0,215	0,048
-741,356	113,350	-0,179	0,161
-740,342	800,000	-0,056	-0,119
-739,327	170,240	-0,093	0,099
-738,312	-200,000	0,022	0,101
-737,298	-67,884	-0,212	-0,061
-736,283	-200,000	-0,001	-0,114
-735,269	19,681	-0,268	0,160
-734,254	136,103	0,065	0,063
-733,239	41,435	-0,295	-0,198
-732,225	11,219	0,148	-0,084
-731,210	-200,000	-0,002	0,024
-730,196	-5,137	-0,105	0,054
-729,181	-200,000	-0,000	-0,190
-728,167	800,000	-0,011	0,037
-727,152	-200,000	-0,003	-0,132
-726,137	-200,000	0,026	-0,100
-725,123	767,259	-0,007	0,015
-724,108	-200,000	-0,025	-0,104
-723,094	800,000	-0,016	-0,038
-722,079	141,187	-0,057	0,056
-721,064	-56,481	0,124	0,041
-720,050	193,450	-0,026	-0,029
-719,035	176,261	-0,054	0,059
-718,021	163,703	-0,097	-0,101
-717,006	36,443	-0,060	-0,039
-715,991	81,994	-0,110	-0,089
-714,977	262,784	-0,078	-0,100
-713,962	-200,000	0,011	-0,086
-712,948	800,000	0,037	-0,076
-711,933	46,186	-0,113	0,077
-710,918	-39,170	0,073	0,028
-709,904	-136,456	-0,164	0,014
-708,889	58,405	-0,202	-0,147
-707,875	304,671	0,090	0,124
-706,860	-200,000	-0,003	-0,124
-705,845	472,183	-0,051	0,085
-704,831	681,558	0,085	0,166
-703,816	800,000	-0,014	0,041
-702,802	125,984	-0,021	-0,020
-701,787	475,173	-0,035	-0,059
-700,772	-200,000	0,013	-0,113
-699,758	149,104	0,027	-0,027
-698,743	-1,975	0,125	-0,065
-697,729	-200,000	-0,007	0,111
-696,714	-121,229	-0,094	-0,012
-695,699	-3,589	0,039	-0,020
-694,685	-200,000	-0,003	-0,064
-693,670	378,676	-0,068	-0,103
-692,656	-200,000	0,004	-0,116
-691,641	132,161	0,036	-0,035
-690,627	-99,666	0,011	0,002
-689,612	253,805	-0,025	-0,031
-688,597	-200,000	0,001	0,056
-687,583	488,487	0,031	0,053
-686,568	35,919	-0,142	-0,093
-685,554	-118,087	-0,140	0,018
-684,539	-200,000	-0,023	0,196
-683,524	-46,850	-0,016	0,006
-682,510	-200,000	0,021	-0,076
-681,495	-86,468	-0,021	0,005
-680,481	-49,013	-0,045	0,016
-679,466	290,808	-0,107	-0,144
-678,451	-200,000	0,002	-0,049
-677,437	158,220	-0,112	-0,115
-676,422	124,351	-0,111	0,104
-675,408	-128,377	0,071	0,007
-674,393	800,000	0,025	0,069
-673,378	-200,000	0,005	-0,074
-672,364	47,653	-0,110	-0,076
-671,349	-94,880	-0,110	-0,022
-670,335	12,440	0,106	0,061
-669,320	323,374	-0,034	-0,048
-668,305	555,098	0,022	0,039
-667,291	84,546	-0,071	0,057
-666,276	-36,345	-0,132	-0,052
-665,262	800,000	-0,034	-0,075
-664,247	800,000	-0,033	-0,070
-663,232	95,594	-0,080	-0,068
-662,218	22,198	0,164	0,099
-661,203	-43,121	0,169	0,063
-660,189	218,272	-0,025	-0,030
-659,174	-200,000	-0,001	-0,081
-658,159	-83,611	-0,124	0,029
-657,145	-200,000	0,028	-0,173
-656,130	112,727	0,065	0,058
-655,116	18,075	-0,115	-0,068
-654,101	800,000	-0,032	-0,090
-653,086	641,053	0,076	-0,144
-652,072	-41,374	0,052	-0,020
-651,057	178,396	-0,109	-0,118
-650,043	3,194	-0,025	0,014
-649,028	649,189	-0,007	-0,013
-648,014	-9,036	0,046	-0,023
-646,999	-200,000	-0,003	-0,114
-645,984	168,508	0,060	-0,063
-644,970	-125,636	-0,072	0,008
-643,955	711,357	-0,039	-0,076
-642,941	58,219	0,107	0,077
-641,926	-200,000	-0,021	-0,083
-640,911	38,407	0,034	-0,022
-639,897	405,930	-0,057	0,089
-638,882	398,203	-0,015	0,023
-637,868	598,159	0,019	0,035
-636,853	-200,000	-0,025	-0,137
-635,838	-21,246	-0,160	-0,072
-634,824	246,998	0,028	-0,036
-633,809	148,675	0,047	0,048
-632,795	57,156	0,022	0,016
-631,780	-200,000	-0,010	-0,050
-630,765	-200,000	0,014	-0,112
-629,751	-200,000	0,010	0,041
-628,736	-49,705	-0,055	0,019
-627,722	800,000	-0,067	-0,140
-626,707	446,062	0,035	-0,058
-625,692	-200,000	-0,024	-0,080
-624,678	20,793	-0,016	-0,009
-623,663	-200,000	-0,003	-0,123
-622,649	242,430	-0,110	-0,136
-621,634	22,613	-0,111	-0,067
-620,619	134,779	-0,115	0,110
-619,605	310,182	0,067	-0,093
-618,590	-200,000	0,002	0,048
-617,576	-200,000	-0,000	0,121
-616,561	-200,000	0,012	-0,063
-615,546	-12,884	-0,041	-0,020
-614,532	294,380	-0,071	-0,096
-613,517	-66,324	-0,064	0,019
-612,503	-200,000	0,031	-0,115
-611,488	121,725	-0,050	0,046
-610,474	155,376	0,019	0,019
-609,459	627,944	0,026	0,048
-608,444	520,415	-0,055	-0,095
-607,430	582,382	-0,092	-0,167
-606,415	109,277	0,059	0,052
-605,401	15,939	0,076	-0,044
-604,386	472,464	0,022	-0,037
-603,371	-7,657	0,090	0,045
-602,357	86,875	-0,086	0,070
-601,342	223,296	-0,027	0,032
-600,328	770,729	-0,028	0,056
-599,313	800,000	-0,027	-0,071
-598,298	800,000	0,006	0,018
-597,284	474,433	-0,028	0,046
-596,269	162,578	-0,031	-0,032
-595,255	146,771	-0,004	-0,004
-594,240	-200,000	-0,005	-0,114
-593,225	143,317	-0,020	0,019
-592,211	594,196	-0,049	-0,090
-591,196	59,796	-0,029	0,021
-590,182	-50,326	-0,065	0,023
-589,167	800,000	0,021	-0,068
-588,152	-10,510	-0,121	0,059
-587,138	405,156	-0,018	0,029
-586,123	-200,000	-0,016	-0,103
-585,109	674,194	-0,026	-0,051
-584,094	800,000	0,022	-0,072
-583,079	17,192	0,070	0,041
-582,065	800,000	0,056	0,158
-581,050	-61,096	0,060	-0,019
-580,036	301,467	-0,004	0,005
-579,021	800,000	-0,046	-0,126
-578,006	1,723	-0,064	-0,034
-576,992	-4,359	-0,107	-0,054
-575,977	800,000	0,015	-0,034
-574,963	-118,390	-0,024	0,003
-573,948	36,031	0,032	-0,021
-572,934	-93,314	0,105	0,021
-571,919	590,899	-0,087	-0,159
-570,904	800,000	-0,051	-0,137
-569,890	148,791	-0,071	0,070
-568,875	-142,433	0,151	0,011
-567,861	-200,000	0,028	-0,105
-566,846	-200,000	0,007	0,056
-565,831	-200,000	0,006	-0,122
-564,817	800,000	0,008	-0,017
-563,802	289,457	-0,050	0,067
-562,788	228,873	-0,039	-0,047
-561,773	119,507	0,049	0,044
-560,758	393,249	0,025	0,038
-559,744	-15,699	-0,062	0,029
-558,729	-200,000	0,002	0,043
-557,715	-200,000	-0,005	-0,064
-556,700	480,256	-0,080	0,135
-555,685	131,660	-0,129	0,123
-554,671	-66,126	0,020	0,006
-553,656	12,596	0,099	0,056
-552,642	307,515	-0,034	-0,046
-551,627	95,320	0,095	-0,079
-550,612	535,692	-0,067	-0,117
-549,598	-139,473	-0,082	0,006
-548,583	800,000	-0,054	-0,159
-547,569	-200,000	0,013	-0,087
-546,554	-200,000	-0,014	-0,114
-545,539	-83,189	0,085	0,020
-544,525	88,056	0,114	0,093
-543,510	-200,000	0,015	-0,053
-542,496	25,668	-0,086	0,052
-541,481	-200,000	-0,009	0,033
-540,466	-179,041	0,026	-0,000
-539,452	240,288	-0,040	-0,049
-538,437	-93,228	0,077	0,016
-537,423	800,000	-0,030	0,076
-536,408	356,517	0,035	0,052
-535,393	-15,705	-0,081	0,038
-534,379	147,854	-0,037	0,037
-533,364	-91,899	0,019	0,004
-532,350	-92,237	0,047	-0,010
-531,335	185,312	0,044	-0,048
-530,321	-140,904	0,172	-0,013
-529,306	800,000	0,037	0,089
-528,291	-200,000	0,025	0,146
-527,277	483,396	-0,088	-0,147
-526,262	-200,000	-0,013	-0,058
-525,248	800,000	0,036	-0,102
-524,233	800,000	-0,048	0,140
-523,218	800,000	0,015	0,040
-522,204	800,000	-0,040	0,085
-521,189	263,558	0,026	-0,034
-520,175	-200,000	0,000	0,133
-519,160	-200,000	-0,012	-0,063
-518,145	-200,000	0,007	-0,035
-517,131	109,814	0,078	-0,069
-516,116	800,000	0,047	0,147
-515,102	-60,716	-0,061	0,019
-514,087	-66,434	0,138	-0,040
-513,072	800,000	0,024	-0,061
-512,058	-200,000	0,005	0,028
-511,043	-108,584	-0,079	-0,012
-510,029	260,392	0,065	-0,083
-509,014	382,566	0,024	-0,037
-507,999	319,977	0,065	-0,090
-506,985	-121,611	-0,128	-0,015
-505,970	551,649	0,037	-0,066
-504,956	107,135	-0,025	-0,022
-503,941	-114,835	0,100	-0,014
-502,926	195,174	0,033	0,037
-501,912	800,000	-0,035	0,084
-500,897	394,348	0,063	-0,097
-499,883	800,000	-0,051	0,107
-498,868	120,460	-0,095	0,086
-497,853	-62,740	-0,036	0,011
-496,839	335,621	0,022	0,031
-495,824	-200,000	-0,002	0,089
-494,810	162,421	0,118	-0,122
-493,795	731,234	0,073	0,144
-492,781	187,810	-0,065	0,071
-491,766	534,682	0,018	-0,031
-490,751	61,832	-0,162	-0,119
-489,737	353,488	0,043	-0,063
-488,722	800,000	0,034	0,089
-487,708	555,146	-0,055	-0,097
-486,693	800,000	0,043	0,090
-485,678	6,685	0,038	-0,020
-484,664	39,200	-0,064	0,042
-483,649	-200,000	0,019	0,085
-482,635	-127,969	-0,151	-0,016
-481,620	-200,000	-0,003	-0,223
-480,605	-114,650	0,066	0,009
-479,591	-32,946	0,100	0,041
-478,576	-200,000	0,015	0,050
-477,562	76,719	-0,093	-0,073
-476,547	-200,000	-0,006	0,040
-475,532	800,000	0,021	0,045
-474,518	800,000	0,069	0,184
-473,503	-200,000	0,008	-0,052
-472,489	572,566	-0,082	0,148
-471,474	-3,730	-0,025	0,013
-470,459	-200,000	-0,001	-0,007
-469,445	50,487	-0,062	-0,043
-468,430	-145,312	-0,058	0,004
-467,416	-200,000	0,004	-0,100
-466,401	500,097	0,026	-0,044
-465,386	-200,000	-0,010	0,122
-464,372	159,895	0,066	-0,067
-463,357	572,728	-0,097	-0,174
-462,343	-152,723	0,111	-0,006
-461,328	-20,111	0,052	-0,024
-460,313	246,742	-0,019	0,024
-459,299	255,423	0,058	-0,073
-458,284	-179,262	-0,048	0,001
-457,270	-8,887	-0,057	0,028
-456,255	146,422	-0,069	0,068
-455,241	178,759	-0,069	0,074
-454,226	-5,333	0,018	-0,009
-453,211	-200,000	0,013	-0,071
-452,197	-99,704	0,184	0,034
-451,182	-200,000	0,034	0,138
-450,168	-61,425	0,014	-0,004
-449,153	-200,000	-0,011	-0,074
-448,138	27,758	0,024	0,015
-447,124	83,665	-0,052	0,042
-446,109	800,000	-0,049	0,117
-445,095	-200,000	0,035	0,135
-444,080	-130,001	0,084	0,008
-443,065	-200,000	-0,007	-0,052
-442,051	27,730	-0,079	0,049
-441,036	702,173	-0,025	-0,050
-440,022	-16,025	-0,053	0,025
-439,007	613,607	-0,037	0,068
-437,992	-72,778	0,099	-0,027
-436,978	-156,749	-0,029	0,001
-435,963	-117,385	-0,025	0,003
-434,949	-74,220	0,077	0,020
-433,934	798,078	-0,034	0,069
-432,919	-33,468	0,128	0,052
-431,905	800,000	-0,025	-0,076
-430,890	-200,000	-0,010	0,042
-429,876	85,045	-0,038	0,031
-428,861	-200,000	0,002	-0,118
-427,846	-151,358	-0,109	0,006
-426,832	-200,000	-0,005	-0,060
-425,817	-200,000	-0,028	-0,120
-424,803	425,783	0,012	0,019
-423,788	599,419	-0,024	0,044
-422,773	-200,000	0,013	-0,072
-421,759	386,464	0,039	0,059
-420,744	223,824	0,023	-0,027
-419,730	-85,572	0,095	0,022
-418,715	38,096	-0,037	-0,024
-417,701	-200,000	0,003	0,048
-416,686	328,640	-0,028	0,040
-415,671	253,960	0,115	0,145
-414,657	-106,775	-0,218	-0,035
-413,642	-115,181	0,145	-0,020
-412,628	-155,340	-0,012	0,001
-411,613	29,693	0,013	0,008
-410,598	23,399	-0,074	0,044
-409,584	800,000	0,028	0,091
-408,569	-200,000	-0,031	0,109
-407,555	330,847	0,090	0,128
-406,540	303,138	-0,067	0,091
-405,525	274,812	-0,004	0,005
-404,511	800,000	0,026	0,066
-403,496	429,881	0,043	-0,068
-402,482	-200,000	-0,013	0,146
-401,467	-196,176	0,021	-0,000
-400,452	-12,597	-0,018	0,009
-399,438	-81,155	0,062	-0,015
-398,423	800,000	-0,027	-0,084
-397,409	800,000	-0,042	-0,134
-396,394	-114,569	-0,081	-0,011
-395,379	-36,972	0,207	-0,081
-394,365	800,000	-0,026	0,071
-393,350	-200,000	0,016	0,104
-392,336	777,725	-0,060	0,120
-391,321	645,886	0,028	0,054
-390,306	213,858	-0,128	-0,148
-389,292	-200,000	-0,017	-0,085
-388,277	800,000	0,059	-0,131
-387,263	800,000	0,013	-0,026
-386,248	-200,000	-0,005	0,061
-385,233	352,777	0,044	0,064
-384,219	-30,863	-0,028	0,011
-383,204	-160,226	0,061	0,002
-382,190	118,800	-0,014	-0,013
-381,175	200,294	-0,021	-0,024
-380,160	89,411	0,049	-0,040
-379,146	-200,000	-0,013	0,123
-378,131	44,739	0,158	0,106
-377,117	800,000	-0,029	-0,087
-376,102	-48,476	-0,047	0,016
-375,088	-94,125	-0,081	0,016
-374,073	108,082	0,063	-0,055
-373,058	10,938	0,061	-0,034
-372,044	200,198	0,073	0,082
-371,029	530,028	0,041	0,071
-370,015	-37,603	0,060	0,023
-369,000	-32,670	-0,185	-0,075
-367,985	245,055	0,014	-0,017
-366,971	102,035	-0,103	0,088
-365,956	-141,470	-0,049	-0,004
-364,942	33,716	0,142	0,090
-363,927	-51,834	0,062	0,021
-362,912	89,240	-0,043	0,035
-361,898	-200,000	-0,007	-0,066
-360,883	-60,709	0,023	-0,007
-359,869	800,000	0,034	0,070
-358,854	-76,093	-0,076	-0,019
-357,839	-13,262	0,084	-0,040
-356,825	800,000	-0,050	0,121
-355,810	-137,266	0,109	-0,009
-354,796	-54,884	-0,080	-0,026
-353,781	-200,000	-0,004	-0,022
-352,766	-200,000	0,007	-0,049
-351,752	-144,848	-0,170	-0,011
-350,737	366,534	0,071	0,105
-349,723	800,000	0,080	0,208
-348,708	123,312	0,130	-0,120
-347,693	-99,434	-0,044	-0,008
-346,679	26,968	0,040	0,025
-345,664	-148,791	0,084	0,005
-344,650	97,213	-0,026	0,022
-343,635	800,000	0,024	0,054
-342,620	-141,580	-0,120	0,009
-341,606	-138,365	0,066	-0,005
-340,591	-1,346	-0,004	0,002
-339,577	-200,000	0,009	-0,089
-338,562	800,000	0,054	-0,139
-337,548	60,891	-0,109	-0,079
-336,533	62,615	-0,089	0,065
-335,518	159,971	0,055	0,057
-334,504	31,044	0,113	-0,071
-333,489	174,059	0,049	0,052
-332,475	800,000	-0,038	-0,105
-331,460	184,420	0,070	-0,076
-330,445	-90,853	0,038	0,008
-329,431	800,000	0,048	0,112
-328,416	53,216	-0,024	0,017
-327,402	-168,927	0,069	0,002
-326,387	1,173	-0,072	-0,037
-325,372	800,000	0,006	-0,014
-324,358	-200,000	-0,006	0,019
-323,343	800,000	-0,038	-0,088
-322,329	-112,802	-0,059	-0,009
-321,314	10,891	0,104	0,058
-320,299	800,000	-0,023	0,068
-319,285	98,642	0,062	-0,052
-318,270	182,546	-0,131	-0,141
-317,256	-200,000	0,022	0,087
-316,241	-66,503	-0,140	-0,040
-315,226	-200,000	0,000	0,117
-314,212	-7,803	0,006	-0,003
-313,197	459,406	0,031	-0,051
-312,183	-200,000	-0,012	-0,039
-311,168	-200,000	-0,003	-0,012
-310,153	47,861	0,126	-0,086
-309,139	-132,675	-0,025	0,002
-308,124	468,226	0,064	-0,106
-307,110	79,565	0,030	0,023
-306,095	112,596	0,063	-0,056
-305,080	-200,000	0,012	-0,146
-304,066	-121,987	-0,085	-0,010
-303,051	81,747	-0,134	0,106
-302,037	177,352	0,032	0,034
-301,022	-200,000	0,006	0,066
-300,008	-127,960	-0,221	0,023
-298,993	461,302	0,027	0,044
-297,978	476,740	0,061	0,101
-296,964	82,385	-0,079	0,062
-295,949	-17,964	-0,058	0,026
-294,935	181,567	-0,050	-0,053
-293,920	800,000	-0,013	0,039
-292,905	58,034	0,051	0,036
-291,891	-200,000	-0,002	0,020
-290,876	-154,033	0,111	0,005
-289,862	-121,089	-0,109	0,013
-288,847	-6,472	-0,049	0,024
-287,832	16,523	-0,044	-0,025
-286,818	-200,000	0,001	-0,045
-285,803	-200,000	-0,005	0,103
-284,789	-73,838	0,078	-0,020
-283,774	306,231	-0,102	0,138
-282,759	-103,895	-0,092	0,016
-281,745	93,570	-0,063	0,052
-280,730	661,055	0,036	0,069
-279,716	-200,000	0,001	-0,131
-278,701	-113,385	0,074	0,010
-277,686	40,463	-0,067	0,044
-276,672	-200,000	-0,001	0,036
-275,657	-177,293	-0,043	0,001
-274,643	-55,068	-0,104	-0,034
-273,628	-200,000	0,021	-0,083
-272,613	15,538	-0,190	-0,108
-271,599	-132,814	0,120	0,011
-270,584	174,714	0,056	0,059
-269,570	-70,332	0,019	0,005
-268,555	-200,000	-0,012	0,095
-267,540	98,984	0,087	-0,073
-266,526	-200,000	0,005	-0,039
-265,511	-200,000	-0,022	0,084
-264,497	130,085	0,114	0,106
-263,482	29,271	0,040	0,025
-262,467	-200,000	0,015	0,076
-261,453	800,000	0,090	-0,191
-260,438	-200,000	0,031	-0,114
-259,424	-173,206	0,084	-0,002
-258,409	800,000	0,016	-0,039
-257,395	-200,000	0,024	-0,081
-256,380	198,435	-0,102	0,113
-255,365	800,000	0,100	0,255
-254,351	746,246	-0,049	-0,096
-253,336	-40,966	0,013	-0,005
-252,322	800,000	-0,013	0,028
-251,307	-200,000	-0,015	-0,107
-250,292	-148,571	-0,033	0,002
-249,278	-200,000	-0,034	0,126
-248,263	-200,000	-0,006	0,079
-247,249	-200,000	0,032	0,110
-246,234	233,422	-0,103	-0,124
-245,219	102,744	0,048	-0,041
-244,205	5,030	-0,148	0,079
-243,190	12,069	0,139	-0,078
-242,176	-1,515	0,073	0,037
-241,161	42,746	-0,088	0,058
-240,146	-80,635	0,114	-0,027
-239,132	800,000	0,048	-0,106
-238,117	604,403	-0,015	-0,027
-237,103	32,612	0,161	-0,101
-236,088	-16,830	-0,095	-0,043
-235,073	800,000	0,038	0,113
-234,059	-72,775	0,021	-0,005
-233,044	12,613	0,010	-0,006
-232,030	-200,000	0,011	-0,101
-231,015	325,944	0,013	-0,018
-230,000	637,948	-0,042	-0,078
-228,986	-200,000	-0,016	-0,085
-227,971	-7,226	0,042	-0,021
-226,957	421,598	0,036	0,056
-225,942	-132,106	0,103	0,010
-224,927	244,478	0,024	-0,029
-223,913	-200,000	0,011	-0,076
-222,898	388,131	0,054	-0,082
-221,884	472,538	-0,047	0,077
-220,869	-22,592	0,094	0,041
-219,855	70,944	0,114	0,086
-218,840	43,197	0,040	0,026
-217,825	-99,018	-0,081	0,015
-216,811	-148,650	-0,126	0,007
-215,796	78,675	-0,096	-0,075
-214,782	-200,000	-0,009	-0,095
-213,767	-74,550	0,078	-0,020
-212,752	207,665	0,052	0,059
-211,738	-200,000	0,014	0,048
-210,723	-18,478	0,040	-0,018
-209,709	16,026	-0,143	-0,082
-208,694	-200,000	0,005	0,035
-207,679	72,042	-0,041	-0,031
-206,665	-171,190	-0,027	0,001
-205,650	-200,000	-0,018	0,157
-204,636	-200,000	0,032	0,112
-203,621	-45,777	-0,030	0,011
-202,606	389,552	-0,037	0,057
-201,592	-75,153	-0,104	-0,027
-200,577	278,616	-0,018	0,023
-199,563	800,000	-0,013	0,039
-198,548	624,713	-0,039	-0,072
-197,533	-125,183	0,037	-0,004
-196,519	-4,598	0,024	0,012
-195,504	800,000	0,025	0,065
-194,490	-168,686	-0,116	0,003
-193,475	80,713	-0,038	-0,030
-192,460	96,900	-0,092	-0,077
-191,446	439,928	-0,062	0,099
-190,431	-200,000	0,047	0,187
-189,417	-26,863	-0,056	-0,024
-188,402	-200,000	-0,016	0,168
-187,387	-133,780	-0,042	-0,004
-186,373	-90,608	-0,055	-0,012
-185,358	104,917	0,064	0,055
-184,344	-137,236	0,144	-0,012
-183,329	48,475	0,116	-0,079
-182,315	800,000	-0,013	-0,035
-181,300	650,030	-0,055	0,103
-180,285	516,405	0,025	0,042
-179,271	-200,000	-0,001	-0,099
-178,256	-138,877	0,096	0,007
-177,242	800,000	-0,020	0,049
-176,227	-118,930	0,095	0,012
-175,212	800,000	0,055	0,123
-174,198	800,000	-0,042	0,089
-173,183	800,000	-0,024	-0,070
-172,169	-188,558	0,073	-0,001
-171,154	158,404	0,129	-0,130
-170,139	-47,812	-0,060	0,021
-169,125	109,733	0,094	0,082
-168,110	-200,000	-0,010	0,176
-167,096	45,141	-0,045	0,030
-166,081	-75,730	0,084	0,021
-165,066	0,377	-0,131	-0,068
-164,052	-200,000	-0,024	-0,231
-163,037	-158,499	0,110	-0,005
-162,023	327,760	-0,024	0,033
-161,008	-200,000	0,004	-0,058
-159,993	161,841	-0,048	0,048
-158,979	-50,293	-0,020	-0,007
-157,964	285,010	-0,030	-0,040
-156,950	50,469	0,086	-0,059
-155,935	-168,676	0,040	0,001
-154,920	-88,558	-0,071	-0,015
-153,906	-10,942	0,104	0,050
-152,891	-12,533	0,070	-0,033
-151,877	-200,000	0,001	0,015
-150,862	-200,000	0,014	0,094
-149,847	128,010	0,013	-0,012
-148,833	-200,000	0,002	-0,015
-147,818	-31,206	0,046	0,019
-146,804	421,498	-0,032	-0,051
-145,789	0,498	0,171	0,088
-144,775	38,318	-0,114	0,074
-143,760	800,000	-0,046	-0,135
-142,745	47,484	-0,139	-0,094
-141,731	-200,000	-0,003	-0,063
-140,716	55,684	0,024	-0,017
-139,702	560,766	0,046	0,082
-138,687	93,593	-0,062	0,051
-137,672	800,000	-0,019	-0,054
-136,658	376,958	-0,153	-0,228
-135,643	614,476	0,009	-0,017
-134,629	-166,855	-0,156	0,005
-133,614	-41,883	0,074	-0,027
-132,599	152,053	-0,066	0,066
-131,585	-101,130	-0,146	0,026
-130,570	-108,541	0,111	0,017
-129,556	-135,999	-0,094	-0,008
-128,541	-53,370	-0,095	-0,032
-127,526	117,787	0,148	0,132
-126,512	800,000	0,011	-0,034
-125,497	60,920	0,052	0,037
-124,483	424,557	-0,059	0,092
-123,468	800,000	-0,031	0,095
-122,453	-101,889	-0,109	-0,019
-121,439	22,802	-0,058	0,034
-120,424	561,766	-0,039	-0,068
-119,410	-200,000	-0,018	-0,077
-118,395	-200,000	-0,003	0,020
-117,380	190,487	0,021	-0,023
-116,366	-121,460	0,099	0,012
-115,351	4,840	-0,070	-0,037
-114,337	-36,734	0,012	0,005
-113,322	50,767	0,081	0,056
-112,307	213,147	0,080	0,092
-111,293	800,000	-0,037	0,107
-110,278	800,000	0,013	0,030
-109,264	-15,430	0,070	0,032
-108,249	-200,000	0,007	0,030
-107,234	187,277	-0,059	-0,064
-106,220	800,000	-0,038	-0,087
-105,205	800,000	0,022	0,067
-104,191	96,618	-0,132	0,110
-103,176	-200,000	-0,006	-0,049
-102,162	269,721	0,050	0,064
-101,147	-200,000	0,051	-0,204
-100,132	800,000	0,064	-0,154
-99,118	90,118	-0,065	-0,053
-98,103	430,596	0,047	-0,073
-97,089	485,086	0,087	0,144
-96,074	800,000	0,025	0,074
-95,059	451,647	0,009	-0,015
-94,045	387,132	0,042	0,063
-93,030	-200,000	-0,010	0,098
-92,016	209,566	0,053	0,060
-91,001	800,000	-0,011	0,024
-89,986	-9,062	-0,055	-0,027
-88,972	106,992	-0,058	0,050
-87,957	-118,421	0,074	-0,009
-86,943	800,000	-0,024	-0,048
-85,928	270,416	0,056	-0,071
-84,913	-35,617	-0,084	0,033
-83,899	8,504	-0,180	-0,098
-82,884	98,086	0,088	0,073
-81,870	252,364	0,117	0,145
-80,855	14,733	0,020	0,011
-79,840	-53,174	-0,007	-0,002
-78,826	-200,000	-0,012	-0,050
-77,811	142,866	0,009	-0,009
-76,797	-155,732	-0,007	0,000
-75,782	31,643	0,074	0,046
-74,767	379,050	-0,055	0,081
-73,753	-200,000	0,005	0,041
-72,738	800,000	-0,091	0,230
-71,724	-200,000	0,009	0,069
-70,709	-200,000	-0,011	-0,059
-69,694	-4,547	-0,024	0,012
-68,680	236,211	0,127	0,153
-67,665	-200,000	0,022	0,089
-66,651	-97,758	0,068	0,013
-65,636	144,512	-0,109	-0,105
-64,622	-58,599	-0,032	0,010
-63,607	-44,228	-0,123	0,044
-62,592	145,851	-0,041	-0,040
-61,578	-200,000	-0,024	0,085
-60,563	800,000	0,026	0,074
-59,549	540,668	0,044	-0,077
-58,534	-56,733	-1,523	-0,485
-57,519	800,000	-0,589	-1,273
-56,505	-200,000	-1,009	-4,550
-55,490	-87,741	0,533	-0,115
-54,476	800,000	5,131	11,872
-53,461	-200,000	14,830	262,167
-52,446	-200,000	697,090	2238,159
-51,432	566,071	1621,568	2856,790
-50,417	118,914	1628,857	1456,056
-49,403	76,338	1283,053	982,108
-48,388	37,427	1022,178	654,193
-47,373	22,937	981,764	580,775
-46,359	22,041	970,892	571,387
-45,344	20,892	966,652	565,124
-44,330	20,844	965,364	564,192
-43,315	20,683	963,942	562,815
-42,300	20,627	962,871	561,987
-41,286	20,687	961,864	561,570
-40,271	20,677	960,781	560,881
-39,257	20,587	960,011	560,120
-38,242	20,582	959,334	559,686
-37,227	20,586	958,198	559,014
-36,213	20,613	957,286	558,546
-35,198	20,545	956,426	557,802
-34,184	20,643	955,823	557,747
-33,169	20,586	954,799	556,943
-32,154	20,648	953,812	556,545
-31,140	20,675	953,046	556,161
-30,125	20,654	952,203	555,581
-29,111	20,594	951,615	555,023
-28,096	20,615	950,961	554,686
-27,082	20,620	950,066	554,159
-26,067	20,624	949,233	553,664
-25,052	20,616	948,602	553,249
-24,038	20,582	947,924	552,721
-23,023	20,603	947,208	552,350
-22,009	20,626	946,539	552,010
-20,994	20,653	945,896	551,701
-19,979	20,634	945,430	551,346
-18,965	20,624	944,954	551,015
-17,950	20,645	944,274	550,663
-16,936	20,589	943,509	550,017
-15,921	20,534	942,943	549,491
-14,906	20,508	942,173	548,937
-13,892	20,524	941,546	548,600
-12,877	20,553	940,858	548,271
-11,863	20,481	940,275	547,682
-10,848	20,464	939,819	547,339
-9,833	20,593	939,265	547,404
-8,819	20,575	938,614	546,946
-7,804	20,534	937,926	546,392
-6,790	20,499	937,480	546,001
-5,775	20,506	936,812	545,611
-4,760	20,559	936,236	545,423
-3,746	20,540	935,569	544,951
-2,731	20,357	934,937	543,986
-1,717	20,388	934,147	543,601
-0,702	20,384	933,538	543,214
0,313	20,168	932,880	542,971
1,327	23,181	931,212	551,413
2,342	32,318	793,341	494,004
3,356	29,555	451,282	276,824
4,371	-0,387	296,423	151,708
5,386	-4,428	277,494	138,153
6,400	-5,713	271,869	134,138
7,415	-6,182	269,645	132,593
8,429	-5,812	268,237	132,231
9,444	-6,162	267,448	131,508
10,459	-5,973	266,813	131,357
11,473	-6,011	265,991	130,906
12,488	-5,989	265,765	130,803
13,502	-6,498	265,242	130,069
14,517	-6,241	264,618	129,986
15,531	-6,303	264,256	129,740
16,546	-6,415	264,142	129,571
17,561	-6,276	263,496	129,369
18,575	-6,016	263,091	129,394
19,590	-6,163	262,934	129,171
20,604	-6,153	262,550	128,981
21,619	-6,405	262,273	128,606
22,634	-6,409	261,907	128,412
23,648	-6,474	261,598	128,190
24,663	-6,431	261,435	128,138
25,677	-6,238	261,154	128,161
26,692	-6,422	260,924	127,872
27,707	-6,246	260,570	127,845
28,721	-6,524	260,524	127,561
29,736	-6,434	260,131	127,439
30,750	-6,511	259,873	127,232
31,765	-6,365	259,455	127,146
32,780	-6,477	259,390	127,003
33,794	-6,361	259,046	126,927
34,809	-6,287	258,851	126,885
35,823	-6,209	258,621	126,831
36,838	-6,514	258,412	126,446
37,853	-6,580	258,170	126,258
38,867	-6,404	257,957	126,298
39,882	-6,419	257,686	126,141
40,896	-6,489	257,405	125,931
41,911	-6,636	257,385	125,779
42,926	-6,578	257,069	125,665
43,940	-6,568	256,765	125,514
44,955	-6,545	256,586	125,436
45,969	-6,624	256,316	125,223
46,984	-6,732	256,009	124,967
47,999	-7,044	255,769	124,564
49,013	-7,007	255,349	124,382
50,028	-7,235	255,169	124,083
51,042	-7,063	254,921	124,102
52,057	-7,336	254,886	123,835
53,071	-7,481	254,654	123,584
54,086	-7,120	254,374	123,752
55,101	-7,086	254,243	123,708
56,115	-6,804	254,227	123,935
57,130	-6,438	254,117	124,189
58,144	-6,264	254,037	124,290
59,159	-6,300	253,722	124,093
60,174	-6,337	253,537	123,960
61,188	-6,334	253,297	123,835
62,203	-6,411	253,090	123,655
63,217	-6,396	252,832	123,531
64,232	-6,236	252,530	123,511
65,247	-6,295	252,501	123,434
66,261	-6,382	252,153	123,178
67,276	-6,630	251,971	122,864
68,290	-6,781	251,700	122,592
69,305	-6,967	251,508	122,326
70,320	-6,809	251,284	122,343
71,334	-6,607	251,103	122,418
72,349	-6,184	251,031	122,735
73,363	-6,139	250,858	122,679
74,378	-6,338	250,664	122,402
75,393	-6,313	250,407	122,287
76,407	-6,419	250,229	122,098
77,422	-6,430	249,940	121,937
78,436	-6,186	249,742	122,038
79,451	-6,260	249,608	121,898
80,466	-6,400	249,324	121,629
81,480	-6,490	249,000	121,383
82,495	-6,579	248,688	121,145
83,509	-6,448	248,745	121,274
84,524	-6,740	248,531	120,910
85,539	-6,664	248,097	120,753
86,553	-6,512	247,975	120,811
87,568	-6,669	247,934	120,647
88,582	-6,591	247,625	120,552
89,597	-6,739	247,470	120,341
90,611	-6,918	247,523	120,205
91,626	-6,407	247,375	120,554
92,641	-6,282	247,105	120,518
93,655	-6,443	246,806	120,225
94,670	-6,447	246,537	120,080
95,684	-6,487	246,461	119,998
96,699	-6,487	246,274	119,896
97,714	-6,538	245,948	119,684
98,728	-6,559	245,756	119,563
99,743	-6,790	245,559	119,263
100,757	-6,845	245,311	119,085
101,772	-6,629	245,196	119,200
102,787	-6,639	244,999	119,084
103,801	-6,477	244,852	119,138
104,816	-6,334	244,761	119,203
105,830	-6,551	244,701	118,982
106,845	-6,273	244,381	119,047
107,860	-6,413	244,282	118,872
108,874	-6,470	244,147	118,748
109,889	-6,607	243,865	118,487
110,903	-6,646	243,726	118,376
111,918	-6,642	243,525	118,271
112,933	-6,452	243,346	118,331
113,947	-6,595	243,270	118,165
114,962	-6,498	243,054	118,130
115,976	-6,431	242,801	118,052
116,991	-6,384	242,569	117,967
118,006	-6,303	242,470	117,976
119,020	-6,415	242,470	117,873
120,035	-6,416	242,220	117,740
121,049	-6,313	242,132	117,772
122,064	-6,166	241,724	117,684
123,079	-6,319	241,735	117,553
124,093	-6,449	241,479	117,311
125,108	-6,614	241,218	117,038
126,122	-6,684	240,949	116,839
127,137	-6,909	240,743	116,545
128,151	-6,855	240,655	116,536
129,166	-6,778	240,287	116,410
130,181	-6,610	240,311	116,549
131,195	-6,634	240,021	116,378
132,210	-6,729	240,069	116,313
133,224	-6,535	239,835	116,349
134,239	-6,522	239,734	116,299
135,254	-6,404	239,509	116,276
136,268	-6,684	239,076	115,828
137,283	-6,722	238,945	115,723
138,297	-6,831	238,816	115,561
139,312	-6,975	238,599	115,329
140,327	-6,597	238,599	115,626
141,341	-6,129	238,528	115,961
142,356	-6,135	238,469	115,917
143,370	-6,007	238,211	115,885
144,385	-6,069	238,039	115,741
145,400	-6,072	237,752	115,589
146,414	-6,064	237,569	115,496
147,429	-6,224	237,589	115,366
148,443	-6,022	237,363	115,410
149,458	-6,148	237,200	115,218
150,473	-6,126	237,015	115,135
151,487	-6,336	236,916	114,908
152,502	-6,275	236,829	114,905
153,516	-6,047	236,480	114,908
154,531	-6,029	236,278	114,814
155,546	-6,273	236,117	114,530
156,560	-6,323	236,010	114,428
157,575	-6,383	235,717	114,228
158,589	-6,360	235,591	114,175
159,604	-6,230	235,612	114,279
160,619	-6,050	235,296	114,259
161,633	-5,989	235,205	114,253
162,648	-6,185	235,089	114,030
163,662	-6,175	234,829	113,902
164,677	-6,387	234,686	113,654
165,692	-6,335	234,600	113,643
166,706	-6,216	234,443	113,652
167,721	-5,884	234,276	113,825
168,735	-5,852	234,160	113,784
169,750	-6,011	234,010	113,575
170,764	-6,012	233,801	113,462
171,779	-6,106	233,781	113,368
172,794	-5,964	233,393	113,282
173,808	-6,334	233,382	112,973
174,823	-6,564	232,972	112,583
175,837	-6,870	232,815	112,255
176,852	-6,390	232,822	112,628
177,867	-6,194	232,804	112,764
178,881	-5,965	232,446	112,762
179,896	-6,028	232,329	112,645
180,910	-6,126	232,259	112,524
181,925	-5,983	232,123	112,561
182,940	-6,067	231,914	112,383
183,954	-6,005	231,843	112,387
184,969	-5,980	231,741	112,347
185,983	-5,888	231,528	112,306
186,998	-6,044	231,373	112,099
188,013	-6,029	231,236	112,034
189,027	-5,741	231,033	112,151
190,042	-5,863	230,881	111,972
191,056	-5,927	230,809	111,877
192,071	-5,989	230,512	111,675
193,086	-5,927	230,326	111,623
194,100	-5,744	230,238	111,713
195,115	-5,804	229,989	111,535
196,129	-6,225	229,941	111,174
197,144	-3,184	230,827	113,968
198,159	1,228	232,013	118,000
199,173	3,424	232,721	120,072
200,188	3,996	232,631	120,463
201,202	3,869	232,461	120,265
202,217	3,837	232,440	120,219
203,232	4,157	232,276	120,373
204,246	4,290	232,017	120,332
205,261	4,487	231,885	120,407
206,275	4,606	231,858	120,474
207,290	4,601	231,727	120,391
208,304	4,471	231,643	120,236
209,319	4,498	231,328	120,083
210,334	4,152	231,260	119,768
211,348	4,268	230,982	119,703
212,363	3,864	230,688	119,227
213,377	3,585	230,479	118,892
214,392	3,491	230,390	118,762
215,407	3,681	230,199	118,801
216,421	3,783	230,053	118,793
217,436	3,651	229,785	118,542
218,450	3,465	229,609	118,298
219,465	3,339	229,360	118,062
220,480	3,462	229,372	118,152
221,494	3,281	229,334	117,982
222,509	3,590	229,108	118,094
223,523	3,658	228,897	118,026
224,538	3,389	228,768	117,743
225,553	3,665	228,600	117,858
226,567	3,721	228,461	117,818
227,582	3,897	228,517	117,972
228,596	4,118	228,304	118,020
229,611	3,629	228,092	117,527
230,626	3,436	227,777	117,206
231,640	3,541	227,908	117,343
232,655	3,784	227,747	117,436
233,669	4,197	227,647	117,689
234,684	4,426	227,478	117,766
235,699	4,061	227,346	117,409
236,713	3,812	227,125	117,094
237,728	3,648	226,816	116,800
238,742	3,581	226,617	116,636
239,757	3,585	226,581	116,611
240,772	3,401	226,422	116,378
241,786	3,707	226,118	116,444
242,801	3,635	226,318	116,482
243,815	3,974	226,119	116,626
244,830	3,841	226,057	116,483
245,844	3,795	225,776	116,293
246,859	3,823	225,588	116,207
247,874	3,696	225,601	116,107
248,888	3,740	225,448	116,051
249,903	3,823	225,055	115,901
250,917	3,596	224,932	115,656
251,932	3,384	224,902	115,471
252,947	3,484	224,543	115,351
253,961	3,482	224,499	115,317
254,976	3,636	224,346	115,344
255,990	3,887	224,312	115,504
257,005	3,983	224,161	115,489
258,020	3,812	224,123	115,330
259,034	4,122	223,958	115,468
260,049	3,726	223,822	115,090
261,063	4,092	223,591	115,236
262,078	3,822	223,537	114,996
263,093	3,961	223,499	115,070
264,107	3,772	223,158	114,743
265,122	3,917	223,133	114,827
266,136	4,234	222,833	114,899
267,151	4,008	222,807	114,707
268,166	3,789	222,454	114,353
269,180	3,481	222,204	113,985
270,195	3,530	222,118	113,967
271,209	3,555	222,008	113,919
272,224	3,660	221,912	113,937
273,239	3,718	221,709	113,866
274,253	3,341	221,687	113,565
275,268	3,446	221,434	113,503
276,282	3,360	221,348	113,385
277,297	3,393	221,142	113,294
278,312	3,352	221,089	113,226
279,326	3,654	221,007	113,397
280,341	3,671	220,779	113,283
281,355	3,564	220,676	113,141
282,370	3,838	220,373	113,178
283,384	3,319	220,333	112,764
284,399	3,322	220,187	112,682
285,414	3,243	220,033	112,535
286,428	3,690	220,004	112,839
287,443	3,857	219,766	112,830
288,457	3,752	219,757	112,737
289,472	3,542	219,568	112,476
290,487	3,235	219,284	112,096
291,501	3,128	219,134	111,931
292,516	3,415	219,002	112,064
293,530	3,395	218,924	111,999
294,545	3,134	218,845	111,758
295,560	3,432	218,568	111,824
296,574	3,726	218,383	111,934
297,589	3,686	218,342	111,873
298,603	3,890	218,202	111,940
299,618	3,450	218,128	111,572
300,633	3,714	218,011	111,695
301,647	3,964	217,904	111,811
302,662	3,927	217,710	111,675
303,676	3,588	217,713	111,420
304,691	3,794	217,485	111,443
305,706	3,605	217,325	111,215
306,720	3,652	217,153	111,150
307,735	3,956	216,933	111,247
308,749	3,761	216,801	111,029
309,764	3,894	216,826	111,128
310,779	3,941	216,654	111,064
311,793	3,622	216,579	110,786
312,808	3,842	216,421	110,853
313,822	3,611	216,202	110,565
314,837	3,651	216,098	110,531
315,852	3,476	215,886	110,286
316,866	3,840	215,755	110,471
317,881	3,827	215,756	110,453
318,895	4,068	215,382	110,424
319,910	3,651	215,278	110,062
320,925	3,460	215,133	109,841
321,939	3,064	214,977	109,469
322,954	3,261	214,833	109,526
323,968	3,634	214,901	109,818
324,983	3,712	214,758	109,791
325,997	3,766	214,547	109,712
327,012	3,691	214,435	109,592
328,027	3,653	214,295	109,483
329,041	4,050	214,487	109,854
330,056	4,259	214,151	109,821
331,070	3,622	213,930	109,245
332,085	3,303	213,763	108,923
333,100	3,433	213,514	108,878
334,114	3,771	213,360	109,031
335,129	3,819	213,396	109,073
336,143	3,622	213,119	108,782
337,158	3,618	212,973	108,695
338,173	3,732	212,852	108,704
339,187	3,468	212,705	108,433
340,202	3,296	212,520	108,207
341,216	3,283	212,448	108,152
342,231	3,502	212,281	108,212
343,246	3,445	212,053	108,046
344,260	3,297	212,104	107,958
345,275	3,512	211,960	108,026
346,289	3,780	211,801	108,125
347,304	3,761	211,772	108,086
348,319	3,592	211,532	107,836
349,333	3,454	211,565	107,746
350,348	3,545	211,420	107,727
351,362	3,859	211,261	107,856
352,377	3,793	211,106	107,720
353,392	3,724	210,866	107,541
354,406	3,661	210,726	107,415
355,421	194,405	1343,990	1429,610
356,435	155,208	1482,133	1429,686
