DTS Sentinel unit serial number:	SN410029Multiplexer serial number:	ORYXHardware model number:	OX2-SRSoftware version number:	ORYX F/W v4,00 Oryx Data Collector v3.7.2.0data status	okinstallation	B6 Nyhavnadifferential loss correction	single-endedforward channel	channel 2reverse channel	N/Adate	2023/12/09time	18:10:08forward acquisition time	300,00reverse acquisition time	0,00gamma	499,1914k internal	0,3130k external	0,3130temperature offset calibration	1,0000default loss term (dB/km)	0,3820temperature slope calibration	1,0000multiplexer offset coefficient	1,0000multiplexer slope coefficient	1,0000fibre end	0,00T internal ref (°C)	21,03T ext. ref 1 (°C)	4,74T ext. ref 2 (°C)	4,75length (m)	temperature (°C)	Stokes	anti-Stokes-744,400	93,906	0,086	-0,072
-743,385	-8,894	-0,150	-0,075
-742,371	57,015	0,216	0,157
-741,356	73,072	-0,220	0,171
-740,342	-142,919	0,216	0,015
-739,327	46,351	-0,192	0,133
-738,312	-187,837	0,100	-0,001
-737,298	-53,664	-0,255	-0,086
-736,283	530,743	0,039	-0,069
-735,269	-120,178	-0,265	0,033
-734,254	-0,612	0,028	-0,015
-733,239	-48,615	-0,344	-0,122
-732,225	17,538	0,179	-0,106
-731,210	-43,849	0,176	0,066
-730,196	-200,000	0,002	-0,014
-729,181	334,013	-0,010	-0,015
-728,167	-49,178	0,167	-0,059
-727,152	-76,401	-0,135	-0,035
-726,137	800,000	0,027	-0,079
-725,123	-121,423	-0,187	-0,023
-724,108	512,737	-0,095	-0,165
-723,094	-200,000	-0,015	-0,118
-722,079	-151,529	0,068	0,004
-721,064	-200,000	-0,016	-0,137
-720,050	387,691	-0,022	-0,034
-719,035	-200,000	0,018	0,194
-718,021	261,755	-0,035	0,045
-717,006	61,117	-0,053	-0,039
-715,991	-103,898	-0,100	-0,017
-714,977	98,749	0,071	-0,061
-713,962	144,962	0,006	-0,006
-712,948	106,929	-0,066	0,058
-711,933	800,000	-0,040	0,103
-710,918	-35,956	-0,133	-0,053
-709,904	-6,430	-0,042	-0,021
-708,889	76,434	0,055	-0,043
-707,875	250,647	-0,084	-0,107
-706,860	15,956	-0,062	-0,036
-705,845	-200,000	0,007	0,176
-704,831	256,656	0,150	0,192
-703,816	-42,895	-0,089	0,033
-702,802	-200,000	-0,008	0,032
-701,787	-200,000	-0,015	-0,101
-700,772	800,000	0,023	-0,060
-699,758	800,000	0,031	-0,098
-698,743	-200,000	-0,025	-0,135
-697,729	800,000	-0,053	0,111
-696,714	266,583	-0,090	-0,117
-695,699	-91,161	-0,057	-0,012
-694,685	-200,000	0,012	-0,115
-693,670	563,731	-0,085	-0,153
-692,656	-200,000	-0,026	-0,103
-691,641	77,702	0,062	0,049
-690,627	-163,731	-0,013	0,000
-689,612	206,294	0,014	-0,016
-688,597	800,000	-0,065	-0,181
-687,583	-200,000	0,007	0,090
-686,568	-177,134	-0,082	-0,001
-685,554	331,614	-0,095	-0,137
-684,539	82,398	0,065	0,052
-683,524	-74,004	-0,085	-0,023
-682,510	121,690	-0,088	-0,082
-681,495	47,143	-0,026	-0,018
-680,481	192,018	-0,083	-0,093
-679,466	-200,000	-0,004	-0,061
-678,451	287,704	0,045	0,061
-677,437	577,957	0,043	-0,079
-676,422	46,211	0,025	-0,017
-675,408	372,363	0,056	-0,085
-674,393	-200,000	0,012	-0,129
-673,378	416,111	-0,052	-0,083
-672,364	-97,146	0,075	-0,014
-671,349	-200,000	-0,019	-0,071
-670,335	481,728	-0,054	0,092
-669,320	-200,000	0,029	-0,097
-668,305	-28,831	0,062	-0,026
-667,291	174,591	-0,102	-0,110
-666,276	800,000	0,036	0,093
-665,262	-56,077	-0,140	0,046
-664,247	36,670	-0,105	0,068
-663,232	109,016	0,079	0,070
-662,218	311,814	-0,061	0,085
-661,203	156,648	0,029	-0,030
-660,189	-108,310	-0,145	0,023
-659,174	-31,448	-0,033	-0,014
-658,159	800,000	0,086	-0,180
-657,145	41,885	-0,069	-0,046
-656,130	-200,000	-0,005	-0,038
-655,116	800,000	-0,042	-0,124
-654,101	354,522	-0,031	-0,046
-653,086	-50,393	-0,089	-0,031
-652,072	800,000	0,013	0,042
-651,057	-144,202	0,074	-0,005
-650,043	800,000	-0,021	-0,069
-649,028	-200,000	-0,005	-0,090
-648,014	800,000	0,037	-0,113
-646,999	-129,034	0,089	0,009
-645,984	-38,099	-0,022	-0,009
-644,970	-200,000	-0,041	-0,194
-643,955	-200,000	-0,060	-0,201
-642,941	-200,000	-0,015	0,064
-641,926	0,274	0,071	0,037
-640,911	-27,093	-0,085	-0,037
-639,897	-200,000	-0,002	-0,020
-638,882	-200,000	0,025	-0,114
-637,868	-93,741	-0,121	0,024
-636,853	459,868	0,036	-0,059
-635,838	-13,283	-0,070	0,034
-634,824	180,874	0,023	0,025
-633,809	-126,512	-0,076	0,008
-632,795	-200,000	-0,006	0,082
-631,780	491,495	0,099	0,168
-630,765	-200,000	-0,032	-0,110
-629,751	-200,000	-0,001	-0,021
-628,736	-112,908	-0,074	-0,011
-627,722	216,115	0,108	-0,127
-626,707	124,041	0,015	0,014
-625,692	69,963	-0,149	-0,114
-624,678	200,413	-0,037	0,042
-623,663	254,807	-0,099	-0,125
-622,649	279,283	-0,055	0,072
-621,634	-200,000	-0,007	-0,095
-620,619	250,815	-0,112	0,142
-619,605	-200,000	-0,018	0,065
-618,590	-200,000	0,005	0,073
-617,576	238,883	0,055	-0,068
-616,561	-200,000	0,022	0,126
-615,546	800,000	-0,024	0,056
-614,532	48,663	0,014	0,010
-613,517	7,286	-0,094	-0,052
-612,503	87,090	0,019	-0,016
-611,488	201,869	0,090	-0,103
-610,474	-200,000	-0,042	0,204
-609,459	548,383	-0,035	0,063
-608,444	-122,745	-0,098	0,012
-607,430	56,168	-0,078	-0,056
-606,415	-112,502	-0,146	0,021
-605,401	-200,000	0,005	-0,068
-604,386	-66,830	0,035	-0,010
-603,371	-200,000	-0,005	0,019
-602,357	193,130	-0,096	-0,108
-601,342	-42,888	-0,098	-0,037
-600,328	800,000	0,070	-0,164
-599,313	120,809	0,069	-0,064
-598,298	226,538	0,075	-0,091
-597,284	-75,745	0,121	-0,031
-596,269	-200,000	0,012	0,100
-595,255	-200,000	-0,005	0,099
-594,240	-200,000	-0,032	0,190
-593,225	-150,327	-0,047	0,003
-592,211	122,095	-0,072	-0,066
-591,196	800,000	-0,006	0,017
-590,182	-88,921	0,101	-0,022
-589,167	-38,519	0,090	0,035
-588,152	126,552	-0,015	0,014
-587,138	-200,000	0,004	-0,042
-586,123	-80,975	-0,104	0,025
-585,109	-24,502	-0,055	-0,024
-584,094	104,578	0,175	-0,153
-583,079	708,660	0,082	0,161
-582,065	-78,848	-0,204	0,051
-581,050	-128,632	-0,043	-0,004
-580,036	526,746	0,030	-0,053
-579,021	235,867	-0,056	0,068
-578,006	298,342	-0,067	-0,091
-576,992	-16,146	-0,116	0,054
-575,977	13,693	0,013	-0,007
-574,963	202,201	0,008	-0,009
-573,948	-200,000	0,010	0,080
-572,934	-54,061	0,040	-0,013
-571,919	-200,000	0,007	-0,063
-570,904	-90,483	0,228	-0,048
-569,890	-169,424	-0,082	0,002
-568,875	800,000	0,054	-0,126
-567,861	-4,124	0,045	0,023
-566,846	145,777	0,081	0,080
-565,831	53,777	-0,029	-0,020
-564,817	800,000	0,015	-0,034
-563,802	32,069	-0,063	-0,040
-562,788	-57,180	-0,054	0,017
-561,773	123,187	0,064	0,059
-560,758	453,094	0,038	0,063
-559,744	-200,000	-0,002	0,038
-558,729	-200,000	0,000	-0,097
-557,715	184,608	0,086	0,094
-556,700	18,167	0,110	-0,065
-555,685	-200,000	-0,021	0,117
-554,671	-200,000	0,009	-0,070
-553,656	93,817	0,084	0,071
-552,642	800,000	0,020	0,047
-551,627	124,664	-0,048	-0,044
-550,612	-75,890	-0,120	-0,031
-549,598	-200,000	-0,026	-0,133
-548,583	800,000	-0,056	-0,154
-547,569	38,367	0,133	-0,088
-546,554	208,544	-0,024	0,028
-545,539	128,781	0,102	-0,096
-544,525	-196,009	-0,080	-0,000
-543,510	237,922	0,026	-0,032
-542,496	35,493	-0,069	-0,044
-541,481	-200,000	-0,000	-0,116
-540,466	123,244	0,055	0,050
-539,452	164,783	-0,066	-0,069
-538,437	92,890	0,056	-0,047
-537,423	182,949	-0,074	0,081
-536,408	800,000	-0,012	0,037
-535,393	-200,000	0,018	-0,150
-534,379	-200,000	0,015	-0,215
-533,364	423,723	0,063	0,100
-532,350	225,900	0,043	0,051
-531,335	-117,807	0,054	-0,007
-530,321	223,516	0,049	-0,058
-529,306	-35,530	0,020	-0,008
-528,291	-29,055	-0,090	-0,038
-527,277	800,000	0,016	-0,053
-526,262	22,958	0,055	0,033
-525,248	-113,529	-0,041	0,006
-524,233	48,229	0,050	-0,034
-523,218	323,099	-0,067	0,094
-522,204	742,580	-0,064	-0,127
-521,189	295,272	-0,064	-0,086
-520,175	-95,160	-0,099	0,020
-519,160	-5,017	-0,124	-0,063
-518,145	205,512	0,065	0,075
-517,131	-103,777	0,117	0,020
-516,116	-100,608	0,109	-0,020
-515,102	-25,959	-0,057	-0,024
-514,087	-200,000	0,012	0,063
-513,072	-200,000	-0,004	-0,022
-512,058	-200,000	0,019	-0,161
-511,043	-200,000	-0,029	-0,120
-510,029	726,567	0,040	0,079
-509,014	236,335	0,051	-0,062
-507,999	800,000	0,031	-0,066
-506,985	168,840	-0,096	-0,101
-505,970	800,000	0,031	-0,072
-504,956	-36,945	-0,109	0,043
-503,941	184,292	0,108	-0,118
-502,926	800,000	-0,020	0,065
-501,912	-40,690	-0,118	-0,045
-500,897	-194,412	0,098	0,001
-499,883	-136,814	0,105	0,009
-498,868	91,994	0,022	0,018
-497,853	340,917	-0,020	-0,028
-496,839	270,112	-0,028	-0,036
-495,824	-108,807	-0,159	-0,025
-494,810	109,626	-0,084	0,075
-493,795	800,000	-0,047	0,124
-492,781	-200,000	-0,017	0,073
-491,766	-200,000	0,023	-0,086
-490,751	-200,000	-0,022	0,076
-489,737	733,687	0,023	0,046
-488,722	-107,096	0,182	-0,029
-487,708	-200,000	0,067	0,229
-486,693	-200,000	0,005	0,078
-485,678	-200,000	-0,014	0,082
-484,664	75,144	-0,044	-0,034
-483,649	-200,000	-0,009	-0,056
-482,635	-122,683	0,036	-0,004
-481,620	350,073	-0,001	-0,002
-480,605	512,322	0,082	-0,141
-479,591	245,147	0,096	0,120
-478,576	588,582	0,022	0,041
-477,562	153,554	-0,006	0,006
-476,547	375,734	-0,044	0,066
-475,532	616,228	-0,032	0,059
-474,518	-138,223	-0,125	0,010
-473,503	-41,048	0,064	0,024
-472,489	45,741	0,020	-0,014
-471,474	-200,000	0,010	-0,236
-470,459	-44,802	-0,114	0,042
-469,445	377,008	-0,028	-0,043
-468,430	6,259	0,134	-0,073
-467,416	113,721	0,138	0,123
-466,401	298,336	0,055	0,074
-465,386	-200,000	0,028	0,112
-464,372	-200,000	-0,007	-0,089
-463,357	800,000	0,022	-0,055
-462,343	-78,825	-0,123	0,031
-461,328	-53,744	-0,098	-0,033
-460,313	113,649	0,091	0,082
-459,299	800,000	0,047	-0,100
-458,284	-52,771	-0,007	0,003
-457,270	-180,029	0,101	0,002
-456,255	48,610	0,025	-0,017
-455,241	250,326	-0,094	-0,118
-454,226	-125,122	-0,044	0,005
-453,211	-110,683	0,117	0,018
-452,197	800,000	-0,020	0,045
-451,182	-200,000	0,024	-0,084
-450,168	442,917	-0,023	0,037
-449,153	631,391	-0,047	0,089
-448,138	-59,720	-0,035	-0,011
-447,124	81,197	-0,032	-0,025
-446,109	175,394	-0,023	0,025
-445,095	324,687	-0,058	0,082
-444,080	-200,000	-0,014	0,098
-443,065	99,340	0,043	0,037
-442,051	800,000	-0,053	-0,127
-441,036	-200,000	0,012	-0,176
-440,022	338,712	-0,051	-0,073
-439,007	-200,000	0,001	0,022
-437,992	-200,000	-0,025	0,148
-436,978	-17,680	-0,055	0,026
-435,963	-20,458	0,101	0,046
-434,949	524,503	0,031	-0,054
-433,934	59,510	-0,196	-0,142
-432,919	347,530	-0,033	0,048
-431,905	406,929	-0,039	-0,060
-430,890	-200,000	0,006	-0,081
-429,876	-50,132	0,063	-0,022
-428,861	800,000	0,042	0,091
-427,846	800,000	0,036	0,102
-426,832	-200,000	0,026	-0,109
-425,817	-200,000	0,025	-0,082
-424,803	411,447	-0,039	-0,060
-423,788	81,245	0,110	-0,087
-422,773	260,900	0,031	-0,039
-421,759	-200,000	0,023	0,131
-420,744	91,762	0,046	0,038
-419,730	-110,674	-0,054	0,008
-418,715	-50,697	-0,097	-0,033
-417,701	161,598	-0,049	-0,050
-416,686	16,598	0,075	0,044
-415,671	313,856	0,064	0,089
-414,657	100,914	0,023	-0,020
-413,642	-132,732	0,069	0,006
-412,628	-85,451	0,013	-0,003
-411,613	371,844	-0,046	-0,068
-410,598	800,000	0,007	0,019
-409,584	-99,120	0,083	-0,015
-408,569	800,000	0,009	0,024
-407,555	8,568	0,042	-0,023
-406,540	-50,860	0,079	0,027
-405,525	-143,243	-0,107	-0,007
-404,511	315,939	-0,076	0,106
-403,496	-200,000	0,007	0,092
-402,482	119,531	-0,094	-0,085
-401,467	-200,000	0,046	0,152
-400,452	11,191	0,101	0,057
-399,438	-200,000	0,012	-0,118
-398,423	57,977	-0,159	0,114
-397,409	-200,000	0,023	-0,122
-396,394	-122,703	-0,094	-0,011
-395,379	800,000	0,013	0,036
-394,365	601,605	0,046	-0,085
-393,350	269,753	0,032	0,041
-392,336	-200,000	-0,006	0,019
-391,321	-80,907	-0,047	0,011
-390,306	800,000	-0,017	-0,041
-389,292	-28,696	-0,114	0,048
-388,277	120,983	-0,078	-0,071
-387,263	-200,000	0,010	-0,035
-386,248	-103,556	0,147	0,025
-385,233	488,585	-0,034	0,057
-384,219	-154,587	-0,076	-0,004
-383,204	-200,000	0,011	-0,058
-382,190	50,371	-0,134	-0,092
-381,175	175,103	0,063	-0,066
-380,160	232,082	0,035	0,042
-379,146	-62,538	0,158	-0,048
-378,131	25,163	0,048	0,029
-377,117	-175,880	0,154	0,003
-376,102	86,594	-0,120	0,097
-375,088	-200,000	0,000	0,057
-374,073	-161,340	-0,072	-0,003
-373,058	-200,000	-0,015	0,097
-372,044	191,745	-0,018	0,020
-371,029	-111,382	-0,039	0,006
-370,015	286,689	0,034	0,046
-369,000	800,000	0,037	-0,111
-367,985	-79,014	0,114	0,028
-366,971	-35,269	-0,123	0,049
-365,956	-200,000	-0,018	0,069
-364,942	93,605	0,099	0,083
-363,927	-94,214	0,173	-0,034
-362,912	599,573	-0,021	-0,037
-361,898	-105,145	-0,209	0,035
-360,883	-200,000	0,025	-0,097
-359,869	430,555	-0,054	0,086
-358,854	9,490	0,206	0,114
-357,839	-30,469	0,105	0,043
-356,825	207,804	0,081	0,093
-355,810	417,795	-0,059	0,093
-354,796	-200,000	-0,005	-0,121
-353,781	179,238	0,046	0,049
-352,766	800,000	0,021	0,067
-351,752	99,169	-0,062	0,053
-350,737	327,601	0,034	-0,047
-349,723	-200,000	0,005	0,098
-348,708	-16,940	-0,154	0,071
-347,693	39,982	0,077	-0,050
-346,679	-196,702	0,120	0,001
-345,664	-200,000	0,004	-0,040
-344,650	-200,000	0,009	-0,065
-343,635	388,996	0,093	0,141
-342,620	-200,000	-0,015	-0,084
-341,606	136,544	-0,039	-0,038
-340,591	-200,000	-0,038	-0,132
-339,577	545,479	0,037	0,065
-338,562	800,000	0,059	0,140
-337,548	-200,000	-0,005	-0,034
-336,533	-88,906	0,012	-0,003
-335,518	19,330	0,040	-0,024
-334,504	800,000	0,037	0,090
-333,489	-131,367	-0,103	0,010
-332,475	301,859	0,046	-0,063
-331,460	-177,087	-0,074	0,001
-330,445	-73,253	-0,021	-0,005
-329,431	-200,000	0,014	0,094
-328,416	800,000	0,040	0,118
-327,402	-200,000	-0,020	-0,109
-326,387	-14,178	-0,026	-0,012
-325,372	800,000	0,009	-0,028
-324,358	64,933	0,062	-0,045
-323,343	-117,713	0,147	-0,019
-322,329	-110,423	0,102	-0,015
-321,314	800,000	-0,042	-0,111
-320,299	62,898	0,105	-0,077
-319,285	800,000	0,013	0,034
-318,270	-185,323	-0,086	-0,001
-317,256	-32,329	-0,030	0,012
-316,241	56,700	-0,082	0,058
-315,226	10,476	-0,083	-0,046
-314,212	-30,966	0,098	-0,040
-313,197	-200,000	0,012	0,128
-312,183	-5,218	-0,078	-0,039
-311,168	177,574	-0,054	0,058
-310,153	-200,000	-0,021	-0,195
-309,139	275,836	0,023	-0,030
-308,124	44,585	0,067	-0,045
-307,110	157,713	0,080	0,081
-306,095	627,734	-0,060	0,111
-305,080	278,383	-0,085	0,110
-304,066	234,177	-0,022	0,026
-303,051	667,498	0,052	0,100
-302,037	290,242	0,042	0,056
-301,022	101,221	0,089	0,076
-300,008	800,000	0,038	0,118
-298,993	-120,131	-0,058	-0,007
-297,978	221,046	-0,054	0,063
-296,964	-200,000	-0,013	0,091
-295,949	605,066	-0,078	-0,143
-294,935	-36,519	0,083	0,033
-293,920	42,402	-0,016	-0,010
-292,905	800,000	-0,032	0,087
-291,891	10,729	-0,119	-0,066
-290,876	-200,000	0,002	0,058
-289,862	228,630	-0,073	0,087
-288,847	-200,000	0,020	-0,136
-287,832	-169,455	0,203	0,005
-286,818	-200,000	0,012	-0,058
-285,803	111,912	0,057	-0,051
-284,789	-200,000	-0,001	0,064
-283,774	-200,000	0,021	-0,088
-282,759	92,053	-0,090	0,074
-281,745	-187,615	0,135	-0,001
-280,730	144,835	-0,132	-0,129
-279,716	-200,000	0,011	-0,137
-278,701	-200,000	0,013	0,090
-277,686	273,425	-0,094	0,121
-276,672	800,000	-0,035	-0,098
-275,657	191,930	0,035	0,038
-274,643	413,401	-0,067	-0,105
-273,628	-149,283	0,017	-0,001
-272,613	19,822	-0,057	0,033
-271,599	160,267	0,004	-0,004
-270,584	482,630	-0,070	0,116
-269,570	800,000	-0,059	0,137
-268,555	159,062	-0,054	-0,055
-267,540	-200,000	-0,039	-0,180
-266,526	0,344	-0,104	-0,054
-265,511	800,000	0,039	-0,093
-264,497	120,870	0,121	-0,110
-263,482	-200,000	-0,032	0,198
-262,467	-200,000	0,014	0,053
-261,453	800,000	0,049	0,138
-260,438	800,000	0,020	0,060
-259,424	110,209	0,037	0,033
-258,409	-200,000	-0,002	0,026
-257,395	302,899	0,083	0,112
-256,380	52,885	0,100	0,070
-255,365	-87,346	-0,090	0,020
-254,351	46,214	-0,128	-0,086
-253,336	-162,785	-0,118	0,004
-252,322	-100,645	0,073	0,013
-251,307	119,652	0,048	-0,043
-250,292	18,344	0,109	-0,063
-249,278	272,440	-0,025	-0,033
-248,263	-103,015	-0,058	0,010
-247,249	800,000	0,018	0,045
-246,234	358,066	0,035	-0,050
-245,219	219,891	-0,098	-0,115
-244,205	800,000	-0,020	-0,055
-243,190	101,925	-0,045	-0,038
-242,176	800,000	0,028	-0,083
-241,161	-200,000	0,017	0,190
-240,146	-200,000	0,005	-0,046
-239,132	134,379	-0,019	0,018
-238,117	-20,510	-0,105	0,047
-237,103	7,744	-0,084	-0,046
-236,088	800,000	0,017	0,053
-235,073	-200,000	-0,009	0,081
-234,059	243,913	0,053	0,065
-233,044	-200,000	-0,029	0,118
-232,030	134,675	-0,069	-0,065
-231,015	-84,629	-0,089	0,020
-230,000	98,303	-0,065	0,055
-228,986	800,000	-0,035	-0,103
-227,971	-106,708	0,106	-0,017
-226,957	36,751	-0,063	-0,040
-225,942	-2,906	0,153	0,078
-224,927	-200,000	0,028	-0,137
-223,913	-75,103	0,033	-0,009
-222,898	-200,000	-0,007	-0,047
-221,884	-85,640	0,172	-0,039
-220,869	203,810	0,043	0,049
-219,855	800,000	0,007	-0,022
-218,840	-18,719	0,098	0,044
-217,825	140,703	-0,041	-0,040
-216,811	724,234	-0,026	-0,051
-215,796	800,000	0,023	-0,058
-214,782	-162,463	0,010	0,000
-213,767	-104,194	-0,130	0,022
-212,752	330,588	0,045	-0,064
-211,738	-45,628	-0,116	-0,042
-210,723	-200,000	-0,003	-0,013
-209,709	-84,427	0,035	0,008
-208,694	110,408	-0,033	0,029
-207,679	295,577	-0,097	-0,130
-206,665	193,181	0,090	0,099
-205,650	702,188	0,054	0,104
-204,636	800,000	0,014	0,046
-203,621	-20,683	-0,051	0,023
-202,606	-81,710	-0,156	-0,037
-201,592	339,266	0,065	-0,093
-200,577	128,138	0,163	-0,151
-199,563	-200,000	0,001	0,026
-198,548	92,968	0,058	0,047
-197,533	20,731	0,101	0,059
-196,519	243,083	0,055	0,068
-195,504	800,000	0,035	0,095
-194,490	99,497	-0,162	0,137
-193,475	-200,000	0,000	-0,072
-192,460	149,129	0,082	0,080
-191,446	7,749	0,134	0,073
-190,431	167,613	-0,057	-0,059
-189,417	-200,000	0,004	0,052
-188,402	-95,003	-0,021	0,004
-187,387	372,893	-0,047	0,069
-186,373	-200,000	0,002	0,010
-185,358	-7,792	-0,075	0,037
-184,344	287,126	0,077	-0,101
-183,329	800,000	-0,035	0,071
-182,315	12,321	0,039	0,022
-181,300	-135,273	0,052	-0,005
-180,285	-107,374	0,019	0,003
-179,271	106,824	0,032	0,028
-178,256	144,228	-0,031	-0,030
-177,242	2,069	-0,061	0,032
-176,227	-145,998	0,034	-0,002
-175,212	-60,354	0,038	-0,012
-174,198	-200,000	-0,003	-0,072
-173,183	303,175	0,070	0,094
-172,169	232,399	0,010	0,012
-171,154	-180,681	-0,117	-0,002
-170,139	26,308	-0,019	0,011
-169,125	786,987	0,057	0,114
-168,110	-200,000	0,010	0,136
-167,096	-200,000	-0,008	0,109
-166,081	15,770	-0,050	0,029
-165,066	-200,000	-0,020	-0,095
-164,052	-41,046	-0,041	0,015
-163,037	-76,987	0,063	-0,016
-162,023	-190,233	0,163	-0,001
-161,008	428,508	-0,064	0,101
-159,993	-174,156	-0,056	-0,001
-158,979	1,088	-0,064	0,033
-157,964	-99,764	-0,156	-0,028
-156,950	502,866	-0,073	-0,123
-155,935	33,160	-0,028	0,018
-154,920	-200,000	0,017	0,080
-153,906	-147,751	0,143	0,009
-152,891	-200,000	-0,002	-0,021
-151,877	-41,609	0,126	0,047
-150,862	-67,666	0,114	-0,032
-149,847	-182,912	0,160	-0,002
-148,833	-200,000	-0,024	0,104
-147,818	800,000	0,018	0,044
-146,804	261,617	0,072	0,091
-145,789	-152,139	0,112	-0,006
-144,775	-137,490	0,015	0,001
-143,760	327,906	-0,039	-0,055
-142,745	-137,439	-0,038	0,003
-141,731	-200,000	-0,001	-0,032
-140,716	-88,311	0,111	-0,024
-139,702	50,819	0,111	-0,076
-138,687	519,021	0,059	0,101
-137,672	-200,000	0,016	-0,067
-136,658	-200,000	0,008	0,027
-135,643	-200,000	-0,014	-0,094
-134,629	81,700	0,065	0,051
-133,614	78,594	-0,013	-0,010
-132,599	-200,000	-0,018	0,150
-131,585	105,672	-0,069	0,059
-130,570	-50,644	0,047	-0,016
-129,556	-200,000	-0,037	0,121
-128,541	35,572	-0,064	-0,040
-127,526	-54,232	0,193	0,063
-126,512	-12,649	0,126	-0,059
-125,497	378,975	0,024	0,035
-124,483	800,000	-0,011	-0,031
-123,468	800,000	0,073	0,170
-122,453	-200,000	0,001	-0,117
-121,439	-200,000	-0,016	-0,139
-120,424	-21,086	-0,038	-0,017
-119,410	175,500	0,085	0,090
-118,395	800,000	0,012	0,027
-117,380	-106,117	0,112	0,018
-116,366	106,312	-0,084	0,072
-115,351	800,000	-0,014	-0,041
-114,337	-141,798	0,153	0,011
-113,322	-118,229	0,048	0,006
-112,307	-200,000	0,021	0,143
-111,293	-200,000	0,000	-0,026
-110,278	-137,519	0,044	-0,004
-109,264	96,167	-0,038	-0,032
-108,249	-92,147	0,082	0,017
-107,234	-161,865	-0,183	0,007
-106,220	482,797	-0,037	-0,061
-105,205	-200,000	-0,030	0,112
-104,191	224,614	0,071	-0,083
-103,176	-116,114	0,035	0,005
-102,162	-200,000	0,021	0,083
-101,147	-53,243	0,100	-0,033
-100,132	800,000	0,064	0,173
-99,118	62,856	0,052	0,038
-98,103	-70,109	0,018	0,005
-97,089	150,910	0,040	0,040
-96,074	-200,000	-0,013	0,062
-95,059	-128,750	-0,033	-0,003
-94,045	-200,000	-0,007	-0,050
-93,030	-6,766	-0,091	-0,045
-92,016	-200,000	-0,016	-0,057
-91,001	29,601	-0,092	-0,057
-89,986	215,956	-0,012	0,014
-88,972	-200,000	0,011	0,057
-87,957	-30,834	0,030	-0,012
-86,943	-37,285	0,029	-0,011
-85,928	-14,037	-0,122	-0,057
-84,913	123,214	-0,034	-0,031
-83,899	6,290	0,078	-0,042
-82,884	-111,045	0,072	-0,011
-81,870	362,288	-0,062	0,090
-80,855	33,062	-0,095	0,060
-79,840	227,094	0,014	-0,016
-78,826	-200,000	0,008	-0,093
-77,811	800,000	-0,033	0,078
-76,797	53,691	-0,052	-0,036
-75,782	302,312	0,018	-0,024
-74,767	-62,188	0,093	0,028
-73,753	-78,681	0,081	0,020
-72,738	72,445	0,051	-0,038
-71,724	-200,000	-0,007	0,025
-70,709	-147,410	0,068	0,004
-69,694	800,000	0,010	0,024
-68,680	30,678	0,074	0,046
-67,665	-39,528	0,018	0,007
-66,651	-104,778	-0,107	-0,018
-65,636	483,934	0,086	-0,142
-64,622	-138,052	0,094	0,007
-63,607	257,145	0,057	0,071
-62,592	-38,069	-0,017	-0,007
-61,578	-67,624	0,085	-0,024
-60,563	116,048	-0,023	-0,020
-59,549	396,893	-0,085	0,128
-58,534	-101,259	-1,484	-0,260
-57,519	800,000	-0,627	-1,352
-56,505	-200,000	-0,913	-4,576
-55,490	-71,392	0,628	-0,169
-54,476	800,000	5,004	11,847
-53,461	-200,000	14,546	259,633
-52,446	-200,000	696,150	2236,023
-51,432	565,571	1622,491	2860,167
-50,417	117,729	1630,217	1453,063
-49,403	74,697	1284,259	977,373
-48,388	37,489	1022,528	655,260
-47,373	23,295	981,686	582,474
-46,359	22,455	970,906	573,304
-45,344	21,289	966,755	567,029
-44,330	21,308	965,246	566,180
-43,315	21,108	963,791	564,654
-42,300	21,078	962,845	563,981
-41,286	21,116	961,809	563,474
-40,271	21,028	960,803	562,577
-39,257	21,049	959,959	562,129
-38,242	21,067	958,791	561,481
-37,227	21,023	958,266	561,009
-36,213	21,035	957,182	560,391
-35,198	21,025	956,213	559,770
-34,184	21,109	955,495	559,597
-33,169	21,010	954,768	558,831
-32,154	21,098	954,048	558,670
-31,140	21,142	952,854	558,090
-30,125	21,042	952,395	557,477
-29,111	21,003	951,493	556,802
-28,096	21,117	950,751	556,713
-27,082	21,030	950,248	556,116
-26,067	21,107	949,236	555,749
-25,052	21,067	948,500	555,167
-24,038	21,103	947,863	554,887
-23,023	21,033	947,267	554,292
-22,009	21,019	946,855	553,984
-20,994	21,105	946,009	553,743
-19,979	21,102	945,325	553,310
-18,965	21,033	944,832	552,780
-17,950	21,055	944,203	552,461
-16,936	21,035	943,476	551,948
-15,921	21,042	942,603	551,439
-14,906	20,962	941,901	550,752
-13,892	20,992	941,394	550,530
-12,877	20,970	940,827	550,105
-11,863	20,940	940,102	549,565
-10,848	20,925	939,774	549,303
-9,833	21,063	939,219	549,396
-8,819	21,030	938,694	548,962
-7,804	20,994	937,921	548,374
-6,790	20,992	937,350	548,013
-5,775	21,011	936,682	547,660
-4,760	20,933	936,309	547,174
-3,746	20,932	935,538	546,699
-2,731	20,786	934,932	545,861
-1,717	20,808	934,152	545,453
-0,702	20,782	933,460	544,946
0,313	20,592	932,848	544,814
1,327	23,657	930,940	553,275
2,342	32,940	794,148	496,632
3,356	30,426	450,680	278,034
4,371	0,072	294,409	151,288
5,386	-4,263	275,424	137,412
6,400	-5,452	269,705	133,441
7,415	-5,900	267,396	131,874
8,429	-5,746	266,355	131,490
9,444	-5,671	265,318	131,035
10,459	-5,688	264,705	130,705
11,473	-5,722	264,126	130,377
12,488	-5,966	263,727	129,947
13,502	-5,867	263,108	129,720
14,517	-5,981	262,664	129,387
15,531	-5,723	262,344	129,451
16,546	-5,636	261,880	129,288
17,561	-5,771	261,488	128,962
18,575	-5,651	261,217	128,925
19,590	-5,850	261,034	128,644
20,604	-5,588	260,585	128,645
21,619	-5,683	260,315	128,416
22,634	-5,598	260,000	128,325
23,648	-5,901	259,674	127,882
24,663	-5,701	259,429	127,929
25,677	-5,843	259,197	127,676
26,692	-5,856	258,850	127,482
27,707	-5,731	258,555	127,437
28,721	-5,800	258,333	127,255
29,736	-5,970	258,049	126,953
30,750	-5,801	257,853	126,995
31,765	-5,971	257,732	126,773
32,780	-5,767	257,428	126,793
33,794	-5,772	257,157	126,644
34,809	-5,789	256,995	126,537
35,823	-6,007	256,755	126,216
36,838	-5,859	256,460	126,190
37,853	-5,987	256,387	126,031
38,867	-5,863	255,981	125,929
39,882	-5,840	255,630	125,765
40,896	-5,937	255,552	125,629
41,911	-5,993	255,345	125,468
42,926	-5,933	255,125	125,401
43,940	-5,929	254,763	125,215
44,955	-6,084	254,658	125,017
45,969	-5,834	254,265	125,031
46,984	-6,055	254,032	124,713
47,999	-6,291	253,880	124,421
49,013	-6,354	253,547	124,192
50,028	-6,636	253,495	123,910
51,042	-6,514	253,091	123,807
52,057	-6,599	252,918	123,637
53,071	-6,587	252,660	123,512
54,086	-6,563	252,535	123,460
55,101	-6,411	252,429	123,529
56,115	-6,167	252,188	123,611
57,130	-5,928	252,123	123,775
58,144	-5,623	252,010	123,972
59,159	-5,623	251,618	123,768
60,174	-5,652	251,518	123,684
61,188	-5,720	251,262	123,488
62,203	-5,792	251,066	123,318
63,217	-5,814	250,787	123,151
64,232	-5,579	250,621	123,261
65,247	-5,712	250,465	123,059
66,261	-5,855	250,336	122,862
67,276	-5,856	249,949	122,660
68,290	-6,121	249,768	122,333
69,305	-6,247	249,553	122,109
70,320	-6,300	249,419	121,987
71,334	-6,204	249,330	122,015
72,349	-5,737	249,120	122,300
73,363	-5,759	248,970	122,197
74,378	-5,599	248,687	122,184
75,393	-5,510	248,267	122,042
76,407	-5,859	248,244	121,723
77,422	-5,959	248,030	121,523
78,436	-5,817	247,869	121,553
79,451	-5,701	247,681	121,548
80,466	-5,985	247,363	121,141
81,480	-5,990	247,216	121,054
82,495	-5,936	246,875	120,922
83,509	-5,905	246,785	120,893
84,524	-5,887	246,556	120,785
85,539	-5,993	246,250	120,535
86,553	-6,172	246,124	120,312
87,568	-6,003	245,922	120,344
88,582	-6,093	245,875	120,236
89,597	-5,938	245,589	120,215
90,611	-5,889	245,591	120,246
91,626	-5,964	245,468	120,113
92,641	-5,984	245,289	119,997
93,655	-5,690	244,911	120,048
94,670	-5,959	244,658	119,688
95,684	-6,003	244,656	119,640
96,699	-5,879	244,381	119,598
97,714	-6,123	244,222	119,306
98,728	-6,285	244,053	119,078
99,743	-6,176	243,824	119,047
100,757	-6,018	243,451	118,985
101,772	-6,249	243,396	118,755
102,787	-5,956	243,260	118,922
103,801	-5,984	243,114	118,817
104,816	-6,034	243,084	118,750
105,830	-5,979	242,828	118,660
106,845	-5,928	242,663	118,611
107,860	-5,876	242,415	118,522
108,874	-6,102	242,266	118,251
109,889	-6,133	241,936	118,054
110,903	-6,195	241,773	117,914
111,918	-6,186	241,776	117,911
112,933	-5,742	241,461	118,114
113,947	-6,077	241,382	117,789
114,962	-5,741	241,060	117,897
115,976	-5,888	240,932	117,704
116,991	-5,722	240,733	117,732
118,006	-5,896	240,595	117,511
119,020	-5,755	240,397	117,519
120,035	-5,986	240,434	117,337
121,049	-5,989	240,315	117,267
122,064	-5,815	239,957	117,224
123,079	-5,765	239,727	117,142
124,093	-6,097	239,662	116,829
125,108	-5,992	239,365	116,759
126,122	-6,237	239,175	116,456
127,137	-6,538	239,117	116,172
128,151	-6,226	238,754	116,239
129,166	-6,276	238,676	116,150
130,181	-6,144	238,463	116,144
131,195	-6,122	238,218	116,031
132,210	-6,047	238,077	116,014
133,224	-6,002	238,014	116,009
134,239	-6,006	237,935	115,957
135,254	-5,932	237,680	115,882
136,268	-6,147	237,514	115,617
137,283	-6,151	237,175	115,438
138,297	-6,253	236,997	115,259
139,312	-6,333	236,854	115,115
140,327	-6,099	236,664	115,201
141,341	-5,659	236,636	115,532
142,356	-5,599	236,649	115,576
143,370	-5,678	236,484	115,421
144,385	-5,589	236,314	115,399
145,400	-5,645	236,040	115,211
146,414	-5,770	235,923	115,042
147,429	-5,579	235,730	115,092
148,443	-5,644	235,536	114,934
149,458	-5,526	235,356	114,931
150,473	-5,647	235,231	114,763
151,487	-5,662	234,861	114,560
152,502	-5,728	234,855	114,494
153,516	-5,610	234,737	114,521
154,531	-5,670	234,590	114,391
155,546	-5,806	234,285	114,123
156,560	-5,659	234,103	114,142
157,575	-5,999	234,021	113,822
158,589	-5,947	233,713	113,703
159,604	-5,467	233,636	114,036
160,619	-5,538	233,610	113,957
161,633	-5,587	233,336	113,774
162,648	-5,725	233,282	113,628
163,662	-5,410	232,913	113,688
164,677	-5,539	232,864	113,552
165,692	-5,596	232,790	113,460
166,706	-5,181	232,457	113,616
167,721	-5,460	232,338	113,327
168,735	-5,461	232,382	113,337
169,750	-5,522	232,136	113,159
170,764	-5,595	232,006	113,029
171,779	-5,619	231,973	112,983
172,794	-5,398	231,719	113,023
173,808	-5,518	231,372	112,750
174,823	-6,084	231,120	112,173
175,837	-6,215	231,077	112,040
176,852	-5,642	230,922	112,403
177,867	-5,712	230,892	112,324
178,881	-5,652	230,858	112,344
179,896	-5,435	230,600	112,378
180,910	-5,445	230,452	112,289
181,925	-5,459	230,250	112,169
182,940	-5,297	230,125	112,225
183,954	-5,360	229,962	112,087
184,969	-5,557	229,886	111,885
185,983	-5,391	229,805	111,966
186,998	-5,379	229,656	111,892
188,013	-5,313	229,432	111,825
189,027	-5,388	229,213	111,650
190,042	-5,292	228,934	111,578
191,056	-5,415	228,924	111,468
192,071	-5,452	228,775	111,357
193,086	-5,262	228,597	111,408
194,100	-5,396	228,440	111,218
195,115	-5,488	228,024	110,934
196,129	-6,007	227,851	110,439
197,144	-2,966	229,006	113,348
198,159	1,305	230,213	117,258
199,173	3,509	230,730	119,226
200,188	3,825	230,672	119,432
201,202	3,880	230,432	119,339
202,217	4,017	230,435	119,436
203,232	4,399	230,254	119,628
204,246	4,460	230,038	119,553
205,261	4,478	229,986	119,529
206,275	4,488	229,921	119,492
207,290	4,554	229,651	119,392
208,304	4,544	229,620	119,357
209,319	4,516	229,479	119,252
210,334	4,164	229,324	118,889
211,348	4,277	228,957	118,775
212,363	3,806	228,728	118,284
213,377	3,474	228,543	117,922
214,392	3,838	228,312	118,072
215,407	3,765	228,296	117,998
216,421	3,710	228,167	117,877
217,436	3,674	227,900	117,701
218,450	3,418	227,610	117,345
219,465	3,629	227,437	117,407
220,480	3,446	227,527	117,303
221,494	3,291	227,410	117,114
222,509	3,584	227,239	117,239
223,523	3,895	226,957	117,320
224,538	3,628	226,909	117,081
225,553	3,596	226,673	116,925
226,567	3,552	226,662	116,875
227,582	3,874	226,567	117,061
228,596	4,019	226,483	117,118
229,611	3,683	226,324	116,770
230,626	3,359	226,104	116,399
231,640	3,533	225,894	116,413
232,655	3,903	225,743	116,605
233,669	4,303	225,762	116,908
234,684	4,161	225,677	116,746
235,699	4,013	225,446	116,504
236,713	3,911	225,141	116,259
237,728	3,604	225,146	116,019
238,742	3,527	224,867	115,806
239,757	3,527	224,738	115,730
240,772	3,648	224,533	115,705
241,786	3,503	224,431	115,533
242,801	3,765	224,280	115,642
243,815	4,202	224,085	115,860
244,830	4,361	224,037	115,945
245,844	3,835	223,892	115,464
246,859	3,887	223,684	115,385
247,874	4,108	223,494	115,443
248,888	4,028	223,453	115,352
249,903	3,776	223,171	115,007
250,917	3,771	223,059	114,935
251,932	3,588	222,848	114,679
252,947	3,683	222,673	114,650
253,961	3,495	222,610	114,467
254,976	3,542	222,472	114,421
255,990	3,670	222,514	114,527
257,005	3,866	222,337	114,573
258,020	3,797	222,209	114,445
259,034	3,982	222,084	114,508
260,049	3,863	221,914	114,322
261,063	3,770	221,764	114,165
262,078	4,068	221,696	114,341
263,093	4,152	221,496	114,291
264,107	3,893	221,392	114,035
265,122	3,906	221,276	113,975
266,136	4,330	221,101	114,188
267,151	4,081	220,871	113,875
268,166	3,586	220,735	113,429
269,180	3,407	220,515	113,173
270,195	3,459	220,214	113,047
271,209	3,555	220,300	113,152
272,224	3,511	220,141	113,027
273,239	3,873	219,979	113,201
274,253	3,687	219,735	112,928
275,268	3,689	219,413	112,755
276,282	3,357	219,388	112,488
277,297	3,346	219,206	112,376
278,312	3,524	219,069	112,427
279,326	3,616	219,136	112,518
280,341	3,506	219,014	112,365
281,355	3,739	218,672	112,350
282,370	3,745	218,664	112,341
283,384	3,455	218,555	112,062
284,399	3,162	218,395	111,757
285,414	3,230	218,238	111,715
286,428	3,707	218,093	111,979
287,443	3,833	217,944	111,984
288,457	3,841	217,899	111,957
289,472	3,701	217,698	111,742
290,487	3,135	217,549	111,244
291,501	3,381	217,237	111,253
292,516	3,363	217,106	111,163
293,530	3,345	217,144	111,159
294,545	3,239	216,884	110,940
295,560	3,549	216,843	111,134
296,574	3,682	216,613	111,102
297,589	3,555	216,555	110,970
298,603	3,599	216,557	110,993
299,618	3,844	216,357	111,058
300,633	3,895	216,157	110,982
301,647	3,783	216,083	110,854
302,662	3,784	215,975	110,789
303,676	3,654	215,818	110,605
304,691	4,007	215,705	110,791
305,706	3,957	215,512	110,646
306,720	3,833	215,542	110,562
307,735	3,680	215,225	110,281
308,749	3,535	215,066	110,084
309,764	3,667	214,909	110,089
310,779	3,974	214,827	110,257
311,793	3,869	214,748	110,132
312,808	3,770	214,594	109,973
313,822	3,645	214,382	109,764
314,837	3,671	214,232	109,697
315,852	3,362	214,067	109,382
316,866	3,582	213,973	109,481
317,881	3,817	213,981	109,643
318,895	3,844	213,723	109,520
319,910	3,782	213,543	109,374
320,925	3,522	213,375	109,093
321,939	3,097	213,206	108,695
322,954	3,139	213,190	108,707
323,968	3,636	213,104	109,006
324,983	3,791	212,990	109,048
325,997	3,925	212,760	109,016
327,012	3,665	212,691	108,787
328,027	3,805	212,570	108,814
329,041	4,196	212,501	109,046
330,056	4,129	212,375	108,924
331,070	3,891	211,947	108,527
332,085	3,353	211,854	108,090
333,100	3,663	211,745	108,244
334,114	3,764	211,726	108,295
335,129	3,852	211,563	108,264
336,143	3,700	211,333	108,030
337,158	3,683	211,185	107,933
338,173	3,733	211,195	107,964
339,187	3,442	210,937	107,617
340,202	3,511	210,829	107,601
341,216	3,297	210,628	107,339
342,231	3,299	210,600	107,317
343,246	3,202	210,417	107,146
344,260	3,456	210,329	107,270
345,275	3,547	210,198	107,257
346,289	3,676	210,072	107,272
347,304	3,930	209,801	107,302
348,319	3,719	209,773	107,131
349,333	3,571	209,643	106,952
350,348	3,778	209,478	107,002
351,362	3,852	209,455	107,033
352,377	3,753	209,390	106,921
353,392	3,879	209,158	106,880
354,406	3,815	208,949	106,720
355,421	194,917	1342,939	1431,544
356,435	155,586	1481,184	1431,621
