DTS Sentinel unit serial number:	SN410029Multiplexer serial number:	ORYXHardware model number:	OX2-SRSoftware version number:	ORYX F/W v4,00 Oryx Data Collector v3.7.2.0data status	okinstallation	B6 Nyhavnadifferential loss correction	single-endedforward channel	channel 2reverse channel	N/Adate	2023/12/08time	12:55:08forward acquisition time	300,00reverse acquisition time	0,00gamma	499,1914k internal	0,3159k external	0,3159temperature offset calibration	1,0000default loss term (dB/km)	0,3820temperature slope calibration	1,0000multiplexer offset coefficient	1,0000multiplexer slope coefficient	1,0000fibre end	0,00T internal ref (°C)	15,06T ext. ref 1 (°C)	-1,54T ext. ref 2 (°C)	-1,53length (m)	temperature (°C)	Stokes	anti-Stokes-744,400	3,102	0,071	0,038
-743,385	20,205	-0,126	0,075
-742,371	76,044	0,098	0,077
-741,356	-145,268	-0,246	-0,016
-740,342	0,542	0,029	-0,015
-739,327	-110,120	-0,223	-0,034
-738,312	-103,406	0,100	0,017
-737,298	-48,691	-0,458	-0,161
-736,283	-12,173	0,139	-0,067
-735,269	-131,951	-0,377	-0,036
-734,254	127,248	0,118	0,111
-733,239	-11,810	-0,414	-0,199
-732,225	150,835	0,145	0,146
-731,210	-200,000	0,037	0,168
-730,196	-200,000	-0,052	0,000
-729,181	-72,314	-0,075	-0,020
-728,167	-200,000	0,001	-0,035
-727,152	-22,969	-0,059	0,026
-726,137	151,360	-0,134	0,134
-725,123	748,626	-0,025	-0,051
-724,108	-11,169	-0,070	-0,034
-723,094	-27,090	-0,165	-0,070
-722,079	-200,000	0,006	-0,153
-721,064	-164,879	0,213	0,007
-720,050	416,674	-0,045	-0,071
-719,035	57,520	-0,070	0,050
-718,021	-200,000	0,008	-0,042
-717,006	-165,277	-0,079	-0,003
-715,991	-160,192	-0,147	0,006
-714,977	-200,000	-0,043	-0,177
-713,962	-95,197	-0,060	0,012
-712,948	186,252	0,058	0,063
-711,933	38,878	0,085	-0,056
-710,918	388,645	-0,029	-0,045
-709,904	-125,024	0,125	-0,014
-708,889	63,597	-0,105	0,077
-707,875	-135,317	-0,065	-0,006
-706,860	225,187	0,060	-0,071
-705,845	-14,761	0,044	0,021
-704,831	64,144	0,092	-0,068
-703,816	-67,945	0,050	0,014
-702,802	177,221	0,037	-0,040
-701,787	800,000	-0,011	-0,024
-700,772	800,000	-0,021	-0,062
-699,758	800,000	-0,079	-0,166
-698,743	154,898	0,067	0,068
-697,729	800,000	-0,028	0,071
-696,714	72,714	-0,094	0,072
-695,699	608,910	0,005	0,010
-694,685	417,469	-0,012	-0,019
-693,670	119,181	-0,088	-0,080
-692,656	-19,706	0,152	-0,069
-691,641	332,375	0,059	0,084
-690,627	195,407	-0,053	0,060
-689,612	306,581	0,038	0,052
-688,597	-39,662	0,122	0,047
-687,583	-102,097	-0,095	-0,017
-686,568	283,312	-0,076	-0,101
-685,554	160,884	-0,132	0,136
-684,539	-200,000	-0,025	0,088
-683,524	800,000	0,029	0,082
-682,510	154,444	-0,063	0,063
-681,495	-200,000	0,014	-0,171
-680,481	238,579	-0,093	-0,114
-679,466	48,647	-0,143	-0,099
-678,451	-27,224	0,056	0,024
-677,437	800,000	0,056	0,121
-676,422	-200,000	0,019	-0,067
-675,408	49,714	0,125	0,086
-674,393	-200,000	-0,003	-0,101
-673,378	800,000	-0,034	-0,073
-672,364	-8,142	-0,097	-0,048
-671,349	402,660	0,071	-0,110
-670,335	-200,000	-0,013	-0,100
-669,320	752,056	-0,019	-0,039
-668,305	-121,201	0,106	0,013
-667,291	-14,149	-0,079	0,037
-666,276	-179,386	-0,032	0,001
-665,262	-200,000	0,036	-0,143
-664,247	-98,573	0,193	0,036
-663,232	800,000	-0,048	-0,139
-662,218	-200,000	-0,012	0,075
-661,203	229,261	0,053	0,063
-660,189	-200,000	-0,008	0,030
-659,174	-170,959	-0,122	-0,003
-658,159	86,262	-0,045	0,037
-657,145	-5,634	-0,204	-0,102
-656,130	-200,000	0,021	-0,159
-655,116	800,000	-0,035	-0,090
-654,101	-21,992	0,114	0,051
-653,086	116,357	-0,122	0,110
-652,072	33,010	-0,018	-0,011
-651,057	31,355	-0,119	-0,075
-650,043	318,590	-0,013	0,018
-649,028	-170,199	0,198	-0,005
-648,014	203,548	-0,085	0,096
-646,999	-200,000	-0,022	-0,118
-645,984	-98,229	-0,029	0,005
-644,970	-200,000	0,002	0,091
-643,955	-200,000	0,025	0,098
-642,941	14,265	-0,195	-0,112
-641,926	20,930	0,101	-0,060
-640,911	-161,164	-0,165	0,006
-639,897	800,000	-0,032	-0,079
-638,882	-172,557	0,116	0,003
-637,868	-43,176	-0,210	-0,078
-636,853	460,004	-0,054	-0,089
-635,838	116,902	-0,154	-0,139
-634,824	-200,000	0,019	-0,104
-633,809	800,000	0,032	0,095
-632,795	86,000	0,109	-0,088
-631,780	800,000	-0,026	0,066
-630,765	-28,548	0,140	-0,059
-629,751	800,000	-0,036	-0,088
-628,736	181,105	-0,068	-0,074
-627,722	41,180	0,130	0,086
-626,707	-42,928	-0,068	0,025
-625,692	248,260	0,093	-0,116
-624,678	541,242	-0,029	-0,050
-623,663	-38,145	-0,078	-0,030
-622,649	234,182	-0,097	0,117
-621,634	-40,007	0,075	-0,029
-620,619	-200,000	-0,004	0,057
-619,605	405,440	-0,043	-0,067
-618,590	86,325	0,089	0,072
-617,576	73,085	0,035	-0,027
-616,561	-200,000	-0,003	0,036
-615,546	135,565	0,045	-0,043
-614,532	460,358	0,066	-0,109
-613,517	336,832	-0,010	0,014
-612,503	-54,310	-0,030	0,010
-611,488	-184,202	-0,042	0,001
-610,474	-200,000	0,047	-0,163
-609,459	-152,023	-0,026	0,001
-608,444	-200,000	-0,007	-0,144
-607,430	438,787	-0,048	0,077
-606,415	330,009	0,041	0,057
-605,401	-200,000	0,010	0,075
-604,386	800,000	-0,029	0,087
-603,371	-69,157	-0,044	0,012
-602,357	-200,000	-0,020	0,075
-601,342	-66,813	0,111	-0,032
-600,328	-158,953	0,057	0,002
-599,313	-118,452	-0,137	0,018
-598,298	56,123	0,038	0,027
-597,284	800,000	0,007	0,015
-596,269	-200,000	-0,009	0,045
-595,255	800,000	-0,040	0,103
-594,240	240,168	-0,039	-0,047
-593,225	-86,653	-0,025	-0,006
-592,211	-200,000	0,015	-0,057
-591,196	-200,000	-0,030	0,102
-590,182	-66,504	-0,015	0,004
-589,167	485,779	0,045	-0,075
-588,152	228,206	-0,069	0,082
-587,138	-24,604	-0,066	0,029
-586,123	595,193	-0,073	-0,133
-585,109	-101,326	-0,091	0,016
-584,094	-126,601	0,059	0,006
-583,079	800,000	0,021	0,045
-582,065	701,974	-0,025	-0,048
-581,050	-175,046	-0,133	0,003
-580,036	-200,000	0,019	0,114
-579,021	-142,502	-0,139	-0,010
-578,006	-23,413	0,025	-0,011
-576,992	155,436	-0,036	0,036
-575,977	-41,237	0,083	-0,031
-574,963	80,391	-0,078	-0,061
-573,948	-92,731	0,063	-0,013
-572,934	-109,351	-0,040	-0,006
-571,919	-27,805	-0,094	-0,040
-570,904	593,244	-0,052	-0,094
-569,890	-82,669	-0,129	-0,030
-568,875	800,000	0,020	0,049
-567,861	429,872	0,046	-0,074
-566,846	77,914	0,035	0,027
-565,831	307,942	-0,055	0,075
-564,817	148,419	-0,030	0,030
-563,802	101,600	-0,029	0,025
-562,788	39,390	-0,157	0,103
-561,773	337,621	-0,038	-0,055
-560,758	22,279	0,090	0,054
-559,744	800,000	-0,034	-0,089
-558,729	1,981	-0,140	0,074
-557,715	-200,000	0,009	-0,170
-556,700	-200,000	0,009	-0,034
-555,685	-49,252	-0,169	-0,059
-554,671	-200,000	-0,074	-0,000
-553,656	-60,708	-0,080	0,025
-552,642	-115,397	0,011	-0,002
-551,627	136,558	0,070	-0,067
-550,612	-200,000	0,010	-0,102
-549,598	333,150	0,051	-0,072
-548,583	167,625	-0,042	0,044
-547,569	-0,428	0,093	-0,048
-546,554	-200,000	-0,022	-0,097
-545,539	-200,000	0,013	0,109
-544,525	-84,831	0,171	0,039
-543,510	590,846	0,028	0,051
-542,496	-122,996	-0,046	-0,005
-541,481	269,526	-0,046	-0,059
-540,466	-200,000	0,005	0,093
-539,452	-2,160	0,140	0,072
-538,437	-55,237	0,093	0,030
-537,423	96,369	-0,059	0,049
-536,408	219,524	-0,058	0,068
-535,393	-127,402	-0,147	-0,015
-534,379	206,127	0,053	-0,060
-533,364	-200,000	-0,007	-0,070
-532,350	-153,448	0,187	-0,009
-531,335	258,540	-0,110	0,139
-530,321	-9,908	-0,078	0,038
-529,306	800,000	0,030	-0,067
-528,291	-200,000	-0,012	-0,100
-527,277	-200,000	-0,020	0,105
-526,262	-200,000	-0,006	0,042
-525,248	69,653	-0,033	0,025
-524,233	310,207	0,079	0,109
-523,218	800,000	-0,051	0,108
-522,204	369,642	0,067	-0,099
-521,189	361,752	0,047	-0,070
-520,175	-200,000	-0,006	-0,055
-519,160	-200,000	-0,022	-0,088
-518,145	-200,000	-0,010	-0,137
-517,131	-200,000	0,037	0,130
-516,116	85,052	0,046	-0,037
-515,102	-129,258	0,036	0,004
-514,087	144,917	-0,101	-0,099
-513,072	7,326	0,035	0,019
-512,058	129,182	-0,053	-0,050
-511,043	-141,529	0,038	0,003
-510,029	800,000	-0,031	0,091
-509,014	359,832	0,038	0,055
-507,999	800,000	-0,016	0,045
-506,985	214,257	-0,100	-0,116
-505,970	-23,548	-0,006	0,003
-504,956	-200,000	0,009	0,032
-503,941	-114,045	0,092	0,013
-502,926	-72,325	0,026	-0,007
-501,912	-200,000	0,014	-0,063
-500,897	-138,439	0,054	-0,004
-499,883	138,817	-0,059	0,057
-498,868	-112,310	0,079	0,011
-497,853	800,000	-0,047	0,119
-496,839	-200,000	0,014	-0,097
-495,824	800,000	-0,029	0,082
-494,810	800,000	-0,037	0,091
-493,795	800,000	0,027	0,079
-492,781	800,000	-0,063	0,139
-491,766	27,790	-0,045	0,028
-490,751	-129,283	-0,022	-0,002
-489,737	-11,007	0,119	-0,057
-488,722	393,522	-0,062	-0,094
-487,708	48,473	0,043	-0,029
-486,693	-200,000	0,001	0,024
-485,678	468,726	-0,082	-0,136
-484,664	-200,000	-0,018	-0,076
-483,649	341,449	-0,050	-0,072
-482,635	162,314	0,113	0,116
-481,620	79,846	0,042	-0,033
-480,605	42,163	0,041	0,027
-479,591	800,000	0,028	-0,071
-478,576	800,000	-0,040	-0,083
-477,562	129,163	-0,027	0,025
-476,547	-121,848	-0,138	0,016
-475,532	-59,589	0,179	0,056
-474,518	391,904	-0,049	-0,074
-473,503	108,642	-0,085	-0,074
-472,489	-200,000	-0,009	-0,088
-471,474	-200,000	-0,011	-0,092
-470,459	244,887	-0,029	-0,036
-469,445	418,843	0,044	-0,069
-468,430	-111,544	0,031	-0,004
-467,416	109,085	-0,042	0,037
-466,401	-9,550	0,041	0,020
-465,386	4,942	0,069	0,037
-464,372	10,072	0,182	-0,101
-463,357	340,083	-0,031	0,045
-462,343	52,331	0,087	-0,060
-461,328	23,776	-0,129	-0,077
-460,313	-200,000	-0,009	0,151
-459,299	-200,000	-0,033	0,128
-458,284	207,318	-0,014	0,016
-457,270	-200,000	0,008	0,143
-456,255	87,448	0,077	-0,062
-455,241	-37,148	-0,108	-0,042
-454,226	-200,000	0,015	-0,071
-453,211	-200,000	0,000	0,024
-452,197	800,000	0,026	0,063
-451,182	-200,000	-0,038	0,129
-450,168	15,340	0,028	-0,016
-449,153	12,115	0,111	-0,062
-448,138	-73,238	-0,060	-0,016
-447,124	8,264	-0,082	0,045
-446,109	-16,038	-0,065	-0,030
-445,095	385,501	0,037	-0,057
-444,080	-200,000	0,007	-0,023
-443,065	-108,233	-0,004	-0,001
-442,051	385,928	-0,015	-0,022
-441,036	3,637	0,097	-0,052
-440,022	-74,307	-0,065	-0,017
-439,007	-91,809	0,076	-0,016
-437,992	1,790	0,112	0,059
-436,978	-200,000	0,001	0,097
-435,963	800,000	-0,045	0,135
-434,949	-200,000	0,020	0,075
-433,934	-200,000	0,001	0,006
-432,919	19,424	-0,179	-0,104
-431,905	800,000	-0,038	-0,094
-430,890	59,875	-0,061	0,044
-429,876	9,956	0,032	0,018
-428,861	800,000	0,048	0,115
-427,846	-6,130	0,079	-0,039
-426,832	-200,000	-0,022	-0,090
-425,817	665,592	-0,013	-0,024
-424,803	316,722	-0,075	-0,103
-423,788	212,660	-0,009	0,010
-422,773	-28,593	0,146	0,061
-421,759	561,374	-0,060	-0,106
-420,744	-165,943	-0,080	0,002
-419,730	-7,651	-0,074	0,036
-418,715	800,000	0,027	-0,072
-417,701	-50,994	-0,100	-0,034
-416,686	-46,918	0,051	0,018
-415,671	95,827	-0,045	0,037
-414,657	800,000	-0,025	0,052
-413,642	800,000	-0,061	0,124
-412,628	-200,000	0,019	-0,090
-411,613	60,263	-0,054	-0,039
-410,598	401,963	-0,031	0,047
-409,584	125,917	0,090	0,083
-408,569	33,953	-0,033	0,021
-407,555	72,898	0,149	-0,113
-406,540	-48,865	0,176	-0,061
-405,525	-200,000	-0,010	-0,126
-404,511	12,012	0,040	-0,022
-403,496	-163,857	0,038	-0,001
-402,482	19,300	-0,078	-0,046
-401,467	800,000	-0,017	0,036
-400,452	800,000	-0,030	0,076
-399,438	-200,000	0,048	-0,200
-398,423	-144,902	-0,027	-0,002
-397,409	-53,840	-0,127	0,042
-396,394	-200,000	0,022	-0,111
-395,379	148,711	-0,037	-0,036
-394,365	-192,765	0,056	-0,000
-393,350	-111,932	-0,072	0,010
-392,336	223,930	0,046	0,054
-391,321	-94,340	0,038	-0,008
-390,306	-42,149	0,024	0,009
-389,292	210,431	0,047	0,053
-388,277	152,833	-0,026	-0,026
-387,263	115,295	-0,069	0,061
-386,248	800,000	0,039	0,103
-385,233	-30,894	-0,028	0,011
-384,219	-200,000	-0,013	0,049
-383,204	105,598	-0,063	0,054
-382,190	35,902	0,058	-0,037
-381,175	800,000	-0,031	0,066
-380,160	162,330	0,045	-0,046
-379,146	-200,000	-0,014	0,075
-378,131	-159,297	0,164	0,007
-377,117	45,578	0,055	0,037
-376,102	-62,202	0,117	-0,035
-375,088	138,686	-0,014	0,013
-374,073	194,374	-0,058	0,064
-373,058	46,656	-0,062	0,042
-372,044	-122,732	0,038	-0,004
-371,029	294,321	-0,055	0,073
-370,015	-200,000	0,027	-0,119
-369,000	634,944	-0,093	-0,171
-367,985	8,955	-0,073	-0,040
-366,971	260,050	-0,029	0,037
-365,956	800,000	-0,027	-0,078
-364,942	372,129	0,030	-0,045
-363,927	628,922	0,027	0,051
-362,912	57,993	-0,089	0,063
-361,898	4,397	-0,072	-0,038
-360,883	-73,805	-0,058	-0,015
-359,869	301,725	0,064	-0,087
-358,854	-154,831	0,102	0,005
-357,839	537,438	-0,032	0,055
-356,825	-93,569	0,071	-0,014
-355,810	-50,625	-0,097	0,033
-354,796	-24,927	0,130	-0,056
-353,781	545,609	-0,049	-0,086
-352,766	-59,297	-0,130	-0,040
-351,752	28,287	0,082	0,050
-350,737	151,144	0,065	0,065
-349,723	-200,000	0,014	-0,067
-348,708	92,044	0,081	0,066
-347,693	188,765	-0,065	0,071
-346,679	-55,526	-0,057	0,019
-345,664	170,930	0,035	0,037
-344,650	-48,386	0,200	-0,069
-343,635	238,702	0,013	0,016
-342,620	-200,000	0,010	-0,064
-341,606	-200,000	0,012	-0,066
-340,591	13,518	0,059	-0,033
-339,577	-131,104	0,143	-0,014
-338,562	67,494	0,025	0,018
-337,548	800,000	0,038	-0,094
-336,533	-133,379	0,092	0,008
-335,518	-200,000	0,039	0,134
-334,504	458,203	0,081	-0,130
-333,489	800,000	0,029	0,061
-332,475	393,601	-0,101	-0,153
-331,460	-8,723	-0,029	-0,014
-330,445	-0,157	-0,026	-0,013
-329,431	-76,753	0,044	0,011
-328,416	-200,000	0,060	0,198
-327,402	64,889	0,128	0,093
-326,387	115,581	-0,063	0,056
-325,372	-200,000	-0,013	-0,062
-324,358	-61,027	-0,122	0,037
-323,343	148,933	0,028	-0,027
-322,329	-50,071	-0,136	0,046
-321,314	-83,759	0,185	0,043
-320,299	132,791	0,078	0,073
-319,285	800,000	-0,023	0,059
-318,270	-200,000	0,010	0,107
-317,256	234,169	0,061	-0,073
-316,241	26,584	0,076	0,046
-315,226	-200,000	-0,010	-0,037
-314,212	-3,202	0,079	0,040
-313,197	-200,000	-0,030	0,146
-312,183	-119,534	0,036	0,004
-311,168	-200,000	0,019	-0,082
-310,153	-200,000	0,009	0,100
-309,139	800,000	0,023	-0,065
-308,124	-200,000	-0,010	-0,033
-307,110	-200,000	-0,044	0,156
-306,095	78,382	0,095	0,074
-305,080	540,266	-0,023	-0,041
-304,066	390,470	0,081	-0,122
-303,051	-196,624	-0,084	0,000
-302,037	63,734	-0,041	-0,030
-301,022	-34,210	-0,015	-0,006
-300,008	800,000	0,038	-0,104
-298,993	-200,000	0,024	-0,077
-297,978	39,098	0,054	0,035
-296,964	-99,560	0,034	0,006
-295,949	-200,000	0,016	0,127
-294,935	366,310	-0,064	0,094
-293,920	-200,000	-0,016	-0,147
-292,905	69,982	0,083	-0,062
-291,891	-109,593	0,074	-0,011
-290,876	89,762	0,149	0,121
-289,862	-200,000	0,001	0,052
-288,847	432,555	-0,043	-0,068
-287,832	-10,203	-0,097	-0,047
-286,818	67,476	-0,062	-0,046
-285,803	730,072	0,032	0,062
-284,789	-200,000	0,001	0,184
-283,774	800,000	-0,038	0,081
-282,759	-141,036	0,090	0,007
-281,745	216,593	0,113	0,131
-280,730	-200,000	-0,010	-0,108
-279,716	-198,328	-0,091	0,000
-278,701	800,000	0,045	-0,113
-277,686	-200,000	0,015	0,090
-276,672	62,856	0,034	-0,024
-275,657	-130,831	0,083	0,008
-274,643	-200,000	0,004	-0,066
-273,628	709,904	-0,036	-0,070
-272,613	-50,453	-0,105	0,036
-271,599	-36,814	0,080	-0,031
-270,584	-85,756	0,060	-0,013
-269,570	115,930	-0,039	0,034
-268,555	-67,217	0,097	0,027
-267,540	-116,524	-0,201	-0,027
-266,526	351,783	0,083	0,120
-265,511	40,637	-0,079	-0,051
-264,497	-70,648	0,089	0,024
-263,482	-50,855	-0,034	-0,011
-262,467	-200,000	0,016	0,065
-261,453	800,000	-0,044	-0,099
-260,438	267,849	-0,045	-0,057
-259,424	-76,109	-0,096	0,024
-258,409	421,319	-0,011	-0,017
-257,395	-137,630	-0,126	-0,010
-256,380	-200,000	0,022	0,114
-255,365	84,679	0,043	-0,034
-254,351	-200,000	-0,024	0,126
-253,336	14,738	-0,106	0,060
-252,322	-38,796	0,054	-0,020
-251,307	173,759	-0,068	0,071
-250,292	105,075	0,045	-0,039
-249,278	51,008	0,055	0,038
-248,263	800,000	0,042	0,112
-247,249	37,441	0,062	-0,040
-246,234	83,092	-0,083	0,065
-245,219	146,578	-0,082	-0,080
-244,205	360,130	-0,117	-0,169
-243,190	-200,000	-0,020	0,101
-242,176	172,159	0,050	0,052
-241,161	17,169	0,094	0,054
-240,146	800,000	0,030	-0,089
-239,132	40,761	-0,057	0,037
-238,117	5,555	0,036	-0,019
-237,103	-200,000	0,018	-0,129
-236,088	272,237	-0,039	-0,050
-235,073	102,476	0,033	-0,028
-234,059	-74,831	0,096	0,025
-233,044	-200,000	0,045	0,167
-232,030	-18,121	0,036	0,016
-231,015	170,813	0,009	-0,009
-230,000	-200,000	-0,002	0,031
-228,986	264,774	-0,042	0,053
-227,971	-200,000	0,000	0,138
-226,957	48,050	-0,042	0,028
-225,942	542,870	0,081	0,139
-224,927	-200,000	-0,010	0,062
-223,913	-200,000	0,014	0,103
-222,898	-200,000	-0,005	-0,105
-221,884	-200,000	-0,020	-0,172
-220,869	121,907	0,064	0,057
-219,855	-200,000	0,018	-0,106
-218,840	800,000	0,097	0,222
-217,825	-107,474	-0,089	-0,014
-216,811	-200,000	0,003	-0,125
-215,796	-146,887	-0,022	0,001
-214,782	142,282	0,079	0,075
-213,767	-77,101	0,104	-0,026
-212,752	-200,000	0,003	0,074
-211,738	316,936	0,012	0,016
-210,723	-96,728	0,069	0,013
-209,709	-114,558	0,059	-0,008
-208,694	-57,081	-0,100	-0,032
-207,679	-46,562	-0,116	-0,041
-206,665	-90,851	-0,087	-0,018
-205,650	-200,000	-0,010	0,042
-204,636	800,000	-0,037	0,074
-203,621	354,392	-0,024	-0,035
-202,606	691,118	0,008	0,016
-201,592	85,464	-0,058	0,046
-200,577	280,672	-0,040	-0,052
-199,563	-140,426	-0,015	-0,001
-198,548	-13,354	-0,069	-0,032
-197,533	13,326	-0,094	-0,052
-196,519	145,010	0,072	0,070
-195,504	800,000	0,029	-0,064
-194,490	-200,000	0,043	-0,179
-193,475	334,750	-0,074	-0,104
-192,460	713,960	0,057	-0,109
-191,446	800,000	0,023	-0,056
-190,431	-200,000	-0,004	0,114
-189,417	178,179	-0,056	0,059
-188,402	-200,000	-0,013	0,046
-187,387	-45,474	-0,098	-0,035
-186,373	-92,476	0,151	0,030
-185,358	-108,126	-0,054	0,008
-184,344	-200,000	0,025	0,175
-183,329	81,466	0,105	-0,082
-182,315	800,000	0,063	0,159
-181,300	-63,901	0,049	-0,014
-180,285	733,436	-0,081	-0,157
-179,271	-200,000	0,005	-0,023
-178,256	-172,640	0,149	-0,003
-177,242	-186,852	0,084	0,001
-176,227	68,061	-0,055	-0,040
-175,212	800,000	0,031	0,086
-174,198	38,968	0,108	-0,070
-173,183	100,396	-0,080	0,067
-172,169	-200,000	0,003	0,025
-171,154	-200,000	-0,008	-0,118
-170,139	28,350	0,040	-0,024
-169,125	800,000	-0,016	0,039
-168,110	800,000	0,058	0,141
-167,096	800,000	-0,024	-0,067
-166,081	21,567	-0,129	-0,076
-165,066	101,861	-0,019	-0,016
-164,052	194,197	0,136	-0,148
-163,037	-0,645	0,076	0,039
-162,023	800,000	-0,018	0,056
-161,008	-200,000	0,050	0,162
-159,993	554,495	0,019	0,032
-158,979	-83,105	-0,179	-0,041
-157,964	-149,631	-0,018	0,001
-156,950	414,097	-0,088	-0,136
-155,935	-19,771	0,069	0,030
-154,920	374,088	0,074	0,108
-153,906	11,109	-0,091	0,050
-152,891	14,756	-0,077	-0,043
-151,877	-200,000	-0,030	-0,122
-150,862	-179,208	-0,182	-0,003
-149,847	332,254	-0,061	-0,086
-148,833	193,972	-0,103	-0,112
-147,818	-200,000	0,011	0,097
-146,804	-49,265	0,053	0,018
-145,789	468,754	0,076	0,123
-144,775	-110,394	-0,059	-0,009
-143,760	497,044	-0,126	-0,210
-142,745	800,000	-0,072	-0,158
-141,731	-200,000	0,019	-0,152
-140,716	-85,442	-0,037	-0,008
-139,702	-35,063	-0,164	0,064
-138,687	-6,210	0,137	0,067
-137,672	-200,000	-0,010	0,045
-136,658	88,285	-0,033	-0,027
-135,643	3,153	0,081	-0,042
-134,629	800,000	0,027	-0,063
-133,614	69,435	0,057	0,042
-132,599	231,056	0,071	0,084
-131,585	-173,664	0,054	-0,001
-130,570	45,089	-0,026	-0,017
-129,556	-109,212	-0,127	0,019
-128,541	800,000	0,014	-0,037
-127,526	654,936	-0,046	-0,086
-126,512	-130,066	0,021	0,002
-125,497	800,000	0,030	-0,079
-124,483	432,608	-0,032	-0,051
-123,468	800,000	-0,016	-0,050
-122,453	212,800	-0,080	0,090
-121,439	-200,000	0,028	-0,154
-120,424	-200,000	0,021	-0,077
-119,410	-84,182	-0,116	-0,026
-118,395	-200,000	0,028	0,184
-117,380	-63,903	0,047	-0,014
-116,366	-0,142	0,120	-0,061
-115,351	148,928	-0,084	0,081
-114,337	34,444	-0,073	-0,046
-113,322	-79,936	-0,073	-0,018
-112,307	110,439	0,109	-0,094
-111,293	131,337	0,066	0,061
-110,278	-200,000	0,021	-0,087
-109,264	-46,312	-0,122	-0,043
-108,249	-20,108	0,020	0,009
-107,234	800,000	-0,016	0,033
-106,220	-200,000	-0,005	0,076
-105,205	532,017	0,010	-0,017
-104,191	-56,896	0,110	0,035
-103,176	-200,000	-0,049	0,157
-102,162	-200,000	0,037	-0,168
-101,147	-200,000	-0,020	0,144
-100,132	800,000	0,017	-0,036
-99,118	-200,000	0,000	-0,155
-98,103	800,000	-0,022	-0,056
-97,089	95,833	0,059	-0,049
-96,074	-159,017	0,098	-0,004
-95,059	518,156	-0,021	0,035
-94,045	3,026	-0,171	-0,089
-93,030	-113,663	0,043	-0,006
-92,016	6,325	0,032	-0,017
-91,001	130,268	-0,073	-0,067
-89,986	-172,521	-0,084	-0,002
-88,972	-200,000	0,003	-0,014
-87,957	133,559	0,099	-0,092
-86,943	718,822	-0,041	-0,078
-85,928	457,350	-0,063	-0,100
-84,913	486,429	-0,084	-0,139
-83,899	192,482	-0,022	-0,024
-82,884	-152,450	-0,075	0,004
-81,870	800,000	0,054	0,159
-80,855	-79,624	-0,065	-0,016
-79,840	21,743	-0,050	0,029
-78,826	14,563	0,075	-0,042
-77,811	79,927	-0,003	0,002
-76,797	275,777	-0,061	0,078
-75,782	800,000	0,019	-0,057
-74,767	281,905	-0,028	-0,036
-73,753	-37,185	-0,056	0,021
-72,738	574,201	-0,061	0,106
-71,724	-28,365	-0,124	-0,051
-70,709	-4,536	-0,076	-0,037
-69,694	-98,824	-0,168	0,030
-68,680	-44,949	0,083	-0,029
-67,665	-121,572	-0,142	-0,017
-66,651	8,126	0,048	0,026
-65,636	14,263	-0,017	-0,009
-64,622	291,829	-0,049	0,064
-63,607	800,000	0,029	0,088
-62,592	65,162	-0,043	-0,031
-61,578	98,107	-0,040	-0,033
-60,563	158,259	-0,075	-0,075
-59,549	-200,000	-0,038	0,197
-58,534	6,146	-1,981	-1,051
-57,519	-200,000	0,065	-0,807
-56,505	-200,000	-1,293	-5,058
-55,490	111,123	0,908	0,785
-54,476	800,000	5,222	11,709
-53,461	-200,000	17,927	289,995
-52,446	800,000	727,707	2224,499
-51,432	532,782	1640,575	2796,669
-50,417	108,757	1629,726	1396,610
-49,403	72,530	1283,192	958,836
-48,388	31,178	1025,685	629,843
-47,373	19,887	987,907	569,466
-46,359	18,159	975,839	556,830
-45,344	15,384	971,939	545,520
-44,330	15,599	970,531	545,409
-43,315	15,189	968,496	542,908
-42,300	15,087	967,682	542,098
-41,286	15,071	966,599	541,416
-40,271	15,013	965,734	540,723
-39,257	15,087	964,589	540,301
-38,242	15,060	963,827	539,766
-37,227	15,147	962,943	539,529
-36,213	15,070	962,093	538,783
-35,198	15,040	961,197	538,162
-34,184	15,137	960,387	538,002
-33,169	15,030	959,596	537,191
-32,154	15,101	958,832	536,971
-31,140	15,103	957,734	536,343
-30,125	15,110	957,125	536,002
-29,111	15,095	956,319	535,482
-28,096	15,081	955,714	535,075
-27,082	15,121	954,980	534,772
-26,067	15,110	954,186	534,272
-25,052	15,110	953,459	533,844
-24,038	15,112	952,711	533,410
-23,023	15,065	952,003	532,843
-22,009	15,106	951,422	532,625
-20,994	15,109	950,701	532,210
-19,979	15,078	950,367	531,905
-18,965	15,120	949,471	531,516
-17,950	15,087	948,996	531,123
-16,936	15,092	948,307	530,734
-15,921	15,075	947,611	530,267
-14,906	15,013	946,818	529,604
-13,892	15,004	946,231	529,228
-12,877	14,997	945,633	528,849
-11,863	14,913	945,085	528,255
-10,848	14,920	944,625	528,001
-9,833	15,072	944,045	528,138
-8,819	15,079	943,487	527,826
-7,804	15,009	942,804	527,200
-6,790	15,001	942,250	526,846
-5,775	15,015	941,729	526,578
-4,760	15,005	941,031	526,134
-3,746	14,959	940,399	525,615
-2,731	14,843	939,720	524,848
-1,717	14,831	938,944	524,357
-0,702	14,768	938,516	523,897
0,313	14,642	937,757	523,866
1,327	18,091	935,704	533,522
2,342	27,480	789,246	474,716
3,356	24,114	443,992	262,055
4,371	-5,815	295,146	144,334
5,386	-9,696	276,843	131,698
6,400	-11,005	271,168	127,772
7,415	-11,156	268,868	126,539
8,429	-11,065	267,495	125,964
9,444	-11,225	266,804	125,482
10,459	-11,040	266,099	125,307
11,473	-11,288	265,470	124,775
12,488	-11,166	264,702	124,513
13,502	-11,396	264,213	124,064
14,517	-11,315	263,811	123,937
15,531	-11,147	263,296	123,836
16,546	-11,232	263,145	123,677
17,561	-11,396	262,829	123,370
18,575	-11,076	262,441	123,464
19,590	-11,283	262,215	123,161
20,604	-11,102	261,868	123,149
21,619	-11,340	261,572	122,786
22,634	-11,231	261,152	122,676
23,648	-11,208	260,732	122,488
24,663	-11,287	260,525	122,309
25,677	-11,157	260,253	122,287
26,692	-11,320	259,927	121,977
27,707	-11,322	259,641	121,831
28,721	-11,404	259,567	121,712
29,736	-11,241	259,085	121,620
30,750	-11,380	259,019	121,455
31,765	-11,388	258,645	121,262
32,780	-11,307	258,514	121,261
33,794	-11,275	258,170	121,117
34,809	-11,351	257,953	120,937
35,823	-11,577	257,815	120,663
36,838	-11,512	257,509	120,566
37,853	-11,430	257,155	120,462
38,867	-11,612	257,158	120,293
39,882	-11,528	256,828	120,201
40,896	-11,346	256,646	120,265
41,911	-11,455	256,328	120,009
42,926	-11,424	255,995	119,870
43,940	-11,569	255,783	119,633
44,955	-11,587	255,571	119,508
45,969	-11,550	255,293	119,400
46,984	-11,864	255,006	118,981
47,999	-12,121	254,848	118,674
49,013	-12,032	254,630	118,639
50,028	-12,112	254,240	118,378
51,042	-12,250	253,981	118,127
52,057	-12,300	253,675	117,930
53,071	-12,393	253,734	117,867
54,086	-12,133	253,616	118,027
55,101	-12,189	253,358	117,847
56,115	-11,965	253,152	117,934
57,130	-11,409	253,083	118,372
58,144	-10,982	252,823	118,607
59,159	-11,219	252,725	118,346
60,174	-11,135	252,506	118,306
61,188	-11,241	252,301	118,108
62,203	-11,286	252,047	117,940
63,217	-11,402	251,837	117,731
64,232	-11,297	251,615	117,708
65,247	-11,213	251,302	117,622
66,261	-11,322	251,084	117,417
67,276	-11,414	250,863	117,224
68,290	-11,707	250,686	116,881
69,305	-11,763	250,348	116,665
70,320	-11,730	250,200	116,614
71,334	-11,552	249,982	116,653
72,349	-11,297	249,891	116,817
73,363	-11,257	249,710	116,756
74,378	-11,138	249,398	116,701
75,393	-11,388	249,329	116,446
76,407	-11,459	249,206	116,318
77,422	-11,341	248,887	116,259
78,436	-11,209	248,767	116,305
79,451	-11,410	248,659	116,073
80,466	-11,437	248,206	115,829
81,480	-11,538	248,019	115,646
82,495	-11,629	247,798	115,456
83,509	-11,543	247,631	115,440
84,524	-11,546	247,478	115,356
85,539	-11,769	247,236	115,045
86,553	-11,905	247,020	114,821
87,568	-11,597	246,639	114,891
88,582	-11,584	246,689	114,915
89,597	-11,896	246,385	114,502
90,611	-11,738	246,331	114,599
91,626	-11,153	246,006	114,927
92,641	-11,419	245,975	114,680
93,655	-11,435	245,863	114,604
94,670	-11,436	245,431	114,391
95,684	-11,595	245,383	114,226
96,699	-11,581	245,142	114,115
97,714	-11,694	244,982	113,937
98,728	-11,796	244,738	113,728
99,743	-11,873	244,486	113,537
100,757	-12,134	244,413	113,276
101,772	-11,642	244,054	113,508
102,787	-11,745	243,969	113,373
103,801	-11,706	243,791	113,313
104,816	-11,504	243,534	113,350
105,830	-11,317	243,464	113,462
106,845	-11,224	243,275	113,440
107,860	-11,393	243,146	113,231
108,874	-11,594	242,859	112,922
109,889	-11,625	242,676	112,801
110,903	-11,506	242,487	112,801
111,918	-11,558	242,232	112,629
112,933	-11,600	242,263	112,599
113,947	-11,544	241,937	112,483
114,962	-11,389	241,794	112,534
115,976	-11,543	241,643	112,327
116,991	-11,415	241,574	112,390
118,006	-11,548	241,338	112,162
119,020	-11,307	241,079	112,228
120,035	-11,285	241,004	112,201
121,049	-11,360	240,871	112,068
122,064	-11,579	240,677	111,789
123,079	-11,410	240,602	111,883
124,093	-11,606	240,272	111,560
125,108	-11,834	240,014	111,244
126,122	-11,960	239,760	111,014
127,137	-11,873	239,530	110,968
128,151	-11,847	239,432	110,934
129,166	-11,762	239,221	110,895
130,181	-11,662	239,056	110,890
131,195	-11,800	238,894	110,693
132,210	-11,480	238,863	110,928
133,224	-11,464	238,632	110,824
134,239	-11,479	238,470	110,726
135,254	-11,523	238,323	110,613
136,268	-11,509	237,977	110,454
137,283	-11,879	237,760	110,045
138,297	-12,012	237,658	109,881
139,312	-11,947	237,278	109,748
140,327	-11,643	237,277	109,982
141,341	-11,240	237,519	110,408
142,356	-11,011	237,054	110,366
143,370	-11,129	236,994	110,233
144,385	-11,054	236,719	110,155
145,400	-11,040	236,710	110,153
146,414	-10,996	236,446	110,055
147,429	-11,084	236,225	109,872
148,443	-11,287	236,219	109,697
149,458	-11,260	235,922	109,572
150,473	-10,941	235,819	109,768
151,487	-11,122	235,521	109,475
152,502	-11,016	235,338	109,465
153,516	-11,054	235,412	109,459
154,531	-11,151	235,054	109,206
155,546	-11,292	234,928	109,026
156,560	-11,252	234,685	108,935
157,575	-11,452	234,525	108,692
158,589	-11,327	234,227	108,644
159,604	-11,045	234,329	108,905
160,619	-11,005	234,158	108,847
161,633	-10,996	233,925	108,736
162,648	-10,912	233,877	108,770
163,662	-11,177	233,705	108,471
164,677	-11,080	233,374	108,385
165,692	-11,157	233,284	108,272
166,706	-11,102	233,114	108,227
167,721	-11,025	233,078	108,261
168,735	-11,023	232,891	108,167
169,750	-10,984	232,630	108,066
170,764	-10,942	232,551	108,053
171,779	-11,101	232,469	107,881
172,794	-10,939	232,179	107,863
173,808	-11,111	231,952	107,613
174,823	-11,796	231,765	106,982
175,837	-11,717	231,440	106,883
176,852	-11,489	231,600	107,127
177,867	-11,157	231,449	107,306
178,881	-10,991	231,136	107,280
179,896	-11,067	231,070	107,181
180,910	-10,952	231,035	107,245
181,925	-11,037	230,802	107,062
182,940	-10,978	230,642	107,023
183,954	-11,098	230,553	106,879
184,969	-10,986	230,378	106,875
185,983	-10,908	230,335	106,906
186,998	-10,762	230,057	106,881
188,013	-11,092	230,017	106,597
189,027	-10,869	229,672	106,601
190,042	-11,027	229,594	106,433
191,056	-10,692	229,447	106,614
192,071	-10,864	229,312	106,409
193,086	-11,020	229,130	106,195
194,100	-10,957	228,959	106,154
195,115	-11,092	228,466	105,812
196,129	-11,423	228,672	105,643
197,144	-6,400	230,327	110,289
198,159	-0,721	231,862	115,431
199,173	2,695	232,753	118,523
200,188	2,917	232,910	118,766
201,202	3,104	232,644	118,764
202,217	3,265	232,480	118,796
203,232	3,464	232,384	118,890
204,246	3,726	232,328	119,054
205,261	3,620	232,251	118,922
206,275	3,909	232,001	119,006
207,290	3,714	231,978	118,833
208,304	3,853	231,735	118,806
209,319	3,556	231,592	118,492
210,334	3,611	231,361	118,406
211,348	3,488	231,189	118,212
212,363	3,128	230,844	117,748
213,377	2,837	230,686	117,433
214,392	2,928	230,600	117,449
215,407	2,955	230,383	117,349
216,421	3,266	230,214	117,490
217,436	3,026	230,166	117,271
218,450	2,827	229,877	116,961
219,465	2,884	229,606	116,857
220,480	2,729	229,539	116,694
221,494	2,716	229,443	116,624
222,509	3,046	229,391	116,840
223,523	2,972	229,238	116,696
224,538	3,029	228,950	116,582
225,553	2,966	228,850	116,472
226,567	3,183	228,758	116,581
227,582	3,393	228,644	116,672
228,596	3,520	228,483	116,676
229,611	3,191	228,272	116,308
230,626	2,626	228,033	115,747
231,640	2,774	227,884	115,773
232,655	3,171	227,980	116,113
233,669	3,509	227,774	116,254
234,684	3,575	227,664	116,237
235,699	3,194	227,616	115,914
236,713	3,150	227,288	115,703
237,728	3,068	227,153	115,563
238,742	2,807	226,864	115,208
239,757	3,090	226,755	115,356
240,772	2,819	226,608	115,066
241,786	3,009	226,502	115,145
242,801	3,103	226,473	115,191
243,815	3,802	226,465	115,704
244,830	3,460	226,182	115,291
245,844	3,069	225,993	114,890
246,859	2,912	225,771	114,650
247,874	3,253	225,651	114,835
248,888	3,429	225,582	114,921
249,903	3,401	225,221	114,706
250,917	3,152	225,252	114,525
251,932	3,007	225,118	114,338
252,947	2,863	224,858	114,088
253,961	2,786	224,850	114,016
254,976	2,880	224,604	113,952
255,990	3,310	224,501	114,210
257,005	3,125	224,501	114,062
258,020	3,249	224,205	113,994
259,034	3,439	223,984	114,012
260,049	3,572	224,079	114,150
261,063	3,222	223,854	113,765
262,078	3,487	223,710	113,879
263,093	3,431	223,567	113,754
264,107	3,401	223,359	113,616
265,122	3,392	223,342	113,590
266,136	3,449	223,254	113,577
267,151	3,339	223,065	113,390
268,166	3,204	222,752	113,121
269,180	2,882	222,561	112,775
270,195	2,741	222,547	112,654
271,209	2,893	222,153	112,557
272,224	3,115	222,243	112,756
273,239	3,099	222,121	112,672
274,253	2,723	221,907	112,277
275,268	2,968	221,630	112,307
276,282	2,614	221,619	112,032
277,297	2,942	221,314	112,108
278,312	2,716	221,389	111,970
279,326	3,098	221,227	112,158
280,341	3,134	221,050	112,085
281,355	3,060	220,805	111,896
282,370	2,880	220,754	111,729
283,384	2,887	220,456	111,573
284,399	2,833	220,458	111,525
285,414	2,537	220,168	111,152
286,428	3,067	220,214	111,553
287,443	3,291	220,034	111,614
288,457	3,203	219,927	111,486
289,472	3,194	219,611	111,309
290,487	2,710	219,511	110,897
291,501	2,647	219,291	110,730
292,516	2,660	219,271	110,719
293,530	2,970	219,126	110,862
294,545	2,816	219,042	110,698
295,560	3,057	218,919	110,801
296,574	3,064	218,797	110,733
297,589	3,248	218,521	110,717
298,603	3,287	218,326	110,637
299,618	3,105	218,389	110,527
300,633	3,333	218,150	110,561
301,647	3,168	218,159	110,436
302,662	3,414	218,108	110,578
303,676	3,312	217,834	110,356
304,691	3,422	217,686	110,350
305,706	3,247	217,522	110,132
306,720	3,295	217,282	110,035
307,735	3,009	217,166	109,761
308,749	3,022	217,135	109,745
309,764	3,115	216,964	109,715
310,779	3,167	216,866	109,693
311,793	3,023	216,791	109,542
312,808	3,281	216,578	109,609
313,822	3,199	216,386	109,443
314,837	3,036	216,250	109,249
315,852	2,780	216,069	108,965
316,866	2,724	216,041	108,901
317,881	3,404	215,981	109,347
318,895	3,251	215,710	109,091
319,910	3,051	215,588	108,877
320,925	2,777	215,354	108,554
321,939	2,547	215,188	108,297
322,954	2,658	215,131	108,337
323,968	3,161	214,996	108,617
324,983	3,239	214,970	108,649
325,997	3,270	214,935	108,644
327,012	3,213	214,657	108,453
328,027	3,088	214,517	108,284
329,041	3,285	214,504	108,408
330,056	3,454	214,243	108,386
331,070	2,836	214,087	107,860
332,085	2,635	213,809	107,569
333,100	2,756	213,791	107,636
334,114	3,072	213,658	107,782
335,129	3,052	213,617	107,738
336,143	3,017	213,403	107,595
337,158	3,166	213,173	107,574
338,173	3,141	213,195	107,558
339,187	2,933	213,029	107,319
340,202	2,709	212,846	107,060
341,216	2,727	212,619	106,949
342,231	3,017	212,635	107,151
343,246	2,818	212,531	106,949
344,260	3,004	212,355	106,982
345,275	3,027	212,205	106,912
346,289	3,008	212,338	106,957
347,304	3,183	212,030	106,914
348,319	2,996	211,843	106,680
349,333	3,064	211,542	106,566
350,348	3,117	211,582	106,614
351,362	3,174	211,491	106,598
352,377	3,391	211,348	106,668
353,392	3,197	211,106	106,401
354,406	2,996	211,211	106,304
355,421	196,344	1341,195	1421,022
356,435	156,861	1478,835	1420,988
