DTS Sentinel unit serial number:	SN410029Multiplexer serial number:	ORYXHardware model number:	OX2-SRSoftware version number:	ORYX F/W v4,00 Oryx Data Collector v3.7.2.0data status	okinstallation	B6 Nyhavnadifferential loss correction	single-endedforward channel	channel 2reverse channel	N/Adate	2023/12/10time	12:35:08forward acquisition time	300,00reverse acquisition time	0,00gamma	499,1914k internal	0,3123k external	0,3123temperature offset calibration	1,0000default loss term (dB/km)	0,3820temperature slope calibration	1,0000multiplexer offset coefficient	1,0000multiplexer slope coefficient	1,0000fibre end	0,00T internal ref (°C)	22,79T ext. ref 1 (°C)	6,63T ext. ref 2 (°C)	6,64length (m)	temperature (°C)	Stokes	anti-Stokes-744,400	800,000	-0,030	-0,076
-743,385	-30,670	-0,343	0,144
-742,371	176,065	0,075	-0,081
-741,356	-27,716	-0,286	0,123
-740,342	-147,963	-0,071	-0,004
-739,327	11,845	-0,197	0,112
-738,312	-200,000	0,025	-0,098
-737,298	132,020	-0,191	0,183
-736,283	-200,000	0,030	-0,131
-735,269	102,682	-0,161	0,140
-734,254	-77,832	-0,035	0,009
-733,239	-60,376	-0,434	-0,137
-732,225	-14,780	0,056	-0,027
-731,210	-200,000	0,011	0,122
-730,196	-101,805	-0,114	0,020
-729,181	-61,513	-0,079	-0,025
-728,167	39,405	-0,030	-0,020
-727,152	467,396	-0,028	0,047
-726,137	-36,451	-0,041	0,016
-725,123	53,921	-0,092	0,066
-724,108	412,889	-0,061	-0,098
-723,094	800,000	-0,048	-0,128
-722,079	466,634	-0,062	-0,104
-721,064	217,539	-0,039	-0,046
-720,050	-200,000	-0,014	-0,053
-719,035	3,950	-0,065	0,036
-718,021	-108,679	-0,070	-0,011
-717,006	-71,209	-0,082	0,023
-715,991	-132,965	-0,177	0,017
-714,977	-133,935	-0,131	0,012
-713,962	547,837	-0,018	-0,032
-712,948	117,957	0,118	-0,108
-711,933	-200,000	-0,041	-0,160
-710,918	463,133	-0,031	-0,051
-709,904	-200,000	0,007	-0,086
-708,889	59,890	-0,083	-0,061
-707,875	-187,282	-0,034	-0,000
-706,860	131,252	0,046	0,044
-705,845	21,408	-0,044	-0,026
-704,831	-200,000	0,052	0,206
-703,816	686,391	-0,048	-0,094
-702,802	642,103	0,048	0,092
-701,787	-18,259	-0,047	0,022
-700,772	-200,000	-0,007	-0,167
-699,758	394,992	0,048	-0,075
-698,743	-200,000	0,004	-0,050
-697,729	-47,585	-0,137	0,049
-696,714	800,000	0,017	-0,045
-695,699	800,000	-0,038	-0,113
-694,685	800,000	-0,041	-0,109
-693,670	-200,000	0,019	-0,065
-692,656	-24,800	0,142	-0,063
-691,641	-75,576	0,051	-0,014
-690,627	-157,532	0,070	-0,003
-689,612	-200,000	-0,004	0,101
-688,597	-200,000	-0,002	0,091
-687,583	-32,848	-0,070	-0,029
-686,568	103,365	0,065	0,057
-685,554	550,132	-0,051	-0,091
-684,539	-200,000	0,024	-0,168
-683,524	-32,418	-0,104	-0,043
-682,510	-68,307	0,146	-0,042
-681,495	134,510	-0,039	0,037
-680,481	-200,000	0,012	-0,067
-679,466	106,562	0,006	0,005
-678,451	-200,000	-0,021	-0,128
-677,437	1,346	-0,076	-0,040
-676,422	-67,090	0,172	-0,050
-675,408	109,413	-0,047	-0,041
-674,393	44,432	-0,065	-0,044
-673,378	217,215	-0,029	-0,035
-672,364	360,067	0,016	-0,024
-671,349	148,967	-0,044	0,044
-670,335	685,674	-0,060	0,117
-669,320	800,000	0,029	-0,074
-668,305	-200,000	-0,013	0,093
-667,291	650,100	-0,050	0,095
-666,276	349,861	0,072	-0,106
-665,262	223,411	0,027	0,032
-664,247	-200,000	-0,013	0,061
-663,232	-200,000	-0,012	0,078
-662,218	144,833	-0,071	0,070
-661,203	81,403	-0,045	0,036
-660,189	800,000	-0,025	-0,068
-659,174	-1,230	-0,144	-0,075
-658,159	611,349	0,080	-0,149
-657,145	800,000	0,028	0,090
-656,130	58,775	0,059	0,043
-655,116	117,390	-0,082	-0,075
-654,101	-151,007	-0,087	-0,005
-653,086	-200,000	-0,001	-0,083
-652,072	-200,000	-0,019	-0,160
-651,057	800,000	-0,061	-0,180
-650,043	-114,692	-0,106	-0,015
-649,028	800,000	-0,035	0,073
-648,014	222,636	0,029	0,034
-646,999	-35,146	0,102	0,041
-645,984	646,101	-0,071	0,136
-644,970	-116,008	-0,216	-0,029
-643,955	-175,806	-0,093	0,002
-642,941	800,000	0,015	0,041
-641,926	-160,848	0,064	0,002
-640,911	85,090	0,074	0,060
-639,897	-200,000	-0,001	-0,033
-638,882	78,905	-0,120	0,096
-637,868	-10,875	-0,087	-0,043
-636,853	89,535	-0,087	-0,072
-635,838	-24,619	-0,106	0,047
-634,824	800,000	-0,047	-0,099
-633,809	476,107	0,040	-0,067
-632,795	800,000	0,018	0,053
-631,780	347,457	-0,110	0,161
-630,765	-200,000	0,022	-0,096
-629,751	465,933	0,047	-0,078
-628,736	800,000	-0,010	0,028
-627,722	-21,129	0,063	-0,028
-626,707	-75,433	0,061	-0,016
-625,692	-200,000	-0,005	0,036
-624,678	-200,000	0,026	-0,130
-623,663	-178,819	-0,080	-0,001
-622,649	236,777	-0,040	0,050
-621,634	-60,719	-0,062	-0,019
-620,619	491,090	0,053	-0,090
-619,605	664,182	-0,028	0,053
-618,590	-200,000	0,011	-0,052
-617,576	2,191	0,203	0,108
-616,561	-144,986	-0,117	-0,008
-615,546	52,047	-0,155	-0,110
-614,532	645,553	0,021	0,040
-613,517	-95,225	-0,173	0,034
-612,503	800,000	0,058	0,121
-611,488	40,606	0,014	-0,009
-610,474	-200,000	-0,021	-0,166
-609,459	59,937	0,047	-0,034
-608,444	48,987	-0,139	-0,097
-607,430	-18,893	-0,153	-0,070
-606,415	800,000	-0,006	-0,015
-605,401	-90,740	-0,068	0,014
-604,386	-72,243	0,133	0,036
-603,371	-200,000	-0,014	-0,100
-602,357	-116,427	0,086	0,012
-601,342	-200,000	-0,004	-0,039
-600,328	775,522	-0,052	-0,107
-599,313	139,456	0,073	-0,071
-598,298	800,000	-0,074	-0,219
-597,284	-200,000	-0,012	-0,110
-596,269	122,624	-0,070	0,065
-595,255	360,189	0,045	0,067
-594,240	112,212	0,018	-0,016
-593,225	117,583	0,060	-0,055
-592,211	307,465	-0,062	-0,086
-591,196	-28,352	0,140	-0,060
-590,182	-200,000	0,041	-0,189
-589,167	764,909	-0,035	0,070
-588,152	-6,654	0,106	0,053
-587,138	450,616	0,013	0,021
-586,123	-200,000	-0,012	0,042
-585,109	-94,255	0,098	-0,020
-584,094	-200,000	0,006	-0,072
-583,079	128,699	-0,128	0,121
-582,065	-200,000	0,016	-0,098
-581,050	374,513	0,012	0,018
-580,036	800,000	0,048	0,152
-579,021	110,507	-0,050	-0,044
-578,006	-2,829	-0,057	-0,029
-576,992	-102,642	-0,016	-0,003
-575,977	23,484	-0,020	-0,012
-574,963	-200,000	0,009	0,040
-573,948	-200,000	-0,017	-0,068
-572,934	270,791	-0,040	-0,052
-571,919	423,268	-0,056	-0,089
-570,904	33,042	-0,083	-0,053
-569,890	247,543	0,037	-0,047
-568,875	-128,459	-0,032	-0,003
-567,861	-182,309	0,031	0,000
-566,846	504,051	-0,032	0,055
-565,831	-200,000	-0,004	0,019
-564,817	-200,000	0,004	0,108
-563,802	-129,588	0,107	-0,011
-562,788	-200,000	0,023	-0,089
-561,773	-62,633	-0,208	-0,064
-560,758	49,237	0,057	-0,039
-559,744	-200,000	0,016	0,072
-558,729	-8,936	-0,047	0,023
-557,715	-35,873	-0,035	-0,014
-556,700	176,597	-0,055	-0,060
-555,685	466,949	0,023	-0,039
-554,671	42,315	-0,052	0,035
-553,656	-25,256	0,143	-0,062
-552,642	172,876	-0,068	0,072
-551,627	-200,000	-0,024	0,099
-550,612	201,771	0,056	-0,064
-549,598	-200,000	0,006	-0,175
-548,583	671,293	-0,092	-0,177
-547,569	113,874	0,059	-0,053
-546,554	122,104	0,005	0,005
-545,539	-200,000	0,000	0,114
-544,525	101,527	-0,056	0,048
-543,510	-43,283	-0,061	0,023
-542,496	-157,753	-0,046	-0,002
-541,481	-169,081	0,133	-0,004
-540,466	-200,000	-0,011	-0,098
-539,452	-150,455	0,139	-0,008
-538,437	-200,000	0,016	0,085
-537,423	18,063	-0,067	0,039
-536,408	307,280	-0,078	0,108
-535,393	220,857	-0,082	0,097
-534,379	104,042	-0,067	0,058
-533,364	-200,000	0,022	-0,089
-532,350	92,788	0,119	-0,100
-531,335	-66,440	0,059	0,017
-530,321	800,000	-0,019	0,060
-529,306	-117,711	-0,024	-0,003
-528,291	800,000	-0,011	-0,028
-527,277	15,177	-0,070	-0,040
-526,262	-20,614	-0,077	0,035
-525,248	125,567	-0,046	0,043
-524,233	-10,182	0,106	-0,052
-523,218	320,670	-0,047	0,066
-522,204	-200,000	-0,020	-0,107
-521,189	-200,000	0,002	-0,050
-520,175	-83,092	-0,067	-0,016
-519,160	77,132	-0,134	0,105
-518,145	800,000	-0,023	-0,048
-517,131	56,698	0,028	0,020
-516,116	36,710	0,055	0,036
-515,102	-97,314	-0,030	-0,006
-514,087	-148,220	-0,090	0,005
-513,072	-200,000	0,009	-0,138
-512,058	184,837	-0,130	-0,143
-511,043	95,316	-0,047	-0,040
-510,029	-200,000	-0,035	0,156
-509,014	800,000	-0,007	-0,021
-507,999	-91,349	0,142	0,030
-506,985	-200,000	0,011	-0,094
-505,970	-200,000	0,033	-0,128
-504,956	49,512	-0,075	-0,052
-503,941	541,326	-0,051	-0,090
-502,926	-200,000	0,007	0,074
-501,912	-100,920	0,075	-0,013
-500,897	-200,000	-0,007	-0,032
-499,883	-98,065	0,082	-0,015
-498,868	800,000	0,035	-0,079
-497,853	597,883	-0,060	0,110
-496,839	-114,479	0,209	0,029
-495,824	800,000	0,034	0,080
-494,810	372,670	0,023	0,035
-493,795	-200,000	-0,015	0,055
-492,781	800,000	-0,032	0,102
-491,766	800,000	0,008	-0,018
-490,751	69,603	0,084	-0,064
-489,737	800,000	0,023	-0,052
-488,722	226,330	0,051	0,061
-487,708	73,598	0,150	0,116
-486,693	-1,024	-0,051	0,027
-485,678	-200,000	-0,005	0,027
-484,664	12,856	-0,125	-0,071
-483,649	-200,000	0,024	-0,147
-482,635	-200,000	0,016	0,226
-481,620	-200,000	-0,008	0,034
-480,605	112,611	0,019	-0,017
-479,591	297,000	-0,074	-0,101
-478,576	-80,208	-0,076	0,019
-477,562	-67,778	-0,070	0,020
-476,547	205,728	0,061	-0,070
-475,532	-109,713	0,023	-0,004
-474,518	644,990	0,086	-0,163
-473,503	14,718	0,113	0,065
-472,489	-200,000	-0,059	0,201
-471,474	52,481	0,092	0,065
-470,459	-19,255	0,106	0,048
-469,445	-200,000	-0,002	0,058
-468,430	266,572	-0,025	0,032
-467,416	-137,960	-0,058	-0,005
-466,401	371,010	0,023	0,035
-465,386	587,134	-0,064	0,117
-464,372	-167,512	-0,074	0,002
-463,357	51,769	-0,060	-0,042
-462,343	800,000	-0,054	-0,124
-461,328	800,000	0,007	0,015
-460,313	196,561	0,046	-0,052
-459,299	-151,920	0,121	-0,006
-458,284	800,000	0,035	0,074
-457,270	584,328	0,020	-0,036
-456,255	800,000	0,020	0,052
-455,241	-78,993	-0,136	-0,034
-454,226	-59,644	0,098	-0,031
-453,211	-146,817	0,104	-0,007
-452,197	800,000	0,044	-0,132
-451,182	558,092	0,109	0,195
-450,168	-200,000	-0,001	0,013
-449,153	-200,000	0,001	0,045
-448,138	385,955	-0,045	0,069
-447,124	-89,856	-0,048	-0,010
-446,109	-88,111	-0,094	0,021
-445,095	84,606	-0,036	-0,029
-444,080	465,070	-0,055	-0,091
-443,065	800,000	0,088	0,191
-442,051	-149,013	-0,135	0,008
-441,036	800,000	0,010	-0,026
-440,022	-200,000	-0,001	-0,008
-439,007	343,779	0,025	-0,037
-437,992	-161,331	0,069	0,003
-436,978	65,548	-0,033	0,024
-435,963	60,264	0,069	-0,050
-434,949	676,845	0,070	0,134
-433,934	-107,314	-0,178	0,028
-432,919	537,161	0,028	0,050
-431,905	-200,000	-0,002	0,064
-430,890	-200,000	0,003	0,062
-429,876	-112,770	0,072	-0,010
-428,861	800,000	-0,006	-0,019
-427,846	-169,767	0,103	0,003
-426,832	109,651	-0,099	-0,087
-425,817	99,590	-0,046	-0,039
-424,803	-89,206	0,086	-0,019
-423,788	-66,405	0,065	-0,019
-422,773	-90,565	0,093	-0,020
-421,759	-200,000	-0,002	0,058
-420,744	54,089	-0,094	-0,066
-419,730	177,100	0,053	-0,057
-418,715	233,313	0,078	-0,095
-417,701	800,000	0,040	-0,095
-416,686	106,452	0,055	0,048
-415,671	-53,832	0,085	-0,028
-414,657	553,090	0,037	0,066
-413,642	133,198	-0,068	0,064
-412,628	-4,350	0,068	-0,035
-411,613	621,583	-0,054	-0,100
-410,598	-178,591	0,083	0,001
-409,584	19,298	0,121	0,071
-408,569	43,440	-0,076	0,051
-407,555	-200,000	0,011	0,121
-406,540	296,626	-0,088	0,119
-405,525	-9,510	0,098	0,048
-404,511	-93,397	0,059	0,012
-403,496	-81,494	-0,082	-0,020
-402,482	-200,000	-0,044	0,187
-401,467	70,661	0,109	0,083
-400,452	478,971	0,073	-0,121
-399,438	-31,928	-0,062	-0,025
-398,423	-200,000	-0,010	-0,079
-397,409	85,975	-0,113	-0,091
-396,394	800,000	-0,069	-0,194
-395,379	246,668	0,031	-0,039
-394,365	41,651	0,060	-0,040
-393,350	-3,701	0,184	0,093
-392,336	-157,360	-0,174	-0,008
-391,321	-80,911	0,141	0,034
-390,306	619,785	-0,022	-0,041
-389,292	-117,989	0,060	-0,008
-388,277	253,314	-0,011	-0,013
-387,263	-81,715	-0,126	-0,030
-386,248	-47,480	0,164	-0,058
-385,233	260,961	0,043	0,055
-384,219	800,000	-0,042	0,128
-383,204	88,012	0,075	-0,061
-382,190	448,478	0,078	-0,127
-381,175	12,670	-0,058	0,033
-380,160	-200,000	0,001	0,133
-379,146	-46,113	0,043	-0,015
-378,131	-23,019	0,049	-0,022
-377,117	555,285	-0,120	0,213
-376,102	316,364	-0,026	0,036
-375,088	-102,401	-0,043	-0,007
-374,073	309,185	-0,050	-0,069
-373,058	800,000	0,060	0,135
-372,044	-12,208	0,053	0,025
-371,029	800,000	0,025	0,054
-370,015	-200,000	0,000	0,004
-369,000	-200,000	-0,007	-0,069
-367,985	-200,000	-0,019	0,131
-366,971	-97,341	0,129	-0,024
-365,956	800,000	-0,020	0,048
-364,942	800,000	-0,024	0,053
-363,927	-78,373	0,110	0,027
-362,912	-24,266	0,083	-0,036
-361,898	81,157	-0,043	-0,034
-360,883	-88,333	-0,178	0,039
-359,869	-200,000	0,034	-0,184
-358,854	22,962	0,019	0,011
-357,839	-7,959	0,091	-0,045
-356,825	180,983	-0,020	-0,021
-355,810	-200,000	0,000	0,005
-354,796	184,821	-0,103	-0,112
-353,781	-51,588	-0,097	0,033
-352,766	29,443	-0,049	-0,030
-351,752	-200,000	-0,043	0,220
-350,737	73,195	0,041	0,032
-349,723	394,577	-0,058	0,089
-348,708	-113,192	0,158	0,023
-347,693	-168,215	-0,077	0,002
-346,679	303,307	0,020	0,027
-345,664	27,877	0,087	0,054
-344,650	-183,751	-0,141	0,002
-343,635	74,368	0,082	-0,063
-342,620	-114,289	0,103	-0,014
-341,606	-200,000	0,010	-0,113
-340,591	-26,155	0,028	0,012
-339,577	-152,880	0,044	0,002
-338,562	-64,337	-0,020	-0,006
-337,548	-200,000	-0,012	0,059
-336,533	800,000	-0,029	-0,060
-335,518	-200,000	0,019	-0,114
-334,504	-196,090	-0,019	0,000
-333,489	-16,540	0,027	0,013
-332,475	173,597	-0,057	0,060
-331,460	-200,000	-0,043	-0,268
-330,445	179,762	0,058	-0,062
-329,431	170,723	-0,066	-0,069
-328,416	-85,765	0,078	-0,018
-327,402	-90,695	0,088	0,019
-326,387	800,000	0,029	0,086
-325,372	79,988	-0,067	0,053
-324,358	375,205	0,035	-0,052
-323,343	332,119	0,100	0,142
-322,329	-200,000	0,018	0,086
-321,314	428,204	0,086	0,137
-320,299	365,031	0,017	0,025
-319,285	-200,000	0,007	0,029
-318,270	-88,976	-0,079	-0,017
-317,256	800,000	0,009	-0,021
-316,241	149,522	-0,077	0,077
-315,226	2,837	-0,044	-0,023
-314,212	675,064	0,027	0,052
-313,197	-137,753	-0,097	0,008
-312,183	150,622	-0,041	-0,041
-311,168	-94,172	0,169	-0,034
-310,153	800,000	0,020	0,041
-309,139	-173,471	-0,099	0,002
-308,124	59,326	-0,130	-0,094
-307,110	-200,000	0,023	-0,168
-306,095	426,463	-0,015	0,024
-305,080	80,088	-0,021	0,016
-304,066	111,553	-0,106	-0,094
-303,051	-200,000	-0,026	-0,183
-302,037	37,687	0,090	0,059
-301,022	342,411	0,054	0,078
-300,008	-89,595	0,056	-0,012
-298,993	84,651	-0,042	-0,033
-297,978	-200,000	0,005	0,041
-296,964	-146,483	0,086	0,005
-295,949	-200,000	0,016	0,195
-294,935	531,782	0,036	-0,062
-293,920	-84,583	-0,181	0,041
-292,905	-200,000	-0,015	0,081
-291,891	418,791	0,064	-0,100
-290,876	96,524	0,039	-0,032
-289,862	-22,696	-0,043	-0,019
-288,847	-160,626	-0,146	0,006
-287,832	-200,000	0,008	-0,118
-286,818	107,251	0,107	0,093
-285,803	253,337	0,027	-0,034
-284,789	-63,766	-0,083	0,025
-283,774	20,954	0,108	0,064
-282,759	-36,776	-0,077	0,030
-281,745	-101,621	0,023	-0,004
-280,730	268,927	0,107	0,138
-279,716	800,000	-0,041	-0,115
-278,701	309,266	-0,124	0,170
-277,686	-61,414	0,088	0,027
-276,672	220,759	-0,085	0,099
-275,657	-200,000	-0,004	-0,031
-274,643	308,177	0,038	-0,052
-273,628	94,508	-0,057	-0,047
-272,613	8,549	-0,103	0,056
-271,599	800,000	0,045	-0,092
-270,584	308,053	0,039	-0,054
-269,570	310,651	-0,081	0,112
-268,555	-16,442	-0,068	-0,031
-267,540	-164,059	-0,068	0,002
-266,526	-200,000	-0,006	-0,063
-265,511	-200,000	-0,015	-0,115
-264,497	152,547	0,095	-0,095
-263,482	697,748	0,065	-0,125
-262,467	-118,982	-0,191	-0,024
-261,453	-74,893	0,070	-0,018
-260,438	68,747	0,066	-0,049
-259,424	-92,460	0,056	-0,011
-258,409	-123,954	0,094	0,011
-257,395	-98,109	-0,054	0,010
-256,380	-1,037	0,011	0,006
-255,365	-30,577	-0,093	-0,038
-254,351	-5,163	0,090	-0,045
-253,336	-200,000	0,003	0,017
-252,322	637,067	0,050	0,094
-251,307	199,245	-0,050	0,056
-250,292	448,228	0,071	-0,115
-249,278	138,244	0,065	-0,062
-248,263	-48,448	0,040	-0,014
-247,249	335,778	0,028	-0,040
-246,234	-152,336	0,198	0,010
-245,219	-74,970	-0,135	0,035
-244,205	16,884	0,080	-0,046
-243,190	88,924	-0,061	-0,049
-242,176	-116,172	-0,070	-0,009
-241,161	132,194	0,066	0,063
-240,146	-50,787	-0,050	-0,017
-239,132	-11,564	-0,099	-0,048
-238,117	147,238	-0,107	-0,105
-237,103	35,240	-0,046	-0,029
-236,088	800,000	-0,024	-0,054
-235,073	-59,203	-0,060	0,019
-234,059	37,416	0,099	0,064
-233,044	-200,000	0,002	-0,072
-232,030	-42,980	-0,038	-0,014
-231,015	400,576	-0,067	-0,103
-230,000	-133,011	0,017	-0,002
-228,986	-135,707	-0,106	-0,009
-227,971	460,116	0,023	-0,038
-226,957	-16,630	0,083	-0,038
-225,942	-126,767	0,050	0,005
-224,927	-200,000	0,008	0,044
-223,913	112,772	0,112	-0,099
-222,898	734,925	-0,009	0,019
-221,884	-75,850	0,121	0,031
-220,869	-200,000	-0,042	0,197
-219,855	800,000	0,047	0,139
-218,840	83,776	0,099	0,079
-217,825	800,000	-0,058	0,137
-216,811	-200,000	0,005	0,053
-215,796	448,742	-0,039	0,063
-214,782	-200,000	-0,000	0,017
-213,767	74,455	-0,111	-0,085
-212,752	800,000	-0,014	0,038
-211,738	-200,000	0,011	-0,075
-210,723	13,216	0,071	-0,040
-209,709	800,000	-0,008	0,024
-208,694	800,000	-0,041	-0,094
-207,679	-200,000	0,044	-0,144
-206,665	-3,313	0,053	-0,027
-205,650	-1,332	0,064	-0,033
-204,636	635,956	0,046	0,086
-203,621	-200,000	0,025	0,000
-202,606	378,253	0,032	-0,048
-201,592	800,000	0,017	-0,051
-200,577	-200,000	0,005	0,161
-199,563	-200,000	0,007	-0,027
-198,548	20,455	0,102	0,060
-197,533	-23,894	-0,091	0,040
-196,519	800,000	0,013	-0,032
-195,504	212,609	-0,058	-0,066
-194,490	219,064	-0,061	0,071
-193,475	366,513	-0,029	-0,043
-192,460	129,293	-0,102	-0,095
-191,446	56,785	-0,039	0,028
-190,431	-8,504	0,032	0,016
-189,417	20,494	0,109	-0,064
-188,402	-137,898	-0,027	-0,002
-187,387	-5,880	-0,134	0,067
-186,373	175,702	-0,118	0,125
-185,358	800,000	-0,048	0,120
-184,344	800,000	-0,037	0,097
-183,329	-108,395	0,041	0,006
-182,315	-113,906	-0,026	-0,004
-181,300	549,787	-0,053	0,093
-180,285	263,206	0,085	0,108
-179,271	71,134	-0,040	0,030
-178,256	800,000	-0,035	-0,071
-177,242	-200,000	-0,002	-0,043
-176,227	372,841	0,026	-0,038
-175,212	181,961	-0,061	0,065
-174,198	-200,000	-0,035	0,125
-173,183	800,000	0,022	0,048
-172,169	800,000	0,055	-0,132
-171,154	-200,000	-0,022	-0,142
-170,139	79,099	0,035	0,027
-169,125	355,768	0,057	0,083
-168,110	-200,000	0,015	0,128
-167,096	24,113	-0,082	-0,049
-166,081	27,863	0,065	-0,040
-165,066	800,000	-0,036	-0,087
-164,052	459,339	-0,061	0,099
-163,037	-48,345	0,088	0,031
-162,023	-200,000	0,032	0,111
-161,008	-107,518	0,086	0,014
-159,993	-14,929	-0,099	-0,046
-158,979	156,456	-0,024	-0,024
-157,964	-39,705	-0,028	0,011
-156,950	-200,000	-0,007	0,092
-155,935	190,916	0,095	0,104
-154,920	800,000	0,043	0,103
-153,906	104,398	0,129	0,111
-152,891	800,000	0,027	-0,080
-151,877	700,421	0,047	-0,090
-150,862	295,588	0,053	0,070
-149,847	11,204	0,075	-0,042
-148,833	-200,000	-0,020	-0,090
-147,818	114,422	0,040	-0,035
-146,804	173,014	-0,031	-0,033
-145,789	-200,000	-0,003	0,129
-144,775	-64,442	-0,039	-0,011
-143,760	-200,000	-0,004	-0,063
-142,745	-200,000	0,010	-0,037
-141,731	800,000	-0,002	0,005
-140,716	-36,952	0,057	0,022
-139,702	-200,000	-0,014	0,187
-138,687	541,906	-0,055	-0,095
-137,672	-200,000	-0,006	0,058
-136,658	-29,881	0,021	-0,009
-135,643	800,000	-0,020	0,064
-134,629	95,528	0,041	-0,034
-133,614	800,000	0,022	-0,057
-132,599	189,802	-0,131	0,143
-131,585	800,000	-0,031	-0,076
-130,570	116,169	-0,040	-0,036
-129,556	-29,984	-0,068	0,028
-128,541	-87,080	-0,050	0,011
-127,526	602,071	-0,070	0,127
-126,512	800,000	-0,020	-0,046
-125,497	172,293	-0,038	-0,040
-124,483	-200,000	-0,000	0,087
-123,468	15,562	0,098	-0,056
-122,453	145,531	0,113	-0,110
-121,439	800,000	0,016	-0,049
-120,424	526,673	-0,036	-0,061
-119,410	59,898	-0,065	-0,046
-118,395	-200,000	-0,003	0,083
-117,380	-200,000	-0,003	0,048
-116,366	800,000	0,060	0,136
-115,351	-73,242	-0,094	0,025
-114,337	-7,367	-0,097	-0,048
-113,322	254,847	-0,065	-0,081
-112,307	-135,557	0,141	0,012
-111,293	63,885	0,163	-0,119
-110,278	-36,392	-0,080	-0,031
-109,264	-135,440	0,024	0,002
-108,249	800,000	0,027	-0,066
-107,234	194,438	-0,059	-0,065
-106,220	755,745	-0,043	-0,084
-105,205	8,091	-0,022	0,012
-104,191	29,158	-0,119	0,073
-103,176	-121,076	0,199	0,024
-102,162	317,408	-0,039	0,053
-101,147	74,805	-0,154	0,118
-100,132	98,623	-0,084	-0,070
-99,118	-200,000	-0,047	-0,162
-98,103	-200,000	-0,119	0,000
-97,089	49,259	0,095	0,065
-96,074	374,435	0,057	-0,085
-95,059	225,379	-0,046	0,054
-94,045	-86,962	-0,076	0,017
-93,030	-60,354	-0,147	-0,045
-92,016	259,604	0,112	-0,140
-91,001	549,567	0,040	-0,069
-89,986	38,361	0,144	0,093
-88,972	177,349	0,085	-0,090
-87,957	-88,414	-0,124	0,027
-86,943	176,310	-0,068	0,071
-85,928	-19,424	-0,139	0,062
-84,913	-67,007	0,050	0,014
-83,899	-200,000	-0,015	-0,119
-82,884	-158,237	0,107	-0,004
-81,870	-90,195	0,127	-0,027
-80,855	-200,000	-0,015	0,057
-79,840	-200,000	-0,003	0,032
-78,826	482,797	-0,022	-0,036
-77,811	-33,224	-0,083	-0,033
-76,797	800,000	0,015	-0,040
-75,782	57,140	-0,043	-0,031
-74,767	-200,000	0,006	0,163
-73,753	-1,758	0,109	0,056
-72,738	16,939	-0,085	0,049
-71,724	800,000	-0,053	-0,151
-70,709	62,891	0,012	0,009
-69,694	-200,000	-0,013	0,092
-68,680	-200,000	-0,005	-0,090
-67,665	-9,558	0,061	-0,029
-66,651	-200,000	0,014	-0,069
-65,636	83,761	-0,046	0,036
-64,622	221,217	-0,082	-0,095
-63,607	-70,824	-0,122	-0,033
-62,592	-136,987	-0,145	0,012
-61,578	-200,000	-0,033	0,129
-60,563	-99,650	0,184	0,033
-59,549	-200,000	-0,012	0,054
-58,534	-152,556	-1,214	-0,062
-57,519	800,000	-0,675	-1,480
-56,505	-200,000	-0,875	-4,459
-55,490	20,502	0,758	-0,444
-54,476	800,000	4,956	11,805
-53,461	-200,000	13,224	251,800
-52,446	-200,000	687,969	2272,916
-51,432	599,907	1623,475	2936,070
-50,417	121,354	1637,491	1479,996
-49,403	73,407	1291,813	980,015
-48,388	38,525	1026,295	662,637
-47,373	24,673	983,426	589,355
-46,359	23,904	973,164	580,655
-45,344	23,070	968,977	575,407
-44,330	22,909	967,730	574,115
-43,315	22,812	966,204	572,871
-42,300	22,843	964,921	572,187
-41,286	22,773	964,180	571,498
-40,271	22,852	963,264	571,191
-39,257	22,808	962,251	570,422
-38,242	22,733	961,445	569,679
-37,227	22,762	960,500	569,193
-36,213	22,839	959,592	568,879
-35,198	22,736	958,959	568,149
-34,184	22,832	958,255	568,018
-33,169	22,752	957,243	567,137
-32,154	22,812	956,406	566,814
-31,140	22,825	955,501	566,297
-30,125	22,856	954,609	565,845
-29,111	22,817	953,795	565,216
-28,096	22,900	952,879	564,916
-27,082	22,853	952,484	564,511
-26,067	22,840	951,821	564,052
-25,052	22,822	950,923	563,440
-24,038	22,862	950,228	563,132
-23,023	22,856	949,636	562,740
-22,009	22,942	948,896	562,557
-20,994	22,863	948,361	561,965
-19,979	22,797	947,747	561,368
-18,965	22,879	946,994	561,160
-17,950	22,869	946,577	560,858
-16,936	22,801	945,972	560,261
-15,921	22,804	945,156	559,764
-14,906	22,726	944,593	559,162
-13,892	22,754	943,787	558,751
-12,877	22,722	943,126	558,235
-11,863	22,671	942,620	557,752
-10,848	22,699	942,239	557,592
-9,833	22,812	941,777	557,655
-8,819	22,747	940,949	556,938
-7,804	22,719	940,301	556,445
-6,790	22,703	939,675	555,999
-5,775	22,736	939,013	555,690
-4,760	22,831	938,299	555,546
-3,746	22,753	937,740	554,947
-2,731	22,539	937,299	553,986
-1,717	22,503	936,542	553,403
-0,702	22,508	935,755	552,932
0,313	22,317	935,038	552,741
1,327	25,555	932,963	561,657
2,342	35,431	798,033	506,780
3,356	33,852	451,848	284,536
4,371	2,303	292,806	153,041
5,386	-2,297	273,825	138,769
6,400	-3,824	268,036	134,411
7,415	-4,225	265,427	132,723
8,429	-3,856	264,203	132,436
9,444	-3,972	263,350	131,892
10,459	-3,993	262,631	131,500
11,473	-4,140	262,337	131,209
12,488	-4,120	261,642	130,868
13,502	-4,297	261,073	130,412
14,517	-4,248	260,511	130,164
15,531	-4,221	260,356	130,099
16,546	-4,100	259,915	129,975
17,561	-4,173	259,503	129,692
18,575	-4,086	259,234	129,624
19,590	-3,949	258,908	129,572
20,604	-4,032	258,579	129,321
21,619	-4,269	258,396	129,007
22,634	-4,153	257,962	128,883
23,648	-4,280	257,728	128,641
24,663	-4,135	257,502	128,646
25,677	-4,191	257,235	128,452
26,692	-4,143	256,882	128,306
27,707	-4,236	256,628	128,086
28,721	-4,212	256,321	127,942
29,736	-4,269	256,124	127,782
30,750	-4,349	255,809	127,543
31,765	-4,105	255,530	127,607
32,780	-4,308	255,351	127,328
33,794	-4,136	255,250	127,417
34,809	-4,252	255,037	127,198
35,823	-4,389	254,729	126,912
36,838	-4,258	254,444	126,874
37,853	-4,129	254,243	126,876
38,867	-4,305	253,996	126,587
39,882	-4,187	253,693	126,528
40,896	-4,298	253,563	126,355
41,911	-4,248	253,323	126,267
42,926	-4,306	253,126	126,107
43,940	-4,487	252,953	125,852
44,955	-4,556	252,821	125,716
45,969	-4,529	252,533	125,585
46,984	-4,632	252,338	125,387
47,999	-4,798	251,864	124,997
49,013	-4,758	251,628	124,903
50,028	-5,177	251,470	124,450
51,042	-5,226	251,124	124,226
52,057	-5,067	250,915	124,249
53,071	-5,159	250,784	124,094
54,086	-5,142	250,685	124,049
55,101	-4,924	250,481	124,124
56,115	-4,689	250,316	124,233
57,130	-4,295	250,354	124,580
58,144	-4,069	250,060	124,617
59,159	-4,008	249,973	124,615
60,174	-4,114	249,702	124,378
61,188	-3,977	249,334	124,301
62,203	-4,066	249,224	124,158
63,217	-4,320	249,155	123,895
64,232	-4,104	248,926	123,955
65,247	-4,112	248,593	123,772
66,261	-4,284	248,357	123,497
67,276	-4,317	248,002	123,281
68,290	-4,447	247,930	123,124
69,305	-4,563	247,612	122,856
70,320	-4,668	247,562	122,731
71,334	-4,350	247,366	122,893
72,349	-4,163	247,294	123,005
73,363	-3,998	247,083	123,029
74,378	-4,043	246,827	122,852
75,393	-4,256	246,509	122,503
76,407	-4,155	246,403	122,525
77,422	-4,129	246,211	122,440
78,436	-4,143	246,022	122,324
79,451	-3,805	245,673	122,424
80,466	-4,140	245,588	122,089
81,480	-4,590	245,392	121,602
82,495	-4,590	245,246	121,518
83,509	-4,700	245,152	121,369
84,524	-4,419	244,784	121,411
85,539	-4,714	244,543	121,033
86,553	-4,595	244,389	121,047
87,568	-4,479	244,255	121,066
88,582	-4,325	243,953	121,034
89,597	-4,339	243,710	120,892
90,611	-4,301	243,634	120,874
91,626	-4,291	243,598	120,854
92,641	-4,082	243,386	120,913
93,655	-4,322	243,177	120,598
94,670	-4,374	243,188	120,550
95,684	-4,328	242,674	120,322
96,699	-4,316	242,710	120,339
97,714	-4,382	242,452	120,146
98,728	-4,397	242,178	119,987
99,743	-4,619	242,008	119,708
100,757	-4,570	241,753	119,612
101,772	-4,469	241,669	119,643
102,787	-4,366	241,370	119,569
103,801	-4,441	241,187	119,406
104,816	-4,310	241,271	119,545
105,830	-4,538	241,107	119,265
106,845	-4,185	240,959	119,473
107,860	-4,117	240,777	119,428
108,874	-4,258	240,355	119,092
109,889	-4,405	240,272	118,919
110,903	-4,393	240,046	118,807
111,918	-4,516	239,853	118,599
112,933	-4,368	239,814	118,691
113,947	-4,388	239,424	118,471
114,962	-4,384	239,541	118,522
115,976	-4,149	239,242	118,555
116,991	-4,274	239,107	118,376
118,006	-4,305	238,825	118,200
119,020	-4,267	238,842	118,229
120,035	-4,310	238,845	118,185
121,049	-4,005	238,510	118,257
122,064	-4,226	238,255	117,940
123,079	-4,240	238,149	117,867
124,093	-4,344	237,905	117,650
125,108	-4,356	237,688	117,522
126,122	-4,611	237,386	117,156
127,137	-4,681	237,207	117,001
128,151	-4,645	237,033	116,934
129,166	-4,497	236,994	117,024
130,181	-4,550	236,782	116,866
131,195	-4,667	236,508	116,626
132,210	-4,734	236,623	116,618
133,224	-4,309	236,256	116,770
134,239	-4,250	236,186	116,772
135,254	-4,190	235,951	116,694
136,268	-4,454	235,813	116,403
137,283	-4,633	235,575	116,131
138,297	-4,643	235,235	115,945
139,312	-4,660	235,143	115,875
140,327	-4,332	235,119	116,116
141,341	-4,007	235,146	116,380
142,356	-3,970	234,881	116,268
143,370	-3,945	234,879	116,277
144,385	-3,791	234,570	116,236
145,400	-3,913	234,475	116,081
146,414	-4,042	234,181	115,823
147,429	-3,847	234,075	115,916
148,443	-4,008	233,895	115,687
149,458	-3,881	233,707	115,685
150,473	-3,828	233,538	115,634
151,487	-3,959	233,433	115,467
152,502	-4,045	233,168	115,258
153,516	-4,071	233,167	115,226
154,531	-3,880	232,848	115,210
155,546	-4,091	232,869	115,043
156,560	-4,051	232,634	114,947
157,575	-4,119	232,305	114,721
158,589	-4,342	232,136	114,452
159,604	-3,984	232,098	114,705
160,619	-3,942	231,966	114,663
161,633	-3,873	231,924	114,686
162,648	-3,874	231,628	114,529
163,662	-4,053	231,511	114,320
164,677	-3,952	231,327	114,299
165,692	-4,022	231,151	114,146
166,706	-3,755	230,896	114,220
167,721	-3,882	230,952	114,137
168,735	-3,782	230,815	114,138
169,750	-3,855	230,696	114,012
170,764	-3,924	230,491	113,847
171,779	-3,953	230,302	113,720
172,794	-3,796	230,122	113,743
173,808	-4,115	229,958	113,403
174,823	-4,449	229,587	112,950
175,837	-4,787	229,429	112,598
176,852	-4,334	229,335	112,895
177,867	-3,902	229,287	113,198
178,881	-3,861	229,162	113,158
179,896	-3,698	229,055	113,222
180,910	-3,763	228,845	113,058
181,925	-3,840	228,715	112,924
182,940	-3,908	228,616	112,812
183,954	-3,736	228,301	112,780
184,969	-3,547	228,221	112,877
185,983	-3,642	228,257	112,811
186,998	-3,896	227,917	112,436
188,013	-3,490	227,924	112,744
189,027	-3,815	227,686	112,364
190,042	-3,718	227,476	112,325
191,056	-3,641	227,274	112,275
192,071	-3,743	227,323	112,211
193,086	-3,924	227,096	111,949
194,100	-3,717	226,938	112,021
195,115	-4,095	226,533	111,520
196,129	-4,605	226,281	110,994
197,144	-1,355	227,189	113,935
198,159	2,285	228,356	117,323
199,173	4,104	228,670	118,879
200,188	4,150	228,684	118,911
201,202	4,322	228,433	118,903
202,217	4,603	228,288	119,033
203,232	4,788	228,320	119,182
204,246	4,750	228,122	119,039
205,261	4,765	228,037	118,995
206,275	4,935	227,885	119,035
207,290	5,007	227,765	119,018
208,304	4,964	227,523	118,848
209,319	5,054	227,391	118,837
210,334	4,889	227,292	118,649
211,348	4,665	227,015	118,322
212,363	4,082	226,819	117,763
213,377	3,855	226,621	117,476
214,392	4,021	226,422	117,489
215,407	4,036	226,316	117,436
216,421	4,307	226,167	117,554
217,436	4,179	226,027	117,374
218,450	3,964	225,767	117,064
219,465	3,995	225,413	116,894
220,480	4,035	225,444	116,930
221,494	3,900	225,380	116,784
222,509	3,817	225,266	116,651
223,523	4,102	225,079	116,760
224,538	4,026	224,930	116,615
225,553	4,094	224,738	116,557
226,567	4,081	224,718	116,526
227,582	4,392	224,550	116,664
228,596	4,341	224,509	116,594
229,611	4,130	224,299	116,315
230,626	3,970	224,053	116,056
231,640	4,021	223,797	115,952
232,655	4,192	223,805	116,074
233,669	4,622	223,845	116,409
234,684	4,717	223,585	116,334
235,699	4,364	223,575	116,053
236,713	4,011	223,280	115,624
237,728	4,097	222,974	115,520
238,742	3,895	222,852	115,295
239,757	3,951	222,802	115,301
240,772	4,229	222,568	115,378
241,786	4,001	222,434	115,127
242,801	4,207	222,380	115,243
243,815	4,528	222,311	115,437
244,830	4,551	222,115	115,342
245,844	4,459	221,850	115,126
246,859	4,264	221,729	114,908
247,874	4,042	221,673	114,703
248,888	4,394	221,633	114,934
249,903	4,175	221,330	114,603
250,917	4,018	221,213	114,416
251,932	4,191	221,000	114,424
252,947	4,010	221,084	114,323
253,961	3,965	220,702	114,082
254,976	4,034	220,504	114,021
255,990	4,165	220,493	114,102
257,005	4,065	220,486	114,014
258,020	4,202	220,253	113,985
259,034	4,353	220,246	114,082
260,049	4,255	219,964	113,854
261,063	4,166	219,851	113,720
262,078	4,500	219,746	113,901
263,093	4,542	219,660	113,877
264,107	4,324	219,350	113,547
265,122	4,158	219,358	113,418
266,136	4,508	219,204	113,586
267,151	4,475	219,176	113,537
268,166	4,146	218,764	113,072
269,180	3,989	218,472	112,796
270,195	3,707	218,470	112,578
271,209	4,195	218,168	112,770
272,224	4,063	218,118	112,637
273,239	4,141	218,063	112,656
274,253	3,883	217,979	112,414
275,268	3,921	217,727	112,301
276,282	3,774	217,544	112,090
277,297	3,666	217,353	111,903
278,312	3,782	217,301	111,951
279,326	4,035	217,219	112,082
280,341	3,958	217,091	111,950
281,355	4,067	217,061	112,004
282,370	4,181	216,723	111,903
283,384	3,890	216,517	111,575
284,399	3,614	216,411	111,310
285,414	3,743	216,243	111,307
286,428	4,110	216,235	111,560
287,443	4,236	216,173	111,609
288,457	4,341	215,948	111,558
289,472	4,132	215,699	111,269
290,487	3,601	215,530	110,788
291,501	3,390	215,490	110,606
292,516	3,723	215,375	110,777
293,530	3,738	215,193	110,684
294,545	3,430	215,186	110,449
295,560	3,694	214,993	110,530
296,574	3,992	214,770	110,620
297,589	4,117	214,605	110,614
298,603	4,291	214,478	110,664
299,618	4,238	214,409	110,581
300,633	4,073	214,343	110,418
301,647	4,325	214,220	110,526
302,662	4,318	213,972	110,383
303,676	4,319	213,965	110,371
304,691	4,466	213,856	110,409
305,706	4,593	213,660	110,389
306,720	4,234	213,533	110,058
307,735	4,097	213,416	109,889
308,749	4,103	213,111	109,727
309,764	4,018	213,082	109,642
310,779	4,328	212,945	109,782
311,793	4,312	212,866	109,720
312,808	3,916	212,782	109,386
313,822	4,100	212,594	109,410
314,837	4,065	212,459	109,306
315,852	3,652	212,265	108,903
316,866	3,897	212,094	108,980
317,881	4,412	211,940	109,255
318,895	4,143	211,955	109,063
319,910	3,944	211,750	108,807
320,925	3,795	211,451	108,538
321,939	3,393	211,388	108,212
322,954	3,780	211,258	108,409
323,968	4,042	211,279	108,595
324,983	4,384	211,165	108,768
325,997	4,518	210,797	108,663
327,012	4,181	210,784	108,409
328,027	4,076	210,793	108,331
329,041	4,429	210,666	108,504
330,056	4,560	210,629	108,567
331,070	4,192	210,243	108,101
332,085	3,986	209,956	107,798
333,100	4,108	209,908	107,850
334,114	3,941	209,789	107,663
335,129	3,988	209,541	107,558
336,143	3,892	209,415	107,417
337,158	3,818	209,321	107,308
338,173	3,921	209,262	107,340
339,187	3,688	209,266	107,170
340,202	3,676	208,982	107,006
341,216	3,615	208,824	106,873
342,231	3,982	208,780	107,097
343,246	3,814	208,636	106,897
344,260	3,916	208,437	106,856
345,275	3,860	208,382	106,779
346,289	3,998	208,327	106,837
347,304	4,028	208,157	106,761
348,319	4,019	208,012	106,671
349,333	4,033	207,792	106,559
350,348	4,136	207,750	106,599
351,362	4,383	207,559	106,662
352,377	4,110	207,514	106,441
353,392	3,976	207,303	106,231
354,406	4,114	207,146	106,235
355,421	193,776	1346,556	1434,787
356,435	154,563	1485,498	1434,924
