DTS Sentinel unit serial number:	SN410029Multiplexer serial number:	ORYXHardware model number:	OX2-SRSoftware version number:	ORYX F/W v4,00 Oryx Data Collector v3.7.2.0data status	okinstallation	B6 Nyhavnadifferential loss correction	single-endedforward channel	channel 2reverse channel	N/Adate	2023/12/09time	16:45:08forward acquisition time	300,00reverse acquisition time	0,00gamma	499,1914k internal	0,3131k external	0,3131temperature offset calibration	1,0000default loss term (dB/km)	0,3820temperature slope calibration	1,0000multiplexer offset coefficient	1,0000multiplexer slope coefficient	1,0000fibre end	0,00T internal ref (°C)	20,90T ext. ref 1 (°C)	4,70T ext. ref 2 (°C)	4,70length (m)	temperature (°C)	Stokes	anti-Stokes-744,400	800,000	0,029	0,094
-743,385	-25,081	-0,307	0,135
-742,371	-0,275	0,094	0,050
-741,356	345,648	-0,144	0,211
-740,342	25,015	0,157	0,097
-739,327	-163,601	-0,339	-0,012
-738,312	19,930	0,133	0,080
-737,298	-148,132	-0,250	0,015
-736,283	223,298	0,074	-0,089
-735,269	-107,419	-0,213	0,034
-734,254	35,977	-0,043	-0,028
-733,239	-129,714	-0,330	0,033
-732,225	-111,110	0,160	-0,024
-731,210	-25,731	0,089	0,039
-730,196	-200,000	0,014	0,056
-729,181	-101,853	-0,100	-0,018
-728,167	-44,141	0,138	-0,051
-727,152	800,000	-0,009	0,021
-726,137	-123,224	-0,026	-0,003
-725,123	-54,476	-0,041	-0,014
-724,108	-140,935	-0,236	-0,018
-723,094	800,000	-0,046	-0,100
-722,079	169,370	-0,037	-0,040
-721,064	195,378	-0,140	-0,159
-720,050	-170,688	-0,106	-0,003
-719,035	-49,247	-0,086	-0,030
-718,021	-57,649	-0,059	-0,019
-717,006	543,565	-0,022	0,040
-715,991	-8,365	-0,046	-0,023
-714,977	221,855	-0,091	-0,109
-713,962	7,052	0,044	0,025
-712,948	-160,532	-0,081	-0,003
-711,933	-35,917	-0,125	-0,050
-710,918	381,742	0,036	0,056
-709,904	-200,000	-0,013	-0,115
-708,889	11,054	0,078	0,044
-707,875	142,912	-0,122	0,120
-706,860	96,056	0,068	0,057
-705,845	-200,000	0,006	0,088
-704,831	-200,000	0,011	0,072
-703,816	800,000	0,010	-0,029
-702,802	155,962	0,075	-0,077
-701,787	-31,905	-0,068	-0,028
-700,772	-200,000	-0,017	-0,169
-699,758	61,255	0,083	-0,061
-698,743	800,000	0,009	-0,030
-697,729	-200,000	0,021	-0,071
-696,714	-200,000	-0,033	-0,167
-695,699	72,834	-0,061	0,047
-694,685	-200,000	0,014	-0,065
-693,670	-200,000	-0,001	0,058
-692,656	462,097	-0,063	0,104
-691,641	654,828	0,021	0,041
-690,627	-200,000	-0,024	0,134
-689,612	378,143	-0,065	-0,098
-688,597	-200,000	0,014	-0,112
-687,583	-200,000	-0,005	-0,103
-686,568	-200,000	0,033	-0,113
-685,554	-200,000	0,000	-0,142
-684,539	412,659	-0,032	0,051
-683,524	-200,000	-0,007	-0,063
-682,510	96,907	-0,038	0,032
-681,495	165,774	0,012	0,013
-680,481	-64,118	0,167	0,050
-679,466	66,399	-0,096	-0,072
-678,451	-126,414	-0,025	-0,003
-677,437	-131,922	0,081	-0,008
-676,422	-200,000	0,012	-0,072
-675,408	-200,000	-0,042	0,162
-674,393	-200,000	-0,004	-0,078
-673,378	596,831	0,022	-0,041
-672,364	-79,576	-0,287	-0,071
-671,349	-22,897	-0,125	0,056
-670,335	70,158	-0,111	0,085
-669,320	-124,487	0,055	0,006
-668,305	-156,681	-0,134	-0,006
-667,291	-200,000	0,009	0,128
-666,276	-200,000	0,061	0,206
-665,262	386,334	-0,101	0,155
-664,247	-122,101	-0,111	-0,013
-663,232	582,059	-0,051	-0,092
-662,218	-83,342	0,088	-0,021
-661,203	35,480	0,007	0,005
-660,189	-51,849	0,056	-0,019
-659,174	29,463	-0,153	-0,096
-658,159	800,000	-0,058	0,161
-657,145	-50,300	-0,066	0,023
-656,130	-72,291	0,104	-0,028
-655,116	-159,227	0,047	-0,002
-654,101	134,763	0,035	-0,033
-653,086	-200,000	0,009	-0,063
-652,072	121,525	0,033	0,030
-651,057	800,000	-0,032	-0,074
-650,043	27,051	0,055	0,034
-649,028	47,156	-0,081	-0,055
-648,014	-200,000	-0,023	-0,078
-646,999	-200,000	-0,000	0,080
-645,984	800,000	0,031	-0,068
-644,970	17,022	-0,033	0,019
-643,955	800,000	-0,005	-0,016
-642,941	596,885	-0,026	-0,048
-641,926	-17,020	0,203	-0,095
-640,911	695,211	-0,064	0,126
-639,897	39,240	-0,046	0,030
-638,882	412,982	-0,021	0,033
-637,868	-200,000	0,028	0,105
-636,853	69,293	-0,069	-0,052
-635,838	-200,000	-0,035	-0,142
-634,824	245,113	-0,065	-0,081
-633,809	-5,546	-0,074	-0,037
-632,795	16,060	0,059	0,034
-631,780	101,387	0,048	0,041
-630,765	-200,000	0,003	-0,096
-629,751	46,387	-0,019	-0,013
-628,736	-81,646	0,079	-0,019
-627,722	-200,000	-0,017	-0,089
-626,707	256,548	0,064	0,082
-625,692	-200,000	-0,006	0,028
-624,678	15,609	-0,037	-0,022
-623,663	177,693	-0,031	0,034
-622,649	-54,607	-0,081	-0,027
-621,634	-40,370	-0,129	-0,049
-620,619	-62,470	-0,103	-0,031
-619,605	-200,000	0,017	-0,186
-618,590	258,759	0,060	0,077
-617,576	-200,000	-0,028	0,148
-616,561	-151,484	0,081	0,004
-615,546	800,000	-0,026	-0,058
-614,532	532,513	-0,121	-0,212
-613,517	-200,000	0,010	-0,065
-612,503	243,467	-0,125	-0,155
-611,488	-62,724	0,087	-0,026
-610,474	281,439	-0,045	-0,059
-609,459	-128,666	-0,112	0,012
-608,444	800,000	-0,032	-0,067
-607,430	134,561	-0,058	-0,056
-606,415	800,000	0,033	-0,087
-605,401	-19,749	0,074	0,034
-604,386	-200,000	0,019	-0,128
-603,371	-200,000	-0,015	0,090
-602,357	800,000	-0,016	0,040
-601,342	800,000	0,042	-0,115
-600,328	557,834	0,033	-0,059
-599,313	-47,356	-0,142	-0,051
-598,298	-200,000	-0,029	0,143
-597,284	440,975	0,052	0,084
-596,269	-75,355	-0,051	0,013
-595,255	722,551	-0,045	0,088
-594,240	332,500	-0,049	-0,070
-593,225	206,191	0,104	0,119
-592,211	40,685	0,102	0,068
-591,196	800,000	-0,010	-0,020
-590,182	322,378	-0,051	-0,072
-589,167	26,846	0,038	-0,023
-588,152	800,000	-0,023	0,048
-587,138	120,131	-0,052	-0,047
-586,123	-200,000	0,014	-0,145
-585,109	800,000	0,060	-0,126
-584,094	-200,000	-0,029	0,115
-583,079	-40,202	0,091	0,035
-582,065	-5,585	0,010	0,005
-581,050	-200,000	-0,039	0,156
-580,036	-109,028	-0,121	0,019
-579,021	74,727	0,124	-0,096
-578,006	133,301	-0,138	-0,132
-576,992	199,838	-0,107	-0,122
-575,977	10,760	-0,055	-0,031
-574,963	536,359	-0,036	0,063
-573,948	0,347	-0,076	0,040
-572,934	135,298	0,138	0,133
-571,919	207,280	-0,058	-0,067
-570,904	131,136	-0,065	0,061
-569,890	84,296	-0,096	-0,077
-568,875	223,551	0,036	0,042
-567,861	-89,131	0,061	0,013
-566,846	-24,137	0,103	0,045
-565,831	91,231	0,013	0,011
-564,817	-200,000	-0,010	-0,106
-563,802	147,336	-0,071	-0,070
-562,788	-200,000	-0,007	0,064
-561,773	108,323	0,072	-0,064
-560,758	33,973	-0,057	0,036
-559,744	-200,000	-0,036	0,119
-558,729	237,821	-0,034	0,042
-557,715	-3,450	-0,077	-0,039
-556,700	800,000	-0,040	0,096
-555,685	390,534	0,060	-0,093
-554,671	396,252	-0,068	0,105
-553,656	171,736	0,040	0,042
-552,642	-83,380	0,068	0,016
-551,627	800,000	0,023	0,058
-550,612	-200,000	0,003	-0,042
-549,598	-97,753	0,110	0,021
-548,583	-200,000	-0,014	-0,110
-547,569	2,109	-0,128	-0,068
-546,554	-79,374	0,049	-0,012
-545,539	-153,415	0,046	-0,002
-544,525	-200,000	0,002	0,022
-543,510	-108,814	-0,055	-0,009
-542,496	-170,148	-0,156	0,004
-541,481	-200,000	-0,002	0,067
-540,466	277,179	0,040	-0,053
-539,452	-200,000	0,008	-0,077
-538,437	-36,966	-0,122	-0,048
-537,423	800,000	0,047	0,147
-536,408	-200,000	0,001	-0,073
-535,393	-200,000	-0,019	-0,107
-534,379	221,381	0,021	-0,025
-533,364	124,548	0,043	-0,040
-532,350	-130,660	0,014	-0,001
-531,335	-104,660	0,047	0,008
-530,321	593,335	-0,080	0,147
-529,306	-7,697	-0,045	-0,022
-528,291	800,000	-0,050	-0,161
-527,277	-200,000	-0,015	-0,085
-526,262	122,889	0,069	0,064
-525,248	-200,000	0,023	0,097
-524,233	-200,000	0,005	0,123
-523,218	-200,000	-0,027	0,192
-522,204	324,953	0,047	-0,067
-521,189	113,347	0,028	-0,025
-520,175	10,888	-0,125	0,070
-519,160	-26,983	-0,056	-0,024
-518,145	-200,000	-0,033	0,108
-517,131	24,428	-0,075	-0,046
-516,116	-29,046	0,189	-0,080
-515,102	800,000	-0,071	0,198
-514,087	800,000	-0,006	0,018
-513,072	19,554	-0,064	-0,038
-512,058	120,759	-0,045	0,041
-511,043	565,023	0,044	0,079
-510,029	-200,000	0,004	0,110
-509,014	-200,000	-0,015	-0,063
-507,999	-200,000	0,008	-0,057
-506,985	-200,000	-0,018	-0,081
-505,970	-200,000	-0,031	0,123
-504,956	-159,147	0,043	0,002
-503,941	278,681	-0,069	0,091
-502,926	800,000	0,018	-0,041
-501,912	-17,605	0,085	-0,039
-500,897	59,122	-0,054	-0,039
-499,883	-43,142	-0,104	-0,039
-498,868	-83,599	-0,088	-0,020
-497,853	170,715	-0,060	0,064
-496,839	758,498	0,089	-0,178
-495,824	288,388	-0,048	-0,064
-494,810	-6,397	-0,044	0,022
-493,795	11,629	0,112	0,063
-492,781	-200,000	-0,013	-0,115
-491,766	77,271	-0,102	-0,080
-490,751	159,210	0,048	-0,050
-489,737	-200,000	0,005	-0,059
-488,722	77,717	-0,052	0,041
-487,708	-200,000	0,012	0,052
-486,693	41,817	0,033	0,022
-485,678	-200,000	0,011	-0,052
-484,664	800,000	-0,055	-0,114
-483,649	-27,973	-0,034	0,014
-482,635	197,633	0,010	-0,012
-481,620	-143,606	-0,072	0,005
-480,605	-80,064	0,100	-0,024
-479,591	-73,185	-0,079	-0,021
-478,576	800,000	0,043	0,120
-477,562	98,443	-0,053	-0,045
-476,547	800,000	-0,097	-0,218
-475,532	126,521	-0,071	-0,066
-474,518	800,000	-0,018	-0,039
-473,503	-200,000	0,004	0,021
-472,489	-200,000	-0,024	0,158
-471,474	686,795	0,043	0,083
-470,459	164,170	-0,017	0,018
-469,445	-1,823	0,056	0,029
-468,430	219,501	0,023	0,027
-467,416	-53,541	0,113	0,038
-466,401	52,775	-0,068	0,048
-465,386	87,953	0,101	0,082
-464,372	48,087	0,045	0,031
-463,357	-200,000	0,028	-0,094
-462,343	-200,000	-0,001	-0,056
-461,328	124,321	-0,096	-0,088
-460,313	96,500	-0,014	0,012
-459,299	-55,625	-0,099	0,032
-458,284	281,656	0,136	0,180
-457,270	-200,000	0,009	-0,033
-456,255	330,709	0,033	0,047
-455,241	-179,025	-0,081	-0,001
-454,226	-114,898	-0,061	-0,008
-453,211	-39,648	0,071	-0,027
-452,197	-200,000	-0,013	-0,064
-451,182	20,036	0,077	0,046
-450,168	-20,718	0,048	0,022
-449,153	-65,895	-0,130	-0,038
-448,138	402,702	0,019	0,029
-447,124	-28,058	0,068	0,029
-446,109	136,537	-0,043	0,041
-445,095	-200,000	0,022	0,081
-444,080	800,000	0,005	0,016
-443,065	800,000	0,011	0,030
-442,051	-200,000	-0,005	0,165
-441,036	800,000	-0,030	0,086
-440,022	800,000	-0,018	0,042
-439,007	-200,000	-0,002	0,064
-437,992	315,375	0,028	-0,039
-436,978	108,228	-0,016	0,014
-435,963	343,652	-0,055	-0,080
-434,949	800,000	-0,017	-0,049
-433,934	243,991	-0,082	-0,101
-432,919	9,680	-0,104	-0,058
-431,905	-200,000	0,016	-0,065
-430,890	-200,000	-0,030	0,133
-429,876	800,000	0,040	0,099
-428,861	-61,327	-0,121	-0,037
-427,846	448,610	-0,045	-0,073
-426,832	800,000	0,002	0,005
-425,817	-178,461	-0,099	0,002
-424,803	127,411	0,058	-0,054
-423,788	-20,843	0,102	-0,046
-422,773	-157,270	0,126	0,005
-421,759	-30,033	-0,039	-0,016
-420,744	168,318	0,071	0,075
-419,730	791,624	-0,054	-0,109
-418,715	104,965	-0,079	-0,069
-417,701	73,824	0,105	-0,081
-416,686	-130,736	-0,128	-0,012
-415,671	1,040	0,113	0,059
-414,657	-94,734	-0,103	0,020
-413,642	555,063	-0,047	0,083
-412,628	107,555	-0,093	-0,081
-411,613	64,531	-0,102	-0,076
-410,598	-200,000	-0,011	-0,050
-409,584	-72,794	-0,084	0,023
-408,569	800,000	0,050	0,162
-407,555	319,087	0,018	0,025
-406,540	52,169	0,070	0,049
-405,525	190,059	-0,094	-0,104
-404,511	407,344	-0,033	-0,051
-403,496	1,225	0,119	-0,063
-402,482	800,000	-0,076	0,218
-401,467	51,761	0,119	-0,083
-400,452	800,000	-0,064	-0,135
-399,438	-37,962	0,111	0,043
-398,423	-200,000	0,019	0,083
-397,409	-91,028	0,021	0,004
-396,394	-200,000	-0,019	-0,166
-395,379	-20,931	0,099	0,044
-394,365	79,822	0,129	0,102
-393,350	132,245	0,046	0,044
-392,336	4,155	-0,060	0,032
-391,321	494,163	0,057	-0,096
-390,306	-200,000	0,018	-0,104
-389,292	187,257	-0,080	0,087
-388,277	-200,000	-0,010	-0,085
-387,263	-200,000	0,009	-0,104
-386,248	-200,000	-0,014	-0,092
-385,233	800,000	-0,077	0,197
-384,219	12,350	-0,224	-0,126
-383,204	-200,000	0,064	0,000
-382,190	-200,000	0,014	0,066
-381,175	800,000	0,026	-0,084
-380,160	-106,691	0,170	0,027
-379,146	177,949	-0,038	0,041
-378,131	-200,000	-0,003	-0,033
-377,117	800,000	-0,025	0,063
-376,102	800,000	0,043	0,125
-375,088	96,053	-0,021	0,017
-374,073	124,353	-0,048	-0,044
-373,058	-200,000	0,002	0,027
-372,044	2,807	0,057	-0,030
-371,029	227,318	0,037	0,044
-370,015	-6,338	0,062	-0,031
-369,000	800,000	-0,048	0,121
-367,985	-129,129	0,003	-0,000
-366,971	-96,212	0,038	0,007
-365,956	800,000	-0,046	0,112
-364,942	18,380	0,069	-0,041
-363,927	585,879	-0,043	-0,077
-362,912	-12,977	-0,181	0,086
-361,898	-173,021	0,078	-0,002
-360,883	36,661	-0,018	0,012
-359,869	-200,000	0,019	0,067
-358,854	80,145	0,169	0,133
-357,839	35,833	-0,037	0,024
-356,825	-200,000	0,002	-0,015
-355,810	295,186	0,087	-0,116
-354,796	103,341	-0,045	0,039
-353,781	24,979	-0,080	-0,049
-352,766	800,000	-0,026	-0,085
-351,752	800,000	-0,010	0,025
-350,737	-127,670	0,069	0,007
-349,723	305,478	0,064	0,087
-348,708	800,000	0,034	-0,088
-347,693	113,131	0,087	-0,077
-346,679	459,163	-0,031	0,051
-345,664	-4,690	0,061	-0,031
-344,650	-200,000	-0,020	0,115
-343,635	88,356	0,052	0,042
-342,620	1,385	0,035	0,018
-341,606	-200,000	0,010	-0,100
-340,591	73,838	0,025	-0,020
-339,577	800,000	0,029	-0,072
-338,562	6,425	0,034	-0,019
-337,548	-200,000	-0,009	-0,061
-336,533	212,081	-0,109	0,126
-335,518	-149,503	0,082	-0,005
-334,504	-179,426	0,133	0,002
-333,489	209,027	0,075	-0,086
-332,475	212,837	-0,085	-0,098
-331,460	177,570	-0,102	0,108
-330,445	-200,000	0,021	-0,077
-329,431	287,932	0,029	0,038
-328,416	-173,601	0,047	0,001
-327,402	224,660	0,056	-0,066
-326,387	268,770	0,044	-0,057
-325,372	-200,000	0,026	0,090
-324,358	312,201	0,074	0,102
-323,343	123,287	-0,079	-0,072
-322,329	328,676	0,068	0,095
-321,314	158,356	0,117	0,119
-320,299	-145,698	-0,032	0,002
-319,285	-110,426	0,082	-0,012
-318,270	129,809	-0,018	0,017
-317,256	-130,528	-0,044	0,004
-316,241	-12,935	0,030	-0,014
-315,226	-200,000	-0,008	-0,037
-314,212	-85,299	0,106	-0,024
-313,197	800,000	0,044	0,098
-312,183	-15,478	-0,007	0,003
-311,168	9,246	0,119	0,066
-310,153	-200,000	-0,024	-0,080
-309,139	-122,809	-0,104	-0,012
-308,124	-164,397	0,136	0,004
-307,110	477,434	0,022	0,037
-306,095	136,539	0,045	-0,043
-305,080	800,000	0,045	0,109
-304,066	-79,473	-0,080	-0,020
-303,051	-200,000	0,005	-0,036
-302,037	567,923	-0,047	-0,083
-301,022	-11,926	-0,068	-0,033
-300,008	-200,000	0,022	-0,111
-298,993	38,230	-0,068	0,044
-297,978	-41,642	-0,073	0,027
-296,964	-200,000	-0,026	-0,102
-295,949	800,000	-0,004	-0,009
-294,935	38,852	-0,108	-0,071
-293,920	-200,000	0,036	-0,118
-292,905	-153,283	0,077	0,004
-291,891	225,899	-0,013	-0,015
-290,876	-200,000	-0,022	0,071
-289,862	800,000	0,042	0,099
-288,847	800,000	-0,055	-0,114
-287,832	-44,789	0,180	0,065
-286,818	800,000	0,020	0,051
-285,803	-200,000	0,002	-0,046
-284,789	800,000	0,052	0,123
-283,774	-200,000	0,021	0,156
-282,759	-200,000	0,007	-0,038
-281,745	-27,029	0,123	-0,052
-280,730	-170,207	-0,115	0,003
-279,716	44,061	0,035	0,024
-278,701	-100,113	-0,033	-0,006
-277,686	541,259	0,045	-0,078
-276,672	800,000	0,027	0,055
-275,657	365,002	0,018	-0,027
-274,643	-49,524	0,055	-0,019
-273,628	-82,673	-0,133	-0,031
-272,613	-81,456	0,131	0,031
-271,599	-127,735	0,120	-0,012
-270,584	-132,194	-0,027	0,002
-269,570	-200,000	-0,042	0,170
-268,555	367,128	-0,046	-0,068
-267,540	-64,468	-0,146	0,043
-266,526	-200,000	-0,001	0,043
-265,511	-155,611	0,099	0,005
-264,497	800,000	0,053	0,119
-263,482	111,838	-0,062	-0,055
-262,467	456,185	0,064	0,104
-261,453	-135,205	0,053	0,005
-260,438	-13,329	-0,119	-0,056
-259,424	726,913	0,026	-0,051
-258,409	-118,321	-0,101	-0,013
-257,395	-53,390	0,159	0,053
-256,380	-106,720	0,054	0,009
-255,365	-200,000	0,007	0,030
-254,351	737,769	-0,030	0,059
-253,336	-111,790	0,022	0,003
-252,322	-200,000	0,005	-0,070
-251,307	71,858	0,016	-0,012
-250,292	284,981	-0,098	-0,129
-249,278	-6,484	0,081	0,040
-248,263	-200,000	-0,009	0,133
-247,249	225,769	-0,034	-0,040
-246,234	284,473	-0,048	0,063
-245,219	-128,249	-0,059	-0,006
-244,205	121,255	0,105	-0,095
-243,190	10,845	0,020	0,011
-242,176	171,655	0,101	-0,106
-241,161	800,000	-0,015	0,041
-240,146	106,789	0,035	-0,030
-239,132	800,000	-0,095	0,240
-238,117	-38,878	0,152	0,058
-237,103	-71,440	-0,246	-0,067
-236,088	232,098	0,039	-0,046
-235,073	-80,769	0,233	-0,056
-234,059	-200,000	0,019	-0,092
-233,044	126,490	-0,043	0,040
-232,030	217,255	-0,086	-0,100
-231,015	-200,000	-0,028	-0,154
-230,000	-103,761	-0,109	-0,018
-228,986	66,603	-0,045	-0,033
-227,971	-200,000	-0,017	0,096
-226,957	27,853	0,077	-0,047
-225,942	-61,108	0,047	-0,014
-224,927	-200,000	-0,011	0,144
-223,913	132,576	-0,048	0,045
-222,898	117,126	-0,077	0,069
-221,884	800,000	0,012	0,028
-220,869	-200,000	-0,027	0,149
-219,855	391,040	0,094	0,142
-218,840	381,662	0,054	0,080
-217,825	7,887	0,082	0,045
-216,811	-200,000	-0,009	0,111
-215,796	-40,922	0,161	0,060
-214,782	-83,983	0,032	-0,007
-213,767	269,537	-0,015	0,020
-212,752	146,751	-0,005	0,005
-211,738	-113,701	0,049	0,007
-210,723	23,540	-0,022	0,013
-209,709	-63,920	0,037	-0,011
-208,694	86,233	-0,004	0,003
-207,679	-200,000	0,001	-0,033
-206,665	800,000	-0,026	-0,060
-205,650	800,000	0,030	0,083
-204,636	-143,907	0,087	-0,006
-203,621	-56,520	0,059	0,019
-202,606	800,000	-0,045	-0,098
-201,592	92,169	-0,099	-0,081
-200,577	3,462	0,091	-0,048
-199,563	-200,000	-0,010	-0,063
-198,548	-110,544	0,093	-0,014
-197,533	-129,830	-0,043	-0,004
-196,519	-113,145	0,123	0,018
-195,504	583,399	-0,066	-0,119
-194,490	-90,582	0,067	0,014
-193,475	800,000	-0,013	0,040
-192,460	-22,625	-0,026	-0,011
-191,446	-69,353	0,065	0,018
-190,431	-200,000	-0,019	0,066
-189,417	-200,000	0,044	0,245
-188,402	-128,673	0,040	0,004
-187,387	299,513	-0,043	-0,058
-186,373	-93,157	0,067	0,013
-185,358	800,000	0,012	0,035
-184,344	800,000	0,038	0,091
-183,329	-200,000	-0,034	0,135
-182,315	-92,426	0,037	0,007
-181,300	800,000	0,013	-0,030
-180,285	-125,781	-0,135	-0,015
-179,271	-200,000	-0,057	-0,228
-178,256	-200,000	0,018	-0,113
-177,242	69,752	0,022	0,017
-176,227	-167,256	-0,085	-0,002
-175,212	92,993	-0,037	0,031
-174,198	95,705	-0,087	0,072
-173,183	176,462	0,043	-0,045
-172,169	170,260	0,017	0,018
-171,154	44,632	-0,102	-0,068
-170,139	-200,000	0,009	-0,043
-169,125	256,176	0,092	-0,115
-168,110	-200,000	-0,026	0,097
-167,096	-41,192	-0,047	0,018
-166,081	-200,000	-0,010	-0,068
-165,066	-200,000	0,004	-0,085
-164,052	-141,181	-0,204	0,015
-163,037	800,000	-0,011	0,027
-162,023	-200,000	0,025	0,112
-161,008	517,212	0,049	0,083
-159,993	14,106	0,090	0,051
-158,979	-200,000	-0,011	0,045
-157,964	-43,338	0,049	0,018
-156,950	800,000	-0,052	-0,162
-155,935	-69,313	0,073	-0,020
-154,920	-52,314	0,130	0,043
-153,906	800,000	0,048	0,122
-152,891	800,000	0,054	-0,140
-151,877	-107,460	0,108	0,017
-150,862	800,000	0,034	0,071
-149,847	-200,000	0,020	-0,196
-148,833	132,849	0,002	-0,002
-147,818	-200,000	-0,033	0,119
-146,804	-200,000	0,016	-0,098
-145,789	773,975	0,020	-0,040
-144,775	495,798	0,041	-0,068
-143,760	116,255	0,060	-0,053
-142,745	210,068	0,052	0,059
-141,731	725,228	0,023	-0,044
-140,716	-96,815	0,054	0,010
-139,702	-172,535	0,093	0,002
-138,687	-136,966	0,055	0,005
-137,672	-200,000	0,007	0,024
-136,658	-200,000	-0,011	-0,185
-135,643	549,213	0,041	0,072
-134,629	800,000	-0,015	0,032
-133,614	382,831	0,055	0,082
-132,599	-82,240	0,114	-0,027
-131,585	74,499	0,126	0,096
-130,570	-200,000	0,049	0,163
-129,556	-200,000	0,000	-0,019
-128,541	765,827	-0,039	0,078
-127,526	-81,929	0,087	-0,021
-126,512	-50,940	-0,022	-0,007
-125,497	70,684	0,073	-0,055
-124,483	432,514	0,029	0,045
-123,468	-200,000	-0,028	0,127
-122,453	-200,000	0,013	-0,061
-121,439	800,000	-0,034	-0,078
-120,424	183,196	-0,054	-0,058
-119,410	328,105	-0,023	0,032
-118,395	472,313	-0,091	0,149
-117,380	57,520	0,078	0,055
-116,366	-51,151	0,027	0,009
-115,351	-200,000	0,021	-0,128
-114,337	71,196	-0,139	-0,105
-113,322	-200,000	-0,022	-0,094
-112,307	-200,000	-0,032	0,114
-111,293	-31,954	0,112	0,045
-110,278	116,065	-0,023	0,020
-109,264	1,490	0,069	-0,036
-108,249	15,879	-0,069	0,039
-107,234	38,517	-0,096	0,062
-106,220	-9,812	0,015	0,007
-105,205	339,223	0,080	0,113
-104,191	-85,520	0,089	0,020
-103,176	-59,032	-0,091	-0,028
-102,162	-200,000	0,019	0,104
-101,147	-200,000	0,048	-0,162
-100,132	-197,141	-0,169	-0,001
-99,118	-92,452	-0,075	0,015
-98,103	-200,000	0,000	0,045
-97,089	101,089	-0,052	-0,044
-96,074	-200,000	-0,013	-0,148
-95,059	418,956	-0,039	-0,061
-94,045	289,601	-0,035	-0,046
-93,030	205,886	0,089	0,101
-92,016	466,540	-0,100	-0,162
-91,001	-99,460	0,027	0,005
-89,986	-200,000	0,003	-0,158
-88,972	-106,129	0,148	0,024
-87,957	426,241	-0,093	0,146
-86,943	120,092	-0,052	0,047
-85,928	-162,825	0,047	-0,002
-84,913	-200,000	-0,041	0,212
-83,899	148,358	0,052	0,051
-82,884	-84,957	0,080	0,018
-81,870	160,963	0,123	-0,125
-80,855	-200,000	0,009	-0,073
-79,840	-200,000	0,024	-0,095
-78,826	-200,000	-0,012	0,085
-77,811	169,990	0,061	-0,063
-76,797	166,088	0,051	0,053
-75,782	228,748	0,075	0,089
-74,767	110,025	-0,087	0,075
-73,753	148,491	-0,091	0,089
-72,738	597,606	0,028	0,051
-71,724	-200,000	0,010	0,073
-70,709	-24,534	-0,142	-0,061
-69,694	541,862	0,067	-0,117
-68,680	-97,405	-0,058	-0,011
-67,665	-200,000	-0,022	0,098
-66,651	-200,000	0,004	-0,071
-65,636	-146,707	0,044	-0,003
-64,622	783,967	-0,055	0,109
-63,607	-200,000	0,011	-0,046
-62,592	94,035	-0,107	0,088
-61,578	-140,399	0,038	-0,003
-60,563	399,567	0,033	0,051
-59,549	234,884	-0,101	0,120
-58,534	-88,432	-1,419	-0,304
-57,519	558,115	-0,744	-1,304
-56,505	-200,000	-0,921	-4,565
-55,490	-136,233	0,658	-0,055
-54,476	800,000	5,012	11,771
-53,461	-200,000	14,518	259,535
-52,446	-200,000	696,112	2234,784
-51,432	565,495	1621,903	2857,541
-50,417	117,883	1629,861	1452,746
-49,403	74,988	1284,011	977,867
-48,388	37,391	1022,542	654,608
-47,373	23,135	981,775	581,707
-46,359	22,315	971,000	572,616
-45,344	21,162	966,873	566,396
-44,330	21,117	965,392	565,360
-43,315	20,969	963,825	563,940
-42,300	20,999	962,711	563,363
-41,286	20,986	961,882	562,812
-40,271	20,991	960,611	562,063
-39,257	20,901	959,825	561,289
-38,242	20,900	958,868	560,706
-37,227	20,911	958,145	560,294
-36,213	20,904	957,167	559,677
-35,198	20,904	956,321	559,161
-34,184	20,933	955,664	558,848
-33,169	20,866	954,721	558,059
-32,154	20,961	953,817	557,815
-31,140	21,003	952,989	557,442
-30,125	20,943	952,377	556,869
-29,111	21,009	951,309	556,435
-28,096	20,924	950,758	555,817
-27,082	20,921	950,183	555,450
-26,067	20,974	949,241	555,046
-25,052	20,905	948,480	554,358
-24,038	20,924	947,907	554,062
-23,023	20,986	947,133	553,787
-22,009	21,018	946,589	553,550
-20,994	20,972	946,015	553,044
-19,979	20,980	945,311	552,637
-18,965	20,975	944,780	552,288
-17,950	20,937	944,202	551,809
-16,936	20,864	943,469	551,125
-15,921	20,877	942,907	550,815
-14,906	20,849	942,125	550,248
-13,892	20,800	941,608	549,769
-12,877	20,831	940,856	549,407
-11,863	20,785	940,363	548,950
-10,848	20,803	939,834	548,677
-9,833	20,898	939,334	548,665
-8,819	20,929	938,729	548,387
-7,804	20,808	938,143	547,640
-6,790	20,816	937,462	547,246
-5,775	20,857	936,793	546,963
-4,760	20,799	936,279	546,458
-3,746	20,765	935,798	546,051
-2,731	20,706	934,953	545,347
-1,717	20,632	934,250	544,683
-0,702	20,619	933,626	544,258
0,313	20,412	932,999	544,063
1,327	23,439	931,071	552,392
2,342	32,628	793,806	495,346
3,356	30,005	450,420	277,101
4,371	0,170	294,548	151,382
5,386	-4,374	275,672	137,361
6,400	-5,488	269,939	133,457
7,415	-5,800	267,457	131,930
8,429	-5,679	266,364	131,491
9,444	-5,681	265,522	131,061
10,459	-5,682	264,758	130,672
11,473	-5,849	264,260	130,262
12,488	-6,011	263,847	129,900
13,502	-5,979	263,268	129,632
14,517	-5,822	262,728	129,497
15,531	-5,905	262,547	129,321
16,546	-5,917	262,134	129,095
17,561	-5,989	261,631	128,772
18,575	-5,832	261,328	128,751
19,590	-5,811	260,889	128,543
20,604	-5,958	260,720	128,317
21,619	-6,093	260,427	128,039
22,634	-5,911	259,989	127,975
23,648	-5,834	259,624	127,853
24,663	-5,935	259,492	127,687
25,677	-5,930	259,205	127,539
26,692	-6,101	258,912	127,231
27,707	-5,927	258,631	127,236
28,721	-5,962	258,391	127,075
29,736	-6,093	258,116	126,813
30,750	-6,101	257,938	126,707
31,765	-6,039	257,548	126,559
32,780	-6,191	257,565	126,421
33,794	-5,777	257,181	126,588
34,809	-6,088	257,129	126,276
35,823	-6,119	256,737	126,045
36,838	-6,018	256,392	125,953
37,853	-5,985	256,258	125,905
38,867	-6,209	255,972	125,557
39,882	-6,206	255,855	125,491
40,896	-6,169	255,456	125,316
41,911	-6,029	255,264	125,333
42,926	-6,147	255,037	125,108
43,940	-6,151	254,875	125,014
44,955	-6,286	254,618	124,758
45,969	-6,237	254,280	124,624
46,984	-6,288	254,128	124,494
47,999	-6,323	253,747	124,266
49,013	-6,774	253,531	123,756
50,028	-6,663	253,170	123,665
51,042	-6,843	253,150	123,489
52,057	-6,670	252,845	123,479
53,071	-7,058	252,748	123,084
54,086	-6,828	252,569	123,185
55,101	-6,426	252,401	123,440
56,115	-6,298	252,125	123,405
57,130	-6,060	252,138	123,606
58,144	-5,746	252,049	123,823
59,159	-5,916	251,823	123,554
60,174	-5,965	251,471	123,328
61,188	-5,866	251,232	123,286
62,203	-5,872	251,166	123,236
63,217	-5,866	250,992	123,145
64,232	-5,884	250,641	122,947
65,247	-5,907	250,441	122,818
66,261	-5,996	250,303	122,664
67,276	-6,079	249,884	122,376
68,290	-6,250	249,832	122,193
69,305	-6,549	249,583	121,804
70,320	-6,387	249,478	121,881
71,334	-6,166	249,108	121,878
72,349	-5,891	249,142	122,119
73,363	-5,696	248,843	122,127
74,378	-5,884	248,710	121,891
75,393	-5,794	248,451	121,830
76,407	-6,163	248,204	121,384
77,422	-6,157	248,221	121,387
78,436	-5,906	247,866	121,415
79,451	-5,802	247,465	121,296
80,466	-6,168	247,436	120,961
81,480	-6,185	247,139	120,790
82,495	-6,211	246,969	120,675
83,509	-6,273	246,644	120,452
84,524	-6,232	246,568	120,440
85,539	-6,475	246,408	120,145
86,553	-6,410	246,116	120,048
87,568	-6,238	246,019	120,134
88,582	-6,345	245,859	119,955
89,597	-6,440	245,689	119,782
90,611	-6,114	245,569	119,986
91,626	-5,960	245,301	119,974
92,641	-5,777	245,163	120,049
93,655	-5,991	245,092	119,824
94,670	-6,194	244,710	119,457
95,684	-5,976	244,528	119,539
96,699	-6,099	244,401	119,365
97,714	-6,168	244,270	119,232
98,728	-6,248	244,024	119,034
99,743	-6,234	243,765	118,909
100,757	-6,384	243,582	118,685
101,772	-6,307	243,348	118,624
102,787	-6,189	243,162	118,621
103,801	-6,208	242,963	118,497
104,816	-5,962	242,910	118,665
105,830	-6,120	242,829	118,484
106,845	-6,184	242,752	118,382
107,860	-5,995	242,396	118,355
108,874	-6,385	242,294	117,972
109,889	-6,285	242,113	117,956
110,903	-6,145	241,792	117,904
111,918	-6,178	241,673	117,809
112,933	-6,147	241,457	117,719
113,947	-6,117	241,182	117,599
114,962	-6,042	241,195	117,656
115,976	-6,132	240,990	117,472
116,991	-6,022	240,769	117,444
118,006	-6,172	240,591	117,223
119,020	-6,020	240,307	117,199
120,035	-6,018	240,445	117,257
121,049	-5,900	240,211	117,230
122,064	-5,940	240,033	117,100
123,079	-6,061	239,854	116,903
124,093	-6,057	239,595	116,770
125,108	-6,310	239,340	116,429
126,122	-6,208	239,147	116,407
127,137	-6,507	238,932	116,049
128,151	-6,553	238,861	115,967
129,166	-6,101	238,680	116,236
130,181	-6,231	238,472	116,019
131,195	-6,315	238,153	115,785
132,210	-6,161	238,156	115,901
133,224	-6,005	238,052	115,967
134,239	-5,990	237,713	115,804
135,254	-6,027	237,683	115,749
136,268	-6,077	237,482	115,600
137,283	-6,190	237,232	115,376
138,297	-6,539	237,038	114,990
139,312	-6,442	236,789	114,937
140,327	-6,039	236,673	115,195
141,341	-5,898	236,730	115,327
142,356	-5,827	236,689	115,354
143,370	-5,625	236,538	115,432
144,385	-5,768	236,402	115,241
145,400	-5,810	236,068	115,034
146,414	-5,603	235,877	115,097
147,429	-6,008	235,713	114,681
148,443	-5,743	235,334	114,699
149,458	-5,872	235,564	114,698
150,473	-5,833	235,216	114,549
151,487	-5,824	234,986	114,434
152,502	-5,784	234,852	114,391
153,516	-5,530	234,539	114,431
154,531	-5,703	234,494	114,260
155,546	-5,869	234,345	114,046
156,560	-5,717	234,054	114,015
157,575	-5,957	233,950	113,763
158,589	-5,875	233,786	113,738
159,604	-5,838	233,663	113,697
160,619	-5,701	233,530	113,732
161,633	-5,563	233,421	113,778
162,648	-5,624	233,296	113,658
163,662	-5,789	233,103	113,423
164,677	-5,803	232,900	113,304
165,692	-5,493	232,691	113,437
166,706	-5,750	232,783	113,269
167,721	-5,377	232,445	113,388
168,735	-5,575	232,322	113,162
169,750	-5,665	232,157	113,001
170,764	-5,715	232,011	112,880
171,779	-5,667	232,024	112,914
172,794	-5,733	231,796	112,741
173,808	-5,860	231,616	112,543
174,823	-6,187	231,174	112,062
175,837	-6,306	230,991	111,870
176,852	-6,038	231,002	112,075
177,867	-5,848	230,913	112,171
178,881	-5,780	230,779	112,150
179,896	-5,480	230,543	112,259
180,910	-5,485	230,329	112,141
181,925	-5,709	230,312	111,948
182,940	-5,658	230,124	111,887
183,954	-5,642	229,987	111,823
184,969	-5,471	229,927	111,916
185,983	-5,691	229,877	111,711
186,998	-5,430	229,553	111,747
188,013	-5,514	229,402	111,598
189,027	-5,536	229,218	111,481
190,042	-5,448	229,172	111,517
191,056	-5,528	228,893	111,309
192,071	-5,512	228,713	111,224
193,086	-5,506	228,669	111,198
194,100	-5,648	228,532	111,011
195,115	-5,501	228,025	110,869
196,129	-6,246	227,800	110,174
197,144	-3,669	229,069	112,777
198,159	1,092	229,957	116,904
199,173	3,393	230,796	119,110
200,188	3,887	230,703	119,435
201,202	3,988	230,538	119,418
202,217	4,063	230,339	119,363
203,232	4,356	230,170	119,491
204,246	4,158	230,193	119,339
205,261	4,390	230,044	119,430
206,275	4,764	229,878	119,623
207,290	4,264	229,774	119,172
208,304	4,308	229,780	119,198
209,319	4,564	229,452	119,215
210,334	4,338	229,302	118,952
211,348	4,227	229,081	118,742
212,363	3,798	228,779	118,245
213,377	3,421	228,595	117,849
214,392	3,519	228,372	117,799
215,407	3,738	228,267	117,902
216,421	3,753	228,250	117,894
217,436	3,555	227,955	117,579
218,450	3,570	227,685	117,442
219,465	3,380	227,584	117,234
220,480	3,397	227,504	117,194
221,494	3,364	227,412	117,111
222,509	3,591	227,244	117,188
223,523	3,574	227,087	117,084
224,538	3,353	226,959	116,839
225,553	3,648	226,758	116,950
226,567	3,771	226,633	116,968
227,582	4,009	226,643	117,145
228,596	3,903	226,585	117,023
229,611	3,627	226,340	116,677
230,626	3,468	226,048	116,395
231,640	3,597	225,741	116,325
232,655	3,980	225,733	116,600
233,669	4,233	225,818	116,825
234,684	4,368	225,624	116,817
235,699	4,100	225,333	116,453
236,713	3,856	225,061	116,117
237,728	3,686	224,993	115,944
238,742	3,498	224,724	115,653
239,757	3,505	224,684	115,627
240,772	3,805	224,466	115,731
241,786	3,693	224,360	115,582
242,801	3,863	224,281	115,658
243,815	3,987	224,199	115,699
244,830	3,874	224,057	115,531
245,844	3,797	223,935	115,400
246,859	3,492	223,854	115,119
247,874	3,798	223,737	115,278
248,888	3,873	223,454	115,178
249,903	3,884	223,284	115,088
250,917	3,672	223,053	114,801
251,932	3,640	223,035	114,757
252,947	3,527	222,807	114,545
253,961	3,448	222,749	114,446
254,976	3,466	222,588	114,366
255,990	3,845	222,559	114,624
257,005	3,818	222,296	114,458
258,020	3,697	222,318	114,369
259,034	3,980	222,074	114,444
260,049	3,859	221,919	114,264
261,063	3,946	221,733	114,223
262,078	4,066	221,602	114,234
263,093	4,337	221,417	114,330
264,107	4,087	221,318	114,083
265,122	3,864	221,196	113,845
266,136	3,929	221,174	113,871
267,151	4,045	221,004	113,860
268,166	3,812	220,806	113,575
269,180	3,413	220,448	113,086
270,195	3,422	220,294	113,004
271,209	3,622	220,140	113,062
272,224	3,610	220,044	112,994
273,239	3,754	220,003	113,069
274,253	3,737	219,758	112,920
275,268	3,473	219,579	112,625
276,282	3,197	219,455	112,348
277,297	3,247	219,524	112,410
278,312	3,558	219,235	112,481
279,326	3,546	219,133	112,409
280,341	3,606	219,054	112,403
281,355	3,769	218,904	112,435
282,370	3,539	218,781	112,193
283,384	3,512	218,386	111,961
284,399	3,157	218,304	111,650
285,414	3,294	218,245	111,710
286,428	3,897	218,025	112,027
287,443	3,747	217,969	111,878
288,457	3,617	218,015	111,798
289,472	3,627	217,677	111,622
290,487	3,167	217,545	111,210
291,501	3,067	217,355	111,030
292,516	3,356	217,241	111,171
293,530	3,385	217,023	111,071
294,545	3,319	216,964	110,982
295,560	3,448	216,844	111,005
296,574	3,564	216,785	111,049
297,589	3,550	216,654	110,962
298,603	3,704	216,498	110,983
299,618	3,777	216,399	110,975
300,633	3,524	216,269	110,716
301,647	3,851	216,215	110,915
302,662	3,818	215,980	110,761
303,676	3,813	215,897	110,704
304,691	3,799	215,673	110,570
305,706	3,764	215,627	110,511
306,720	4,060	215,485	110,641
307,735	3,788	215,291	110,337
308,749	3,481	215,043	109,979
309,764	3,732	214,902	110,077
310,779	3,955	214,771	110,160
311,793	3,658	214,743	109,923
312,808	3,725	214,549	109,862
313,822	3,799	214,424	109,841
314,837	3,659	214,248	109,641
315,852	3,632	214,100	109,536
316,866	3,548	214,001	109,416
317,881	3,970	213,849	109,630
318,895	3,615	213,850	109,367
319,910	3,635	213,579	109,233
320,925	3,440	213,376	108,981
321,939	3,322	213,189	108,791
322,954	3,330	213,115	108,750
323,968	3,723	212,992	108,956
324,983	3,916	212,857	109,014
325,997	4,047	212,807	109,072
327,012	3,823	212,588	108,791
328,027	3,760	212,545	108,715
329,041	3,959	212,524	108,835
330,056	4,161	212,378	108,894
331,070	3,779	212,037	108,440
332,085	3,480	211,831	108,114
333,100	3,689	211,714	108,192
334,114	3,839	211,597	108,228
335,129	3,561	211,594	108,021
336,143	3,743	211,372	108,026
337,158	3,443	211,333	107,785
338,173	3,566	211,121	107,754
339,187	3,666	210,848	107,675
340,202	3,369	210,769	107,417
341,216	3,435	210,618	107,377
342,231	3,809	210,447	107,542
343,246	3,508	210,257	107,225
344,260	3,354	210,281	107,120
345,275	3,477	210,142	107,125
346,289	3,575	210,220	107,224
347,304	3,702	209,891	107,135
348,319	3,814	209,766	107,140
349,333	3,719	209,600	106,980
350,348	3,721	209,552	106,947
351,362	3,809	209,414	106,928
352,377	3,779	209,302	106,841
353,392	3,627	209,092	106,618
354,406	3,597	209,076	106,579
355,421	195,086	1344,826	1433,388
356,435	155,729	1483,273	1433,479
