DTS Sentinel unit serial number:	SN410029Multiplexer serial number:	ORYXHardware model number:	OX2-SRSoftware version number:	ORYX F/W v4,00 Oryx Data Collector v3.7.2.0data status	okinstallation	B6 Nyhavnadifferential loss correction	single-endedforward channel	channel 2reverse channel	N/Adate	2023/12/08time	19:50:08forward acquisition time	300,00reverse acquisition time	0,00gamma	499,1914k internal	0,3158k external	0,3158temperature offset calibration	1,0000default loss term (dB/km)	0,3820temperature slope calibration	1,0000multiplexer offset coefficient	1,0000multiplexer slope coefficient	1,0000fibre end	0,00T internal ref (°C)	15,23T ext. ref 1 (°C)	-1,44T ext. ref 2 (°C)	-1,44length (m)	temperature (°C)	Stokes	anti-Stokes-744,400	344,319	0,067	0,097
-743,385	-72,027	-0,239	0,065
-742,371	-81,521	0,161	0,039
-741,356	-11,586	-0,261	0,126
-740,342	-200,000	0,033	0,229
-739,327	-141,855	-0,349	0,025
-738,312	125,149	0,123	-0,114
-737,298	-68,427	-0,261	-0,074
-736,283	42,427	0,184	0,123
-735,269	-145,044	-0,367	0,024
-734,254	148,129	0,087	0,086
-733,239	-81,384	-0,437	-0,105
-732,225	-88,938	0,148	0,032
-731,210	800,000	-0,075	0,218
-730,196	-128,759	-0,076	-0,008
-729,181	23,095	-0,101	-0,061
-728,167	-23,877	-0,091	0,040
-727,152	-135,879	-0,118	0,010
-726,137	-200,000	0,020	-0,089
-725,123	-46,401	-0,109	0,039
-724,108	-200,000	0,008	-0,048
-723,094	268,407	0,083	0,107
-722,079	-200,000	-0,034	-0,114
-721,064	-189,549	-0,029	-0,000
-720,050	-200,000	-0,023	-0,201
-719,035	224,714	-0,038	-0,045
-718,021	-200,000	0,004	-0,043
-717,006	800,000	-0,066	-0,190
-715,991	-21,965	-0,120	-0,054
-714,977	-200,000	0,003	-0,136
-713,962	66,036	-0,064	0,048
-712,948	-200,000	-0,038	-0,189
-711,933	-167,397	-0,040	-0,001
-710,918	25,475	-0,078	0,048
-709,904	-200,000	0,020	-0,099
-708,889	138,306	0,095	-0,092
-707,875	-200,000	-0,001	-0,151
-706,860	-77,588	0,069	-0,018
-705,845	-200,000	0,007	0,088
-704,831	216,152	0,078	-0,091
-703,816	228,135	-0,052	0,062
-702,802	800,000	-0,026	0,064
-701,787	2,824	-0,106	-0,057
-700,772	800,000	-0,032	0,094
-699,758	-10,057	0,029	-0,014
-698,743	111,466	0,036	-0,032
-697,729	-45,517	-0,096	-0,035
-696,714	-200,000	0,002	0,012
-695,699	-97,766	-0,142	-0,027
-694,685	217,805	0,112	-0,132
-693,670	-139,185	-0,031	-0,002
-692,656	9,352	0,157	-0,087
-691,641	184,794	0,032	-0,035
-690,627	-18,962	-0,128	0,058
-689,612	135,894	0,082	-0,079
-688,597	90,844	-0,062	0,051
-687,583	14,700	-0,107	-0,062
-686,568	-27,933	-0,140	-0,059
-685,554	-94,383	-0,063	-0,013
-684,539	-200,000	0,033	0,150
-683,524	15,310	-0,079	0,045
-682,510	164,369	0,083	0,086
-681,495	53,719	-0,034	-0,024
-680,481	-87,263	-0,094	0,021
-679,466	800,000	-0,041	-0,085
-678,451	800,000	0,040	0,117
-677,437	53,018	-0,040	-0,028
-676,422	-200,000	0,010	-0,072
-675,408	358,734	0,048	0,070
-674,393	-45,553	-0,092	-0,033
-673,378	-93,947	-0,089	-0,018
-672,364	-200,000	0,006	-0,071
-671,349	12,975	-0,093	-0,053
-670,335	800,000	0,023	0,052
-669,320	59,868	-0,072	0,052
-668,305	123,653	0,144	0,132
-667,291	-200,000	0,002	0,172
-666,276	-10,441	0,079	-0,038
-665,262	426,377	-0,072	-0,114
-664,247	-200,000	-0,005	0,040
-663,232	38,510	-0,065	-0,043
-662,218	-200,000	0,007	-0,084
-661,203	-86,502	-0,074	0,017
-660,189	645,034	-0,035	0,065
-659,174	-140,488	-0,172	0,013
-658,159	-200,000	-0,022	-0,103
-657,145	1,780	-0,158	-0,084
-656,130	-80,445	0,048	0,012
-655,116	-142,579	-0,064	-0,005
-654,101	-3,115	0,068	-0,035
-653,086	-132,405	-0,052	-0,005
-652,072	-57,675	-0,031	0,010
-651,057	800,000	-0,033	-0,075
-650,043	800,000	-0,041	-0,101
-649,028	800,000	0,021	-0,062
-648,014	800,000	0,009	0,024
-646,999	469,146	0,052	-0,086
-645,984	447,163	-0,052	-0,085
-644,970	-114,934	0,075	0,010
-643,955	-78,214	-0,057	-0,014
-642,941	-200,000	-0,001	-0,110
-641,926	-14,186	-0,049	0,023
-640,911	195,082	-0,087	0,097
-639,897	-200,000	-0,043	-0,160
-638,882	-23,536	-0,112	-0,049
-637,868	-98,017	-0,127	-0,024
-636,853	199,297	-0,061	0,069
-635,838	-200,000	0,023	0,163
-634,824	-43,402	-0,040	0,015
-633,809	239,018	-0,049	-0,060
-632,795	635,364	0,024	-0,045
-631,780	16,704	-0,021	-0,012
-630,765	-200,000	-0,039	-0,137
-629,751	800,000	-0,052	-0,138
-628,736	-200,000	0,021	-0,094
-627,722	800,000	0,029	0,080
-626,707	-131,420	-0,035	0,003
-625,692	119,236	0,153	0,139
-624,678	451,864	-0,069	-0,112
-623,663	-200,000	0,036	0,138
-622,649	-200,000	-0,029	0,132
-621,634	-28,161	-0,074	-0,031
-620,619	45,235	-0,045	-0,031
-619,605	-200,000	0,008	-0,066
-618,590	-200,000	0,010	0,036
-617,576	-35,952	-0,026	0,010
-616,561	316,960	0,051	-0,071
-615,546	158,495	0,042	-0,042
-614,532	1,718	-0,141	-0,074
-613,517	-8,265	-0,097	-0,048
-612,503	-125,347	0,106	0,012
-611,488	94,057	-0,173	0,144
-610,474	-200,000	0,007	-0,031
-609,459	-200,000	0,004	-0,094
-608,444	800,000	0,012	-0,034
-607,430	-57,645	0,101	-0,032
-606,415	800,000	0,021	0,060
-605,401	33,842	0,033	0,021
-604,386	601,257	0,058	-0,106
-603,371	172,226	0,083	0,088
-602,357	471,941	-0,021	-0,035
-601,342	221,864	-0,098	0,116
-600,328	692,805	0,057	-0,111
-599,313	-13,486	-0,159	0,075
-598,298	-200,000	0,009	-0,056
-597,284	336,791	-0,071	0,101
-596,269	-55,539	0,066	0,021
-595,255	5,953	-0,058	0,032
-594,240	-8,689	-0,028	0,014
-593,225	-111,626	0,051	0,008
-592,211	-133,371	0,063	0,006
-591,196	-200,000	0,001	-0,053
-590,182	800,000	0,044	0,102
-589,167	800,000	-0,008	-0,025
-588,152	-200,000	-0,008	-0,047
-587,138	-70,436	-0,100	0,028
-586,123	664,613	-0,026	0,049
-585,109	11,289	0,131	-0,074
-584,094	800,000	0,039	-0,125
-583,079	-200,000	-0,011	0,043
-582,065	175,381	-0,109	0,116
-581,050	-13,100	-0,132	0,062
-580,036	-109,329	0,183	0,028
-579,021	82,290	-0,014	-0,011
-578,006	-200,000	-0,006	-0,042
-576,992	183,269	-0,052	-0,056
-575,977	113,443	0,068	-0,060
-574,963	61,179	-0,115	0,084
-573,948	-200,000	-0,033	0,121
-572,934	258,885	-0,030	-0,038
-571,919	-42,852	-0,068	0,025
-570,904	66,753	0,067	0,050
-569,890	81,633	-0,152	-0,121
-568,875	-54,975	0,103	-0,034
-567,861	490,320	0,021	-0,035
-566,846	288,015	0,045	0,060
-565,831	-103,035	-0,083	-0,014
-564,817	-99,603	-0,041	0,008
-563,802	-60,596	-0,173	-0,053
-562,788	-200,000	-0,000	-0,011
-561,773	267,370	0,068	-0,087
-560,758	-113,452	0,145	-0,021
-559,744	722,096	0,065	-0,128
-558,729	-73,183	-0,096	0,026
-557,715	800,000	-0,044	-0,098
-556,700	800,000	0,059	-0,161
-555,685	-200,000	-0,009	0,078
-554,671	51,043	0,133	0,092
-553,656	198,737	0,043	-0,048
-552,642	76,332	0,146	0,113
-551,627	-200,000	-0,007	-0,078
-550,612	800,000	0,047	-0,102
-549,598	-200,000	-0,006	-0,079
-548,583	40,560	-0,088	-0,058
-547,569	-200,000	-0,007	-0,139
-546,554	-114,333	0,243	-0,034
-545,539	-200,000	0,031	0,104
-544,525	27,096	-0,043	-0,027
-543,510	-99,012	0,038	-0,007
-542,496	-200,000	0,000	-0,169
-541,481	-4,927	-0,146	0,073
-540,466	-36,411	0,218	0,085
-539,452	800,000	0,083	0,183
-538,437	4,063	0,014	-0,007
-537,423	488,988	0,046	-0,077
-536,408	17,307	-0,123	0,071
-535,393	-200,000	-0,022	-0,169
-534,379	129,699	0,051	-0,048
-533,364	148,268	0,079	0,078
-532,350	216,516	0,067	0,078
-531,335	-122,684	-0,161	0,019
-530,321	-200,000	0,009	0,180
-529,306	87,260	0,021	0,017
-528,291	-200,000	-0,028	-0,154
-527,277	435,443	-0,042	-0,066
-526,262	423,420	0,025	0,039
-525,248	114,347	0,051	0,045
-524,233	-200,000	0,003	-0,106
-523,218	-200,000	-0,016	-0,172
-522,204	-80,835	-0,058	0,014
-521,189	71,923	-0,080	-0,061
-520,175	656,852	-0,034	0,063
-519,160	-13,158	0,122	-0,058
-518,145	-24,547	0,093	-0,040
-517,131	250,133	0,112	0,139
-516,116	371,206	-0,092	0,137
-515,102	-200,000	0,034	-0,142
-514,087	737,154	-0,105	-0,206
-513,072	800,000	-0,023	0,055
-512,058	54,569	0,033	0,023
-511,043	769,651	-0,039	-0,079
-510,029	-63,571	0,150	-0,045
-509,014	-50,428	0,058	0,020
-507,999	-200,000	-0,008	-0,050
-506,985	-141,904	-0,144	-0,010
-505,970	9,660	-0,113	0,062
-504,956	94,542	0,075	-0,062
-503,941	-12,514	0,072	0,034
-502,926	395,013	0,013	-0,019
-501,912	425,055	-0,053	-0,083
-500,897	544,296	0,021	0,037
-499,883	169,627	0,053	0,056
-498,868	-58,127	-0,054	-0,017
-497,853	71,708	0,080	0,061
-496,839	800,000	0,041	0,095
-495,824	613,181	-0,001	0,002
-494,810	-200,000	-0,006	-0,033
-493,795	196,388	0,032	-0,035
-492,781	-200,000	-0,003	-0,024
-491,766	16,856	0,077	-0,045
-490,751	71,390	-0,083	-0,062
-489,737	469,833	0,097	0,160
-488,722	-200,000	0,003	0,121
-487,708	-200,000	0,007	-0,166
-486,693	-49,492	0,103	-0,036
-485,678	125,409	0,107	0,098
-484,664	129,723	-0,038	0,035
-483,649	18,215	0,050	0,029
-482,635	800,000	0,042	-0,085
-481,620	-91,741	-0,055	-0,011
-480,605	-93,758	0,066	0,013
-479,591	114,253	-0,097	0,086
-478,576	-33,568	0,056	0,022
-477,562	479,695	-0,044	-0,074
-476,547	313,200	-0,029	-0,040
-475,532	418,782	0,046	0,072
-474,518	-23,279	0,114	-0,050
-473,503	-131,871	0,065	-0,006
-472,489	-200,000	0,041	0,137
-471,474	-115,940	0,028	-0,004
-470,459	-114,584	0,115	-0,016
-469,445	-200,000	-0,032	-0,130
-468,430	-51,356	-0,108	-0,037
-467,416	-200,000	0,037	0,129
-466,401	-200,000	0,002	-0,034
-465,386	-117,457	0,090	-0,012
-464,372	-200,000	-0,013	-0,101
-463,357	30,653	-0,051	-0,032
-462,343	-13,230	-0,187	-0,088
-461,328	28,825	0,043	0,027
-460,313	221,929	0,169	-0,198
-459,299	54,272	0,106	0,074
-458,284	-132,981	0,049	0,004
-457,270	-60,934	0,036	0,011
-456,255	57,138	-0,009	0,006
-455,241	-4,883	-0,040	0,020
-454,226	311,180	-0,051	0,069
-453,211	-200,000	-0,017	-0,060
-452,197	9,296	0,125	0,069
-451,182	-108,354	0,190	-0,030
-450,168	69,864	-0,100	-0,075
-449,153	-170,972	-0,094	-0,002
-448,138	-200,000	-0,057	-0,204
-447,124	-57,339	-0,030	-0,009
-446,109	-200,000	0,006	0,076
-445,095	237,942	-0,081	-0,098
-444,080	-200,000	0,031	0,106
-443,065	497,708	0,050	0,085
-442,051	-86,322	0,064	0,014
-441,036	71,031	-0,056	0,043
-440,022	-100,276	0,041	0,007
-439,007	800,000	0,082	0,217
-437,992	219,540	-0,139	0,163
-436,978	765,715	0,041	0,082
-435,963	148,059	0,148	0,146
-434,949	319,339	0,108	-0,149
-433,934	750,162	-0,015	-0,030
-432,919	575,985	-0,059	-0,105
-431,905	94,648	-0,049	-0,041
-430,890	800,000	-0,029	0,084
-429,876	-67,790	0,139	0,039
-428,861	-200,000	-0,060	0,212
-427,846	-98,450	-0,158	-0,029
-426,832	-108,481	0,082	-0,013
-425,817	-200,000	-0,007	-0,058
-424,803	-130,121	0,096	-0,009
-423,788	-32,590	0,070	0,028
-422,773	-90,450	-0,070	0,015
-421,759	263,212	-0,018	0,023
-420,744	-11,780	-0,057	-0,027
-419,730	135,196	0,084	-0,080
-418,715	-200,000	-0,033	-0,149
-417,701	76,414	0,025	-0,019
-416,686	154,225	-0,048	0,048
-415,671	800,000	0,081	0,255
-414,657	84,541	-0,129	0,102
-413,642	276,149	-0,118	0,153
-412,628	168,064	-0,035	0,036
-411,613	-162,007	-0,122	-0,004
-410,598	-137,305	0,116	-0,009
-409,584	-109,665	0,075	-0,011
-408,569	622,595	-0,046	-0,084
-407,555	11,518	-0,089	0,050
-406,540	-150,514	0,120	0,007
-405,525	800,000	-0,031	-0,063
-404,511	-23,684	0,089	-0,039
-403,496	32,290	-0,058	0,036
-402,482	-173,687	-0,100	0,002
-401,467	-68,237	0,088	0,025
-400,452	-200,000	-0,011	0,050
-399,438	800,000	0,062	0,162
-398,423	7,511	-0,061	-0,033
-397,409	80,794	0,062	0,049
-396,394	-200,000	-0,038	-0,130
-395,379	22,001	0,053	-0,031
-394,365	247,837	0,082	-0,101
-393,350	-200,000	-0,017	0,115
-392,336	796,215	-0,080	0,161
-391,321	143,705	-0,053	-0,051
-390,306	610,163	-0,020	0,036
-389,292	-200,000	-0,012	-0,086
-388,277	-200,000	-0,008	0,090
-387,263	149,861	0,079	0,078
-386,248	-146,072	-0,020	0,001
-385,233	157,764	0,117	-0,118
-384,219	-133,287	-0,176	-0,016
-383,204	-200,000	-0,032	0,163
-382,190	413,902	-0,065	0,101
-381,175	368,498	-0,057	0,084
-380,160	-7,963	0,054	-0,026
-379,146	800,000	0,034	0,103
-378,131	94,358	0,112	0,093
-377,117	566,658	-0,045	0,079
-376,102	-116,814	0,091	0,012
-375,088	316,710	0,019	-0,026
-374,073	-200,000	0,046	-0,211
-373,058	267,535	0,024	0,030
-372,044	-200,000	0,017	0,080
-371,029	800,000	0,037	0,106
-370,015	177,471	-0,015	-0,016
-369,000	497,370	-0,082	-0,137
-367,985	-200,000	0,030	0,127
-366,971	-89,427	-0,043	0,009
-365,956	580,416	-0,037	-0,066
-364,942	-64,730	0,121	0,035
-363,927	800,000	-0,019	0,062
-362,912	205,681	-0,077	-0,087
-361,898	800,000	-0,038	0,117
-360,883	181,207	-0,107	-0,114
-359,869	-17,692	-0,067	-0,030
-358,854	183,834	-0,043	-0,046
-357,839	800,000	0,044	0,105
-356,825	86,517	0,027	-0,021
-355,810	-45,519	-0,056	0,020
-354,796	-3,123	-0,067	0,034
-353,781	615,236	-0,130	-0,237
-352,766	8,466	0,046	-0,025
-351,752	-200,000	-0,022	0,071
-350,737	-77,643	0,064	0,016
-349,723	-111,055	0,049	0,007
-348,708	-24,379	0,014	-0,006
-347,693	-200,000	-0,007	-0,148
-346,679	-85,468	-0,102	0,023
-345,664	-200,000	0,012	-0,045
-344,650	-7,653	0,023	0,011
-343,635	116,298	0,039	-0,034
-342,620	-156,948	0,070	0,003
-341,606	56,633	-0,060	-0,043
-340,591	138,485	-0,059	-0,057
-339,577	125,696	-0,070	0,064
-338,562	-200,000	-0,019	0,091
-337,548	72,664	0,047	0,036
-336,533	-31,330	0,065	0,026
-335,518	800,000	0,049	0,115
-334,504	-12,481	0,077	0,036
-333,489	-1,480	0,068	0,035
-332,475	-200,000	-0,008	-0,098
-331,460	86,154	-0,063	-0,050
-330,445	-118,267	-0,064	-0,008
-329,431	131,910	0,115	0,107
-328,416	561,159	-0,009	-0,016
-327,402	159,474	-0,002	-0,002
-326,387	-73,149	-0,035	-0,009
-325,372	36,693	-0,070	-0,045
-324,358	-95,007	0,154	-0,030
-323,343	8,323	-0,127	-0,069
-322,329	-195,760	0,091	0,000
-321,314	108,413	0,100	0,087
-320,299	800,000	0,041	0,105
-319,285	-85,550	-0,053	0,012
-318,270	758,885	0,051	0,100
-317,256	134,132	-0,068	-0,064
-316,241	74,916	-0,051	0,039
-315,226	241,151	-0,076	0,092
-314,212	-60,796	0,156	0,048
-313,197	-109,975	-0,201	-0,030
-312,183	-28,473	-0,001	0,001
-311,168	-200,000	-0,037	-0,118
-310,153	-69,447	0,042	-0,012
-309,139	-200,000	-0,000	0,036
-308,124	-44,345	0,024	-0,009
-307,110	419,438	-0,041	-0,063
-306,095	272,229	0,079	0,101
-305,080	313,082	-0,070	-0,096
-304,066	549,006	-0,059	0,103
-303,051	409,050	-0,063	0,096
-302,037	800,000	0,030	-0,094
-301,022	571,264	0,065	-0,115
-300,008	426,538	0,071	-0,111
-298,993	-73,077	0,066	0,017
-297,978	-20,155	-0,052	-0,023
-296,964	800,000	0,028	-0,083
-295,949	43,687	-0,121	0,080
-294,935	-37,920	0,052	-0,020
-293,920	193,785	0,106	0,116
-292,905	81,617	-0,099	0,077
-291,891	-200,000	-0,033	0,215
-290,876	-129,333	0,135	0,013
-289,862	131,449	0,032	-0,030
-288,847	-167,022	0,018	0,001
-287,832	125,967	-0,009	-0,008
-286,818	180,690	0,038	0,041
-285,803	28,195	-0,032	-0,019
-284,789	-200,000	-0,021	-0,139
-283,774	730,219	0,060	0,118
-282,759	193,019	0,082	-0,089
-281,745	63,593	-0,037	-0,027
-280,730	162,262	0,057	-0,058
-279,716	-200,000	-0,021	0,068
-278,701	102,749	0,052	-0,044
-277,686	-76,746	0,093	0,023
-276,672	-35,514	0,152	-0,060
-275,657	800,000	-0,014	0,038
-274,643	-9,971	-0,152	-0,073
-273,628	170,323	0,019	-0,019
-272,613	-200,000	-0,009	-0,099
-271,599	-71,925	0,066	-0,018
-270,584	-167,997	0,052	-0,001
-269,570	-200,000	0,002	0,060
-268,555	-200,000	-0,078	0,000
-267,540	-7,126	-0,096	0,047
-266,526	71,982	-0,087	-0,066
-265,511	772,333	0,018	-0,035
-264,497	212,317	-0,059	-0,067
-263,482	246,882	-0,052	0,063
-262,467	97,539	-0,070	0,058
-261,453	7,430	-0,114	-0,062
-260,438	454,008	0,034	0,054
-259,424	-87,759	0,149	0,032
-258,409	-200,000	0,009	-0,049
-257,395	-200,000	-0,013	0,057
-256,380	-142,431	-0,144	-0,010
-255,365	-146,587	-0,056	0,003
-254,351	117,058	-0,089	-0,079
-253,336	638,760	0,074	-0,137
-252,322	-41,070	-0,064	-0,024
-251,307	522,428	0,065	-0,112
-250,292	560,638	-0,040	-0,071
-249,278	-149,905	0,124	-0,007
-248,263	199,596	0,063	0,070
-247,249	-200,000	0,009	-0,110
-246,234	-2,999	0,116	-0,058
-245,219	-200,000	0,042	-0,166
-244,205	-31,590	-0,081	0,033
-243,190	-5,640	0,061	-0,030
-242,176	-17,309	0,171	-0,078
-241,161	-27,154	-0,123	-0,052
-240,146	-83,118	0,091	0,021
-239,132	61,495	-0,066	-0,047
-238,117	-160,465	-0,043	-0,002
-237,103	74,800	-0,088	0,067
-236,088	101,871	-0,051	-0,043
-235,073	-200,000	0,011	0,164
-234,059	-133,375	0,059	-0,005
-233,044	800,000	-0,016	0,042
-232,030	800,000	0,036	0,089
-231,015	-200,000	0,015	0,089
-230,000	-78,755	-0,071	-0,017
-228,986	800,000	-0,052	-0,143
-227,971	-200,000	0,004	-0,047
-226,957	-100,807	-0,103	0,018
-225,942	353,960	-0,052	0,075
-224,927	319,303	-0,017	0,024
-223,913	-200,000	0,012	-0,124
-222,898	120,016	-0,167	-0,150
-221,884	800,000	-0,050	-0,105
-220,869	487,857	0,043	0,071
-219,855	-107,257	0,032	-0,005
-218,840	800,000	-0,004	-0,010
-217,825	478,913	0,005	0,009
-216,811	67,125	-0,108	-0,080
-215,796	182,641	0,005	0,005
-214,782	627,552	-0,065	-0,118
-213,767	383,815	0,027	-0,040
-212,752	51,702	0,068	0,047
-211,738	-200,000	0,025	0,087
-210,723	-200,000	-0,000	0,076
-209,709	16,965	0,071	0,040
-208,694	-200,000	-0,009	0,067
-207,679	-88,791	-0,048	0,010
-206,665	800,000	-0,022	0,065
-205,650	478,001	-0,049	-0,080
-204,636	-200,000	-0,003	0,149
-203,621	170,202	-0,079	0,082
-202,606	-64,400	-0,114	0,033
-201,592	-98,060	-0,071	-0,013
-200,577	19,990	0,073	0,042
-199,563	-90,608	0,127	-0,026
-198,548	206,001	0,037	-0,041
-197,533	-24,015	-0,024	-0,010
-196,519	800,000	0,056	0,143
-195,504	-98,074	-0,137	0,025
-194,490	-137,379	-0,134	0,011
-193,475	439,524	0,049	-0,077
-192,460	-25,074	-0,067	-0,029
-191,446	0,867	-0,030	-0,015
-190,431	-72,490	0,053	0,014
-189,417	-61,305	-0,097	0,029
-188,402	168,224	-0,070	-0,072
-187,387	-47,661	-0,090	-0,031
-186,373	612,178	-0,012	0,021
-185,358	-78,935	0,128	-0,031
-184,344	-200,000	0,005	-0,124
-183,329	363,895	0,034	0,049
-182,315	-6,196	0,146	0,072
-181,300	312,194	-0,108	0,146
-180,285	-90,283	-0,064	0,013
-179,271	665,099	-0,075	0,141
-178,256	-53,137	-0,155	-0,051
-177,242	-87,316	0,051	-0,011
-176,227	225,112	0,071	0,083
-175,212	143,118	0,014	0,013
-174,198	-200,000	-0,008	-0,064
-173,183	516,668	-0,049	-0,083
-172,169	789,457	-0,053	0,106
-171,154	-135,993	0,071	0,006
-170,139	20,423	0,116	0,067
-169,125	458,024	0,076	0,122
-168,110	115,851	-0,071	0,062
-167,096	94,352	-0,026	0,021
-166,081	59,328	-0,034	0,024
-165,066	70,609	0,093	-0,070
-164,052	204,491	-0,035	-0,040
-163,037	-29,987	-0,058	0,024
-162,023	-200,000	-0,004	0,047
-161,008	101,416	0,064	-0,053
-159,993	180,245	-0,023	-0,024
-158,979	168,617	0,067	-0,069
-157,964	-78,295	-0,117	-0,029
-156,950	231,121	0,089	0,106
-155,935	-51,006	0,055	0,018
-154,920	-82,185	0,185	0,043
-153,906	-200,000	0,003	0,056
-152,891	432,489	-0,026	0,040
-151,877	800,000	0,055	0,126
-150,862	-200,000	-0,021	0,070
-149,847	-200,000	-0,010	0,114
-148,833	65,651	-0,055	0,040
-147,818	-93,238	-0,122	0,024
-146,804	-71,402	0,053	0,014
-145,789	-58,557	-0,107	0,033
-144,775	-200,000	0,014	0,054
-143,760	472,127	-0,074	-0,120
-142,745	-37,680	-0,106	-0,040
-141,731	168,238	-0,077	0,079
-140,716	-57,977	0,084	0,026
-139,702	-25,836	-0,060	0,025
-138,687	-200,000	-0,009	0,043
-137,672	-94,163	-0,076	-0,015
-136,658	-200,000	-0,025	0,119
-135,643	726,971	-0,048	-0,093
-134,629	-200,000	-0,004	0,012
-133,614	800,000	0,057	0,129
-132,599	-200,000	0,001	0,052
-131,585	800,000	0,021	0,065
-130,570	97,436	0,075	0,062
-129,556	360,104	0,060	-0,087
-128,541	228,895	0,042	0,049
-127,526	18,485	-0,017	-0,010
-126,512	-49,474	-0,041	-0,014
-125,497	124,624	-0,072	-0,065
-124,483	249,657	-0,050	0,061
-123,468	-118,233	-0,094	0,012
-122,453	501,304	-0,114	-0,189
-121,439	-200,000	0,037	-0,145
-120,424	291,999	-0,055	0,073
-119,410	253,579	-0,071	-0,087
-118,395	800,000	0,027	0,058
-117,380	-63,063	-0,118	0,035
-116,366	38,782	0,073	0,047
-115,351	-138,657	-0,072	-0,006
-114,337	16,348	-0,034	-0,019
-113,322	-200,000	-0,001	0,093
-112,307	-150,424	0,234	0,013
-111,293	252,253	-0,087	-0,107
-110,278	256,035	-0,040	0,049
-109,264	36,793	0,116	-0,074
-108,249	-54,043	-0,039	0,013
-107,234	778,473	0,099	-0,196
-106,220	-200,000	0,035	-0,149
-105,205	-94,603	0,056	0,011
-104,191	218,858	-0,007	-0,008
-103,176	-200,000	0,021	0,149
-102,162	225,588	-0,125	0,146
-101,147	693,836	0,032	0,061
-100,132	-200,000	0,005	0,073
-99,118	418,277	-0,030	0,047
-98,103	-200,000	0,007	-0,165
-97,089	182,476	0,051	0,054
-96,074	-200,000	-0,008	0,127
-95,059	91,722	-0,065	0,052
-94,045	-200,000	0,006	-0,073
-93,030	199,667	-0,025	-0,028
-92,016	-200,000	-0,021	0,100
-91,001	-148,380	-0,076	-0,004
-89,986	-200,000	0,009	0,074
-88,972	75,563	0,093	0,071
-87,957	-114,849	0,108	0,015
-86,943	-122,759	0,053	-0,006
-85,928	658,652	-0,033	0,061
-84,913	38,204	-0,018	-0,011
-83,899	-200,000	0,004	-0,020
-82,884	-200,000	0,039	0,200
-81,870	-200,000	-0,010	0,147
-80,855	222,480	0,044	0,050
-79,840	-80,237	-0,164	0,039
-78,826	61,136	-0,057	-0,041
-77,811	800,000	0,041	-0,109
-76,797	-70,605	-0,070	-0,019
-75,782	188,352	-0,161	0,173
-74,767	101,676	0,113	0,094
-73,753	-104,461	-0,117	-0,019
-72,738	209,003	0,101	0,114
-71,724	-5,654	0,071	0,035
-70,709	-128,272	-0,077	-0,008
-69,694	-79,288	-0,136	-0,033
-68,680	416,499	0,082	0,126
-67,665	172,724	-0,092	0,096
-66,651	-123,608	0,162	-0,018
-65,636	118,005	-0,046	-0,040
-64,622	-150,135	0,070	-0,004
-63,607	260,597	-0,028	0,035
-62,592	800,000	0,042	0,119
-61,578	800,000	-0,008	-0,017
-60,563	49,559	-0,096	0,065
-59,549	280,667	-0,112	0,144
-58,534	-1,911	-2,109	-1,061
-57,519	-200,000	-0,142	-0,832
-56,505	-200,000	-1,381	-5,000
-55,490	102,041	0,765	0,641
-54,476	800,000	5,269	12,028
-53,461	-200,000	17,856	290,792
-52,446	800,000	727,237	2231,053
-51,432	536,258	1639,971	2803,999
-50,417	109,547	1629,494	1400,643
-49,403	73,202	1283,468	962,047
-48,388	31,549	1026,215	631,633
-47,373	19,942	988,297	570,057
-46,359	18,331	976,437	557,918
-45,344	15,575	972,408	546,584
-44,330	15,786	970,978	546,450
-43,315	15,338	969,214	543,974
-42,300	15,281	967,974	543,070
-41,286	15,230	967,086	542,385
-40,271	15,239	965,988	541,777
-39,257	15,285	965,273	541,502
-38,242	15,288	964,492	541,053
-37,227	15,294	963,614	540,559
-36,213	15,242	962,724	539,870
-35,198	15,246	961,703	539,290
-34,184	15,343	961,040	539,210
-33,169	15,230	960,282	538,397
-32,154	15,341	959,126	538,086
-31,140	15,309	958,268	537,482
-30,125	15,288	957,570	536,999
-29,111	15,284	956,709	536,482
-28,096	15,317	956,063	536,205
-27,082	15,277	955,376	535,672
-26,067	15,284	954,486	535,171
-25,052	15,311	953,972	534,948
-24,038	15,268	953,222	534,371
-23,023	15,194	952,608	533,767
-22,009	15,277	951,862	533,594
-20,994	15,237	951,427	533,202
-19,979	15,268	950,751	532,900
-18,965	15,263	950,098	532,498
-17,950	15,231	949,559	532,071
-16,936	15,119	949,046	531,405
-15,921	15,236	948,077	531,214
-14,906	15,205	947,449	530,744
-13,892	15,180	946,707	530,227
-12,877	15,156	946,261	529,880
-11,863	15,055	945,705	529,225
-10,848	15,180	945,077	529,251
-9,833	15,245	944,675	529,213
-8,819	15,184	944,108	528,678
-7,804	15,110	943,364	528,006
-6,790	15,180	942,765	527,873
-5,775	15,198	942,229	527,609
-4,760	15,251	941,405	527,295
-3,746	15,198	940,914	526,830
-2,731	15,037	940,099	525,845
-1,717	14,979	939,592	525,358
-0,702	15,063	938,652	525,073
0,313	14,819	938,186	524,837
1,327	18,177	936,311	534,313
2,342	27,306	789,832	474,768
3,356	23,812	444,504	261,996
4,371	-5,528	295,330	144,760
5,386	-9,650	276,867	131,796
6,400	-10,997	271,314	127,890
7,415	-11,172	269,106	126,677
8,429	-11,100	267,676	126,058
9,444	-11,256	266,800	125,493
10,459	-10,858	265,972	125,454
11,473	-11,082	265,383	124,962
12,488	-11,237	264,961	124,611
13,502	-11,482	264,298	124,066
14,517	-11,294	263,862	124,021
15,531	-11,263	263,581	123,905
16,546	-11,252	263,181	123,716
17,561	-11,337	262,801	123,451
18,575	-11,133	262,584	123,520
19,590	-11,316	262,289	123,206
20,604	-11,100	261,756	123,139
21,619	-11,188	261,477	122,918
22,634	-11,388	261,198	122,597
23,648	-11,264	260,877	122,546
24,663	-11,372	260,845	122,423
25,677	-11,384	260,354	122,171
26,692	-11,331	260,224	122,147
27,707	-11,168	259,682	122,026
28,721	-11,477	259,562	121,685
29,736	-11,290	259,223	121,681
30,750	-11,364	258,904	121,454
31,765	-11,329	258,935	121,490
32,780	-11,209	258,641	121,447
33,794	-11,551	258,420	121,030
34,809	-11,385	258,136	121,032
35,823	-11,183	257,838	121,060
36,838	-11,414	257,774	120,816
37,853	-11,370	257,176	120,564
38,867	-11,497	257,204	120,455
39,882	-11,638	257,024	120,236
40,896	-11,411	256,690	120,267
41,911	-11,488	256,353	120,031
42,926	-11,393	256,085	119,979
43,940	-11,549	255,979	119,781
44,955	-11,518	255,678	119,658
45,969	-11,505	255,491	119,570
46,984	-11,753	255,313	119,261
47,999	-11,982	254,836	118,828
49,013	-12,206	254,772	118,593
50,028	-12,173	254,379	118,428
51,042	-12,278	254,191	118,238
52,057	-12,387	253,987	118,039
53,071	-12,206	253,833	118,113
54,086	-12,137	253,527	118,020
55,101	-12,094	253,526	118,047
56,115	-11,659	253,392	118,349
57,130	-11,373	253,213	118,502
58,144	-11,049	253,036	118,688
59,159	-11,163	252,907	118,519
60,174	-11,306	252,543	118,215
61,188	-11,187	252,386	118,233
62,203	-11,098	252,108	118,169
63,217	-11,402	252,021	117,856
64,232	-11,328	251,775	117,794
65,247	-11,147	251,340	117,735
66,261	-11,316	251,344	117,582
67,276	-11,578	251,063	117,215
68,290	-11,734	250,892	116,992
69,305	-12,137	250,566	116,486
70,320	-11,783	250,458	116,727
71,334	-11,403	250,194	116,917
72,349	-11,212	250,114	117,032
73,363	-11,123	250,013	117,050
74,378	-11,327	249,864	116,796
75,393	-11,569	249,508	116,414
76,407	-11,236	249,390	116,631
77,422	-11,439	249,246	116,381
78,436	-11,377	248,816	116,222
79,451	-11,388	248,696	116,147
80,466	-11,549	248,462	115,892
81,480	-11,588	248,298	115,771
82,495	-11,588	248,015	115,630
83,509	-11,466	247,758	115,602
84,524	-11,542	247,695	115,499
85,539	-11,563	247,247	115,261
86,553	-11,859	247,251	115,004
87,568	-11,684	246,997	115,023
88,582	-11,674	246,676	114,871
89,597	-11,622	246,621	114,879
90,611	-11,469	246,667	115,019
91,626	-11,334	246,415	115,004
92,641	-11,174	246,096	114,979
93,655	-11,400	245,970	114,720
94,670	-11,545	245,776	114,499
95,684	-11,642	245,642	114,345
96,699	-11,666	245,327	114,168
97,714	-11,655	245,090	114,057
98,728	-11,475	244,882	114,100
99,743	-11,665	244,760	113,874
100,757	-11,700	244,523	113,726
101,772	-11,836	244,309	113,503
102,787	-11,491	244,024	113,646
103,801	-11,633	244,033	113,522
104,816	-11,383	243,841	113,630
105,830	-11,315	243,774	113,645
106,845	-11,243	243,525	113,578
107,860	-11,447	243,448	113,364
108,874	-11,379	243,160	113,276
109,889	-11,556	243,102	113,092
110,903	-11,675	242,818	112,852
111,918	-11,563	242,515	112,793
112,933	-11,504	242,364	112,762
113,947	-11,500	242,279	112,716
114,962	-11,435	242,148	112,698
115,976	-11,400	241,971	112,634
116,991	-11,498	241,725	112,429
118,006	-11,295	241,599	112,526
119,020	-11,384	241,501	112,399
120,035	-11,289	241,211	112,331
121,049	-11,266	241,116	112,295
122,064	-11,495	240,914	112,004
123,079	-11,290	240,483	111,961
124,093	-11,577	240,392	111,675
125,108	-11,801	240,283	111,432
126,122	-12,013	239,922	111,082
127,137	-11,874	239,844	111,149
128,151	-11,934	239,633	110,993
129,166	-11,658	239,481	111,136
130,181	-11,704	239,216	110,966
131,195	-11,685	239,120	110,927
132,210	-11,646	238,947	110,869
133,224	-11,527	238,821	110,897
134,239	-11,602	238,691	110,765
135,254	-11,297	238,281	110,812
136,268	-11,600	238,317	110,574
137,283	-11,946	237,951	110,116
138,297	-12,030	237,839	109,986
139,312	-12,141	237,695	109,821
140,327	-11,617	237,593	110,185
141,341	-10,977	237,424	110,611
142,356	-11,182	237,377	110,414
143,370	-11,090	237,175	110,384
144,385	-11,051	237,050	110,348
145,400	-10,876	236,769	110,347
146,414	-10,941	236,526	110,173
147,429	-11,171	236,408	109,923
148,443	-11,214	236,266	109,813
149,458	-11,268	236,163	109,713
150,473	-11,201	236,006	109,684
151,487	-11,129	235,794	109,633
152,502	-11,103	235,643	109,573
153,516	-11,087	235,434	109,478
154,531	-11,290	235,274	109,234
155,546	-11,138	235,082	109,255
156,560	-11,287	235,057	109,116
157,575	-11,344	234,773	108,928
158,589	-11,717	234,692	108,586
159,604	-11,157	234,418	108,892
160,619	-11,033	234,229	108,894
161,633	-11,009	234,088	108,837
162,648	-10,888	234,104	108,930
163,662	-11,105	233,916	108,662
164,677	-11,364	233,837	108,411
165,692	-11,130	233,599	108,475
166,706	-11,136	233,391	108,365
167,721	-10,774	233,182	108,543
168,735	-10,978	233,197	108,380
169,750	-10,915	232,996	108,326
170,764	-10,978	232,742	108,149
171,779	-11,067	232,681	108,041
172,794	-10,903	232,352	108,007
173,808	-11,270	232,244	107,659
174,823	-11,652	231,930	107,206
175,837	-11,690	231,702	107,061
176,852	-11,339	231,753	107,349
177,867	-11,115	231,667	107,475
178,881	-11,056	231,505	107,436
179,896	-11,002	231,298	107,372
180,910	-10,943	231,120	107,327
181,925	-10,966	230,988	107,237
182,940	-11,021	230,959	107,172
183,954	-10,783	230,664	107,210
184,969	-10,740	230,450	107,135
185,983	-10,615	230,310	107,157
186,998	-10,821	230,263	106,966
188,013	-10,845	230,101	106,863
189,027	-11,076	230,105	106,676
190,042	-10,888	229,919	106,725
191,056	-10,791	229,594	106,640
192,071	-10,962	229,411	106,414
193,086	-10,914	229,231	106,358
194,100	-10,813	229,117	106,373
195,115	-11,165	228,663	105,882
196,129	-11,462	228,831	105,721
197,144	-5,905	230,623	110,851
198,159	0,329	232,475	116,591
199,173	2,927	233,153	118,946
200,188	3,348	233,070	119,222
201,202	3,316	232,795	119,045
202,217	3,620	232,743	119,244
203,232	3,599	232,779	119,236
204,246	3,911	232,536	119,343
205,261	3,716	232,411	119,116
206,275	3,950	232,371	119,267
207,290	3,975	232,208	119,192
208,304	3,894	232,034	119,029
209,319	4,080	231,841	119,064
210,334	3,633	231,787	118,679
211,348	3,597	231,368	118,427
212,363	3,311	231,127	118,072
213,377	3,275	230,856	117,895
214,392	3,193	230,793	117,789
215,407	3,400	230,668	117,875
216,421	3,362	230,650	117,826
217,436	3,245	230,342	117,568
218,450	2,930	230,131	117,208
219,465	2,811	230,018	117,049
220,480	3,132	229,903	117,226
221,494	2,644	229,803	116,791
222,509	3,064	229,745	117,072
223,523	3,240	229,544	117,094
224,538	3,126	229,321	116,883
225,553	3,055	229,136	116,724
226,567	3,166	229,093	116,776
227,582	3,425	229,094	116,964
228,596	3,446	228,984	116,914
229,611	3,522	228,589	116,760
230,626	2,964	228,414	116,235
231,640	2,695	228,360	115,992
232,655	3,239	228,269	116,350
233,669	3,909	228,117	116,771
234,684	3,723	228,148	116,634
235,699	3,816	227,831	116,533
236,713	3,343	227,608	116,050
237,728	3,176	227,351	115,782
238,742	2,811	227,360	115,500
239,757	3,179	227,194	115,684
240,772	3,223	226,939	115,577
241,786	2,987	226,811	115,324
242,801	3,476	226,676	115,613
243,815	3,549	226,730	115,686
244,830	3,610	226,527	115,618
245,844	3,249	226,233	115,185
246,859	3,288	226,014	115,093
247,874	3,389	225,972	115,138
248,888	3,273	226,042	115,076
249,903	3,259	225,643	114,852
250,917	3,243	225,441	114,726
251,932	3,109	225,418	114,604
252,947	3,036	225,113	114,385
253,961	3,009	225,159	114,377
254,976	2,999	224,875	114,216
255,990	3,384	224,747	114,428
257,005	3,330	224,680	114,343
258,020	3,462	224,496	114,338
259,034	3,593	224,398	114,375
260,049	3,556	224,267	114,271
261,063	3,339	224,204	114,067
262,078	3,706	224,000	114,226
263,093	3,756	223,879	114,191
264,107	3,591	223,697	113,966
265,122	3,425	223,598	113,782
266,136	3,714	223,571	113,973
267,151	3,666	223,451	113,866
268,166	3,333	223,100	113,430
269,180	3,110	222,770	113,087
270,195	3,069	222,672	112,997
271,209	3,206	222,610	113,057
272,224	3,014	222,499	112,848
273,239	3,286	222,358	112,967
274,253	3,242	222,179	112,834
275,268	3,116	221,972	112,626
276,282	2,852	221,861	112,365
277,297	2,909	221,652	112,291
278,312	3,219	221,524	112,445
279,326	3,037	221,690	112,385
280,341	3,160	221,399	112,318
281,355	3,308	221,146	112,288
282,370	3,115	221,078	112,101
283,384	2,894	220,881	111,830
284,399	3,093	220,599	111,823
285,414	2,963	220,605	111,721
286,428	3,201	220,491	111,827
287,443	3,405	220,333	111,886
288,457	3,168	220,252	111,662
289,472	2,987	220,094	111,439
290,487	2,568	219,849	111,000
291,501	2,776	219,661	111,047
292,516	2,863	219,479	111,008
293,530	3,118	219,335	111,111
294,545	2,963	219,204	110,922
295,560	3,119	219,280	111,064
296,574	3,249	219,131	111,073
297,589	3,247	218,937	110,963
298,603	3,382	218,852	111,008
299,618	3,297	218,766	110,893
300,633	3,268	218,604	110,780
301,647	3,154	218,616	110,694
302,662	3,477	218,376	110,796
303,676	3,633	218,105	110,761
304,691	3,358	217,958	110,478
305,706	3,399	218,022	110,531
306,720	3,141	217,730	110,186
307,735	3,195	217,459	110,078
308,749	3,094	217,490	110,012
309,764	3,405	217,347	110,153
310,779	3,502	217,188	110,133
311,793	3,451	217,000	109,991
312,808	3,453	216,835	109,898
313,822	3,278	216,760	109,725
314,837	3,449	216,593	109,753
315,852	3,158	216,210	109,341
316,866	3,255	216,176	109,384
317,881	3,353	216,261	109,487
318,895	3,384	216,045	109,391
319,910	3,362	215,869	109,276
320,925	3,001	215,729	108,938
321,939	2,607	215,494	108,529
322,954	3,141	215,185	108,744
323,968	3,250	215,423	108,931
324,983	3,216	215,228	108,799
325,997	3,460	215,153	108,925
327,012	3,056	214,978	108,540
328,027	3,142	214,809	108,506
329,041	3,658	214,826	108,870
330,056	3,710	214,787	108,877
331,070	3,388	214,459	108,474
332,085	3,179	214,138	108,154
333,100	3,061	214,128	108,056
334,114	3,426	214,005	108,242
335,129	3,346	213,952	108,149
336,143	3,386	213,694	108,037
337,158	3,404	213,563	107,974
338,173	3,359	213,444	107,872
339,187	3,047	213,271	107,556
340,202	3,054	213,146	107,488
341,216	2,842	212,963	107,237
342,231	3,280	212,845	107,476
343,246	3,061	212,661	107,220
344,260	2,946	212,576	107,087
345,275	3,131	212,510	107,174
346,289	3,553	212,482	107,446
347,304	3,447	212,284	107,262
348,319	3,109	212,115	106,931
349,333	3,148	211,901	106,840
350,348	3,358	211,843	106,948
351,362	3,372	211,732	106,892
352,377	3,264	211,721	106,802
353,392	3,076	211,424	106,511
354,406	3,420	211,344	106,702
355,421	195,692	1340,278	1418,414
356,435	156,321	1477,806	1418,390
