DTS Sentinel unit serial number:	SN410029Multiplexer serial number:	ORYXHardware model number:	OX2-SRSoftware version number:	ORYX F/W v4,00 Oryx Data Collector v3.7.2.0data status	okinstallation	B6 Nyhavnadifferential loss correction	single-endedforward channel	channel 2reverse channel	N/Adate	2023/12/09time	16:25:08forward acquisition time	300,00reverse acquisition time	0,00gamma	499,1914k internal	0,3132k external	0,3132temperature offset calibration	1,0000default loss term (dB/km)	0,3820temperature slope calibration	1,0000multiplexer offset coefficient	1,0000multiplexer slope coefficient	1,0000fibre end	0,00T internal ref (°C)	20,87T ext. ref 1 (°C)	4,70T ext. ref 2 (°C)	4,70length (m)	temperature (°C)	Stokes	anti-Stokes-744,400	26,319	-0,058	0,036
-743,385	-64,459	-0,263	0,079
-742,371	64,785	-0,013	-0,010
-741,356	106,972	-0,198	0,175
-740,342	-8,317	0,111	0,055
-739,327	-26,831	-0,246	0,106
-738,312	-200,000	-0,010	0,050
-737,298	-79,221	-0,320	-0,080
-736,283	489,764	-0,112	-0,192
-735,269	-155,196	-0,265	-0,013
-734,254	142,221	0,016	0,016
-733,239	-111,322	-0,597	0,090
-732,225	-23,231	0,215	0,096
-731,210	-200,000	-0,012	0,046
-730,196	376,991	-0,048	0,074
-729,181	-200,000	0,002	0,039
-728,167	-200,000	-0,001	0,081
-727,152	24,618	0,082	0,050
-726,137	8,152	-0,065	-0,036
-725,123	-166,482	0,018	0,001
-724,108	-1,863	0,055	-0,029
-723,094	174,957	-0,070	-0,075
-722,079	204,473	0,026	-0,030
-721,064	-49,181	-0,104	0,037
-720,050	800,000	0,121	-0,268
-719,035	-175,676	-0,093	-0,002
-718,021	186,010	-0,051	-0,057
-717,006	-144,298	-0,162	0,011
-715,991	-75,432	-0,116	0,030
-714,977	800,000	-0,045	0,100
-713,962	-130,168	-0,069	-0,007
-712,948	301,069	-0,056	0,076
-711,933	800,000	-0,023	0,064
-710,918	335,250	-0,092	-0,132
-709,904	-114,585	-0,045	-0,006
-708,889	153,616	-0,091	0,093
-707,875	387,403	-0,063	-0,096
-706,860	170,364	0,055	0,059
-705,845	-200,000	-0,012	-0,086
-704,831	-149,804	0,057	0,003
-703,816	-183,641	0,066	0,001
-702,802	161,362	-0,094	0,098
-701,787	-159,707	-0,026	0,001
-700,772	-200,000	0,001	0,019
-699,758	-124,147	-0,059	-0,007
-698,743	-8,841	-0,075	0,037
-697,729	-39,774	0,059	-0,023
-696,714	-61,278	-0,089	-0,028
-695,699	800,000	-0,080	-0,173
-694,685	-10,619	-0,098	-0,048
-693,670	167,077	-0,048	-0,051
-692,656	-0,205	-0,066	0,035
-691,641	103,666	0,090	-0,078
-690,627	89,000	0,061	0,050
-689,612	264,795	-0,025	-0,032
-688,597	-200,000	0,015	-0,110
-687,583	-200,000	-0,021	0,102
-686,568	660,168	-0,061	0,117
-685,554	294,229	-0,067	0,091
-684,539	-55,185	-0,091	-0,030
-683,524	800,000	-0,041	0,123
-682,510	60,596	-0,017	0,013
-681,495	-200,000	-0,031	-0,115
-680,481	377,399	0,027	0,041
-679,466	800,000	-0,090	-0,231
-678,451	-140,526	-0,057	0,004
-677,437	784,377	0,047	-0,096
-676,422	-200,000	-0,002	-0,043
-675,408	81,744	0,032	-0,026
-674,393	-59,057	-0,112	0,036
-673,378	-129,175	0,111	0,011
-672,364	-125,782	-0,105	0,012
-671,349	-148,571	0,028	-0,002
-670,335	-200,000	0,023	-0,082
-669,320	-200,000	0,014	-0,128
-668,305	-177,787	-0,075	0,001
-667,291	-200,000	0,019	0,087
-666,276	55,211	-0,013	-0,010
-665,262	-51,543	-0,119	0,041
-664,247	121,928	0,040	-0,037
-663,232	103,198	-0,023	-0,020
-662,218	-200,000	0,031	0,160
-661,203	-200,000	-0,015	0,054
-660,189	-6,201	-0,012	0,006
-659,174	-17,178	-0,130	-0,061
-658,159	76,970	-0,033	-0,026
-657,145	58,873	0,029	0,021
-656,130	-49,589	-0,050	0,018
-655,116	289,058	0,057	-0,076
-654,101	800,000	0,024	0,066
-653,086	26,317	-0,033	-0,021
-652,072	800,000	0,047	0,109
-651,057	-200,000	-0,006	-0,061
-650,043	-143,778	-0,059	-0,004
-649,028	367,059	-0,008	0,013
-648,014	-160,417	-0,047	0,002
-646,999	37,635	-0,014	0,009
-645,984	697,034	0,065	0,127
-644,970	78,521	0,011	0,009
-643,955	-110,691	-0,097	0,015
-642,941	-200,000	-0,003	0,057
-641,926	229,622	-0,060	-0,072
-640,911	-37,196	-0,099	0,039
-639,897	417,559	0,019	-0,030
-638,882	91,155	0,094	-0,078
-637,868	-91,504	0,048	0,010
-636,853	-200,000	-0,027	-0,099
-635,838	181,007	0,058	-0,064
-634,824	-181,733	-0,081	-0,001
-633,809	800,000	0,023	-0,049
-632,795	-200,000	0,017	-0,101
-631,780	-200,000	0,023	-0,105
-630,765	11,253	-0,091	0,052
-629,751	800,000	-0,043	-0,121
-628,736	-161,573	-0,143	-0,005
-627,722	160,694	-0,034	-0,035
-626,707	-157,834	0,116	-0,005
-625,692	-74,659	0,083	0,022
-624,678	-76,071	-0,170	0,044
-623,663	747,525	-0,048	-0,097
-622,649	-200,000	0,006	-0,059
-621,634	800,000	-0,038	-0,087
-620,619	113,366	-0,020	0,018
-619,605	107,970	0,139	-0,123
-618,590	11,933	-0,100	0,057
-617,576	-200,000	0,027	0,171
-616,561	39,253	0,070	0,046
-615,546	121,674	0,083	-0,077
-614,532	800,000	-0,066	-0,150
-613,517	800,000	-0,096	-0,218
-612,503	-94,270	0,133	-0,027
-611,488	181,259	0,060	0,066
-610,474	52,414	0,102	-0,072
-609,459	78,873	-0,034	-0,027
-608,444	800,000	-0,021	-0,045
-607,430	800,000	0,013	-0,039
-606,415	-200,000	-0,017	-0,087
-605,401	800,000	0,060	0,152
-604,386	286,883	-0,140	-0,187
-603,371	30,323	0,038	-0,024
-602,357	-200,000	0,017	-0,130
-601,342	-200,000	-0,020	-0,140
-600,328	-200,000	0,003	-0,048
-599,313	9,725	0,081	-0,045
-598,298	65,583	-0,034	0,025
-597,284	-200,000	0,010	0,050
-596,269	-200,000	0,005	0,022
-595,255	118,502	0,092	-0,084
-594,240	-71,494	-0,082	-0,023
-593,225	-32,159	0,012	-0,005
-592,211	-82,032	-0,032	-0,008
-591,196	-200,000	-0,016	0,073
-590,182	-109,619	-0,073	0,011
-589,167	190,244	0,044	0,049
-588,152	325,539	-0,018	0,025
-587,138	-200,000	0,006	-0,021
-586,123	-200,000	-0,008	0,036
-585,109	-34,026	-0,073	-0,030
-584,094	-200,000	-0,032	-0,131
-583,079	153,193	0,077	-0,078
-582,065	406,637	-0,027	0,043
-581,050	432,216	0,105	0,168
-580,036	21,309	-0,045	-0,027
-579,021	620,152	0,050	-0,093
-578,006	-100,338	-0,139	-0,025
-576,992	-102,287	-0,071	0,013
-575,977	800,000	0,053	-0,138
-574,963	800,000	0,034	0,109
-573,948	289,817	0,058	0,079
-572,934	244,887	0,040	-0,050
-571,919	-22,436	0,008	0,004
-570,904	58,460	0,098	-0,071
-569,890	456,337	0,061	-0,100
-568,875	-19,049	-0,065	0,030
-567,861	-116,748	-0,079	-0,011
-566,846	-200,000	0,009	0,043
-565,831	55,702	-0,129	-0,092
-564,817	185,747	-0,047	-0,051
-563,802	-200,000	0,000	-0,002
-562,788	800,000	-0,040	-0,131
-561,773	800,000	-0,027	0,079
-560,758	-200,000	-0,012	-0,049
-559,744	800,000	0,021	-0,066
-558,729	789,586	-0,028	0,057
-557,715	-200,000	0,026	-0,116
-556,700	-200,000	0,013	-0,127
-555,685	34,727	-0,097	-0,062
-554,671	800,000	-0,046	0,117
-553,656	-25,714	-0,097	0,042
-552,642	-154,559	-0,129	-0,006
-551,627	199,578	0,043	0,049
-550,612	-161,479	-0,260	-0,010
-549,598	-80,962	0,003	-0,001
-548,583	198,220	0,078	-0,088
-547,569	-200,000	-0,012	0,142
-546,554	180,534	0,122	0,132
-545,539	-165,834	-0,040	0,001
-544,525	206,025	-0,021	-0,024
-543,510	32,253	0,051	-0,033
-542,496	-83,536	-0,112	0,026
-541,481	725,334	0,047	-0,092
-540,466	800,000	-0,068	-0,177
-539,452	116,488	-0,020	0,018
-538,437	351,191	0,071	0,104
-537,423	-79,743	0,044	-0,011
-536,408	680,842	0,047	-0,090
-535,393	411,578	0,036	-0,057
-534,379	-16,328	-0,086	0,040
-533,364	178,400	-0,042	0,045
-532,350	100,009	0,018	-0,015
-531,335	-200,000	-0,019	0,074
-530,321	-23,802	-0,107	-0,047
-529,306	800,000	-0,046	0,097
-528,291	184,615	-0,066	-0,073
-527,277	-200,000	-0,019	0,069
-526,262	33,097	0,062	0,040
-525,248	63,383	0,074	-0,055
-524,233	8,546	0,024	0,013
-523,218	116,302	0,122	-0,110
-522,204	-148,469	0,109	-0,006
-521,189	22,331	-0,092	-0,056
-520,175	8,576	0,073	-0,040
-519,160	800,000	-0,068	-0,154
-518,145	713,276	0,054	0,106
-517,131	43,967	-0,067	-0,045
-516,116	-200,000	0,015	0,055
-515,102	800,000	0,037	-0,093
-514,087	-139,611	-0,105	0,008
-513,072	-172,135	-0,086	0,002
-512,058	174,905	0,074	0,079
-511,043	-75,290	0,080	-0,021
-510,029	776,999	0,033	0,066
-509,014	-136,444	-0,111	-0,009
-507,999	181,796	-0,078	-0,085
-506,985	-200,000	-0,006	-0,074
-505,970	112,358	-0,104	-0,093
-504,956	800,000	-0,036	0,081
-503,941	-192,946	0,015	0,000
-502,926	297,629	-0,008	-0,010
-501,912	356,776	-0,041	0,061
-500,897	-200,000	0,018	-0,069
-499,883	-200,000	-0,017	-0,125
-498,868	800,000	0,015	-0,042
-497,853	-20,738	-0,093	-0,042
-496,839	-181,905	-0,090	-0,001
-495,824	800,000	-0,033	0,081
-494,810	151,367	0,036	0,036
-493,795	224,194	-0,015	0,017
-492,781	112,700	0,036	-0,032
-491,766	111,274	0,064	-0,057
-490,751	39,028	-0,103	-0,068
-489,737	4,972	0,074	0,040
-488,722	800,000	-0,044	-0,120
-487,708	-181,600	0,069	-0,001
-486,693	-72,977	-0,068	-0,018
-485,678	-21,430	-0,056	0,025
-484,664	-103,815	-0,122	-0,021
-483,649	800,000	-0,004	0,014
-482,635	-125,101	0,038	0,004
-481,620	48,596	-0,028	0,019
-480,605	-200,000	0,013	-0,105
-479,591	-141,377	0,010	-0,001
-478,576	800,000	-0,045	-0,097
-477,562	800,000	-0,074	-0,168
-476,547	-200,000	0,002	0,033
-475,532	286,450	-0,057	0,076
-474,518	-78,189	0,017	0,004
-473,503	-142,442	0,114	0,008
-472,489	-200,000	0,031	-0,154
-471,474	196,439	-0,085	-0,095
-470,459	-57,697	-0,052	-0,017
-469,445	-200,000	0,017	-0,102
-468,430	-3,135	0,084	-0,043
-467,416	-119,153	0,028	0,004
-466,401	800,000	-0,056	0,142
-465,386	-200,000	0,021	0,083
-464,372	84,443	-0,075	0,060
-463,357	-66,868	-0,082	-0,024
-462,343	-151,435	-0,126	-0,007
-461,328	-200,000	-0,019	0,063
-460,313	-0,836	0,047	0,024
-459,299	-50,379	-0,058	0,020
-458,284	10,290	0,082	0,046
-457,270	-31,968	0,085	0,035
-456,255	800,000	-0,026	-0,059
-455,241	755,520	-0,026	-0,052
-454,226	276,122	0,063	0,083
-453,211	13,361	0,106	-0,060
-452,197	-200,000	-0,022	-0,080
-451,182	503,905	-0,028	-0,048
-450,168	231,614	-0,083	0,100
-449,153	778,683	-0,027	0,054
-448,138	249,530	-0,071	-0,088
-447,124	112,448	0,137	0,122
-446,109	-133,409	0,061	0,006
-445,095	233,949	-0,064	-0,078
-444,080	-162,467	-0,068	-0,002
-443,065	-91,637	0,073	0,015
-442,051	-200,000	0,043	-0,161
-441,036	288,752	-0,033	-0,045
-440,022	-68,557	0,136	0,038
-439,007	683,457	-0,067	-0,128
-437,992	31,181	0,130	-0,081
-436,978	-171,084	0,191	0,005
-435,963	-200,000	0,011	0,132
-434,949	-200,000	0,012	-0,049
-433,934	-200,000	-0,002	0,057
-432,919	133,108	0,078	0,074
-431,905	-200,000	0,031	0,117
-430,890	324,327	-0,064	0,090
-429,876	-200,000	-0,024	-0,086
-428,861	-100,754	-0,057	0,010
-427,846	800,000	-0,043	0,096
-426,832	-99,097	-0,102	-0,019
-425,817	800,000	-0,045	0,105
-424,803	-95,829	0,075	0,014
-423,788	340,075	0,037	-0,053
-422,773	800,000	0,033	-0,094
-421,759	800,000	-0,032	0,088
-420,744	800,000	0,061	0,162
-419,730	-200,000	0,011	0,124
-418,715	-87,457	-0,165	0,036
-417,701	800,000	0,019	-0,039
-416,686	-65,313	0,100	0,029
-415,671	16,531	0,097	0,056
-414,657	-42,201	0,108	-0,040
-413,642	800,000	0,056	0,115
-412,628	-26,026	0,082	0,035
-411,613	496,812	0,040	0,068
-410,598	228,809	-0,026	-0,032
-409,584	402,526	0,057	0,088
-408,569	-45,772	-0,115	0,041
-407,555	119,711	0,115	0,105
-406,540	427,150	-0,103	0,164
-405,525	153,358	-0,023	-0,024
-404,511	56,538	-0,106	-0,076
-403,496	120,636	-0,027	-0,024
-402,482	-106,875	-0,042	0,007
-401,467	-159,361	0,119	-0,005
-400,452	35,613	0,050	0,032
-399,438	102,458	0,063	-0,054
-398,423	318,866	-0,017	-0,024
-397,409	-200,000	0,003	0,027
-396,394	800,000	0,026	-0,053
-395,379	197,593	-0,047	0,053
-394,365	-32,139	0,191	-0,078
-393,350	27,687	0,057	-0,035
-392,336	-200,000	0,019	-0,120
-391,321	-29,007	-0,092	-0,038
-390,306	-26,248	0,115	0,049
-389,292	-135,923	-0,143	0,012
-388,277	88,223	0,024	-0,019
-387,263	-49,150	-0,047	-0,016
-386,248	-110,086	-0,026	0,004
-385,233	800,000	0,033	0,085
-384,219	-200,000	-0,014	0,089
-383,204	-36,529	-0,047	-0,019
-382,190	-200,000	0,019	-0,075
-381,175	-200,000	-0,013	0,151
-380,160	-200,000	0,019	0,087
-379,146	-200,000	0,026	0,096
-378,131	-100,981	-0,063	-0,011
-377,117	235,524	0,082	0,100
-376,102	127,582	0,078	0,072
-375,088	800,000	-0,028	0,059
-374,073	-150,229	0,134	0,007
-373,058	-120,348	0,105	-0,013
-372,044	-200,000	0,034	0,174
-371,029	-43,556	-0,046	0,017
-370,015	-35,866	0,088	-0,035
-369,000	800,000	0,051	-0,107
-367,985	-200,000	-0,007	0,032
-366,971	-34,297	0,032	-0,013
-365,956	-200,000	-0,031	0,129
-364,942	603,590	0,045	0,082
-363,927	800,000	0,036	0,073
-362,912	109,587	-0,042	-0,037
-361,898	493,354	-0,018	-0,030
-360,883	763,369	-0,055	0,109
-359,869	-106,192	-0,084	-0,014
-358,854	-159,445	0,160	0,006
-357,839	-55,594	0,123	0,040
-356,825	-143,360	0,104	0,007
-355,810	-200,000	-0,010	-0,059
-354,796	119,333	-0,046	-0,042
-353,781	174,693	0,061	-0,065
-352,766	505,373	-0,064	-0,109
-351,752	32,762	0,050	-0,032
-350,737	64,263	-0,047	-0,035
-349,723	-200,000	0,019	0,069
-348,708	-200,000	-0,014	0,048
-347,693	-200,000	-0,005	0,125
-346,679	215,642	-0,082	-0,095
-345,664	800,000	-0,081	-0,202
-344,650	478,142	0,031	0,051
-343,635	38,635	-0,064	-0,042
-342,620	-41,211	0,100	-0,037
-341,606	-30,132	-0,099	0,041
-340,591	800,000	0,047	0,141
-339,577	3,514	0,140	0,075
-338,562	317,145	0,042	-0,059
-337,548	-200,000	-0,027	-0,104
-336,533	462,902	-0,044	0,072
-335,518	800,000	-0,028	0,072
-334,504	800,000	0,039	-0,080
-333,489	50,076	-0,081	-0,056
-332,475	-32,122	-0,120	-0,049
-331,460	800,000	-0,029	0,074
-330,445	56,719	0,121	0,086
-329,431	-200,000	-0,001	-0,011
-328,416	-66,262	-0,102	0,029
-327,402	-200,000	0,005	-0,022
-326,387	126,045	-0,054	0,050
-325,372	-112,036	-0,122	0,018
-324,358	734,544	-0,041	-0,080
-323,343	289,661	0,039	0,052
-322,329	-2,657	0,056	-0,029
-321,314	-200,000	-0,008	0,057
-320,299	-200,000	-0,053	0,176
-319,285	-104,465	0,090	-0,015
-318,270	42,069	-0,053	0,035
-317,256	-39,212	-0,062	-0,024
-316,241	-12,534	0,054	0,026
-315,226	90,313	0,206	0,168
-314,212	765,271	0,019	-0,037
-313,197	467,395	-0,066	-0,109
-312,183	300,340	-0,069	-0,093
-311,168	-94,231	0,015	0,003
-310,153	-118,836	0,112	0,014
-309,139	124,037	0,020	-0,018
-308,124	800,000	0,029	0,078
-307,110	-92,977	0,040	0,008
-306,095	347,067	0,088	0,127
-305,080	800,000	0,037	0,112
-304,066	-200,000	-0,004	0,095
-303,051	-200,000	-0,002	-0,017
-302,037	130,917	-0,092	-0,086
-301,022	-21,247	0,127	-0,056
-300,008	-128,398	0,012	0,001
-298,993	261,581	-0,053	-0,067
-297,978	-132,412	0,080	0,007
-296,964	-10,806	-0,155	-0,075
-295,949	631,590	-0,046	-0,085
-294,935	-200,000	-0,017	-0,058
-293,920	-149,964	0,051	0,003
-292,905	800,000	-0,002	0,007
-291,891	-200,000	0,011	0,066
-290,876	-11,894	-0,043	0,020
-289,862	255,326	-0,099	-0,124
-288,847	692,035	0,004	-0,007
-287,832	60,098	-0,072	0,052
-286,818	-134,303	-0,043	-0,004
-285,803	-122,584	0,017	-0,002
-284,789	649,840	-0,035	0,065
-283,774	-52,160	0,074	0,025
-282,759	-121,615	-0,083	0,010
-281,745	800,000	0,094	-0,273
-280,730	425,707	-0,038	0,061
-279,716	304,002	0,027	0,037
-278,701	326,562	-0,030	-0,042
-277,686	83,920	-0,043	-0,034
-276,672	-153,032	-0,126	0,006
-275,657	-145,326	-0,087	-0,006
-274,643	330,109	0,098	0,137
-273,628	-11,192	0,033	0,016
-272,613	-20,569	-0,145	0,065
-271,599	-47,643	0,024	-0,009
-270,584	800,000	0,047	-0,136
-269,570	-74,362	0,092	-0,024
-268,555	800,000	0,031	-0,095
-267,540	800,000	-0,073	-0,205
-266,526	800,000	-0,076	-0,165
-265,511	327,350	-0,103	-0,144
-264,497	800,000	0,042	0,121
-263,482	-41,932	0,044	-0,016
-262,467	252,874	-0,051	0,063
-261,453	-73,997	0,060	-0,016
-260,438	-40,078	-0,146	0,055
-259,424	81,384	-0,022	-0,017
-258,409	800,000	-0,028	-0,073
-257,395	26,841	0,160	0,098
-256,380	268,489	-0,097	0,124
-255,365	-160,825	0,018	-0,001
-254,351	210,415	-0,082	-0,094
-253,336	800,000	-0,027	0,085
-252,322	-85,669	0,117	0,026
-251,307	419,736	-0,029	0,046
-250,292	-66,692	0,082	0,024
-249,278	-107,331	0,108	0,017
-248,263	800,000	-0,031	0,094
-247,249	800,000	-0,034	-0,077
-246,234	-200,000	0,007	0,080
-245,219	793,747	-0,039	0,078
-244,205	-83,802	-0,145	0,033
-243,190	-200,000	0,015	0,071
-242,176	800,000	-0,040	-0,084
-241,161	-143,896	-0,025	-0,002
-240,146	363,256	0,062	0,091
-239,132	275,247	-0,053	-0,068
-238,117	800,000	-0,050	0,132
-237,103	-200,000	-0,011	0,149
-236,088	217,663	0,077	-0,090
-235,073	-96,904	0,112	0,021
-234,059	-130,764	0,047	-0,005
-233,044	360,207	0,037	0,055
-232,030	800,000	-0,014	-0,031
-231,015	124,729	-0,013	-0,012
-230,000	681,467	-0,037	-0,070
-228,986	144,560	-0,028	-0,028
-227,971	64,065	-0,032	0,023
-226,957	-200,000	0,040	0,205
-225,942	-160,590	-0,076	-0,003
-224,927	226,662	-0,069	-0,082
-223,913	-46,755	0,107	-0,038
-222,898	-186,171	-0,046	-0,000
-221,884	-158,852	-0,101	0,004
-220,869	-200,000	-0,002	-0,037
-219,855	59,467	0,094	0,067
-218,840	749,736	-0,046	0,091
-217,825	676,599	-0,080	0,152
-216,811	167,748	0,083	0,086
-215,796	294,872	0,046	0,062
-214,782	-49,068	0,029	-0,010
-213,767	-97,485	0,118	-0,022
-212,752	-200,000	0,034	0,138
-211,738	-200,000	0,000	0,186
-210,723	800,000	-0,038	0,113
-209,709	297,783	0,071	-0,095
-208,694	19,909	0,045	0,027
-207,679	-95,587	-0,076	-0,015
-206,665	-200,000	-0,000	0,013
-205,650	-81,182	0,105	0,025
-204,636	99,715	0,085	0,072
-203,621	-200,000	-0,005	0,048
-202,606	-44,889	-0,087	-0,031
-201,592	-200,000	-0,001	-0,089
-200,577	106,537	-0,105	-0,090
-199,563	212,474	-0,051	0,059
-198,548	-185,313	0,144	0,002
-197,533	729,319	0,015	-0,029
-196,519	-16,217	0,100	0,046
-195,504	-200,000	0,016	-0,172
-194,490	78,377	-0,068	-0,053
-193,475	-11,280	0,092	0,044
-192,460	-200,000	0,003	-0,027
-191,446	-200,000	0,013	0,128
-190,431	-76,735	0,033	0,008
-189,417	1,814	0,039	0,020
-188,402	-200,000	-0,019	0,094
-187,387	-78,198	-0,010	-0,002
-186,373	74,660	0,062	-0,047
-185,358	139,752	-0,021	0,020
-184,344	-200,000	-0,021	0,076
-183,329	-200,000	0,028	0,106
-182,315	-200,000	-0,010	0,051
-181,300	60,916	-0,071	0,051
-180,285	-34,482	0,162	0,064
-179,271	-101,998	-0,010	-0,002
-178,256	-200,000	0,011	-0,102
-177,242	800,000	0,031	0,076
-176,227	-200,000	-0,027	0,176
-175,212	-5,491	-0,066	-0,033
-174,198	-63,015	0,129	-0,038
-173,183	62,389	0,034	0,025
-172,169	-200,000	-0,023	-0,075
-171,154	-107,712	-0,031	0,005
-170,139	-14,649	-0,099	0,046
-169,125	-74,501	0,244	0,063
-168,110	800,000	0,084	0,184
-167,096	-63,091	-0,087	-0,026
-166,081	-106,602	0,089	-0,014
-165,066	239,600	0,066	-0,080
-164,052	800,000	-0,027	-0,059
-163,037	-159,596	-0,123	-0,005
-162,023	-200,000	0,020	0,136
-161,008	710,036	-0,030	0,058
-159,993	93,202	0,024	-0,020
-158,979	-67,122	-0,175	0,050
-157,964	545,656	0,023	-0,039
-156,950	412,324	-0,089	-0,138
-155,935	-173,817	0,121	0,003
-154,920	340,699	0,055	-0,078
-153,906	27,574	0,102	-0,062
-152,891	190,267	0,052	-0,056
-151,877	-132,479	-0,049	0,004
-150,862	-200,000	-0,018	-0,162
-149,847	181,944	0,122	-0,130
-148,833	-166,448	0,021	-0,001
-147,818	800,000	0,057	0,140
-146,804	241,111	0,080	0,097
-145,789	-200,000	0,032	0,194
-144,775	-82,068	-0,067	0,016
-143,760	-92,008	0,092	0,019
-142,745	-200,000	0,015	-0,068
-141,731	-200,000	0,028	-0,099
-140,716	-200,000	-0,012	0,081
-139,702	800,000	0,047	0,140
-138,687	231,897	-0,088	0,105
-137,672	-18,849	-0,056	0,025
-136,658	-19,817	-0,120	-0,054
-135,643	631,903	-0,074	0,136
-134,629	73,232	-0,108	-0,082
-133,614	800,000	0,023	0,050
-132,599	-98,354	0,066	0,012
-131,585	50,623	-0,068	0,046
-130,570	-200,000	-0,013	0,140
-129,556	-200,000	-0,006	0,118
-128,541	320,502	-0,025	0,035
-127,526	-200,000	-0,013	-0,057
-126,512	-2,632	-0,035	0,018
-125,497	31,715	0,039	0,024
-124,483	800,000	-0,046	0,135
-123,468	-200,000	0,005	-0,034
-122,453	-200,000	-0,020	-0,097
-121,439	-150,379	-0,219	-0,012
-120,424	-125,898	-0,100	-0,011
-119,410	62,980	0,030	0,022
-118,395	-89,936	0,055	-0,012
-117,380	47,040	-0,010	0,006
-116,366	800,000	-0,036	-0,084
-115,351	-98,972	-0,105	-0,019
-114,337	-18,322	-0,115	0,052
-113,322	-200,000	-0,014	-0,133
-112,307	73,495	0,142	0,107
-111,293	67,878	0,055	0,040
-110,278	337,803	0,021	0,030
-109,264	329,278	-0,005	-0,008
-108,249	45,744	0,070	0,047
-107,234	-200,000	-0,012	0,041
-106,220	800,000	-0,031	-0,092
-105,205	-163,687	-0,050	0,002
-104,191	117,939	-0,089	0,080
-103,176	112,855	-0,074	-0,065
-102,162	-43,169	-0,075	0,027
-101,147	116,816	-0,074	0,066
-100,132	800,000	0,020	-0,052
-99,118	419,712	-0,092	-0,144
-98,103	140,758	-0,018	0,018
-97,089	800,000	0,054	0,147
-96,074	-163,386	-0,121	-0,004
-95,059	-11,448	0,114	0,054
-94,045	-30,505	-0,075	-0,031
-93,030	400,381	-0,019	0,030
-92,016	139,109	-0,067	0,064
-91,001	-2,167	-0,121	0,061
-89,986	-200,000	-0,043	0,142
-88,972	-147,061	0,178	-0,011
-87,957	483,861	-0,052	0,086
-86,943	-200,000	-0,006	-0,079
-85,928	-200,000	-0,000	-0,140
-84,913	-82,027	-0,035	-0,008
-83,899	-200,000	0,008	-0,101
-82,884	218,810	0,071	-0,082
-81,870	461,288	-0,033	0,053
-80,855	-200,000	-0,009	-0,041
-79,840	-200,000	-0,001	-0,005
-78,826	-200,000	0,003	0,035
-77,811	149,264	-0,091	0,089
-76,797	30,327	0,100	0,062
-75,782	-29,590	0,075	0,031
-74,767	800,000	0,035	0,095
-73,753	-96,340	-0,040	-0,008
-72,738	-200,000	0,022	0,136
-71,724	539,646	-0,016	-0,028
-70,709	315,500	-0,029	-0,040
-69,694	-200,000	0,025	0,115
-68,680	-200,000	0,005	0,065
-67,665	-29,864	0,089	0,036
-66,651	124,204	-0,085	0,077
-65,636	42,760	-0,095	0,062
-64,622	-159,852	0,101	-0,004
-63,607	800,000	-0,033	0,099
-62,592	525,729	-0,052	-0,088
-61,578	-83,249	0,059	0,014
-60,563	-200,000	0,000	0,087
-59,549	800,000	0,045	0,120
-58,534	-79,499	-1,576	-0,382
-57,519	642,314	-0,740	-1,371
-56,505	-200,000	-0,890	-4,539
-55,490	-95,845	0,684	-0,131
-54,476	800,000	4,944	11,843
-53,461	-200,000	14,666	261,057
-52,446	-200,000	696,260	2237,012
-51,432	565,548	1622,114	2857,473
-50,417	118,095	1629,940	1453,544
-49,403	75,187	1284,088	978,536
-48,388	37,406	1022,456	654,477
-47,373	23,153	981,938	581,750
-46,359	22,319	971,123	572,591
-45,344	21,161	966,784	566,234
-44,330	21,110	965,372	565,218
-43,315	20,953	963,872	563,807
-42,300	20,933	962,949	563,180
-41,286	20,944	961,826	562,535
-40,271	20,927	960,877	561,902
-39,257	20,916	959,909	561,278
-38,242	20,914	959,046	560,746
-37,227	20,892	958,373	560,259
-36,213	20,900	957,168	559,557
-35,198	20,861	956,394	558,958
-34,184	20,864	955,801	558,599
-33,169	20,825	954,779	557,855
-32,154	20,989	953,843	557,813
-31,140	20,958	953,058	557,230
-30,125	20,902	952,499	556,702
-29,111	20,929	951,635	556,263
-28,096	20,894	950,957	555,731
-27,082	20,891	950,067	555,178
-26,067	20,856	949,292	554,591
-25,052	20,866	948,652	554,229
-24,038	20,883	948,127	553,954
-23,023	20,906	947,181	553,453
-22,009	20,972	946,665	553,340
-20,994	20,888	946,086	552,713
-19,979	20,968	945,388	552,537
-18,965	20,892	944,883	551,979
-17,950	20,908	944,354	551,698
-16,936	20,892	943,764	551,281
-15,921	20,825	942,922	550,555
-14,906	20,802	942,186	550,029
-13,892	20,766	941,524	549,506
-12,877	20,752	941,131	549,210
-11,863	20,745	940,381	548,729
-10,848	20,800	939,849	548,572
-9,833	20,866	939,497	548,552
-8,819	20,869	938,688	548,070
-7,804	20,818	938,107	547,545
-6,790	20,796	937,364	547,021
-5,775	20,791	937,113	546,838
-4,760	20,853	936,273	546,522
-3,746	20,860	935,693	546,182
-2,731	20,651	935,049	545,126
-1,717	20,584	934,280	544,445
-0,702	20,660	933,529	544,227
0,313	20,433	933,183	544,131
1,327	23,555	931,188	552,721
2,342	32,796	793,891	495,746
3,356	30,431	450,785	277,913
4,371	0,154	294,939	151,538
5,386	-4,259	276,038	137,626
6,400	-5,530	270,461	133,650
7,415	-5,827	268,126	132,210
8,429	-5,747	266,882	131,659
9,444	-5,635	265,878	131,254
10,459	-5,559	265,209	130,981
11,473	-5,957	264,759	130,385
12,488	-5,851	264,194	130,191
13,502	-5,934	263,516	129,770
14,517	-5,860	263,267	129,703
15,531	-5,971	262,802	129,362
16,546	-5,926	262,398	129,192
17,561	-5,997	262,179	129,009
18,575	-5,799	261,696	128,938
19,590	-5,906	261,329	128,650
20,604	-5,885	261,146	128,567
21,619	-6,014	260,817	128,278
22,634	-5,995	260,442	128,099
23,648	-5,881	259,992	127,968
24,663	-6,019	259,869	127,773
25,677	-5,967	259,639	127,694
26,692	-6,022	259,454	127,543
27,707	-6,037	259,037	127,313
28,721	-6,108	258,833	127,138
29,736	-6,137	258,648	127,011
30,750	-6,192	258,423	126,840
31,765	-6,119	258,127	126,748
32,780	-6,039	257,773	126,633
33,794	-6,025	257,666	126,582
34,809	-6,079	257,329	126,358
35,823	-5,989	257,225	126,376
36,838	-6,129	256,850	126,056
37,853	-6,082	256,578	125,952
38,867	-6,067	256,339	125,838
39,882	-5,952	256,215	125,866
40,896	-5,978	255,961	125,708
41,911	-6,113	255,759	125,479
42,926	-6,213	255,395	125,201
43,940	-6,217	255,227	125,104
44,955	-6,109	254,965	125,059
45,969	-6,340	254,907	124,817
46,984	-6,361	254,514	124,595
47,999	-6,515	254,285	124,338
49,013	-6,717	254,051	124,036
50,028	-6,698	253,612	123,827
51,042	-6,745	253,392	123,668
52,057	-6,854	253,339	123,536
53,071	-6,738	253,017	123,469
54,086	-6,767	252,862	123,358
55,101	-6,650	252,876	123,455
56,115	-6,489	252,593	123,445
57,130	-5,810	252,428	123,942
58,144	-5,954	252,417	123,800
59,159	-5,865	252,189	123,754
60,174	-5,659	251,949	123,804
61,188	-5,930	251,765	123,468
62,203	-5,832	251,504	123,413
63,217	-5,898	251,403	123,296
64,232	-6,044	251,201	123,060
65,247	-6,014	250,913	122,934
66,261	-5,926	250,669	122,879
67,276	-6,148	250,368	122,530
68,290	-6,357	250,178	122,247
69,305	-6,530	249,927	121,965
70,320	-6,324	249,770	122,054
71,334	-6,140	249,548	122,091
72,349	-5,761	249,467	122,365
73,363	-5,781	249,290	122,250
74,378	-5,950	249,180	122,041
75,393	-5,833	248,946	122,016
76,407	-5,899	248,780	121,867
77,422	-5,880	248,499	121,735
78,436	-5,877	248,318	121,638
79,451	-6,080	248,080	121,338
80,466	-6,163	247,857	121,148
81,480	-6,270	247,564	120,903
82,495	-6,377	247,385	120,715
83,509	-6,261	247,227	120,724
84,524	-6,371	246,969	120,495
85,539	-6,387	246,659	120,319
86,553	-6,509	246,612	120,182
87,568	-6,224	246,281	120,251
88,582	-6,147	246,199	120,265
89,597	-6,346	246,088	120,032
90,611	-6,403	245,975	119,919
91,626	-5,902	245,683	120,187
92,641	-5,908	245,415	120,039
93,655	-6,132	245,376	119,822
94,670	-6,122	245,111	119,691
95,684	-5,991	244,857	119,665
96,699	-6,182	244,790	119,462
97,714	-6,289	244,591	119,265
98,728	-6,182	244,520	119,309
99,743	-6,343	244,148	118,983
100,757	-6,419	243,905	118,791
101,772	-6,518	243,850	118,670
102,787	-6,423	243,743	118,686
103,801	-6,101	243,501	118,826
104,816	-6,110	243,342	118,730
105,830	-6,235	243,249	118,570
106,845	-6,108	243,045	118,566
107,860	-6,069	242,895	118,515
108,874	-6,214	242,749	118,313
109,889	-6,073	242,397	118,247
110,903	-6,019	242,141	118,156
111,918	-6,359	241,972	117,783
112,933	-6,152	241,871	117,894
113,947	-5,976	241,766	117,977
114,962	-5,917	241,494	117,883
115,976	-6,253	241,371	117,536
116,991	-6,079	241,276	117,622
118,006	-5,789	240,860	117,647
119,020	-5,914	240,979	117,591
120,035	-6,024	240,745	117,377
121,049	-5,980	240,656	117,359
122,064	-5,903	240,472	117,322
123,079	-6,031	240,095	117,023
124,093	-6,198	240,025	116,842
125,108	-6,138	239,608	116,678
126,122	-6,629	239,490	116,209
127,137	-6,468	239,370	116,272
128,151	-6,527	239,194	116,127
129,166	-6,364	239,085	116,197
130,181	-6,242	238,637	116,068
131,195	-6,346	238,551	115,932
132,210	-6,332	238,550	115,932
133,224	-6,231	238,467	115,963
134,239	-5,969	238,106	115,989
135,254	-5,943	237,970	115,934
136,268	-6,349	237,892	115,557
137,283	-6,489	237,525	115,255
138,297	-6,563	237,230	115,042
139,312	-6,538	237,223	115,048
140,327	-6,274	237,139	115,211
141,341	-5,777	236,979	115,523
142,356	-5,790	236,922	115,475
143,370	-5,758	236,652	115,359
144,385	-5,809	236,645	115,304
145,400	-5,682	236,476	115,314
146,414	-5,841	236,267	115,073
147,429	-5,838	236,106	114,988
148,443	-5,788	235,998	114,964
149,458	-5,793	235,721	114,816
150,473	-5,874	235,581	114,672
151,487	-5,886	235,452	114,589
152,502	-5,716	235,240	114,612
153,516	-5,728	235,212	114,578
154,531	-5,921	235,038	114,330
155,546	-5,759	234,749	114,308
156,560	-5,852	234,505	114,105
157,575	-5,835	234,269	113,994
158,589	-5,966	234,197	113,844
159,604	-5,537	234,003	114,081
160,619	-5,398	233,914	114,138
161,633	-5,590	233,831	113,934
162,648	-5,649	233,536	113,733
163,662	-5,739	233,457	113,613
164,677	-5,858	233,278	113,422
165,692	-5,750	233,280	113,499
166,706	-5,973	233,029	113,190
167,721	-5,724	232,902	113,315
168,735	-5,558	232,691	113,333
169,750	-5,566	232,520	113,234
170,764	-5,670	232,323	113,046
171,779	-5,632	232,217	113,013
172,794	-5,747	232,157	112,884
173,808	-5,982	231,965	112,596
174,823	-6,102	231,466	112,249
175,837	-6,287	231,402	112,062
176,852	-6,034	231,415	112,257
177,867	-5,616	231,149	112,447
178,881	-5,765	231,148	112,319
179,896	-5,692	231,011	112,300
180,910	-5,590	230,856	112,294
181,925	-5,691	230,565	112,064
182,940	-5,816	230,617	111,981
183,954	-5,597	230,397	112,035
184,969	-5,555	230,251	111,987
185,983	-5,552	230,142	111,927
186,998	-5,369	229,956	111,968
188,013	-5,471	229,748	111,778
189,027	-5,364	229,621	111,790
190,042	-5,290	229,455	111,757
191,056	-5,454	229,355	111,570
192,071	-5,607	229,327	111,427
193,086	-5,672	229,002	111,210
194,100	-5,520	228,839	111,239
195,115	-5,716	228,671	110,994
196,129	-6,299	228,300	110,354
197,144	-3,523	229,353	113,008
198,159	1,025	230,441	117,076
199,173	3,481	231,186	119,357
200,188	4,073	231,020	119,722
201,202	3,896	231,037	119,582
202,217	4,095	230,746	119,575
203,232	4,324	230,627	119,681
204,246	4,292	230,591	119,627
205,261	4,332	230,480	119,590
206,275	4,480	230,291	119,595
207,290	4,281	230,261	119,415
208,304	4,423	230,045	119,402
209,319	4,443	229,923	119,343
210,334	4,329	229,668	119,113
211,348	4,271	229,360	118,898
212,363	3,884	229,083	118,445
213,377	3,572	228,965	118,133
214,392	3,480	228,782	117,958
215,407	3,730	228,619	118,055
216,421	3,913	228,552	118,151
217,436	3,702	228,373	117,886
218,450	3,541	228,103	117,612
219,465	3,218	228,148	117,377
220,480	3,334	227,827	117,290
221,494	3,313	227,666	117,181
222,509	3,671	227,637	117,430
223,523	3,635	227,565	117,354
224,538	3,602	227,281	117,173
225,553	3,515	227,256	117,083
226,567	3,709	227,062	117,120
227,582	3,753	227,075	117,150
228,596	4,202	226,886	117,384
229,611	3,841	226,501	116,900
230,626	3,455	226,401	116,545
231,640	3,334	226,343	116,412
232,655	3,701	226,228	116,621
233,669	4,405	226,092	117,075
234,684	4,383	226,026	117,014
235,699	4,182	225,772	116,720
236,713	3,876	225,615	116,396
237,728	3,684	225,399	116,129
238,742	3,715	225,051	115,963
239,757	3,641	225,113	115,929
240,772	3,808	225,033	116,003
241,786	3,668	224,754	115,744
242,801	3,955	224,716	115,930
243,815	4,059	224,581	115,928
244,830	4,083	224,485	115,887
245,844	3,860	224,137	115,529
246,859	3,782	224,150	115,467
247,874	4,036	223,970	115,555
248,888	4,031	223,933	115,522
249,903	3,738	223,773	115,208
250,917	3,706	223,537	115,053
251,932	3,723	223,470	115,021
252,947	3,557	223,222	114,759
253,961	3,504	222,936	114,562
254,976	3,577	222,911	114,593
255,990	3,642	222,968	114,661
257,005	3,670	222,721	114,545
258,020	3,819	222,580	114,573
259,034	4,180	222,477	114,779
260,049	4,139	222,299	114,646
261,063	3,915	222,188	114,412
262,078	3,969	221,942	114,316
263,093	4,289	221,892	114,517
264,107	4,017	221,813	114,264
265,122	3,920	221,577	114,061
266,136	4,157	221,449	114,160
267,151	4,401	221,237	114,221
268,166	3,723	221,058	113,618
269,180	3,383	220,861	113,254
270,195	3,864	220,691	113,513
271,209	3,814	220,531	113,383
272,224	3,832	220,449	113,344
273,239	3,815	220,282	113,236
274,253	3,710	220,114	113,062
275,268	3,431	219,994	112,785
276,282	3,301	219,908	112,635
277,297	3,460	219,737	112,654
278,312	3,616	219,562	112,669
279,326	3,784	219,413	112,706
280,341	3,621	219,422	112,581
281,355	3,765	219,413	112,672
282,370	3,912	218,966	112,540
283,384	3,609	218,805	112,225
284,399	3,270	218,598	111,861
285,414	3,656	218,371	112,017
286,428	3,749	218,408	112,094
287,443	3,874	218,325	112,132
288,457	3,833	218,275	112,067
289,472	3,567	218,179	111,814
290,487	3,234	217,826	111,381
291,501	3,293	217,810	111,405
292,516	3,353	217,484	111,272
293,530	3,642	217,236	111,345
294,545	3,440	217,347	111,246
295,560	3,401	217,254	111,159
296,574	3,442	217,091	111,096
297,589	3,796	216,891	111,240
298,603	3,748	216,811	111,155
299,618	3,770	216,773	111,141
300,633	3,668	216,623	110,980
301,647	3,899	216,405	111,026
302,662	3,858	216,335	110,950
303,676	3,711	216,132	110,730
304,691	3,779	216,080	110,743
305,706	3,796	215,981	110,695
306,720	4,287	215,832	110,962
307,735	3,786	215,626	110,485
308,749	3,725	215,526	110,381
309,764	3,918	215,361	110,424
310,779	3,648	215,354	110,217
311,793	3,853	215,192	110,272
312,808	3,769	214,923	110,064
313,822	3,832	214,713	109,991
314,837	3,597	214,592	109,752
315,852	3,628	214,431	109,682
316,866	3,444	214,442	109,546
317,881	3,804	214,418	109,782
318,895	3,999	214,096	109,746
319,910	3,676	213,915	109,413
320,925	3,316	213,649	109,011
321,939	3,221	213,509	108,862
322,954	3,105	213,487	108,759
323,968	3,315	213,451	108,880
324,983	4,027	213,279	109,288
325,997	3,898	213,280	109,188
327,012	3,525	213,158	108,851
328,027	4,046	212,786	109,020
329,041	4,110	212,853	109,090
330,056	4,083	212,780	109,024
331,070	3,795	212,616	108,726
332,085	3,660	212,175	108,396
333,100	3,353	211,976	108,068
334,114	3,699	212,054	108,342
335,129	3,865	211,911	108,376
336,143	3,841	211,750	108,267
337,158	3,766	211,603	108,130
338,173	3,554	211,566	107,952
339,187	3,277	211,298	107,611
340,202	3,521	211,158	107,701
341,216	3,327	211,005	107,478
342,231	3,424	210,869	107,467
343,246	3,462	210,793	107,444
344,260	3,329	210,629	107,259
345,275	3,507	210,550	107,333
346,289	3,704	210,417	107,394
347,304	3,712	210,413	107,388
348,319	3,412	210,222	107,072
349,333	3,736	210,018	107,184
350,348	3,557	210,027	107,054
351,362	3,832	209,944	107,194
352,377	3,821	209,744	107,074
353,392	3,740	209,525	106,897
354,406	3,788	209,368	106,840
355,421	195,388	1342,999	1432,149
356,435	156,001	1481,184	1432,241
