DTS Sentinel unit serial number:	SN410029Multiplexer serial number:	ORYXHardware model number:	OX2-SRSoftware version number:	ORYX F/W v4,00 Oryx Data Collector v3.7.2.0data status	okinstallation	B6 Nyhavnadifferential loss correction	single-endedforward channel	channel 2reverse channel	N/Adate	2023/12/10time	00:10:08forward acquisition time	300,00reverse acquisition time	0,00gamma	499,1914k internal	0,3126k external	0,3126temperature offset calibration	1,0000default loss term (dB/km)	0,3820temperature slope calibration	1,0000multiplexer offset coefficient	1,0000multiplexer slope coefficient	1,0000fibre end	0,00T internal ref (°C)	21,79T ext. ref 1 (°C)	5,68T ext. ref 2 (°C)	5,67length (m)	temperature (°C)	Stokes	anti-Stokes-744,400	-200,000	-0,003	-0,017
-743,385	2,130	-0,226	0,121
-742,371	147,639	0,104	-0,105
-741,356	-5,562	-0,174	0,088
-740,342	-200,000	0,005	-0,104
-739,327	16,917	-0,145	0,085
-738,312	-200,000	-0,003	-0,126
-737,298	-77,805	-0,229	0,058
-736,283	315,528	0,097	-0,137
-735,269	6,502	-0,162	0,090
-734,254	-89,563	0,166	0,036
-733,239	-35,696	-0,349	-0,140
-732,225	247,804	0,024	-0,031
-731,210	-66,205	-0,088	-0,026
-730,196	-19,377	0,027	0,012
-729,181	225,443	-0,039	-0,048
-728,167	-119,241	0,110	0,014
-727,152	34,131	-0,051	0,033
-726,137	-200,000	-0,017	-0,105
-725,123	-200,000	0,051	-0,203
-724,108	134,407	-0,097	-0,094
-723,094	-200,000	0,012	-0,069
-722,079	-68,854	-0,032	0,009
-721,064	-149,345	-0,045	0,003
-720,050	-30,912	-0,183	-0,076
-719,035	363,526	0,020	-0,030
-718,021	41,613	0,008	0,005
-717,006	580,465	-0,036	-0,067
-715,991	-200,000	0,017	-0,077
-714,977	-200,000	0,013	0,124
-713,962	-200,000	0,001	0,130
-712,948	-168,904	-0,049	0,001
-711,933	-200,000	0,022	-0,117
-710,918	-200,000	-0,043	0,143
-709,904	6,682	-0,096	0,053
-708,889	468,278	0,021	0,035
-707,875	-176,717	-0,164	-0,003
-706,860	222,155	0,115	0,138
-705,845	-71,922	0,116	0,032
-704,831	101,370	-0,037	0,032
-703,816	-71,067	0,144	0,040
-702,802	25,065	-0,084	-0,052
-701,787	450,196	-0,058	-0,095
-700,772	-14,064	0,027	-0,013
-699,758	167,968	-0,070	-0,074
-698,743	800,000	-0,065	0,158
-697,729	199,501	-0,043	0,049
-696,714	-42,804	-0,094	0,035
-695,699	-200,000	-0,015	0,061
-694,685	800,000	-0,024	-0,065
-693,670	218,283	-0,044	-0,052
-692,656	-151,046	-0,040	0,002
-691,641	-200,000	-0,015	-0,092
-690,627	-70,879	0,106	0,030
-689,612	-200,000	0,006	0,085
-688,597	-90,699	0,068	-0,014
-687,583	-200,000	0,002	-0,120
-686,568	800,000	-0,033	-0,094
-685,554	-200,000	-0,015	-0,056
-684,539	-58,478	-0,107	0,034
-683,524	137,749	-0,064	0,062
-682,510	435,269	-0,110	0,179
-681,495	556,080	-0,086	0,154
-680,481	-200,000	-0,002	-0,026
-679,466	464,329	-0,094	-0,157
-678,451	-200,000	0,007	-0,095
-677,437	238,316	-0,056	0,069
-676,422	-136,787	0,046	-0,004
-675,408	-60,328	-0,098	0,031
-674,393	-200,000	-0,001	-0,035
-673,378	86,776	-0,068	-0,055
-672,364	-179,947	-0,102	-0,002
-671,349	32,333	-0,115	0,073
-670,335	800,000	-0,024	0,072
-669,320	-27,899	0,033	-0,014
-668,305	-73,835	-0,061	-0,016
-667,291	193,549	0,036	-0,041
-666,276	-94,567	-0,089	0,018
-665,262	257,998	-0,012	-0,015
-664,247	-200,000	-0,021	-0,076
-663,232	-200,000	-0,018	0,061
-662,218	29,625	0,060	-0,038
-661,203	-200,000	0,011	0,080
-660,189	-200,000	0,006	0,041
-659,174	-112,802	-0,094	-0,014
-658,159	156,754	-0,019	0,019
-657,145	64,810	-0,037	-0,027
-656,130	-200,000	0,018	-0,081
-655,116	452,484	0,041	-0,068
-654,101	-51,793	0,076	-0,026
-653,086	204,557	-0,088	-0,101
-652,072	162,416	0,056	0,058
-651,057	-32,268	-0,054	-0,022
-650,043	72,348	-0,051	0,039
-649,028	-156,068	0,046	0,002
-648,014	-164,550	0,047	0,002
-646,999	53,853	-0,119	-0,085
-645,984	164,800	-0,038	-0,040
-644,970	342,122	-0,117	-0,170
-643,955	9,730	-0,068	-0,038
-642,941	-200,000	-0,007	-0,043
-641,926	649,693	0,031	0,059
-640,911	454,819	-0,025	-0,041
-639,897	492,174	0,027	0,047
-638,882	20,001	0,091	0,054
-637,868	-200,000	-0,003	-0,146
-636,853	-35,153	-0,063	0,025
-635,838	17,687	0,075	0,044
-634,824	-200,000	-0,002	0,096
-633,809	-125,554	-0,044	-0,005
-632,795	-200,000	-0,004	0,019
-631,780	-200,000	-0,015	-0,098
-630,765	108,974	-0,093	-0,083
-629,751	62,495	-0,056	-0,042
-628,736	-59,435	-0,095	0,030
-627,722	-200,000	-0,014	0,057
-626,707	-124,837	0,139	0,016
-625,692	171,961	0,048	-0,051
-624,678	63,378	0,016	-0,012
-623,663	-72,424	0,083	0,023
-622,649	-200,000	0,004	-0,024
-621,634	-89,616	-0,098	-0,021
-620,619	-89,591	-0,101	0,022
-619,605	800,000	0,025	-0,073
-618,590	-200,000	0,000	-0,058
-617,576	800,000	0,073	0,160
-616,561	-200,000	-0,042	0,000
-615,546	-200,000	0,011	-0,055
-614,532	196,718	0,063	-0,072
-613,517	800,000	-0,071	-0,182
-612,503	-54,854	0,044	0,015
-611,488	165,035	0,035	0,037
-610,474	130,895	-0,054	0,052
-609,459	34,637	0,122	0,079
-608,444	-200,000	-0,014	-0,130
-607,430	404,002	-0,042	0,065
-606,415	444,588	0,051	-0,083
-605,401	-200,000	-0,011	-0,038
-604,386	202,739	0,060	0,069
-603,371	-200,000	-0,006	0,106
-602,357	800,000	0,056	0,129
-601,342	-200,000	-0,013	0,047
-600,328	-3,608	0,033	-0,017
-599,313	-17,062	0,078	-0,036
-598,298	-200,000	-0,020	-0,093
-597,284	-200,000	0,016	0,072
-596,269	437,620	-0,022	0,035
-595,255	-200,000	0,031	0,116
-594,240	229,596	-0,070	0,084
-593,225	159,819	-0,022	0,023
-592,211	-176,962	-0,067	-0,001
-591,196	800,000	-0,023	-0,049
-590,182	-185,127	0,084	0,001
-589,167	800,000	0,042	0,108
-588,152	-48,201	0,089	-0,032
-587,138	-111,082	-0,068	-0,010
-586,123	800,000	0,049	-0,125
-585,109	-200,000	0,002	-0,091
-584,094	800,000	0,043	-0,115
-583,079	-57,217	-0,119	0,038
-582,065	22,589	0,112	0,068
-581,050	800,000	0,047	-0,120
-580,036	-200,000	-0,019	-0,085
-579,021	350,427	0,047	0,069
-578,006	-126,133	-0,066	0,007
-576,992	-200,000	-0,004	-0,138
-575,977	121,084	0,058	0,054
-574,963	138,707	-0,067	0,066
-573,948	155,586	0,129	0,131
-572,934	-88,925	-0,050	0,011
-571,919	-165,376	-0,169	0,005
-570,904	800,000	-0,033	-0,070
-569,890	45,453	-0,045	-0,031
-568,875	77,228	-0,158	0,124
-567,861	165,836	-0,062	0,065
-566,846	800,000	0,023	0,052
-565,831	33,137	-0,137	0,087
-564,817	17,524	-0,075	-0,044
-563,802	539,103	0,111	-0,197
-562,788	82,268	-0,095	-0,076
-561,773	-51,600	0,020	-0,007
-560,758	-200,000	0,008	-0,026
-559,744	-200,000	0,037	0,134
-558,729	-200,000	-0,002	-0,055
-557,715	-128,191	0,071	-0,007
-556,700	-150,742	-0,073	-0,004
-555,685	800,000	0,052	-0,127
-554,671	104,397	-0,043	0,037
-553,656	83,761	-0,047	0,038
-552,642	800,000	0,030	-0,079
-551,627	149,924	0,010	0,010
-550,612	-66,856	-0,206	-0,060
-549,598	-143,761	-0,097	0,007
-548,583	261,001	-0,057	0,072
-547,569	-11,097	0,049	-0,024
-546,554	-32,141	0,031	0,013
-545,539	105,088	-0,056	0,049
-544,525	36,299	0,046	-0,030
-543,510	-200,000	-0,012	-0,093
-542,496	-200,000	0,009	-0,153
-541,481	294,986	0,036	-0,049
-540,466	2,262	0,031	0,017
-539,452	-147,217	0,268	0,017
-538,437	-200,000	0,044	0,172
-537,423	-200,000	0,015	0,062
-536,408	800,000	0,021	0,055
-535,393	-155,133	-0,010	-0,000
-534,379	-200,000	-0,010	-0,148
-533,364	-49,900	-0,043	-0,015
-532,350	-200,000	-0,006	-0,037
-531,335	800,000	-0,032	0,092
-530,321	-124,767	-0,125	-0,014
-529,306	-108,431	-0,066	0,010
-528,291	384,837	0,021	0,032
-527,277	-200,000	-0,019	-0,225
-526,262	154,715	0,102	0,103
-525,248	78,711	0,095	0,075
-524,233	-73,054	0,057	-0,015
-523,218	-200,000	0,010	0,178
-522,204	353,748	-0,078	-0,115
-521,189	15,757	-0,044	-0,025
-520,175	800,000	-0,024	0,062
-519,160	28,005	-0,059	-0,037
-518,145	61,456	0,043	-0,032
-517,131	238,366	0,036	-0,045
-516,116	-200,000	0,027	0,091
-515,102	-33,481	-0,099	-0,040
-514,087	2,862	0,073	-0,039
-513,072	-69,964	0,036	-0,010
-512,058	-200,000	-0,000	-0,117
-511,043	800,000	0,034	0,088
-510,029	202,729	0,058	0,066
-509,014	800,000	-0,008	-0,023
-507,999	25,117	0,064	0,039
-506,985	232,615	0,072	-0,088
-505,970	140,120	0,120	-0,117
-504,956	-200,000	-0,034	0,136
-503,941	320,240	-0,047	-0,066
-502,926	43,520	0,077	0,052
-501,912	-200,000	0,005	0,079
-500,897	-92,732	0,049	-0,010
-499,883	308,537	-0,089	0,124
-498,868	800,000	-0,014	-0,030
-497,853	167,482	-0,087	0,091
-496,839	210,951	0,006	0,007
-495,824	443,105	0,084	0,136
-494,810	-122,883	0,028	-0,003
-493,795	280,118	0,032	0,042
-492,781	184,005	-0,028	-0,030
-491,766	-200,000	-0,019	-0,112
-490,751	221,290	-0,072	-0,085
-489,737	-58,797	0,127	-0,040
-488,722	-200,000	-0,003	0,058
-487,708	-15,099	-0,007	0,003
-486,693	109,449	-0,040	-0,035
-485,678	154,449	0,071	-0,072
-484,664	-8,118	-0,096	-0,047
-483,649	800,000	0,057	-0,169
-482,635	100,678	-0,076	0,065
-481,620	208,358	0,030	0,035
-480,605	-200,000	-0,054	0,269
-479,591	392,475	-0,062	-0,095
-478,576	276,056	-0,041	-0,054
-477,562	-40,118	0,086	-0,033
-476,547	182,680	-0,033	-0,036
-475,532	-94,124	0,111	-0,022
-474,518	-200,000	0,024	-0,138
-473,503	-35,899	-0,046	-0,018
-472,489	-200,000	-0,019	0,120
-471,474	421,371	0,086	0,136
-470,459	-118,994	0,111	0,014
-469,445	391,261	0,028	-0,043
-468,430	115,291	-0,145	-0,130
-467,416	800,000	-0,043	-0,117
-466,401	69,338	0,081	0,061
-465,386	-122,047	0,067	-0,008
-464,372	-136,266	-0,132	0,011
-463,357	-200,000	0,001	-0,039
-462,343	800,000	-0,005	0,010
-461,328	-56,395	-0,042	0,014
-460,313	48,182	0,099	0,068
-459,299	-115,216	0,112	0,015
-458,284	-104,823	0,124	0,021
-457,270	-200,000	-0,009	0,054
-456,255	800,000	0,024	-0,063
-455,241	-40,001	-0,070	0,027
-454,226	221,576	-0,070	-0,083
-453,211	-200,000	-0,004	-0,047
-452,197	-98,243	0,072	0,014
-451,182	230,746	0,127	0,154
-450,168	-91,351	-0,048	0,010
-449,153	103,055	-0,083	-0,072
-448,138	-68,730	-0,099	-0,028
-447,124	-200,000	0,016	0,067
-446,109	-113,031	-0,113	-0,016
-445,095	267,274	0,077	0,099
-444,080	64,323	-0,116	0,086
-443,065	118,494	0,021	0,019
-442,051	183,205	0,043	0,047
-441,036	-142,130	-0,070	0,005
-440,022	7,508	-0,124	-0,068
-439,007	242,304	0,008	0,010
-437,992	-161,632	0,185	-0,007
-436,978	36,956	0,053	-0,035
-435,963	-105,013	-0,104	-0,017
-434,949	-200,000	-0,011	0,056
-433,934	602,574	0,011	0,020
-432,919	-49,096	-0,104	-0,036
-431,905	288,261	-0,015	-0,021
-430,890	115,049	0,070	0,063
-429,876	800,000	0,057	-0,117
-428,861	800,000	0,046	0,116
-427,846	117,338	-0,095	-0,086
-426,832	800,000	-0,022	0,061
-425,817	-49,827	0,193	-0,067
-424,803	322,910	0,033	-0,047
-423,788	355,593	-0,030	0,044
-422,773	106,539	-0,102	0,089
-421,759	0,793	0,074	0,039
-420,744	108,415	0,037	-0,033
-419,730	800,000	-0,037	-0,095
-418,715	-120,543	-0,156	-0,019
-417,701	69,639	0,119	-0,090
-416,686	-102,657	-0,047	0,008
-415,671	758,509	-0,029	-0,058
-414,657	800,000	0,052	0,126
-413,642	-66,143	0,042	-0,012
-412,628	800,000	0,032	-0,066
-411,613	104,019	-0,076	-0,066
-410,598	-200,000	-0,002	0,074
-409,584	-200,000	0,037	-0,157
-408,569	-63,931	0,062	-0,019
-407,555	69,413	-0,073	0,055
-406,540	-200,000	-0,023	0,159
-405,525	60,365	-0,184	-0,134
-404,511	-195,434	0,053	-0,000
-403,496	800,000	-0,031	0,065
-402,482	322,154	-0,039	0,054
-401,467	-59,942	0,040	-0,013
-400,452	170,044	0,049	0,051
-399,438	213,648	-0,072	-0,084
-398,423	710,428	-0,026	0,051
-397,409	564,575	-0,046	-0,082
-396,394	81,845	-0,079	-0,063
-395,379	166,080	-0,092	-0,095
-394,365	-33,128	-0,054	0,022
-393,350	242,903	0,098	0,120
-392,336	-200,000	-0,016	0,076
-391,321	-139,072	-0,080	-0,006
-390,306	377,117	0,042	-0,064
-389,292	464,472	-0,029	-0,047
-388,277	128,395	0,076	-0,071
-387,263	72,264	-0,120	0,092
-386,248	-69,429	-0,097	0,027
-385,233	-76,502	-0,015	0,004
-384,219	-200,000	-0,025	-0,119
-383,204	-72,887	-0,022	0,006
-382,190	-54,645	-0,089	-0,030
-381,175	87,205	-0,068	-0,055
-380,160	303,056	-0,109	-0,149
-379,146	-185,859	0,200	0,002
-378,131	90,952	-0,099	0,081
-377,117	800,000	-0,044	-0,098
-376,102	-73,730	-0,100	-0,027
-375,088	800,000	0,024	-0,063
-374,073	43,679	0,176	-0,118
-373,058	261,669	0,133	-0,169
-372,044	-117,285	-0,075	0,010
-371,029	-87,342	0,101	-0,022
-370,015	426,764	-0,024	-0,038
-369,000	89,345	0,103	0,085
-367,985	73,269	0,034	0,026
-366,971	-68,880	-0,066	0,019
-365,956	-3,389	-0,013	-0,007
-364,942	113,703	0,056	0,050
-363,927	-200,000	-0,010	0,112
-362,912	800,000	0,034	0,071
-361,898	495,927	0,034	0,058
-360,883	54,613	-0,160	-0,113
-359,869	-69,081	0,019	0,005
-358,854	214,452	-0,069	0,080
-357,839	-200,000	0,026	0,204
-356,825	40,789	-0,122	-0,080
-355,810	-27,662	0,099	0,042
-354,796	321,347	0,037	0,051
-353,781	-155,372	0,142	-0,007
-352,766	90,936	0,038	-0,031
-351,752	36,820	0,050	-0,032
-350,737	800,000	0,004	0,012
-349,723	-200,000	0,024	0,080
-348,708	-200,000	0,185	-0,000
-347,693	399,074	-0,099	0,152
-346,679	-77,685	-0,082	-0,021
-345,664	-200,000	0,014	0,082
-344,650	-80,397	-0,089	0,022
-343,635	-149,042	-0,090	0,005
-342,620	-112,253	-0,061	-0,009
-341,606	111,636	-0,050	0,044
-340,591	227,032	-0,027	-0,033
-339,577	761,037	-0,015	0,030
-338,562	-17,760	0,066	-0,030
-337,548	-200,000	0,001	0,052
-336,533	-200,000	0,002	0,055
-335,518	295,345	-0,035	-0,047
-334,504	-116,219	0,117	-0,016
-333,489	414,356	-0,033	0,052
-332,475	155,269	0,099	0,100
-331,460	-200,000	0,016	0,085
-330,445	-84,163	-0,196	-0,045
-329,431	-200,000	-0,003	0,069
-328,416	-200,000	-0,041	0,155
-327,402	-54,094	0,023	-0,008
-326,387	15,566	0,073	0,042
-325,372	-200,000	0,023	-0,076
-324,358	-85,533	-0,120	0,027
-323,343	317,535	-0,047	-0,065
-322,329	-6,993	-0,113	-0,056
-321,314	-59,458	0,229	0,072
-320,299	-143,604	0,119	0,008
-319,285	158,210	0,082	-0,083
-318,270	800,000	-0,055	-0,120
-317,256	-200,000	-0,004	-0,104
-316,241	697,456	-0,037	-0,071
-315,226	800,000	0,020	-0,059
-314,212	-73,370	0,040	-0,011
-313,197	48,579	-0,035	-0,024
-312,183	-28,473	0,056	0,024
-311,168	101,764	0,065	-0,056
-310,153	-200,000	0,014	-0,081
-309,139	-200,000	-0,022	-0,098
-308,124	407,959	0,071	0,110
-307,110	185,937	-0,131	0,142
-306,095	131,364	0,083	-0,078
-305,080	18,192	-0,005	0,003
-304,066	-40,747	0,094	0,035
-303,051	-133,982	-0,138	-0,012
-302,037	-200,000	0,025	0,123
-301,022	-200,000	-0,010	0,087
-300,008	-81,585	0,075	0,018
-298,993	-32,593	0,263	-0,107
-297,978	-200,000	-0,011	0,156
-296,964	377,344	0,050	-0,076
-295,949	-132,687	-0,120	0,011
-294,935	192,589	0,033	-0,037
-293,920	800,000	-0,030	-0,086
-292,905	47,060	0,243	0,165
-291,891	-200,000	-0,040	0,211
-290,876	793,822	-0,087	0,175
-289,862	-163,762	0,084	-0,003
-288,847	71,547	-0,071	-0,054
-287,832	-147,149	0,185	-0,011
-286,818	800,000	0,093	-0,224
-285,803	31,938	0,076	0,048
-284,789	-77,514	0,020	-0,005
-283,774	-200,000	0,006	0,203
-282,759	0,063	-0,051	-0,026
-281,745	-87,026	0,133	0,029
-280,730	260,890	-0,023	0,029
-279,716	-93,143	-0,067	0,014
-278,701	43,470	0,094	-0,062
-277,686	800,000	-0,029	-0,084
-276,672	-91,735	0,082	0,017
-275,657	147,026	0,079	0,078
-274,643	396,416	-0,047	-0,072
-273,628	-34,470	-0,070	0,028
-272,613	-200,000	-0,000	-0,036
-271,599	27,138	0,126	0,077
-270,584	-200,000	0,009	0,104
-269,570	1,873	0,157	-0,082
-268,555	-200,000	-0,007	-0,050
-267,540	-59,535	-0,119	0,037
-266,526	48,421	0,079	-0,054
-265,511	-16,382	-0,123	-0,057
-264,497	800,000	0,083	-0,188
-263,482	800,000	-0,027	0,085
-262,467	-200,000	-0,010	0,064
-261,453	-200,000	0,006	0,063
-260,438	-200,000	-0,014	-0,068
-259,424	-173,310	-0,063	0,001
-258,409	58,222	-0,072	0,052
-257,395	130,892	0,045	0,042
-256,380	-45,209	0,128	0,046
-255,365	800,000	-0,033	0,100
-254,351	-60,025	0,046	0,014
-253,336	40,546	0,100	-0,066
-252,322	-200,000	0,067	-0,251
-251,307	59,977	-0,168	-0,121
-250,292	-123,705	-0,170	-0,019
-249,278	11,297	-0,036	0,020
-248,263	390,085	-0,040	0,060
-247,249	-200,000	-0,021	-0,098
-246,234	-160,255	-0,071	0,003
-245,219	-140,612	0,097	-0,007
-244,205	-200,000	-0,035	-0,139
-243,190	522,666	0,026	-0,045
-242,176	-84,094	-0,066	0,015
-241,161	266,544	0,066	0,084
-240,146	-119,279	0,086	-0,011
-239,132	-88,840	0,086	0,019
-238,117	800,000	0,056	0,156
-237,103	800,000	0,008	0,017
-236,088	526,099	-0,052	-0,089
-235,073	-200,000	-0,008	0,059
-234,059	-200,000	0,036	-0,123
-233,044	61,136	0,049	0,036
-232,030	-200,000	0,008	-0,106
-231,015	-14,920	-0,115	-0,054
-230,000	-68,692	-0,101	-0,028
-228,986	-200,000	0,008	0,061
-227,971	59,852	0,051	-0,036
-226,957	-123,401	0,163	-0,019
-225,942	-114,659	-0,065	0,009
-224,927	-200,000	0,013	-0,095
-223,913	-162,588	-0,179	-0,006
-222,898	312,543	-0,130	0,179
-221,884	800,000	0,035	-0,088
-220,869	519,552	-0,047	-0,080
-219,855	-70,385	0,132	0,036
-218,840	121,478	-0,019	0,017
-217,825	15,699	-0,056	0,032
-216,811	-200,000	0,012	-0,081
-215,796	-200,000	-0,009	-0,082
-214,782	800,000	-0,050	0,135
-213,767	495,390	0,030	0,050
-212,752	-200,000	-0,012	0,102
-211,738	33,351	-0,059	0,038
-210,723	519,414	-0,073	-0,125
-209,709	800,000	-0,014	0,034
-208,694	800,000	-0,042	-0,107
-207,679	-142,131	-0,164	-0,012
-206,665	-200,000	-0,013	0,081
-205,650	30,445	0,046	-0,029
-204,636	79,232	0,161	0,126
-203,621	-104,028	0,122	-0,020
-202,606	-26,628	-0,094	0,040
-201,592	-200,000	0,002	-0,093
-200,577	-88,322	-0,087	0,019
-199,563	-37,734	-0,101	0,039
-198,548	800,000	-0,059	0,147
-197,533	-200,000	0,025	0,114
-196,519	714,287	0,051	-0,099
-195,504	-67,952	-0,125	-0,035
-194,490	-200,000	0,003	-0,051
-193,475	73,998	-0,116	0,089
-192,460	-200,000	-0,009	0,059
-191,446	-93,975	-0,067	-0,013
-190,431	-63,217	0,130	-0,039
-189,417	-200,000	0,015	-0,197
-188,402	485,324	0,057	0,095
-187,387	75,110	0,095	-0,073
-186,373	-27,804	-0,050	-0,021
-185,358	-127,681	0,077	-0,008
-184,344	-92,609	0,023	-0,005
-183,329	800,000	-0,023	-0,055
-182,315	38,551	0,063	0,041
-181,300	227,386	-0,072	0,086
-180,285	-134,408	-0,108	0,009
-179,271	-79,478	0,060	-0,015
-178,256	800,000	0,080	0,169
-177,242	800,000	0,035	0,109
-176,227	333,852	-0,019	0,026
-175,212	-112,166	0,047	0,007
-174,198	10,630	-0,080	-0,045
-173,183	109,094	-0,061	-0,053
-172,169	-0,392	0,086	-0,044
-171,154	102,290	0,087	0,074
-170,139	-45,900	0,169	-0,060
-169,125	-200,000	0,027	0,114
-168,110	800,000	-0,069	0,158
-167,096	800,000	0,022	0,061
-166,081	-35,066	-0,084	-0,033
-165,066	242,346	-0,043	0,052
-164,052	147,956	-0,090	0,089
-163,037	59,144	-0,045	-0,032
-162,023	-200,000	0,025	-0,099
-161,008	11,176	-0,086	0,048
-159,993	-92,697	0,089	-0,018
-158,979	-44,814	-0,012	-0,004
-157,964	-200,000	0,015	0,095
-156,950	-86,045	-0,087	-0,019
-155,935	-200,000	0,021	-0,069
-154,920	800,000	-0,007	-0,016
-153,906	-200,000	0,014	-0,045
-152,891	675,523	-0,025	0,047
-151,877	-129,419	-0,064	0,006
-150,862	293,962	0,037	0,050
-149,847	-113,866	0,126	0,018
-148,833	-45,580	0,020	-0,007
-147,818	135,414	-0,019	-0,018
-146,804	40,134	-0,053	0,035
-145,789	-29,293	0,061	0,025
-144,775	-79,825	0,036	0,009
-143,760	15,659	-0,057	-0,032
-142,745	-46,866	0,045	-0,016
-141,731	66,498	-0,072	0,053
-140,716	10,505	-0,055	0,031
-139,702	-200,000	0,021	0,136
-138,687	92,686	-0,050	-0,041
-137,672	-200,000	0,004	0,036
-136,658	800,000	-0,048	-0,115
-135,643	-81,903	-0,040	0,009
-134,629	-200,000	-0,005	-0,054
-133,614	347,654	-0,014	0,020
-132,599	62,945	-0,048	-0,035
-131,585	-59,877	-0,168	-0,052
-130,570	-33,633	-0,028	-0,011
-129,556	17,691	0,055	0,032
-128,541	116,702	-0,054	-0,048
-127,526	551,693	0,042	0,073
-126,512	800,000	0,014	-0,029
-125,497	-200,000	0,024	0,080
-124,483	258,171	-0,020	0,025
-123,468	-172,210	0,103	0,002
-122,453	800,000	-0,043	-0,088
-121,439	-124,420	-0,091	-0,010
-120,424	-142,113	-0,145	0,010
-119,410	-200,000	0,025	0,120
-118,395	230,418	0,096	-0,114
-117,380	-200,000	-0,022	-0,125
-116,366	39,027	-0,160	0,104
-115,351	424,051	-0,017	-0,026
-114,337	-200,000	-0,023	-0,141
-113,322	269,038	0,076	-0,097
-112,307	800,000	0,048	-0,114
-111,293	800,000	0,079	-0,171
-110,278	800,000	-0,011	-0,024
-109,264	-200,000	-0,006	0,117
-108,249	137,592	0,012	-0,012
-107,234	-200,000	0,015	0,059
-106,220	28,335	-0,046	0,028
-105,205	114,324	-0,014	0,012
-104,191	238,291	-0,056	-0,068
-103,176	140,869	0,039	-0,037
-102,162	342,756	-0,043	0,062
-101,147	800,000	-0,056	-0,119
-100,132	-200,000	-0,007	-0,060
-99,118	-200,000	-0,002	0,105
-98,103	-89,005	0,071	0,015
-97,089	-24,258	-0,077	-0,033
-96,074	653,410	-0,015	0,029
-95,059	-200,000	-0,009	0,048
-94,045	-200,000	-0,016	0,104
-93,030	-200,000	-0,004	-0,026
-92,016	800,000	-0,035	-0,097
-91,001	704,634	-0,056	-0,108
-89,986	-74,789	-0,042	-0,011
-88,972	-200,000	0,004	0,125
-87,957	443,729	0,022	-0,035
-86,943	8,159	-0,114	-0,062
-85,928	-116,016	0,035	-0,005
-84,913	223,307	-0,079	-0,093
-83,899	-53,195	0,123	-0,041
-82,884	316,565	-0,066	-0,090
-81,870	-158,889	0,057	-0,002
-80,855	750,773	0,056	-0,110
-79,840	-200,000	-0,026	-0,100
-78,826	-200,000	0,020	-0,109
-77,811	276,619	-0,096	-0,124
-76,797	-55,446	-0,061	-0,020
-75,782	-19,028	0,026	0,012
-74,767	800,000	0,054	-0,137
-73,753	-200,000	-0,011	-0,053
-72,738	270,774	0,035	-0,044
-71,724	-200,000	0,040	-0,160
-70,709	-200,000	-0,001	0,034
-69,694	-17,896	-0,195	-0,088
-68,680	156,095	-0,089	-0,089
-67,665	-200,000	-0,005	-0,056
-66,651	-21,384	0,019	-0,008
-65,636	-200,000	0,060	-0,191
-64,622	-161,026	-0,090	-0,003
-63,607	158,917	0,032	-0,033
-62,592	116,413	0,071	0,063
-61,578	46,689	0,095	-0,064
-60,563	800,000	-0,048	-0,129
-59,549	-200,000	-0,020	0,084
-58,534	-135,989	-1,287	-0,108
-57,519	757,774	-0,768	-1,515
-56,505	-200,000	-0,997	-4,385
-55,490	-33,797	0,620	-0,246
-54,476	800,000	4,939	11,717
-53,461	-200,000	14,111	253,275
-52,446	-200,000	694,651	2235,874
-51,432	570,780	1624,729	2877,735
-50,417	117,252	1632,273	1454,185
-49,403	72,589	1286,280	971,425
-48,388	37,460	1023,011	656,172
-47,373	23,760	981,380	584,456
-46,359	23,004	970,811	575,664
-45,344	22,025	966,491	569,884
-44,330	22,062	964,879	569,033
-43,315	21,891	963,489	567,632
-42,300	21,809	962,656	566,852
-41,286	21,807	961,681	566,251
-40,271	21,851	960,597	565,732
-39,257	21,821	959,685	565,076
-38,242	21,837	958,678	564,510
-37,227	21,781	958,004	563,910
-36,213	21,738	957,099	563,218
-35,198	21,733	956,154	562,622
-34,184	21,787	955,677	562,494
-33,169	21,806	954,542	561,865
-32,154	21,902	953,554	561,569
-31,140	21,801	952,861	560,815
-30,125	21,869	951,875	560,430
-29,111	21,831	951,205	559,890
-28,096	21,831	950,414	559,404
-27,082	21,879	949,749	559,143
-26,067	21,842	948,933	558,522
-25,052	21,890	948,307	558,285
-24,038	21,794	947,858	557,692
-23,023	21,786	947,106	557,202
-22,009	21,855	946,349	556,956
-20,994	21,889	945,786	556,710
-19,979	21,822	945,120	556,082
-18,965	21,860	944,492	555,813
-17,950	21,875	943,785	555,423
-16,936	21,816	943,216	554,876
-15,921	21,767	942,550	554,308
-14,906	21,654	941,900	553,543
-13,892	21,762	941,125	553,409
-12,877	21,780	940,433	553,038
-11,863	21,647	939,994	552,336
-10,848	21,663	939,517	552,085
-9,833	21,791	939,059	552,197
-8,819	21,765	938,457	551,740
-7,804	21,754	937,528	551,139
-6,790	21,673	937,144	550,633
-5,775	21,740	936,444	550,411
-4,760	21,685	935,850	549,868
-3,746	21,693	935,252	549,519
-2,731	21,559	934,631	548,711
-1,717	21,527	933,762	548,077
-0,702	21,484	933,172	547,574
0,313	21,275	932,622	547,421
1,327	24,324	930,594	555,757
2,342	33,775	794,523	499,611
3,356	31,636	450,017	279,744
4,371	1,091	293,258	151,885
5,386	-3,289	274,185	137,861
6,400	-4,594	268,516	133,790
7,415	-5,024	266,002	132,131
8,429	-4,737	264,869	131,819
9,444	-4,746	263,943	131,338
10,459	-4,896	263,424	130,932
11,473	-4,836	262,686	130,608
12,488	-5,027	262,213	130,188
13,502	-5,044	261,774	129,943
14,517	-5,097	261,215	129,606
15,531	-4,945	260,862	129,557
16,546	-5,047	260,636	129,341
17,561	-5,208	260,238	128,988
18,575	-4,956	259,890	129,029
19,590	-5,017	259,547	128,793
20,604	-4,925	259,296	128,739
21,619	-5,088	258,885	128,378
22,634	-4,831	258,520	128,415
23,648	-5,061	258,179	128,030
24,663	-5,178	258,080	127,865
25,677	-5,097	257,823	127,798
26,692	-4,853	257,391	127,789
27,707	-5,190	257,277	127,422
28,721	-5,076	256,901	127,325
29,736	-5,074	256,610	127,171
30,750	-5,067	256,429	127,077
31,765	-5,191	256,263	126,874
32,780	-5,097	256,045	126,837
33,794	-5,303	255,871	126,559
34,809	-5,110	255,484	126,526
35,823	-5,079	255,257	126,429
36,838	-5,040	254,969	126,309
37,853	-5,198	254,793	126,072
38,867	-5,121	254,669	126,068
39,882	-5,053	254,360	125,963
40,896	-5,314	254,241	125,664
41,911	-5,267	253,895	125,523
42,926	-5,304	253,848	125,457
43,940	-5,337	253,462	125,225
44,955	-5,261	253,209	125,155
45,969	-5,225	252,993	125,069
46,984	-5,433	252,782	124,773
47,999	-5,675	252,632	124,477
49,013	-5,708	252,310	124,279
50,028	-5,782	251,980	124,041
51,042	-5,738	251,730	123,945
52,057	-5,733	251,534	123,842
53,071	-5,843	251,480	123,709
54,086	-5,809	251,283	123,631
55,101	-5,578	251,067	123,713
56,115	-5,609	250,969	123,627
57,130	-5,181	250,816	123,909
58,144	-5,044	250,614	123,916
59,159	-4,939	250,435	123,907
60,174	-4,825	250,218	123,886
61,188	-4,892	249,990	123,705
62,203	-4,997	249,692	123,456
63,217	-5,062	249,527	123,309
64,232	-4,885	249,291	123,332
65,247	-5,123	249,267	123,106
66,261	-4,966	248,944	123,069
67,276	-5,300	248,745	122,675
68,290	-5,315	248,341	122,452
69,305	-5,526	248,163	122,173
70,320	-5,522	247,970	122,071
71,334	-5,218	247,934	122,301
72,349	-4,982	247,739	122,394
73,363	-4,903	247,503	122,334
74,378	-4,940	247,271	122,177
75,393	-5,068	247,172	122,008
76,407	-5,093	246,854	121,820
77,422	-5,059	246,655	121,740
78,436	-4,983	246,396	121,665
79,451	-4,931	246,144	121,573
80,466	-4,926	246,025	121,508
81,480	-5,302	245,822	121,080
82,495	-5,314	245,577	120,938
83,509	-5,331	245,548	120,899
84,524	-5,279	245,238	120,779
85,539	-5,469	245,045	120,514
86,553	-5,386	244,765	120,436
87,568	-5,425	244,829	120,423
88,582	-5,413	244,571	120,296
89,597	-5,177	244,275	120,337
90,611	-5,156	244,353	120,382
91,626	-5,091	244,003	120,253
92,641	-4,953	243,803	120,259
93,655	-5,271	243,653	119,909
94,670	-5,210	243,424	119,837
95,684	-5,227	243,207	119,705
96,699	-5,202	243,192	119,708
97,714	-5,086	242,856	119,628
98,728	-5,403	242,705	119,279
99,743	-5,352	242,525	119,223
100,757	-5,574	242,288	118,911
101,772	-5,408	242,094	118,944
102,787	-5,252	242,022	119,027
103,801	-5,245	241,621	118,825
104,816	-5,044	241,746	119,041
105,830	-5,010	241,394	118,886
106,845	-5,083	241,349	118,793
107,860	-4,973	241,136	118,768
108,874	-5,164	240,866	118,467
109,889	-5,106	240,684	118,415
110,903	-5,184	240,532	118,265
111,918	-5,236	240,447	118,170
112,933	-5,212	240,047	117,982
113,947	-5,126	239,926	117,984
114,962	-5,122	239,764	117,896
115,976	-5,055	239,682	117,900
116,991	-5,196	239,505	117,688
118,006	-5,028	239,367	117,746
119,020	-5,157	239,222	117,559
120,035	-5,032	239,098	117,590
121,049	-5,034	239,016	117,538
122,064	-4,785	238,688	117,568
123,079	-4,942	238,555	117,365
124,093	-5,195	238,387	117,066
125,108	-5,362	238,101	116,779
126,122	-5,495	238,014	116,618
127,137	-5,431	237,740	116,526
128,151	-5,473	237,503	116,365
129,166	-5,378	237,509	116,434
130,181	-5,552	237,174	116,119
131,195	-5,515	237,061	116,084
132,210	-5,341	236,867	116,118
133,224	-5,070	236,667	116,229
134,239	-4,926	236,468	116,237
135,254	-4,979	236,359	116,130
136,268	-5,397	236,258	115,733
137,283	-5,496	235,970	115,502
138,297	-5,494	235,759	115,390
139,312	-5,555	235,539	115,223
140,327	-5,141	235,467	115,511
141,341	-4,799	235,633	115,856
142,356	-4,671	235,256	115,763
143,370	-4,811	235,114	115,570
144,385	-4,730	234,841	115,491
145,400	-4,681	234,761	115,481
146,414	-4,765	234,556	115,302
147,429	-4,890	234,421	115,126
148,443	-4,945	234,293	115,009
149,458	-5,001	234,200	114,908
150,473	-4,733	233,856	114,943
151,487	-5,066	233,808	114,644
152,502	-4,629	233,431	114,796
153,516	-4,735	233,432	114,702
154,531	-4,741	233,330	114,637
155,546	-4,930	233,169	114,398
156,560	-5,002	232,994	114,244
157,575	-4,988	232,701	114,101
158,589	-4,974	232,586	114,046
159,604	-4,751	232,545	114,192
160,619	-4,615	232,246	114,142
161,633	-4,674	232,173	114,050
162,648	-4,791	232,111	113,917
163,662	-4,910	231,891	113,705
164,677	-4,883	231,668	113,607
165,692	-4,836	231,621	113,611
166,706	-4,607	231,346	113,646
167,721	-4,620	231,249	113,578
168,735	-4,543	231,000	113,506
169,750	-4,475	230,967	113,533
170,764	-4,864	230,881	113,175
171,779	-4,612	230,778	113,312
172,794	-4,592	230,393	113,129
173,808	-4,784	230,308	112,926
174,823	-5,249	230,021	112,413
175,837	-5,308	229,808	112,252
176,852	-5,009	229,718	112,431
177,867	-4,895	229,619	112,462
178,881	-4,943	229,593	112,402
179,896	-4,741	229,446	112,477
180,910	-4,767	229,450	112,449
181,925	-4,734	229,167	112,326
182,940	-4,454	228,815	112,361
183,954	-4,517	228,901	112,344
184,969	-4,637	228,744	112,164
185,983	-4,744	228,705	112,051
186,998	-4,693	228,360	111,912
188,013	-4,641	228,366	111,945
189,027	-4,730	228,028	111,701
190,042	-4,630	227,887	111,699
191,056	-4,674	227,940	111,681
192,071	-4,469	227,575	111,651
193,086	-4,797	227,527	111,364
194,100	-4,617	227,288	111,376
195,115	-4,837	227,010	111,060
196,129	-4,909	226,774	110,880
197,144	-2,479	227,740	113,218
198,159	1,332	228,873	116,722
199,173	3,928	229,161	118,866
200,188	3,980	229,124	118,877
201,202	4,002	229,101	118,871
202,217	4,138	228,986	118,906
203,232	4,238	228,893	118,925
204,246	4,444	228,851	119,051
205,261	4,502	228,489	118,896
206,275	4,611	228,565	119,009
207,290	4,732	228,241	118,923
208,304	4,604	228,252	118,820
209,319	4,650	228,025	118,726
210,334	4,532	227,864	118,541
211,348	4,413	227,555	118,279
212,363	3,969	227,438	117,867
213,377	3,887	227,096	117,617
214,392	3,776	226,998	117,471
215,407	3,793	226,924	117,435
216,421	4,014	226,694	117,474
217,436	3,910	226,451	117,258
218,450	3,473	226,333	116,854
219,465	3,673	226,053	116,851
220,480	3,649	226,014	116,803
221,494	3,589	225,906	116,690
222,509	3,502	225,752	116,534
223,523	3,859	225,594	116,713
224,538	3,564	225,406	116,382
225,553	3,736	225,448	116,524
226,567	3,862	225,195	116,478
227,582	4,081	225,188	116,630
228,596	4,275	225,045	116,692
229,611	3,898	224,716	116,227
230,626	3,376	224,585	115,754
231,640	3,686	224,527	115,948
232,655	4,017	224,328	116,085
233,669	4,512	224,341	116,454
234,684	4,432	224,181	116,300
235,699	4,413	223,977	116,170
236,713	4,082	223,777	115,807
237,728	3,576	223,604	115,327
238,742	3,571	223,345	115,180
239,757	3,826	223,204	115,288
240,772	3,660	223,136	115,117
241,786	3,688	222,927	115,021
242,801	4,048	222,912	115,272
243,815	4,195	222,915	115,374
244,830	4,298	222,754	115,357
245,844	4,061	222,439	115,006
246,859	3,898	222,378	114,843
247,874	4,107	222,168	114,880
248,888	3,859	222,074	114,636
249,903	4,084	221,821	114,663
250,917	3,668	221,726	114,294
251,932	3,728	221,552	114,238
252,947	3,668	221,533	114,174
253,961	3,716	221,402	114,132
254,976	3,819	221,017	114,000
255,990	4,061	221,107	114,216
257,005	4,090	220,888	114,114
258,020	3,883	220,986	114,001
259,034	4,329	220,735	114,192
260,049	4,008	220,603	113,876
261,063	3,757	220,499	113,626
262,078	4,116	220,373	113,817
263,093	4,057	220,144	113,644
264,107	4,039	219,969	113,531
265,122	4,267	219,765	113,584
266,136	4,281	219,715	113,558
267,151	4,299	219,481	113,440
268,166	3,905	219,233	113,012
269,180	3,349	219,087	112,518
270,195	3,471	219,014	112,560
271,209	3,751	218,770	112,630
272,224	3,622	218,682	112,480
273,239	3,771	218,600	112,537
274,253	3,653	218,432	112,354
275,268	3,824	218,234	112,368
276,282	3,414	218,191	112,035
277,297	3,510	217,839	111,915
278,312	3,483	217,852	111,892
279,326	3,979	217,773	112,203
280,341	3,713	217,622	111,922
281,355	3,738	217,545	111,890
282,370	3,747	217,375	111,799
283,384	3,551	217,051	111,480
284,399	3,115	216,953	111,103
285,414	3,715	216,663	111,380
286,428	3,777	216,785	111,478
287,443	3,726	216,762	111,419
288,457	3,944	216,460	111,412
289,472	3,826	216,256	111,211
290,487	3,339	216,128	110,783
291,501	3,527	215,811	110,747
292,516	3,515	215,731	110,687
293,530	3,451	215,686	110,608
294,545	3,210	215,640	110,401
295,560	3,647	215,438	110,602
296,574	4,005	215,354	110,807
297,589	3,795	215,296	110,616
298,603	3,903	215,286	110,679
299,618	4,173	214,909	110,670
300,633	4,016	214,853	110,518
301,647	3,917	214,854	110,438
302,662	4,021	214,734	110,441
303,676	3,928	214,470	110,229
304,691	3,965	214,410	110,214
305,706	4,072	214,214	110,180
306,720	4,060	214,206	110,158
307,735	3,944	213,913	109,914
308,749	3,753	213,757	109,688
309,764	3,668	213,670	109,573
310,779	4,035	213,538	109,757
311,793	3,969	213,464	109,663
312,808	4,100	213,215	109,618
313,822	3,984	212,888	109,358
314,837	3,663	212,921	109,136
315,852	3,630	212,710	108,995
316,866	3,938	212,542	109,118
317,881	3,925	212,448	109,051
318,895	3,931	212,429	109,035
319,910	3,910	212,144	108,865
320,925	3,727	211,908	108,604
321,939	3,318	211,909	108,306
322,954	3,540	211,740	108,367
323,968	3,764	211,749	108,520
324,983	4,273	211,480	108,732
325,997	4,073	211,512	108,597
327,012	4,033	211,285	108,443
328,027	4,230	211,094	108,474
329,041	4,196	211,164	108,476
330,056	4,338	210,968	108,466
331,070	4,056	210,688	108,114
332,085	3,549	210,485	107,644
333,100	3,684	210,473	107,723
334,114	3,651	210,347	107,625
335,129	3,819	210,090	107,602
336,143	3,821	209,858	107,476
337,158	3,617	209,931	107,361
338,173	3,648	209,852	107,332
339,187	3,624	209,618	107,186
340,202	3,453	209,420	106,957
341,216	3,500	209,369	106,954
342,231	3,712	209,112	106,960
343,246	3,633	209,000	106,838
344,260	3,652	208,944	106,814
345,275	3,724	208,790	106,776
346,289	3,852	208,736	106,828
347,304	4,115	208,592	106,927
348,319	3,813	208,524	106,672
349,333	3,915	208,275	106,606
350,348	3,832	208,258	106,531
351,362	4,063	208,170	106,636
352,377	3,865	208,067	106,436
353,392	3,861	207,935	106,357
354,406	4,035	207,716	106,356
355,421	193,471	1345,640	1431,224
356,435	154,325	1484,372	1431,319
