DTS Sentinel unit serial number:	SN410029Multiplexer serial number:	ORYXHardware model number:	OX2-SRSoftware version number:	ORYX F/W v4,00 Oryx Data Collector v3.7.2.0data status	okinstallation	B6 Nyhavnadifferential loss correction	single-endedforward channel	channel 2reverse channel	N/Adate	2023/12/07time	23:55:08forward acquisition time	300,00reverse acquisition time	0,00gamma	499,1914k internal	0,3164k external	0,3164temperature offset calibration	1,0000default loss term (dB/km)	0,3820temperature slope calibration	1,0000multiplexer offset coefficient	1,0000multiplexer slope coefficient	1,0000fibre end	0,00T internal ref (°C)	13,39T ext. ref 1 (°C)	-3,55T ext. ref 2 (°C)	-3,56length (m)	temperature (°C)	Stokes	anti-Stokes-744,400	136,594	0,164	0,158
-743,385	47,487	-0,249	0,171
-742,371	-200,000	-0,008	-0,042
-741,356	-167,881	-0,354	-0,010
-740,342	641,371	0,113	0,213
-739,327	-104,074	-0,250	0,042
-738,312	60,470	0,119	0,086
-737,298	-78,682	-0,325	-0,081
-736,283	-26,163	0,092	0,040
-735,269	-160,843	-0,252	-0,010
-734,254	800,000	-0,019	-0,045
-733,239	-72,866	-0,490	-0,132
-732,225	85,028	0,157	0,126
-731,210	730,139	0,015	0,030
-730,196	-200,000	-0,037	-0,122
-729,181	-200,000	-0,014	-0,089
-728,167	216,966	0,033	-0,038
-727,152	-29,231	-0,104	-0,043
-726,137	497,736	-0,026	-0,044
-725,123	-155,474	0,085	-0,004
-724,108	47,132	-0,074	-0,051
-723,094	-20,185	-0,126	-0,057
-722,079	-200,000	0,017	0,146
-721,064	-200,000	-0,013	-0,053
-720,050	13,356	0,123	0,070
-719,035	47,523	-0,031	-0,021
-718,021	-91,856	0,099	0,020
-717,006	-93,243	-0,159	-0,032
-715,991	345,639	-0,070	-0,101
-714,977	553,916	0,013	0,023
-713,962	467,940	-0,073	-0,121
-712,948	-200,000	0,005	0,112
-711,933	-200,000	0,023	0,141
-710,918	-200,000	-0,013	-0,066
-709,904	134,496	-0,103	-0,098
-708,889	4,832	-0,131	-0,070
-707,875	41,194	-0,020	-0,013
-706,860	774,805	-0,044	0,089
-705,845	-200,000	-0,022	0,157
-704,831	-200,000	0,019	0,065
-703,816	-120,307	0,089	0,011
-702,802	-200,000	0,003	-0,026
-701,787	800,000	-0,022	-0,055
-700,772	87,473	-0,104	-0,085
-699,758	749,093	0,112	-0,223
-698,743	-96,646	-0,171	0,033
-697,729	111,681	0,063	-0,056
-696,714	728,255	0,007	-0,013
-695,699	800,000	-0,069	0,169
-694,685	-117,503	-0,039	-0,005
-693,670	-139,454	-0,057	0,004
-692,656	800,000	-0,062	-0,148
-691,641	139,756	0,096	0,093
-690,627	379,644	-0,015	0,023
-689,612	-200,000	0,019	-0,080
-688,597	-200,000	-0,012	0,119
-687,583	-28,365	0,051	0,022
-686,568	-200,000	0,006	-0,095
-685,554	-200,000	-0,032	0,156
-684,539	800,000	-0,032	0,090
-683,524	188,009	0,108	0,119
-682,510	-131,610	-0,083	-0,008
-681,495	-200,000	0,010	-0,063
-680,481	115,619	-0,080	0,072
-679,466	800,000	-0,029	-0,071
-678,451	800,000	-0,016	0,044
-677,437	53,955	0,032	-0,022
-676,422	765,773	0,002	-0,004
-675,408	-200,000	-0,004	0,057
-674,393	-200,000	0,004	0,066
-673,378	751,356	-0,006	0,012
-672,364	-149,201	-0,144	0,008
-671,349	800,000	0,048	0,115
-670,335	94,446	0,050	-0,042
-669,320	800,000	0,035	0,073
-668,305	78,130	-0,105	-0,082
-667,291	-60,953	0,160	0,049
-666,276	71,278	-0,079	0,060
-665,262	-200,000	-0,000	-0,015
-664,247	4,252	0,073	-0,039
-663,232	-14,606	-0,034	-0,016
-662,218	-200,000	0,001	-0,048
-661,203	6,616	0,058	-0,032
-660,189	169,932	0,028	0,029
-659,174	694,215	-0,048	-0,092
-658,159	449,141	-0,040	0,065
-657,145	-200,000	-0,003	-0,054
-656,130	-200,000	0,001	-0,044
-655,116	-200,000	-0,012	0,106
-654,101	645,032	-0,008	-0,014
-653,086	84,422	0,129	-0,104
-652,072	7,878	-0,096	-0,053
-651,057	-18,296	-0,054	-0,025
-650,043	-53,533	0,153	-0,051
-649,028	800,000	-0,039	-0,098
-648,014	4,778	-0,118	-0,063
-646,999	-82,723	0,095	0,022
-645,984	113,330	-0,129	-0,114
-644,970	64,805	-0,054	-0,040
-643,955	800,000	0,046	0,101
-642,941	-139,811	-0,026	0,002
-641,926	249,223	0,049	0,060
-640,911	-200,000	0,000	0,025
-639,897	-89,042	0,019	-0,004
-638,882	800,000	0,022	0,063
-637,868	87,727	-0,064	0,052
-636,853	-75,648	-0,106	-0,027
-635,838	-71,423	-0,122	-0,033
-634,824	-36,394	-0,131	0,051
-633,809	-161,632	0,126	-0,005
-632,795	-0,822	0,031	0,016
-631,780	-117,933	-0,123	-0,016
-630,765	-200,000	0,017	-0,075
-629,751	-87,265	0,058	-0,013
-628,736	368,782	0,029	-0,043
-627,722	800,000	0,063	0,203
-626,707	-3,856	0,077	-0,039
-625,692	-200,000	-0,016	-0,162
-624,678	202,136	0,053	-0,061
-623,663	76,501	-0,074	0,057
-622,649	80,213	0,111	-0,088
-621,634	64,027	-0,118	0,087
-620,619	-200,000	-0,018	-0,109
-619,605	182,931	-0,040	0,044
-618,590	-43,509	0,110	-0,040
-617,576	-112,736	0,100	0,014
-616,561	28,136	0,077	-0,047
-615,546	-200,000	-0,070	0,000
-614,532	681,271	0,026	-0,050
-613,517	138,566	-0,013	-0,013
-612,503	15,464	-0,018	-0,010
-611,488	-189,673	0,108	0,001
-610,474	-200,000	0,005	0,042
-609,459	-34,954	0,013	-0,005
-608,444	53,305	-0,120	-0,084
-607,430	800,000	0,015	0,039
-606,415	8,557	0,136	-0,075
-605,401	7,736	0,058	0,032
-604,386	286,161	0,057	0,075
-603,371	645,563	-0,015	-0,028
-602,357	-17,279	-0,067	-0,031
-601,342	-50,549	-0,037	-0,013
-600,328	800,000	-0,032	-0,066
-599,313	343,852	0,083	-0,119
-598,298	-159,029	0,137	0,006
-597,284	-63,375	0,008	-0,002
-596,269	162,461	-0,073	0,075
-595,255	168,511	0,082	0,086
-594,240	-116,713	0,137	-0,018
-593,225	296,622	0,079	0,106
-592,211	60,190	0,049	0,036
-591,196	-200,000	0,041	-0,228
-590,182	200,235	0,063	-0,071
-589,167	-200,000	-0,001	0,020
-588,152	23,627	-0,080	-0,048
-587,138	83,606	0,031	0,025
-586,123	69,680	-0,096	-0,072
-585,109	800,000	-0,029	-0,061
-584,094	574,472	0,018	0,033
-583,079	-200,000	0,014	0,156
-582,065	-73,346	-0,086	-0,023
-581,050	800,000	-0,042	0,100
-580,036	800,000	-0,018	-0,042
-579,021	800,000	-0,039	-0,108
-578,006	-79,411	-0,031	-0,007
-576,992	295,840	-0,077	-0,104
-575,977	82,667	-0,042	-0,033
-574,963	4,247	-0,037	-0,020
-573,948	-33,330	0,218	0,088
-572,934	-200,000	-0,002	-0,087
-571,919	-41,124	0,046	0,017
-570,904	675,181	-0,037	-0,071
-569,890	315,323	0,060	-0,083
-568,875	-200,000	-0,019	-0,111
-567,861	-200,000	0,003	0,011
-566,846	800,000	-0,016	0,033
-565,831	268,666	0,041	0,053
-564,817	-116,461	-0,045	0,006
-563,802	800,000	-0,027	-0,060
-562,788	-20,180	-0,124	0,055
-561,773	800,000	-0,028	-0,085
-560,758	162,612	-0,078	0,080
-559,744	-84,005	0,108	0,025
-558,729	-200,000	0,001	0,076
-557,715	-200,000	-0,001	-0,171
-556,700	800,000	-0,049	-0,103
-555,685	-132,254	-0,085	0,008
-554,671	800,000	0,089	-0,189
-553,656	-200,000	0,005	-0,098
-552,642	59,974	-0,062	-0,044
-551,627	-172,667	0,080	0,002
-550,612	-114,122	-0,164	-0,023
-549,598	168,609	-0,058	0,060
-548,583	800,000	-0,018	0,059
-547,569	-107,013	-0,046	-0,007
-546,554	-53,092	0,194	0,065
-545,539	599,026	0,033	0,061
-544,525	8,256	0,045	0,025
-543,510	204,508	-0,066	-0,075
-542,496	800,000	-0,015	-0,035
-541,481	318,204	0,022	0,030
-540,466	305,233	-0,080	0,108
-539,452	746,330	0,028	-0,055
-538,437	-79,234	0,080	-0,020
-537,423	3,266	-0,125	-0,066
-536,408	161,405	0,027	-0,028
-535,393	-48,224	-0,058	0,020
-534,379	-200,000	0,005	0,041
-533,364	70,853	-0,065	0,049
-532,350	800,000	-0,021	0,054
-531,335	800,000	-0,018	0,037
-530,321	-200,000	0,001	0,113
-529,306	-159,222	0,020	-0,001
-528,291	336,661	-0,039	0,056
-527,277	-200,000	-0,007	-0,042
-526,262	104,983	-0,095	0,082
-525,248	31,923	0,083	-0,052
-524,233	192,859	0,087	-0,096
-523,218	800,000	-0,038	0,110
-522,204	-155,504	0,038	0,002
-521,189	600,162	-0,012	0,021
-520,175	800,000	-0,020	0,043
-519,160	53,792	-0,014	0,010
-518,145	800,000	0,044	0,119
-517,131	-54,159	-0,090	-0,030
-516,116	-110,792	0,111	-0,017
-515,102	-200,000	-0,013	-0,125
-514,087	-200,000	0,028	-0,131
-513,072	360,594	-0,090	-0,131
-512,058	-97,060	0,093	-0,018
-511,043	631,696	-0,027	-0,051
-510,029	-87,159	0,112	0,025
-509,014	598,443	0,046	0,084
-507,999	274,863	-0,018	-0,024
-506,985	-82,401	0,124	0,029
-505,970	-75,995	-0,157	0,040
-504,956	-105,641	-0,159	-0,026
-503,941	-114,207	0,103	-0,014
-502,926	23,189	0,061	-0,037
-501,912	-83,392	0,090	0,021
-500,897	29,776	-0,070	0,043
-499,883	-200,000	-0,008	0,095
-498,868	148,760	0,080	0,079
-497,853	-28,227	-0,172	0,072
-496,839	800,000	-0,018	-0,058
-495,824	-67,375	0,065	0,019
-494,810	-200,000	0,017	0,149
-493,795	638,201	-0,036	-0,067
-492,781	89,130	-0,014	-0,012
-491,766	622,972	0,042	-0,077
-490,751	722,604	0,051	-0,099
-489,737	800,000	0,042	-0,113
-488,722	461,662	0,061	-0,100
-487,708	88,906	0,054	0,044
-486,693	772,894	-0,045	-0,089
-485,678	-200,000	-0,023	-0,079
-484,664	115,363	0,058	-0,051
-483,649	-200,000	0,002	-0,041
-482,635	-200,000	-0,012	-0,039
-481,620	-200,000	-0,030	-0,105
-480,605	458,284	-0,009	-0,014
-479,591	-167,042	0,092	-0,003
-478,576	-200,000	-0,000	0,040
-477,562	-200,000	0,007	-0,051
-476,547	261,058	-0,062	-0,079
-475,532	20,465	0,012	0,007
-474,518	559,511	0,032	-0,056
-473,503	800,000	-0,043	0,100
-472,489	-77,054	0,052	-0,013
-471,474	-11,518	-0,075	0,036
-470,459	204,870	-0,117	0,132
-469,445	394,147	0,060	0,091
-468,430	-4,590	0,056	0,028
-467,416	-20,380	-0,112	-0,050
-466,401	800,000	0,028	0,070
-465,386	-126,757	0,170	-0,018
-464,372	53,277	-0,118	-0,082
-463,357	225,874	-0,073	-0,087
-462,343	181,197	-0,070	-0,075
-461,328	-154,724	0,182	0,009
-460,313	81,481	0,140	-0,110
-459,299	-29,167	-0,106	0,044
-458,284	224,760	-0,076	-0,090
-457,270	22,391	0,057	-0,034
-456,255	32,577	-0,148	0,093
-455,241	800,000	-0,030	-0,074
-454,226	-89,359	0,078	0,017
-453,211	81,777	-0,062	0,049
-452,197	800,000	-0,060	0,132
-451,182	-99,552	0,033	-0,006
-450,168	-200,000	-0,011	0,050
-449,153	-200,000	-0,016	-0,067
-448,138	59,954	-0,080	0,057
-447,124	800,000	-0,016	-0,049
-446,109	-200,000	-0,002	-0,055
-445,095	-200,000	-0,004	-0,080
-444,080	365,578	-0,068	0,100
-443,065	-50,970	-0,046	0,016
-442,051	385,772	-0,053	-0,080
-441,036	-200,000	-0,016	0,061
-440,022	-200,000	0,007	0,068
-439,007	-115,361	0,026	0,004
-437,992	212,118	-0,023	0,026
-436,978	-112,985	0,122	0,017
-435,963	9,517	0,126	0,069
-434,949	-62,701	-0,132	0,039
-433,934	99,232	0,104	0,088
-432,919	67,045	-0,152	-0,113
-431,905	-176,072	-0,073	0,001
-430,890	800,000	-0,033	0,079
-429,876	-97,976	0,087	-0,016
-428,861	800,000	0,012	-0,030
-427,846	385,013	-0,017	-0,025
-426,832	-92,446	0,117	-0,024
-425,817	128,248	0,138	-0,128
-424,803	-21,208	-0,124	-0,055
-423,788	800,000	-0,042	0,087
-422,773	370,657	0,061	0,091
-421,759	-46,155	-0,049	0,017
-420,744	446,088	0,034	0,055
-419,730	16,208	0,055	-0,031
-418,715	-61,232	-0,247	-0,075
-417,701	-119,913	-0,148	0,018
-416,686	-189,362	0,093	0,001
-415,671	729,254	0,079	0,153
-414,657	-200,000	0,009	-0,042
-413,642	93,237	-0,034	0,028
-412,628	465,562	-0,070	0,114
-411,613	-200,000	0,010	0,040
-410,598	178,449	-0,100	-0,107
-409,584	223,334	0,093	0,109
-408,569	-200,000	0,006	0,039
-407,555	-8,011	0,111	0,054
-406,540	-183,959	0,101	0,001
-405,525	88,384	-0,104	-0,084
-404,511	-9,259	0,084	-0,041
-403,496	-21,917	-0,038	0,017
-402,482	-91,276	0,048	0,010
-401,467	800,000	-0,018	-0,055
-400,452	-75,474	0,157	-0,040
-399,438	-200,000	0,017	0,071
-398,423	100,245	-0,132	-0,111
-397,409	-135,680	0,114	0,010
-396,394	45,708	0,105	-0,071
-395,379	-28,710	0,080	0,033
-394,365	-17,634	0,050	-0,023
-393,350	442,367	-0,055	-0,088
-392,336	25,315	0,054	-0,032
-391,321	-83,914	-0,052	0,012
-390,306	525,236	-0,053	-0,091
-389,292	298,470	-0,086	-0,115
-388,277	800,000	0,033	0,071
-387,263	800,000	0,024	-0,056
-386,248	-62,902	0,121	0,036
-385,233	-146,554	0,098	-0,006
-384,219	163,527	-0,095	0,097
-383,204	281,671	0,023	-0,030
-382,190	356,837	-0,018	0,026
-381,175	800,000	0,017	-0,044
-380,160	309,479	-0,055	-0,075
-379,146	156,067	0,033	0,033
-378,131	-200,000	-0,002	-0,013
-377,117	-154,204	-0,075	0,004
-376,102	-52,960	0,020	-0,007
-375,088	-45,111	0,130	-0,047
-374,073	-38,734	-0,078	-0,030
-373,058	93,188	0,041	0,033
-372,044	-200,000	-0,031	0,144
-371,029	13,913	0,048	0,027
-370,015	176,610	-0,050	0,053
-369,000	28,427	-0,085	0,052
-367,985	-7,102	-0,127	-0,062
-366,971	-35,615	-0,044	-0,017
-365,956	800,000	0,008	0,022
-364,942	259,178	-0,058	0,073
-363,927	-200,000	-0,008	0,066
-362,912	4,988	0,065	-0,035
-361,898	20,733	-0,096	0,056
-360,883	10,490	-0,196	0,108
-359,869	77,203	0,081	-0,062
-358,854	255,167	-0,020	0,024
-357,839	800,000	-0,020	-0,041
-356,825	665,839	-0,052	0,098
-355,810	455,791	0,015	-0,024
-354,796	-108,669	-0,183	-0,028
-353,781	-68,280	-0,068	0,019
-352,766	54,631	0,178	-0,124
-351,752	165,615	0,057	-0,059
-350,737	800,000	-0,040	0,107
-349,723	800,000	0,056	0,169
-348,708	-159,604	0,042	-0,002
-347,693	60,933	0,118	-0,085
-346,679	-80,850	-0,135	-0,032
-345,664	-89,704	-0,083	0,018
-344,650	-122,375	-0,106	0,012
-343,635	114,836	0,055	0,048
-342,620	-29,091	-0,178	0,074
-341,606	-200,000	-0,003	0,044
-340,591	118,219	0,132	0,118
-339,577	-200,000	0,014	0,047
-338,562	-200,000	0,026	-0,143
-337,548	800,000	0,028	-0,076
-336,533	-91,456	0,083	0,017
-335,518	-200,000	0,036	0,193
-334,504	204,565	0,087	0,098
-333,489	520,929	0,063	0,107
-332,475	-200,000	-0,006	0,035
-331,460	-200,000	0,001	-0,013
-330,445	-122,293	-0,228	-0,027
-329,431	35,589	0,034	-0,021
-328,416	800,000	0,035	0,078
-327,402	-24,670	-0,204	-0,087
-326,387	202,267	0,035	0,039
-325,372	109,879	-0,060	-0,052
-324,358	-16,853	-0,136	-0,062
-323,343	284,779	0,053	-0,069
-322,329	-200,000	0,010	-0,121
-321,314	-72,638	0,040	0,011
-320,299	11,777	-0,043	0,024
-319,285	-94,640	-0,062	-0,012
-318,270	-1,091	0,083	-0,042
-317,256	33,660	-0,093	0,059
-316,241	-76,656	-0,131	-0,033
-315,226	567,262	0,039	-0,068
-314,212	110,314	-0,096	0,084
-313,197	41,061	0,148	0,096
-312,183	-141,297	-0,091	-0,007
-311,168	652,283	0,056	-0,105
-310,153	800,000	-0,019	-0,041
-309,139	800,000	0,047	0,142
-308,124	-200,000	0,015	0,083
-307,110	307,517	-0,010	-0,013
-306,095	-84,953	0,098	0,022
-305,080	-85,100	0,101	0,023
-304,066	-200,000	-0,020	0,075
-303,051	38,805	0,034	-0,022
-302,037	59,912	-0,144	-0,102
-301,022	464,461	0,059	-0,096
-300,008	-139,321	0,047	-0,004
-298,993	165,734	0,057	-0,058
-297,978	127,448	-0,112	-0,103
-296,964	-21,671	0,138	0,060
-295,949	-51,136	-0,094	-0,032
-294,935	-21,987	0,009	0,004
-293,920	207,010	0,010	0,012
-292,905	-138,922	0,125	-0,010
-291,891	-117,867	0,078	-0,010
-290,876	512,785	-0,033	0,056
-289,862	250,809	0,053	0,065
-288,847	285,110	-0,053	-0,069
-287,832	800,000	0,015	-0,034
-286,818	352,643	0,035	-0,050
-285,803	100,552	0,076	0,064
-284,789	-162,012	-0,118	0,004
-283,774	73,355	-0,074	0,056
-282,759	800,000	-0,039	0,109
-281,745	800,000	-0,011	0,034
-280,730	-129,134	-0,096	-0,010
-279,716	-45,590	0,085	0,030
-278,701	-200,000	-0,002	0,159
-277,686	-86,217	0,081	-0,018
-276,672	-3,621	0,149	-0,074
-275,657	-31,024	0,095	0,038
-274,643	0,119	-0,084	0,043
-273,628	34,808	0,097	-0,061
-272,613	-200,000	0,031	-0,177
-271,599	-200,000	-0,005	-0,029
-270,584	569,186	0,048	0,084
-269,570	-200,000	0,013	0,094
-268,555	-91,045	0,143	0,029
-267,540	-200,000	0,002	0,067
-266,526	-36,114	-0,131	-0,051
-265,511	67,651	-0,105	0,078
-264,497	-0,472	0,075	-0,038
-263,482	800,000	0,039	0,104
-262,467	-49,442	0,049	0,017
-261,453	-57,488	-0,146	-0,046
-260,438	-200,000	-0,010	-0,062
-259,424	249,669	0,070	-0,086
-258,409	164,662	-0,037	0,038
-257,395	-163,828	0,073	-0,002
-256,380	800,000	-0,025	-0,080
-255,365	670,852	0,076	0,143
-254,351	-33,018	0,107	0,043
-253,336	150,133	-0,139	0,136
-252,322	-79,273	-0,081	0,020
-251,307	800,000	0,064	-0,151
-250,292	83,759	0,105	-0,083
-249,278	-17,821	0,116	0,052
-248,263	71,110	0,068	-0,051
-247,249	384,005	-0,065	0,097
-246,234	57,747	0,097	-0,068
-245,219	-200,000	0,011	-0,109
-244,205	-200,000	-0,019	0,106
-243,190	800,000	-0,006	0,015
-242,176	-89,718	-0,111	0,023
-241,161	-200,000	-0,000	0,080
-240,146	247,474	0,063	0,077
-239,132	159,933	-0,038	0,038
-238,117	800,000	-0,020	0,051
-237,103	-200,000	-0,002	0,078
-236,088	94,726	-0,091	0,074
-235,073	-142,586	0,091	-0,006
-234,059	351,023	0,160	0,229
-233,044	-42,106	0,025	0,009
-232,030	-143,812	-0,045	0,003
-231,015	-200,000	0,039	-0,152
-230,000	179,911	-0,025	-0,026
-228,986	180,519	0,080	-0,085
-227,971	800,000	0,015	0,039
-226,957	42,008	0,061	0,040
-225,942	96,759	-0,108	-0,089
-224,927	46,511	-0,056	0,037
-223,913	180,728	-0,019	0,020
-222,898	800,000	0,046	-0,104
-221,884	-200,000	-0,018	-0,088
-220,869	800,000	-0,016	0,036
-219,855	189,800	0,125	0,136
-218,840	800,000	0,036	0,107
-217,825	235,643	0,037	-0,044
-216,811	-49,682	0,027	-0,009
-215,796	-200,000	-0,010	-0,158
-214,782	-200,000	-0,026	0,133
-213,767	-87,744	0,123	-0,026
-212,752	-200,000	0,007	0,171
-211,738	143,737	-0,056	0,054
-210,723	-58,101	-0,115	-0,036
-209,709	-112,716	-0,075	-0,011
-208,694	-106,350	-0,062	-0,010
-207,679	-66,426	-0,057	0,016
-206,665	-27,782	0,126	-0,053
-205,650	216,250	-0,122	0,140
-204,636	-94,785	0,150	0,029
-203,621	338,719	0,066	0,093
-202,606	269,116	0,072	0,091
-201,592	-92,303	0,103	-0,021
-200,577	-200,000	-0,006	-0,089
-199,563	73,220	-0,038	-0,028
-198,548	267,500	0,034	-0,043
-197,533	800,000	-0,043	0,090
-196,519	337,329	0,072	-0,101
-195,504	-200,000	-0,005	0,062
-194,490	100,920	-0,106	-0,088
-193,475	800,000	-0,029	-0,078
-192,460	144,310	0,039	-0,038
-191,446	-24,999	-0,069	-0,029
-190,431	-200,000	-0,011	-0,110
-189,417	-200,000	0,007	0,141
-188,402	525,064	-0,033	-0,056
-187,387	15,361	-0,055	-0,031
-186,373	93,531	-0,021	-0,017
-185,358	-133,986	-0,053	0,005
-184,344	-200,000	-0,002	-0,042
-183,329	-77,560	0,134	-0,033
-182,315	290,452	-0,015	-0,019
-181,300	-200,000	-0,001	-0,139
-180,285	172,303	0,033	-0,034
-179,271	50,594	-0,014	-0,010
-178,256	169,323	-0,092	0,095
-177,242	800,000	0,037	-0,091
-176,227	-82,557	-0,088	-0,020
-175,212	29,912	-0,019	-0,012
-174,198	65,692	0,075	0,054
-173,183	166,873	-0,123	0,125
-172,169	-200,000	0,029	0,000
-171,154	-200,000	-0,005	0,044
-170,139	-200,000	0,024	0,178
-169,125	800,000	-0,035	-0,108
-168,110	800,000	0,047	0,142
-167,096	-200,000	-0,009	0,037
-166,081	-73,078	0,041	0,011
-165,066	800,000	-0,039	-0,085
-164,052	195,993	-0,122	0,134
-163,037	-46,879	0,049	-0,017
-162,023	-200,000	-0,012	0,072
-161,008	-200,000	-0,026	0,087
-159,993	366,884	-0,021	-0,030
-158,979	-200,000	0,002	-0,042
-157,964	60,809	-0,061	-0,043
-156,950	165,564	-0,032	-0,033
-155,935	-56,746	0,034	0,011
-154,920	-53,503	-0,144	-0,047
-153,906	-150,503	0,087	0,005
-152,891	-200,000	0,013	-0,046
-151,877	-140,092	0,086	-0,006
-150,862	-128,874	-0,090	0,009
-149,847	479,656	-0,061	0,100
-148,833	204,339	-0,070	0,078
-147,818	-200,000	-0,016	0,126
-146,804	8,283	0,066	0,035
-145,789	-200,000	0,025	0,096
-144,775	-91,990	-0,144	-0,029
-143,760	161,422	0,107	-0,108
-142,745	-103,907	-0,054	-0,009
-141,731	-200,000	0,016	-0,075
-140,716	-105,727	0,119	-0,019
-139,702	398,793	0,044	-0,066
-138,687	800,000	0,009	-0,020
-137,672	800,000	-0,058	0,141
-136,658	166,257	-0,120	0,122
-135,643	-150,954	0,173	0,009
-134,629	16,576	-0,164	-0,093
-133,614	84,116	0,100	-0,079
-132,599	543,371	0,047	0,082
-131,585	-200,000	-0,002	0,085
-130,570	294,480	-0,052	-0,069
-129,556	543,613	-0,075	-0,130
-128,541	220,780	0,047	-0,055
-127,526	-200,000	-0,012	-0,115
-126,512	-2,687	-0,079	-0,040
-125,497	-29,322	0,079	-0,032
-124,483	36,086	-0,136	0,086
-123,468	-200,000	-0,025	-0,079
-122,453	-180,577	-0,111	-0,002
-121,439	-44,655	-0,122	-0,044
-120,424	53,401	0,034	-0,024
-119,410	139,835	-0,060	0,057
-118,395	48,165	-0,041	0,028
-117,380	-200,000	0,016	0,095
-116,366	800,000	0,039	0,097
-115,351	-200,000	0,050	0,174
-114,337	-127,511	-0,082	0,008
-113,322	121,605	-0,044	0,039
-112,307	126,403	-0,077	0,070
-111,293	800,000	0,041	0,093
-110,278	291,760	0,029	0,038
-109,264	800,000	-0,021	0,053
-108,249	76,114	-0,158	-0,120
-107,234	13,349	-0,191	-0,106
-106,220	-106,441	-0,055	-0,009
-105,205	800,000	0,033	-0,081
-104,191	800,000	-0,015	-0,043
-103,176	200,538	-0,027	0,030
-102,162	800,000	-0,047	0,131
-101,147	258,817	0,068	-0,084
-100,132	252,473	0,096	-0,118
-99,118	32,230	-0,091	-0,056
-98,103	-2,753	0,069	0,034
-97,089	-200,000	0,033	0,212
-96,074	315,419	0,088	0,120
-95,059	79,215	-0,067	-0,051
-94,045	459,660	0,077	0,123
-93,030	-200,000	0,010	-0,124
-92,016	-200,000	-0,013	-0,075
-91,001	676,224	0,032	-0,061
-89,986	-120,919	0,058	-0,007
-88,972	150,835	0,087	0,085
-87,957	422,267	-0,022	-0,033
-86,943	-70,893	0,155	0,042
-85,928	-135,891	-0,107	-0,009
-84,913	-200,000	0,091	-0,000
-83,899	800,000	-0,023	-0,069
-82,884	-28,779	0,043	-0,018
-81,870	382,628	-0,069	0,102
-80,855	800,000	0,014	-0,031
-79,840	800,000	0,031	-0,086
-78,826	-200,000	0,018	-0,070
-77,811	-32,859	0,054	0,021
-76,797	-74,512	0,131	-0,034
-75,782	5,638	-0,039	-0,020
-74,767	669,865	0,066	0,123
-73,753	85,765	-0,050	0,039
-72,738	-11,512	0,083	0,039
-71,724	573,012	0,065	-0,114
-70,709	-13,245	-0,045	0,021
-69,694	-200,000	-0,011	-0,053
-68,680	-200,000	0,014	0,249
-67,665	800,000	0,003	-0,009
-66,651	-98,336	-0,062	0,011
-65,636	-73,539	-0,051	-0,013
-64,622	222,078	0,039	0,045
-63,607	-200,000	0,026	-0,105
-62,592	-86,921	-0,073	0,016
-61,578	640,527	0,041	0,075
-60,563	800,000	0,077	-0,160
-59,549	61,125	-0,048	-0,034
-58,534	41,676	-2,185	-1,416
-57,519	-200,000	-0,095	-0,646
-56,505	-200,000	-1,407	-5,148
-55,490	201,990	0,809	0,894
-54,476	800,000	5,305	12,081
-53,461	-200,000	18,751	314,929
-52,446	800,000	740,484	2312,975
-51,432	548,338	1653,718	2847,450
-50,417	109,748	1636,972	1405,166
-49,403	73,305	1287,510	963,522
-48,388	29,745	1029,136	626,001
-47,373	19,650	991,730	569,906
-46,359	17,109	979,500	554,515
-45,344	13,812	975,519	541,435
-44,330	14,100	974,062	541,550
-43,315	13,485	972,323	538,549
-42,300	13,412	971,331	537,739
-41,286	13,362	970,423	537,052
-40,271	13,406	969,466	536,645
-39,257	13,481	968,436	536,299
-38,242	13,401	967,604	535,555
-37,227	13,457	966,790	535,267
-36,213	13,412	965,796	534,548
-35,198	13,379	965,009	533,985
-34,184	13,452	964,241	533,774
-33,169	13,363	963,346	532,968
-32,154	13,472	962,390	532,772
-31,140	13,384	961,556	532,005
-30,125	13,410	960,970	531,742
-29,111	13,400	959,821	531,054
-28,096	13,438	959,243	530,835
-27,082	13,446	958,508	530,435
-26,067	13,422	958,011	530,059
-25,052	13,420	957,151	529,556
-24,038	13,429	956,388	529,143
-23,023	13,436	955,769	528,801
-22,009	13,425	955,263	528,464
-20,994	13,426	954,613	528,089
-19,979	13,409	954,026	527,688
-18,965	13,425	953,328	527,333
-17,950	13,445	952,610	526,979
-16,936	13,373	952,096	526,442
-15,921	13,399	951,259	526,042
-14,906	13,288	950,786	525,404
-13,892	13,278	950,232	525,046
-12,877	13,290	949,323	524,561
-11,863	13,284	948,673	524,163
-10,848	13,307	948,144	523,922
-9,833	13,464	947,730	524,173
-8,819	13,411	947,105	523,638
-7,804	13,344	946,376	523,002
-6,790	13,314	945,878	522,609
-5,775	13,351	945,300	522,385
-4,760	13,323	944,700	521,945
-3,746	13,353	944,025	521,648
-2,731	13,187	943,341	520,721
-1,717	13,128	942,858	520,249
-0,702	13,160	942,057	519,886
0,313	12,969	941,263	519,627
1,327	16,464	939,198	529,475
2,342	25,689	790,008	469,665
3,356	21,831	443,950	258,205
4,371	-7,664	296,793	143,018
5,386	-11,452	278,466	130,573
6,400	-12,989	272,811	126,477
7,415	-12,900	270,421	125,440
8,429	-13,031	269,065	124,679
9,444	-13,053	268,197	124,245
10,459	-13,061	267,440	123,876
11,473	-13,050	266,886	123,619
12,488	-13,245	266,247	123,134
13,502	-13,298	265,682	122,814
14,517	-13,269	265,109	122,564
15,531	-13,053	264,710	122,564
16,546	-13,080	264,542	122,451
17,561	-12,958	264,048	122,321
18,575	-13,009	263,878	122,186
19,590	-13,153	263,492	121,867
20,604	-13,040	263,353	121,893
21,619	-13,043	262,723	121,588
22,634	-13,132	262,570	121,427
23,648	-13,259	262,197	121,130
24,663	-13,189	261,840	121,017
25,677	-13,081	261,542	120,964
26,692	-13,052	261,330	120,881
27,707	-12,991	260,954	120,752
28,721	-13,266	260,935	120,486
29,736	-13,317	260,567	120,260
30,750	-13,232	260,233	120,171
31,765	-13,461	260,091	119,892
32,780	-13,356	259,882	119,878
33,794	-13,380	259,648	119,738
34,809	-13,293	259,299	119,643
35,823	-13,297	258,980	119,482
36,838	-13,416	258,776	119,272
37,853	-13,314	258,583	119,262
38,867	-13,373	258,280	119,060
39,882	-13,237	258,032	119,055
40,896	-13,441	257,884	118,796
41,911	-13,378	257,545	118,685
42,926	-13,273	257,412	118,705
43,940	-13,445	257,085	118,393
44,955	-13,396	256,993	118,383
45,969	-13,384	256,662	118,231
46,984	-13,622	256,545	117,958
47,999	-13,907	256,063	117,477
49,013	-13,937	255,864	117,350
50,028	-13,977	255,599	117,183
51,042	-14,194	255,409	116,896
52,057	-14,141	255,098	116,789
53,071	-14,183	255,010	116,702
54,086	-13,913	254,807	116,833
55,101	-13,961	254,684	116,725
56,115	-13,694	254,465	116,845
57,130	-13,185	254,360	117,228
58,144	-13,187	254,289	117,183
59,159	-12,967	253,898	117,182
60,174	-13,170	253,892	116,994
61,188	-13,072	253,618	116,941
62,203	-13,271	253,335	116,628
63,217	-13,048	253,040	116,675
64,232	-13,255	252,923	116,432
65,247	-13,077	252,689	116,468
66,261	-13,030	252,530	116,424
67,276	-13,273	252,044	115,981
68,290	-13,557	251,856	115,641
69,305	-13,653	251,772	115,510
70,320	-13,618	251,670	115,483
71,334	-13,529	251,440	115,443
72,349	-13,193	251,266	115,640
73,363	-13,175	251,142	115,588
74,378	-13,070	250,743	115,483
75,393	-12,929	250,463	115,464
76,407	-13,240	250,417	115,169
77,422	-13,301	250,153	114,984
78,436	-13,165	249,942	114,992
79,451	-13,002	249,690	115,005
80,466	-13,307	249,391	114,598
81,480	-13,215	249,062	114,515
82,495	-13,331	248,995	114,375
83,509	-13,515	248,936	114,183
84,524	-13,534	248,526	113,969
85,539	-13,421	248,218	113,912
86,553	-13,626	248,247	113,742
87,568	-13,447	248,104	113,818
88,582	-13,493	247,860	113,657
89,597	-13,498	247,756	113,595
90,611	-13,209	247,331	113,633
91,626	-13,264	247,369	113,594
92,641	-13,404	247,176	113,378
93,655	-13,562	247,007	113,157
94,670	-13,363	246,676	113,163
95,684	-13,411	246,521	113,041
96,699	-13,474	246,371	112,910
97,714	-13,494	246,197	112,803
98,728	-13,703	246,124	112,585
99,743	-13,592	245,669	112,459
100,757	-13,949	245,594	112,118
101,772	-13,741	245,410	112,197
102,787	-13,512	245,119	112,244
103,801	-13,417	245,009	112,263
104,816	-13,397	244,962	112,248
105,830	-13,039	244,634	112,384
106,845	-13,269	244,614	112,175
107,860	-13,213	244,228	112,033
108,874	-13,344	244,080	111,847
109,889	-13,354	243,776	111,690
110,903	-13,331	243,663	111,647
111,918	-13,295	243,543	111,612
112,933	-13,383	243,340	111,437
113,947	-13,319	243,250	111,438
114,962	-13,248	242,930	111,340
115,976	-13,304	242,843	111,244
116,991	-13,296	242,591	111,126
118,006	-13,281	242,481	111,077
119,020	-13,265	242,284	110,990
120,035	-13,447	242,220	110,802
121,049	-13,081	242,017	110,999
122,064	-13,182	241,858	110,833
123,079	-13,174	241,477	110,655
124,093	-13,379	241,458	110,470
125,108	-13,664	241,140	110,082
126,122	-13,835	240,952	109,847
127,137	-13,713	240,696	109,819
128,151	-13,618	240,574	109,831
129,166	-13,483	240,449	109,874
130,181	-13,417	240,130	109,772
131,195	-13,667	239,985	109,493
132,210	-13,426	239,860	109,621
133,224	-13,339	239,691	109,605
134,239	-13,350	239,571	109,532
135,254	-13,093	239,286	109,600
136,268	-13,432	239,136	109,247
137,283	-13,745	238,835	108,847
138,297	-13,654	238,484	108,751
139,312	-13,710	238,398	108,657
140,327	-13,610	238,545	108,795
141,341	-13,041	238,396	109,176
142,356	-12,894	238,143	109,168
143,370	-12,957	237,979	109,032
144,385	-12,824	237,891	109,089
145,400	-12,929	237,610	108,867
146,414	-13,054	237,427	108,673
147,429	-13,310	237,299	108,399
148,443	-12,988	237,062	108,539
149,458	-13,031	237,043	108,486
150,473	-13,045	236,793	108,351
151,487	-13,046	236,454	108,186
152,502	-13,088	236,532	108,178
153,516	-13,055	236,309	108,093
154,531	-13,002	235,996	107,982
155,546	-13,151	235,852	107,788
156,560	-13,168	235,849	107,764
157,575	-13,139	235,518	107,625
158,589	-13,133	235,353	107,545
159,604	-12,812	235,188	107,715
160,619	-12,774	235,070	107,681
161,633	-13,080	235,123	107,454
162,648	-12,700	234,773	107,585
163,662	-13,040	234,638	107,244
164,677	-12,934	234,506	107,258
165,692	-13,024	234,374	107,117
166,706	-12,851	234,190	107,160
167,721	-12,728	233,909	107,120
168,735	-12,755	233,886	107,078
169,750	-12,874	233,705	106,892
170,764	-13,116	233,645	106,664
171,779	-13,083	233,342	106,542
172,794	-12,899	233,203	106,614
173,808	-13,009	232,995	106,423
174,823	-13,550	232,736	105,871
175,837	-13,320	232,470	105,921
176,852	-13,246	232,523	105,993
177,867	-13,205	232,496	106,003
178,881	-12,916	232,306	106,133
179,896	-12,994	232,007	105,927
180,910	-12,926	232,038	105,985
181,925	-12,797	231,802	105,968
182,940	-12,891	231,699	105,838
183,954	-12,949	231,488	105,687
184,969	-12,709	231,406	105,827
185,983	-12,790	231,289	105,701
186,998	-12,770	231,216	105,674
188,013	-12,706	230,854	105,548
189,027	-12,817	230,701	105,383
190,042	-12,782	230,555	105,334
191,056	-12,746	230,316	105,243
192,071	-12,885	230,172	105,061
193,086	-12,775	229,968	105,043
194,100	-12,890	229,875	104,903
195,115	-13,269	229,330	104,353
196,129	-13,962	229,275	103,784
197,144	-8,123	231,345	109,250
198,159	-1,935	232,965	114,836
199,173	1,755	234,237	118,340
200,188	2,645	234,227	119,020
201,202	2,609	234,114	118,924
202,217	2,630	233,841	118,790
203,232	2,852	233,799	118,932
204,246	2,957	233,560	118,881
205,261	2,809	233,598	118,775
206,275	3,088	233,539	118,952
207,290	3,174	233,140	118,805
208,304	3,063	233,028	118,651
209,319	2,900	232,966	118,482
210,334	2,961	232,664	118,366
211,348	2,774	232,572	118,163
212,363	2,437	232,245	117,726
213,377	2,083	232,113	117,374
214,392	2,297	231,887	117,415
215,407	2,466	231,901	117,542
216,421	2,247	231,732	117,277
217,436	2,624	231,449	117,414
218,450	2,052	231,298	116,886
219,465	2,279	231,053	116,927
220,480	2,174	230,778	116,697
221,494	2,178	230,839	116,720
222,509	2,484	230,813	116,932
223,523	2,373	230,659	116,758
224,538	2,292	230,485	116,597
225,553	2,418	230,263	116,571
226,567	2,542	230,060	116,553
227,582	2,646	230,067	116,625
228,596	2,914	229,912	116,741
229,611	2,649	229,671	116,406
230,626	2,143	229,489	115,918
231,640	2,384	229,336	116,013
232,655	2,519	229,189	116,032
233,669	2,800	229,007	116,144
234,684	2,920	229,152	116,298
235,699	2,922	228,937	116,180
236,713	2,353	228,714	115,624
237,728	2,403	228,497	115,541
238,742	2,243	228,146	115,233
239,757	2,384	228,289	115,402
240,772	2,386	228,013	115,253
241,786	2,184	227,774	114,969
242,801	2,339	227,889	115,134
243,815	2,536	227,735	115,196
244,830	2,699	227,461	115,170
245,844	2,378	227,400	114,886
246,859	2,372	227,189	114,765
247,874	2,217	227,276	114,681
248,888	2,633	226,968	114,829
249,903	2,593	226,715	114,661
250,917	2,443	226,570	114,464
251,932	2,420	226,394	114,348
252,947	2,253	226,141	114,085
253,961	2,228	226,122	114,047
254,976	2,241	225,954	113,961
255,990	2,447	225,909	114,082
257,005	2,671	225,799	114,185
258,020	2,637	225,645	114,071
259,034	2,563	225,529	113,947
260,049	2,439	225,426	113,792
261,063	2,605	225,137	113,760
262,078	2,677	225,159	113,815
263,093	2,879	224,917	113,833
264,107	2,716	224,731	113,607
265,122	2,725	224,738	113,608
266,136	2,924	224,567	113,659
267,151	2,999	224,374	113,607
268,166	2,377	224,239	113,066
269,180	2,071	223,896	112,656
270,195	2,157	223,904	112,714
271,209	2,185	223,773	112,659
272,224	2,365	223,582	112,686
273,239	2,552	223,527	112,786
274,253	2,612	223,148	112,630
275,268	2,126	223,050	112,211
276,282	2,208	222,944	112,208
277,297	2,037	222,645	111,921
278,312	2,406	222,536	112,128
279,326	2,217	222,511	111,967
280,341	2,423	222,356	112,030
281,355	2,420	222,363	112,022
282,370	2,674	222,146	112,090
283,384	2,072	221,914	111,520
284,399	2,408	221,617	111,607
285,414	1,996	221,651	111,312
286,428	2,395	221,563	111,551
287,443	2,437	221,460	111,520
288,457	2,680	221,208	111,561
289,472	2,283	221,043	111,177
290,487	2,081	220,814	110,905
291,501	1,952	220,565	110,676
292,516	1,882	220,642	110,653
293,530	2,041	220,377	110,627
294,545	2,204	220,272	110,683
295,560	2,237	220,220	110,671
296,574	2,553	220,105	110,833
297,589	2,268	219,976	110,551
298,603	2,604	219,874	110,734
299,618	2,461	219,634	110,499
300,633	2,368	219,638	110,424
301,647	2,672	219,493	110,562
302,662	2,687	219,332	110,482
303,676	2,699	219,104	110,366
304,691	2,717	219,009	110,321
305,706	2,676	218,972	110,263
306,720	2,722	218,798	110,199
307,735	2,462	218,517	109,860
308,749	2,336	218,413	109,707
309,764	2,590	218,296	109,821
310,779	2,738	218,107	109,823
311,793	2,636	218,030	109,701
312,808	2,410	217,906	109,466
313,822	2,512	217,750	109,451
314,837	2,392	217,491	109,225
315,852	2,103	217,413	108,969
316,866	2,547	217,307	109,225
317,881	2,528	217,352	109,224
318,895	2,598	217,050	109,113
319,910	2,477	216,725	108,853
320,925	2,060	216,666	108,515
321,939	1,768	216,349	108,138
322,954	1,720	216,333	108,087
323,968	2,293	216,366	108,502
324,983	2,588	216,316	108,678
325,997	2,557	216,199	108,587
327,012	2,570	216,016	108,495
328,027	2,802	215,676	108,479
329,041	2,792	215,804	108,527
330,056	2,861	215,547	108,437
331,070	2,431	215,453	108,075
332,085	2,457	215,104	107,909
333,100	2,381	215,101	107,844
334,114	2,689	214,840	107,921
335,129	2,444	214,848	107,742
336,143	2,573	214,546	107,672
337,158	2,314	214,499	107,456
338,173	2,341	214,384	107,408
339,187	2,261	214,045	107,173
340,202	2,215	213,961	107,088
341,216	2,441	214,113	107,314
342,231	2,680	213,987	107,410
343,246	2,552	213,725	107,179
344,260	2,312	213,689	106,982
345,275	2,406	213,707	107,047
346,289	2,598	213,500	107,070
347,304	2,553	213,382	106,969
348,319	2,248	213,163	106,636
349,333	2,239	212,985	106,531
350,348	2,623	212,860	106,728
351,362	2,962	212,772	106,911
352,377	2,706	212,675	106,674
353,392	2,403	212,499	106,364
354,406	2,627	212,368	106,446
355,421	197,884	1311,461	1391,970
356,435	158,339	1445,301	1391,912
