DTS Sentinel unit serial number:	SN410029Multiplexer serial number:	ORYXHardware model number:	OX2-SRSoftware version number:	ORYX F/W v4,00 Oryx Data Collector v3.7.2.0data status	okinstallation	B6 Nyhavnadifferential loss correction	single-endedforward channel	channel 2reverse channel	N/Adate	2023/12/10time	02:45:08forward acquisition time	300,00reverse acquisition time	0,00gamma	499,1914k internal	0,3125k external	0,3125temperature offset calibration	1,0000default loss term (dB/km)	0,3820temperature slope calibration	1,0000multiplexer offset coefficient	1,0000multiplexer slope coefficient	1,0000fibre end	0,00T internal ref (°C)	21,96T ext. ref 1 (°C)	5,80T ext. ref 2 (°C)	5,79length (m)	temperature (°C)	Stokes	anti-Stokes-744,400	169,929	-0,099	-0,105
-743,385	-94,643	-0,283	0,057
-742,371	800,000	-0,018	0,058
-741,356	-53,633	-0,194	0,066
-740,342	180,960	0,023	-0,025
-739,327	-94,652	-0,202	-0,041
-738,312	-170,118	-0,118	0,003
-737,298	-45,423	-0,303	0,111
-736,283	-77,428	0,082	-0,021
-735,269	75,002	-0,263	0,206
-734,254	-129,862	0,117	0,012
-733,239	-93,462	-0,303	-0,062
-732,225	-118,251	0,014	-0,002
-731,210	-72,166	-0,079	-0,022
-730,196	230,277	0,064	-0,078
-729,181	-20,535	-0,115	-0,052
-728,167	-200,000	0,007	0,057
-727,152	212,538	-0,130	-0,153
-726,137	-69,456	-0,072	0,020
-725,123	265,162	-0,044	-0,058
-724,108	800,000	-0,082	-0,179
-723,094	3,267	0,054	-0,029
-722,079	-200,000	-0,071	-0,257
-721,064	-200,000	0,001	-0,035
-720,050	128,805	-0,054	-0,051
-719,035	-16,302	-0,024	-0,011
-718,021	-95,204	0,019	-0,004
-717,006	-112,203	-0,166	-0,025
-715,991	800,000	-0,027	-0,070
-714,977	701,699	-0,052	0,103
-713,962	-123,332	-0,110	0,013
-712,948	698,877	0,028	-0,055
-711,933	535,276	-0,053	-0,094
-710,918	-137,927	0,188	-0,015
-709,904	-5,959	-0,063	0,032
-708,889	20,125	0,083	-0,050
-707,875	213,210	0,023	0,027
-706,860	58,956	0,121	-0,088
-705,845	43,478	-0,102	0,069
-704,831	800,000	-0,019	0,042
-703,816	-200,000	0,005	-0,074
-702,802	114,651	-0,051	-0,046
-701,787	-200,000	0,002	-0,107
-700,772	-85,273	-0,022	0,005
-699,758	-200,000	-0,004	0,062
-698,743	-92,622	0,070	0,015
-697,729	708,518	-0,024	-0,047
-696,714	-2,954	-0,098	0,051
-695,699	-200,000	0,007	-0,073
-694,685	-98,238	-0,081	-0,015
-693,670	208,562	-0,086	-0,100
-692,656	139,946	-0,087	-0,085
-691,641	-200,000	0,002	-0,055
-690,627	-46,324	0,068	-0,025
-689,612	-29,578	-0,045	0,019
-688,597	187,177	-0,026	0,029
-687,583	800,000	0,020	-0,048
-686,568	800,000	0,035	-0,076
-685,554	39,686	-0,033	-0,022
-684,539	60,855	-0,078	-0,057
-683,524	-150,590	-0,023	-0,001
-682,510	-45,661	0,049	0,018
-681,495	5,270	0,079	0,043
-680,481	113,754	0,021	0,019
-679,466	800,000	0,063	-0,137
-678,451	147,198	-0,052	0,052
-677,437	69,492	0,083	0,063
-676,422	-123,263	-0,123	-0,014
-675,408	-173,632	-0,140	0,003
-674,393	-164,564	-0,093	-0,003
-673,378	50,278	-0,043	-0,030
-672,364	-200,000	0,002	-0,041
-671,349	294,392	0,075	0,102
-670,335	-168,997	0,073	-0,002
-669,320	452,263	0,020	0,033
-668,305	127,584	0,113	0,107
-667,291	96,394	-0,057	0,048
-666,276	-200,000	-0,009	-0,103
-665,262	442,384	-0,031	-0,051
-664,247	322,079	-0,069	-0,097
-663,232	-200,000	-0,036	-0,132
-662,218	205,136	0,061	0,070
-661,203	800,000	-0,049	0,112
-660,189	-40,805	0,128	-0,049
-659,174	-200,000	0,021	-0,138
-658,159	305,738	0,044	-0,061
-657,145	213,741	-0,044	0,051
-656,130	27,803	-0,066	-0,041
-655,116	91,841	-0,019	0,016
-654,101	65,872	-0,126	0,095
-653,086	-200,000	-0,008	-0,034
-652,072	503,494	-0,041	-0,070
-651,057	-19,785	-0,082	0,038
-650,043	800,000	-0,043	-0,100
-649,028	-59,547	-0,090	-0,029
-648,014	348,113	0,089	-0,131
-646,999	-200,000	0,003	0,024
-645,984	800,000	0,041	0,093
-644,970	-200,000	0,034	0,128
-643,955	217,492	-0,084	-0,099
-642,941	-200,000	0,021	-0,162
-641,926	-200,000	0,006	0,034
-640,911	136,478	0,024	-0,023
-639,897	-200,000	0,002	0,154
-638,882	595,154	-0,058	0,107
-637,868	549,711	0,048	-0,086
-636,853	800,000	0,036	-0,095
-635,838	501,664	-0,066	-0,113
-634,824	37,736	-0,014	0,009
-633,809	800,000	0,023	0,056
-632,795	-163,709	0,116	-0,004
-631,780	-32,264	0,050	0,020
-630,765	42,469	-0,079	-0,054
-629,751	126,977	-0,038	-0,035
-628,736	482,240	0,030	-0,051
-627,722	-200,000	-0,005	-0,073
-626,707	36,627	-0,078	0,051
-625,692	-160,802	0,116	0,004
-624,678	-44,894	-0,113	-0,041
-623,663	603,070	0,061	-0,113
-622,649	-27,470	-0,128	-0,055
-621,634	-200,000	-0,003	0,118
-620,619	-200,000	-0,020	-0,086
-619,605	-23,801	0,128	0,057
-618,590	800,000	0,010	0,026
-617,576	-134,031	-0,059	0,005
-616,561	454,222	0,087	0,144
-615,546	45,134	0,101	-0,069
-614,532	800,000	-0,035	-0,103
-613,517	-68,363	0,075	-0,022
-612,503	-99,665	-0,062	-0,011
-611,488	-200,000	-0,002	-0,014
-610,474	-200,000	-0,018	0,145
-609,459	800,000	-0,032	0,073
-608,444	-200,000	-0,006	0,111
-607,430	-92,242	-0,126	-0,026
-606,415	-200,000	-0,020	-0,077
-605,401	434,552	0,038	0,062
-604,386	800,000	0,029	0,083
-603,371	-200,000	-0,009	-0,067
-602,357	85,910	-0,138	0,112
-601,342	-147,007	-0,027	0,002
-600,328	7,308	-0,083	-0,046
-599,313	-168,915	0,073	0,002
-598,298	-104,120	0,136	0,023
-597,284	80,271	0,064	-0,051
-596,269	-60,027	0,063	-0,020
-595,255	-27,124	-0,173	0,074
-594,240	89,876	0,053	-0,044
-593,225	181,966	-0,154	-0,168
-592,211	661,058	-0,029	-0,056
-591,196	-79,099	-0,027	-0,007
-590,182	-94,653	0,045	-0,009
-589,167	529,289	-0,032	-0,056
-588,152	800,000	-0,025	0,064
-587,138	76,487	-0,096	-0,075
-586,123	24,477	-0,077	0,047
-585,109	191,239	-0,072	-0,080
-584,094	688,860	-0,080	-0,156
-583,079	-29,611	0,084	-0,035
-582,065	407,729	0,035	0,055
-581,050	-43,836	-0,107	-0,040
-580,036	55,036	0,012	0,009
-579,021	-200,000	-0,005	0,052
-578,006	377,358	-0,079	-0,120
-576,992	800,000	-0,032	-0,091
-575,977	-130,800	0,132	-0,013
-574,963	-77,516	-0,015	-0,004
-573,948	678,881	-0,012	0,023
-572,934	137,301	0,025	-0,024
-571,919	-200,000	0,010	-0,045
-570,904	-43,044	0,086	-0,032
-569,890	800,000	0,063	-0,182
-568,875	-200,000	-0,006	-0,077
-567,861	-47,684	0,105	0,038
-566,846	-87,576	0,163	0,036
-565,831	-44,642	-0,035	0,013
-564,817	140,262	-0,113	-0,111
-563,802	23,381	-0,015	0,009
-562,788	-200,000	0,012	-0,083
-561,773	-95,640	0,057	-0,011
-560,758	-200,000	-0,002	0,086
-559,744	-181,527	0,171	0,002
-558,729	-73,774	-0,020	-0,005
-557,715	800,000	-0,053	0,111
-556,700	542,746	-0,059	-0,105
-555,685	264,036	0,066	0,084
-554,671	-30,597	0,097	0,041
-553,656	-110,975	0,040	-0,006
-552,642	361,542	0,070	0,104
-551,627	-69,321	-0,097	0,027
-550,612	23,383	-0,081	-0,049
-549,598	-121,748	0,047	0,006
-548,583	-200,000	0,021	-0,162
-547,569	101,086	-0,099	0,085
-546,554	366,978	0,063	-0,094
-545,539	800,000	0,043	-0,129
-544,525	386,202	-0,048	-0,073
-543,510	433,692	0,019	-0,031
-542,496	-200,000	-0,019	-0,126
-541,481	-200,000	0,013	0,060
-540,466	-7,646	0,116	0,058
-539,452	-28,041	0,090	0,038
-538,437	-200,000	-0,015	0,234
-537,423	-49,491	0,092	0,032
-536,408	-25,356	-0,178	0,077
-535,393	-200,000	-0,022	-0,109
-534,379	-200,000	-0,008	-0,138
-533,364	-200,000	0,009	-0,047
-532,350	-128,614	-0,053	-0,005
-531,335	148,319	0,105	-0,105
-530,321	-33,333	0,092	0,037
-529,306	-6,275	0,016	0,008
-528,291	66,612	-0,118	-0,089
-527,277	131,905	0,042	-0,040
-526,262	-108,407	-0,032	0,005
-525,248	800,000	-0,041	0,098
-524,233	-158,172	0,207	-0,009
-523,218	483,853	-0,064	0,107
-522,204	38,647	-0,084	-0,056
-521,189	16,685	-0,091	-0,053
-520,175	-61,396	-0,014	0,004
-519,160	-4,933	-0,041	-0,021
-518,145	800,000	0,024	-0,050
-517,131	234,906	-0,052	0,063
-516,116	97,669	0,108	-0,092
-515,102	-30,226	0,048	-0,020
-514,087	-27,139	0,076	0,033
-513,072	83,510	-0,037	-0,029
-512,058	616,109	-0,048	-0,089
-511,043	-11,442	-0,079	0,038
-510,029	-200,000	0,006	0,025
-509,014	800,000	0,071	0,163
-507,999	-200,000	0,012	-0,093
-506,985	30,428	0,028	0,018
-505,970	82,147	0,022	-0,018
-504,956	800,000	-0,055	-0,128
-503,941	800,000	-0,057	-0,130
-502,926	48,810	-0,080	0,055
-501,912	122,216	0,053	-0,049
-500,897	-126,536	0,096	-0,010
-499,883	581,921	0,047	-0,085
-498,868	800,000	-0,090	-0,208
-497,853	191,541	-0,050	-0,056
-496,839	-139,916	0,061	0,005
-495,824	63,620	0,077	-0,057
-494,810	800,000	-0,026	0,083
-493,795	8,539	0,112	-0,062
-492,781	800,000	0,005	-0,013
-491,766	-80,581	0,090	-0,022
-490,751	763,538	-0,066	-0,132
-489,737	-56,157	0,098	0,032
-488,722	168,371	0,063	-0,066
-487,708	-200,000	-0,024	0,138
-486,693	-31,106	0,082	-0,034
-485,678	379,933	0,033	0,050
-484,664	81,583	-0,098	-0,078
-483,649	800,000	-0,047	0,103
-482,635	31,129	-0,114	-0,072
-481,620	-200,000	-0,018	0,086
-480,605	-150,456	-0,074	0,004
-479,591	417,069	-0,055	0,087
-478,576	252,727	-0,044	0,056
-477,562	-142,303	-0,114	-0,008
-476,547	800,000	0,028	0,082
-475,532	-97,946	0,092	-0,017
-474,518	-200,000	-0,004	-0,111
-473,503	398,432	-0,051	-0,079
-472,489	-200,000	0,028	0,151
-471,474	-200,000	0,011	0,149
-470,459	-157,942	-0,075	-0,003
-469,445	486,134	0,022	-0,037
-468,430	-114,938	0,063	0,009
-467,416	-200,000	0,054	-0,215
-466,401	3,593	0,081	0,043
-465,386	246,399	0,053	0,066
-464,372	-100,930	-0,140	0,025
-463,357	468,926	0,056	0,092
-462,343	-97,403	-0,117	-0,022
-461,328	-200,000	-0,050	0,204
-460,313	104,797	0,085	-0,074
-459,299	-34,560	0,064	0,026
-458,284	393,068	-0,106	0,164
-457,270	757,816	0,055	0,111
-456,255	800,000	-0,052	0,155
-455,241	-200,000	-0,020	-0,081
-454,226	-200,000	0,010	0,033
-453,211	-200,000	-0,038	0,201
-452,197	-178,820	0,084	-0,001
-451,182	289,847	0,049	0,065
-450,168	-200,000	0,001	-0,109
-449,153	-6,221	-0,034	-0,017
-448,138	523,347	-0,119	-0,207
-447,124	800,000	-0,012	-0,037
-446,109	-200,000	0,004	0,080
-445,095	-69,528	-0,049	0,014
-444,080	271,884	0,095	0,123
-443,065	-167,812	0,101	0,003
-442,051	137,014	0,016	0,015
-441,036	-200,000	-0,011	0,128
-440,022	-188,790	-0,127	0,001
-439,007	800,000	-0,048	0,130
-437,992	-47,253	-0,105	-0,038
-436,978	-200,000	-0,010	0,172
-435,963	91,049	-0,092	0,076
-434,949	266,799	0,035	-0,046
-433,934	559,720	-0,083	-0,149
-432,919	186,060	-0,050	0,055
-431,905	38,482	0,092	-0,060
-430,890	800,000	-0,014	-0,036
-429,876	80,958	0,104	-0,082
-428,861	77,965	0,037	0,029
-427,846	174,739	-0,040	-0,043
-426,832	-200,000	0,014	-0,051
-425,817	51,998	-0,034	-0,024
-424,803	-75,232	-0,089	-0,023
-423,788	800,000	-0,014	0,044
-422,773	-200,000	0,028	0,136
-421,759	71,412	-0,117	0,089
-420,744	800,000	-0,019	0,050
-419,730	59,527	-0,071	0,051
-418,715	151,798	-0,040	-0,040
-417,701	98,129	0,098	-0,083
-416,686	800,000	-0,031	0,072
-415,671	119,811	-0,078	0,071
-414,657	87,089	-0,103	0,084
-413,642	-34,048	0,088	-0,035
-412,628	-34,776	-0,049	-0,020
-411,613	800,000	0,032	-0,084
-410,598	-200,000	0,002	0,053
-409,584	-148,568	0,044	0,003
-408,569	105,455	-0,064	0,055
-407,555	800,000	-0,045	0,097
-406,540	-200,000	-0,020	0,080
-405,525	-200,000	-0,003	0,044
-404,511	689,744	-0,079	-0,152
-403,496	-200,000	0,016	-0,084
-402,482	800,000	-0,031	-0,066
-401,467	18,428	0,028	0,016
-400,452	93,999	0,061	0,051
-399,438	347,078	0,056	0,081
-398,423	504,624	0,039	-0,067
-397,409	-200,000	0,005	-0,163
-396,394	382,497	-0,039	-0,059
-395,379	93,429	-0,154	-0,128
-394,365	-26,323	0,224	-0,096
-393,350	-200,000	-0,009	0,139
-392,336	-200,000	-0,016	0,060
-391,321	-200,000	0,018	0,059
-390,306	340,077	0,047	-0,067
-389,292	-200,000	0,004	0,015
-388,277	800,000	0,038	-0,108
-387,263	800,000	-0,016	0,045
-386,248	609,351	-0,047	0,086
-385,233	721,763	-0,057	0,112
-384,219	-47,945	-0,015	0,005
-383,204	-142,607	-0,152	-0,011
-382,190	21,017	0,088	0,052
-381,175	-200,000	0,011	0,055
-380,160	800,000	0,022	0,058
-379,146	-200,000	0,025	0,154
-378,131	800,000	-0,024	0,053
-377,117	219,980	0,017	-0,020
-376,102	-200,000	-0,040	0,158
-375,088	636,651	0,124	-0,232
-374,073	-48,309	-0,020	0,007
-373,058	-200,000	-0,001	-0,009
-372,044	-200,000	-0,011	-0,126
-371,029	-200,000	0,009	0,054
-370,015	-111,965	0,123	-0,018
-369,000	24,988	0,118	0,072
-367,985	-46,622	0,036	-0,013
-366,971	318,147	0,035	-0,049
-365,956	800,000	0,015	0,036
-364,942	62,050	0,039	0,028
-363,927	-200,000	-0,011	-0,054
-362,912	44,132	-0,006	-0,004
-361,898	84,473	-0,032	0,025
-360,883	311,671	-0,092	-0,127
-359,869	77,416	-0,117	-0,091
-358,854	-21,108	-0,105	-0,047
-357,839	800,000	0,047	0,103
-356,825	-200,000	0,009	0,118
-355,810	118,998	0,079	0,072
-354,796	284,183	0,088	-0,117
-353,781	-118,248	-0,069	0,009
-352,766	-103,625	-0,035	0,006
-351,752	256,292	0,033	-0,042
-350,737	-116,014	0,107	-0,014
-349,723	704,865	-0,039	-0,075
-348,708	-130,277	-0,085	0,008
-347,693	277,551	0,079	0,103
-346,679	267,440	-0,016	-0,020
-345,664	800,000	-0,067	-0,182
-344,650	207,659	-0,093	0,106
-343,635	-3,101	0,050	-0,026
-342,620	-200,000	0,016	0,063
-341,606	-200,000	-0,022	0,101
-340,591	16,805	0,039	0,022
-339,577	-200,000	-0,115	0,000
-338,562	800,000	0,087	-0,200
-337,548	-61,294	0,140	0,043
-336,533	321,221	0,068	0,095
-335,518	467,511	-0,055	0,091
-334,504	800,000	-0,028	-0,083
-333,489	800,000	0,055	0,128
-332,475	-200,000	-0,001	-0,054
-331,460	7,053	0,020	-0,011
-330,445	-93,733	-0,143	0,029
-329,431	343,215	0,133	0,191
-328,416	-130,194	-0,041	0,004
-327,402	230,999	0,033	0,040
-326,387	69,727	-0,138	-0,104
-325,372	254,875	-0,062	-0,078
-324,358	-27,369	-0,036	-0,015
-323,343	-200,000	-0,027	-0,105
-322,329	-200,000	0,015	0,097
-321,314	800,000	0,060	0,169
-320,299	-200,000	0,019	-0,092
-319,285	800,000	0,037	-0,092
-318,270	-4,567	0,123	-0,062
-317,256	37,266	0,072	0,047
-316,241	800,000	0,043	0,132
-315,226	-142,535	-0,048	0,003
-314,212	-200,000	0,008	0,033
-313,197	450,274	0,025	-0,041
-312,183	-200,000	0,004	0,060
-311,168	-200,000	-0,031	-0,157
-310,153	-200,000	0,002	-0,051
-309,139	-150,895	0,098	0,005
-308,124	800,000	0,032	0,098
-307,110	213,687	0,074	0,086
-306,095	72,639	0,093	0,071
-305,080	800,000	-0,031	-0,066
-304,066	560,220	0,050	-0,089
-303,051	-200,000	-0,006	-0,087
-302,037	800,000	0,055	-0,153
-301,022	54,850	-0,042	0,030
-300,008	76,469	0,085	-0,066
-298,993	-151,952	0,073	0,004
-297,978	15,953	-0,106	0,061
-296,964	28,071	-0,062	0,038
-295,949	-200,000	0,003	-0,032
-294,935	69,506	-0,011	0,008
-293,920	73,008	0,018	-0,014
-292,905	658,535	-0,015	0,028
-291,891	-118,496	0,087	-0,011
-290,876	800,000	0,048	0,135
-289,862	-200,000	0,024	0,133
-288,847	126,340	-0,082	-0,076
-287,832	-83,786	0,064	-0,015
-286,818	-26,041	-0,075	0,032
-285,803	258,644	0,034	-0,042
-284,789	800,000	-0,055	0,138
-283,774	-19,291	-0,029	0,013
-282,759	-74,545	-0,053	-0,014
-281,745	-42,228	-0,059	-0,022
-280,730	-200,000	-0,027	-0,104
-279,716	204,202	-0,078	-0,088
-278,701	679,262	-0,033	0,064
-277,686	256,720	0,091	0,114
-276,672	-200,000	-0,016	0,077
-275,657	-200,000	0,009	-0,078
-274,643	800,000	-0,026	0,056
-273,628	8,608	-0,132	-0,073
-272,613	-130,452	-0,054	-0,005
-271,599	800,000	0,018	0,038
-270,584	542,024	-0,010	0,017
-269,570	-79,673	0,024	0,006
-268,555	260,615	0,034	0,043
-267,540	-13,563	-0,068	0,032
-266,526	800,000	-0,022	-0,055
-265,511	9,732	0,086	0,047
-264,497	-67,598	0,052	0,015
-263,482	207,660	0,101	0,115
-262,467	51,216	-0,073	0,051
-261,453	-129,048	0,040	0,004
-260,438	36,712	0,068	-0,044
-259,424	-58,730	-0,096	-0,030
-258,409	800,000	0,012	0,034
-257,395	104,777	-0,106	0,091
-256,380	-200,000	0,038	0,126
-255,365	126,872	0,007	0,006
-254,351	374,823	0,083	0,123
-253,336	-200,000	0,010	0,093
-252,322	800,000	-0,011	0,023
-251,307	104,145	-0,052	-0,045
-250,292	-200,000	0,001	0,034
-249,278	61,143	0,052	0,037
-248,263	-27,349	-0,095	-0,040
-247,249	81,532	-0,064	-0,051
-246,234	-116,527	-0,019	-0,003
-245,219	548,582	-0,056	-0,099
-244,205	150,001	-0,073	-0,072
-243,190	138,017	0,160	0,153
-242,176	214,837	0,088	0,102
-241,161	-63,873	0,024	-0,007
-240,146	-159,113	-0,049	-0,002
-239,132	-12,639	0,100	0,048
-238,117	113,007	0,060	-0,053
-237,103	800,000	0,062	-0,171
-236,088	167,297	-0,120	0,124
-235,073	-200,000	0,024	0,116
-234,059	-178,513	0,023	-0,000
-233,044	-27,907	0,079	-0,033
-232,030	-200,000	-0,008	0,046
-231,015	-200,000	-0,000	-0,175
-230,000	-200,000	0,019	-0,070
-228,986	800,000	-0,018	-0,056
-227,971	-73,152	-0,088	0,023
-226,957	-6,730	0,088	0,044
-225,942	-79,144	-0,041	0,010
-224,927	559,882	0,100	0,177
-223,913	357,078	-0,012	0,017
-222,898	800,000	-0,014	-0,040
-221,884	-200,000	0,005	-0,059
-220,869	-25,041	-0,047	0,020
-219,855	-125,780	0,071	0,008
-218,840	154,270	0,023	0,023
-217,825	597,703	0,073	-0,132
-216,811	-2,235	-0,048	-0,025
-215,796	-200,000	-0,018	-0,138
-214,782	202,138	0,025	0,028
-213,767	484,998	0,031	-0,053
-212,752	-37,714	0,148	-0,057
-211,738	41,782	-0,034	-0,022
-210,723	155,069	0,012	0,012
-209,709	550,663	-0,052	-0,091
-208,694	-200,000	0,004	0,149
-207,679	218,225	-0,042	-0,049
-206,665	121,001	0,109	0,099
-205,650	-200,000	0,028	0,121
-204,636	132,660	0,161	0,151
-203,621	1,065	-0,082	0,043
-202,606	-86,133	-0,117	-0,026
-201,592	-200,000	-0,004	-0,048
-200,577	-200,000	0,007	-0,040
-199,563	200,764	0,070	-0,079
-198,548	800,000	0,012	0,036
-197,533	-4,895	0,169	0,085
-196,519	-83,196	0,066	0,015
-195,504	132,274	-0,096	-0,091
-194,490	-200,000	-0,013	-0,052
-193,475	191,497	-0,067	0,073
-192,460	-200,000	0,016	-0,084
-191,446	800,000	0,086	-0,200
-190,431	-200,000	-0,017	0,062
-189,417	-11,176	-0,115	0,055
-188,402	-95,487	-0,024	0,005
-187,387	204,547	-0,075	-0,085
-186,373	-200,000	-0,004	-0,121
-185,358	-200,000	-0,010	-0,050
-184,344	-200,000	0,073	0,000
-183,329	100,767	0,062	-0,053
-182,315	-200,000	-0,004	-0,132
-181,300	-119,117	-0,058	0,007
-180,285	-19,038	-0,069	-0,031
-179,271	-105,611	-0,063	0,010
-178,256	277,594	-0,033	-0,042
-177,242	-200,000	0,007	0,160
-176,227	-141,426	-0,098	-0,007
-175,212	154,494	-0,024	0,024
-174,198	44,109	-0,137	-0,091
-173,183	-200,000	0,016	0,084
-172,169	48,258	0,073	0,050
-171,154	-200,000	-0,024	-0,119
-170,139	-88,896	-0,120	-0,026
-169,125	19,216	0,062	-0,036
-168,110	116,394	0,119	0,107
-167,096	584,326	-0,020	-0,036
-166,081	-29,637	0,143	0,059
-165,066	-37,458	-0,121	-0,047
-164,052	-151,155	-0,104	-0,006
-163,037	107,746	0,039	-0,034
-162,023	-25,053	-0,061	0,026
-161,008	565,878	-0,107	0,189
-159,993	68,459	-0,071	0,053
-158,979	40,591	0,015	0,010
-157,964	-200,000	0,008	-0,061
-156,950	202,920	-0,011	-0,013
-155,935	390,756	0,039	-0,059
-154,920	800,000	-0,042	-0,109
-153,906	-200,000	0,049	0,168
-152,891	259,875	0,073	0,092
-151,877	240,161	-0,034	0,041
-150,862	175,928	-0,036	-0,038
-149,847	617,949	-0,060	-0,110
-148,833	158,500	0,087	-0,088
-147,818	-21,906	-0,060	-0,026
-146,804	190,603	-0,055	0,060
-145,789	-82,514	-0,019	-0,005
-144,775	-200,000	0,019	-0,106
-143,760	800,000	-0,016	-0,050
-142,745	-200,000	0,009	-0,163
-141,731	-37,579	0,091	-0,035
-140,716	-200,000	-0,000	0,122
-139,702	153,826	0,027	0,027
-138,687	800,000	0,019	-0,061
-137,672	800,000	0,029	-0,072
-136,658	208,816	-0,033	-0,038
-135,643	-16,046	-0,066	0,030
-134,629	-200,000	-0,017	0,098
-133,614	800,000	0,012	0,030
-132,599	-73,094	0,166	-0,044
-131,585	-26,998	0,027	0,012
-130,570	-9,921	-0,139	-0,067
-129,556	7,385	-0,043	-0,023
-128,541	129,365	0,081	-0,075
-127,526	-200,000	-0,007	-0,047
-126,512	312,663	-0,021	0,029
-125,497	800,000	-0,016	0,033
-124,483	-200,000	-0,010	-0,052
-123,468	265,543	0,052	-0,066
-122,453	236,556	-0,019	0,023
-121,439	800,000	-0,028	0,068
-120,424	43,916	-0,042	-0,028
-119,410	90,116	0,104	-0,084
-118,395	-90,824	0,062	0,013
-117,380	136,202	-0,005	-0,005
-116,366	-200,000	0,012	-0,052
-115,351	-21,989	-0,068	0,030
-114,337	-58,093	0,044	-0,014
-113,322	89,659	-0,106	-0,086
-112,307	61,664	0,054	-0,039
-111,293	-200,000	0,009	0,077
-110,278	54,733	0,170	0,119
-109,264	-200,000	-0,004	0,067
-108,249	-31,596	0,067	0,027
-107,234	100,429	-0,108	-0,091
-106,220	-13,174	0,034	0,016
-105,205	-200,000	0,039	-0,138
-104,191	-1,052	-0,083	0,042
-103,176	800,000	-0,028	0,074
-102,162	-110,998	0,054	-0,008
-101,147	-93,483	-0,089	0,018
-100,132	-200,000	0,030	0,150
-99,118	-91,483	0,045	0,009
-98,103	23,160	-0,163	-0,097
-97,089	138,273	0,039	-0,037
-96,074	81,781	0,047	-0,037
-95,059	259,596	-0,064	-0,080
-94,045	-108,912	-0,105	0,016
-93,030	-200,000	0,004	-0,101
-92,016	398,756	-0,039	-0,059
-91,001	-200,000	-0,007	-0,041
-89,986	-93,356	0,125	-0,025
-88,972	192,543	-0,077	-0,085
-87,957	4,411	0,076	0,040
-86,943	198,971	-0,075	0,084
-85,928	92,617	-0,154	-0,126
-84,913	800,000	0,008	0,021
-83,899	-200,000	-0,018	-0,259
-82,884	704,604	0,025	-0,049
-81,870	79,347	0,073	-0,057
-80,855	210,020	-0,076	-0,086
-79,840	-200,000	-0,014	0,047
-78,826	468,971	0,047	-0,077
-77,811	800,000	0,028	0,062
-76,797	-88,092	-0,072	0,016
-75,782	-136,043	0,064	-0,005
-74,767	-49,603	-0,087	0,030
-73,753	-200,000	-0,044	0,260
-72,738	-103,126	-0,065	-0,011
-71,724	-86,632	-0,022	-0,005
-70,709	-200,000	0,028	0,126
-69,694	-200,000	-0,028	-0,136
-68,680	-200,000	0,004	-0,117
-67,665	-160,615	-0,087	-0,003
-66,651	755,986	0,051	0,102
-65,636	19,394	-0,106	0,062
-64,622	-63,655	-0,176	-0,052
-63,607	-200,000	0,003	-0,037
-62,592	800,000	0,005	0,015
-61,578	-200,000	-0,031	-0,129
-60,563	-83,374	-0,041	0,009
-59,549	99,909	-0,063	0,053
-58,534	-104,277	-1,301	-0,217
-57,519	729,621	-0,730	-1,421
-56,505	-200,000	-0,966	-4,352
-55,490	-58,591	0,689	-0,215
-54,476	800,000	5,030	11,643
-53,461	-200,000	13,927	252,584
-52,446	-200,000	692,424	2239,606
-51,432	576,122	1623,378	2887,041
-50,417	117,728	1633,191	1457,764
-49,403	72,345	1287,219	971,470
-48,388	37,604	1023,186	656,997
-47,373	24,002	981,127	585,304
-46,359	23,170	970,946	576,483
-45,344	22,207	966,412	570,626
-44,330	22,170	965,105	569,710
-43,315	22,029	963,590	568,335
-42,300	22,017	962,641	567,712
-41,286	21,977	961,554	566,921
-40,271	21,986	960,587	566,355
-39,257	21,936	959,806	565,711
-38,242	22,004	958,766	565,296
-37,227	21,999	957,937	564,769
-36,213	21,973	957,075	564,154
-35,198	21,980	956,168	563,619
-34,184	22,058	955,620	563,527
-33,169	21,960	954,658	562,619
-32,154	22,029	953,743	562,280
-31,140	21,988	952,999	561,688
-30,125	22,024	952,143	561,276
-29,111	22,037	951,286	560,791
-28,096	21,996	950,615	560,243
-27,082	22,015	949,860	559,836
-26,067	21,968	949,255	559,307
-25,052	21,959	948,468	558,790
-24,038	21,990	947,750	558,447
-23,023	21,974	947,162	558,027
-22,009	22,039	946,549	557,848
-20,994	21,995	945,871	557,288
-19,979	22,035	945,163	556,975
-18,965	21,979	944,558	556,420
-17,950	21,997	944,018	556,137
-16,936	21,910	943,356	555,448
-15,921	21,941	942,571	555,062
-14,906	21,879	941,882	554,437
-13,892	21,897	941,200	554,070
-12,877	21,890	940,636	553,696
-11,863	21,844	940,141	553,236
-10,848	21,865	939,512	552,909
-9,833	21,940	939,049	552,853
-8,819	21,943	938,402	552,458
-7,804	21,867	937,768	551,824
-6,790	21,874	937,169	551,471
-5,775	21,991	936,340	551,330
-4,760	21,878	935,963	550,732
-3,746	21,848	935,452	550,312
-2,731	21,714	934,751	549,455
-1,717	21,672	933,967	548,843
-0,702	21,670	933,357	548,454
0,313	21,445	932,760	548,223
1,327	24,641	930,506	556,886
2,342	34,229	794,951	501,253
3,356	32,056	451,124	281,160
4,371	1,102	293,983	152,323
5,386	-3,366	274,967	138,228
6,400	-4,558	269,244	134,232
7,415	-5,046	266,943	132,624
8,429	-4,804	265,764	132,248
9,444	-4,860	264,946	131,778
10,459	-4,789	264,285	131,502
11,473	-4,796	263,575	131,130
12,488	-5,112	263,270	130,681
13,502	-5,146	262,815	130,412
14,517	-5,154	262,318	130,147
15,531	-4,948	261,893	130,110
16,546	-4,861	261,580	130,022
17,561	-5,001	261,155	129,673
18,575	-4,811	260,797	129,655
19,590	-4,852	260,399	129,408
20,604	-4,941	260,207	129,221
21,619	-4,986	259,882	129,008
22,634	-4,899	259,573	128,921
23,648	-4,775	259,200	128,835
24,663	-4,852	258,903	128,607
25,677	-4,986	258,794	128,422
26,692	-5,089	258,560	128,203
27,707	-4,819	258,117	128,211
28,721	-4,951	257,936	127,993
29,736	-4,892	257,677	127,905
30,750	-4,934	257,376	127,707
31,765	-4,893	257,037	127,564
32,780	-5,021	257,060	127,451
33,794	-4,924	256,658	127,326
34,809	-4,946	256,552	127,243
35,823	-5,000	256,304	127,061
36,838	-5,043	255,995	126,858
37,853	-5,072	255,768	126,709
38,867	-5,199	255,597	126,501
39,882	-5,080	255,453	126,523
40,896	-5,159	255,249	126,342
41,911	-5,168	255,009	126,204
42,926	-5,095	254,739	126,122
43,940	-5,037	254,423	126,005
44,955	-4,936	254,191	125,968
45,969	-5,228	254,125	125,669
46,984	-5,465	253,867	125,323
47,999	-5,523	253,470	125,065
49,013	-5,640	253,180	124,809
50,028	-5,686	252,976	124,657
51,042	-5,820	252,762	124,425
52,057	-5,779	252,445	124,293
53,071	-5,754	252,342	124,252
54,086	-5,567	252,212	124,340
55,101	-5,554	252,044	124,257
56,115	-5,208	251,907	124,478
57,130	-4,994	251,806	124,602
58,144	-4,875	251,600	124,592
59,159	-4,880	251,357	124,456
60,174	-4,849	251,196	124,392
61,188	-5,020	251,079	124,176
62,203	-4,750	250,739	124,229
63,217	-4,821	250,524	124,050
64,232	-5,032	250,394	123,794
65,247	-4,802	250,205	123,886
66,261	-4,692	249,906	123,822
67,276	-5,162	249,650	123,281
68,290	-5,279	249,461	123,076
69,305	-5,360	249,157	122,847
70,320	-5,264	248,921	122,801
71,334	-5,084	248,947	122,957
72,349	-4,822	248,660	123,027
73,363	-4,956	248,631	122,888
74,378	-4,808	248,125	122,753
75,393	-4,864	248,159	122,711
76,407	-4,829	247,928	122,615
77,422	-5,036	247,819	122,375
78,436	-5,017	247,523	122,234
79,451	-4,896	247,290	122,210
80,466	-5,101	247,192	121,977
81,480	-5,271	246,917	121,687
82,495	-4,896	246,603	121,838
83,509	-5,247	246,482	121,472
84,524	-5,192	246,238	121,387
85,539	-5,387	246,158	121,172
86,553	-5,378	245,937	121,060
87,568	-5,302	245,669	120,981
88,582	-5,077	245,634	121,142
89,597	-5,216	245,307	120,853
90,611	-5,107	245,165	120,864
91,626	-4,915	245,097	120,981
92,641	-5,143	244,892	120,678
93,655	-4,965	244,750	120,746
94,670	-5,050	244,390	120,487
95,684	-5,095	244,360	120,424
96,699	-5,020	243,982	120,289
97,714	-5,005	243,772	120,187
98,728	-4,960	243,524	120,092
99,743	-5,383	243,418	119,677
100,757	-5,215	243,284	119,740
101,772	-5,294	243,209	119,627
102,787	-5,184	242,950	119,580
103,801	-5,080	242,694	119,530
104,816	-4,974	242,513	119,518
105,830	-4,980	242,480	119,486
106,845	-4,716	242,180	119,546
107,860	-4,900	242,036	119,313
108,874	-5,051	241,970	119,144
109,889	-5,193	241,784	118,925
110,903	-5,158	241,463	118,785
111,918	-4,972	241,346	118,870
112,933	-4,982	241,263	118,811
113,947	-4,770	240,863	118,777
114,962	-4,892	240,901	118,685
115,976	-5,054	240,705	118,445
116,991	-4,912	240,506	118,453
118,006	-5,166	240,452	118,207
119,020	-5,127	240,308	118,158
120,035	-5,077	240,222	118,146
121,049	-5,042	239,910	118,010
122,064	-5,102	239,651	117,823
123,079	-5,071	239,455	117,742
124,093	-4,970	239,217	117,697
125,108	-5,109	239,003	117,468
126,122	-5,388	238,895	117,177
127,137	-5,253	238,656	117,159
128,151	-5,512	238,579	116,900
129,166	-5,322	238,431	116,972
130,181	-5,309	238,184	116,851
131,195	-5,156	237,966	116,858
132,210	-5,210	237,911	116,776
133,224	-4,950	237,768	116,907
134,239	-4,966	237,478	116,740
135,254	-5,077	237,285	116,545
136,268	-5,132	237,129	116,414
137,283	-5,296	236,973	116,194
138,297	-5,308	236,753	116,066
139,312	-5,268	236,526	115,977
140,327	-5,208	236,468	115,987
141,341	-4,940	236,525	116,220
142,356	-4,681	236,322	116,318
143,370	-4,684	236,052	116,173
144,385	-4,636	235,919	116,136
145,400	-4,668	235,846	116,065
146,414	-4,876	235,643	115,787
147,429	-4,723	235,383	115,772
148,443	-4,841	235,312	115,631
149,458	-4,601	235,084	115,702
150,473	-4,691	235,011	115,583
151,487	-4,751	234,813	115,427
152,502	-4,818	234,707	115,311
153,516	-4,775	234,496	115,232
154,531	-4,858	234,265	115,042
155,546	-4,767	234,158	115,051
156,560	-4,676	233,913	114,993
157,575	-4,911	233,804	114,743
158,589	-4,863	233,460	114,602
159,604	-5,023	233,379	114,425
160,619	-4,527	233,288	114,764
161,633	-4,751	233,274	114,569
162,648	-4,725	232,963	114,426
163,662	-4,781	232,908	114,345
164,677	-4,932	232,817	114,170
165,692	-4,747	232,661	114,230
166,706	-4,703	232,362	114,108
167,721	-4,554	232,237	114,154
168,735	-4,467	232,076	114,133
169,750	-4,685	231,919	113,873
170,764	-4,836	231,872	113,721
171,779	-4,581	231,607	113,782
172,794	-4,649	231,517	113,674
173,808	-4,661	231,164	113,481
174,823	-5,127	230,890	112,971
175,837	-5,144	230,828	112,918
176,852	-4,936	230,659	112,988
177,867	-4,774	230,674	113,112
178,881	-4,724	230,565	113,088
179,896	-4,589	230,406	113,105
180,910	-4,496	230,166	113,050
181,925	-4,469	229,979	112,969
182,940	-4,620	229,759	112,733
183,954	-4,620	229,787	112,737
184,969	-4,690	229,724	112,641
185,983	-4,731	229,749	112,612
186,998	-4,466	229,332	112,604
188,013	-4,401	228,949	112,456
189,027	-4,547	228,975	112,345
190,042	-4,539	228,885	112,297
191,056	-4,468	228,617	112,211
192,071	-4,385	228,471	112,193
193,086	-4,454	228,313	112,052
194,100	-4,646	228,248	111,862
195,115	-4,972	227,974	111,465
196,129	-5,499	227,534	110,833
197,144	-3,285	228,312	112,917
198,159	0,963	229,396	116,742
199,173	3,656	230,208	119,239
200,188	4,212	230,107	119,607
201,202	4,008	230,052	119,410
202,217	4,489	229,769	119,625
203,232	4,380	229,791	119,542
204,246	4,579	229,574	119,572
205,261	4,651	229,448	119,551
206,275	4,600	229,469	119,512
207,290	4,526	229,308	119,361
208,304	4,896	229,109	119,532
209,319	4,598	228,894	119,179
210,334	4,510	228,768	119,035
211,348	4,502	228,464	118,860
212,363	4,163	228,249	118,477
213,377	3,913	227,921	118,104
214,392	3,799	227,935	118,013
215,407	4,020	227,720	118,061
216,421	4,084	227,709	118,094
217,436	3,917	227,419	117,805
218,450	3,532	227,100	117,335
219,465	3,574	227,009	117,310
220,480	3,588	226,979	117,294
221,494	3,461	226,927	117,160
222,509	3,739	226,742	117,266
223,523	3,824	226,637	117,266
224,538	3,651	226,359	116,980
225,553	3,670	226,274	116,940
226,567	3,901	226,141	117,037
227,582	4,092	226,044	117,122
228,596	4,217	225,937	117,151
229,611	4,075	225,654	116,886
230,626	3,595	225,545	116,454
231,640	3,644	225,335	116,373
232,655	3,839	225,269	116,477
233,669	4,326	225,319	116,861
234,684	4,387	225,211	116,841
235,699	4,264	224,874	116,563
236,713	3,953	224,729	116,242
237,728	3,787	224,555	116,016
238,742	3,844	224,203	115,867
239,757	3,879	224,268	115,917
240,772	3,701	224,114	115,692
241,786	3,676	223,863	115,534
242,801	4,026	223,765	115,736
243,815	4,271	223,861	115,959
244,830	4,089	223,662	115,709
245,844	3,777	223,347	115,302
246,859	3,853	223,214	115,280
247,874	4,001	223,115	115,330
248,888	4,144	223,054	115,395
249,903	3,895	222,908	115,123
250,917	3,900	222,693	115,005
251,932	3,887	222,485	114,877
252,947	3,786	222,239	114,665
253,961	3,824	222,148	114,636
254,976	3,698	222,209	114,564
255,990	4,227	221,882	114,779
257,005	4,164	221,685	114,619
258,020	4,086	221,602	114,509
259,034	4,265	221,539	114,599
260,049	3,960	221,618	114,402
261,063	4,221	221,210	114,376
262,078	4,045	221,171	114,215
263,093	4,216	221,027	114,257
264,107	3,972	220,863	113,982
265,122	4,053	220,860	114,030
266,136	4,179	220,656	114,007
267,151	4,137	220,495	113,883
268,166	3,800	220,150	113,446
269,180	3,626	219,979	113,219
270,195	3,585	219,788	113,081
271,209	3,765	219,783	113,201
272,224	3,819	219,654	113,164
273,239	3,973	219,390	113,131
274,253	3,850	219,426	113,049
275,268	3,481	219,228	112,666
276,282	3,544	218,989	112,579
277,297	3,503	218,830	112,457
278,312	3,634	218,717	112,485
279,326	3,832	218,582	112,550
280,341	3,873	218,442	112,498
281,355	4,034	218,323	112,545
282,370	3,770	218,228	112,293
283,384	3,686	217,984	112,096
284,399	3,538	217,835	111,902
285,414	3,427	217,680	111,731
286,428	3,786	217,693	111,990
287,443	3,799	217,673	111,979
288,457	3,949	217,418	111,946
289,472	3,799	217,269	111,751
290,487	3,226	216,972	111,172
291,501	3,202	216,811	111,062
292,516	3,288	216,631	111,022
293,530	3,252	216,504	110,921
294,545	3,330	216,348	110,888
295,560	3,885	216,312	111,261
296,574	3,812	216,259	111,171
297,589	3,884	216,222	111,194
298,603	3,779	216,192	111,093
299,618	3,916	215,785	110,973
300,633	3,950	215,680	110,934
301,647	3,961	215,741	110,963
302,662	4,164	215,397	110,922
303,676	4,105	215,323	110,832
304,691	4,083	215,194	110,740
305,706	4,136	215,005	110,671
306,720	4,095	214,911	110,583
307,735	4,008	214,786	110,447
308,749	3,991	214,498	110,276
309,764	4,037	214,475	110,288
310,779	4,105	214,425	110,301
311,793	3,883	214,338	110,087
312,808	3,911	214,108	109,979
313,822	3,952	213,984	109,935
314,837	3,888	213,740	109,754
315,852	3,942	213,442	109,630
316,866	3,615	213,490	109,411
317,881	3,967	213,418	109,615
318,895	4,142	213,170	109,604
319,910	3,741	213,112	109,278
320,925	3,379	212,922	108,914
321,939	3,193	212,700	108,658
322,954	3,235	212,546	108,600
323,968	3,638	212,624	108,916
324,983	4,055	212,471	109,124
325,997	4,068	212,435	109,104
327,012	4,061	212,164	108,951
328,027	3,929	212,042	108,785
329,041	4,144	212,021	108,916
330,056	4,172	211,844	108,836
331,070	3,901	211,573	108,495
332,085	3,516	211,420	108,136
333,100	3,517	211,470	108,153
334,114	3,970	211,147	108,297
335,129	3,909	210,994	108,166
336,143	3,946	210,817	108,091
337,158	4,046	210,890	108,189
338,173	3,633	210,716	107,801
339,187	3,451	210,515	107,560
340,202	3,619	210,272	107,544
341,216	3,704	210,199	107,557
342,231	3,658	210,142	107,486
343,246	3,617	209,894	107,320
344,260	3,619	209,853	107,292
345,275	3,523	209,677	107,125
346,289	3,971	209,587	107,382
347,304	3,660	209,509	107,116
348,319	3,826	209,397	107,165
349,333	3,841	209,217	107,073
350,348	4,082	209,048	107,145
351,362	3,995	209,082	107,093
352,377	4,134	208,853	107,063
353,392	3,949	208,811	106,903
354,406	3,670	208,746	106,666
355,421	193,454	1344,581	1430,527
356,435	154,349	1483,062	1430,634
