DTS Sentinel unit serial number:	SN410029Multiplexer serial number:	ORYXHardware model number:	OX2-SRSoftware version number:	ORYX F/W v4,00 Oryx Data Collector v3.7.2.0data status	okinstallation	B6 Nyhavnadifferential loss correction	single-endedforward channel	channel 2reverse channel	N/Adate	2023/12/08time	19:35:08forward acquisition time	300,00reverse acquisition time	0,00gamma	499,1914k internal	0,3158k external	0,3158temperature offset calibration	1,0000default loss term (dB/km)	0,3820temperature slope calibration	1,0000multiplexer offset coefficient	1,0000multiplexer slope coefficient	1,0000fibre end	0,00T internal ref (°C)	15,25T ext. ref 1 (°C)	-1,42T ext. ref 2 (°C)	-1,39length (m)	temperature (°C)	Stokes	anti-Stokes-744,400	-177,333	0,151	0,003
-743,385	-144,850	-0,238	-0,016
-742,371	54,344	0,124	0,088
-741,356	-67,847	-0,288	0,083
-740,342	172,402	0,087	0,093
-739,327	-27,950	-0,407	-0,173
-738,312	90,233	-0,053	-0,044
-737,298	-96,012	-0,404	-0,078
-736,283	216,125	0,091	0,107
-735,269	15,382	-0,261	0,150
-734,254	29,355	0,165	-0,103
-733,239	-126,625	-0,475	-0,051
-732,225	58,578	0,087	0,063
-731,210	174,811	0,009	0,010
-730,196	-200,000	0,007	-0,093
-729,181	800,000	-0,035	-0,110
-728,167	178,947	-0,036	-0,039
-727,152	-21,893	-0,054	0,024
-726,137	218,557	0,035	-0,041
-725,123	-130,702	0,007	-0,001
-724,108	110,655	0,032	-0,028
-723,094	-200,000	-0,004	-0,147
-722,079	-34,764	0,036	-0,014
-721,064	-53,474	-0,044	-0,015
-720,050	1,046	0,021	-0,011
-719,035	181,750	-0,081	-0,088
-718,021	-13,752	-0,086	0,041
-717,006	-200,000	-0,015	0,097
-715,991	-200,000	-0,027	-0,109
-714,977	800,000	-0,044	-0,133
-713,962	397,997	-0,044	-0,069
-712,948	-97,850	0,033	0,006
-711,933	-9,257	-0,047	0,023
-710,918	-200,000	-0,003	0,060
-709,904	-119,627	-0,153	-0,019
-708,889	-14,838	0,026	-0,012
-707,875	446,824	-0,024	0,039
-706,860	800,000	-0,037	0,093
-705,845	705,583	-0,090	0,176
-704,831	-200,000	0,000	0,049
-703,816	-200,000	-0,011	0,077
-702,802	-64,250	-0,148	0,044
-701,787	-200,000	-0,008	-0,068
-700,772	-200,000	-0,020	-0,091
-699,758	281,192	0,040	-0,053
-698,743	800,000	0,008	0,024
-697,729	570,981	0,066	-0,118
-696,714	-200,000	0,002	-0,099
-695,699	8,849	0,042	0,023
-694,685	-200,000	0,002	0,028
-693,670	-34,573	0,075	-0,030
-692,656	137,823	0,063	-0,061
-691,641	-22,193	-0,033	0,015
-690,627	-4,912	-0,028	-0,014
-689,612	105,055	0,095	-0,082
-688,597	304,158	-0,120	0,164
-687,583	127,054	0,098	-0,091
-686,568	432,090	-0,060	0,097
-685,554	-200,000	0,041	0,146
-684,539	-200,000	0,023	0,092
-683,524	-200,000	-0,063	0,204
-682,510	-75,999	0,092	-0,024
-681,495	800,000	0,040	0,097
-680,481	-200,000	0,027	-0,087
-679,466	-66,713	-0,076	0,022
-678,451	-200,000	-0,010	-0,170
-677,437	800,000	-0,014	0,034
-676,422	-103,646	-0,096	0,016
-675,408	10,046	-0,031	-0,017
-674,393	800,000	0,027	0,061
-673,378	-200,000	-0,054	-0,196
-672,364	-156,089	-0,096	-0,004
-671,349	-200,000	-0,014	-0,087
-670,335	-126,497	-0,104	0,011
-669,320	469,477	0,021	0,035
-668,305	142,495	0,102	0,099
-667,291	10,232	-0,029	-0,016
-666,276	90,746	-0,123	0,101
-665,262	48,318	0,106	-0,073
-664,247	226,116	-0,051	-0,061
-663,232	-157,117	0,153	-0,007
-662,218	-200,000	0,000	0,011
-661,203	24,612	-0,047	0,028
-660,189	-200,000	0,027	0,105
-659,174	-184,532	-0,017	0,000
-658,159	-104,681	-0,056	0,009
-657,145	35,611	-0,066	-0,043
-656,130	-64,122	0,056	-0,017
-655,116	-200,000	0,003	-0,015
-654,101	454,598	-0,053	-0,087
-653,086	163,291	-0,039	-0,041
-652,072	-34,269	-0,049	0,020
-651,057	684,445	-0,113	-0,218
-650,043	-155,880	-0,013	0,001
-649,028	97,542	-0,060	-0,051
-648,014	-23,074	0,005	-0,002
-646,999	-182,697	0,048	0,001
-645,984	-26,389	-0,199	0,086
-644,970	-200,000	-0,006	-0,078
-643,955	-200,000	0,020	0,106
-642,941	-131,245	-0,121	-0,012
-641,926	-94,345	0,026	-0,005
-640,911	-200,000	0,000	0,114
-639,897	-200,000	-0,013	0,173
-638,882	-200,000	0,008	0,083
-637,868	-56,312	0,105	0,034
-636,853	-200,000	0,004	0,015
-635,838	39,401	-0,116	-0,076
-634,824	-129,896	0,105	-0,010
-633,809	-200,000	-0,008	0,093
-632,795	-200,000	0,036	0,125
-631,780	-118,529	0,031	0,004
-630,765	800,000	0,064	-0,134
-629,751	800,000	-0,015	-0,037
-628,736	-34,662	-0,098	-0,039
-627,722	-90,439	-0,070	0,015
-626,707	73,825	-0,075	-0,057
-625,692	37,091	0,058	0,038
-624,678	-42,866	-0,095	0,035
-623,663	-2,292	0,092	0,047
-622,649	-53,885	-0,059	-0,020
-621,634	201,464	-0,073	-0,083
-620,619	6,196	-0,052	0,028
-619,605	-200,000	0,151	-0,000
-618,590	61,786	-0,053	0,039
-617,576	121,092	0,103	0,094
-616,561	184,505	-0,069	-0,075
-615,546	76,417	-0,097	-0,075
-614,532	-200,000	0,023	-0,120
-613,517	580,082	0,060	0,108
-612,503	-72,540	0,064	-0,017
-611,488	-61,692	0,108	0,033
-610,474	249,190	-0,074	0,093
-609,459	-139,441	-0,061	0,005
-608,444	800,000	0,056	-0,124
-607,430	800,000	-0,053	-0,124
-606,415	-200,000	0,001	-0,036
-605,401	-50,981	-0,057	-0,020
-604,386	64,300	0,200	0,148
-603,371	216,973	0,038	-0,044
-602,357	-110,018	-0,048	0,007
-601,342	-200,000	0,007	-0,056
-600,328	273,472	0,076	-0,099
-599,313	138,660	-0,020	-0,020
-598,298	503,579	0,058	-0,098
-597,284	-34,861	0,079	-0,032
-596,269	12,880	0,035	-0,020
-595,255	-147,268	0,189	0,012
-594,240	-200,000	0,006	-0,090
-593,225	-200,000	-0,004	-0,230
-592,211	88,265	-0,077	-0,063
-591,196	-144,167	0,164	0,011
-590,182	129,086	0,075	-0,070
-589,167	67,141	0,085	0,063
-588,152	187,767	-0,083	-0,091
-587,138	4,593	-0,067	-0,036
-586,123	800,000	-0,013	0,036
-585,109	81,137	0,071	0,056
-584,094	-41,925	-0,033	0,013
-583,079	-102,940	0,091	-0,016
-582,065	-200,000	0,023	-0,114
-581,050	-98,612	0,074	-0,014
-580,036	-118,235	-0,090	0,012
-579,021	800,000	-0,040	-0,118
-578,006	710,953	-0,076	-0,147
-576,992	-130,890	0,049	-0,005
-575,977	-200,000	-0,031	0,115
-574,963	-198,221	0,089	0,000
-573,948	-200,000	-0,029	0,101
-572,934	60,129	0,048	0,035
-571,919	-117,178	-0,184	-0,024
-570,904	-7,932	-0,128	-0,063
-569,890	-118,479	0,057	-0,007
-568,875	621,784	-0,066	0,121
-567,861	102,594	0,096	0,082
-566,846	-78,615	-0,015	0,004
-565,831	-200,000	0,013	-0,074
-564,817	71,542	0,079	0,060
-563,802	167,116	-0,029	0,030
-562,788	800,000	0,019	-0,055
-561,773	-29,200	-0,115	-0,048
-560,758	795,887	-0,060	-0,122
-559,744	567,405	-0,031	-0,055
-558,729	82,520	0,040	-0,032
-557,715	-15,411	-0,055	-0,026
-556,700	-200,000	-0,037	0,212
-555,685	-200,000	-0,034	0,188
-554,671	-171,394	0,039	-0,001
-553,656	-186,773	0,067	-0,001
-552,642	800,000	0,052	0,129
-551,627	-26,303	0,024	-0,010
-550,612	30,782	0,110	-0,069
-549,598	-28,644	-0,144	-0,060
-548,583	462,575	-0,038	-0,062
-547,569	8,367	-0,090	0,049
-546,554	-200,000	-0,015	0,067
-545,539	-151,571	0,098	-0,005
-544,525	-200,000	-0,002	-0,043
-543,510	-200,000	0,006	0,079
-542,496	-150,749	0,033	-0,002
-541,481	375,795	-0,040	-0,061
-540,466	-200,000	-0,011	-0,101
-539,452	-200,000	0,031	0,223
-538,437	-72,281	0,125	0,034
-537,423	-200,000	-0,001	-0,009
-536,408	140,330	-0,084	-0,081
-535,393	351,385	-0,078	0,113
-534,379	-60,946	0,050	-0,016
-533,364	800,000	-0,022	-0,050
-532,350	248,335	0,039	-0,048
-531,335	-200,000	-0,010	0,157
-530,321	7,473	-0,191	0,104
-529,306	-200,000	0,014	-0,046
-528,291	-200,000	-0,016	-0,081
-527,277	18,047	-0,074	0,043
-526,262	-70,426	0,050	-0,014
-525,248	-78,671	-0,060	0,015
-524,233	-200,000	0,010	0,035
-523,218	62,812	0,073	0,053
-522,204	240,665	0,047	-0,058
-521,189	327,995	-0,065	0,091
-520,175	-200,000	-0,001	0,033
-519,160	207,638	0,054	0,062
-518,145	-23,727	0,018	-0,008
-517,131	-79,766	-0,073	0,018
-516,116	-57,747	0,136	0,043
-515,102	-121,976	-0,043	0,005
-514,087	-200,000	-0,017	-0,057
-513,072	262,447	-0,016	-0,020
-512,058	656,780	0,035	-0,067
-511,043	-65,407	-0,113	0,033
-510,029	-57,837	0,032	0,010
-509,014	-32,137	0,014	-0,006
-507,999	11,357	0,056	-0,031
-506,985	-174,609	-0,022	-0,000
-505,970	-190,574	-0,105	0,001
-504,956	-108,514	0,196	-0,030
-503,941	-44,379	0,042	-0,015
-502,926	174,905	-0,040	0,043
-501,912	-68,466	0,070	-0,020
-500,897	-73,317	0,064	0,017
-499,883	-143,844	-0,120	-0,008
-498,868	-200,000	-0,023	-0,108
-497,853	104,115	-0,079	-0,068
-496,839	800,000	-0,054	-0,137
-495,824	-174,672	-0,099	-0,002
-494,810	-100,023	0,022	0,004
-493,795	-200,000	0,007	-0,038
-492,781	-95,468	-0,063	0,012
-491,766	-200,000	0,028	-0,115
-490,751	57,138	0,107	-0,076
-489,737	-200,000	0,009	0,163
-488,722	68,983	-0,030	0,023
-487,708	456,104	-0,058	0,094
-486,693	108,688	0,044	-0,038
-485,678	-200,000	-0,033	-0,153
-484,664	211,490	-0,052	-0,060
-483,649	125,937	0,039	-0,036
-482,635	232,156	-0,019	0,023
-481,620	-79,618	0,138	-0,034
-480,605	-200,000	0,001	-0,016
-479,591	341,678	0,064	0,092
-478,576	800,000	0,027	0,055
-477,562	12,916	-0,059	-0,033
-476,547	800,000	0,011	-0,023
-475,532	-200,000	0,033	-0,134
-474,518	432,283	0,031	0,049
-473,503	226,331	-0,030	0,036
-472,489	-200,000	0,005	-0,042
-471,474	-200,000	0,003	-0,087
-470,459	-20,432	0,150	-0,067
-469,445	-75,957	-0,241	-0,062
-468,430	280,427	-0,068	-0,088
-467,416	-9,208	0,102	0,049
-466,401	800,000	0,007	0,019
-465,386	-16,897	0,053	-0,024
-464,372	12,849	-0,079	-0,044
-463,357	176,305	0,118	0,125
-462,343	-200,000	-0,012	-0,078
-461,328	-200,000	0,000	-0,058
-460,313	800,000	0,011	-0,024
-459,299	-77,715	0,011	0,003
-458,284	63,820	-0,043	0,031
-457,270	758,400	0,036	-0,072
-456,255	-200,000	-0,012	-0,089
-455,241	-56,915	-0,100	0,032
-454,226	-168,290	-0,156	0,004
-453,211	445,854	0,035	0,057
-452,197	148,785	0,154	0,152
-451,182	7,904	-0,026	0,014
-450,168	-200,000	0,038	-0,126
-449,153	207,796	-0,036	0,041
-448,138	153,840	-0,064	0,064
-447,124	800,000	-0,060	-0,165
-446,109	193,520	0,060	-0,067
-445,095	260,737	-0,088	-0,111
-444,080	355,177	0,064	0,094
-443,065	573,961	0,054	0,096
-442,051	151,573	-0,044	-0,044
-441,036	-32,522	0,042	-0,017
-440,022	-200,000	0,010	-0,075
-439,007	-200,000	0,014	0,092
-437,992	54,896	-0,187	0,131
-436,978	-200,000	-0,007	-0,118
-435,963	-200,000	0,002	-0,064
-434,949	-200,000	0,013	0,064
-433,934	800,000	-0,008	0,020
-432,919	-38,888	-0,127	-0,049
-431,905	-110,549	0,035	-0,005
-430,890	720,595	0,047	-0,091
-429,876	-200,000	-0,012	0,067
-428,861	38,071	-0,103	-0,066
-427,846	86,209	0,182	0,146
-426,832	388,330	0,053	0,079
-425,817	800,000	-0,043	-0,087
-424,803	-109,369	-0,129	0,020
-423,788	-200,000	0,004	0,160
-422,773	268,086	-0,017	-0,022
-421,759	800,000	0,009	-0,022
-420,744	800,000	0,049	0,103
-419,730	-102,792	-0,045	-0,008
-418,715	-146,395	-0,165	0,010
-417,701	-115,832	0,042	-0,006
-416,686	741,282	0,051	0,100
-415,671	791,770	-0,027	0,054
-414,657	-10,136	0,067	0,032
-413,642	-98,340	-0,108	-0,020
-412,628	-58,125	0,084	0,027
-411,613	2,367	-0,049	-0,026
-410,598	-90,779	-0,050	-0,010
-409,584	-138,841	0,099	0,008
-408,569	190,132	0,087	0,096
-407,555	521,955	0,056	0,096
-406,540	231,900	-0,089	0,107
-405,525	-200,000	-0,002	0,075
-404,511	336,310	0,050	-0,071
-403,496	560,984	0,016	-0,027
-402,482	28,364	0,043	-0,026
-401,467	76,834	0,067	-0,051
-400,452	162,901	0,029	0,029
-399,438	-80,318	0,047	-0,011
-398,423	-3,510	-0,159	-0,080
-397,409	800,000	-0,027	-0,084
-396,394	800,000	0,027	-0,055
-395,379	634,762	-0,070	0,130
-394,365	800,000	0,015	0,048
-393,350	-121,986	0,158	-0,019
-392,336	-3,668	0,085	-0,043
-391,321	-200,000	0,012	-0,052
-390,306	800,000	-0,046	-0,115
-389,292	348,029	-0,039	-0,056
-388,277	28,856	0,065	-0,040
-387,263	-38,095	0,082	-0,031
-386,248	78,316	-0,159	0,123
-385,233	221,970	0,095	0,111
-384,219	76,787	0,060	0,046
-383,204	519,588	0,051	-0,086
-382,190	320,936	0,077	0,106
-381,175	-200,000	-0,004	-0,025
-380,160	23,847	0,114	-0,068
-379,146	294,111	0,053	-0,070
-378,131	-109,075	0,101	0,015
-377,117	-200,000	-0,001	-0,039
-376,102	-76,528	-0,015	-0,004
-375,088	59,149	-0,117	0,084
-374,073	-141,145	0,165	-0,012
-373,058	23,191	-0,064	0,038
-372,044	-159,091	-0,114	-0,005
-371,029	800,000	-0,040	0,124
-370,015	37,608	0,176	0,113
-369,000	-52,341	-0,019	-0,006
-367,985	198,241	0,119	-0,133
-366,971	-95,549	0,110	-0,021
-365,956	-200,000	0,022	0,095
-364,942	-38,753	0,091	0,035
-363,927	77,091	-0,130	0,100
-362,912	-40,867	-0,060	0,022
-361,898	577,424	-0,064	-0,114
-360,883	73,680	-0,026	-0,019
-359,869	800,000	-0,017	-0,043
-358,854	9,997	-0,007	-0,004
-357,839	469,168	0,109	-0,178
-356,825	800,000	-0,012	0,032
-355,810	18,572	-0,154	0,089
-354,796	377,676	-0,071	-0,106
-353,781	-200,000	-0,019	-0,085
-352,766	93,927	-0,075	-0,062
-351,752	97,541	-0,030	0,025
-350,737	800,000	0,046	-0,108
-349,723	1,013	0,146	0,076
-348,708	800,000	-0,022	0,068
-347,693	-67,514	-0,088	0,025
-346,679	152,944	-0,060	-0,060
-345,664	800,000	-0,064	0,136
-344,650	62,935	-0,085	-0,061
-343,635	197,243	0,100	0,111
-342,620	800,000	0,082	0,203
-341,606	388,189	-0,036	0,054
-340,591	92,432	0,045	0,036
-339,577	-200,000	-0,028	-0,143
-338,562	-48,012	-0,088	0,031
-337,548	-108,678	0,042	-0,007
-336,533	-133,660	0,110	-0,010
-335,518	34,563	-0,060	0,038
-334,504	76,439	-0,131	0,100
-333,489	-121,015	-0,116	-0,014
-332,475	51,731	0,125	-0,086
-331,460	-44,647	-0,045	0,016
-330,445	-114,547	0,175	0,024
-329,431	-200,000	-0,008	0,072
-328,416	-200,000	0,136	-0,000
-327,402	17,667	0,133	0,076
-326,387	334,038	0,029	-0,041
-325,372	800,000	-0,030	0,065
-324,358	117,108	0,081	-0,072
-323,343	239,244	0,050	0,060
-322,329	-76,931	-0,194	-0,049
-321,314	22,717	-0,130	0,077
-320,299	599,010	0,027	0,050
-319,285	-144,612	0,032	0,002
-318,270	110,654	-0,029	-0,025
-317,256	-50,033	-0,109	-0,037
-316,241	800,000	0,081	-0,237
-315,226	800,000	0,015	0,037
-314,212	234,302	0,034	-0,040
-313,197	-69,048	0,048	0,013
-312,183	-200,000	-0,002	0,011
-311,168	-26,702	-0,094	0,040
-310,153	800,000	-0,039	-0,102
-309,139	-31,369	-0,068	0,028
-308,124	-200,000	-0,021	0,079
-307,110	-30,623	0,131	-0,054
-306,095	-200,000	0,003	0,095
-305,080	353,492	-0,007	0,011
-304,066	10,909	-0,094	-0,052
-303,051	-200,000	-0,020	-0,123
-302,037	103,952	-0,105	-0,090
-301,022	101,379	-0,029	0,025
-300,008	-150,603	0,044	-0,002
-298,993	-102,781	-0,135	-0,023
-297,978	97,062	0,068	0,056
-296,964	133,324	0,034	-0,032
-295,949	114,730	-0,072	-0,064
-294,935	800,000	0,059	-0,120
-293,920	712,713	0,004	-0,008
-292,905	-200,000	0,020	0,147
-291,891	-200,000	0,003	0,125
-290,876	264,986	0,051	-0,065
-289,862	-126,520	-0,092	-0,010
-288,847	163,504	0,056	-0,057
-287,832	-59,936	-0,045	-0,014
-286,818	-28,861	-0,030	0,012
-285,803	85,411	0,044	0,035
-284,789	-200,000	0,000	0,047
-283,774	-200,000	0,006	0,031
-282,759	-41,384	0,016	-0,006
-281,745	82,087	0,009	-0,007
-280,730	39,761	-0,062	-0,040
-279,716	208,726	-0,018	-0,020
-278,701	-53,463	0,106	0,035
-277,686	493,756	0,035	0,059
-276,672	-200,000	0,008	-0,123
-275,657	205,259	0,081	-0,091
-274,643	-200,000	0,014	-0,133
-273,628	-158,027	-0,088	-0,004
-272,613	800,000	-0,076	0,198
-271,599	99,904	0,055	-0,046
-270,584	216,997	0,093	-0,107
-269,570	179,523	0,049	0,052
-268,555	356,778	-0,066	0,096
-267,540	2,321	-0,070	-0,037
-266,526	-49,702	-0,023	0,008
-265,511	-23,343	0,067	0,029
-264,497	800,000	0,019	-0,051
-263,482	454,264	0,044	0,071
-262,467	55,431	0,088	0,061
-261,453	-200,000	0,016	0,129
-260,438	-94,074	0,081	0,016
-259,424	-103,063	0,102	-0,017
-258,409	602,008	-0,095	-0,171
-257,395	800,000	0,019	0,042
-256,380	800,000	-0,046	-0,111
-255,365	-175,576	0,058	-0,001
-254,351	800,000	-0,010	0,028
-253,336	-200,000	-0,019	0,084
-252,322	18,592	0,117	0,068
-251,307	72,699	0,171	0,129
-250,292	247,804	-0,085	0,105
-249,278	31,699	0,022	0,013
-248,263	-147,142	-0,106	0,006
-247,249	-73,089	-0,064	-0,017
-246,234	7,112	0,049	0,026
-245,219	-26,972	-0,075	-0,031
-244,205	177,499	0,053	0,056
-243,190	3,162	-0,032	-0,017
-242,176	379,894	0,048	-0,071
-241,161	292,200	0,006	-0,008
-240,146	270,094	-0,130	0,165
-239,132	-1,870	-0,052	0,026
-238,117	800,000	-0,018	-0,050
-237,103	138,446	-0,077	0,073
-236,088	800,000	-0,006	-0,013
-235,073	388,505	0,053	0,079
-234,059	-164,141	0,015	-0,000
-233,044	-200,000	-0,013	0,054
-232,030	93,285	0,052	0,042
-231,015	501,143	0,031	-0,052
-230,000	635,206	-0,065	0,120
-228,986	-83,243	0,195	0,045
-227,971	426,229	0,036	0,056
-226,957	-200,000	0,027	0,130
-225,942	-10,840	0,061	-0,029
-224,927	-52,737	-0,041	-0,014
-223,913	-23,477	-0,012	-0,005
-222,898	-183,094	0,088	-0,001
-221,884	333,575	0,041	0,057
-220,869	-92,881	0,099	-0,020
-219,855	-200,000	-0,013	0,099
-218,840	-200,000	0,005	0,062
-217,825	262,900	0,033	0,042
-216,811	-200,000	-0,057	0,194
-215,796	800,000	0,052	0,123
-214,782	800,000	-0,020	-0,043
-213,767	800,000	0,042	-0,089
-212,752	248,376	-0,058	-0,071
-211,738	-200,000	-0,001	0,109
-210,723	-200,000	-0,002	0,046
-209,709	99,186	-0,106	0,088
-208,694	454,956	0,099	-0,158
-207,679	37,446	-0,067	0,043
-206,665	365,153	0,034	-0,050
-205,650	-130,721	0,109	-0,010
-204,636	204,491	0,010	-0,011
-203,621	436,570	-0,021	0,033
-202,606	434,075	-0,049	-0,077
-201,592	800,000	-0,020	-0,063
-200,577	-23,295	-0,117	0,051
-199,563	121,077	-0,035	0,032
-198,548	-67,026	0,142	-0,040
-197,533	-200,000	0,026	-0,144
-196,519	41,976	0,106	-0,069
-195,504	168,999	-0,040	-0,041
-194,490	-51,648	0,106	-0,035
-193,475	628,555	0,017	-0,031
-192,460	151,797	0,008	0,008
-191,446	242,960	-0,057	-0,069
-190,431	290,325	0,014	0,018
-189,417	141,509	0,088	-0,084
-188,402	449,702	0,032	0,051
-187,387	54,584	-0,044	-0,030
-186,373	800,000	-0,045	-0,125
-185,358	88,453	-0,075	-0,060
-184,344	800,000	0,088	0,207
-183,329	152,598	0,047	0,046
-182,315	800,000	0,031	-0,090
-181,300	-3,193	-0,062	0,031
-180,285	25,643	-0,112	0,067
-179,271	-143,004	-0,040	0,003
-178,256	-200,000	-0,001	-0,098
-177,242	-19,408	-0,103	0,046
-176,227	800,000	0,033	0,077
-175,212	6,913	-0,070	0,038
-174,198	-5,355	-0,096	0,047
-173,183	-198,917	-0,045	-0,000
-172,169	140,350	0,130	-0,123
-171,154	332,743	-0,059	-0,083
-170,139	-101,429	-0,039	0,007
-169,125	58,016	-0,146	-0,103
-168,110	-74,211	-0,100	-0,026
-167,096	166,639	-0,019	-0,020
-166,081	-200,000	-0,007	-0,038
-165,066	-97,275	-0,065	0,012
-164,052	800,000	-0,042	-0,116
-163,037	-21,514	-0,100	0,044
-162,023	186,014	-0,052	-0,056
-161,008	-200,000	0,007	0,058
-159,993	366,811	-0,073	0,107
-158,979	-169,417	0,048	-0,001
-157,964	293,212	0,045	-0,059
-156,950	145,023	-0,111	-0,107
-155,935	511,189	0,038	0,063
-154,920	-200,000	0,013	-0,094
-153,906	310,993	-0,013	0,018
-152,891	-28,097	-0,118	-0,049
-151,877	-17,394	-0,086	-0,039
-150,862	330,424	-0,095	-0,132
-149,847	403,178	-0,083	-0,127
-148,833	-98,871	0,075	0,014
-147,818	-200,000	0,007	-0,097
-146,804	-65,632	0,063	0,018
-145,789	36,682	-0,079	-0,050
-144,775	559,618	0,040	0,070
-143,760	-200,000	-0,001	-0,056
-142,745	-200,000	-0,038	-0,176
-141,731	-72,581	0,107	0,028
-140,716	-200,000	0,016	0,080
-139,702	-88,768	0,087	0,019
-138,687	-12,708	0,050	-0,024
-137,672	145,282	-0,159	-0,154
-136,658	-200,000	-0,008	-0,069
-135,643	12,184	-0,096	-0,053
-134,629	208,024	-0,032	-0,036
-133,614	-200,000	-0,012	-0,049
-132,599	743,641	0,042	-0,082
-131,585	100,960	0,054	0,046
-130,570	21,322	-0,053	0,031
-129,556	-200,000	-0,004	0,042
-128,541	800,000	-0,023	-0,064
-127,526	98,830	0,102	-0,085
-126,512	95,435	-0,023	0,019
-125,497	-119,844	0,213	-0,026
-124,483	652,608	0,054	0,100
-123,468	428,111	0,061	-0,095
-122,453	-200,000	-0,003	-0,150
-121,439	14,611	-0,055	-0,031
-120,424	-33,448	-0,094	0,037
-119,410	-41,788	0,018	0,007
-118,395	128,630	0,040	0,037
-117,380	9,107	0,063	0,034
-116,366	-158,399	0,125	0,005
-115,351	46,726	0,065	-0,043
-114,337	-98,618	-0,095	0,017
-113,322	-105,488	-0,105	-0,017
-112,307	-131,577	0,078	-0,007
-111,293	-200,000	-0,027	0,147
-110,278	-200,000	0,009	0,130
-109,264	-97,514	0,070	-0,013
-108,249	-89,875	-0,140	-0,029
-107,234	-200,000	0,008	-0,055
-106,220	-18,907	-0,032	-0,014
-105,205	417,848	0,106	0,163
-104,191	-6,195	0,115	0,056
-103,176	-200,000	-0,010	0,075
-102,162	-200,000	0,022	0,085
-101,147	-142,390	0,075	-0,005
-100,132	800,000	-0,035	0,069
-99,118	21,513	0,084	0,049
-98,103	-200,000	-0,121	0,000
-97,089	-95,375	0,081	0,016
-96,074	800,000	0,055	0,111
-95,059	-200,000	-0,014	0,100
-94,045	800,000	0,050	0,115
-93,030	580,607	0,029	-0,052
-92,016	14,169	-0,050	-0,028
-91,001	119,715	-0,036	0,032
-89,986	-200,000	-0,014	-0,063
-88,972	-200,000	0,024	0,112
-87,957	225,616	-0,046	0,054
-86,943	-200,000	0,016	0,088
-85,928	27,479	-0,070	0,042
-84,913	-6,112	0,073	-0,036
-83,899	-21,126	-0,079	-0,035
-82,884	-200,000	-0,008	0,080
-81,870	-200,000	0,001	-0,018
-80,855	6,832	0,038	0,020
-79,840	-200,000	0,019	0,078
-78,826	133,010	-0,099	-0,091
-77,811	704,719	-0,025	-0,048
-76,797	-200,000	0,006	-0,038
-75,782	-61,398	0,138	-0,041
-74,767	800,000	0,006	-0,020
-73,753	6,555	0,085	-0,045
-72,738	800,000	0,023	-0,074
-71,724	-139,033	-0,128	-0,010
-70,709	800,000	-0,049	-0,135
-69,694	800,000	-0,014	0,035
-68,680	-126,874	0,029	0,003
-67,665	337,973	0,019	0,026
-66,651	-72,342	0,046	-0,012
-65,636	106,750	0,047	0,040
-64,622	551,677	-0,067	-0,116
-63,607	103,201	-0,065	0,054
-62,592	169,211	0,097	0,099
-61,578	-200,000	-0,012	0,064
-60,563	-200,000	-0,012	0,137
-59,549	73,609	-0,115	0,086
-58,534	18,270	-1,954	-1,117
-57,519	800,000	-0,245	-0,774
-56,505	-200,000	-1,360	-4,861
-55,490	114,437	0,714	0,624
-54,476	800,000	5,233	11,908
-53,461	-200,000	17,743	289,823
-52,446	800,000	726,443	2230,474
-51,432	536,851	1639,461	2804,579
-50,417	109,659	1629,359	1401,155
-49,403	73,307	1283,328	962,425
-48,388	31,569	1026,144	631,700
-47,373	19,906	988,306	569,982
-46,359	18,272	976,219	557,637
-45,344	15,554	972,389	546,543
-44,330	15,805	970,762	546,428
-43,315	15,292	969,079	543,785
-42,300	15,253	968,054	543,059
-41,286	15,245	966,859	542,343
-40,271	15,255	966,021	541,882
-39,257	15,302	965,146	541,522
-38,242	15,298	964,240	540,982
-37,227	15,286	963,485	540,498
-36,213	15,283	962,556	539,946
-35,198	15,267	961,615	539,344
-34,184	15,326	961,013	539,176
-33,169	15,274	960,159	538,507
-32,154	15,305	959,085	537,984
-31,140	15,292	958,268	537,461
-30,125	15,253	957,550	536,911
-29,111	15,294	956,553	536,463
-28,096	15,314	956,091	536,247
-27,082	15,246	955,553	535,706
-26,067	15,261	954,480	535,132
-25,052	15,247	953,918	534,750
-24,038	15,307	952,996	534,404
-23,023	15,271	952,590	534,041
-22,009	15,259	952,009	533,656
-20,994	15,314	951,255	533,387
-19,979	15,310	950,621	532,997
-18,965	15,291	949,936	532,531
-17,950	15,277	949,304	532,110
-16,936	15,229	948,798	531,654
-15,921	15,224	948,104	531,227
-14,906	15,152	947,516	530,647
-13,892	15,170	946,610	530,176
-12,877	15,195	945,990	529,887
-11,863	15,143	945,510	529,433
-10,848	15,173	944,955	529,197
-9,833	15,300	944,351	529,239
-8,819	15,233	943,897	528,751
-7,804	15,189	943,230	528,218
-6,790	15,172	942,665	527,826
-5,775	15,200	942,238	527,654
-4,760	15,164	941,516	527,114
-3,746	15,221	940,725	526,833
-2,731	15,066	940,222	526,040
-1,717	15,065	939,384	525,548
-0,702	15,044	938,948	525,216
0,313	14,825	938,195	524,895
1,327	18,213	936,209	534,403
2,342	27,348	789,781	474,879
3,356	23,904	444,320	262,041
4,371	-5,753	294,887	144,326
5,386	-9,840	276,670	131,531
6,400	-11,033	270,888	127,664
7,415	-10,858	268,428	126,655
8,429	-11,114	267,225	125,841
9,444	-11,296	266,297	125,228
10,459	-11,223	265,742	125,022
11,473	-11,196	265,166	124,764
12,488	-11,035	264,430	124,553
13,502	-11,444	264,071	124,002
14,517	-11,346	263,514	123,819
15,531	-11,298	263,228	123,716
16,546	-11,141	263,037	123,757
17,561	-11,052	262,414	123,532
18,575	-11,092	262,107	123,341
19,590	-11,082	261,600	123,100
20,604	-10,978	261,384	123,080
21,619	-11,224	261,347	122,832
22,634	-11,152	260,649	122,557
23,648	-11,309	260,385	122,282
24,663	-11,109	260,195	122,361
25,677	-11,174	259,870	122,140
26,692	-11,002	259,771	122,234
27,707	-11,171	259,433	121,915
28,721	-11,418	259,288	121,617
29,736	-11,451	259,013	121,448
30,750	-11,486	258,691	121,255
31,765	-11,201	258,412	121,365
32,780	-11,237	258,243	121,244
33,794	-11,200	257,850	121,080
34,809	-11,328	257,741	120,906
35,823	-11,303	257,474	120,792
36,838	-11,262	257,168	120,673
37,853	-11,381	256,895	120,430
38,867	-11,335	256,705	120,370
39,882	-11,332	256,448	120,242
40,896	-11,292	256,168	120,135
41,911	-11,409	256,052	119,968
42,926	-11,515	255,766	119,730
43,940	-11,503	255,593	119,649
44,955	-11,440	255,348	119,579
45,969	-11,621	255,105	119,296
46,984	-11,873	254,975	119,006
47,999	-11,973	254,629	118,747
49,013	-11,979	254,252	118,555
50,028	-12,174	254,012	118,264
51,042	-12,207	253,886	118,166
52,057	-12,281	253,537	117,928
53,071	-12,399	253,439	117,771
54,086	-11,999	253,218	118,003
55,101	-11,935	253,050	117,969
56,115	-11,914	252,955	117,933
57,130	-11,365	252,846	118,345
58,144	-11,058	252,515	118,444
59,159	-11,237	252,496	118,270
60,174	-11,174	252,322	118,232
61,188	-11,339	251,934	117,898
62,203	-11,281	251,808	117,878
63,217	-11,415	251,689	117,698
64,232	-11,240	251,392	117,698
65,247	-11,111	251,120	117,671
66,261	-11,253	250,958	117,463
67,276	-11,628	250,753	117,036
68,290	-11,832	250,355	116,666
69,305	-11,884	250,209	116,543
70,320	-11,743	250,019	116,564
71,334	-11,497	249,846	116,682
72,349	-11,182	249,686	116,865
73,363	-11,110	249,470	116,815
74,378	-11,130	249,201	116,661
75,393	-11,289	249,072	116,456
76,407	-11,202	248,827	116,404
77,422	-11,510	248,813	116,127
78,436	-11,337	248,491	116,112
79,451	-11,348	248,239	115,975
80,466	-11,311	247,992	115,880
81,480	-11,445	247,668	115,605
82,495	-11,465	247,354	115,432
83,509	-11,451	247,503	115,503
84,524	-11,649	247,222	115,196
85,539	-11,587	247,024	115,145
86,553	-11,888	246,978	114,860
87,568	-11,568	246,617	114,950
88,582	-11,702	246,466	114,758
89,597	-11,697	246,274	114,663
90,611	-11,530	246,040	114,683
91,626	-11,193	245,816	114,849
92,641	-11,496	245,877	114,614
93,655	-11,516	245,592	114,455
94,670	-11,395	245,270	114,396
95,684	-11,517	245,142	114,224
96,699	-11,542	244,997	114,126
97,714	-11,636	244,782	113,937
98,728	-11,613	244,573	113,849
99,743	-11,989	244,406	113,449
100,757	-11,763	244,129	113,497
101,772	-11,719	243,883	113,409
102,787	-11,692	243,730	113,350
103,801	-11,660	243,653	113,331
104,816	-11,437	243,443	113,408
105,830	-11,519	243,465	113,340
106,845	-11,337	243,157	113,337
107,860	-11,284	242,875	113,239
108,874	-11,370	242,677	113,066
109,889	-11,347	242,488	112,986
110,903	-11,635	242,318	112,660
111,918	-11,728	242,230	112,533
112,933	-11,368	241,955	112,690
113,947	-11,499	241,820	112,510
114,962	-11,400	241,611	112,484
115,976	-11,323	241,590	112,527
116,991	-11,470	241,345	112,283
118,006	-11,372	241,138	112,256
119,020	-11,471	241,142	112,168
120,035	-11,368	240,952	112,153
121,049	-11,304	240,797	112,124
122,064	-11,221	240,458	112,024
123,079	-11,497	240,413	111,767
124,093	-11,469	240,076	111,624
125,108	-11,608	239,899	111,418
126,122	-11,762	239,607	111,148
127,137	-11,759	239,482	111,082
128,151	-11,989	239,355	110,827
129,166	-11,855	239,195	110,851
130,181	-11,662	238,926	110,873
131,195	-11,766	238,681	110,665
132,210	-11,676	238,624	110,702
133,224	-11,507	238,492	110,767
134,239	-11,322	238,144	110,745
135,254	-11,444	238,189	110,657
136,268	-11,677	237,967	110,357
137,283	-11,722	237,602	110,142
138,297	-11,858	237,326	109,894
139,312	-12,004	237,248	109,731
140,327	-11,689	237,178	109,942
141,341	-11,106	237,084	110,357
142,356	-11,040	237,004	110,362
143,370	-11,109	236,799	110,201
144,385	-11,061	236,664	110,167
145,400	-10,904	236,427	110,173
146,414	-11,282	236,424	109,859
147,429	-11,108	236,098	109,837
148,443	-11,256	235,967	109,648
149,458	-11,105	235,819	109,690
150,473	-11,059	235,533	109,584
151,487	-11,241	235,480	109,404
152,502	-11,144	235,294	109,385
153,516	-11,139	235,155	109,315
154,531	-11,038	234,946	109,289
155,546	-11,139	234,696	109,082
156,560	-11,357	234,608	108,858
157,575	-11,571	234,354	108,562
158,589	-11,242	234,122	108,704
159,604	-10,965	234,153	108,929
160,619	-10,848	233,832	108,862
161,633	-10,723	233,785	108,929
162,648	-10,820	233,619	108,765
163,662	-11,048	233,443	108,494
164,677	-11,089	233,247	108,361
165,692	-11,100	233,171	108,307
166,706	-11,064	233,078	108,283
167,721	-10,778	232,890	108,411
168,735	-10,726	232,762	108,382
169,750	-10,973	232,594	108,101
170,764	-11,138	232,456	107,898
171,779	-11,062	232,204	107,831
172,794	-10,934	232,115	107,880
173,808	-11,433	231,941	107,399
174,823	-11,654	231,462	106,995
175,837	-11,655	231,302	106,910
176,852	-11,371	231,404	107,170
177,867	-11,163	231,330	107,288
178,881	-10,970	231,019	107,285
179,896	-10,972	231,142	107,331
180,910	-10,931	230,783	107,187
181,925	-11,016	230,737	107,089
182,940	-10,986	230,395	106,944
183,954	-11,183	230,408	106,788
184,969	-11,065	230,309	106,824
185,983	-10,835	230,142	106,915
186,998	-10,873	230,022	106,821
188,013	-10,905	229,754	106,662
189,027	-10,818	229,628	106,661
190,042	-10,895	229,416	106,493
191,056	-10,762	229,215	106,494
192,071	-10,840	229,100	106,371
193,086	-11,035	228,934	106,134
194,100	-11,167	228,800	105,960
195,115	-11,274	228,390	105,678
196,129	-11,728	228,273	105,266
197,144	-6,353	230,233	110,324
198,159	0,152	231,998	116,222
199,173	3,017	232,761	118,824
200,188	3,145	232,727	118,896
201,202	3,305	232,552	118,920
202,217	3,632	232,573	119,174
203,232	3,813	232,331	119,180
204,246	3,860	232,252	119,165
205,261	3,706	232,126	118,971
206,275	4,064	231,966	119,155
207,290	3,888	232,004	119,028
208,304	3,939	231,699	118,900
209,319	3,914	231,544	118,791
210,334	3,899	231,222	118,604
211,348	3,736	231,049	118,378
212,363	3,387	230,845	117,995
213,377	2,958	230,775	117,618
214,392	2,912	230,430	117,396
215,407	3,371	230,202	117,622
216,421	3,389	230,140	117,593
217,436	3,191	230,067	117,394
218,450	3,004	229,777	117,093
219,465	2,914	229,526	116,885
220,480	3,162	229,372	116,986
221,494	2,964	229,332	116,804
222,509	3,108	229,255	116,864
223,523	3,256	229,083	116,879
224,538	3,037	228,852	116,584
225,553	3,270	228,856	116,753
226,567	3,367	228,742	116,758
227,582	3,525	228,698	116,846
228,596	3,648	228,624	116,892
229,611	3,209	228,232	116,347
230,626	2,756	228,081	115,915
231,640	3,038	227,890	116,022
232,655	3,202	227,894	116,138
233,669	3,647	227,848	116,442
234,684	3,906	227,609	116,506
235,699	3,554	227,537	116,192
236,713	3,490	227,246	115,984
237,728	3,116	227,040	115,586
238,742	3,054	226,798	115,406
239,757	3,230	226,683	115,470
240,772	3,248	226,529	115,395
241,786	3,064	226,322	115,141
242,801	3,201	226,429	115,288
243,815	3,489	226,288	115,423
244,830	3,737	226,074	115,489
245,844	3,276	225,956	115,073
246,859	3,204	225,781	114,919
247,874	3,187	225,818	114,914
248,888	3,415	225,620	114,975
249,903	3,477	225,354	114,876
250,917	3,130	225,077	114,464
251,932	3,094	225,113	114,446
252,947	3,208	224,834	114,379
253,961	2,930	224,647	114,066
254,976	3,106	224,673	114,200
255,990	3,428	224,445	114,314
257,005	3,380	224,340	114,215
258,020	3,658	224,192	114,336
259,034	3,479	224,195	114,195
260,049	3,630	223,848	114,120
261,063	3,560	223,602	113,932
262,078	3,516	223,739	113,960
263,093	3,647	223,512	113,931
264,107	3,487	223,344	113,717
265,122	3,511	223,209	113,655
266,136	3,344	223,297	113,566
267,151	3,699	222,920	113,627
268,166	3,278	222,694	113,190
269,180	3,093	222,354	112,871
270,195	3,003	222,415	112,825
271,209	3,057	222,152	112,722
272,224	3,276	222,042	112,817
273,239	3,235	222,047	112,780
274,253	3,170	221,657	112,524
275,268	3,053	221,597	112,397
276,282	2,752	221,423	112,078
277,297	2,807	221,372	112,082
278,312	3,019	221,243	112,162
279,326	3,142	221,198	112,220
280,341	3,063	221,079	112,091
281,355	3,265	220,880	112,128
282,370	3,349	220,605	112,040
283,384	3,142	220,413	111,782
284,399	2,898	220,279	111,525
285,414	2,967	220,085	111,468
286,428	3,127	220,105	111,585
287,443	3,434	220,029	111,760
288,457	3,215	219,933	111,541
289,472	3,131	219,667	111,336
290,487	2,775	219,470	110,967
291,501	2,799	219,325	110,901
292,516	2,927	219,174	110,908
293,530	2,988	219,064	110,886
294,545	2,810	218,957	110,694
295,560	3,129	218,853	110,862
296,574	3,333	218,777	110,962
297,589	3,028	218,665	110,674
298,603	3,441	218,441	110,849
299,618	3,090	218,421	110,576
300,633	3,226	218,361	110,634
301,647	3,354	218,153	110,611
302,662	3,485	218,055	110,646
303,676	3,429	217,719	110,426
304,691	3,583	217,649	110,491
305,706	3,606	217,440	110,392
306,720	3,328	217,486	110,205
307,735	3,214	217,175	109,955
308,749	3,295	216,948	109,889
309,764	3,134	216,928	109,753
310,779	3,552	216,803	109,980
311,793	3,339	216,681	109,756
312,808	3,356	216,528	109,681
313,822	3,378	216,370	109,606
314,837	3,271	216,282	109,476
315,852	2,993	216,011	109,130
316,866	3,335	215,967	109,343
317,881	3,526	215,827	109,398
318,895	3,350	215,691	109,194
319,910	3,095	215,527	108,920
320,925	3,089	215,311	108,796
321,939	2,555	215,169	108,335
322,954	2,753	215,077	108,420
323,968	3,329	215,047	108,805
324,983	3,431	214,973	108,830
325,997	3,210	214,927	108,640
327,012	3,273	214,640	108,530
328,027	3,115	214,663	108,420
329,041	3,541	214,498	108,629
330,056	3,384	214,556	108,537
331,070	3,528	214,090	108,393
332,085	3,031	213,843	107,908
333,100	3,229	213,747	107,989
334,114	3,376	213,667	108,043
335,129	3,320	213,501	107,910
336,143	3,143	213,410	107,730
337,158	3,323	213,276	107,779
338,173	3,278	213,194	107,696
339,187	3,017	213,017	107,414
340,202	2,886	212,806	107,206
341,216	2,892	212,626	107,110
342,231	3,133	212,446	107,179
343,246	3,055	212,398	107,090
344,260	3,189	212,127	107,038
345,275	3,138	212,185	107,022
346,289	3,373	212,053	107,110
347,304	3,280	211,940	106,978
348,319	3,300	211,687	106,855
349,333	3,194	211,493	106,673
350,348	3,242	211,531	106,717
351,362	3,278	211,474	106,704
352,377	3,370	211,408	106,725
353,392	3,150	211,053	106,383
354,406	3,443	211,033	106,568
355,421	194,701	1339,740	1414,744
356,435	155,484	1477,222	1414,712
