DTS Sentinel unit serial number:	SN410029Multiplexer serial number:	ORYXHardware model number:	OX2-SRSoftware version number:	ORYX F/W v4,00 Oryx Data Collector v3.7.2.0data status	okinstallation	B6 Nyhavnadifferential loss correction	single-endedforward channel	channel 2reverse channel	N/Adate	2023/12/08time	18:05:08forward acquisition time	300,00reverse acquisition time	0,00gamma	499,1914k internal	0,3158k external	0,3158temperature offset calibration	1,0000default loss term (dB/km)	0,3820temperature slope calibration	1,0000multiplexer offset coefficient	1,0000multiplexer slope coefficient	1,0000fibre end	0,00T internal ref (°C)	15,22T ext. ref 1 (°C)	-1,28T ext. ref 2 (°C)	-1,27length (m)	temperature (°C)	Stokes	anti-Stokes-744,400	-35,662	0,095	0,038
-743,385	-48,864	-0,362	0,127
-742,371	347,102	0,123	0,179
-741,356	-107,511	-0,256	-0,041
-740,342	710,815	0,065	-0,127
-739,327	-94,060	-0,341	-0,068
-738,312	-102,866	0,175	0,030
-737,298	-45,092	-0,305	-0,111
-736,283	335,737	0,050	-0,071
-735,269	-82,181	-0,196	0,047
-734,254	-152,394	0,123	0,006
-733,239	34,880	-0,511	-0,329
-732,225	-14,011	0,219	-0,104
-731,210	253,124	-0,044	0,056
-730,196	-15,655	-0,038	0,018
-729,181	800,000	0,019	0,041
-728,167	-200,000	-0,004	-0,048
-727,152	-200,000	-0,006	-0,042
-726,137	-200,000	-0,036	-0,150
-725,123	587,938	-0,028	-0,050
-724,108	17,901	0,007	0,004
-723,094	-102,841	-0,142	-0,025
-722,079	-200,000	-0,056	-0,186
-721,064	800,000	-0,034	-0,074
-720,050	346,218	-0,079	0,115
-719,035	-141,093	0,095	-0,007
-718,021	391,484	0,003	0,005
-717,006	-112,432	-0,067	0,010
-715,991	-200,000	-0,012	-0,108
-714,977	-136,003	-0,126	-0,011
-713,962	125,346	-0,052	0,048
-712,948	438,089	0,056	-0,090
-711,933	259,002	0,077	-0,098
-710,918	-74,750	0,024	0,006
-709,904	515,517	0,028	-0,049
-708,889	229,563	-0,075	-0,091
-707,875	269,029	0,032	0,041
-706,860	407,569	0,033	-0,051
-705,845	-200,000	-0,016	0,060
-704,831	-8,431	0,094	-0,046
-703,816	-200,000	0,005	0,045
-702,802	-52,306	-0,062	0,021
-701,787	-99,471	-0,097	0,018
-700,772	370,534	0,069	0,103
-699,758	688,059	-0,074	-0,143
-698,743	-55,406	-0,032	-0,011
-697,729	46,929	-0,156	0,106
-696,714	-147,101	0,151	0,009
-695,699	-200,000	0,048	-0,182
-694,685	-136,517	-0,075	0,006
-693,670	-11,704	-0,237	-0,114
-692,656	800,000	-0,063	-0,130
-691,641	79,878	0,048	0,038
-690,627	59,509	-0,036	-0,026
-689,612	-157,644	0,139	0,006
-688,597	-200,000	-0,014	-0,119
-687,583	0,751	-0,170	-0,089
-686,568	-200,000	-0,019	-0,130
-685,554	800,000	-0,070	0,145
-684,539	-40,803	0,101	-0,038
-683,524	223,555	-0,062	0,073
-682,510	138,672	0,021	-0,020
-681,495	52,683	0,124	0,087
-680,481	109,461	-0,042	-0,037
-679,466	-162,259	-0,088	-0,003
-678,451	-64,576	-0,121	-0,036
-677,437	120,257	0,013	0,012
-676,422	-135,135	0,164	0,014
-675,408	800,000	-0,087	-0,218
-674,393	47,093	-0,114	-0,078
-673,378	159,299	-0,153	0,157
-672,364	-173,584	-0,077	-0,002
-671,349	-200,000	0,011	0,090
-670,335	-132,154	-0,021	-0,002
-669,320	-200,000	-0,008	0,092
-668,305	-9,985	-0,102	0,050
-667,291	-36,590	0,070	0,028
-666,276	800,000	-0,040	0,095
-665,262	-200,000	0,025	-0,134
-664,247	-117,346	0,111	0,015
-663,232	50,050	0,035	0,024
-662,218	-200,000	-0,016	-0,057
-661,203	-200,000	0,029	-0,099
-660,189	-91,532	-0,087	0,018
-659,174	800,000	-0,075	-0,180
-658,159	183,747	-0,063	-0,069
-657,145	-58,368	-0,089	-0,028
-656,130	-200,000	-0,002	0,043
-655,116	-125,867	-0,028	-0,003
-654,101	-50,841	-0,098	-0,034
-653,086	703,207	-0,050	0,098
-652,072	-200,000	0,001	-0,072
-651,057	-166,176	-0,133	0,004
-650,043	-200,000	-0,007	-0,127
-649,028	-200,000	-0,008	-0,088
-648,014	-200,000	-0,015	0,089
-646,999	-200,000	-0,036	0,158
-645,984	246,340	0,040	-0,049
-644,970	-159,858	-0,132	-0,005
-643,955	800,000	0,053	-0,148
-642,941	-200,000	-0,005	0,034
-641,926	-53,492	-0,068	-0,023
-640,911	66,129	0,161	0,120
-639,897	-33,933	-0,012	-0,005
-638,882	800,000	-0,021	-0,047
-637,868	-27,537	0,012	-0,005
-636,853	-61,262	-0,085	-0,026
-635,838	109,913	-0,031	-0,027
-634,824	393,687	0,078	-0,120
-633,809	-94,091	0,092	0,018
-632,795	-42,367	-0,135	0,050
-631,780	30,985	0,081	0,051
-630,765	469,514	-0,065	-0,107
-629,751	800,000	-0,088	-0,243
-628,736	382,800	0,058	-0,088
-627,722	473,122	-0,006	0,011
-626,707	-51,778	0,148	0,050
-625,692	11,075	0,040	0,022
-624,678	-48,091	-0,118	0,042
-623,663	314,900	0,044	0,061
-622,649	-200,000	-0,005	0,060
-621,634	800,000	-0,090	-0,289
-620,619	-200,000	-0,006	0,069
-619,605	-68,568	0,064	0,018
-618,590	-200,000	-0,014	-0,094
-617,576	-103,202	0,080	0,014
-616,561	-200,000	0,004	0,050
-615,546	68,586	0,111	0,083
-614,532	3,481	-0,152	0,081
-613,517	152,524	0,120	0,120
-612,503	-25,069	0,088	-0,038
-611,488	-166,076	0,146	-0,004
-610,474	800,000	0,035	0,090
-609,459	-200,000	-0,005	-0,093
-608,444	-200,000	0,000	0,039
-607,430	306,515	0,114	-0,157
-606,415	123,940	0,007	0,006
-605,401	157,930	-0,087	0,089
-604,386	157,773	0,053	-0,054
-603,371	-200,000	0,003	0,100
-602,357	800,000	0,041	0,092
-601,342	125,772	0,086	-0,079
-600,328	285,506	-0,027	0,036
-599,313	-114,979	-0,095	-0,013
-598,298	-120,384	-0,046	0,006
-597,284	-185,600	0,095	0,001
-596,269	800,000	-0,035	-0,113
-595,255	-58,369	0,087	0,028
-594,240	-86,639	-0,061	0,014
-593,225	-200,000	-0,005	0,041
-592,211	-200,000	0,002	0,075
-591,196	-173,227	-0,130	-0,003
-590,182	-200,000	-0,017	-0,097
-589,167	-100,336	0,056	-0,010
-588,152	742,441	-0,076	-0,149
-587,138	269,128	-0,108	0,140
-586,123	800,000	-0,004	0,013
-585,109	188,340	0,031	-0,034
-584,094	-200,000	0,020	0,121
-583,079	800,000	-0,035	0,083
-582,065	-13,354	0,064	-0,030
-581,050	800,000	0,046	-0,105
-580,036	147,089	-0,094	-0,092
-579,021	800,000	0,034	0,073
-578,006	-200,000	0,006	-0,071
-576,992	-164,124	-0,018	-0,001
-575,977	191,543	0,010	0,011
-574,963	-100,240	0,061	0,011
-573,948	122,006	0,094	0,086
-572,934	-200,000	0,011	-0,064
-571,919	800,000	-0,009	-0,024
-570,904	800,000	-0,037	-0,098
-569,890	-113,023	0,050	0,007
-568,875	-102,553	-0,118	0,020
-567,861	-0,097	-0,056	-0,029
-566,846	56,613	0,158	0,112
-565,831	-200,000	-0,007	0,068
-564,817	-84,438	0,113	-0,026
-563,802	285,614	-0,023	0,030
-562,788	721,279	0,016	0,031
-561,773	-127,581	-0,065	0,007
-560,758	-141,642	0,135	-0,010
-559,744	-177,194	-0,027	-0,000
-558,729	329,859	-0,072	0,101
-557,715	-200,000	-0,017	-0,198
-556,700	800,000	0,047	-0,116
-555,685	-200,000	0,034	-0,138
-554,671	70,264	-0,105	-0,079
-553,656	800,000	-0,023	-0,047
-552,642	509,875	-0,048	-0,082
-551,627	208,318	0,074	0,084
-550,612	778,062	0,065	-0,130
-549,598	307,587	-0,110	-0,150
-548,583	800,000	-0,093	-0,211
-547,569	376,342	0,064	0,096
-546,554	-200,000	0,027	-0,094
-545,539	559,615	-0,083	-0,148
-544,525	293,809	0,056	0,075
-543,510	-132,573	-0,083	0,008
-542,496	-124,830	0,085	-0,009
-541,481	-5,789	0,155	-0,077
-540,466	-200,000	0,010	-0,113
-539,452	-100,721	0,138	0,025
-538,437	791,695	-0,018	-0,037
-537,423	721,019	-0,077	0,150
-536,408	560,486	-0,036	-0,064
-535,393	-39,009	0,074	-0,028
-534,379	-200,000	-0,013	0,073
-533,364	-200,000	0,004	0,014
-532,350	-40,608	-0,117	0,044
-531,335	26,038	-0,071	-0,043
-530,321	800,000	0,037	-0,104
-529,306	82,062	0,107	-0,085
-528,291	-200,000	0,022	-0,144
-527,277	-200,000	0,030	-0,122
-526,262	-82,887	-0,278	-0,065
-525,248	-144,119	0,066	-0,004
-524,233	356,863	-0,025	0,036
-523,218	483,840	0,035	0,058
-522,204	378,514	-0,032	-0,048
-521,189	800,000	0,016	-0,040
-520,175	-43,658	-0,074	0,027
-519,160	108,632	0,074	0,064
-518,145	-60,001	-0,091	-0,028
-517,131	-24,463	0,102	0,044
-516,116	-59,990	-0,097	-0,030
-515,102	800,000	-0,071	-0,193
-514,087	208,052	-0,144	0,164
-513,072	192,305	0,057	0,062
-512,058	-122,280	0,035	-0,004
-511,043	190,475	0,038	-0,042
-510,029	118,638	0,124	0,112
-509,014	386,009	0,034	-0,051
-507,999	-200,000	0,003	0,049
-506,985	624,021	-0,043	0,080
-505,970	-200,000	0,031	-0,159
-504,956	-51,295	-0,042	-0,014
-503,941	269,417	0,128	-0,164
-502,926	-200,000	0,015	0,131
-501,912	669,019	0,047	0,089
-500,897	266,778	0,037	0,047
-499,883	800,000	0,027	-0,057
-498,868	329,205	-0,022	0,031
-497,853	154,457	0,086	-0,086
-496,839	93,096	0,024	0,020
-495,824	800,000	0,029	0,094
-494,810	-200,000	-0,034	0,120
-493,795	-60,403	-0,013	0,004
-492,781	800,000	-0,012	0,035
-491,766	800,000	-0,024	0,063
-490,751	81,440	-0,170	-0,134
-489,737	221,973	0,036	0,042
-488,722	-200,000	-0,025	0,089
-487,708	-53,372	0,096	0,032
-486,693	-96,800	-0,112	0,021
-485,678	259,120	0,070	0,088
-484,664	-200,000	-0,021	0,106
-483,649	296,000	-0,108	0,145
-482,635	170,709	0,089	-0,093
-481,620	255,324	0,073	0,092
-480,605	-78,727	0,064	-0,016
-479,591	-96,946	0,147	0,028
-478,576	-200,000	-0,007	-0,037
-477,562	100,065	-0,049	-0,041
-476,547	-200,000	-0,004	0,027
-475,532	-200,000	-0,030	-0,106
-474,518	-200,000	0,019	-0,063
-473,503	230,784	0,063	-0,075
-472,489	-200,000	-0,023	-0,109
-471,474	-200,000	0,012	-0,103
-470,459	-103,458	-0,099	0,017
-469,445	-200,000	0,005	0,016
-468,430	800,000	-0,061	-0,163
-467,416	-200,000	0,031	-0,113
-466,401	-200,000	-0,023	0,081
-465,386	-15,586	0,068	0,031
-464,372	-159,176	0,036	-0,001
-463,357	-16,978	-0,077	-0,035
-462,343	78,790	-0,095	-0,074
-461,328	-18,248	0,030	-0,013
-460,313	12,106	0,167	-0,093
-459,299	204,144	-0,062	0,070
-458,284	-200,000	-0,046	0,000
-457,270	26,931	0,028	0,017
-456,255	-54,433	0,106	0,035
-455,241	-102,798	-0,164	-0,028
-454,226	-200,000	0,012	-0,122
-453,211	-200,000	-0,002	0,094
-452,197	-136,551	0,067	-0,006
-451,182	-31,280	-0,098	0,040
-450,168	-200,000	-0,004	0,073
-449,153	521,423	-0,009	-0,015
-448,138	-51,939	-0,053	0,018
-447,124	580,842	-0,035	0,062
-446,109	800,000	-0,041	-0,122
-445,095	71,077	0,090	-0,068
-444,080	158,864	0,152	0,154
-443,065	-200,000	-0,045	0,150
-442,051	19,919	-0,069	0,040
-441,036	43,396	-0,104	0,069
-440,022	-127,417	0,022	0,002
-439,007	371,261	0,025	-0,037
-437,992	91,275	0,094	-0,077
-436,978	-168,074	0,126	0,004
-435,963	133,586	-0,059	-0,055
-434,949	-162,742	0,137	-0,005
-433,934	-57,263	-0,089	0,028
-432,919	-117,501	-0,057	-0,007
-431,905	18,112	-0,140	-0,081
-430,890	-200,000	0,012	-0,046
-429,876	524,218	-0,053	-0,091
-428,861	139,476	0,043	0,041
-427,846	38,512	-0,110	-0,071
-426,832	-77,669	-0,078	0,020
-425,817	800,000	0,018	-0,038
-424,803	214,843	-0,074	-0,085
-423,788	162,957	0,057	0,058
-422,773	396,599	-0,084	0,127
-421,759	28,583	0,059	0,036
-420,744	729,323	0,036	0,070
-419,730	800,000	0,016	-0,049
-418,715	105,197	-0,027	-0,023
-417,701	70,147	-0,069	-0,052
-416,686	656,823	0,020	-0,038
-415,671	-32,210	0,148	0,060
-414,657	218,165	0,067	0,077
-413,642	180,643	-0,085	0,091
-412,628	231,014	0,054	-0,064
-411,613	64,259	-0,070	-0,051
-410,598	-61,948	-0,090	0,027
-409,584	189,320	0,062	0,067
-408,569	376,459	0,026	0,038
-407,555	-70,043	0,146	-0,040
-406,540	132,248	-0,113	0,106
-405,525	-94,115	0,040	-0,008
-404,511	-200,000	0,015	-0,146
-403,496	32,437	-0,121	-0,076
-402,482	-43,392	-0,067	0,025
-401,467	145,287	-0,063	-0,062
-400,452	30,300	-0,060	-0,037
-399,438	274,364	-0,098	-0,127
-398,423	99,010	-0,035	0,030
-397,409	73,144	-0,019	-0,014
-396,394	-19,083	0,044	-0,020
-395,379	653,632	-0,066	-0,125
-394,365	-96,630	0,020	0,004
-393,350	-200,000	-0,013	-0,087
-392,336	258,088	-0,048	-0,060
-391,321	-101,602	0,112	0,020
-390,306	800,000	-0,020	-0,063
-389,292	106,802	0,096	0,083
-388,277	-200,000	-0,010	0,034
-387,263	-54,767	0,081	0,026
-386,248	-200,000	0,009	0,036
-385,233	-200,000	-0,006	-0,155
-384,219	-200,000	-0,011	-0,103
-383,204	-200,000	0,004	-0,058
-382,190	303,044	-0,028	-0,038
-381,175	-10,914	0,040	0,019
-380,160	524,019	0,064	0,110
-379,146	-200,000	0,042	0,136
-378,131	-200,000	-0,009	-0,091
-377,117	83,759	0,099	0,078
-376,102	158,277	-0,068	-0,069
-375,088	-200,000	-0,018	-0,061
-374,073	210,441	0,101	0,115
-373,058	-200,000	-0,012	0,052
-372,044	-107,520	0,064	0,010
-371,029	43,032	0,090	0,059
-370,015	-1,619	0,126	-0,065
-369,000	179,320	-0,012	0,012
-367,985	584,209	0,015	-0,027
-366,971	66,989	-0,009	0,006
-365,956	212,534	-0,109	0,125
-364,942	113,675	0,059	0,052
-363,927	178,283	0,071	0,076
-362,912	225,903	-0,057	-0,067
-361,898	800,000	0,042	-0,085
-360,883	-49,713	-0,073	0,025
-359,869	30,036	0,022	-0,014
-358,854	-200,000	-0,007	-0,028
-357,839	-145,192	0,102	-0,007
-356,825	76,891	-0,084	0,064
-355,810	38,497	-0,084	0,054
-354,796	-200,000	-0,002	0,138
-353,781	-103,818	-0,059	-0,010
-352,766	-200,000	0,004	0,046
-351,752	-68,788	-0,137	0,038
-350,737	-200,000	0,003	0,031
-349,723	-8,091	0,061	-0,030
-348,708	-200,000	0,014	0,045
-347,693	492,406	0,020	0,034
-346,679	-200,000	0,010	-0,080
-345,664	14,321	-0,107	-0,061
-344,650	67,474	0,105	0,078
-343,635	139,742	0,044	-0,042
-342,620	141,538	-0,112	0,108
-341,606	-44,027	0,078	0,028
-340,591	-200,000	-0,004	0,057
-339,577	28,794	-0,045	0,028
-338,562	144,402	0,034	0,033
-337,548	580,386	-0,053	0,094
-336,533	303,952	0,064	0,086
-335,518	800,000	0,039	0,101
-334,504	370,231	-0,046	-0,068
-333,489	147,520	0,061	-0,059
-332,475	-56,078	-0,236	-0,076
-331,460	-40,173	-0,059	0,022
-330,445	-200,000	0,001	0,016
-329,431	-95,372	0,077	0,015
-328,416	203,461	-0,026	0,029
-327,402	800,000	-0,087	0,200
-326,387	-200,000	0,008	0,090
-325,372	-200,000	-0,020	-0,099
-324,358	-200,000	-0,033	-0,115
-323,343	-90,607	0,115	0,024
-322,329	118,965	0,059	-0,053
-321,314	-200,000	0,017	0,193
-320,299	-200,000	-0,022	0,072
-319,285	5,280	0,082	0,044
-318,270	-200,000	-0,018	-0,124
-317,256	800,000	0,055	-0,127
-316,241	106,406	0,051	-0,044
-315,226	800,000	0,021	-0,041
-314,212	-146,413	-0,114	0,007
-313,197	-68,662	0,057	0,016
-312,183	274,626	-0,031	0,040
-311,168	-181,459	0,098	0,001
-310,153	-149,090	0,145	0,008
-309,139	90,701	-0,064	-0,052
-308,124	355,313	0,031	-0,045
-307,110	-200,000	-0,003	-0,246
-306,095	155,151	0,118	0,117
-305,080	-137,062	0,068	-0,006
-304,066	-200,000	0,018	-0,093
-303,051	-11,788	-0,088	0,042
-302,037	-112,871	-0,121	0,017
-301,022	-10,454	-0,040	-0,019
-300,008	19,376	0,090	-0,052
-298,993	-200,000	0,014	0,044
-297,978	562,202	-0,056	0,099
-296,964	-200,000	-0,008	-0,047
-295,949	800,000	-0,052	0,111
-294,935	800,000	-0,045	0,119
-293,920	25,537	-0,056	-0,033
-292,905	800,000	0,003	0,010
-291,891	-29,195	-0,070	0,029
-290,876	11,312	0,079	0,043
-289,862	312,082	0,045	0,061
-288,847	196,102	-0,107	-0,118
-287,832	-200,000	-0,008	0,037
-286,818	-85,745	-0,147	-0,033
-285,803	146,201	-0,093	0,091
-284,789	-162,827	0,095	0,003
-283,774	800,000	0,079	0,170
-282,759	800,000	-0,022	0,062
-281,745	672,631	0,052	-0,098
-280,730	-51,610	-0,069	0,023
-279,716	12,389	0,129	-0,072
-278,701	246,827	-0,141	0,173
-277,686	195,808	0,066	0,072
-276,672	7,305	-0,022	0,012
-275,657	-200,000	0,019	-0,158
-274,643	-106,433	-0,077	-0,012
-273,628	800,000	-0,037	-0,092
-272,613	464,733	-0,052	0,085
-271,599	-60,498	0,074	0,023
-270,584	-200,000	0,033	-0,129
-269,570	50,573	-0,048	0,033
-268,555	286,564	0,079	0,103
-267,540	-7,488	0,025	-0,012
-266,526	17,651	0,079	-0,046
-265,511	164,789	-0,034	-0,034
-264,497	-200,000	-0,017	-0,134
-263,482	800,000	-0,047	-0,111
-262,467	499,129	0,023	-0,038
-261,453	-151,637	-0,085	-0,004
-260,438	-71,828	0,179	0,048
-259,424	-200,000	-0,002	0,155
-258,409	263,307	-0,044	0,056
-257,395	396,055	0,063	0,096
-256,380	157,173	0,059	0,059
-255,365	-200,000	-0,027	0,093
-254,351	-106,614	0,013	-0,002
-253,336	170,249	-0,088	0,091
-252,322	119,289	0,018	-0,016
-251,307	800,000	0,073	-0,203
-250,292	145,223	0,039	-0,038
-249,278	223,024	0,091	0,106
-248,263	227,003	0,006	0,007
-247,249	222,816	-0,084	-0,098
-246,234	368,469	0,038	0,056
-245,219	520,255	0,030	-0,052
-244,205	-101,697	0,028	-0,005
-243,190	25,811	0,043	0,026
-242,176	81,962	0,043	-0,034
-241,161	-37,890	0,113	0,043
-240,146	50,025	-0,056	-0,038
-239,132	5,356	-0,071	-0,038
-238,117	-200,000	-0,005	-0,185
-237,103	139,758	-0,119	-0,113
-236,088	-200,000	0,026	-0,126
-235,073	800,000	-0,048	0,133
-234,059	-200,000	-0,040	0,159
-233,044	59,577	-0,087	0,062
-232,030	110,715	-0,132	0,115
-231,015	-3,598	0,071	0,036
-230,000	-152,862	-0,055	-0,003
-228,986	-200,000	-0,000	-0,012
-227,971	-59,277	-0,038	0,012
-226,957	800,000	0,031	-0,063
-225,942	42,647	0,075	0,049
-224,927	800,000	-0,034	0,078
-223,913	-200,000	0,006	-0,051
-222,898	-200,000	0,011	0,045
-221,884	-200,000	0,012	-0,050
-220,869	-200,000	0,006	0,167
-219,855	-128,137	0,067	-0,007
-218,840	478,232	-0,067	-0,109
-217,825	48,291	-0,109	-0,074
-216,811	176,512	0,071	-0,074
-215,796	-200,000	-0,035	0,133
-214,782	-200,000	-0,036	0,120
-213,767	-200,000	-0,014	0,087
-212,752	66,599	-0,060	0,044
-211,738	218,703	-0,037	0,043
-210,723	800,000	0,037	-0,076
-209,709	63,647	-0,116	-0,084
-208,694	800,000	0,040	0,084
-207,679	-200,000	0,002	-0,012
-206,665	800,000	0,018	-0,046
-205,650	6,723	0,075	0,040
-204,636	-200,000	-0,015	0,113
-203,621	86,882	0,026	0,021
-202,606	-102,393	0,082	-0,014
-201,592	43,845	-0,107	-0,071
-200,577	-30,473	-0,073	0,030
-199,563	259,759	-0,023	-0,028
-198,548	93,190	0,097	-0,079
-197,533	-79,823	-0,161	-0,039
-196,519	74,436	0,075	0,057
-195,504	-200,000	-0,003	0,080
-194,490	-115,251	-0,110	0,015
-193,475	389,841	-0,038	0,057
-192,460	-45,114	0,095	-0,034
-191,446	261,865	0,067	0,084
-190,431	111,630	-0,055	-0,048
-189,417	422,672	0,075	0,116
-188,402	-58,205	0,056	0,017
-187,387	-95,140	-0,102	-0,020
-186,373	-24,194	-0,106	0,046
-185,358	-200,000	0,014	-0,062
-184,344	-145,001	-0,122	-0,008
-183,329	800,000	0,062	0,155
-182,315	-63,664	0,145	-0,043
-181,300	357,738	-0,072	0,104
-180,285	-200,000	-0,021	0,121
-179,271	4,594	-0,092	-0,048
-178,256	-98,837	0,112	0,020
-177,242	118,106	-0,071	0,063
-176,227	-88,896	0,144	-0,030
-175,212	41,099	-0,109	0,071
-174,198	800,000	-0,018	0,040
-173,183	524,703	-0,047	0,080
-172,169	243,275	-0,029	-0,035
-171,154	211,253	-0,078	0,089
-170,139	-132,761	-0,082	-0,007
-169,125	173,487	0,078	0,081
-168,110	800,000	-0,024	0,071
-167,096	191,576	0,033	-0,036
-166,081	-45,270	-0,117	0,042
-165,066	401,545	0,042	0,063
-164,052	-200,000	-0,017	0,069
-163,037	-200,000	0,002	-0,065
-162,023	-10,102	0,117	0,056
-161,008	27,566	0,041	-0,025
-159,993	-200,000	-0,003	-0,014
-158,979	-18,842	0,020	-0,009
-157,964	151,543	0,107	-0,105
-156,950	-45,355	-0,089	0,032
-155,935	-153,319	-0,038	-0,002
-154,920	-200,000	-0,006	-0,197
-153,906	800,000	0,041	-0,107
-152,891	800,000	0,021	-0,062
-151,877	-35,211	-0,045	-0,017
-150,862	-144,153	-0,126	0,008
-149,847	-200,000	-0,013	0,049
-148,833	316,141	-0,030	-0,040
-147,818	-200,000	0,002	-0,008
-146,804	210,370	0,037	0,042
-145,789	-200,000	-0,031	-0,102
-144,775	-133,174	-0,103	-0,009
-143,760	98,820	-0,053	0,044
-142,745	-200,000	-0,008	-0,095
-141,731	-200,000	0,007	0,025
-140,716	800,000	-0,095	0,218
-139,702	800,000	-0,009	0,027
-138,687	58,161	-0,064	-0,045
-137,672	104,531	0,059	-0,050
-136,658	34,698	-0,102	-0,064
-135,643	-200,000	0,004	-0,120
-134,629	-27,628	0,100	-0,042
-133,614	800,000	0,006	0,013
-132,599	-183,907	-0,141	-0,002
-131,585	800,000	-0,016	-0,047
-130,570	800,000	-0,032	-0,076
-129,556	-200,000	-0,037	-0,136
-128,541	-0,602	-0,072	-0,037
-127,526	-200,000	0,096	-0,000
-126,512	288,698	0,079	0,103
-125,497	-51,463	-0,102	-0,034
-124,483	-200,000	-0,009	0,067
-123,468	-200,000	-0,014	-0,061
-122,453	310,141	0,068	-0,092
-121,439	800,000	0,019	-0,039
-120,424	-200,000	0,040	-0,210
-119,410	800,000	0,017	-0,053
-118,395	-145,228	0,045	0,003
-117,380	768,355	0,053	-0,104
-116,366	-200,000	0,011	0,140
-115,351	-36,641	0,056	0,022
-114,337	697,605	-0,048	-0,090
-113,322	63,565	0,040	0,029
-112,307	-147,651	-0,103	0,006
-111,293	800,000	0,033	0,089
-110,278	115,992	-0,063	0,055
-109,264	-68,697	-0,038	0,010
-108,249	701,282	0,080	-0,152
-107,234	-118,120	0,018	0,002
-106,220	-200,000	-0,003	0,041
-105,205	-121,215	0,174	-0,021
-104,191	-42,179	-0,120	-0,044
-103,176	-33,337	-0,049	0,019
-102,162	263,087	0,050	0,063
-101,147	101,797	0,079	0,066
-100,132	-150,574	-0,173	-0,009
-99,118	-200,000	-0,025	0,088
-98,103	-200,000	-0,008	0,115
-97,089	153,181	0,080	0,078
-96,074	-200,000	0,013	-0,049
-95,059	800,000	0,063	0,139
-94,045	-139,714	-0,026	-0,002
-93,030	212,941	-0,049	-0,056
-92,016	-25,226	0,056	-0,024
-91,001	25,383	0,075	-0,045
-89,986	-200,000	0,002	-0,091
-88,972	152,824	-0,088	0,086
-87,957	39,838	0,140	0,090
-86,943	109,859	0,061	-0,052
-85,928	-200,000	-0,030	0,102
-84,913	-200,000	0,001	0,006
-83,899	-36,622	-0,034	-0,013
-82,884	-81,980	0,033	0,008
-81,870	-88,743	0,124	0,026
-80,855	-200,000	0,015	-0,101
-79,840	20,963	0,047	-0,027
-78,826	75,373	-0,036	0,027
-77,811	-200,000	-0,015	-0,273
-76,797	39,236	0,127	0,081
-75,782	286,664	0,043	0,056
-74,767	166,839	0,022	-0,023
-73,753	97,596	-0,082	0,067
-72,738	-133,441	0,152	0,014
-71,724	-166,561	-0,131	-0,004
-70,709	-99,142	0,207	-0,037
-69,694	-51,703	0,095	-0,032
-68,680	-51,904	0,016	0,005
-67,665	-171,323	0,052	-0,001
-66,651	800,000	0,015	-0,042
-65,636	-200,000	0,007	0,038
-64,622	125,824	-0,063	0,057
-63,607	-123,265	-0,079	-0,009
-62,592	-200,000	0,014	0,043
-61,578	138,982	-0,089	-0,084
-60,563	800,000	0,062	0,134
-59,549	800,000	-0,075	0,180
-58,534	23,327	-1,941	-1,142
-57,519	-200,000	-0,182	-0,934
-56,505	-200,000	-1,262	-4,861
-55,490	137,557	0,789	0,742
-54,476	800,000	5,106	11,528
-53,461	-200,000	17,787	290,412
-52,446	800,000	726,385	2230,852
-51,432	536,819	1639,320	2803,774
-50,417	109,717	1629,290	1401,126
-49,403	73,181	1283,544	961,915
-48,388	31,504	1026,340	631,489
-47,373	19,942	988,286	569,988
-46,359	18,283	976,216	557,574
-45,344	15,533	972,391	546,377
-44,330	15,731	970,968	546,203
-43,315	15,347	968,893	543,762
-42,300	15,253	968,021	542,945
-41,286	15,196	967,066	542,202
-40,271	15,206	966,041	541,639
-39,257	15,236	965,034	541,149
-38,242	15,248	964,193	540,697
-37,227	15,257	963,523	540,327
-36,213	15,264	962,696	539,866
-35,198	15,236	961,633	539,160
-34,184	15,287	960,960	538,924
-33,169	15,223	960,025	538,173
-32,154	15,227	959,193	537,696
-31,140	15,298	958,105	537,295
-30,125	15,243	957,530	536,775
-29,111	15,335	956,537	536,493
-28,096	15,270	956,017	535,969
-27,082	15,281	955,339	535,602
-26,067	15,335	954,497	535,285
-25,052	15,194	953,784	534,411
-24,038	15,242	953,225	534,228
-23,023	15,191	952,599	533,694
-22,009	15,265	951,791	533,458
-20,994	15,216	951,381	533,049
-19,979	15,242	950,629	532,689
-18,965	15,243	950,015	532,329
-17,950	15,232	949,559	532,016
-16,936	15,199	948,715	531,417
-15,921	15,222	948,034	531,089
-14,906	15,098	947,380	530,304
-13,892	15,167	946,726	530,138
-12,877	15,169	946,101	529,775
-11,863	15,102	945,407	529,150
-10,848	15,179	944,762	529,013
-9,833	15,222	944,463	528,962
-8,819	15,200	944,000	528,611
-7,804	15,196	943,120	528,085
-6,790	15,185	942,622	527,749
-5,775	15,191	942,172	527,496
-4,760	15,155	941,352	526,901
-3,746	15,169	940,824	526,631
-2,731	15,061	940,058	525,839
-1,717	14,952	939,489	525,155
-0,702	14,969	938,811	524,810
0,313	14,823	938,030	524,706
1,327	18,217	936,109	534,264
2,342	27,328	790,114	474,942
3,356	23,918	444,610	262,185
4,371	-5,648	295,539	144,725
5,386	-9,464	277,065	132,052
6,400	-10,722	271,374	128,160
7,415	-10,925	269,148	126,910
8,429	-10,881	267,799	126,303
9,444	-10,785	266,786	125,902
10,459	-10,963	266,106	125,407
11,473	-11,094	265,504	124,994
12,488	-11,172	265,124	124,733
13,502	-11,420	264,541	124,223
14,517	-11,351	264,070	124,053
15,531	-11,197	263,610	123,965
16,546	-11,017	263,380	124,007
17,561	-11,025	262,894	123,761
18,575	-11,287	262,732	123,438
19,590	-11,448	262,324	123,091
20,604	-11,167	261,903	123,134
21,619	-11,194	261,664	122,987
22,634	-11,360	261,372	122,690
23,648	-11,165	260,954	122,657
24,663	-11,263	260,605	122,395
25,677	-11,149	260,431	122,404
26,692	-11,420	260,286	122,084
27,707	-11,327	259,991	122,016
28,721	-11,188	259,627	121,958
29,736	-11,389	259,425	121,674
30,750	-11,434	259,188	121,513
31,765	-11,288	258,909	121,500
32,780	-11,553	258,828	121,217
33,794	-11,339	258,421	121,204
34,809	-11,198	258,162	121,196
35,823	-11,511	257,937	120,804
36,838	-11,409	257,579	120,715
37,853	-11,500	257,340	120,513
38,867	-11,445	257,238	120,503
39,882	-11,576	257,029	120,279
40,896	-11,514	256,712	120,175
41,911	-11,428	256,459	120,121
42,926	-11,394	256,297	120,064
43,940	-11,257	255,955	120,012
44,955	-11,620	255,844	119,633
45,969	-11,476	255,479	119,577
46,984	-11,619	255,108	119,268
47,999	-11,860	254,914	118,957
49,013	-12,066	254,840	118,733
50,028	-12,091	254,455	118,521
51,042	-12,347	254,230	118,184
52,057	-12,265	254,038	118,156
53,071	-11,987	253,808	118,278
54,086	-12,020	253,692	118,185
55,101	-12,035	253,609	118,123
56,115	-11,668	253,324	118,296
57,130	-11,473	253,268	118,428
58,144	-11,208	253,225	118,626
59,159	-11,014	252,731	118,551
60,174	-11,183	252,734	118,396
61,188	-11,038	252,495	118,399
62,203	-11,289	252,280	118,072
63,217	-11,385	252,066	117,878
64,232	-11,166	251,738	117,902
65,247	-11,092	251,629	117,905
66,261	-11,314	251,396	117,594
67,276	-11,598	251,152	117,227
68,290	-11,590	250,719	117,022
69,305	-11,855	250,738	116,794
70,320	-11,715	250,364	116,728
71,334	-11,411	250,328	116,960
72,349	-11,367	250,211	116,933
73,363	-11,275	250,068	116,934
74,378	-11,152	249,884	116,941
75,393	-11,317	249,690	116,701
76,407	-11,359	249,452	116,543
77,422	-11,364	249,154	116,389
78,436	-11,156	249,000	116,483
79,451	-11,231	248,732	116,284
80,466	-11,450	248,471	115,966
81,480	-11,376	248,160	115,873
82,495	-11,553	248,047	115,661
83,509	-11,597	247,866	115,529
84,524	-11,542	247,821	115,544
85,539	-11,630	247,336	115,234
86,553	-11,713	247,086	115,038
87,568	-11,845	247,098	114,921
88,582	-11,739	246,914	114,915
89,597	-11,463	246,712	115,042
90,611	-11,338	246,646	115,106
91,626	-11,096	246,362	115,166
92,641	-11,355	246,360	114,938
93,655	-11,443	246,112	114,738
94,670	-11,697	245,803	114,372
95,684	-11,594	245,605	114,355
96,699	-11,586	245,475	114,292
97,714	-11,640	245,250	114,131
98,728	-11,660	244,968	113,974
99,743	-11,774	244,742	113,763
100,757	-11,740	244,472	113,656
101,772	-11,642	244,311	113,652
102,787	-11,612	244,254	113,640
103,801	-11,740	244,145	113,474
104,816	-11,442	244,023	113,653
105,830	-11,694	243,812	113,336
106,845	-11,160	243,664	113,699
107,860	-11,558	243,641	113,349
108,874	-11,520	243,349	113,235
109,889	-11,525	242,982	113,050
110,903	-11,591	242,739	112,872
111,918	-11,602	242,499	112,741
112,933	-11,554	242,352	112,702
113,947	-11,602	242,286	112,622
114,962	-11,442	242,072	112,644
115,976	-11,360	242,030	112,681
116,991	-11,298	241,711	112,574
118,006	-11,451	241,618	112,395
119,020	-11,456	241,561	112,355
120,035	-11,161	241,386	112,505
121,049	-11,135	241,197	112,428
122,064	-11,323	240,849	112,102
123,079	-11,283	240,741	112,074
124,093	-11,602	240,636	111,755
125,108	-11,465	240,176	111,644
126,122	-11,826	240,011	111,263
127,137	-11,814	239,736	111,136
128,151	-11,717	239,594	111,138
129,166	-11,729	239,595	111,120
130,181	-11,535	239,272	111,116
131,195	-11,818	239,053	110,776
132,210	-11,649	239,078	110,915
133,224	-11,475	238,824	110,927
134,239	-11,519	238,873	110,904
135,254	-11,255	238,493	110,931
136,268	-11,786	238,403	110,451
137,283	-11,727	238,041	110,322
138,297	-11,824	237,908	110,172
139,312	-11,798	237,616	110,047
140,327	-11,551	237,476	110,172
141,341	-11,041	237,738	110,693
142,356	-10,914	237,505	110,677
143,370	-11,183	237,338	110,374
144,385	-10,984	237,163	110,442
145,400	-10,971	236,842	110,294
146,414	-10,954	236,821	110,287
147,429	-11,057	236,545	110,066
148,443	-10,992	236,353	110,019
149,458	-11,217	236,321	109,814
150,473	-11,064	236,055	109,803
151,487	-11,293	235,845	109,513
152,502	-10,964	235,647	109,674
153,516	-11,114	235,677	109,558
154,531	-10,928	235,417	109,576
155,546	-11,129	235,184	109,298
156,560	-11,202	235,021	109,154
157,575	-11,288	234,828	108,987
158,589	-11,202	234,684	108,978
159,604	-10,938	234,512	109,098
160,619	-11,118	234,471	108,926
161,633	-10,934	234,322	108,993
162,648	-10,983	234,034	108,811
163,662	-11,043	234,019	108,747
164,677	-11,002	233,678	108,611
165,692	-11,190	233,615	108,423
166,706	-10,745	233,516	108,719
167,721	-10,827	233,307	108,547
168,735	-10,960	233,206	108,386
169,750	-10,908	232,977	108,311
170,764	-11,181	232,876	108,040
171,779	-10,981	232,727	108,118
172,794	-10,843	232,669	108,189
173,808	-11,053	232,245	107,818
174,823	-11,826	231,937	107,060
175,837	-11,797	231,756	106,990
176,852	-11,317	231,927	107,435
177,867	-11,055	231,604	107,481
178,881	-11,091	231,585	107,435
179,896	-10,825	231,593	107,636
180,910	-11,039	231,424	107,381
181,925	-10,954	231,206	107,336
182,940	-11,035	230,985	107,161
183,954	-10,884	230,746	107,158
184,969	-10,816	230,627	107,146
185,983	-10,893	230,554	107,043
186,998	-10,796	230,318	106,999
188,013	-10,939	230,276	106,859
189,027	-10,839	230,044	106,819
190,042	-10,767	229,768	106,737
191,056	-10,857	229,650	106,603
192,071	-10,773	229,531	106,604
193,086	-10,913	229,466	106,456
194,100	-10,768	229,110	106,393
195,115	-11,079	228,801	106,001
196,129	-11,176	228,859	105,943
197,144	-5,908	230,761	110,902
198,159	0,195	232,266	116,369
199,173	3,129	233,154	119,091
200,188	3,651	233,096	119,457
201,202	3,308	232,992	119,126
202,217	3,331	232,863	119,068
203,232	3,559	232,846	119,226
204,246	3,641	232,630	119,168
205,261	3,712	232,407	119,099
206,275	3,997	232,405	119,308
207,290	3,717	232,176	118,963
208,304	4,099	231,953	119,133
209,319	3,789	231,857	118,833
210,334	3,685	231,735	118,680
211,348	3,651	231,468	118,506
212,363	3,149	231,338	118,042
213,377	3,002	230,942	117,717
214,392	2,988	230,843	117,645
215,407	3,141	230,772	117,715
216,421	3,363	230,583	117,779
217,436	3,211	230,365	117,540
218,450	3,044	230,150	117,292
219,465	2,791	229,908	116,965
220,480	2,814	229,792	116,913
221,494	2,938	229,806	117,005
222,509	2,977	229,619	116,929
223,523	3,326	229,448	117,098
224,538	2,953	229,391	116,774
225,553	3,217	229,250	116,893
226,567	3,155	229,130	116,774
227,582	3,373	229,136	116,933
228,596	3,625	228,846	116,967
229,611	3,327	228,626	116,617
230,626	3,179	228,350	116,353
231,640	3,079	228,183	116,182
232,655	3,287	228,219	116,347
233,669	3,784	228,222	116,716
234,684	3,767	228,200	116,682
235,699	3,406	227,910	116,249
236,713	3,480	227,651	116,163
237,728	2,923	227,536	115,672
238,742	2,864	227,346	115,520
239,757	2,982	227,187	115,519
240,772	2,886	227,060	115,371
241,786	3,182	226,875	115,491
242,801	3,307	226,752	115,512
243,815	3,514	226,783	115,673
244,830	3,549	226,692	115,643
245,844	3,335	226,252	115,247
246,859	3,251	226,023	115,057
247,874	3,509	226,093	115,277
248,888	3,442	225,899	115,117
249,903	3,138	225,757	114,806
250,917	2,989	225,474	114,540
251,932	3,078	225,350	114,534
252,947	2,970	225,265	114,400
253,961	2,928	225,040	114,243
254,976	3,304	224,812	114,399
255,990	3,191	224,898	114,348
257,005	3,254	224,746	114,307
258,020	3,031	224,644	114,078
259,034	3,528	224,464	114,348
260,049	3,527	224,274	114,241
261,063	3,252	224,114	113,943
262,078	3,433	224,101	114,062
263,093	3,677	223,960	114,161
264,107	3,540	223,853	113,995
265,122	3,166	223,641	113,599
266,136	3,538	223,556	113,822
267,151	3,668	223,307	113,781
268,166	3,212	223,160	113,359
269,180	2,924	222,867	112,986
270,195	2,804	222,725	112,816
271,209	2,921	222,602	112,829
272,224	3,014	222,515	112,844
273,239	3,180	222,301	112,848
274,253	3,152	222,093	112,712
275,268	3,020	221,900	112,507
276,282	2,821	221,877	112,338
277,297	2,839	221,631	112,217
278,312	2,918	221,630	112,264
279,326	3,257	221,289	112,330
280,341	3,019	221,392	112,198
281,355	3,163	221,212	112,202
282,370	3,102	221,063	112,072
283,384	2,663	220,926	111,671
284,399	2,597	220,632	111,465
285,414	2,992	220,514	111,683
286,428	3,344	220,408	111,877
287,443	3,405	220,395	111,905
288,457	3,251	220,236	111,702
289,472	3,260	219,976	111,566
290,487	2,791	219,649	111,049
291,501	2,806	219,566	111,008
292,516	2,622	219,637	110,901
293,530	2,996	219,454	111,070
294,545	2,960	219,275	110,944
295,560	3,115	219,132	110,974
296,574	3,135	219,178	111,002
297,589	2,896	218,967	110,711
298,603	3,200	218,871	110,873
299,618	3,154	218,606	110,696
300,633	3,117	218,644	110,679
301,647	3,542	218,455	110,881
302,662	3,440	218,319	110,728
303,676	3,375	218,160	110,591
304,691	3,216	217,930	110,349
305,706	3,421	217,845	110,445
306,720	3,442	217,645	110,348
307,735	3,225	217,481	110,099
308,749	2,879	217,333	109,765
309,764	3,077	217,379	109,921
310,779	3,324	217,170	109,983
311,793	3,404	217,070	109,980
312,808	3,348	216,911	109,850
313,822	3,148	216,768	109,625
314,837	3,101	216,589	109,490
315,852	2,953	216,313	109,235
316,866	3,065	216,344	109,321
317,881	3,258	216,397	109,477
318,895	3,603	215,991	109,507
319,910	3,207	215,922	109,180
320,925	3,029	215,684	108,923
321,939	2,691	215,506	108,583
322,954	2,755	215,513	108,622
323,968	3,100	215,367	108,784
324,983	3,433	215,229	108,942
325,997	3,254	215,156	108,768
327,012	3,033	215,118	108,582
328,027	3,216	214,693	108,487
329,041	3,153	214,844	108,509
330,056	3,161	214,623	108,393
331,070	2,864	214,364	108,043
332,085	3,134	214,187	108,135
333,100	3,063	214,218	108,091
334,114	3,352	213,951	108,150
335,129	3,279	213,784	108,005
336,143	3,206	213,555	107,828
337,158	3,195	213,662	107,865
338,173	3,133	213,415	107,687
339,187	3,148	213,381	107,671
340,202	2,864	213,069	107,304
341,216	2,793	213,030	107,225
342,231	3,064	212,842	107,311
343,246	3,004	212,586	107,130
344,260	2,981	212,536	107,079
345,275	3,281	212,485	107,254
346,289	3,229	212,394	107,162
347,304	3,218	212,330	107,113
348,319	3,001	212,111	106,841
349,333	3,028	211,986	106,788
350,348	3,028	211,966	106,768
351,362	3,311	211,975	106,961
352,377	3,279	211,698	106,789
353,392	3,354	211,391	106,677
354,406	3,513	211,296	106,730
355,421	195,329	1340,584	1417,411
356,435	156,016	1478,137	1417,382
