DTS Sentinel unit serial number:	SN410029Multiplexer serial number:	ORYXHardware model number:	OX2-SRSoftware version number:	ORYX F/W v4,00 Oryx Data Collector v3.7.2.0data status	okinstallation	B6 Nyhavnadifferential loss correction	single-endedforward channel	channel 2reverse channel	N/Adate	2023/12/08time	10:20:08forward acquisition time	300,00reverse acquisition time	0,00gamma	499,1914k internal	0,3164k external	0,3164temperature offset calibration	1,0000default loss term (dB/km)	0,3820temperature slope calibration	1,0000multiplexer offset coefficient	1,0000multiplexer slope coefficient	1,0000fibre end	0,00T internal ref (°C)	14,27T ext. ref 1 (°C)	-1,33T ext. ref 2 (°C)	-1,30length (m)	temperature (°C)	Stokes	anti-Stokes-744,400	-57,493	0,120	-0,039
-743,385	-110,911	-0,392	-0,059
-742,371	-84,936	0,202	0,046
-741,356	-93,066	-0,455	-0,092
-740,342	13,389	0,182	0,103
-739,327	-161,358	-0,297	0,011
-738,312	482,573	-0,016	-0,028
-737,298	-56,832	-0,322	0,104
-736,283	-6,825	0,101	0,051
-735,269	-87,812	-0,233	0,051
-734,254	152,123	0,129	0,129
-733,239	44,222	-0,486	-0,327
-732,225	53,457	0,110	0,077
-731,210	-95,993	-0,041	0,008
-730,196	-6,985	-0,044	0,022
-729,181	-61,601	-0,046	-0,014
-728,167	439,030	0,087	-0,141
-727,152	800,000	-0,030	0,081
-726,137	-200,000	-0,008	0,048
-725,123	-200,000	-0,010	-0,187
-724,108	221,065	-0,113	-0,133
-723,094	-200,000	-0,032	-0,121
-722,079	-77,140	-0,090	0,023
-721,064	-16,561	-0,076	0,035
-720,050	-46,677	0,061	-0,022
-719,035	800,000	-0,033	0,067
-718,021	-125,250	-0,086	0,010
-717,006	800,000	-0,063	0,160
-715,991	-105,223	-0,138	0,023
-714,977	216,704	0,082	0,096
-713,962	25,863	-0,076	0,046
-712,948	-113,138	0,088	0,013
-711,933	16,126	-0,104	-0,060
-710,918	86,960	-0,107	-0,087
-709,904	-74,829	-0,118	-0,031
-708,889	-200,000	-0,025	-0,092
-707,875	87,249	0,032	0,026
-706,860	-19,159	-0,021	-0,009
-705,845	800,000	-0,019	-0,056
-704,831	60,216	-0,067	-0,049
-703,816	800,000	0,052	-0,112
-702,802	-71,805	-0,070	-0,019
-701,787	-194,055	0,111	0,001
-700,772	-200,000	-0,033	-0,148
-699,758	4,490	0,127	-0,068
-698,743	-200,000	-0,009	0,070
-697,729	172,463	0,035	-0,037
-696,714	159,702	-0,132	0,135
-695,699	376,742	-0,063	-0,095
-694,685	226,443	-0,095	-0,113
-693,670	293,522	-0,039	0,053
-692,656	28,918	0,059	0,037
-691,641	-65,244	-0,125	-0,037
-690,627	-48,456	-0,069	-0,024
-689,612	639,338	-0,045	-0,085
-688,597	-101,793	0,161	0,028
-687,583	197,385	-0,023	-0,026
-686,568	800,000	-0,011	-0,023
-685,554	-200,000	-0,000	-0,065
-684,539	-200,000	0,017	0,110
-683,524	-21,445	-0,100	0,045
-682,510	265,252	-0,081	0,104
-681,495	332,571	0,054	0,076
-680,481	-200,000	0,001	-0,122
-679,466	-200,000	-0,036	-0,148
-678,451	189,613	0,086	0,095
-677,437	180,346	-0,039	0,042
-676,422	-149,491	0,074	-0,004
-675,408	-75,731	0,099	0,026
-674,393	130,455	-0,039	0,036
-673,378	116,047	-0,057	-0,052
-672,364	13,918	-0,019	0,011
-671,349	441,429	0,025	0,040
-670,335	-47,173	-0,088	-0,031
-669,320	800,000	0,032	0,084
-668,305	-200,000	-0,011	0,183
-667,291	-200,000	-0,001	-0,058
-666,276	-200,000	0,041	-0,155
-665,262	-80,952	-0,102	-0,025
-664,247	506,898	0,067	-0,114
-663,232	145,770	0,020	0,020
-662,218	171,995	0,105	0,111
-661,203	800,000	0,030	0,063
-660,189	-27,825	-0,008	0,003
-659,174	-200,000	0,012	-0,043
-658,159	-112,981	0,026	-0,004
-657,145	265,855	0,024	-0,030
-656,130	-46,393	-0,090	-0,032
-655,116	27,247	0,048	0,029
-654,101	24,219	0,073	-0,044
-653,086	-200,000	-0,037	-0,165
-652,072	-200,000	-0,001	-0,054
-651,057	359,770	0,028	0,041
-650,043	446,039	-0,049	0,079
-649,028	38,075	0,120	-0,078
-648,014	161,099	0,071	0,072
-646,999	-148,273	-0,093	0,006
-645,984	-34,385	0,125	0,050
-644,970	-89,593	-0,103	0,022
-643,955	91,531	0,081	-0,066
-642,941	-200,000	0,012	-0,144
-641,926	-200,000	0,004	-0,039
-640,911	-200,000	-0,012	0,059
-639,897	800,000	0,044	0,093
-638,882	-200,000	-0,002	0,137
-637,868	-200,000	0,026	-0,158
-636,853	800,000	0,034	-0,079
-635,838	800,000	0,023	-0,052
-634,824	-78,430	0,095	0,024
-633,809	21,139	0,028	-0,017
-632,795	218,889	-0,021	-0,024
-631,780	666,657	0,022	0,041
-630,765	195,018	-0,052	-0,058
-629,751	-24,235	0,047	-0,021
-628,736	800,000	-0,055	0,123
-627,722	-110,664	0,070	0,011
-626,707	-200,000	0,036	0,177
-625,692	-27,599	0,096	0,041
-624,678	-31,990	0,086	0,035
-623,663	717,713	-0,038	0,074
-622,649	-38,542	-0,138	-0,053
-621,634	70,090	-0,081	-0,061
-620,619	-200,000	0,007	0,084
-619,605	121,859	0,067	0,061
-618,590	25,161	0,104	-0,063
-617,576	239,886	-0,069	-0,085
-616,561	-200,000	-0,039	-0,147
-615,546	-200,000	-0,025	-0,084
-614,532	401,765	0,033	0,050
-613,517	463,575	-0,009	0,015
-612,503	44,129	0,051	0,034
-611,488	-200,000	-0,013	-0,128
-610,474	90,674	0,055	0,045
-609,459	53,858	0,006	-0,004
-608,444	-37,591	0,105	-0,041
-607,430	767,249	0,052	-0,103
-606,415	-200,000	0,013	-0,097
-605,401	-200,000	0,010	-0,046
-604,386	-200,000	0,039	0,133
-603,371	461,747	0,022	-0,037
-602,357	-35,261	-0,027	0,011
-601,342	-40,848	0,093	0,035
-600,328	-200,000	-0,017	-0,078
-599,313	679,459	-0,081	0,155
-598,298	-14,467	0,149	-0,070
-597,284	-50,755	0,039	-0,013
-596,269	782,842	-0,041	0,083
-595,255	-200,000	-0,010	0,092
-594,240	290,117	0,021	0,028
-593,225	328,563	-0,068	0,096
-592,211	34,125	0,083	0,053
-591,196	-40,775	-0,150	-0,056
-590,182	-2,654	-0,021	-0,011
-589,167	190,241	0,053	0,058
-588,152	-117,128	0,178	0,023
-587,138	242,333	-0,138	0,170
-586,123	-73,876	-0,075	-0,020
-585,109	800,000	0,030	0,080
-584,094	-16,099	0,121	0,056
-583,079	38,598	0,106	0,069
-582,065	800,000	0,015	0,035
-581,050	86,334	0,075	-0,060
-580,036	86,066	-0,084	-0,068
-579,021	800,000	0,015	-0,043
-578,006	71,051	-0,039	-0,029
-576,992	800,000	0,041	-0,120
-575,977	-53,296	-0,060	-0,020
-574,963	800,000	-0,016	-0,037
-573,948	7,521	0,023	-0,012
-572,934	432,854	0,041	0,066
-571,919	400,300	-0,056	0,086
-570,904	800,000	-0,004	0,009
-569,890	-200,000	0,016	-0,127
-568,875	162,933	0,084	-0,087
-567,861	800,000	-0,046	0,107
-566,846	-200,000	0,018	0,145
-565,831	-37,028	-0,039	0,015
-564,817	-200,000	0,024	-0,178
-563,802	26,491	-0,055	-0,034
-562,788	-107,552	-0,112	-0,018
-561,773	-155,974	-0,007	0,000
-560,758	0,218	-0,032	-0,017
-559,744	401,530	-0,018	-0,028
-558,729	-145,648	-0,139	0,009
-557,715	170,324	-0,116	-0,122
-556,700	-29,423	-0,166	-0,069
-555,685	-200,000	-0,022	-0,162
-554,671	-67,176	-0,037	0,011
-553,656	-82,790	0,096	-0,023
-552,642	24,979	-0,019	0,011
-551,627	44,969	-0,116	0,078
-550,612	480,111	-0,035	-0,059
-549,598	800,000	-0,076	-0,193
-548,583	-97,122	-0,086	-0,016
-547,569	114,903	-0,059	-0,053
-546,554	-55,092	0,056	-0,018
-545,539	-200,000	-0,005	0,077
-544,525	12,708	-0,097	-0,054
-543,510	112,711	0,125	-0,110
-542,496	489,262	-0,046	-0,078
-541,481	309,527	0,104	-0,142
-540,466	18,607	-0,063	-0,037
-539,452	800,000	-0,062	-0,132
-538,437	-200,000	0,008	-0,029
-537,423	-200,000	-0,010	-0,110
-536,408	-200,000	-0,008	0,032
-535,393	-200,000	0,006	-0,115
-534,379	6,627	-0,068	-0,037
-533,364	11,981	0,049	-0,027
-532,350	160,443	0,012	-0,013
-531,335	40,920	0,094	0,062
-530,321	-52,265	0,184	-0,062
-529,306	-65,767	-0,125	0,036
-528,291	9,115	-0,045	-0,025
-527,277	59,884	0,094	-0,067
-526,262	-200,000	0,030	0,134
-525,248	-141,680	0,042	0,003
-524,233	420,980	-0,041	0,065
-523,218	212,084	0,046	-0,052
-522,204	73,750	-0,138	0,106
-521,189	4,258	0,079	-0,042
-520,175	61,494	0,102	-0,074
-519,160	-69,387	0,019	0,005
-518,145	-60,193	0,069	0,021
-517,131	432,978	0,089	0,142
-516,116	16,534	0,048	0,028
-515,102	-200,000	-0,022	0,078
-514,087	13,935	-0,112	0,063
-513,072	-146,159	-0,130	-0,008
-512,058	-200,000	-0,014	0,091
-511,043	-161,329	0,032	0,001
-510,029	-200,000	0,002	-0,051
-509,014	192,810	-0,066	0,073
-507,999	-200,000	-0,013	0,063
-506,985	-48,000	-0,152	0,053
-505,970	-61,365	-0,126	0,038
-504,956	800,000	0,023	0,047
-503,941	55,109	-0,046	0,033
-502,926	3,447	0,022	0,012
-501,912	71,389	-0,122	0,092
-500,897	-62,633	-0,086	-0,026
-499,883	373,211	-0,048	-0,072
-498,868	-7,722	-0,051	0,025
-497,853	-181,802	-0,010	-0,000
-496,839	27,545	0,108	-0,066
-495,824	-167,483	-0,092	-0,003
-494,810	-200,000	-0,012	0,060
-493,795	-173,007	0,033	0,001
-492,781	800,000	0,053	-0,162
-491,766	-22,910	-0,134	-0,058
-490,751	-96,504	-0,081	-0,015
-489,737	-128,207	-0,158	0,016
-488,722	-200,000	-0,009	0,110
-487,708	21,046	0,103	0,061
-486,693	-200,000	-0,020	-0,124
-485,678	-24,888	-0,071	-0,031
-484,664	-200,000	0,023	-0,148
-483,649	-30,522	-0,134	-0,055
-482,635	226,538	-0,029	0,035
-481,620	-106,931	0,115	-0,018
-480,605	-200,000	-0,011	0,075
-479,591	258,617	0,039	0,049
-478,576	108,014	0,038	-0,033
-477,562	-200,000	0,029	0,094
-476,547	800,000	-0,032	-0,069
-475,532	-200,000	-0,022	-0,143
-474,518	-87,327	-0,122	0,027
-473,503	-200,000	-0,007	0,091
-472,489	22,673	0,048	0,029
-471,474	-11,343	0,079	0,038
-470,459	-2,824	0,083	0,042
-469,445	-12,363	0,068	-0,032
-468,430	-200,000	0,010	-0,054
-467,416	-82,360	-0,072	-0,017
-466,401	-124,556	0,089	0,010
-465,386	-200,000	-0,008	0,133
-464,372	163,053	0,018	-0,018
-463,357	800,000	0,028	-0,063
-462,343	-9,755	-0,091	0,044
-461,328	55,186	-0,008	-0,006
-460,313	-200,000	-0,039	0,160
-459,299	800,000	-0,027	0,055
-458,284	76,386	0,055	0,042
-457,270	-26,335	0,154	0,066
-456,255	-118,375	-0,058	0,007
-455,241	-45,628	0,156	0,056
-454,226	-91,786	-0,090	0,018
-453,211	31,109	-0,069	0,043
-452,197	800,000	0,010	0,030
-451,182	-85,519	-0,100	0,022
-450,168	75,102	0,021	-0,016
-449,153	-58,930	0,124	-0,039
-448,138	800,000	0,048	-0,126
-447,124	-29,295	0,104	0,043
-446,109	704,290	-0,034	0,065
-445,095	122,508	-0,103	0,093
-444,080	-200,000	0,022	0,097
-443,065	121,413	0,009	0,008
-442,051	261,886	0,024	-0,030
-441,036	511,187	-0,021	-0,035
-440,022	800,000	-0,033	0,095
-439,007	606,482	0,060	0,110
-437,992	-200,000	0,042	0,173
-436,978	-116,532	-0,073	-0,010
-435,963	-200,000	-0,003	0,099
-434,949	210,126	-0,060	-0,069
-433,934	134,497	0,044	0,041
-432,919	-62,440	0,086	0,026
-431,905	-200,000	-0,014	-0,045
-430,890	-200,000	0,006	0,034
-429,876	-200,000	0,018	0,103
-428,861	-200,000	-0,002	0,030
-427,846	-19,037	0,102	0,046
-426,832	800,000	-0,066	0,168
-425,817	217,547	0,125	-0,145
-424,803	-99,928	-0,098	0,018
-423,788	800,000	-0,028	-0,063
-422,773	-43,947	-0,104	-0,038
-421,759	-57,286	-0,080	0,025
-420,744	220,714	0,059	-0,069
-419,730	38,410	-0,088	-0,057
-418,715	64,478	0,050	0,037
-417,701	-49,789	0,028	-0,010
-416,686	174,440	-0,051	-0,054
-415,671	-200,000	-0,015	-0,086
-414,657	82,187	0,087	-0,069
-413,642	-200,000	0,012	0,103
-412,628	-88,103	-0,099	-0,021
-411,613	705,121	-0,007	-0,014
-410,598	281,026	-0,029	0,038
-409,584	302,728	-0,063	0,085
-408,569	-106,458	0,102	0,016
-407,555	-142,351	0,024	-0,002
-406,540	556,197	0,027	-0,047
-405,525	105,698	0,037	-0,032
-404,511	-138,967	-0,056	-0,004
-403,496	-90,713	-0,074	-0,015
-402,482	0,913	0,013	-0,007
-401,467	21,574	0,060	0,036
-400,452	-84,557	0,154	-0,035
-399,438	800,000	0,018	-0,041
-398,423	262,090	-0,053	0,067
-397,409	-132,091	-0,070	-0,006
-396,394	83,266	-0,047	-0,037
-395,379	-121,101	-0,103	0,012
-394,365	310,949	0,078	0,107
-393,350	-200,000	0,002	-0,030
-392,336	27,816	0,068	-0,042
-391,321	800,000	-0,003	-0,006
-390,306	416,554	0,056	-0,088
-389,292	65,676	-0,036	-0,027
-388,277	-170,870	0,148	-0,004
-387,263	-161,840	0,149	-0,005
-386,248	-33,652	0,100	0,040
-385,233	-23,774	-0,082	0,035
-384,219	-87,985	-0,029	0,006
-383,204	65,474	-0,131	-0,096
-382,190	-123,421	-0,069	-0,008
-381,175	-200,000	-0,001	0,061
-380,160	-200,000	0,002	0,155
-379,146	800,000	-0,003	-0,007
-378,131	-52,449	0,107	-0,036
-377,117	-90,843	0,056	-0,012
-376,102	-200,000	-0,030	0,099
-375,088	800,000	0,016	0,041
-374,073	800,000	-0,063	-0,150
-373,058	-142,086	-0,067	-0,005
-372,044	-125,633	0,035	-0,004
-371,029	-200,000	-0,014	0,074
-370,015	110,235	0,146	0,127
-369,000	272,680	-0,061	0,078
-367,985	45,671	-0,069	0,046
-366,971	575,892	0,102	0,181
-365,956	-128,360	0,069	-0,007
-364,942	-58,371	-0,044	0,014
-363,927	221,160	0,049	0,057
-362,912	-150,565	-0,143	0,008
-361,898	-200,000	-0,026	-0,093
-360,883	5,980	-0,104	-0,056
-359,869	8,799	0,036	0,020
-358,854	-68,014	0,030	-0,008
-357,839	362,468	0,047	-0,069
-356,825	59,016	0,068	0,049
-355,810	-51,993	-0,141	-0,047
-354,796	205,956	-0,008	-0,009
-353,781	40,526	-0,114	-0,074
-352,766	800,000	0,068	-0,156
-351,752	-200,000	0,008	-0,063
-350,737	-43,659	-0,181	-0,066
-349,723	-200,000	0,025	0,082
-348,708	-200,000	0,021	0,156
-347,693	-68,715	-0,067	0,019
-346,679	28,230	0,106	-0,065
-345,664	4,457	-0,049	-0,026
-344,650	-76,771	-0,050	0,013
-343,635	-200,000	-0,009	-0,040
-342,620	800,000	0,039	0,083
-341,606	7,756	0,128	0,069
-340,591	-127,377	-0,009	-0,001
-339,577	-200,000	0,008	-0,124
-338,562	122,401	-0,092	-0,084
-337,548	-200,000	-0,007	-0,043
-336,533	234,429	-0,045	0,053
-335,518	-200,000	-0,021	0,106
-334,504	-99,621	0,139	-0,025
-333,489	253,893	-0,052	-0,064
-332,475	61,644	-0,164	0,118
-331,460	800,000	-0,025	-0,066
-330,445	-200,000	-0,016	-0,071
-329,431	-47,349	-0,025	-0,009
-328,416	469,092	0,036	0,059
-327,402	797,254	0,052	0,104
-326,387	-2,873	-0,078	-0,039
-325,372	693,044	0,032	-0,062
-324,358	713,609	0,057	-0,109
-323,343	-119,389	-0,090	0,011
-322,329	313,492	0,024	-0,032
-321,314	-200,000	0,002	0,101
-320,299	193,557	-0,072	-0,079
-319,285	-200,000	0,015	-0,081
-318,270	98,534	-0,058	0,048
-317,256	-3,310	-0,100	0,050
-316,241	-200,000	0,006	0,038
-315,226	20,079	0,155	-0,090
-314,212	800,000	-0,030	-0,060
-313,197	655,177	0,030	0,056
-312,183	-153,166	0,067	-0,003
-311,168	168,191	0,071	-0,073
-310,153	46,957	-0,145	-0,098
-309,139	-109,132	-0,161	0,024
-308,124	799,753	-0,041	0,081
-307,110	800,000	0,021	0,067
-306,095	521,385	-0,054	0,091
-305,080	800,000	0,038	0,097
-304,066	65,501	-0,068	-0,050
-303,051	53,477	-0,050	0,035
-302,037	224,706	0,063	-0,074
-301,022	118,087	0,130	-0,116
-300,008	229,143	-0,020	-0,024
-298,993	383,346	0,057	-0,085
-297,978	-161,852	-0,114	0,004
-296,964	165,726	-0,075	-0,077
-295,949	-200,000	-0,006	-0,029
-294,935	-85,982	-0,147	-0,033
-293,920	-200,000	0,016	-0,118
-292,905	-200,000	-0,058	-0,226
-291,891	44,981	0,072	0,048
-290,876	397,552	-0,053	-0,080
-289,862	264,809	0,049	-0,061
-288,847	-77,298	0,049	-0,012
-287,832	-200,000	0,014	0,069
-286,818	-132,309	0,155	-0,014
-285,803	442,068	-0,040	0,064
-284,789	-79,224	-0,048	0,012
-283,774	75,223	0,073	0,056
-282,759	800,000	0,019	-0,049
-281,745	46,409	-0,059	-0,040
-280,730	-75,495	-0,081	0,021
-279,716	175,252	-0,040	-0,042
-278,701	-120,118	0,037	-0,005
-277,686	206,999	0,036	-0,041
-276,672	-200,000	0,008	0,052
-275,657	-200,000	-0,025	0,088
-274,643	-200,000	-0,007	-0,153
-273,628	467,473	0,031	0,050
-272,613	-0,715	0,008	-0,004
-271,599	250,082	-0,050	0,061
-270,584	-17,610	0,089	-0,040
-269,570	-200,000	-0,017	-0,110
-268,555	45,422	0,036	0,024
-267,540	279,889	-0,058	0,075
-266,526	800,000	-0,020	0,043
-265,511	-10,342	0,038	0,018
-264,497	21,885	-0,068	0,040
-263,482	577,385	0,039	0,068
-262,467	606,673	-0,021	0,038
-261,453	-200,000	-0,020	-0,070
-260,438	211,692	0,062	-0,070
-259,424	173,997	-0,054	-0,056
-258,409	-8,179	0,041	0,020
-257,395	286,495	-0,052	-0,068
-256,380	133,769	0,151	0,141
-255,365	-200,000	0,026	0,167
-254,351	-128,894	-0,087	0,009
-253,336	800,000	-0,023	-0,063
-252,322	800,000	0,018	0,057
-251,307	-200,000	-0,022	-0,138
-250,292	800,000	0,032	0,069
-249,278	191,713	-0,077	-0,083
-248,263	800,000	-0,021	-0,052
-247,249	-200,000	0,026	0,119
-246,234	800,000	-0,033	-0,099
-245,219	-152,576	0,096	0,005
-244,205	800,000	-0,048	-0,125
-243,190	224,789	0,083	-0,097
-242,176	-168,061	0,056	-0,002
-241,161	41,164	0,079	0,052
-240,146	800,000	0,037	-0,093
-239,132	-1,230	-0,068	0,035
-238,117	471,527	-0,016	0,026
-237,103	-200,000	0,008	-0,042
-236,088	18,304	-0,113	0,065
-235,073	-105,945	0,136	0,022
-234,059	-200,000	-0,042	0,148
-233,044	84,199	0,026	0,021
-232,030	205,982	-0,049	-0,055
-231,015	58,666	0,034	0,024
-230,000	145,067	-0,047	0,046
-228,986	-31,991	0,085	0,034
-227,971	216,259	0,061	-0,070
-226,957	-99,791	0,064	0,011
-225,942	-6,090	0,150	0,074
-224,927	55,469	-0,047	0,033
-223,913	606,911	-0,059	-0,106
-222,898	81,097	0,017	-0,013
-221,884	800,000	0,022	0,050
-220,869	32,019	0,090	0,056
-219,855	-58,534	-0,162	0,050
-218,840	-200,000	0,004	0,044
-217,825	-4,902	-0,027	0,013
-216,811	800,000	-0,038	-0,080
-215,796	87,390	-0,080	-0,063
-214,782	-200,000	-0,002	-0,016
-213,767	-63,264	0,011	-0,003
-212,752	-200,000	-0,013	0,176
-211,738	599,468	0,045	0,080
-210,723	-4,978	0,062	-0,031
-209,709	800,000	0,033	0,102
-208,694	158,718	0,070	0,070
-207,679	-200,000	-0,001	0,026
-206,665	800,000	-0,034	0,092
-205,650	-200,000	-0,034	0,119
-204,636	-32,578	0,032	0,013
-203,621	-24,759	-0,137	0,059
-202,606	695,222	0,085	-0,162
-201,592	179,565	-0,026	-0,027
-200,577	441,639	0,096	-0,152
-199,563	395,435	0,073	0,110
-198,548	-16,584	0,093	-0,042
-197,533	-76,328	0,109	-0,027
-196,519	800,000	-0,053	0,148
-195,504	644,540	-0,054	-0,099
-194,490	-23,632	0,107	-0,046
-193,475	-200,000	0,007	-0,116
-192,460	800,000	-0,021	-0,057
-191,446	-200,000	0,035	-0,115
-190,431	-104,751	0,174	-0,029
-189,417	-14,510	0,142	0,066
-188,402	177,168	-0,042	0,044
-187,387	-66,337	-0,110	0,031
-186,373	137,927	0,040	0,038
-185,358	-91,421	0,103	-0,021
-184,344	-200,000	0,014	-0,069
-183,329	800,000	0,031	0,068
-182,315	6,859	0,065	-0,035
-181,300	-12,432	-0,180	-0,084
-180,285	-113,510	-0,051	0,007
-179,271	217,692	-0,092	-0,106
-178,256	71,201	-0,148	0,110
-177,242	-145,622	0,097	0,006
-176,227	239,361	0,105	0,126
-175,212	800,000	0,028	-0,062
-174,198	-127,765	-0,092	0,009
-173,183	14,149	-0,054	0,030
-172,169	-148,859	0,017	0,001
-171,154	-200,000	-0,012	0,111
-170,139	-69,334	0,170	-0,047
-169,125	-50,788	0,032	-0,011
-168,110	800,000	-0,042	0,130
-167,096	65,605	0,078	0,057
-166,081	48,294	-0,085	-0,057
-165,066	800,000	0,035	-0,110
-164,052	-57,090	-0,065	-0,021
-163,037	800,000	-0,018	-0,050
-162,023	117,945	-0,102	-0,091
-161,008	161,892	0,056	-0,056
-159,993	-117,957	-0,049	0,006
-158,979	9,624	0,087	0,047
-157,964	800,000	-0,040	0,089
-156,950	-38,059	-0,053	0,020
-155,935	-200,000	-0,022	-0,199
-154,920	-200,000	-0,005	0,071
-153,906	703,006	0,099	0,188
-152,891	86,077	0,072	-0,057
-151,877	-200,000	-0,021	0,101
-150,862	132,343	-0,010	-0,009
-149,847	-69,641	0,080	-0,022
-148,833	41,219	-0,082	-0,053
-147,818	-200,000	-0,001	0,105
-146,804	-97,194	0,087	-0,016
-145,789	433,990	0,054	0,085
-144,775	-200,000	0,010	0,082
-143,760	37,175	0,061	0,039
-142,745	152,628	-0,059	-0,058
-141,731	21,880	0,105	0,061
-140,716	-200,000	-0,005	0,076
-139,702	720,040	0,066	0,126
-138,687	-200,000	0,008	0,103
-137,672	122,336	-0,086	-0,077
-136,658	800,000	-0,035	0,083
-135,643	30,531	-0,069	-0,042
-134,629	-32,793	-0,055	-0,022
-133,614	702,645	0,051	0,097
-132,599	-200,000	-0,008	-0,077
-131,585	-5,606	-0,023	0,011
-130,570	165,089	-0,052	-0,053
-129,556	55,395	-0,159	-0,110
-128,541	800,000	-0,023	0,051
-127,526	4,323	0,144	-0,075
-126,512	800,000	-0,022	0,049
-125,497	-200,000	0,029	0,127
-124,483	-52,794	-0,153	0,050
-123,468	-187,186	0,114	0,001
-122,453	-0,667	-0,131	0,066
-121,439	-111,852	-0,051	0,007
-120,424	800,000	0,029	0,071
-119,410	-68,890	-0,056	-0,016
-118,395	223,787	0,092	0,107
-117,380	-183,409	-0,106	-0,001
-116,366	519,123	0,057	0,097
-115,351	209,570	-0,110	0,124
-114,337	-200,000	0,000	-0,117
-113,322	-200,000	-0,006	0,209
-112,307	-122,946	0,065	-0,007
-111,293	-200,000	-0,006	0,089
-110,278	-99,779	0,166	-0,030
-109,264	-62,723	0,092	0,027
-108,249	-51,709	-0,089	0,029
-107,234	-39,765	-0,079	-0,030
-106,220	114,865	-0,126	-0,110
-105,205	94,166	0,111	-0,090
-104,191	-54,885	-0,074	0,024
-103,176	-143,741	-0,050	0,003
-102,162	800,000	-0,076	0,193
-101,147	27,655	-0,143	-0,086
-100,132	390,776	-0,052	-0,078
-99,118	800,000	-0,031	-0,072
-98,103	-50,566	-0,036	-0,012
-97,089	-200,000	0,008	0,083
-96,074	58,847	-0,015	0,010
-95,059	-1,358	-0,113	-0,057
-94,045	82,116	0,072	-0,056
-93,030	138,770	0,017	-0,016
-92,016	120,819	0,050	0,045
-91,001	800,000	0,041	-0,087
-89,986	157,121	0,094	0,093
-88,972	-64,649	-0,169	0,049
-87,957	286,738	0,083	0,107
-86,943	-112,771	-0,134	-0,019
-85,928	800,000	0,051	-0,117
-84,913	-67,694	-0,046	0,013
-83,899	160,905	-0,019	-0,019
-82,884	-162,002	0,106	-0,004
-81,870	-97,378	0,035	0,007
-80,855	42,394	-0,048	-0,031
-79,840	800,000	-0,014	0,038
-78,826	118,235	0,074	0,065
-77,811	-79,350	-0,147	-0,035
-76,797	300,639	-0,034	-0,046
-75,782	800,000	-0,005	-0,016
-74,767	-200,000	0,033	0,147
-73,753	-200,000	-0,041	0,133
-72,738	800,000	-0,033	0,078
-71,724	215,129	0,052	-0,060
-70,709	137,688	-0,097	-0,091
-69,694	372,167	-0,077	0,113
-68,680	-200,000	0,014	0,077
-67,665	-200,000	0,022	0,137
-66,651	-200,000	0,001	0,139
-65,636	777,628	0,012	0,023
-64,622	800,000	0,020	-0,046
-63,607	-162,803	-0,062	0,002
-62,592	616,443	-0,014	-0,026
-61,578	800,000	-0,018	0,047
-60,563	224,564	0,107	0,124
-59,549	-200,000	0,007	0,124
-58,534	43,170	-2,064	-1,347
-57,519	-200,000	-0,058	-0,805
-56,505	-200,000	-1,375	-4,991
-55,490	72,863	0,797	0,596
-54,476	800,000	5,366	12,051
-53,461	-200,000	18,151	296,256
-52,446	800,000	730,941	2236,787
-51,432	532,197	1643,884	2796,783
-50,417	107,480	1632,751	1390,958
-49,403	71,592	1284,033	954,247
-48,388	30,314	1024,971	625,516
-47,373	19,760	986,720	567,497
-46,359	17,741	974,260	553,719
-45,344	14,596	970,607	541,372
-44,330	14,884	969,017	541,400
-43,315	14,336	967,173	538,566
-42,300	14,287	966,154	537,818
-41,286	14,290	965,239	537,297
-40,271	14,291	964,158	536,679
-39,257	14,291	963,303	536,182
-38,242	14,290	962,567	535,745
-37,227	14,319	961,659	535,314
-36,213	14,273	960,806	534,669
-35,198	14,243	959,793	533,987
-34,184	14,301	959,061	533,745
-33,169	14,269	958,095	533,085
-32,154	14,311	957,421	532,825
-31,140	14,326	956,528	532,353
-30,125	14,311	955,612	531,775
-29,111	14,322	954,813	531,345
-28,096	14,354	954,065	531,011
-27,082	14,302	953,471	530,490
-26,067	14,304	952,692	530,044
-25,052	14,301	952,087	529,677
-24,038	14,343	951,040	529,205
-23,023	14,283	950,709	528,809
-22,009	14,344	950,067	528,627
-20,994	14,297	949,455	528,114
-19,979	14,346	948,661	527,809
-18,965	14,323	948,041	527,369
-17,950	14,298	947,466	526,949
-16,936	14,243	946,958	526,471
-15,921	14,267	946,283	526,149
-14,906	14,174	945,467	525,379
-13,892	14,204	944,880	525,130
-12,877	14,236	944,217	524,842
-11,863	14,171	943,507	524,219
-10,848	14,169	943,151	523,995
-9,833	14,236	942,811	523,997
-8,819	14,310	941,864	523,683
-7,804	14,229	941,295	523,091
-6,790	14,215	940,567	522,622
-5,775	14,191	940,139	522,286
-4,760	14,217	939,558	522,026
-3,746	14,212	939,023	521,691
-2,731	14,098	938,034	520,763
-1,717	14,040	937,494	520,259
-0,702	14,015	936,988	519,880
0,313	13,890	936,255	519,864
1,327	17,424	934,231	529,782
2,342	26,868	787,114	471,115
3,356	23,897	442,942	260,718
4,371	-5,502	295,360	144,534
5,386	-9,533	277,202	131,823
6,400	-10,643	271,531	128,085
7,415	-10,679	269,118	126,902
8,429	-10,836	267,842	126,145
9,444	-11,008	266,913	125,539
10,459	-11,174	266,322	125,099
11,473	-11,166	265,506	124,712
12,488	-11,335	265,091	124,353
13,502	-11,462	264,396	123,901
14,517	-11,435	264,027	123,741
15,531	-11,492	263,747	123,548
16,546	-11,470	263,302	123,348
17,561	-11,501	262,838	123,092
18,575	-11,501	262,759	123,044
19,590	-11,458	262,301	122,857
20,604	-11,322	261,838	122,751
21,619	-11,620	261,603	122,364
22,634	-11,380	261,080	122,323
23,648	-11,586	260,809	122,001
24,663	-11,663	260,678	121,861
25,677	-11,555	260,434	121,832
26,692	-11,601	260,114	121,630
27,707	-11,729	259,933	121,421
28,721	-11,607	259,484	121,309
29,736	-11,688	259,308	121,143
30,750	-11,730	258,984	120,944
31,765	-11,736	258,930	120,903
32,780	-11,820	258,529	120,631
33,794	-11,652	258,236	120,631
34,809	-11,898	258,065	120,324
35,823	-11,813	257,813	120,271
36,838	-11,662	257,436	120,217
37,853	-11,654	257,273	120,137
38,867	-11,800	257,050	119,894
39,882	-11,809	256,883	119,798
40,896	-11,795	256,623	119,678
41,911	-11,874	256,528	119,554
42,926	-11,779	256,203	119,475
43,940	-11,780	255,838	119,293
44,955	-11,836	255,793	119,213
45,969	-11,927	255,493	118,984
46,984	-12,272	255,394	118,626
47,999	-12,246	254,991	118,451
49,013	-12,582	254,742	118,033
50,028	-12,331	254,228	118,002
51,042	-12,697	254,239	117,680
52,057	-12,535	253,951	117,675
53,071	-12,459	253,686	117,609
54,086	-12,404	253,530	117,573
55,101	-12,415	253,473	117,527
56,115	-12,194	253,292	117,623
57,130	-11,613	253,278	118,107
58,144	-11,277	253,020	118,265
59,159	-11,398	252,769	118,033
60,174	-11,415	252,748	117,998
61,188	-11,378	252,325	117,822
62,203	-11,568	252,336	117,653
63,217	-11,353	251,814	117,584
64,232	-11,524	251,750	117,397
65,247	-11,302	251,524	117,470
66,261	-11,493	251,220	117,155
67,276	-11,795	250,994	116,782
68,290	-12,002	250,670	116,444
69,305	-12,267	250,546	116,150
70,320	-12,183	250,360	116,125
71,334	-11,740	250,143	116,391
72,349	-11,430	249,937	116,548
73,363	-11,511	249,779	116,395
74,378	-11,413	249,607	116,388
75,393	-11,607	249,354	116,095
76,407	-11,562	249,176	116,040
77,422	-11,735	249,077	115,837
78,436	-11,497	248,788	115,893
79,451	-11,556	248,666	115,777
80,466	-11,781	248,444	115,473
81,480	-11,908	247,918	115,111
82,495	-12,049	247,912	114,979
83,509	-11,667	247,549	115,122
84,524	-11,950	247,381	114,795
85,539	-11,922	247,195	114,723
86,553	-12,017	247,076	114,578
87,568	-11,989	246,883	114,501
88,582	-12,159	246,846	114,332
89,597	-12,067	246,608	114,289
90,611	-11,795	246,367	114,394
91,626	-11,670	246,208	114,414
92,641	-11,588	246,083	114,414
93,655	-11,626	245,781	114,232
94,670	-11,750	245,553	114,013
95,684	-11,743	245,351	113,915
96,699	-11,810	245,181	113,770
97,714	-11,830	245,067	113,690
98,728	-11,926	244,680	113,421
99,743	-12,183	244,598	113,160
100,757	-11,957	244,201	113,153
101,772	-12,142	244,204	112,991
102,787	-12,002	243,999	113,002
103,801	-12,068	243,956	112,917
104,816	-11,707	243,645	113,062
105,830	-11,469	243,458	113,161
106,845	-11,507	243,457	113,119
107,860	-11,650	243,317	112,926
108,874	-11,779	243,009	112,666
109,889	-11,818	242,858	112,554
110,903	-11,580	242,504	112,576
111,918	-11,857	242,407	112,294
112,933	-11,710	242,119	112,271
113,947	-11,546	242,030	112,354
114,962	-11,629	241,908	112,219
115,976	-11,610	241,822	112,185
116,991	-11,572	241,393	112,007
118,006	-11,822	241,381	111,787
119,020	-11,785	241,211	111,728
120,035	-11,866	241,281	111,685
121,049	-11,602	240,951	111,738
122,064	-11,472	240,706	111,719
123,079	-11,791	240,636	111,417
124,093	-11,857	240,331	111,212
125,108	-11,941	240,048	111,004
126,122	-12,425	239,890	110,528
127,137	-12,186	239,643	110,598
128,151	-12,239	239,454	110,458
129,166	-12,100	239,306	110,492
130,181	-12,076	239,119	110,415
131,195	-11,972	239,057	110,461
132,210	-11,764	238,804	110,502
133,224	-11,781	238,645	110,405
134,239	-11,822	238,655	110,367
135,254	-11,608	238,289	110,360
136,268	-11,791	238,061	110,097
137,283	-12,134	237,982	109,775
138,297	-12,209	237,599	109,529
139,312	-12,158	237,371	109,455
140,327	-11,859	237,462	109,726
141,341	-11,306	237,346	110,107
142,356	-11,342	237,201	110,001
143,370	-11,270	236,933	109,924
144,385	-11,268	237,002	109,948
145,400	-11,312	236,704	109,765
146,414	-11,206	236,409	109,703
147,429	-11,363	236,208	109,475
148,443	-11,504	236,130	109,317
149,458	-11,438	236,052	109,323
150,473	-11,403	235,892	109,267
151,487	-11,295	235,554	109,187
152,502	-11,548	235,733	109,059
153,516	-11,521	235,451	108,940
154,531	-11,305	235,119	108,948
155,546	-11,339	235,045	108,877
156,560	-11,498	234,811	108,633
157,575	-11,600	234,481	108,389
158,589	-11,371	234,409	108,527
159,604	-11,315	234,464	108,588
160,619	-11,312	234,107	108,415
161,633	-11,240	234,010	108,418
162,648	-11,130	233,829	108,410
163,662	-11,375	233,639	108,120
164,677	-11,306	233,487	108,094
165,692	-11,574	233,404	107,835
166,706	-11,250	233,321	108,042
167,721	-11,148	233,019	107,973
168,735	-11,131	232,994	107,965
169,750	-11,229	232,823	107,799
170,764	-11,311	232,774	107,703
171,779	-11,241	232,559	107,648
172,794	-11,135	232,405	107,651
173,808	-11,380	232,014	107,268
174,823	-12,066	231,887	106,664
175,837	-11,994	231,632	106,594
176,852	-11,671	231,515	106,782
177,867	-11,225	231,514	107,120
178,881	-11,400	231,477	106,957
179,896	-11,121	231,189	107,031
180,910	-11,229	230,997	106,849
181,925	-11,236	230,982	106,826
182,940	-11,159	230,651	106,723
183,954	-11,072	230,675	106,793
184,969	-11,020	230,416	106,704
185,983	-11,047	230,294	106,617
186,998	-11,031	230,204	106,578
188,013	-11,095	230,004	106,427
189,027	-11,024	229,791	106,373
190,042	-11,007	229,599	106,288
191,056	-11,090	229,644	106,235
192,071	-10,931	229,350	106,212
193,086	-10,972	229,245	106,123
194,100	-10,794	229,143	106,203
195,115	-10,672	228,931	106,189
196,129	-10,177	229,178	106,675
197,144	-5,260	230,738	111,200
198,159	-0,291	232,207	115,760
199,173	2,352	232,989	118,196
200,188	2,724	232,889	118,424
201,202	2,904	232,694	118,454
202,217	3,057	232,621	118,524
203,232	3,138	232,595	118,563
204,246	3,508	232,465	118,774
205,261	3,581	232,227	118,698
206,275	3,785	232,076	118,768
207,290	3,652	232,067	118,650
208,304	3,527	231,906	118,461
209,319	3,558	231,658	118,347
210,334	3,627	231,484	118,301
211,348	3,317	231,362	117,989
212,363	2,991	231,019	117,553
213,377	2,753	230,859	117,278
214,392	2,799	230,664	117,203
215,407	2,831	230,589	117,180
216,421	2,732	230,495	117,045
217,436	3,080	230,117	117,110
218,450	2,497	230,021	116,604
219,465	2,833	229,772	116,724
220,480	2,879	229,646	116,685
221,494	2,711	229,595	116,520
222,509	2,853	229,448	116,544
223,523	3,188	229,307	116,717
224,538	2,754	229,321	116,383
225,553	2,657	229,097	116,185
226,567	2,880	228,865	116,227
227,582	3,059	228,960	116,401
228,596	3,523	228,662	116,592
229,611	2,982	228,421	116,047
230,626	2,902	228,226	115,877
231,640	2,672	228,041	115,599
232,655	3,246	228,068	116,038
233,669	3,305	228,060	116,067
234,684	3,365	227,861	116,002
235,699	3,287	227,637	115,819
236,713	3,076	227,355	115,505
237,728	2,864	227,213	115,263
238,742	2,790	226,907	115,041
239,757	3,131	226,873	115,270
240,772	2,895	226,752	115,021
241,786	3,059	226,602	115,059
242,801	2,974	226,483	114,923
243,815	3,442	226,410	115,228
244,830	3,144	226,407	114,992
245,844	3,081	226,064	114,761
246,859	2,914	225,796	114,489
247,874	3,047	225,880	114,622
248,888	3,137	225,699	114,587
249,903	3,039	225,466	114,384
250,917	3,002	225,353	114,290
251,932	2,977	225,243	114,205
252,947	2,762	224,980	113,901
253,961	2,778	224,842	113,833
254,976	2,798	224,776	113,804
255,990	2,989	224,744	113,920
257,005	3,266	224,461	113,973
258,020	2,911	224,401	113,668
259,034	3,293	224,162	113,821
260,049	3,241	224,051	113,715
261,063	3,065	223,925	113,510
262,078	3,331	223,857	113,664
263,093	3,066	223,717	113,386
264,107	3,116	223,621	113,364
265,122	3,047	223,492	113,237
266,136	3,481	223,315	113,459
267,151	3,351	223,230	113,309
268,166	3,019	222,902	112,888
269,180	2,551	222,742	112,451
270,195	2,683	222,613	112,473
271,209	2,957	222,337	112,526
272,224	2,755	222,329	112,363
273,239	3,011	222,175	112,464
274,253	2,845	221,865	112,174
275,268	2,922	221,707	112,141
276,282	2,665	221,656	111,917
277,297	2,829	221,446	111,921
278,312	2,809	221,384	111,865
279,326	2,709	221,459	111,819
280,341	2,988	221,190	111,878
281,355	3,102	221,175	111,944
282,370	2,814	220,960	111,615
283,384	2,679	220,724	111,387
284,399	2,668	220,472	111,242
285,414	2,573	220,378	111,115
286,428	2,961	220,260	111,328
287,443	2,973	220,254	111,324
288,457	3,003	219,980	111,198
289,472	2,776	219,897	110,980
290,487	2,444	219,599	110,579
291,501	2,529	219,304	110,482
292,516	2,393	219,333	110,389
293,530	2,692	219,257	110,557
294,545	2,597	219,090	110,394
295,560	2,876	219,067	110,575
296,574	3,107	218,926	110,661
297,589	2,814	218,722	110,336
298,603	2,797	218,550	110,228
299,618	3,095	218,453	110,384
300,633	3,065	218,347	110,299
301,647	3,048	218,365	110,286
302,662	3,250	218,208	110,342
303,676	3,202	217,974	110,179
304,691	3,069	217,924	110,049
305,706	3,114	217,844	110,031
306,720	3,358	217,445	109,995
307,735	2,899	217,485	109,675
308,749	2,633	217,152	109,307
309,764	3,201	217,046	109,651
310,779	3,271	217,013	109,675
311,793	3,058	216,787	109,398
312,808	2,904	216,779	109,274
313,822	3,028	216,577	109,251
314,837	2,943	216,346	109,064
315,852	2,654	216,256	108,803
316,866	2,922	216,158	108,936
317,881	2,946	216,160	108,943
318,895	3,139	215,768	108,874
319,910	2,810	215,589	108,540
320,925	2,522	215,413	108,237
321,939	2,379	215,270	108,053
322,954	2,714	215,187	108,240
323,968	2,900	215,210	108,374
324,983	3,073	215,085	108,424
325,997	3,281	214,937	108,487
327,012	3,079	214,809	108,270
328,027	2,895	214,668	108,059
329,041	3,380	214,714	108,416
330,056	3,094	214,434	108,063
331,070	2,989	214,209	107,866
332,085	2,544	213,961	107,417
333,100	2,690	213,620	107,340
334,114	2,862	213,753	107,518
335,129	2,955	213,753	107,574
336,143	3,158	213,442	107,550
337,158	2,907	213,419	107,353
338,173	2,961	213,283	107,312
339,187	2,900	213,002	107,119
340,202	2,853	212,835	106,992
341,216	2,764	212,666	106,835
342,231	2,721	212,702	106,813
343,246	2,783	212,494	106,743
344,260	2,946	212,429	106,815
345,275	3,017	212,301	106,791
346,289	3,124	212,197	106,804
347,304	2,969	212,173	106,674
348,319	2,841	211,962	106,469
349,333	2,859	211,714	106,348
350,348	2,817	211,782	106,343
351,362	3,048	211,507	106,355
352,377	3,266	211,299	106,393
353,392	2,918	211,318	106,152
354,406	3,177	211,083	106,204
355,421	196,554	1337,934	1416,081
356,435	157,047	1475,180	1416,030
