DTS Sentinel unit serial number:	SN410029Multiplexer serial number:	ORYXHardware model number:	OX2-SRSoftware version number:	ORYX F/W v4,00 Oryx Data Collector v3.7.2.0data status	okinstallation	B6 Nyhavnadifferential loss correction	single-endedforward channel	channel 2reverse channel	N/Adate	2023/12/07time	14:25:08forward acquisition time	300,00reverse acquisition time	0,00gamma	499,1914k internal	0,3197k external	0,3197temperature offset calibration	1,0000default loss term (dB/km)	0,3820temperature slope calibration	1,0000multiplexer offset coefficient	1,0000multiplexer slope coefficient	1,0000fibre end	0,00T internal ref (°C)	13,64T ext. ref 1 (°C)	-1,74T ext. ref 2 (°C)	-1,73length (m)	temperature (°C)	Stokes	anti-Stokes-744,400	27,495	0,148	0,090
-743,385	-81,425	-0,256	0,061
-742,371	-55,352	0,141	-0,046
-741,356	-94,243	-0,298	-0,059
-740,342	-40,490	0,155	0,058
-739,327	-178,198	-0,339	-0,006
-738,312	9,600	0,119	-0,066
-737,298	-154,860	-0,358	-0,017
-736,283	347,921	0,141	0,203
-735,269	-159,209	-0,270	0,011
-734,254	-128,261	0,231	0,024
-733,239	-68,233	-0,611	-0,172
-732,225	-82,216	0,176	0,041
-731,210	76,178	-0,068	0,052
-730,196	800,000	0,028	-0,064
-729,181	-177,171	-0,186	0,003
-728,167	800,000	0,065	-0,177
-727,152	800,000	0,020	0,042
-726,137	-200,000	-0,019	-0,122
-725,123	15,496	-0,086	-0,049
-724,108	-200,000	0,009	-0,057
-723,094	800,000	-0,040	-0,110
-722,079	67,560	0,020	0,015
-721,064	-86,167	0,038	0,008
-720,050	-200,000	0,040	-0,144
-719,035	84,567	-0,064	0,051
-718,021	-92,926	-0,104	0,021
-717,006	-195,781	-0,116	0,001
-715,991	114,074	-0,100	0,089
-714,977	315,633	-0,038	0,052
-713,962	109,004	-0,065	-0,057
-712,948	800,000	0,026	0,075
-711,933	-32,194	-0,172	0,069
-710,918	295,248	0,039	0,051
-709,904	-9,072	0,034	-0,017
-708,889	313,195	-0,077	0,105
-707,875	-9,927	-0,127	0,061
-706,860	148,573	0,111	-0,110
-705,845	-186,002	0,096	0,001
-704,831	26,231	-0,139	0,084
-703,816	800,000	-0,039	-0,124
-702,802	477,332	-0,052	-0,086
-701,787	148,405	0,044	-0,043
-700,772	-200,000	-0,010	0,040
-699,758	-89,046	-0,131	-0,028
-698,743	632,047	0,010	-0,018
-697,729	4,533	-0,179	0,095
-696,714	132,549	-0,060	0,056
-695,699	430,881	-0,062	0,098
-694,685	-21,174	-0,059	-0,026
-693,670	463,102	-0,049	-0,080
-692,656	-200,000	-0,005	0,040
-691,641	-200,000	0,007	-0,051
-690,627	107,579	0,113	-0,098
-689,612	-5,565	-0,044	-0,022
-688,597	60,457	-0,056	0,040
-687,583	-195,905	-0,071	0,000
-686,568	-200,000	0,002	-0,048
-685,554	800,000	-0,026	-0,076
-684,539	800,000	0,040	-0,092
-683,524	-50,973	-0,072	0,025
-682,510	800,000	-0,050	0,126
-681,495	-183,570	0,139	-0,002
-680,481	-9,109	0,055	-0,027
-679,466	199,139	0,095	-0,106
-678,451	705,180	0,015	-0,030
-677,437	-53,981	0,038	-0,013
-676,422	-200,000	0,015	0,098
-675,408	-166,718	-0,049	0,001
-674,393	-200,000	0,013	-0,148
-673,378	-100,869	0,036	-0,006
-672,364	-116,807	-0,089	0,012
-671,349	-200,000	-0,002	0,044
-670,335	-200,000	-0,016	0,084
-669,320	112,700	0,046	0,041
-668,305	624,019	0,098	0,180
-667,291	-200,000	-0,025	-0,100
-666,276	-161,314	-0,054	-0,002
-665,262	149,495	0,109	-0,108
-664,247	-63,056	-0,087	0,026
-663,232	-200,000	-0,003	-0,181
-662,218	523,545	0,030	0,051
-661,203	-167,360	-0,071	-0,002
-660,189	184,064	-0,093	0,101
-659,174	395,181	-0,050	-0,076
-658,159	-14,835	-0,148	-0,069
-657,145	161,605	-0,056	-0,057
-656,130	-182,402	0,078	0,001
-655,116	448,866	0,038	0,061
-654,101	27,382	0,115	0,070
-653,086	95,741	-0,141	-0,117
-652,072	-150,697	-0,096	-0,005
-651,057	800,000	0,010	0,029
-650,043	-200,000	0,003	-0,078
-649,028	36,886	-0,068	-0,044
-648,014	-146,232	0,039	0,002
-646,999	36,364	0,033	-0,021
-645,984	554,205	-0,054	0,094
-644,970	-22,384	-0,113	0,049
-643,955	82,683	-0,050	0,039
-642,941	-200,000	-0,021	-0,133
-641,926	89,678	-0,082	0,066
-640,911	-200,000	0,036	0,115
-639,897	-24,908	0,110	0,047
-638,882	160,349	0,033	-0,033
-637,868	-200,000	0,028	0,113
-636,853	-200,000	-0,030	-0,135
-635,838	-200,000	-0,001	-0,038
-634,824	49,308	0,056	-0,038
-633,809	-20,406	-0,038	0,017
-632,795	-200,000	0,038	0,126
-631,780	-200,000	0,003	0,047
-630,765	-200,000	0,002	-0,036
-629,751	-200,000	0,011	-0,119
-628,736	800,000	-0,070	-0,161
-627,722	800,000	0,068	-0,162
-626,707	-87,767	-0,012	-0,003
-625,692	-17,771	-0,096	0,043
-624,678	30,499	0,042	0,026
-623,663	-12,833	-0,109	-0,051
-622,649	51,073	0,163	-0,112
-621,634	14,246	-0,073	-0,041
-620,619	800,000	-0,021	-0,049
-619,605	-117,858	0,100	-0,013
-618,590	117,071	0,138	-0,123
-617,576	-200,000	-0,001	0,074
-616,561	-200,000	-0,004	0,020
-615,546	-22,050	-0,156	0,068
-614,532	148,843	-0,117	-0,114
-613,517	-200,000	-0,012	-0,113
-612,503	75,696	-0,070	-0,054
-611,488	23,088	0,052	-0,031
-610,474	-99,742	-0,024	0,004
-609,459	165,287	-0,064	0,066
-608,444	-200,000	0,011	-0,165
-607,430	178,763	0,100	-0,106
-606,415	800,000	0,028	-0,084
-605,401	-200,000	0,029	0,125
-604,386	-4,510	0,065	-0,033
-603,371	31,831	-0,132	0,082
-602,357	800,000	-0,019	0,040
-601,342	800,000	-0,042	0,088
-600,328	477,646	-0,085	-0,140
-599,313	-200,000	-0,009	-0,050
-598,298	761,875	0,048	0,095
-597,284	-111,305	-0,098	-0,014
-596,269	800,000	-0,024	0,068
-595,255	-200,000	0,002	-0,114
-594,240	78,419	0,044	-0,034
-593,225	403,921	-0,039	-0,060
-592,211	118,499	-0,087	-0,077
-591,196	188,338	-0,060	-0,065
-590,182	680,055	0,037	0,070
-589,167	-200,000	0,017	0,097
-588,152	-25,748	-0,107	-0,045
-587,138	553,745	0,049	0,086
-586,123	12,121	-0,160	-0,089
-585,109	141,909	-0,074	-0,071
-584,094	0,802	0,005	0,003
-583,079	-200,000	-0,027	0,140
-582,065	57,692	0,146	0,103
-581,050	-6,259	-0,041	-0,020
-580,036	778,980	-0,040	-0,079
-579,021	-115,995	-0,048	0,006
-578,006	136,618	-0,054	-0,051
-576,992	-200,000	0,004	-0,041
-575,977	-200,000	-0,016	-0,135
-574,963	800,000	-0,037	-0,118
-573,948	3,036	0,100	0,052
-572,934	29,820	-0,075	0,046
-571,919	-200,000	-0,002	-0,054
-570,904	-170,198	0,110	0,003
-569,890	137,193	-0,066	0,062
-568,875	17,498	-0,094	0,054
-567,861	-200,000	0,011	-0,105
-566,846	800,000	-0,044	-0,110
-565,831	66,859	-0,045	-0,033
-564,817	220,608	0,060	-0,070
-563,802	-200,000	0,014	-0,058
-562,788	153,628	-0,067	-0,066
-561,773	-124,318	0,096	0,011
-560,758	83,228	0,136	0,107
-559,744	-21,511	-0,063	0,027
-558,729	-34,636	0,070	-0,028
-557,715	-49,277	0,050	0,017
-556,700	672,050	0,083	0,157
-555,685	122,032	-0,065	0,059
-554,671	-128,933	0,140	-0,014
-553,656	-200,000	0,015	-0,088
-552,642	317,659	-0,031	-0,043
-551,627	-200,000	0,025	0,151
-550,612	800,000	-0,043	-0,090
-549,598	-172,048	-0,053	0,001
-548,583	303,867	-0,063	-0,085
-547,569	344,640	0,066	0,093
-546,554	-200,000	0,007	-0,027
-545,539	20,961	-0,072	-0,042
-544,525	-181,996	-0,037	-0,000
-543,510	800,000	-0,038	-0,110
-542,496	415,403	0,040	-0,063
-541,481	-80,809	-0,172	-0,041
-540,466	800,000	0,030	-0,063
-539,452	-155,839	-0,111	-0,005
-538,437	-107,987	0,148	-0,023
-537,423	-78,060	-0,147	0,036
-536,408	145,025	0,122	0,118
-535,393	-14,905	-0,166	0,077
-534,379	-83,079	-0,158	-0,036
-533,364	761,933	0,053	-0,104
-532,350	336,606	-0,014	-0,019
-531,335	800,000	0,077	0,156
-530,321	133,219	0,102	0,095
-529,306	-200,000	-0,170	0,000
-528,291	-95,858	0,130	0,025
-527,277	800,000	-0,020	-0,051
-526,262	-200,000	-0,024	-0,083
-525,248	-66,795	-0,064	0,018
-524,233	601,493	0,050	0,091
-523,218	800,000	-0,042	0,101
-522,204	-148,795	0,145	-0,008
-521,189	15,989	0,042	-0,024
-520,175	-200,000	0,027	-0,099
-519,160	-92,470	0,049	-0,010
-518,145	151,141	-0,059	-0,058
-517,131	800,000	0,021	0,052
-516,116	800,000	-0,019	-0,050
-515,102	226,059	-0,029	0,034
-514,087	-200,000	-0,008	-0,058
-513,072	59,876	-0,033	-0,023
-512,058	800,000	-0,035	-0,085
-511,043	-200,000	-0,028	-0,097
-510,029	220,033	-0,060	0,069
-509,014	-65,526	0,023	0,007
-507,999	-39,702	0,004	-0,001
-506,985	128,568	0,035	-0,032
-505,970	-165,052	0,036	-0,001
-504,956	457,254	0,036	-0,058
-503,941	-200,000	-0,001	0,052
-502,926	667,668	0,022	0,041
-501,912	-200,000	-0,017	0,085
-500,897	-5,979	-0,075	-0,037
-499,883	-200,000	-0,006	-0,036
-498,868	-200,000	-0,008	-0,041
-497,853	-200,000	-0,000	-0,126
-496,839	65,233	0,073	0,053
-495,824	75,718	0,059	-0,045
-494,810	196,412	-0,055	0,061
-493,795	140,812	-0,054	-0,052
-492,781	-200,000	-0,006	0,172
-491,766	-166,532	0,071	0,002
-490,751	118,229	-0,031	-0,027
-489,737	-100,710	-0,027	-0,005
-488,722	12,333	0,111	0,061
-487,708	66,619	-0,105	-0,077
-486,693	165,454	-0,044	0,045
-485,678	-13,254	0,079	0,037
-484,664	184,514	0,032	0,034
-483,649	-9,784	-0,039	-0,019
-482,635	87,478	0,158	-0,126
-481,620	17,449	-0,034	0,019
-480,605	-121,239	0,129	-0,015
-479,591	800,000	-0,022	0,053
-478,576	-21,645	-0,056	0,025
-477,562	-50,159	0,014	0,005
-476,547	-129,799	-0,118	-0,012
-475,532	-89,961	-0,042	-0,009
-474,518	-53,987	0,115	-0,038
-473,503	-200,000	0,017	-0,060
-472,489	-143,180	0,077	-0,005
-471,474	-200,000	-0,005	-0,026
-470,459	-175,191	-0,170	-0,003
-469,445	800,000	-0,043	-0,104
-468,430	45,769	-0,042	-0,028
-467,416	78,067	0,053	-0,041
-466,401	-40,855	-0,064	-0,024
-465,386	-200,000	-0,023	0,091
-464,372	21,703	-0,050	0,030
-463,357	800,000	0,040	0,091
-462,343	-107,597	-0,005	-0,001
-461,328	-84,181	-0,174	-0,039
-460,313	-200,000	0,007	0,060
-459,299	58,909	-0,079	0,056
-458,284	-176,941	-0,035	-0,001
-457,270	-200,000	-0,011	0,084
-456,255	-200,000	-0,018	0,181
-455,241	29,009	0,133	-0,081
-454,226	477,033	-0,040	-0,066
-453,211	-54,903	0,156	-0,050
-452,197	800,000	0,015	0,044
-451,182	-132,424	-0,107	0,010
-450,168	800,000	0,066	0,132
-449,153	-55,108	-0,068	-0,022
-448,138	-132,571	-0,090	-0,008
-447,124	193,792	0,034	-0,037
-446,109	-80,770	-0,111	-0,026
-445,095	-54,426	0,042	-0,014
-444,080	12,482	0,044	-0,024
-443,065	-200,000	0,001	-0,026
-442,051	-200,000	0,009	-0,130
-441,036	83,036	-0,071	0,055
-440,022	314,673	-0,067	-0,091
-439,007	800,000	-0,017	0,050
-437,992	-200,000	-0,009	0,086
-436,978	-200,000	-0,015	0,180
-435,963	208,025	0,116	-0,131
-434,949	389,837	-0,069	-0,103
-433,934	585,030	-0,043	0,076
-432,919	800,000	0,020	-0,048
-431,905	149,255	0,039	-0,038
-430,890	221,298	-0,011	0,013
-429,876	36,506	0,037	0,023
-428,861	177,917	-0,096	-0,101
-427,846	800,000	-0,013	-0,037
-426,832	-10,439	0,138	-0,065
-425,817	402,965	-0,022	-0,033
-424,803	800,000	-0,025	0,070
-423,788	257,656	-0,038	0,047
-422,773	211,275	-0,004	0,004
-421,759	42,861	-0,026	-0,017
-420,744	800,000	-0,032	0,087
-419,730	-200,000	-0,008	-0,076
-418,715	-200,000	0,021	-0,156
-417,701	-29,664	-0,139	-0,057
-416,686	-200,000	0,003	0,095
-415,671	405,713	0,106	0,162
-414,657	-200,000	0,006	0,021
-413,642	-200,000	0,002	0,017
-412,628	240,267	0,014	-0,017
-411,613	-30,938	0,081	0,033
-410,598	-3,288	-0,120	-0,060
-409,584	115,798	0,063	0,056
-408,569	108,059	0,045	0,038
-407,555	-200,000	0,044	0,153
-406,540	158,472	-0,025	-0,025
-405,525	-200,000	0,043	-0,192
-404,511	-14,282	0,098	0,045
-403,496	55,025	-0,126	-0,087
-402,482	11,869	0,102	-0,056
-401,467	216,601	-0,086	0,098
-400,452	109,252	0,118	0,102
-399,438	-28,933	0,031	-0,013
-398,423	92,859	-0,019	0,015
-397,409	423,214	0,005	-0,008
-396,394	117,302	-0,124	0,109
-395,379	-200,000	-0,001	-0,011
-394,365	-68,107	-0,122	-0,034
-393,350	-64,592	0,076	0,022
-392,336	-102,500	0,040	0,007
-391,321	-2,025	0,046	0,023
-390,306	-149,150	-0,203	-0,012
-389,292	148,524	0,032	0,031
-388,277	800,000	0,034	0,071
-387,263	323,028	-0,091	-0,126
-386,248	800,000	-0,031	0,066
-385,233	187,917	0,084	0,090
-384,219	-47,724	0,015	-0,005
-383,204	219,598	0,084	0,096
-382,190	-200,000	-0,012	-0,062
-381,175	-26,060	0,074	-0,031
-380,160	55,900	0,063	-0,044
-379,146	30,508	0,153	0,094
-378,131	800,000	0,043	0,110
-377,117	-200,000	0,002	0,083
-376,102	-200,000	0,036	-0,153
-375,088	-57,971	-0,109	-0,034
-374,073	-32,949	-0,131	-0,052
-373,058	800,000	-0,018	-0,047
-372,044	-80,376	0,036	0,009
-371,029	800,000	-0,023	-0,059
-370,015	44,195	0,060	0,040
-369,000	-99,154	-0,189	0,034
-367,985	800,000	0,030	-0,071
-366,971	800,000	0,014	0,034
-365,956	-131,402	0,065	0,006
-364,942	48,356	0,054	0,036
-363,927	-55,281	0,041	0,013
-362,912	144,341	-0,087	0,084
-361,898	-200,000	0,008	0,075
-360,883	-56,309	0,054	-0,017
-359,869	-200,000	-0,027	-0,123
-358,854	-200,000	-0,046	0,199
-357,839	-200,000	-0,017	0,177
-356,825	-82,200	0,061	-0,014
-355,810	13,072	0,065	-0,036
-354,796	-200,000	-0,013	-0,109
-353,781	-0,259	-0,084	0,042
-352,766	-200,000	0,010	0,054
-351,752	6,749	0,107	-0,057
-350,737	-23,761	-0,087	-0,037
-349,723	800,000	0,039	0,122
-348,708	0,226	0,160	-0,082
-347,693	-200,000	0,011	-0,054
-346,679	612,914	0,018	0,032
-345,664	-112,666	-0,091	-0,013
-344,650	-49,305	-0,086	0,029
-343,635	-135,852	0,030	-0,003
-342,620	-200,000	0,003	-0,061
-341,606	-108,047	-0,107	-0,016
-340,591	73,966	0,106	0,079
-339,577	-200,000	0,022	-0,123
-338,562	91,752	0,055	-0,044
-337,548	-200,000	0,001	0,032
-336,533	-55,894	0,134	0,043
-335,518	-155,225	-0,121	0,006
-334,504	-96,178	0,100	-0,019
-333,489	145,638	-0,062	-0,059
-332,475	-200,000	0,005	-0,127
-331,460	-112,328	0,119	0,017
-330,445	188,330	0,152	0,163
-329,431	800,000	0,041	0,121
-328,416	-200,000	0,036	0,157
-327,402	378,623	0,046	-0,068
-326,387	104,153	-0,077	0,065
-325,372	800,000	0,025	0,052
-324,358	361,583	0,031	0,045
-323,343	-115,120	0,210	0,028
-322,329	211,367	0,070	-0,079
-321,314	-9,303	0,031	0,015
-320,299	-65,680	-0,089	0,025
-319,285	42,866	-0,068	0,045
-318,270	-114,651	0,134	-0,018
-317,256	161,489	0,095	-0,096
-316,241	72,784	0,009	-0,006
-315,226	-85,958	0,077	-0,017
-314,212	800,000	-0,006	0,011
-313,197	-200,000	0,007	0,095
-312,183	800,000	-0,041	-0,102
-311,168	409,621	-0,099	-0,151
-310,153	-200,000	-0,013	-0,063
-309,139	20,915	-0,181	-0,105
-308,124	-19,549	0,068	-0,030
-307,110	-166,944	0,156	-0,004
-306,095	-200,000	-0,001	0,044
-305,080	16,920	-0,079	0,045
-304,066	-200,000	0,005	0,020
-303,051	383,407	-0,036	-0,053
-302,037	-15,637	-0,091	0,042
-301,022	-111,447	0,115	0,017
-300,008	43,449	-0,156	-0,102
-298,993	45,782	0,074	-0,049
-297,978	-86,346	-0,101	0,022
-296,964	-31,513	-0,196	0,078
-295,949	-200,000	-0,019	-0,099
-294,935	-200,000	0,032	-0,170
-293,920	-200,000	0,003	-0,059
-292,905	217,344	0,019	0,021
-291,891	23,371	0,071	0,041
-290,876	-5,660	0,067	-0,033
-289,862	-42,781	0,105	0,038
-288,847	228,714	-0,029	-0,034
-287,832	800,000	0,016	-0,044
-286,818	-200,000	-0,004	-0,058
-285,803	-200,000	-0,040	0,131
-284,789	83,110	-0,050	0,039
-283,774	-200,000	-0,024	0,116
-282,759	800,000	0,064	0,144
-281,745	-25,047	-0,047	-0,020
-280,730	800,000	-0,014	-0,037
-279,716	-182,475	0,065	-0,001
-278,701	62,970	0,018	0,013
-277,686	787,939	0,022	0,043
-276,672	14,466	-0,126	-0,070
-275,657	-29,967	0,103	0,042
-274,643	112,488	0,029	0,025
-273,628	25,670	-0,031	0,019
-272,613	-200,000	0,003	0,176
-271,599	-200,000	-0,010	0,109
-270,584	800,000	0,032	0,097
-269,570	800,000	0,025	0,075
-268,555	472,558	-0,087	0,141
-267,540	211,219	0,063	-0,071
-266,526	-24,720	0,024	-0,010
-265,511	-135,345	0,088	-0,007
-264,497	-200,000	0,030	0,202
-263,482	-81,838	0,097	0,022
-262,467	367,620	0,063	0,092
-261,453	800,000	-0,059	-0,134
-260,438	-200,000	-0,043	-0,191
-259,424	-107,805	-0,036	-0,005
-258,409	-24,117	0,167	0,071
-257,395	609,641	0,011	-0,020
-256,380	47,697	-0,056	0,037
-255,365	482,204	0,036	0,059
-254,351	-200,000	0,003	0,055
-253,336	64,216	0,089	0,064
-252,322	-200,000	-0,037	-0,135
-251,307	-90,587	0,079	-0,016
-250,292	-62,091	-0,178	-0,053
-249,278	35,683	0,175	0,110
-248,263	-200,000	0,007	0,055
-247,249	-152,264	0,056	0,003
-246,234	800,000	0,011	-0,025
-245,219	138,339	-0,033	-0,031
-244,205	800,000	-0,005	0,010
-243,190	800,000	-0,045	0,094
-242,176	-31,412	0,129	0,052
-241,161	601,008	0,047	0,084
-240,146	13,044	-0,092	0,051
-239,132	63,713	0,055	0,039
-238,117	109,846	0,171	-0,146
-237,103	43,218	-0,104	-0,067
-236,088	27,822	0,013	0,008
-235,073	-1,182	-0,177	0,089
-234,059	800,000	-0,074	0,196
-233,044	125,839	-0,098	0,088
-232,030	-52,573	-0,116	0,038
-231,015	-127,017	-0,031	-0,003
-230,000	-200,000	0,025	-0,138
-228,986	-200,000	0,010	-0,117
-227,971	-60,512	0,079	-0,024
-226,957	-20,657	0,024	0,011
-225,942	19,935	-0,009	0,005
-224,927	275,076	-0,061	0,077
-223,913	800,000	0,031	0,075
-222,898	-95,825	0,119	-0,023
-221,884	800,000	0,014	-0,037
-220,869	457,657	-0,100	-0,159
-219,855	-136,440	0,089	-0,007
-218,840	-200,000	0,000	0,081
-217,825	-17,625	-0,091	-0,041
-216,811	330,057	-0,083	0,114
-215,796	-200,000	-0,040	-0,133
-214,782	-200,000	-0,033	0,127
-213,767	800,000	-0,052	0,163
-212,752	740,883	-0,060	0,116
-211,738	150,744	0,035	0,034
-210,723	264,145	-0,019	-0,024
-209,709	798,528	0,099	0,196
-208,694	-67,165	0,085	-0,024
-207,679	-200,000	-0,048	-0,249
-206,665	-110,892	0,040	0,006
-205,650	179,616	-0,075	0,078
-204,636	-43,952	0,114	0,041
-203,621	-51,912	0,144	-0,048
-202,606	-6,195	-0,039	-0,019
-201,592	-57,686	0,030	-0,009
-200,577	-200,000	0,007	0,052
-199,563	-200,000	0,006	0,084
-198,548	123,985	0,023	0,021
-197,533	-4,964	0,066	-0,032
-196,519	800,000	-0,025	0,065
-195,504	101,134	-0,069	-0,057
-194,490	-200,000	0,000	0,017
-193,475	-200,000	-0,012	-0,105
-192,460	-200,000	0,029	-0,103
-191,446	220,736	0,059	-0,068
-190,431	124,660	0,013	-0,012
-189,417	58,824	-0,048	-0,034
-188,402	-45,846	-0,052	-0,018
-187,387	-200,000	-0,009	0,030
-186,373	87,448	-0,079	-0,062
-185,358	697,540	0,021	0,040
-184,344	-200,000	0,020	-0,100
-183,329	800,000	-0,021	0,048
-182,315	798,807	0,052	-0,102
-181,300	-187,620	-0,041	0,000
-180,285	17,130	-0,037	0,021
-179,271	-200,000	-0,005	-0,042
-178,256	580,064	-0,048	0,085
-177,242	78,235	0,089	-0,067
-176,227	-51,262	0,103	0,034
-175,212	800,000	0,040	0,111
-174,198	277,917	0,077	0,098
-173,183	585,495	0,071	-0,125
-172,169	-131,303	0,071	0,007
-171,154	39,724	-0,040	0,026
-170,139	800,000	0,070	-0,148
-169,125	-1,227	0,150	-0,075
-168,110	46,788	0,097	-0,064
-167,096	-20,167	-0,084	-0,037
-166,081	-151,251	-0,092	-0,005
-165,066	-136,647	-0,219	-0,018
-164,052	140,000	-0,070	-0,065
-163,037	388,881	-0,053	0,079
-162,023	50,625	-0,090	-0,061
-161,008	561,115	-0,059	0,102
-159,993	-10,799	0,058	-0,027
-158,979	-200,000	0,031	0,100
-157,964	-8,971	0,040	0,019
-156,950	-125,057	0,149	0,016
-155,935	-69,146	-0,081	0,022
-154,920	294,812	0,040	0,052
-153,906	800,000	0,022	-0,057
-152,891	-200,000	-0,007	0,086
-151,877	89,875	-0,087	0,069
-150,862	-200,000	-0,024	0,149
-149,847	-63,184	0,094	-0,027
-148,833	292,323	0,067	-0,086
-147,818	365,485	0,062	-0,089
-146,804	354,559	-0,067	0,095
-145,789	-43,464	0,082	0,029
-144,775	70,796	-0,055	-0,040
-143,760	-68,575	-0,104	-0,029
-142,745	139,422	-0,082	-0,077
-141,731	-83,327	0,204	-0,046
-140,716	240,550	-0,046	0,054
-139,702	459,740	-0,034	0,054
-138,687	-8,190	-0,093	0,044
-137,672	58,631	0,096	-0,067
-136,658	63,849	-0,058	0,041
-135,643	-101,006	-0,062	-0,011
-134,629	-200,000	-0,002	0,053
-133,614	-200,000	0,002	-0,043
-132,599	-68,156	0,156	0,043
-131,585	471,001	0,125	0,200
-130,570	208,172	-0,047	0,053
-129,556	-127,142	-0,066	-0,007
-128,541	-121,548	-0,085	-0,010
-127,526	-200,000	0,078	0,000
-126,512	-69,235	0,017	-0,004
-125,497	800,000	-0,057	-0,114
-124,483	-144,710	0,095	-0,006
-123,468	96,907	0,070	0,057
-122,453	496,112	-0,029	0,047
-121,439	800,000	-0,030	0,060
-120,424	85,825	-0,047	-0,037
-119,410	91,534	0,094	0,075
-118,395	-97,539	0,094	0,017
-117,380	-200,000	-0,018	0,111
-116,366	56,479	0,065	-0,045
-115,351	-200,000	0,027	0,098
-114,337	-108,207	-0,154	0,023
-113,322	-200,000	-0,035	-0,126
-112,307	800,000	-0,014	-0,037
-111,293	-200,000	0,002	-0,099
-110,278	121,921	0,028	0,025
-109,264	800,000	0,056	-0,114
-108,249	-61,982	0,077	0,023
-107,234	-132,906	-0,161	-0,014
-106,220	-149,444	0,044	0,002
-105,205	-75,764	0,069	0,017
-104,191	41,697	-0,053	0,034
-103,176	-200,000	0,002	0,069
-102,162	800,000	0,007	0,016
-101,147	123,487	-0,090	-0,080
-100,132	167,375	-0,050	0,051
-99,118	211,205	-0,062	-0,069
-98,103	42,657	0,037	0,024
-97,089	-31,310	0,161	-0,064
-96,074	-110,751	-0,111	0,016
-95,059	800,000	0,020	0,045
-94,045	47,951	0,014	0,009
-93,030	-200,000	-0,015	-0,085
-92,016	-9,791	0,142	0,067
-91,001	21,987	0,066	0,038
-89,986	-10,953	0,102	0,047
-88,972	-200,000	0,024	0,231
-87,957	385,097	-0,040	0,059
-86,943	-18,983	0,003	0,001
-85,928	-150,709	-0,125	-0,007
-84,913	10,254	0,033	-0,018
-83,899	-85,132	-0,104	0,023
-82,884	-200,000	0,011	0,035
-81,870	800,000	0,039	0,103
-80,855	-56,636	0,126	0,039
-79,840	-61,870	-0,098	0,029
-78,826	800,000	0,062	-0,139
-77,811	59,829	0,057	-0,040
-76,797	-200,000	0,024	0,081
-75,782	146,180	-0,047	0,044
-74,767	-19,178	0,056	-0,025
-73,753	645,191	0,042	0,077
-72,738	-200,000	0,016	-0,104
-71,724	-124,979	-0,098	0,011
-70,709	-200,000	0,015	-0,075
-69,694	800,000	-0,014	0,032
-68,680	-200,000	0,018	-0,099
-67,665	-200,000	0,027	0,000
-66,651	-32,582	-0,081	0,032
-65,636	-200,000	0,004	-0,078
-64,622	221,379	0,058	-0,066
-63,607	193,789	0,099	-0,106
-62,592	199,360	-0,054	-0,059
-61,578	800,000	-0,022	0,066
-60,563	-200,000	0,005	0,044
-59,549	210,715	-0,089	0,099
-58,534	38,917	-2,127	-1,345
-57,519	-200,000	-0,084	-0,646
-56,505	-200,000	-1,416	-5,091
-55,490	108,938	0,991	0,840
-54,476	800,000	5,213	11,885
-53,461	-200,000	18,412	303,027
-52,446	800,000	734,722	2249,213
-51,432	536,098	1646,539	2780,792
-50,417	76,124	1674,452	1255,003
-49,403	20,665	1596,016	913,337
-48,388	15,277	1550,129	859,333
-47,373	17,519	1541,146	865,798
-46,359	16,556	1530,743	855,028
-45,344	13,803	1525,993	838,367
-44,330	13,688	1523,998	836,650
-43,315	13,621	1522,513	835,463
-42,300	13,589	1520,935	834,401
-41,286	13,628	1519,646	833,857
-40,271	13,645	1517,772	832,883
-39,257	13,624	1516,528	832,061
-38,242	13,640	1515,005	831,273
-37,227	13,671	1513,509	830,574
-36,213	13,645	1512,136	829,657
-35,198	13,637	1510,888	828,900
-34,184	13,661	1509,679	828,323
-33,169	13,655	1508,089	827,391
-32,154	13,705	1506,764	826,879
-31,140	13,712	1505,315	826,091
-30,125	13,708	1503,767	825,188
-29,111	13,700	1502,530	824,436
-28,096	13,678	1501,541	823,750
-27,082	13,672	1500,696	823,224
-26,067	13,689	1499,367	822,548
-25,052	13,679	1498,200	821,824
-24,038	13,695	1497,002	821,215
-23,023	13,693	1495,804	820,515
-22,009	13,720	1494,914	820,129
-20,994	13,752	1493,797	819,641
-19,979	13,663	1493,029	818,743
-18,965	13,676	1492,001	818,214
-17,950	13,648	1490,906	817,441
-16,936	13,600	1489,885	816,611
-15,921	13,590	1488,692	815,874
-14,906	13,528	1487,689	814,984
-13,892	13,594	1486,413	814,581
-12,877	13,581	1485,621	814,049
-11,863	13,517	1484,514	813,097
-10,848	13,582	1483,740	812,962
-9,833	13,674	1482,810	812,873
-8,819	13,610	1481,868	812,008
-7,804	13,568	1480,747	811,156
-6,790	13,584	1480,033	810,811
-5,775	13,580	1479,282	810,349
-4,760	13,649	1478,155	810,035
-3,746	13,594	1477,232	809,231
-2,731	13,437	1476,130	807,824
-1,717	13,384	1474,912	806,865
-0,702	13,403	1474,093	806,475
0,313	13,167	1473,078	805,982
1,327	16,883	1469,994	822,387
2,342	26,184	1238,652	730,967
3,356	22,599	696,980	403,043
4,371	-7,144	465,328	222,786
5,386	-10,802	436,860	203,736
6,400	-12,123	427,919	197,637
7,415	-12,296	424,379	195,736
8,429	-12,533	422,109	194,332
9,444	-12,644	420,823	193,565
10,459	-12,820	419,641	192,754
11,473	-12,807	418,592	192,274
12,488	-13,087	417,549	191,382
13,502	-13,205	416,674	190,797
14,517	-13,394	416,087	190,246
15,531	-13,546	415,376	189,691
16,546	-13,480	414,632	189,427
17,561	-13,441	413,878	189,119
18,575	-13,572	413,486	188,740
19,590	-13,559	412,767	188,413
20,604	-13,510	412,386	188,291
21,619	-13,658	411,947	187,868
22,634	-13,611	411,210	187,581
23,648	-13,711	410,870	187,270
24,663	-13,628	410,319	187,117
25,677	-13,622	410,005	186,965
26,692	-13,614	409,456	186,710
27,707	-13,663	409,064	186,446
28,721	-13,802	408,787	186,111
29,736	-13,662	408,090	185,970
30,750	-13,757	407,750	185,668
31,765	-13,755	407,240	185,422
32,780	-13,663	406,944	185,398
33,794	-13,689	406,627	185,201
34,809	-13,853	406,229	184,778
35,823	-13,800	405,750	184,617
36,838	-13,765	405,528	184,546
37,853	-13,793	404,987	184,245
38,867	-13,846	404,684	184,019
39,882	-13,855	404,265	183,799
40,896	-13,727	403,623	183,666
41,911	-13,886	403,428	183,344
42,926	-13,828	403,184	183,296
43,940	-13,871	402,591	182,951
44,955	-13,872	402,269	182,787
45,969	-13,922	401,854	182,515
46,984	-14,001	401,499	182,231
47,999	-14,387	400,987	181,459
49,013	-14,449	400,701	181,230
50,028	-14,480	400,137	180,917
51,042	-14,577	399,899	180,662
52,057	-14,473	399,458	180,587
53,071	-14,500	399,031	180,342
54,086	-14,385	398,797	180,375
55,101	-14,320	398,757	180,427
56,115	-14,051	398,419	180,619
57,130	-13,575	398,262	181,172
58,144	-13,373	398,059	181,334
59,159	-13,356	397,784	181,216
60,174	-13,353	397,351	181,006
61,188	-13,523	396,995	180,600
62,203	-13,514	396,674	180,450
63,217	-13,588	396,374	180,199
64,232	-13,613	395,979	179,970
65,247	-13,394	395,666	180,103
66,261	-13,390	395,107	179,838
67,276	-13,780	394,684	179,112
68,290	-14,019	394,254	178,582
69,305	-14,061	393,888	178,346
70,320	-14,229	393,600	177,976
71,334	-13,861	393,559	178,429
72,349	-13,580	393,417	178,721
73,363	-13,457	392,959	178,660
74,378	-13,413	392,574	178,527
75,393	-13,485	392,099	178,200
76,407	-13,647	391,808	177,839
77,422	-13,683	391,515	177,643
78,436	-13,621	391,103	177,521
79,451	-13,606	390,714	177,349
80,466	-13,674	390,330	177,070
81,480	-13,771	389,899	176,730
82,495	-13,988	389,748	176,363
83,509	-13,827	389,531	176,458
84,524	-13,932	389,035	176,081
85,539	-14,068	388,681	175,728
86,553	-14,085	388,387	175,556
87,568	-13,935	388,042	175,581
88,582	-13,866	387,780	175,537
89,597	-14,057	387,503	175,147
90,611	-13,891	387,334	175,271
91,626	-13,723	387,099	175,368
92,641	-13,669	386,742	175,260
93,655	-13,741	386,462	175,025
94,670	-13,808	386,039	174,731
95,684	-13,717	385,791	174,721
96,699	-13,737	385,439	174,520
97,714	-13,806	385,144	174,282
98,728	-14,066	384,781	173,766
99,743	-14,171	384,539	173,506
100,757	-14,137	384,033	173,305
101,772	-13,947	383,852	173,453
102,787	-13,956	383,575	173,301
103,801	-13,680	383,266	173,500
104,816	-13,762	383,144	173,325
105,830	-13,704	382,789	173,222
106,845	-13,633	382,694	173,256
107,860	-13,563	382,196	173,104
108,874	-13,700	381,990	172,820
109,889	-13,802	381,802	172,590
110,903	-13,651	381,330	172,554
111,918	-13,734	381,189	172,368
112,933	-13,739	380,635	172,095
113,947	-13,580	380,494	172,220
114,962	-13,563	380,045	172,023
115,976	-13,724	379,873	171,724
116,991	-13,716	379,667	171,626
118,006	-13,697	379,273	171,457
119,020	-13,563	379,270	171,611
120,035	-13,693	378,971	171,294
121,049	-13,592	378,595	171,238
122,064	-13,470	378,312	171,250
123,079	-13,606	378,001	170,921
124,093	-13,799	377,635	170,496
125,108	-13,996	377,253	170,060
126,122	-14,095	376,791	169,710
127,137	-14,181	376,490	169,452
128,151	-14,010	376,265	169,550
129,166	-13,888	375,950	169,547
130,181	-13,938	375,788	169,396
131,195	-14,111	375,431	169,002
132,210	-13,830	375,339	169,300
133,224	-13,526	375,052	169,536
134,239	-13,595	374,793	169,318
135,254	-13,555	374,512	169,227
136,268	-13,660	374,145	168,914
137,283	-14,039	373,581	168,170
138,297	-14,305	373,370	167,728
139,312	-14,074	372,930	167,803
140,327	-13,635	372,983	168,360
141,341	-13,264	373,022	168,825
142,356	-13,234	372,774	168,735
143,370	-13,363	372,435	168,407
144,385	-13,226	372,190	168,452
145,400	-13,219	371,825	168,280
146,414	-13,151	371,610	168,252
147,429	-13,408	371,279	167,768
148,443	-13,337	371,023	167,725
149,458	-13,520	370,706	167,340
150,473	-13,281	370,477	167,519
151,487	-13,418	370,081	167,155
152,502	-13,411	369,925	167,078
153,516	-13,376	369,703	167,006
154,531	-13,243	369,397	167,017
155,546	-13,420	369,181	166,686
156,560	-13,386	368,811	166,546
157,575	-13,581	368,409	166,110
158,589	-13,399	368,158	166,206
159,604	-13,223	368,085	166,374
160,619	-12,896	367,867	166,662
161,633	-13,054	367,633	166,348
162,648	-13,051	367,237	166,157
163,662	-13,369	367,033	165,660
164,677	-13,392	366,784	165,506
165,692	-13,444	366,569	165,330
166,706	-13,163	366,364	165,566
167,721	-13,119	366,320	165,585
168,735	-12,947	365,976	165,625
169,750	-13,005	365,638	165,387
170,764	-13,104	365,397	165,142
171,779	-13,240	365,221	164,883
172,794	-13,225	364,944	164,761
173,808	-13,332	364,442	164,389
174,823	-13,696	363,935	163,705
175,837	-13,950	363,743	163,295
176,852	-13,531	363,560	163,707
177,867	-13,166	363,715	164,204
178,881	-13,177	363,340	164,007
179,896	-13,141	363,111	163,933
180,910	-13,180	362,813	163,737
181,925	-13,196	362,696	163,649
182,940	-13,177	362,496	163,568
183,954	-13,001	362,050	163,565
184,969	-13,119	361,985	163,378
185,983	-12,995	361,645	163,359
186,998	-12,839	361,488	163,462
188,013	-13,022	361,144	163,071
189,027	-13,007	360,820	162,928
190,042	-13,052	360,525	162,727
191,056	-12,957	360,395	162,768
192,071	-12,841	360,103	162,760
193,086	-12,960	360,062	162,585
194,100	-12,693	359,887	162,811
195,115	-12,499	359,598	162,898
196,129	-12,275	359,564	163,135
197,144	-7,965	361,599	169,227
198,159	-4,125	363,729	174,844
199,173	-0,539	365,102	179,824
200,188	0,047	365,168	180,549
201,202	-0,153	364,809	180,114
202,217	-0,237	364,453	179,821
203,232	-0,064	364,200	179,888
204,246	0,324	364,119	180,298
205,261	0,217	364,014	180,103
206,275	0,477	363,883	180,334
207,290	0,567	363,576	180,274
208,304	0,465	363,239	179,968
209,319	0,411	363,072	179,804
210,334	0,131	362,833	179,335
211,348	0,129	362,553	179,178
212,363	-0,026	362,031	178,719
213,377	-0,081	361,887	178,565
214,392	-0,012	361,685	178,532
215,407	0,123	361,496	178,585
216,421	0,212	361,234	178,546
217,436	0,175	360,964	178,352
218,450	0,004	360,663	177,984
219,465	-0,142	360,398	177,663
220,480	-0,141	360,187	177,544
221,494	-0,239	359,962	177,301
222,509	0,138	359,870	177,688
223,523	0,304	359,642	177,757
224,538	0,098	359,288	177,321
225,553	0,002	359,075	177,087
226,567	-0,083	358,841	176,855
227,582	0,206	358,756	177,139
228,596	0,613	358,692	177,574
229,611	0,327	358,180	176,966
230,626	-0,171	357,766	176,159
231,640	-0,122	357,651	176,144
232,655	0,424	357,532	176,713
233,669	0,567	357,451	176,826
234,684	0,549	357,342	176,735
235,699	0,503	356,942	176,467
236,713	0,247	356,582	175,972
237,728	0,010	356,422	175,600
238,742	-0,111	355,833	175,152
239,757	0,003	355,713	175,210
240,772	0,115	355,352	175,149
241,786	0,083	355,183	175,012
242,801	0,230	355,200	175,177
243,815	0,719	355,073	175,671
244,830	0,441	354,711	175,151
245,844	0,025	354,251	174,422
246,859	0,089	354,050	174,383
247,874	0,297	354,014	174,592
248,888	0,376	353,632	174,481
249,903	0,276	353,603	174,334
250,917	0,102	353,319	173,976
251,932	-0,008	353,057	173,704
252,947	-0,225	352,745	173,282
253,961	-0,295	352,575	173,103
254,976	-0,040	352,146	173,172
255,990	0,340	352,091	173,569
257,005	0,481	351,937	173,642
258,020	0,358	351,686	173,360
259,034	0,211	351,657	173,160
260,049	0,198	351,317	172,962
261,063	0,309	351,022	172,930
262,078	0,614	350,965	173,238
263,093	0,671	350,792	173,203
264,107	0,587	350,422	172,908
265,122	0,423	350,159	172,574
266,136	0,473	350,104	172,589
267,151	0,423	349,809	172,371
268,166	0,172	349,271	171,802
269,180	-0,185	348,937	171,214
270,195	0,052	348,803	171,404
271,209	0,055	348,575	171,281
272,224	0,116	348,479	171,288
273,239	0,298	348,153	171,321
274,253	0,128	348,022	171,046
275,268	-0,044	347,578	170,617
276,282	-0,141	347,369	170,388
277,297	-0,153	347,240	170,296
278,312	0,075	347,192	170,517
279,326	0,097	346,974	170,420
280,341	0,234	346,590	170,372
281,355	0,258	346,449	170,314
282,370	0,277	346,346	170,270
283,384	-0,079	345,934	169,649
284,399	-0,160	345,716	169,435
285,414	-0,136	345,389	169,287
286,428	0,060	345,357	169,477
287,443	0,307	345,116	169,624
288,457	0,208	344,949	169,415
289,472	0,232	344,563	169,238
290,487	-0,290	344,186	168,447
291,501	-0,342	343,928	168,247
292,516	-0,232	343,871	168,329
293,530	-0,224	343,636	168,208
294,545	-0,166	343,562	168,221
295,560	0,179	343,263	168,449
296,574	0,072	343,196	168,280
297,589	0,105	342,811	168,113
298,603	0,124	342,630	168,031
299,618	0,204	342,377	167,982
300,633	0,062	342,486	167,861
301,647	0,591	342,060	168,231
302,662	0,499	341,858	168,013
303,676	0,420	341,640	167,803
304,691	0,562	341,476	167,866
305,706	0,498	341,148	167,618
306,720	0,402	340,935	167,391
307,735	0,230	340,661	167,050
308,749	0,175	340,504	166,897
309,764	0,397	340,274	167,016
310,779	0,455	340,117	166,989
311,793	0,213	339,784	166,541
312,808	0,165	339,693	166,428
313,822	0,303	339,518	166,482
314,837	0,247	339,215	166,256
315,852	0,014	338,916	165,835
316,866	0,348	338,748	166,109
317,881	0,435	338,593	166,115
318,895	0,227	338,203	165,679
319,910	0,043	337,842	165,284
320,925	-0,093	337,501	164,952
321,939	-0,454	337,301	164,441
322,954	-0,077	337,148	164,767
323,968	0,362	337,310	165,316
324,983	0,588	337,064	165,430
325,997	0,608	336,950	165,381
327,012	0,507	336,680	165,123
328,027	0,480	336,453	164,968
329,041	0,625	336,469	165,120
330,056	0,424	336,039	164,673
331,070	0,127	335,531	164,083
332,085	-0,077	335,162	163,665
333,100	0,132	335,210	163,903
334,114	0,429	335,185	164,201
335,129	0,648	334,822	164,248
336,143	0,285	334,675	163,766
337,158	0,308	334,552	163,715
338,173	0,392	334,174	163,608
339,187	0,185	334,032	163,297
340,202	0,105	333,587	162,978
341,216	-0,004	333,466	162,786
342,231	0,158	333,442	162,936
343,246	0,120	333,105	162,715
344,260	0,203	332,789	162,637
345,275	0,095	332,764	162,493
346,289	0,351	332,424	162,590
347,304	0,187	332,266	162,320
348,319	0,437	332,239	162,564
349,333	0,479	331,920	162,439
350,348	0,559	331,767	162,436
351,362	0,703	331,653	162,521
352,377	0,575	331,415	162,252
353,392	0,530	331,183	162,076
354,406	0,480	330,905	161,871
355,421	197,798	1327,575	1394,577
356,435	161,923	1448,921	1394,540
