DTS Sentinel unit serial number:	SN410029Multiplexer serial number:	ORYXHardware model number:	OX2-SRSoftware version number:	ORYX F/W v4,00 Oryx Data Collector v3.7.2.0data status	okinstallation	B6 Nyhavnadifferential loss correction	single-endedforward channel	channel 2reverse channel	N/Adate	2023/12/08time	01:35:08forward acquisition time	300,00reverse acquisition time	0,00gamma	499,1914k internal	0,3165k external	0,3165temperature offset calibration	1,0000default loss term (dB/km)	0,3820temperature slope calibration	1,0000multiplexer offset coefficient	1,0000multiplexer slope coefficient	1,0000fibre end	0,00T internal ref (°C)	13,24T ext. ref 1 (°C)	-3,62T ext. ref 2 (°C)	-3,62length (m)	temperature (°C)	Stokes	anti-Stokes-744,400	113,614	0,044	0,040
-743,385	-118,757	-0,283	-0,036
-742,371	314,600	0,082	0,114
-741,356	-172,964	-0,224	0,005
-740,342	-144,428	0,177	0,012
-739,327	-68,663	-0,454	0,128
-738,312	532,081	0,113	0,198
-737,298	-153,864	-0,238	-0,012
-736,283	-114,996	0,229	-0,032
-735,269	-148,744	-0,290	-0,017
-734,254	800,000	0,049	-0,144
-733,239	-53,357	-0,591	-0,198
-732,225	29,354	0,111	0,069
-731,210	66,014	0,047	0,035
-730,196	335,959	0,027	0,039
-729,181	716,563	0,041	-0,080
-728,167	-21,462	-0,049	0,022
-727,152	-200,000	0,019	0,184
-726,137	7,608	0,074	0,041
-725,123	-200,000	-0,038	-0,162
-724,108	42,497	-0,044	-0,029
-723,094	800,000	0,035	-0,088
-722,079	-76,704	-0,135	0,035
-721,064	-43,054	-0,039	0,014
-720,050	-200,000	0,000	-0,115
-719,035	800,000	0,017	0,047
-718,021	-3,605	-0,057	0,029
-717,006	800,000	0,035	0,106
-715,991	138,265	-0,119	-0,115
-714,977	-148,265	-0,087	-0,005
-713,962	-200,000	-0,034	0,181
-712,948	-200,000	0,004	-0,085
-711,933	-200,000	-0,005	0,040
-710,918	-123,999	-0,023	0,003
-709,904	117,121	-0,091	-0,082
-708,889	-89,158	-0,042	-0,009
-707,875	-135,044	0,016	-0,001
-706,860	20,470	0,027	-0,016
-705,845	377,451	0,044	0,066
-704,831	55,924	-0,046	0,033
-703,816	-200,000	0,014	-0,066
-702,802	800,000	-0,031	-0,072
-701,787	-200,000	-0,024	-0,083
-700,772	-200,000	-0,012	0,057
-699,758	24,363	-0,040	-0,024
-698,743	-200,000	0,013	-0,086
-697,729	-23,517	-0,093	0,041
-696,714	28,204	-0,126	-0,078
-695,699	-200,000	-0,016	-0,063
-694,685	12,088	-0,020	0,011
-693,670	370,073	-0,050	-0,075
-692,656	11,807	-0,050	0,028
-691,641	-88,905	-0,131	0,028
-690,627	800,000	0,042	-0,117
-689,612	-71,350	0,031	-0,008
-688,597	800,000	0,017	-0,040
-687,583	28,862	0,085	-0,053
-686,568	553,906	0,040	-0,071
-685,554	-200,000	0,030	-0,166
-684,539	800,000	0,041	-0,116
-683,524	9,139	-0,026	0,015
-682,510	-93,949	-0,088	-0,018
-681,495	800,000	-0,037	-0,098
-680,481	266,617	-0,016	-0,020
-679,466	-200,000	-0,018	-0,128
-678,451	510,395	-0,027	-0,046
-677,437	800,000	0,037	-0,090
-676,422	308,067	-0,061	-0,083
-675,408	127,491	-0,165	-0,154
-674,393	11,300	0,018	0,010
-673,378	800,000	-0,033	-0,080
-672,364	800,000	-0,083	-0,194
-671,349	99,489	0,042	0,035
-670,335	800,000	-0,017	0,038
-669,320	34,402	-0,021	-0,013
-668,305	540,978	-0,035	0,062
-667,291	243,320	0,020	-0,024
-666,276	800,000	0,027	-0,075
-665,262	-117,012	-0,239	-0,032
-664,247	-90,221	-0,152	0,032
-663,232	-40,383	0,088	-0,033
-662,218	-200,000	0,017	-0,084
-661,203	-52,739	-0,100	0,034
-660,189	42,950	0,016	0,011
-659,174	-56,955	-0,129	-0,042
-658,159	563,768	-0,061	-0,109
-657,145	-200,000	0,022	-0,085
-656,130	-60,685	-0,042	-0,013
-655,116	430,751	-0,037	-0,059
-654,101	256,674	-0,087	0,110
-653,086	-200,000	0,015	-0,068
-652,072	-200,000	-0,006	0,066
-651,057	20,669	-0,030	0,018
-650,043	-7,190	-0,067	0,033
-649,028	701,839	-0,018	-0,036
-648,014	-200,000	0,026	0,096
-646,999	135,807	-0,066	0,063
-645,984	733,133	-0,032	0,064
-644,970	-10,985	-0,098	-0,047
-643,955	268,729	-0,100	-0,128
-642,941	94,361	-0,022	0,018
-641,926	11,065	0,063	0,035
-640,911	-43,036	0,027	-0,010
-639,897	-70,434	0,063	0,018
-638,882	95,405	0,096	0,080
-637,868	-81,272	-0,084	0,020
-636,853	-32,615	-0,050	0,020
-635,838	34,293	-0,131	-0,083
-634,824	-200,000	-0,003	0,071
-633,809	10,122	-0,087	-0,048
-632,795	-83,535	0,021	0,005
-631,780	35,720	0,104	-0,067
-630,765	-23,839	0,091	0,040
-629,751	-67,732	-0,105	0,030
-628,736	-46,017	-0,066	-0,024
-627,722	46,952	0,098	-0,067
-626,707	105,458	-0,021	-0,018
-625,692	139,816	0,081	-0,078
-624,678	53,318	0,036	0,025
-623,663	-26,598	0,050	-0,021
-622,649	605,476	0,021	-0,038
-621,634	143,344	0,047	0,046
-620,619	-168,077	-0,165	-0,005
-619,605	-41,234	0,101	-0,038
-618,590	49,417	-0,053	0,037
-617,576	178,507	-0,075	0,081
-616,561	-77,525	-0,076	0,019
-615,546	-182,503	-0,197	-0,003
-614,532	-200,000	0,001	-0,032
-613,517	249,213	0,020	-0,024
-612,503	12,290	0,131	-0,073
-611,488	-200,000	0,050	0,166
-610,474	-65,747	-0,113	-0,033
-609,459	800,000	0,036	0,097
-608,444	79,939	-0,154	0,121
-607,430	-77,157	-0,032	-0,008
-606,415	62,409	-0,161	-0,117
-605,401	-200,000	0,014	0,054
-604,386	-159,890	0,070	-0,003
-603,371	800,000	0,040	0,114
-602,357	-200,000	0,041	0,135
-601,342	556,438	-0,090	-0,160
-600,328	298,872	0,087	-0,117
-599,313	-98,978	-0,073	-0,013
-598,298	-200,000	0,011	0,066
-597,284	-23,937	0,107	0,047
-596,269	-1,805	0,146	-0,075
-595,255	229,941	-0,059	0,070
-594,240	85,754	-0,117	-0,094
-593,225	202,816	0,064	0,073
-592,211	-96,665	-0,075	-0,014
-591,196	118,426	0,019	0,017
-590,182	-10,050	0,097	0,047
-589,167	316,917	0,015	0,021
-588,152	-200,000	-0,008	0,075
-587,138	-160,225	-0,041	-0,002
-586,123	680,732	0,026	0,049
-585,109	-200,000	0,007	-0,028
-584,094	800,000	0,005	-0,013
-583,079	666,813	-0,074	0,140
-582,065	800,000	0,039	0,114
-581,050	-200,000	-0,007	0,039
-580,036	178,333	0,061	-0,065
-579,021	-200,000	0,019	-0,121
-578,006	-87,474	-0,122	0,027
-576,992	-108,843	0,086	0,013
-575,977	406,244	0,062	0,096
-574,963	-200,000	0,024	0,163
-573,948	-109,246	-0,102	0,016
-572,934	-200,000	0,009	-0,049
-571,919	-200,000	-0,048	-0,156
-570,904	65,340	-0,132	0,098
-569,890	-35,231	-0,202	-0,080
-568,875	42,874	-0,061	-0,040
-567,861	75,656	0,079	0,061
-566,846	49,249	-0,087	0,060
-565,831	199,580	-0,010	0,011
-564,817	-7,853	0,070	-0,034
-563,802	800,000	0,037	-0,080
-562,788	31,354	-0,057	-0,036
-561,773	800,000	0,030	-0,084
-560,758	-154,687	0,066	0,003
-559,744	-110,067	-0,091	0,014
-558,729	-55,166	0,081	-0,026
-557,715	800,000	-0,074	-0,159
-556,700	-10,858	0,048	-0,023
-555,685	800,000	0,063	-0,152
-554,671	17,838	-0,024	-0,014
-553,656	17,971	0,103	0,060
-552,642	325,170	-0,042	0,059
-551,627	-49,040	-0,157	0,055
-550,612	53,504	0,026	-0,018
-549,598	-200,000	-0,064	-0,263
-548,583	-49,711	0,053	0,018
-547,569	109,145	0,039	-0,034
-546,554	26,806	0,050	0,030
-545,539	53,414	0,059	-0,041
-544,525	46,212	0,108	0,073
-543,510	-128,437	-0,118	-0,012
-542,496	800,000	0,018	0,055
-541,481	-200,000	0,019	-0,124
-540,466	-45,334	-0,071	0,026
-539,452	-155,032	0,084	-0,004
-538,437	265,518	0,135	0,173
-537,423	800,000	0,063	0,137
-536,408	204,690	-0,034	-0,038
-535,393	800,000	-0,011	0,024
-534,379	303,385	0,079	0,108
-533,364	-96,586	-0,176	0,034
-532,350	-145,294	-0,105	-0,007
-531,335	292,917	0,148	0,197
-530,321	-145,667	0,219	0,014
-529,306	-100,110	-0,095	0,017
-528,291	-38,101	-0,066	0,025
-527,277	271,274	-0,052	-0,067
-526,262	-64,997	0,081	0,024
-525,248	800,000	-0,031	-0,084
-524,233	800,000	0,013	-0,040
-523,218	-84,123	-0,075	0,017
-522,204	-155,353	-0,155	-0,007
-521,189	554,667	-0,052	-0,092
-520,175	-50,147	-0,109	0,038
-519,160	-30,394	-0,142	0,058
-518,145	745,917	0,040	-0,078
-517,131	-176,953	-0,056	0,001
-516,116	63,339	0,094	0,068
-515,102	19,097	0,033	-0,019
-514,087	-54,949	0,050	-0,016
-513,072	-19,780	0,110	-0,050
-512,058	-177,931	-0,089	0,002
-511,043	800,000	-0,038	0,119
-510,029	800,000	0,025	0,055
-509,014	320,584	0,073	0,101
-507,999	-61,837	0,031	0,009
-506,985	-167,529	-0,115	0,003
-505,970	242,721	-0,077	-0,094
-504,956	-200,000	-0,009	-0,046
-503,941	-0,459	0,154	0,079
-502,926	800,000	0,012	-0,036
-501,912	44,564	0,091	-0,061
-500,897	-36,295	0,088	-0,034
-499,883	77,908	-0,059	0,046
-498,868	-187,545	-0,111	-0,001
-497,853	132,044	-0,084	-0,079
-496,839	-84,255	-0,066	0,015
-495,824	-170,800	-0,030	-0,001
-494,810	-200,000	-0,038	0,158
-493,795	-151,207	-0,052	-0,003
-492,781	-200,000	-0,002	0,051
-491,766	-110,562	-0,124	0,019
-490,751	24,331	-0,069	0,041
-489,737	112,772	0,065	-0,057
-488,722	715,993	0,055	0,106
-487,708	-200,000	0,001	-0,086
-486,693	-200,000	0,001	-0,009
-485,678	800,000	-0,018	-0,038
-484,664	-101,078	-0,093	0,016
-483,649	800,000	0,021	0,058
-482,635	277,749	-0,099	-0,128
-481,620	646,919	0,022	-0,042
-480,605	-200,000	-0,003	-0,068
-479,591	-200,000	-0,002	0,057
-478,576	-95,797	0,069	-0,013
-477,562	552,836	-0,011	-0,019
-476,547	251,453	-0,077	-0,095
-475,532	-64,731	-0,162	-0,047
-474,518	-200,000	0,012	-0,046
-473,503	29,938	0,091	0,056
-472,489	-200,000	0,024	0,098
-471,474	-200,000	0,016	-0,058
-470,459	-200,000	0,033	-0,141
-469,445	-54,013	-0,128	-0,042
-468,430	-139,612	0,079	-0,006
-467,416	-76,427	0,078	-0,020
-466,401	23,085	0,110	-0,066
-465,386	-123,805	0,094	-0,011
-464,372	74,639	0,056	-0,043
-463,357	-200,000	-0,020	-0,076
-462,343	800,000	0,009	0,018
-461,328	-200,000	-0,017	0,114
-460,313	60,228	-0,051	0,037
-459,299	-66,128	0,176	-0,051
-458,284	146,161	0,039	-0,038
-457,270	115,183	-0,015	-0,013
-456,255	800,000	0,053	0,128
-455,241	313,356	-0,027	-0,037
-454,226	66,849	-0,057	0,042
-453,211	305,049	-0,037	-0,050
-452,197	-141,597	-0,104	0,007
-451,182	669,410	0,085	0,160
-450,168	800,000	0,020	-0,048
-449,153	800,000	0,061	-0,194
-448,138	-193,403	-0,100	-0,001
-447,124	-148,353	0,125	0,007
-446,109	-200,000	0,008	-0,051
-445,095	-109,431	0,055	-0,008
-444,080	132,031	-0,052	0,049
-443,065	21,870	-0,023	-0,014
-442,051	-36,812	-0,164	-0,064
-441,036	-200,000	0,004	0,030
-440,022	-200,000	-0,014	0,082
-439,007	300,875	0,044	0,059
-437,992	581,717	0,033	0,059
-436,978	800,000	0,023	-0,050
-435,963	-136,703	-0,071	0,006
-434,949	-64,974	-0,004	0,001
-433,934	88,392	0,036	-0,029
-432,919	122,944	0,038	0,035
-431,905	70,444	-0,148	-0,111
-430,890	800,000	0,046	0,119
-429,876	7,940	0,127	0,069
-428,861	-200,000	-0,015	0,080
-427,846	-12,859	-0,003	-0,001
-426,832	-200,000	0,002	0,014
-425,817	26,317	-0,084	-0,051
-424,803	80,004	0,052	-0,041
-423,788	122,883	-0,044	-0,040
-422,773	28,675	0,023	-0,014
-421,759	569,868	-0,035	0,062
-420,744	-49,661	-0,057	0,020
-419,730	785,377	-0,031	0,062
-418,715	37,216	-0,095	0,061
-417,701	-200,000	0,025	0,110
-416,686	-15,340	0,167	-0,077
-415,671	-200,000	0,012	-0,048
-414,657	800,000	-0,022	-0,054
-413,642	59,721	0,171	0,122
-412,628	-152,290	-0,151	-0,008
-411,613	-189,238	0,086	-0,001
-410,598	800,000	0,042	-0,132
-409,584	800,000	0,013	-0,034
-408,569	-139,155	0,053	0,004
-407,555	373,354	0,072	0,107
-406,540	306,957	-0,067	-0,091
-405,525	-200,000	-0,010	-0,039
-404,511	579,373	0,013	-0,023
-403,496	-83,292	0,088	0,020
-402,482	42,098	-0,034	-0,022
-401,467	130,526	0,119	0,111
-400,452	-200,000	0,006	0,025
-399,438	-40,605	-0,066	0,025
-398,423	302,912	-0,127	-0,171
-397,409	496,723	-0,045	-0,076
-396,394	-43,519	-0,049	-0,018
-395,379	22,398	0,020	-0,012
-394,365	-200,000	0,006	0,124
-393,350	42,484	0,060	0,040
-392,336	-200,000	-0,003	-0,099
-391,321	307,794	-0,088	-0,120
-390,306	800,000	-0,042	0,108
-389,292	-78,631	0,078	-0,019
-388,277	-200,000	0,012	0,149
-387,263	-10,211	0,073	0,035
-386,248	23,139	-0,071	0,042
-385,233	580,124	0,015	-0,026
-384,219	-94,108	0,048	0,010
-383,204	-200,000	0,017	0,074
-382,190	27,561	-0,048	-0,029
-381,175	-200,000	-0,001	0,080
-380,160	-200,000	0,028	0,131
-379,146	401,506	-0,030	-0,046
-378,131	800,000	-0,036	-0,116
-377,117	800,000	0,010	-0,020
-376,102	800,000	-0,039	0,081
-375,088	28,905	-0,055	-0,033
-374,073	800,000	0,017	-0,047
-373,058	-200,000	-0,006	0,039
-372,044	-44,691	-0,139	0,050
-371,029	80,178	0,135	-0,105
-370,015	-25,158	-0,104	0,044
-369,000	-144,101	-0,067	-0,004
-367,985	560,266	-0,027	0,047
-366,971	61,512	0,046	0,033
-365,956	-200,000	-0,014	0,068
-364,942	-95,768	0,104	0,020
-363,927	-17,013	-0,151	0,069
-362,912	-35,206	0,126	-0,049
-361,898	-200,000	-0,005	-0,078
-360,883	741,239	-0,055	-0,107
-359,869	-177,519	0,069	0,001
-358,854	800,000	0,088	0,180
-357,839	34,977	0,071	0,045
-356,825	-200,000	0,004	0,098
-355,810	287,157	0,042	-0,055
-354,796	202,183	-0,022	-0,025
-353,781	-61,624	0,085	-0,026
-352,766	80,267	0,157	0,122
-351,752	271,353	-0,043	0,056
-350,737	186,347	0,009	-0,010
-349,723	-83,552	-0,112	-0,026
-348,708	458,654	-0,015	0,024
-347,693	-200,000	-0,018	-0,097
-346,679	-133,226	-0,095	0,009
-345,664	97,361	-0,047	0,039
-344,650	230,607	0,072	0,086
-343,635	-200,000	-0,022	-0,098
-342,620	15,055	0,105	-0,060
-341,606	800,000	0,015	0,045
-340,591	800,000	0,019	0,054
-339,577	9,780	-0,072	0,039
-338,562	-200,000	0,024	0,082
-337,548	453,261	-0,039	-0,063
-336,533	354,763	-0,051	-0,074
-335,518	-200,000	0,015	-0,096
-334,504	41,667	0,057	-0,037
-333,489	65,093	-0,073	-0,053
-332,475	-61,645	0,102	0,031
-331,460	-200,000	0,017	-0,185
-330,445	373,623	-0,069	0,102
-329,431	-17,256	0,124	-0,056
-328,416	800,000	0,037	-0,076
-327,402	-200,000	-0,005	0,112
-326,387	71,856	-0,025	-0,018
-325,372	-86,653	-0,128	-0,028
-324,358	12,480	-0,152	0,084
-323,343	-200,000	-0,025	0,087
-322,329	-162,422	-0,087	0,003
-321,314	443,861	-0,036	-0,057
-320,299	288,407	0,040	-0,052
-319,285	-200,000	0,028	-0,103
-318,270	-200,000	-0,017	0,129
-317,256	-200,000	-0,003	0,187
-316,241	-200,000	-0,010	-0,049
-315,226	-200,000	-0,010	0,051
-314,212	-51,544	-0,075	-0,025
-313,197	5,740	0,121	-0,065
-312,183	-200,000	0,005	-0,134
-311,168	-2,886	-0,017	0,009
-310,153	55,428	-0,118	0,083
-309,139	342,926	0,011	0,016
-308,124	800,000	0,045	0,094
-307,110	-200,000	0,007	0,066
-306,095	-200,000	-0,038	-0,152
-305,080	139,018	0,053	-0,050
-304,066	25,185	-0,074	0,044
-303,051	800,000	0,033	-0,087
-302,037	-56,179	-0,032	-0,010
-301,022	335,169	0,058	-0,082
-300,008	-40,844	-0,077	-0,029
-298,993	-107,114	0,114	0,018
-297,978	-54,369	0,107	0,035
-296,964	-200,000	-0,010	-0,191
-295,949	286,805	0,044	0,057
-294,935	66,581	-0,080	0,059
-293,920	-137,807	-0,033	-0,003
-292,905	-78,767	0,131	0,032
-291,891	-64,807	-0,114	0,033
-290,876	136,345	-0,072	-0,068
-289,862	-38,724	-0,073	0,028
-288,847	-174,408	-0,138	-0,003
-287,832	-200,000	-0,007	0,024
-286,818	41,966	-0,118	-0,078
-285,803	332,567	-0,039	0,055
-284,789	-200,000	-0,023	0,073
-283,774	800,000	0,009	-0,026
-282,759	-200,000	-0,010	-0,116
-281,745	265,309	0,029	0,037
-280,730	48,718	-0,075	0,051
-279,716	800,000	-0,048	0,099
-278,701	65,764	0,146	0,107
-277,686	377,055	0,112	0,165
-276,672	-200,000	-0,009	0,056
-275,657	323,206	-0,050	-0,069
-274,643	-127,423	0,072	0,007
-273,628	265,657	0,025	-0,031
-272,613	-200,000	0,019	-0,101
-271,599	-150,819	0,075	0,004
-270,584	-157,046	-0,194	-0,008
-269,570	800,000	0,046	-0,144
-268,555	181,710	-0,067	-0,072
-267,540	-88,689	-0,041	0,009
-266,526	112,502	-0,059	-0,052
-265,511	-200,000	-0,001	-0,051
-264,497	-18,815	0,054	0,024
-263,482	-48,312	0,076	-0,026
-262,467	278,950	0,070	0,091
-261,453	-200,000	-0,019	0,130
-260,438	52,697	-0,136	-0,094
-259,424	-9,289	-0,082	-0,040
-258,409	800,000	0,027	-0,057
-257,395	800,000	0,050	-0,116
-256,380	-67,503	0,075	-0,021
-255,365	-50,315	0,117	0,040
-254,351	-200,000	-0,030	0,127
-253,336	20,416	-0,089	-0,052
-252,322	-200,000	0,016	-0,218
-251,307	-200,000	-0,034	-0,116
-250,292	22,528	0,150	-0,088
-249,278	-40,041	-0,086	-0,032
-248,263	-200,000	0,028	0,207
-247,249	709,183	0,065	-0,125
-246,234	495,183	-0,031	0,051
-245,219	-14,080	0,080	-0,037
-244,205	239,563	0,069	-0,082
-243,190	34,794	-0,036	-0,023
-242,176	116,379	-0,036	0,032
-241,161	-200,000	0,021	0,071
-240,146	-83,455	0,062	0,014
-239,132	192,333	0,092	-0,101
-238,117	-200,000	-0,010	0,062
-237,103	161,093	0,054	0,054
-236,088	178,271	0,145	0,153
-235,073	-200,000	0,057	0,198
-234,059	800,000	0,055	0,111
-233,044	-127,811	-0,047	0,005
-232,030	766,365	0,035	0,069
-231,015	-200,000	0,044	-0,142
-230,000	-200,000	0,005	-0,022
-228,986	-200,000	-0,014	-0,135
-227,971	97,869	0,014	0,011
-226,957	-200,000	-0,001	-0,077
-225,942	800,000	-0,026	-0,078
-224,927	-139,696	0,051	-0,004
-223,913	800,000	-0,029	0,059
-222,898	112,389	0,037	-0,033
-221,884	84,126	0,082	-0,064
-220,869	122,565	0,055	-0,050
-219,855	101,556	-0,046	0,039
-218,840	120,635	0,058	-0,052
-217,825	-167,788	0,078	0,002
-216,811	565,520	0,020	0,034
-215,796	-200,000	-0,005	0,056
-214,782	19,994	0,036	-0,021
-213,767	430,813	0,013	0,021
-212,752	800,000	0,029	0,064
-211,738	-72,253	0,048	-0,013
-210,723	481,225	-0,035	-0,058
-209,709	61,563	0,044	-0,031
-208,694	179,651	0,028	-0,030
-207,679	-200,000	0,023	-0,136
-206,665	-200,000	0,008	0,095
-205,650	800,000	0,021	0,067
-204,636	-153,056	0,144	0,007
-203,621	-11,471	0,021	0,010
-202,606	800,000	0,014	-0,042
-201,592	56,562	-0,144	-0,101
-200,577	295,842	-0,020	-0,026
-199,563	-50,268	0,057	0,019
-198,548	101,836	-0,069	0,058
-197,533	-43,481	-0,108	0,039
-196,519	800,000	-0,053	0,114
-195,504	161,738	-0,026	0,026
-194,490	17,770	0,034	0,020
-193,475	134,536	0,064	0,060
-192,460	-73,409	0,186	-0,049
-191,446	-89,866	0,059	-0,012
-190,431	-19,024	-0,028	-0,012
-189,417	800,000	-0,035	-0,095
-188,402	-200,000	0,021	-0,112
-187,387	-200,000	-0,041	-0,192
-186,373	-200,000	-0,032	-0,103
-185,358	800,000	-0,026	0,078
-184,344	-134,715	-0,045	0,004
-183,329	-112,724	0,049	0,007
-182,315	171,841	0,066	0,068
-181,300	-24,047	-0,038	-0,016
-180,285	120,684	0,030	-0,027
-179,271	592,373	-0,039	-0,069
-178,256	-200,000	0,002	0,080
-177,242	-200,000	0,012	-0,124
-176,227	-200,000	0,011	0,090
-175,212	-200,000	-0,002	0,017
-174,198	-200,000	-0,024	0,096
-173,183	613,856	-0,033	0,060
-172,169	-2,751	0,053	-0,027
-171,154	-200,000	0,009	0,050
-170,139	-24,204	0,087	0,037
-169,125	-150,797	-0,060	-0,003
-168,110	-30,971	0,064	0,026
-167,096	233,238	-0,088	-0,104
-166,081	-200,000	0,021	-0,070
-165,066	-162,616	-0,155	-0,005
-164,052	92,524	0,091	-0,074
-163,037	511,652	0,047	0,079
-162,023	104,606	0,049	0,042
-161,008	800,000	0,011	0,024
-159,993	800,000	0,007	0,017
-158,979	-36,250	0,095	0,037
-157,964	118,912	-0,073	-0,065
-156,950	-200,000	0,017	-0,124
-155,935	800,000	0,031	0,072
-154,920	800,000	0,014	-0,037
-153,906	-11,590	-0,050	0,024
-152,891	-51,739	0,072	0,024
-151,877	102,575	-0,083	-0,070
-150,862	34,832	-0,044	-0,028
-149,847	-60,396	0,050	0,015
-148,833	-64,913	0,030	0,009
-147,818	222,886	0,029	-0,034
-146,804	800,000	0,061	-0,148
-145,789	546,930	0,031	0,054
-144,775	542,772	-0,017	-0,029
-143,760	347,172	-0,038	-0,054
-142,745	-200,000	-0,012	-0,124
-141,731	-109,944	0,085	-0,013
-140,716	-190,170	-0,250	-0,002
-139,702	-200,000	0,006	-0,088
-138,687	386,572	0,041	0,061
-137,672	-112,442	-0,042	-0,006
-136,658	40,316	-0,070	0,045
-135,643	33,151	-0,172	-0,107
-134,629	319,054	0,034	0,047
-133,614	211,528	-0,032	-0,037
-132,599	-200,000	-0,006	-0,021
-131,585	800,000	-0,029	-0,061
-130,570	-162,533	-0,093	-0,003
-129,556	206,809	-0,069	0,078
-128,541	-149,579	-0,172	-0,010
-127,526	-109,435	-0,090	0,014
-126,512	800,000	0,055	0,112
-125,497	-200,000	0,002	-0,017
-124,483	131,882	-0,037	-0,034
-123,468	-7,542	-0,076	-0,037
-122,453	-200,000	-0,028	0,113
-121,439	-79,452	0,076	0,018
-120,424	-200,000	0,012	0,087
-119,410	8,091	-0,050	0,027
-118,395	-200,000	0,036	0,272
-117,380	800,000	0,020	0,056
-116,366	800,000	-0,052	-0,143
-115,351	-86,410	-0,166	0,036
-114,337	-200,000	0,015	-0,129
-113,322	-200,000	-0,034	0,118
-112,307	-123,272	0,066	-0,007
-111,293	702,417	-0,052	0,099
-110,278	800,000	-0,013	-0,041
-109,264	-200,000	0,027	0,088
-108,249	17,074	0,077	-0,044
-107,234	800,000	-0,039	-0,091
-106,220	-147,037	-0,146	-0,009
-105,205	7,853	-0,044	0,024
-104,191	-21,647	0,022	0,010
-103,176	800,000	0,027	0,075
-102,162	149,753	0,004	0,003
-101,147	406,932	0,062	-0,095
-100,132	86,047	0,029	0,023
-99,118	-55,413	-0,086	0,027
-98,103	-200,000	0,000	-0,016
-97,089	136,427	0,074	0,069
-96,074	-103,975	0,061	-0,010
-95,059	800,000	0,046	0,096
-94,045	400,834	-0,032	-0,048
-93,030	527,755	-0,104	-0,177
-92,016	-200,000	-0,015	-0,070
-91,001	-200,000	0,017	-0,089
-89,986	-61,495	-0,157	0,047
-88,972	-200,000	-0,005	0,070
-87,957	-200,000	-0,014	-0,055
-86,943	100,071	0,106	-0,088
-85,928	-69,989	0,058	-0,016
-84,913	-106,146	-0,091	-0,014
-83,899	-36,307	-0,072	0,028
-82,884	-104,831	-0,130	0,021
-81,870	7,808	0,020	-0,010
-80,855	37,276	0,059	0,038
-79,840	4,455	-0,036	0,019
-78,826	-168,482	0,007	-0,000
-77,811	800,000	-0,023	0,058
-76,797	-47,910	0,006	-0,002
-75,782	-14,459	0,075	-0,034
-74,767	-200,000	0,020	0,127
-73,753	200,428	0,037	0,041
-72,738	-14,410	0,060	-0,027
-71,724	199,629	-0,034	-0,038
-70,709	-200,000	-0,041	-0,181
-69,694	800,000	0,029	-0,086
-68,680	-200,000	-0,027	-0,150
-67,665	5,130	0,091	-0,048
-66,651	258,341	0,023	0,029
-65,636	-100,426	-0,122	-0,021
-64,622	64,183	0,054	0,039
-63,607	-200,000	-0,017	0,076
-62,592	-200,000	-0,010	-0,069
-61,578	80,482	0,131	0,101
-60,563	800,000	0,089	0,203
-59,549	108,740	-0,056	0,048
-58,534	51,425	-2,155	-1,464
-57,519	-200,000	-0,128	-0,643
-56,505	-200,000	-1,544	-5,075
-55,490	87,721	0,953	0,756
-54,476	800,000	5,357	12,014
-53,461	-200,000	18,851	319,568
-52,446	800,000	741,093	2323,834
-51,432	549,689	1654,487	2851,239
-50,417	110,007	1637,770	1406,901
-49,403	73,665	1287,901	965,127
-48,388	29,674	1029,567	625,938
-47,373	19,684	992,404	570,330
-46,359	17,027	980,258	554,600
-45,344	13,630	976,325	541,214
-44,330	13,950	974,784	541,385
-43,315	13,318	972,899	538,249
-42,300	13,287	971,750	537,490
-41,286	13,204	971,042	536,805
-40,271	13,309	969,869	536,480
-39,257	13,288	969,115	535,973
-38,242	13,237	968,447	535,417
-37,227	13,308	967,529	535,118
-36,213	13,292	966,712	534,593
-35,198	13,238	965,530	533,743
-34,184	13,242	965,032	533,461
-33,169	13,199	963,913	532,681
-32,154	13,284	962,918	532,383
-31,140	13,253	962,161	531,843
-30,125	13,319	961,399	531,615
-29,111	13,270	960,464	530,918
-28,096	13,280	959,960	530,651
-27,082	13,256	959,298	530,189
-26,067	13,261	958,463	529,721
-25,052	13,297	957,678	529,380
-24,038	13,226	957,016	528,767
-23,023	13,233	956,401	528,428
-22,009	13,298	955,823	528,297
-20,994	13,295	954,966	527,794
-19,979	13,302	954,508	527,542
-18,965	13,327	953,772	527,193
-17,950	13,276	953,456	526,834
-16,936	13,246	952,628	526,260
-15,921	13,273	951,947	525,949
-14,906	13,224	951,248	525,384
-13,892	13,213	950,664	525,007
-12,877	13,146	949,995	524,401
-11,863	13,153	949,451	524,103
-10,848	13,103	948,959	523,653
-9,833	13,302	948,362	523,935
-8,819	13,273	947,537	523,367
-7,804	13,179	946,944	522,719
-6,790	13,160	946,555	522,424
-5,775	13,195	945,798	522,095
-4,760	13,210	945,271	521,833
-3,746	13,197	944,608	521,406
-2,731	13,030	943,908	520,468
-1,717	13,017	943,205	520,018
-0,702	12,997	942,670	519,639
0,313	12,812	941,923	519,427
1,327	16,269	939,684	529,062
2,342	25,340	790,693	469,091
3,356	21,411	444,973	258,141
4,371	-7,779	298,006	143,467
5,386	-11,674	279,724	130,933
6,400	-12,999	273,885	126,948
7,415	-12,944	271,739	125,994
8,429	-13,211	270,094	124,973
9,444	-13,244	269,122	124,482
10,459	-13,094	268,533	124,336
11,473	-13,306	268,026	123,896
12,488	-13,210	267,281	123,628
13,502	-13,424	266,836	123,216
14,517	-13,360	266,393	123,059
15,531	-13,521	266,155	122,792
16,546	-13,308	265,744	122,784
17,561	-13,457	265,324	122,444
18,575	-13,218	265,142	122,565
19,590	-13,422	264,504	122,075
20,604	-13,075	264,351	122,307
21,619	-13,217	264,040	122,024
22,634	-13,354	263,624	121,698
23,648	-13,264	263,377	121,654
24,663	-13,329	262,945	121,385
25,677	-13,461	262,923	121,246
26,692	-13,198	262,477	121,265
27,707	-13,249	262,159	121,062
28,721	-13,284	261,997	120,945
29,736	-13,351	261,792	120,779
30,750	-13,350	261,461	120,617
31,765	-13,591	261,333	120,333
32,780	-13,414	260,869	120,265
33,794	-13,350	260,617	120,195
34,809	-13,422	260,447	120,043
35,823	-13,316	260,119	119,974
36,838	-13,360	259,947	119,845
37,853	-13,533	259,732	119,582
38,867	-13,546	259,467	119,439
39,882	-13,546	259,118	119,267
40,896	-13,541	258,930	119,174
41,911	-13,580	258,790	119,065
42,926	-13,468	258,607	119,068
43,940	-13,632	258,326	118,784
44,955	-13,427	257,957	118,785
45,969	-13,563	257,718	118,544
46,984	-13,829	257,585	118,239
47,999	-14,037	257,233	117,884
49,013	-14,128	257,002	117,689
50,028	-14,319	256,754	117,398
51,042	-14,220	256,424	117,323
52,057	-14,125	255,954	117,180
53,071	-14,110	255,900	117,158
54,086	-14,266	255,979	117,047
55,101	-14,099	255,733	117,070
56,115	-13,746	255,494	117,257
57,130	-13,259	255,405	117,629
58,144	-13,273	255,294	117,556
59,159	-13,212	255,057	117,489
60,174	-13,273	254,788	117,302
61,188	-13,391	254,626	117,114
62,203	-13,327	254,405	117,057
63,217	-13,449	254,247	116,869
64,232	-13,434	254,052	116,782
65,247	-13,415	253,725	116,638
66,261	-13,428	253,612	116,564
67,276	-13,612	253,346	116,272
68,290	-13,734	252,915	115,959
69,305	-13,808	252,645	115,762
70,320	-13,788	252,571	115,734
71,334	-13,476	252,391	115,910
72,349	-13,445	252,287	115,878
73,363	-13,279	252,073	115,912
74,378	-13,394	251,814	115,684
75,393	-13,250	251,612	115,704
76,407	-13,297	251,221	115,474
77,422	-13,407	251,173	115,347
78,436	-13,410	251,009	115,259
79,451	-13,315	250,713	115,194
80,466	-13,532	250,346	114,830
81,480	-13,642	250,295	114,704
82,495	-13,654	250,103	114,595
83,509	-13,579	249,863	114,539
84,524	-13,694	249,733	114,371
85,539	-13,736	249,380	114,164
86,553	-13,879	249,205	113,953
87,568	-13,696	249,218	114,103
88,582	-13,788	248,996	113,914
89,597	-13,783	248,679	113,763
90,611	-13,479	248,625	113,984
91,626	-13,362	248,347	113,946
92,641	-13,543	248,317	113,769
93,655	-13,421	247,942	113,690
94,670	-13,596	247,894	113,510
95,684	-13,725	247,607	113,261
96,699	-13,620	247,404	113,246
97,714	-13,558	247,098	113,148
98,728	-13,609	246,965	113,033
99,743	-13,753	246,727	112,795
100,757	-13,850	246,612	112,651
101,772	-13,661	246,314	112,662
102,787	-13,654	245,987	112,509
103,801	-13,596	246,003	112,554
104,816	-13,758	245,930	112,376
105,830	-13,413	245,818	112,601
106,845	-13,485	245,772	112,511
107,860	-13,390	245,416	112,417
108,874	-13,761	245,168	111,985
109,889	-13,556	244,951	112,045
110,903	-13,664	244,694	111,829
111,918	-13,607	244,572	111,811
112,933	-13,652	244,303	111,640
113,947	-13,378	244,184	111,802
114,962	-13,407	244,033	111,699
115,976	-13,586	243,920	111,490
116,991	-13,456	243,634	111,456
118,006	-13,481	243,543	111,384
119,020	-13,348	243,360	111,400
120,035	-13,401	243,126	111,239
121,049	-13,495	243,101	111,140
122,064	-13,404	242,957	111,140
123,079	-13,557	242,573	110,829
124,093	-13,727	242,533	110,661
125,108	-13,723	242,142	110,476
126,122	-13,895	241,919	110,223
127,137	-13,970	241,730	110,066
128,151	-13,933	241,614	110,034
129,166	-13,712	241,439	110,124
130,181	-13,947	241,166	109,799
131,195	-13,867	240,937	109,750
132,210	-13,658	240,844	109,868
133,224	-13,597	240,670	109,829
134,239	-13,374	240,518	109,930
135,254	-13,606	240,353	109,657
136,268	-13,616	240,049	109,500
137,283	-13,818	239,890	109,254
138,297	-14,111	239,718	108,929
139,312	-13,834	239,449	109,021
140,327	-13,643	239,378	109,133
141,341	-13,160	239,404	109,526
142,356	-13,065	239,199	109,499
143,370	-13,203	239,053	109,311
144,385	-13,071	238,958	109,365
145,400	-13,286	238,679	109,054
146,414	-13,056	238,438	109,119
147,429	-13,148	238,391	109,014
148,443	-13,279	238,227	108,824
149,458	-13,319	237,968	108,664
150,473	-13,140	237,748	108,697
151,487	-13,397	237,519	108,377
152,502	-13,234	237,508	108,493
153,516	-13,385	237,316	108,275
154,531	-13,184	237,154	108,352
155,546	-13,283	236,897	108,146
156,560	-13,223	236,716	108,102
157,575	-13,336	236,579	107,939
158,589	-13,290	236,333	107,854
159,604	-13,038	236,247	108,006
160,619	-13,026	236,141	107,957
161,633	-12,993	235,885	107,857
162,648	-13,141	235,760	107,673
163,662	-13,266	235,538	107,462
164,677	-13,281	235,549	107,446
165,692	-13,345	235,238	107,243
166,706	-13,184	235,095	107,296
167,721	-13,124	235,108	107,340
168,735	-13,062	234,928	107,298
169,750	-13,095	234,609	107,116
170,764	-12,975	234,433	107,121
171,779	-13,231	234,459	106,921
172,794	-13,223	234,369	106,877
173,808	-13,072	233,956	106,798
174,823	-13,786	233,713	106,115
175,837	-13,932	233,538	105,912
176,852	-13,438	233,393	106,225
177,867	-13,128	233,305	106,418
178,881	-13,268	233,326	106,309
179,896	-13,101	233,003	106,283
180,910	-12,969	232,904	106,332
181,925	-13,200	232,763	106,078
182,940	-13,141	232,732	106,100
183,954	-12,939	232,500	106,143
184,969	-12,971	232,447	106,084
185,983	-12,905	232,204	106,016
186,998	-13,029	232,185	105,900
188,013	-12,931	231,940	105,856
189,027	-13,044	231,653	105,628
190,042	-12,931	231,545	105,656
191,056	-13,001	231,383	105,518
192,071	-12,953	231,326	105,520
193,086	-12,854	231,043	105,459
194,100	-12,930	230,907	105,328
195,115	-13,369	230,395	104,745
196,129	-13,581	230,562	104,647
197,144	-7,940	232,294	109,826
198,159	-2,458	234,097	114,969
199,173	1,643	235,291	118,769
200,188	2,690	235,285	119,577
201,202	2,440	235,199	119,327
202,217	2,774	235,033	119,494
203,232	3,041	234,835	119,591
204,246	2,881	234,902	119,489
205,261	2,956	234,678	119,423
206,275	3,137	234,528	119,478
207,290	3,122	234,251	119,314
208,304	3,144	234,137	119,263
209,319	2,958	234,034	119,055
210,334	2,907	233,800	118,885
211,348	2,832	233,647	118,738
212,363	2,592	233,434	118,433
213,377	2,446	232,967	118,072
214,392	2,224	233,095	117,954
215,407	2,137	232,925	117,790
216,421	2,430	232,634	117,860
217,436	2,341	232,501	117,713
218,450	2,154	232,280	117,445
219,465	2,144	232,119	117,346
220,480	2,186	232,077	117,347
221,494	2,126	231,922	117,212
222,509	2,270	231,840	117,271
223,523	2,459	231,710	117,341
224,538	2,398	231,561	117,207
225,553	2,174	231,501	116,994
226,567	2,625	231,178	117,167
227,582	2,551	231,157	117,090
228,596	2,725	231,083	117,175
229,611	2,410	230,834	116,797
230,626	2,185	230,675	116,533
231,640	2,296	230,388	116,463
232,655	2,524	230,315	116,590
233,669	2,769	230,256	116,738
234,684	3,077	230,070	116,868
235,699	2,873	229,958	116,645
236,713	2,616	229,873	116,395
237,728	2,406	229,492	116,031
238,742	2,330	229,354	115,894
239,757	2,317	229,228	115,810
240,772	2,330	229,010	115,699
241,786	2,312	228,952	115,646
242,801	2,698	228,879	115,892
243,815	2,758	228,861	115,918
244,830	2,894	228,608	115,883
245,844	2,265	228,418	115,300
246,859	2,426	228,152	115,277
247,874	2,617	228,139	115,404
248,888	2,455	227,966	115,184
249,903	2,390	227,791	115,037
250,917	2,651	227,476	115,064
251,932	2,750	227,270	115,024
252,947	2,298	227,176	114,626
253,961	2,146	227,193	114,509
254,976	2,349	227,041	114,575
255,990	2,531	226,943	114,653
257,005	2,627	226,771	114,628
258,020	2,671	226,651	114,590
259,034	2,531	226,542	114,420
260,049	2,595	226,320	114,346
261,063	2,500	226,157	114,182
262,078	2,956	226,074	114,471
263,093	2,969	225,844	114,355
264,107	2,708	225,727	114,089
265,122	2,815	225,631	114,111
266,136	2,839	225,711	114,159
267,151	2,896	225,521	114,096
268,166	2,410	225,173	113,547
269,180	2,331	224,900	113,340
270,195	2,267	224,742	113,203
271,209	2,415	224,656	113,259
272,224	2,554	224,450	113,249
273,239	2,638	224,332	113,242
274,253	2,295	224,314	112,968
275,268	2,277	224,094	112,833
276,282	2,181	223,791	112,600
277,297	2,208	223,646	112,536
278,312	2,321	223,644	112,609
279,326	2,259	223,597	112,530
280,341	2,629	223,340	112,663
281,355	2,581	223,247	112,571
282,370	2,695	223,051	112,547
283,384	2,264	222,951	112,168
284,399	1,947	222,787	111,842
285,414	2,140	222,594	111,877
286,428	2,350	222,477	111,963
287,443	2,752	222,448	112,234
288,457	2,483	222,322	111,963
289,472	2,353	222,118	111,754
290,487	2,074	221,756	111,358
291,501	1,804	221,657	111,100
292,516	1,790	221,612	111,057
293,530	2,007	221,490	111,145
294,545	2,086	221,252	111,074
295,560	2,348	221,277	111,268
296,574	2,436	221,128	111,247
297,589	2,415	220,985	111,150
298,603	2,388	220,825	111,040
299,618	2,524	220,659	111,047
300,633	2,460	220,552	110,936
301,647	2,413	220,624	110,928
302,662	2,822	220,385	111,096
303,676	2,855	220,128	110,980
304,691	2,595	220,081	110,757
305,706	2,623	219,957	110,705
306,720	2,736	219,726	110,661
307,735	2,288	219,616	110,272
308,749	2,273	219,371	110,127
309,764	2,312	219,363	110,142
310,779	2,850	219,206	110,442
311,793	2,347	219,039	109,985
312,808	2,565	218,862	110,044
313,822	2,450	218,768	109,904
314,837	2,534	218,611	109,876
315,852	2,370	218,340	109,611
316,866	2,468	218,205	109,604
317,881	2,509	218,256	109,650
318,895	2,592	217,974	109,558
319,910	2,385	217,752	109,288
320,925	1,908	217,593	108,856
321,939	1,748	217,398	108,634
322,954	1,945	217,422	108,777
323,968	2,492	217,407	109,152
324,983	2,501	217,269	109,080
325,997	2,646	217,178	109,129
327,012	2,678	216,958	109,031
328,027	2,870	216,751	109,055
329,041	2,924	216,731	109,073
330,056	2,749	216,559	108,852
331,070	2,325	216,399	108,459
332,085	2,159	216,091	108,177
333,100	2,467	216,027	108,355
334,114	2,579	216,003	108,413
335,129	2,346	215,853	108,162
336,143	2,481	215,667	108,155
337,158	2,216	215,581	107,914
338,173	2,160	215,365	107,757
339,187	2,176	215,010	107,580
340,202	2,041	214,951	107,446
341,216	2,625	215,074	107,912
342,231	2,802	214,884	107,932
343,246	2,508	214,672	107,608
344,260	2,350	214,550	107,426
345,275	2,668	214,479	107,605
346,289	2,484	214,442	107,447
347,304	2,496	214,307	107,378
348,319	2,333	214,115	107,158
349,333	2,283	213,922	107,016
350,348	2,625	213,784	107,178
351,362	2,524	213,815	107,113
352,377	2,686	213,528	107,074
353,392	2,564	213,592	107,011
354,406	2,642	213,328	106,924
355,421	196,783	1313,700	1390,702
356,435	157,428	1447,716	1390,647
