DTS Sentinel unit serial number:	SN410029Multiplexer serial number:	ORYXHardware model number:	OX2-SRSoftware version number:	ORYX F/W v4,00 Oryx Data Collector v3.7.2.0data status	okinstallation	B6 Nyhavnadifferential loss correction	single-endedforward channel	channel 2reverse channel	N/Adate	2023/12/09time	12:40:08forward acquisition time	300,00reverse acquisition time	0,00gamma	499,1914k internal	0,3138k external	0,3138temperature offset calibration	1,0000default loss term (dB/km)	0,3820temperature slope calibration	1,0000multiplexer offset coefficient	1,0000multiplexer slope coefficient	1,0000fibre end	0,00T internal ref (°C)	19,49T ext. ref 1 (°C)	4,10T ext. ref 2 (°C)	4,09length (m)	temperature (°C)	Stokes	anti-Stokes-744,400	800,000	0,029	-0,093
-743,385	-120,166	-0,253	-0,032
-742,371	-19,621	0,151	0,069
-741,356	68,640	-0,149	0,113
-740,342	-200,000	0,034	0,165
-739,327	46,742	-0,140	0,096
-738,312	800,000	0,026	-0,072
-737,298	-95,109	-0,206	-0,041
-736,283	51,901	0,070	0,049
-735,269	-51,657	-0,175	0,060
-734,254	-29,069	0,066	-0,028
-733,239	-135,258	-0,478	-0,042
-732,225	-10,484	0,147	0,072
-731,210	440,289	-0,039	-0,063
-730,196	157,687	-0,043	-0,044
-729,181	25,652	0,048	0,029
-728,167	385,565	0,027	-0,042
-727,152	43,105	-0,124	-0,084
-726,137	-200,000	-0,010	0,077
-725,123	800,000	-0,045	0,114
-724,108	-170,736	-0,101	-0,003
-723,094	484,327	0,063	-0,107
-722,079	-156,824	-0,086	0,004
-721,064	-200,000	-0,003	0,047
-720,050	-180,723	-0,135	-0,002
-719,035	-97,463	0,122	0,023
-718,021	-36,729	-0,053	0,021
-717,006	-200,000	-0,038	-0,130
-715,991	92,339	-0,092	-0,077
-714,977	75,673	-0,056	-0,044
-713,962	80,441	0,058	-0,046
-712,948	-8,018	0,135	-0,067
-711,933	800,000	-0,051	0,109
-710,918	32,609	0,117	-0,075
-709,904	-4,169	-0,102	0,052
-708,889	-57,328	-0,061	-0,020
-707,875	-200,000	-0,003	-0,010
-706,860	89,842	-0,116	-0,096
-705,845	-200,000	0,027	0,092
-704,831	219,281	-0,040	-0,047
-703,816	-125,653	-0,149	0,017
-702,802	762,482	-0,027	-0,055
-701,787	-67,631	-0,101	0,029
-700,772	20,244	0,043	0,026
-699,758	800,000	-0,028	-0,060
-698,743	280,087	-0,026	-0,035
-697,729	5,961	-0,130	-0,071
-696,714	13,423	0,028	0,016
-695,699	800,000	-0,017	0,050
-694,685	625,601	-0,087	-0,164
-693,670	-51,217	0,090	0,031
-692,656	-156,492	-0,053	-0,002
-691,641	-167,740	0,149	-0,004
-690,627	800,000	-0,011	0,030
-689,612	800,000	-0,026	-0,061
-688,597	800,000	0,011	-0,025
-687,583	-200,000	-0,006	0,031
-686,568	240,508	0,078	-0,096
-685,554	800,000	-0,053	-0,127
-684,539	800,000	-0,029	0,073
-683,524	407,855	0,092	-0,145
-682,510	-80,276	-0,119	-0,029
-681,495	-85,180	-0,146	-0,034
-680,481	354,919	-0,036	0,053
-679,466	-200,000	0,004	0,055
-678,451	39,716	0,060	-0,040
-677,437	234,105	-0,058	0,070
-676,422	-200,000	-0,022	-0,189
-675,408	-101,841	0,107	-0,019
-674,393	477,744	-0,081	-0,137
-673,378	-16,168	-0,042	0,019
-672,364	94,404	-0,128	-0,107
-671,349	10,543	-0,053	-0,030
-670,335	-200,000	-0,010	0,109
-669,320	423,182	0,081	0,130
-668,305	14,406	0,069	-0,040
-667,291	-93,991	0,031	0,006
-666,276	-36,604	-0,044	0,018
-665,262	-111,893	0,138	-0,020
-664,247	-64,437	-0,140	0,042
-663,232	373,957	-0,064	0,096
-662,218	-55,159	-0,155	-0,051
-661,203	-29,148	0,058	0,024
-660,189	-200,000	0,023	0,155
-659,174	95,529	0,065	-0,055
-658,159	384,571	0,068	-0,104
-657,145	-200,000	0,012	0,043
-656,130	-200,000	-0,037	-0,166
-655,116	-200,000	0,027	-0,169
-654,101	800,000	0,017	-0,038
-653,086	207,832	-0,054	0,062
-652,072	-54,519	0,048	0,016
-651,057	-87,369	0,167	-0,037
-650,043	-188,533	0,061	-0,001
-649,028	-200,000	0,011	0,084
-648,014	-140,598	0,051	0,004
-646,999	-200,000	0,016	-0,081
-645,984	117,057	0,051	-0,046
-644,970	78,946	-0,134	-0,106
-643,955	545,293	-0,106	-0,188
-642,941	45,079	0,091	-0,062
-641,926	-200,000	-0,000	-0,042
-640,911	-49,743	0,169	0,059
-639,897	390,714	0,073	0,112
-638,882	-200,000	0,026	0,139
-637,868	-200,000	-0,012	-0,054
-636,853	579,829	0,097	-0,176
-635,838	-113,796	-0,126	-0,018
-634,824	800,000	-0,020	0,050
-633,809	-200,000	0,009	0,047
-632,795	-200,000	0,007	-0,105
-631,780	-47,059	0,090	0,032
-630,765	127,739	0,016	-0,015
-629,751	344,376	0,063	-0,091
-628,736	63,413	-0,120	-0,089
-627,722	41,604	0,063	0,042
-626,707	800,000	-0,028	-0,084
-625,692	800,000	0,018	0,055
-624,678	-200,000	-0,005	-0,039
-623,663	-87,066	0,109	-0,024
-622,649	56,162	-0,080	-0,057
-621,634	800,000	-0,056	0,132
-620,619	119,604	0,042	0,038
-619,605	-42,323	0,080	0,030
-618,590	-182,564	0,135	-0,002
-617,576	800,000	0,023	0,065
-616,561	-153,338	-0,183	0,009
-615,546	-120,461	0,167	-0,021
-614,532	7,630	0,106	-0,058
-613,517	-124,179	0,064	0,007
-612,503	10,472	-0,045	-0,025
-611,488	8,998	0,138	0,077
-610,474	800,000	-0,027	0,071
-609,459	-200,000	0,005	0,017
-608,444	12,435	-0,133	0,075
-607,430	-145,487	-0,078	0,005
-606,415	-42,586	-0,124	-0,046
-605,401	-81,616	0,028	0,007
-604,386	800,000	0,054	-0,112
-603,371	-134,665	-0,130	0,012
-602,357	-157,768	-0,054	0,002
-601,342	29,727	-0,022	-0,014
-600,328	709,116	0,045	-0,088
-599,313	85,665	-0,102	-0,083
-598,298	800,000	-0,042	-0,085
-597,284	182,913	-0,076	0,083
-596,269	-200,000	0,003	0,125
-595,255	-119,160	0,034	0,004
-594,240	-35,700	-0,056	-0,022
-593,225	800,000	0,035	-0,073
-592,211	800,000	0,086	-0,252
-591,196	-200,000	-0,021	-0,102
-590,182	-200,000	0,012	0,051
-589,167	-92,549	-0,148	0,030
-588,152	800,000	-0,056	0,152
-587,138	-200,000	0,008	-0,074
-586,123	-200,000	-0,001	-0,058
-585,109	-0,366	0,118	-0,062
-584,094	633,193	0,060	-0,113
-583,079	221,700	-0,025	-0,030
-582,065	800,000	0,011	-0,034
-581,050	774,965	-0,035	-0,070
-580,036	-138,724	-0,111	-0,009
-579,021	-134,525	0,055	-0,005
-578,006	800,000	-0,040	0,118
-576,992	365,593	-0,025	0,038
-575,977	32,489	0,096	-0,061
-574,963	285,128	-0,067	0,089
-573,948	8,345	-0,088	0,049
-572,934	-153,928	-0,151	-0,007
-571,919	-121,631	0,011	-0,001
-570,904	32,130	0,075	-0,048
-569,890	3,582	0,088	-0,047
-568,875	-95,986	-0,047	-0,009
-567,861	457,573	-0,029	0,047
-566,846	-200,000	0,003	0,111
-565,831	-114,061	-0,177	0,025
-564,817	800,000	-0,032	-0,067
-563,802	-56,383	-0,124	0,040
-562,788	-37,223	-0,037	0,014
-561,773	61,202	0,043	0,032
-560,758	47,931	-0,063	0,043
-559,744	213,402	0,044	0,052
-558,729	-100,064	0,113	0,021
-557,715	590,017	-0,040	-0,073
-556,700	-200,000	0,005	0,016
-555,685	-108,186	0,082	0,013
-554,671	-5,524	-0,085	-0,043
-553,656	-109,323	-0,049	-0,008
-552,642	-200,000	0,000	0,048
-551,627	541,830	-0,035	0,062
-550,612	578,033	0,013	-0,024
-549,598	-49,717	-0,134	-0,047
-548,583	-200,000	0,007	0,062
-547,569	-200,000	0,022	0,079
-546,554	113,768	0,057	0,051
-545,539	-32,192	0,058	-0,024
-544,525	-136,436	0,143	-0,012
-543,510	800,000	0,042	-0,096
-542,496	-200,000	0,030	-0,136
-541,481	-200,000	-0,013	-0,063
-540,466	-137,607	0,206	0,017
-539,452	-13,778	-0,102	-0,048
-538,437	-79,035	0,098	-0,024
-537,423	800,000	0,034	-0,100
-536,408	-32,375	-0,194	0,079
-535,393	-109,034	0,046	0,007
-534,379	-200,000	0,009	-0,079
-533,364	163,840	0,135	-0,140
-532,350	-143,538	0,030	-0,002
-531,335	800,000	0,028	0,066
-530,321	-200,000	0,028	-0,111
-529,306	-200,000	-0,008	0,044
-528,291	-60,928	-0,096	0,030
-527,277	-14,779	-0,096	0,045
-526,262	259,336	0,095	0,120
-525,248	-42,042	-0,111	0,042
-524,233	-200,000	0,046	-0,163
-523,218	-97,574	-0,064	-0,012
-522,204	434,803	0,061	-0,098
-521,189	18,911	0,070	0,041
-520,175	26,614	-0,053	-0,032
-519,160	-84,806	-0,121	-0,028
-518,145	-200,000	-0,013	0,110
-517,131	-200,000	-0,011	0,075
-516,116	-162,509	-0,112	0,004
-515,102	-200,000	0,001	0,063
-514,087	-200,000	-0,007	-0,029
-513,072	106,063	-0,053	-0,046
-512,058	-200,000	-0,027	0,093
-511,043	-106,039	0,040	0,007
-510,029	258,258	-0,063	0,080
-509,014	-94,624	0,024	-0,005
-507,999	-27,853	-0,113	0,048
-506,985	-200,000	-0,034	-0,121
-505,970	581,725	0,016	-0,029
-504,956	-200,000	-0,005	-0,054
-503,941	318,940	0,078	-0,109
-502,926	-99,223	0,178	-0,033
-501,912	-114,538	-0,087	0,012
-500,897	-65,280	0,132	0,039
-499,883	-111,376	-0,122	-0,018
-498,868	112,000	0,130	-0,115
-497,853	-155,287	-0,145	0,007
-496,839	111,001	-0,040	-0,036
-495,824	165,128	-0,088	0,091
-494,810	182,873	0,044	0,048
-493,795	253,289	-0,082	0,103
-492,781	-35,254	-0,076	0,030
-491,766	204,431	-0,034	0,039
-490,751	-200,000	0,017	-0,146
-489,737	-200,000	0,012	-0,051
-488,722	-182,397	0,167	0,002
-487,708	-200,000	-0,005	0,025
-486,693	22,063	0,114	0,068
-485,678	175,500	-0,064	0,069
-484,664	-98,872	-0,024	0,004
-483,649	280,229	0,063	0,083
-482,635	-134,942	-0,067	-0,006
-481,620	163,447	-0,049	0,051
-480,605	448,608	0,087	0,142
-479,591	-200,000	-0,003	0,060
-478,576	84,585	-0,039	-0,031
-477,562	-200,000	0,000	-0,087
-476,547	10,331	-0,045	-0,025
-475,532	-200,000	-0,040	-0,180
-474,518	800,000	-0,014	-0,034
-473,503	-41,749	0,102	0,038
-472,489	-32,440	-0,048	-0,020
-471,474	-110,162	-0,004	-0,001
-470,459	53,573	-0,084	-0,059
-469,445	381,948	-0,026	0,040
-468,430	487,440	-0,035	0,059
-467,416	800,000	-0,051	-0,134
-466,401	-47,574	-0,029	0,010
-465,386	-200,000	0,006	0,117
-464,372	-8,594	-0,117	0,058
-463,357	800,000	-0,047	-0,135
-462,343	428,063	-0,028	-0,045
-461,328	-200,000	-0,004	0,056
-460,313	-200,000	0,017	-0,145
-459,299	-200,000	0,000	0,048
-458,284	475,475	0,023	0,039
-457,270	800,000	-0,043	0,131
-456,255	-79,865	-0,189	-0,046
-455,241	507,121	-0,050	-0,086
-454,226	604,180	-0,012	-0,022
-453,211	78,379	-0,107	0,084
-452,197	-1,764	0,115	0,059
-451,182	87,862	0,063	-0,051
-450,168	322,103	-0,114	-0,160
-449,153	41,647	-0,103	-0,068
-448,138	-119,158	-0,080	-0,010
-447,124	-200,000	-0,039	-0,219
-446,109	-200,000	-0,002	-0,181
-445,095	60,671	0,073	-0,053
-444,080	329,630	-0,063	0,090
-443,065	203,859	0,032	0,036
-442,051	-95,861	0,081	0,016
-441,036	20,701	-0,047	0,028
-440,022	800,000	0,029	-0,061
-439,007	-72,882	-0,091	-0,024
-437,992	96,040	0,041	0,034
-436,978	33,193	0,048	0,031
-435,963	-200,000	-0,002	0,073
-434,949	-200,000	0,001	-0,083
-433,934	126,922	0,006	0,006
-432,919	-200,000	-0,004	0,106
-431,905	25,699	0,055	-0,033
-430,890	238,486	0,034	0,041
-429,876	-46,440	0,085	0,030
-428,861	800,000	0,036	-0,105
-427,846	-104,045	0,194	0,033
-426,832	-200,000	0,037	0,166
-425,817	-22,040	0,056	-0,025
-424,803	-37,951	0,015	-0,006
-423,788	24,926	0,118	-0,072
-422,773	800,000	-0,023	-0,073
-421,759	213,905	-0,074	0,086
-420,744	8,076	0,043	-0,024
-419,730	370,158	-0,059	-0,088
-418,715	800,000	-0,028	-0,069
-417,701	222,755	0,088	0,104
-416,686	-200,000	-0,014	-0,074
-415,671	-109,664	-0,065	0,010
-414,657	-200,000	0,024	-0,089
-413,642	94,289	-0,087	0,072
-412,628	100,901	-0,066	-0,057
-411,613	-30,435	-0,078	-0,032
-410,598	552,680	-0,053	0,093
-409,584	771,010	-0,038	0,076
-408,569	222,826	-0,118	0,140
-407,555	800,000	-0,011	0,029
-406,540	642,287	0,015	-0,029
-405,525	-200,000	-0,017	0,066
-404,511	-17,810	0,126	0,058
-403,496	169,004	-0,038	-0,040
-402,482	467,803	0,034	0,056
-401,467	20,788	0,108	0,064
-400,452	-200,000	-0,022	0,071
-399,438	95,787	-0,052	0,043
-398,423	267,027	-0,054	-0,069
-397,409	-156,230	-0,068	0,003
-396,394	394,597	0,056	0,086
-395,379	46,956	0,083	-0,056
-394,365	331,582	0,122	-0,172
-393,350	-200,000	0,011	-0,149
-392,336	-200,000	-0,007	-0,136
-391,321	92,455	-0,064	0,053
-390,306	268,231	0,034	0,043
-389,292	38,574	0,086	-0,056
-388,277	800,000	0,009	0,027
-387,263	-126,973	-0,051	-0,005
-386,248	-73,256	0,085	0,023
-385,233	-110,183	-0,048	0,007
-384,219	-200,000	0,013	-0,235
-383,204	-100,351	-0,063	-0,011
-382,190	-91,018	-0,097	-0,020
-381,175	471,343	-0,036	0,059
-380,160	-200,000	0,000	-0,033
-379,146	36,912	0,068	0,044
-378,131	-51,725	0,138	0,047
-377,117	-152,444	0,064	0,003
-376,102	-119,588	0,028	-0,003
-375,088	800,000	0,021	-0,056
-374,073	-106,716	-0,109	-0,018
-373,058	231,977	-0,045	0,054
-372,044	12,135	0,116	-0,065
-371,029	110,797	0,054	0,047
-370,015	20,603	0,138	0,081
-369,000	-60,766	-0,098	0,030
-367,985	800,000	-0,003	-0,008
-366,971	47,262	-0,060	0,041
-365,956	-86,218	0,048	-0,011
-364,942	39,560	-0,030	0,019
-363,927	-0,132	0,118	-0,061
-362,912	42,992	-0,041	0,027
-361,898	-124,964	-0,097	-0,011
-360,883	-200,000	-0,035	-0,154
-359,869	297,817	0,026	-0,036
-358,854	-114,457	0,070	-0,010
-357,839	-125,759	0,176	0,019
-356,825	-200,000	-0,020	0,089
-355,810	758,765	-0,070	-0,139
-354,796	386,326	-0,019	0,028
-353,781	156,028	0,019	0,019
-352,766	-4,296	-0,036	0,018
-351,752	-200,000	0,025	-0,101
-350,737	1,493	0,147	0,077
-349,723	183,610	0,047	-0,051
-348,708	-200,000	-0,019	0,112
-347,693	-16,585	0,104	0,048
-346,679	-87,951	0,209	0,046
-345,664	38,742	-0,076	0,049
-344,650	-175,811	0,065	-0,001
-343,635	-42,428	0,100	-0,037
-342,620	-78,603	0,045	-0,011
-341,606	18,271	0,162	0,094
-340,591	53,012	-0,016	0,011
-339,577	-200,000	0,033	0,112
-338,562	159,903	-0,066	0,067
-337,548	800,000	0,010	0,029
-336,533	-8,710	0,126	-0,062
-335,518	-105,042	0,107	0,018
-334,504	-73,201	0,011	0,003
-333,489	-39,508	-0,010	-0,004
-332,475	800,000	-0,040	0,102
-331,460	-200,000	0,034	-0,114
-330,445	122,002	-0,066	-0,060
-329,431	163,708	-0,056	-0,057
-328,416	293,806	-0,082	0,109
-327,402	-104,224	0,047	-0,008
-326,387	-200,000	0,005	-0,033
-325,372	498,037	-0,034	0,057
-324,358	-200,000	0,009	-0,088
-323,343	-200,000	-0,005	-0,168
-322,329	-194,606	0,087	-0,000
-321,314	-200,000	-0,011	0,044
-320,299	-47,838	0,174	0,061
-319,285	-117,609	-0,155	0,020
-318,270	-200,000	-0,018	0,096
-317,256	284,186	-0,061	-0,080
-316,241	14,985	0,025	0,014
-315,226	-200,000	0,031	0,231
-314,212	338,905	-0,074	0,106
-313,197	-97,576	-0,044	-0,008
-312,183	117,849	-0,074	0,067
-311,168	14,691	0,068	0,039
-310,153	-200,000	0,020	-0,067
-309,139	-200,000	0,003	0,013
-308,124	170,141	-0,029	-0,031
-307,110	-36,696	0,072	-0,028
-306,095	-47,749	0,073	-0,026
-305,080	732,838	-0,014	-0,027
-304,066	-41,874	0,030	-0,011
-303,051	168,360	-0,064	-0,067
-302,037	-93,938	-0,015	0,003
-301,022	704,035	-0,007	0,013
-300,008	800,000	0,014	0,032
-298,993	-68,892	0,036	-0,010
-297,978	84,934	-0,035	0,028
-296,964	10,475	0,094	-0,052
-295,949	3,532	0,098	-0,052
-294,935	-184,056	-0,083	-0,001
-293,920	-84,659	-0,150	0,034
-292,905	362,853	0,024	-0,035
-291,891	-139,881	0,165	0,013
-290,876	-200,000	0,021	0,067
-289,862	718,627	0,055	0,107
-288,847	-100,642	-0,154	0,028
-287,832	-14,442	-0,072	-0,034
-286,818	-200,000	0,032	0,158
-285,803	800,000	0,053	0,114
-284,789	-200,000	0,030	-0,115
-283,774	312,623	0,133	0,183
-282,759	4,437	-0,106	0,056
-281,745	800,000	-0,059	-0,122
-280,730	-200,000	0,006	-0,065
-279,716	-200,000	0,007	-0,198
-278,701	86,100	0,037	0,029
-277,686	-200,000	0,067	0,233
-276,672	284,623	0,061	0,080
-275,657	-200,000	-0,003	-0,067
-274,643	800,000	0,037	0,114
-273,628	-200,000	-0,003	0,010
-272,613	800,000	-0,017	-0,045
-271,599	-123,042	0,074	0,009
-270,584	293,844	-0,039	-0,052
-269,570	-13,786	0,029	-0,014
-268,555	121,585	-0,073	-0,067
-267,540	170,007	0,028	-0,029
-266,526	-200,000	-0,047	0,161
-265,511	-200,000	-0,024	-0,092
-264,497	38,189	-0,034	0,022
-263,482	-64,663	-0,076	0,022
-262,467	-52,017	0,105	-0,035
-261,453	278,334	-0,051	0,067
-260,438	-124,210	-0,211	-0,024
-259,424	-200,000	-0,016	-0,087
-258,409	800,000	-0,017	-0,045
-257,395	191,711	-0,043	-0,047
-256,380	-12,058	-0,153	0,073
-255,365	-157,794	-0,080	0,003
-254,351	-42,938	-0,047	-0,017
-253,336	-141,003	-0,186	-0,014
-252,322	-92,443	-0,097	0,020
-251,307	205,218	0,039	-0,044
-250,292	800,000	-0,024	-0,065
-249,278	108,348	0,137	0,119
-248,263	-200,000	0,011	-0,064
-247,249	167,518	0,024	-0,025
-246,234	-200,000	-0,017	-0,083
-245,219	-28,332	0,049	-0,021
-244,205	-134,444	-0,086	-0,008
-243,190	-39,418	0,128	-0,048
-242,176	-200,000	0,008	-0,133
-241,161	800,000	-0,013	0,033
-240,146	6,343	0,041	0,022
-239,132	246,661	-0,078	0,096
-238,117	-200,000	0,013	-0,089
-237,103	-200,000	0,000	0,015
-236,088	-53,858	0,056	0,019
-235,073	-8,965	0,039	-0,019
-234,059	-200,000	0,057	0,193
-233,044	40,542	-0,052	-0,034
-232,030	-26,350	-0,120	-0,051
-231,015	-200,000	-0,017	-0,066
-230,000	232,245	-0,056	-0,067
-228,986	800,000	0,044	-0,106
-227,971	800,000	0,012	0,028
-226,957	206,680	0,069	-0,078
-225,942	800,000	0,028	0,060
-224,927	-122,795	0,158	-0,018
-223,913	217,876	-0,074	0,086
-222,898	-200,000	-0,008	-0,056
-221,884	29,833	-0,113	-0,070
-220,869	800,000	0,028	-0,062
-219,855	745,693	0,112	0,221
-218,840	-2,651	-0,020	-0,010
-217,825	97,902	0,044	0,037
-216,811	-111,532	0,041	-0,006
-215,796	599,246	-0,019	-0,034
-214,782	-200,000	0,006	-0,102
-213,767	-24,577	-0,108	-0,046
-212,752	-151,954	-0,125	0,007
-211,738	156,168	-0,048	0,048
-210,723	-200,000	0,038	0,161
-209,709	201,257	-0,075	0,084
-208,694	-200,000	0,043	0,155
-207,679	-68,804	-0,039	-0,011
-206,665	230,098	-0,002	-0,003
-205,650	138,135	0,045	0,043
-204,636	-168,207	0,049	0,001
-203,621	491,097	-0,057	0,095
-202,606	91,796	0,053	0,043
-201,592	677,888	0,036	0,068
-200,577	-22,321	-0,122	0,054
-199,563	57,286	0,080	-0,056
-198,548	-200,000	0,002	0,053
-197,533	-200,000	-0,026	0,087
-196,519	519,084	0,068	-0,116
-195,504	800,000	-0,053	-0,129
-194,490	-53,495	-0,183	-0,060
-193,475	-45,835	0,083	-0,030
-192,460	-200,000	0,011	-0,095
-191,446	-46,951	0,099	0,035
-190,431	-200,000	0,022	0,151
-189,417	800,000	0,065	-0,142
-188,402	-200,000	-0,003	-0,169
-187,387	800,000	0,049	0,130
-186,373	-63,790	-0,043	0,013
-185,358	502,487	0,030	0,051
-184,344	341,310	0,073	0,104
-183,329	703,213	0,072	0,139
-182,315	-200,000	-0,007	0,088
-181,300	180,447	-0,025	-0,027
-180,285	-200,000	0,014	0,081
-179,271	-200,000	0,000	-0,113
-178,256	224,858	-0,031	-0,036
-177,242	77,761	-0,081	0,063
-176,227	511,053	-0,033	0,056
-175,212	50,238	-0,038	0,026
-174,198	-70,559	-0,069	0,019
-173,183	67,572	0,108	-0,080
-172,169	-123,295	-0,182	-0,021
-171,154	-79,936	0,080	-0,019
-170,139	-74,600	0,124	-0,032
-169,125	49,322	0,023	-0,016
-168,110	-200,000	-0,007	0,036
-167,096	-200,000	-0,003	-0,117
-166,081	335,046	-0,062	0,088
-165,066	-33,058	-0,015	-0,006
-164,052	214,256	-0,035	0,040
-163,037	-59,612	0,102	-0,031
-162,023	430,069	-0,057	0,090
-161,008	-200,000	-0,003	0,170
-159,993	52,573	0,087	0,060
-158,979	37,554	0,032	-0,020
-157,964	15,672	-0,028	0,016
-156,950	320,386	-0,076	0,104
-155,935	478,467	-0,019	-0,031
-154,920	800,000	0,030	0,094
-153,906	98,614	0,098	0,082
-152,891	42,494	0,057	0,038
-151,877	-131,174	-0,107	0,010
-150,862	800,000	-0,027	0,059
-149,847	-22,848	0,021	0,009
-148,833	-200,000	-0,035	-0,141
-147,818	-100,225	0,057	0,010
-146,804	-191,231	0,044	0,000
-145,789	800,000	0,062	0,153
-144,775	800,000	-0,056	0,141
-143,760	-100,150	-0,193	-0,034
-142,745	800,000	-0,028	-0,061
-141,731	400,463	-0,045	-0,068
-140,716	-200,000	-0,016	0,070
-139,702	800,000	-0,028	0,062
-138,687	288,597	0,065	0,086
-137,672	-127,281	-0,172	0,018
-136,658	223,668	0,005	0,006
-135,643	-106,515	-0,111	0,018
-134,629	-103,941	-0,048	-0,008
-133,614	-200,000	-0,025	-0,093
-132,599	210,778	-0,057	-0,065
-131,585	800,000	0,066	0,199
-130,570	-20,133	-0,088	0,039
-129,556	-200,000	-0,010	0,059
-128,541	-94,242	0,035	0,007
-127,526	-122,439	-0,087	-0,010
-126,512	504,856	-0,055	-0,092
-125,497	768,884	0,070	0,139
-124,483	70,356	-0,046	0,034
-123,468	346,576	0,047	-0,067
-122,453	-184,318	-0,074	0,001
-121,439	70,705	0,115	0,086
-120,424	87,400	-0,100	-0,080
-119,410	-190,151	-0,104	0,001
-118,395	-200,000	0,004	0,101
-117,380	800,000	0,039	0,109
-116,366	177,771	-0,058	0,061
-115,351	-87,982	-0,091	0,020
-114,337	-200,000	-0,011	0,052
-113,322	238,282	-0,070	0,084
-112,307	-200,000	-0,013	0,104
-111,293	-200,000	-0,028	-0,112
-110,278	206,334	-0,039	-0,044
-109,264	-200,000	-0,031	0,125
-108,249	-33,673	-0,149	-0,059
-107,234	-159,489	0,135	-0,005
-106,220	-91,681	-0,073	-0,015
-105,205	-43,513	-0,056	0,020
-104,191	800,000	-0,012	0,027
-103,176	33,780	0,092	0,058
-102,162	-118,496	-0,031	0,004
-101,147	74,245	0,057	0,043
-100,132	66,205	-0,058	0,043
-99,118	22,439	0,073	0,043
-98,103	-200,000	0,012	0,152
-97,089	784,233	-0,074	0,148
-96,074	-18,032	0,191	0,086
-95,059	-200,000	0,025	-0,147
-94,045	-36,166	-0,007	-0,003
-93,030	800,000	-0,072	-0,207
-92,016	621,616	-0,104	-0,189
-91,001	-200,000	0,030	-0,102
-89,986	-182,924	-0,016	0,000
-88,972	23,760	0,062	-0,037
-87,957	518,189	0,037	-0,062
-86,943	461,912	-0,033	0,053
-85,928	-22,178	-0,111	-0,049
-84,913	-200,000	-0,005	-0,123
-83,899	543,984	0,040	-0,069
-82,884	800,000	0,081	0,199
-81,870	281,534	-0,102	-0,132
-80,855	336,987	0,022	0,031
-79,840	-34,250	-0,055	-0,022
-78,826	-9,425	0,154	0,074
-77,811	-200,000	-0,003	0,047
-76,797	-200,000	0,001	-0,107
-75,782	-43,066	0,079	0,029
-74,767	357,956	-0,094	0,136
-73,753	-82,551	0,049	0,011
-72,738	800,000	-0,030	-0,079
-71,724	426,035	0,058	-0,091
-70,709	-200,000	-0,026	-0,233
-69,694	-200,000	0,013	0,059
-68,680	-35,010	-0,051	0,020
-67,665	92,843	0,023	0,019
-66,651	483,091	-0,082	0,135
-65,636	111,628	0,032	0,028
-64,622	-200,000	-0,015	-0,114
-63,607	-74,517	0,067	-0,017
-62,592	-17,945	0,058	-0,026
-61,578	-200,000	-0,010	-0,040
-60,563	-99,591	0,064	0,011
-59,549	-94,124	0,062	0,012
-58,534	-41,701	-1,687	-0,622
-57,519	514,108	-0,743	-1,257
-56,505	-200,000	-1,107	-4,776
-55,490	-165,663	0,721	0,022
-54,476	800,000	5,188	12,201
-53,461	-200,000	15,270	262,253
-52,446	800,000	698,671	2191,546
-51,432	544,540	1619,518	2804,388
-50,417	119,192	1627,665	1453,998
-49,403	79,522	1284,531	994,423
-48,388	37,176	1025,223	654,251
-47,373	22,164	985,927	579,749
-46,359	21,186	974,897	570,031
-45,344	19,770	970,538	562,823
-44,330	19,802	969,211	562,139
-43,315	19,580	967,622	560,467
-42,300	19,498	966,741	559,668
-41,286	19,576	965,611	559,245
-40,271	19,548	964,745	558,631
-39,257	19,461	963,922	557,849
-38,242	19,489	963,179	557,489
-37,227	19,606	962,054	557,194
-36,213	19,487	961,418	556,418
-35,198	19,458	960,720	555,900
-34,184	19,550	959,878	555,688
-33,169	19,487	958,783	554,828
-32,154	19,597	957,877	554,636
-31,140	19,553	956,784	553,839
-30,125	19,562	956,313	553,574
-29,111	19,526	955,568	553,004
-28,096	19,545	954,777	552,587
-27,082	19,510	954,101	552,061
-26,067	19,510	953,490	551,686
-25,052	19,467	952,649	551,040
-24,038	19,558	951,893	550,873
-23,023	19,465	951,388	550,259
-22,009	19,572	950,708	550,189
-20,994	19,576	949,858	549,687
-19,979	19,504	949,429	549,185
-18,965	19,476	948,653	548,625
-17,950	19,513	948,086	548,395
-16,936	19,544	947,312	548,023
-15,921	19,463	946,826	547,464
-14,906	19,396	946,172	546,850
-13,892	19,431	945,415	546,502
-12,877	19,394	944,980	546,109
-11,863	19,360	944,153	545,503
-10,848	19,377	943,653	545,245
-9,833	19,449	943,394	545,302
-8,819	19,457	942,609	544,853
-7,804	19,469	941,980	544,505
-6,790	19,447	941,462	544,116
-5,775	19,475	940,676	543,728
-4,760	19,420	940,184	543,249
-3,746	19,448	939,474	542,907
-2,731	19,246	939,009	541,974
-1,717	19,202	938,243	541,372
-0,702	19,219	937,421	540,932
0,313	19,057	936,797	540,875
1,327	22,195	935,133	549,755
2,342	31,578	794,625	492,065
3,356	29,172	450,283	275,197
4,371	-0,507	295,635	150,943
5,386	-4,743	276,829	137,304
6,400	-6,058	271,260	133,303
7,415	-6,154	268,889	132,038
8,429	-6,287	267,693	131,316
9,444	-6,288	266,674	130,804
10,459	-6,343	266,013	130,418
11,473	-6,348	265,475	130,138
12,488	-6,612	264,991	129,649
13,502	-6,888	264,423	129,108
14,517	-6,832	264,069	128,974
15,531	-6,752	263,417	128,716
16,546	-6,973	263,278	128,437
17,561	-6,958	262,748	128,181
18,575	-6,831	262,497	128,162
19,590	-6,987	262,143	127,837
20,604	-7,043	261,843	127,628
21,619	-7,070	261,532	127,442
22,634	-7,113	261,258	127,258
23,648	-7,190	260,882	126,994
24,663	-7,199	260,564	126,821
25,677	-7,112	260,315	126,766
26,692	-7,131	260,153	126,658
27,707	-7,067	259,708	126,488
28,721	-7,209	259,647	126,320
29,736	-7,162	259,150	126,109
30,750	-7,305	258,947	125,871
31,765	-7,190	258,792	125,887
32,780	-7,210	258,625	125,777
33,794	-7,328	258,141	125,426
34,809	-6,980	258,009	125,659
35,823	-7,206	257,865	125,378
36,838	-7,323	257,485	125,078
37,853	-7,112	257,286	125,157
38,867	-7,037	257,062	125,102
39,882	-7,273	256,808	124,760
40,896	-7,424	256,637	124,533
41,911	-7,195	256,420	124,618
42,926	-7,148	256,201	124,541
43,940	-7,390	256,032	124,235
44,955	-7,194	255,685	124,228
45,969	-7,357	255,424	123,947
46,984	-7,598	255,279	123,655
47,999	-7,837	255,005	123,302
49,013	-8,003	254,756	123,027
50,028	-8,036	254,435	122,831
51,042	-8,004	254,282	122,775
52,057	-8,208	254,085	122,491
53,071	-8,124	253,809	122,420
54,086	-7,907	253,549	122,472
55,101	-7,776	253,502	122,552
56,115	-7,507	253,434	122,742
57,130	-7,163	253,352	122,990
58,144	-6,816	253,141	123,177
59,159	-6,929	252,982	122,991
60,174	-6,687	252,714	123,059
61,188	-7,084	252,672	122,684
62,203	-7,047	252,372	122,559
63,217	-7,052	252,110	122,417
64,232	-6,941	251,885	122,393
65,247	-7,022	251,872	122,306
66,261	-7,112	251,423	121,999
67,276	-7,216	251,080	121,733
68,290	-7,646	250,905	121,267
69,305	-7,395	250,654	121,351
70,320	-7,436	250,438	121,201
71,334	-7,251	250,263	121,264
72,349	-7,060	250,386	121,476
73,363	-6,617	249,998	121,656
74,378	-6,807	250,001	121,484
75,393	-6,932	249,564	121,154
76,407	-7,082	249,404	120,937
77,422	-7,154	249,189	120,761
78,436	-7,077	249,021	120,734
79,451	-6,912	248,820	120,766
80,466	-7,111	248,594	120,477
81,480	-7,314	248,146	120,077
82,495	-7,532	248,024	119,822
83,509	-7,669	248,121	119,742
84,524	-7,344	247,784	119,844
85,539	-7,520	247,590	119,591
86,553	-7,577	247,372	119,426
87,568	-7,434	247,178	119,442
88,582	-7,488	246,966	119,285
89,597	-7,473	246,833	119,222
90,611	-7,220	246,642	119,333
91,626	-7,017	246,447	119,399
92,641	-6,985	246,438	119,410
93,655	-7,296	246,064	118,957
94,670	-7,322	245,888	118,839
95,684	-7,335	245,650	118,703
96,699	-7,307	245,529	118,657
97,714	-7,280	245,257	118,538
98,728	-7,391	245,232	118,423
99,743	-7,568	244,845	118,077
100,757	-7,575	244,710	117,995
101,772	-7,362	244,462	118,043
102,787	-7,536	244,497	117,905
103,801	-7,462	244,210	117,817
104,816	-7,264	243,965	117,853
105,830	-7,092	243,969	117,988
106,845	-6,954	243,732	117,977
107,860	-7,157	243,635	117,751
108,874	-7,247	243,266	117,488
109,889	-7,289	243,218	117,419
110,903	-7,232	242,843	117,275
111,918	-7,259	242,855	117,248
112,933	-7,186	242,515	117,134
113,947	-7,221	242,481	117,078
114,962	-7,167	242,305	117,027
115,976	-7,179	242,110	116,912
116,991	-7,104	241,937	116,881
118,006	-7,169	241,638	116,672
119,020	-7,191	241,663	116,655
120,035	-7,112	241,614	116,686
121,049	-7,037	241,351	116,611
122,064	-7,009	241,141	116,522
123,079	-7,352	241,014	116,168
124,093	-7,313	240,744	116,060
125,108	-7,362	240,492	115,888
126,122	-7,703	240,223	115,469
127,137	-7,831	240,076	115,283
128,151	-7,408	239,787	115,480
129,166	-7,370	239,764	115,490
130,181	-7,506	239,569	115,275
131,195	-7,426	239,384	115,241
132,210	-7,457	239,354	115,190
133,224	-7,130	239,065	115,307
134,239	-7,089	239,066	115,330
135,254	-7,311	239,018	115,116
136,268	-7,233	238,573	114,956
137,283	-7,600	238,237	114,486
138,297	-7,544	238,080	114,445
139,312	-7,645	237,858	114,247
140,327	-7,461	237,861	114,387
141,341	-6,873	237,796	114,821
142,356	-6,969	237,845	114,757
143,370	-6,523	237,518	114,948
144,385	-6,642	237,400	114,786
145,400	-6,688	237,048	114,568
146,414	-6,852	237,055	114,429
147,429	-6,755	236,808	114,377
148,443	-6,792	236,698	114,284
149,458	-6,683	236,569	114,299
150,473	-6,778	236,401	114,132
151,487	-6,864	236,232	113,971
152,502	-6,844	235,972	113,851
153,516	-6,793	235,771	113,785
154,531	-6,711	235,621	113,768
155,546	-6,759	235,486	113,655
156,560	-7,018	235,322	113,359
157,575	-7,122	235,018	113,119
158,589	-6,888	234,883	113,230
159,604	-6,600	234,735	113,378
160,619	-6,668	234,700	113,297
161,633	-6,370	234,379	113,369
162,648	-6,666	234,383	113,125
163,662	-6,579	234,123	113,059
164,677	-7,043	233,990	112,617
165,692	-6,907	233,939	112,690
166,706	-6,604	233,710	112,809
167,721	-6,359	233,635	112,957
168,735	-6,596	233,606	112,746
169,750	-6,697	233,341	112,528
170,764	-6,413	233,216	112,682
171,779	-6,440	232,998	112,545
172,794	-6,519	232,877	112,415
173,808	-6,988	232,630	111,916
174,823	-7,281	232,323	111,527
175,837	-7,478	232,186	111,296
176,852	-6,844	232,086	111,737
177,867	-6,673	232,062	111,850
178,881	-6,586	231,870	111,816
179,896	-6,514	231,686	111,774
180,910	-6,464	231,621	111,771
181,925	-6,555	231,460	111,613
182,940	-6,755	231,367	111,401
183,954	-6,642	231,270	111,433
184,969	-6,444	231,059	111,476
185,983	-6,589	230,832	111,244
186,998	-6,515	230,722	111,238
188,013	-6,366	230,503	111,239
189,027	-6,485	230,393	111,083
190,042	-6,429	230,213	111,030
191,056	-6,284	230,013	111,036
192,071	-6,487	230,038	110,881
193,086	-6,314	229,774	110,878
194,100	-6,187	229,701	110,932
195,115	-6,225	229,383	110,739
196,129	-6,416	229,446	110,611
197,144	-2,685	230,582	114,056
198,159	1,544	231,795	117,950
199,173	3,393	232,175	119,577
200,188	3,611	232,057	119,675
201,202	3,697	231,934	119,668
202,217	3,972	231,757	119,780
203,232	3,991	231,744	119,778
204,246	4,091	231,568	119,754
205,261	4,353	231,423	119,871
206,275	4,285	231,369	119,780
207,290	4,305	231,353	119,776
208,304	4,659	231,037	119,877
209,319	4,266	230,888	119,485
210,334	4,264	230,777	119,415
211,348	4,163	230,485	119,175
212,363	3,880	230,141	118,768
213,377	3,333	230,070	118,298
214,392	3,481	229,847	118,288
215,407	3,850	229,701	118,486
216,421	3,555	229,596	118,194
217,436	3,890	229,354	118,317
218,450	3,270	229,247	117,775
219,465	3,239	228,987	117,606
220,480	3,419	228,899	117,689
221,494	3,315	228,786	117,540
222,509	3,502	228,601	117,578
223,523	3,674	228,492	117,644
224,538	3,346	228,248	117,256
225,553	3,537	228,066	117,298
226,567	3,495	228,176	117,312
227,582	3,944	227,991	117,550
228,596	3,977	227,911	117,524
229,611	3,804	227,673	117,258
230,626	3,469	227,422	116,863
231,640	3,212	227,354	116,622
232,655	3,613	227,300	116,890
233,669	3,839	227,484	117,146
234,684	4,234	227,130	117,254
235,699	3,855	226,922	116,848
236,713	3,799	226,553	116,605
237,728	3,803	226,365	116,501
238,742	3,442	226,320	116,193
239,757	3,451	226,090	116,072
240,772	3,656	225,852	116,094
241,786	3,581	225,832	116,017
242,801	3,773	225,704	116,086
243,815	3,949	225,551	116,130
244,830	3,944	225,559	116,119
245,844	3,727	225,353	115,839
246,859	3,688	225,167	115,704
247,874	3,909	225,044	115,797
248,888	3,913	224,879	115,705
249,903	3,673	224,720	115,433
250,917	3,591	224,513	115,254
251,932	3,539	224,432	115,163
252,947	3,458	224,262	115,005
253,961	3,322	224,199	114,861
254,976	3,500	223,866	114,813
255,990	3,780	223,899	115,029
257,005	3,911	223,748	115,040
258,020	3,800	223,647	114,894
259,034	4,001	223,511	114,965
260,049	3,793	223,352	114,717
261,063	3,740	223,308	114,644
262,078	3,486	223,151	114,364
263,093	4,219	222,955	114,800
264,107	3,955	222,800	114,513
265,122	3,741	222,632	114,257
266,136	4,006	222,542	114,398
267,151	3,981	222,219	114,203
268,166	3,929	222,028	114,057
269,180	3,350	221,898	113,550
270,195	3,369	221,721	113,464
271,209	3,296	221,592	113,333
272,224	3,724	221,509	113,598
273,239	3,427	221,399	113,312
274,253	3,351	221,302	113,195
275,268	3,246	221,112	113,011
276,282	3,184	221,007	112,901
277,297	3,404	220,704	112,899
278,312	3,150	220,633	112,665
279,326	3,492	220,498	112,838
280,341	3,760	220,421	112,986
281,355	3,696	220,235	112,833
282,370	3,687	220,120	112,758
283,384	3,474	219,805	112,430
284,399	3,099	219,833	112,159
285,414	3,631	219,686	112,464
286,428	3,549	219,619	112,360
287,443	3,708	219,407	112,358
288,457	3,808	219,316	112,374
289,472	3,555	219,059	112,047
290,487	3,239	218,857	111,703
291,501	3,061	218,649	111,458
292,516	3,163	218,653	111,524
293,530	3,158	218,562	111,464
294,545	3,054	218,388	111,289
295,560	3,448	218,308	111,526
296,574	3,532	218,234	111,539
297,589	3,736	217,990	111,552
298,603	3,714	217,858	111,459
299,618	3,682	217,716	111,354
300,633	3,683	217,581	111,275
301,647	3,801	217,522	111,321
302,662	3,848	217,438	111,301
303,676	3,781	217,268	111,156
304,691	3,803	217,149	111,101
305,706	4,099	216,898	111,177
306,720	3,709	216,758	110,814
307,735	3,413	216,623	110,521
308,749	3,493	216,372	110,441
309,764	3,737	216,478	110,661
310,779	4,085	216,266	110,793
311,793	3,744	215,928	110,365
312,808	3,769	215,923	110,371
313,822	3,564	215,946	110,225
314,837	3,600	215,627	110,078
315,852	3,346	215,534	109,839
316,866	3,457	215,463	109,873
317,881	3,862	215,332	110,086
318,895	3,799	215,243	109,986
319,910	3,504	214,844	109,562
320,925	3,338	214,733	109,377
321,939	3,132	214,591	109,147
322,954	3,149	214,558	109,133
323,968	3,646	214,489	109,442
324,983	3,564	214,442	109,350
325,997	3,820	214,202	109,400
327,012	3,572	213,929	109,075
328,027	3,804	213,781	109,155
329,041	4,028	213,804	109,316
330,056	3,963	213,869	109,293
331,070	3,695	213,551	108,931
332,085	3,596	213,269	108,707
333,100	3,552	213,161	108,611
334,114	3,752	212,949	108,635
335,129	3,554	212,954	108,487
336,143	3,506	212,742	108,336
337,158	3,563	212,544	108,265
338,173	3,639	212,307	108,189
339,187	3,470	212,264	108,038
340,202	3,381	212,077	107,870
341,216	3,597	211,919	107,933
342,231	3,482	211,805	107,784
343,246	3,217	211,697	107,533
344,260	3,339	211,646	107,583
345,275	3,464	211,644	107,661
346,289	3,647	211,456	107,684
347,304	3,832	211,323	107,736
348,319	3,552	211,262	107,499
349,333	3,771	211,058	107,539
350,348	3,634	210,977	107,393
351,362	3,687	210,840	107,350
352,377	3,803	210,665	107,332
353,392	3,669	210,555	107,173
354,406	3,622	210,394	107,049
355,421	195,998	1340,692	1429,014
356,435	156,552	1478,451	1429,073
