DTS Sentinel unit serial number:	SN410029Multiplexer serial number:	ORYXHardware model number:	OX2-SRSoftware version number:	ORYX F/W v4,00 Oryx Data Collector v3.7.2.0data status	okinstallation	B6 Nyhavnadifferential loss correction	single-endedforward channel	channel 2reverse channel	N/Adate	2023/12/09time	22:35:08forward acquisition time	300,00reverse acquisition time	0,00gamma	499,1914k internal	0,3127k external	0,3127temperature offset calibration	1,0000default loss term (dB/km)	0,3820temperature slope calibration	1,0000multiplexer offset coefficient	1,0000multiplexer slope coefficient	1,0000fibre end	0,00T internal ref (°C)	21,68T ext. ref 1 (°C)	5,42T ext. ref 2 (°C)	5,41length (m)	temperature (°C)	Stokes	anti-Stokes-744,400	-108,104	-0,007	-0,001
-743,385	103,226	-0,205	0,179
-742,371	12,260	0,084	0,048
-741,356	-1,593	-0,206	0,108
-740,342	33,511	-0,054	-0,035
-739,327	-49,448	-0,410	0,145
-738,312	800,000	-0,022	0,056
-737,298	45,976	-0,148	0,102
-736,283	-200,000	0,000	0,033
-735,269	38,285	-0,201	0,133
-734,254	800,000	-0,049	0,111
-733,239	-64,526	-0,288	-0,087
-732,225	-24,072	0,143	0,063
-731,210	684,588	-0,058	0,113
-730,196	-149,140	0,083	0,005
-729,181	-200,000	-0,030	0,171
-728,167	-104,450	-0,074	-0,013
-727,152	800,000	-0,037	-0,085
-726,137	132,206	-0,059	-0,056
-725,123	182,818	-0,023	0,025
-724,108	68,876	-0,120	-0,091
-723,094	800,000	0,041	-0,126
-722,079	47,904	-0,187	-0,130
-721,064	-30,187	-0,019	-0,008
-720,050	-200,000	-0,009	-0,325
-719,035	-4,400	-0,110	0,056
-718,021	-200,000	-0,012	0,126
-717,006	800,000	0,030	-0,076
-715,991	104,733	-0,204	-0,179
-714,977	-200,000	-0,010	-0,039
-713,962	-3,059	0,080	0,041
-712,948	-114,271	-0,076	0,011
-711,933	-31,965	0,121	0,050
-710,918	531,348	-0,042	0,075
-709,904	-200,000	0,003	-0,120
-708,889	65,936	-0,058	-0,043
-707,875	-79,535	-0,083	-0,021
-706,860	-58,686	0,098	-0,031
-705,845	214,816	-0,049	-0,058
-704,831	-200,000	-0,008	-0,081
-703,816	-5,845	-0,111	0,056
-702,802	177,186	-0,044	-0,048
-701,787	83,035	0,125	0,101
-700,772	800,000	0,010	-0,022
-699,758	-127,729	-0,092	0,010
-698,743	800,000	-0,063	-0,196
-697,729	-142,919	-0,091	-0,006
-696,714	85,737	0,162	-0,133
-695,699	800,000	-0,041	0,088
-694,685	335,725	-0,013	0,019
-693,670	403,491	-0,059	-0,093
-692,656	211,508	0,055	-0,064
-691,641	-51,844	-0,063	-0,022
-690,627	-91,400	0,068	0,014
-689,612	438,138	-0,025	0,040
-688,597	800,000	-0,018	-0,056
-687,583	25,181	-0,034	-0,021
-686,568	33,099	-0,138	0,089
-685,554	-38,972	-0,014	-0,005
-684,539	-160,920	0,063	-0,002
-683,524	-200,000	0,023	0,079
-682,510	800,000	-0,012	-0,031
-681,495	-98,292	0,168	0,032
-680,481	800,000	0,024	-0,078
-679,466	-42,920	-0,112	-0,042
-678,451	-200,000	0,000	-0,082
-677,437	800,000	-0,015	-0,041
-676,422	134,369	0,091	0,088
-675,408	-105,657	-0,144	-0,024
-674,393	-200,000	-0,011	-0,186
-673,378	-200,000	-0,011	-0,079
-672,364	23,913	0,090	-0,055
-671,349	158,758	0,045	-0,047
-670,335	155,617	0,046	0,047
-669,320	-121,003	-0,103	-0,013
-668,305	352,839	-0,067	0,099
-667,291	-200,000	-0,002	0,062
-666,276	-33,866	-0,096	-0,039
-665,262	800,000	-0,086	-0,193
-664,247	-76,090	-0,012	-0,003
-663,232	800,000	0,023	-0,048
-662,218	-99,392	-0,233	0,043
-661,203	800,000	-0,037	0,107
-660,189	169,994	-0,073	0,078
-659,174	633,532	-0,052	-0,097
-658,159	81,823	-0,013	0,011
-657,145	-137,304	-0,105	0,009
-656,130	31,626	0,048	0,030
-655,116	318,756	0,064	0,090
-654,101	-106,435	0,085	-0,014
-653,086	91,352	-0,073	-0,061
-652,072	307,202	-0,057	0,080
-651,057	112,831	-0,032	-0,029
-650,043	36,886	0,062	-0,040
-649,028	-200,000	0,018	0,059
-648,014	-200,000	0,009	0,051
-646,999	800,000	-0,050	-0,132
-645,984	-103,381	0,077	0,013
-644,970	-200,000	0,010	-0,209
-643,955	-50,277	-0,021	0,007
-642,941	-2,122	-0,109	0,057
-641,926	154,137	-0,054	0,055
-640,911	-200,000	0,003	-0,076
-639,897	73,617	0,079	-0,061
-638,882	40,663	0,055	-0,037
-637,868	800,000	0,062	-0,130
-636,853	78,022	-0,114	0,090
-635,838	656,253	-0,017	-0,032
-634,824	42,286	-0,056	-0,038
-633,809	165,941	-0,088	0,093
-632,795	104,112	-0,028	-0,025
-631,780	1,722	-0,144	0,077
-630,765	40,024	0,134	0,089
-629,751	59,044	-0,072	-0,053
-628,736	-51,161	-0,116	0,040
-627,722	-63,984	0,103	-0,031
-626,707	-52,242	0,085	0,029
-625,692	93,258	-0,051	0,043
-624,678	-200,000	-0,009	-0,052
-623,663	207,885	-0,048	0,055
-622,649	-200,000	0,002	-0,207
-621,634	-112,348	-0,016	0,002
-620,619	292,509	-0,029	-0,039
-619,605	409,506	0,036	-0,056
-618,590	-145,971	-0,068	-0,004
-617,576	800,000	-0,051	-0,117
-616,561	-200,000	0,050	-0,190
-615,546	331,222	-0,118	-0,169
-614,532	-103,461	-0,080	-0,014
-613,517	159,165	-0,130	0,134
-612,503	-200,000	0,013	0,075
-611,488	800,000	0,041	0,104
-610,474	29,158	-0,091	0,057
-609,459	-200,000	-0,019	-0,127
-608,444	273,412	-0,077	-0,101
-607,430	480,456	-0,027	-0,045
-606,415	800,000	-0,055	-0,168
-605,401	-139,357	-0,121	0,009
-604,386	94,001	0,098	0,082
-603,371	-21,633	0,077	0,035
-602,357	58,418	-0,079	0,057
-601,342	-200,000	0,003	-0,119
-600,328	65,000	0,052	-0,039
-599,313	-128,086	-0,149	-0,016
-598,298	-4,824	-0,159	-0,081
-597,284	-15,519	0,084	-0,040
-596,269	-97,482	0,094	-0,018
-595,255	800,000	0,032	0,103
-594,240	643,841	-0,038	0,073
-593,225	-200,000	-0,017	-0,072
-592,211	-200,000	0,006	-0,126
-591,196	23,606	-0,029	-0,018
-590,182	-200,000	0,029	0,168
-589,167	440,025	0,073	0,119
-588,152	800,000	0,030	-0,081
-587,138	-8,182	0,057	0,028
-586,123	-63,366	-0,069	0,021
-585,109	-49,370	-0,108	0,038
-584,094	-200,000	-0,008	-0,060
-583,079	-200,000	-0,007	-0,041
-582,065	-200,000	-0,002	0,072
-581,050	-34,081	-0,016	0,007
-580,036	-57,881	-0,161	-0,052
-579,021	-19,431	-0,011	0,005
-578,006	-53,245	-0,103	0,035
-576,992	146,587	-0,168	-0,167
-575,977	-148,676	-0,035	-0,002
-574,963	800,000	-0,091	0,190
-573,948	158,017	0,131	0,134
-572,934	757,437	-0,070	0,141
-571,919	167,135	-0,080	0,084
-570,904	521,030	0,019	-0,033
-569,890	800,000	0,053	-0,113
-568,875	31,091	0,046	0,029
-567,861	-200,000	-0,043	0,143
-566,846	-147,978	0,040	0,002
-565,831	-158,409	-0,059	-0,002
-564,817	-200,000	-0,006	0,113
-563,802	308,288	-0,038	0,053
-562,788	800,000	-0,059	-0,138
-561,773	-59,727	-0,071	-0,022
-560,758	-200,000	0,031	-0,131
-559,744	-200,000	0,013	-0,044
-558,729	-200,000	-0,016	-0,084
-557,715	407,209	0,043	-0,067
-556,700	-200,000	0,012	-0,109
-555,685	264,849	0,095	0,122
-554,671	-200,000	0,016	0,134
-553,656	-200,000	0,012	0,122
-552,642	-170,478	0,135	0,003
-551,627	-72,567	0,059	-0,016
-550,612	193,988	-0,083	0,093
-549,598	-200,000	-0,027	-0,125
-548,583	218,858	0,044	-0,052
-547,569	-200,000	0,000	-0,062
-546,554	356,442	0,061	0,090
-545,539	-171,227	-0,044	-0,001
-544,525	-101,694	-0,083	-0,015
-543,510	679,376	0,036	-0,070
-542,496	306,572	-0,068	-0,094
-541,481	136,114	-0,077	0,074
-540,466	-152,952	0,111	-0,006
-539,452	473,456	-0,008	0,014
-538,437	41,853	0,025	0,017
-537,423	29,667	-0,108	-0,068
-536,408	2,222	-0,061	0,033
-535,393	-72,770	-0,082	-0,022
-534,379	722,795	0,055	0,109
-533,364	-200,000	-0,001	-0,153
-532,350	-114,763	0,096	0,013
-531,335	107,330	0,120	-0,105
-530,321	140,410	0,026	0,026
-529,306	161,070	-0,042	0,043
-528,291	-145,232	-0,078	0,005
-527,277	157,253	-0,076	-0,078
-526,262	-200,000	-0,009	-0,103
-525,248	-121,895	-0,122	-0,015
-524,233	63,510	0,143	0,106
-523,218	279,330	0,017	0,023
-522,204	-64,166	0,076	0,023
-521,189	175,879	-0,068	0,073
-520,175	766,541	-0,091	-0,184
-519,160	220,010	0,087	-0,103
-518,145	-59,696	0,106	-0,033
-517,131	72,709	0,078	-0,060
-516,116	-32,467	-0,129	0,053
-515,102	800,000	0,023	-0,064
-514,087	113,645	0,058	-0,052
-513,072	90,497	0,067	0,055
-512,058	800,000	0,025	-0,052
-511,043	-150,858	0,053	-0,003
-510,029	-88,705	-0,069	-0,015
-509,014	752,654	0,042	0,084
-507,999	800,000	-0,047	-0,124
-506,985	800,000	-0,069	0,170
-505,970	800,000	-0,064	-0,149
-504,956	211,475	0,055	-0,064
-503,941	-80,154	-0,052	-0,013
-502,926	-200,000	-0,000	-0,049
-501,912	413,416	0,064	0,100
-500,897	-117,988	0,074	-0,010
-499,883	-200,000	-0,009	0,153
-498,868	-200,000	-0,000	-0,030
-497,853	152,185	-0,080	-0,081
-496,839	369,281	0,012	0,018
-495,824	800,000	0,020	0,061
-494,810	394,851	0,057	-0,088
-493,795	-200,000	0,011	0,112
-492,781	-120,148	-0,152	0,019
-491,766	36,303	-0,074	-0,048
-490,751	143,549	0,022	0,021
-489,737	184,058	0,026	-0,028
-488,722	-97,390	0,131	-0,025
-487,708	-200,000	-0,002	0,072
-486,693	183,650	0,057	0,063
-485,678	800,000	-0,053	0,127
-484,664	14,436	0,042	0,024
-483,649	800,000	0,014	-0,034
-482,635	244,719	0,111	-0,138
-481,620	-200,000	-0,006	-0,125
-480,605	-14,271	-0,057	0,027
-479,591	-200,000	0,022	-0,091
-478,576	411,955	0,056	0,088
-477,562	-37,279	0,085	0,033
-476,547	-52,046	-0,076	-0,026
-475,532	126,686	0,016	0,015
-474,518	-200,000	-0,001	0,033
-473,503	-31,173	-0,041	0,017
-472,489	19,141	-0,060	0,035
-471,474	-200,000	-0,003	0,114
-470,459	39,064	-0,100	0,066
-469,445	800,000	0,046	-0,102
-468,430	131,892	0,026	0,025
-467,416	-200,000	-0,021	-0,071
-466,401	192,178	0,103	0,115
-465,386	-117,530	0,018	-0,002
-464,372	-169,820	0,117	0,003
-463,357	0,169	-0,151	0,079
-462,343	55,842	-0,154	0,110
-461,328	51,581	-0,078	-0,054
-460,313	800,000	0,036	0,093
-459,299	470,262	0,035	0,058
-458,284	800,000	0,008	0,024
-457,270	-200,000	0,013	0,067
-456,255	678,706	0,026	0,050
-455,241	213,438	-0,049	0,057
-454,226	-200,000	0,031	-0,107
-453,211	28,842	0,044	-0,028
-452,197	483,155	0,136	0,228
-451,182	-70,944	0,046	-0,013
-450,168	121,284	-0,094	-0,086
-449,153	-23,143	-0,105	-0,046
-448,138	-105,882	0,152	-0,025
-447,124	800,000	0,033	-0,076
-446,109	800,000	-0,027	-0,085
-445,095	171,335	-0,029	-0,030
-444,080	-24,798	0,021	-0,009
-443,065	-200,000	-0,026	0,130
-442,051	-200,000	-0,004	-0,029
-441,036	543,303	-0,037	-0,064
-440,022	-133,150	-0,136	-0,013
-439,007	800,000	0,100	-0,250
-437,992	9,166	-0,050	-0,028
-436,978	800,000	0,026	0,078
-435,963	800,000	-0,042	-0,101
-434,949	-200,000	0,064	0,211
-433,934	24,516	-0,091	0,055
-432,919	20,388	0,071	0,042
-431,905	-24,867	-0,086	0,037
-430,890	-57,233	-0,037	-0,012
-429,876	-200,000	0,010	0,049
-428,861	800,000	-0,036	-0,105
-427,846	800,000	-0,046	-0,101
-426,832	-200,000	0,034	-0,150
-425,817	51,664	-0,019	-0,014
-424,803	43,784	0,049	0,033
-423,788	223,392	0,036	0,043
-422,773	-200,000	-0,029	0,134
-421,759	678,760	-0,024	0,047
-420,744	27,075	-0,020	-0,012
-419,730	-137,306	-0,121	-0,010
-418,715	38,871	0,034	0,022
-417,701	-17,098	-0,040	-0,019
-416,686	67,620	0,114	0,086
-415,671	132,729	0,060	0,057
-414,657	52,809	0,107	0,075
-413,642	140,208	-0,009	-0,009
-412,628	260,316	-0,029	-0,037
-411,613	-75,239	-0,099	-0,026
-410,598	32,739	0,129	-0,082
-409,584	800,000	-0,019	0,045
-408,569	-200,000	-0,008	0,045
-407,555	227,131	0,030	0,036
-406,540	697,668	-0,011	-0,022
-405,525	15,794	-0,086	-0,049
-404,511	39,568	0,022	0,015
-403,496	-32,580	-0,042	-0,017
-402,482	301,316	-0,101	-0,137
-401,467	-97,039	0,095	0,018
-400,452	-200,000	0,008	0,099
-399,438	475,834	0,061	-0,102
-398,423	-200,000	-0,029	-0,155
-397,409	800,000	0,016	0,041
-396,394	525,356	0,004	0,007
-395,379	319,769	-0,053	0,074
-394,365	287,880	0,124	0,165
-393,350	-200,000	0,020	0,082
-392,336	-200,000	-0,014	-0,057
-391,321	800,000	0,010	-0,022
-390,306	-90,383	-0,031	0,007
-389,292	-21,897	-0,088	-0,039
-388,277	216,823	-0,073	-0,085
-387,263	65,617	0,033	-0,025
-386,248	800,000	-0,009	0,024
-385,233	800,000	-0,009	0,020
-384,219	28,508	-0,037	-0,023
-383,204	7,071	-0,076	0,042
-382,190	113,602	-0,083	-0,074
-381,175	90,624	-0,036	-0,030
-380,160	-23,014	0,100	0,044
-379,146	116,261	-0,033	-0,029
-378,131	-200,000	-0,015	0,092
-377,117	-200,000	0,017	0,055
-376,102	399,185	-0,032	-0,049
-375,088	800,000	0,012	0,025
-374,073	50,947	0,039	0,027
-373,058	-178,557	0,098	0,002
-372,044	188,526	0,071	0,078
-371,029	-10,165	0,025	-0,012
-370,015	-200,000	-0,007	-0,131
-369,000	800,000	0,021	-0,061
-367,985	-69,332	0,092	-0,026
-366,971	256,067	-0,068	0,085
-365,956	28,596	0,100	-0,062
-364,942	52,992	0,146	-0,102
-363,927	-200,000	0,034	0,114
-362,912	-101,896	-0,076	-0,013
-361,898	-126,040	-0,098	-0,011
-360,883	167,881	0,104	-0,108
-359,869	-6,258	-0,121	0,060
-358,854	159,360	-0,024	0,024
-357,839	23,863	-0,036	0,022
-356,825	800,000	0,021	0,054
-355,810	92,214	0,065	0,053
-354,796	-200,000	-0,005	0,037
-353,781	269,384	-0,127	-0,163
-352,766	-200,000	0,012	0,090
-351,752	359,286	-0,093	0,137
-350,737	-200,000	0,020	0,135
-349,723	720,401	0,025	0,049
-348,708	-121,707	0,015	-0,002
-347,693	-45,623	-0,178	0,064
-346,679	630,330	-0,078	0,145
-345,664	15,236	-0,068	-0,039
-344,650	-109,783	0,074	0,011
-343,635	-200,000	0,028	0,294
-342,620	34,665	-0,085	-0,055
-341,606	-151,479	0,082	-0,004
-340,591	-200,000	-0,023	0,082
-339,577	-50,717	-0,152	0,052
-338,562	-150,559	-0,071	0,004
-337,548	518,499	0,081	0,139
-336,533	684,263	-0,043	0,083
-335,518	57,261	0,129	0,092
-334,504	-129,596	0,039	0,004
-333,489	-200,000	0,008	0,028
-332,475	-67,218	-0,169	0,048
-331,460	24,930	0,081	-0,049
-330,445	-200,000	0,009	0,046
-329,431	-200,000	0,023	-0,101
-328,416	12,310	0,032	0,018
-327,402	800,000	-0,028	0,075
-326,387	-119,544	0,069	-0,009
-325,372	-70,038	-0,209	-0,058
-324,358	-116,873	0,139	-0,018
-323,343	-59,733	-0,032	0,010
-322,329	30,352	-0,079	-0,049
-321,314	-30,942	-0,020	-0,008
-320,299	128,252	0,039	-0,037
-319,285	113,801	0,057	-0,051
-318,270	-120,451	0,083	0,010
-317,256	800,000	-0,041	-0,093
-316,241	-97,020	0,133	-0,025
-315,226	194,950	0,103	0,115
-314,212	-63,804	-0,099	0,029
-313,197	110,784	0,065	0,057
-312,183	155,848	0,016	-0,016
-311,168	-48,234	0,133	-0,047
-310,153	-200,000	-0,004	-0,050
-309,139	-55,738	0,045	-0,015
-308,124	-17,819	-0,072	0,033
-307,110	-50,803	0,016	-0,005
-306,095	265,882	-0,021	-0,027
-305,080	-131,456	0,088	0,008
-304,066	-68,047	0,085	0,024
-303,051	-200,000	-0,005	0,088
-302,037	342,517	0,051	-0,073
-301,022	-200,000	0,010	-0,136
-300,008	173,552	0,132	0,140
-298,993	220,538	-0,060	0,071
-297,978	211,010	-0,070	0,081
-296,964	-157,236	0,113	0,005
-295,949	-200,000	0,001	-0,155
-294,935	-200,000	-0,004	-0,032
-293,920	-36,498	-0,111	-0,044
-292,905	213,014	0,116	-0,135
-291,891	211,148	-0,058	0,067
-290,876	-200,000	0,002	0,050
-289,862	271,176	0,020	-0,026
-288,847	212,178	0,024	-0,027
-287,832	314,029	0,068	-0,094
-286,818	133,391	0,028	-0,027
-285,803	317,607	0,090	0,124
-284,789	-39,711	-0,024	0,009
-283,774	118,497	-0,097	-0,087
-282,759	-200,000	-0,005	-0,018
-281,745	576,474	0,076	0,136
-280,730	800,000	-0,018	0,045
-279,716	-200,000	0,010	-0,094
-278,701	78,222	-0,040	0,031
-277,686	800,000	0,025	0,059
-276,672	-200,000	0,003	0,017
-275,657	137,809	-0,057	0,055
-274,643	-92,748	-0,077	-0,016
-273,628	577,718	0,031	0,055
-272,613	-178,295	0,042	-0,001
-271,599	94,898	0,034	0,028
-270,584	-200,000	0,009	-0,049
-269,570	176,713	-0,028	-0,030
-268,555	-26,706	-0,200	-0,085
-267,540	800,000	-0,017	0,053
-266,526	-200,000	0,044	0,189
-265,511	201,839	0,050	0,057
-264,497	55,476	0,072	-0,051
-263,482	-200,000	-0,006	0,125
-262,467	800,000	-0,029	-0,076
-261,453	486,542	0,019	-0,033
-260,438	23,919	0,064	-0,038
-259,424	-169,528	0,054	0,001
-258,409	-200,000	0,009	-0,067
-257,395	67,349	0,057	0,043
-256,380	-200,000	0,015	0,093
-255,365	-54,889	0,073	-0,024
-254,351	80,234	0,060	-0,047
-253,336	-200,000	-0,013	-0,101
-252,322	10,872	-0,031	-0,017
-251,307	-53,773	0,137	-0,045
-250,292	-200,000	-0,018	0,092
-249,278	97,118	0,046	0,038
-248,263	733,674	-0,004	0,008
-247,249	301,148	0,104	-0,141
-246,234	-74,064	-0,040	-0,010
-245,219	-200,000	-0,003	0,029
-244,205	-90,082	0,101	0,021
-243,190	314,602	-0,073	-0,101
-242,176	65,792	-0,090	0,066
-241,161	227,235	0,075	0,089
-240,146	714,583	0,042	-0,082
-239,132	800,000	-0,052	-0,134
-238,117	57,800	-0,050	0,036
-237,103	28,485	0,065	-0,040
-236,088	722,618	0,026	0,051
-235,073	-41,202	0,062	-0,023
-234,059	-39,713	0,158	-0,060
-233,044	-200,000	-0,011	-0,047
-232,030	270,144	-0,024	-0,031
-231,015	-200,000	0,027	0,101
-230,000	800,000	-0,021	-0,046
-228,986	800,000	-0,048	-0,114
-227,971	-200,000	0,016	-0,077
-226,957	324,679	0,066	0,092
-225,942	-200,000	0,043	0,147
-224,927	-54,778	-0,058	0,019
-223,913	-200,000	0,024	-0,082
-222,898	-118,287	-0,039	-0,005
-221,884	-73,699	-0,084	0,022
-220,869	-185,383	0,070	0,001
-219,855	-61,362	0,015	0,005
-218,840	756,762	0,047	0,092
-217,825	294,960	0,071	-0,095
-216,811	375,608	0,064	0,095
-215,796	-200,000	0,004	-0,150
-214,782	624,896	-0,039	0,073
-213,767	-110,696	-0,100	0,015
-212,752	-200,000	-0,009	0,080
-211,738	800,000	0,035	0,082
-210,723	724,548	0,070	-0,137
-209,709	-187,586	-0,063	-0,001
-208,694	-6,359	-0,041	0,020
-207,679	-48,775	0,128	-0,045
-206,665	-137,132	0,096	0,008
-205,650	-161,984	0,058	-0,002
-204,636	-200,000	0,005	-0,027
-203,621	800,000	-0,008	-0,023
-202,606	800,000	0,023	-0,068
-201,592	-200,000	-0,033	-0,119
-200,577	-200,000	0,037	0,137
-199,563	289,107	0,032	0,042
-198,548	-0,509	-0,030	0,015
-197,533	340,896	0,072	-0,102
-196,519	447,028	0,017	-0,028
-195,504	39,889	-0,064	-0,042
-194,490	67,664	-0,126	-0,093
-193,475	126,137	-0,107	-0,099
-192,460	-124,075	0,107	-0,012
-191,446	280,162	0,018	0,023
-190,431	-50,877	-0,049	0,017
-189,417	-200,000	0,001	0,095
-188,402	-9,009	0,033	0,016
-187,387	-67,939	-0,087	0,025
-186,373	-200,000	0,025	-0,082
-185,358	1,970	0,084	-0,044
-184,344	800,000	0,032	-0,095
-183,329	72,997	0,092	0,070
-182,315	50,862	-0,138	0,095
-181,300	149,720	0,149	0,148
-180,285	-142,679	-0,011	-0,001
-179,271	-200,000	0,019	-0,096
-178,256	-200,000	-0,009	-0,069
-177,242	-200,000	-0,017	-0,059
-176,227	-112,055	0,065	-0,009
-175,212	800,000	0,014	0,035
-174,198	174,583	0,064	-0,068
-173,183	302,523	0,009	0,012
-172,169	800,000	0,056	-0,117
-171,154	436,039	-0,078	-0,124
-170,139	-94,160	0,114	0,022
-169,125	728,429	0,029	0,056
-168,110	-200,000	0,004	0,047
-167,096	200,041	0,091	0,101
-166,081	224,092	-0,107	0,126
-165,066	800,000	0,031	-0,084
-164,052	116,050	-0,076	-0,068
-163,037	-120,732	0,053	0,006
-162,023	-43,615	0,111	0,041
-161,008	477,590	-0,119	0,197
-159,993	359,016	-0,037	0,054
-158,979	250,576	-0,038	0,048
-157,964	-134,805	-0,133	0,012
-156,950	-200,000	0,019	-0,076
-155,935	-163,865	0,091	0,003
-154,920	201,792	-0,046	0,051
-153,906	800,000	-0,019	-0,061
-152,891	-173,383	-0,038	-0,001
-151,877	164,536	-0,099	-0,102
-150,862	-85,013	0,105	-0,024
-149,847	268,727	0,059	0,076
-148,833	-24,407	0,102	0,044
-147,818	-200,000	-0,025	0,116
-146,804	670,027	-0,005	0,010
-145,789	236,247	0,031	0,038
-144,775	407,623	-0,034	-0,053
-143,760	373,910	0,066	-0,098
-142,745	-200,000	-0,010	-0,151
-141,731	445,221	-0,055	-0,087
-140,716	131,679	0,065	0,061
-139,702	800,000	-0,028	0,073
-138,687	90,897	0,078	0,063
-137,672	-12,041	-0,045	-0,022
-136,658	161,949	-0,136	-0,138
-135,643	-59,127	0,076	-0,024
-134,629	-200,000	-0,008	0,149
-133,614	800,000	-0,041	0,109
-132,599	-7,009	-0,043	0,021
-131,585	-10,009	0,089	-0,043
-130,570	800,000	0,022	-0,057
-129,556	-76,013	-0,062	0,016
-128,541	575,539	-0,072	-0,127
-127,526	40,628	0,079	-0,052
-126,512	656,646	0,024	-0,045
-125,497	-82,903	0,107	-0,025
-124,483	-171,249	0,115	-0,003
-123,468	800,000	0,020	-0,050
-122,453	-200,000	-0,009	0,030
-121,439	145,569	0,044	-0,043
-120,424	531,401	0,079	-0,136
-119,410	73,366	-0,076	0,057
-118,395	-7,702	0,123	-0,060
-117,380	-200,000	-0,013	-0,108
-116,366	283,180	0,089	0,117
-115,351	35,950	-0,129	-0,082
-114,337	-63,515	0,051	-0,015
-113,322	800,000	0,052	0,132
-112,307	-200,000	0,013	0,186
-111,293	-18,453	0,044	0,020
-110,278	800,000	-0,056	0,146
-109,264	-186,377	0,074	-0,001
-108,249	-90,030	0,137	-0,029
-107,234	13,669	-0,114	0,064
-106,220	763,455	0,043	-0,086
-105,205	-200,000	0,042	0,169
-104,191	439,536	0,076	0,121
-103,176	-200,000	0,024	0,077
-102,162	3,388	-0,065	0,034
-101,147	412,351	-0,039	-0,061
-100,132	-47,908	-0,042	0,015
-99,118	-71,684	-0,015	-0,004
-98,103	800,000	-0,034	0,099
-97,089	-89,382	0,088	0,019
-96,074	342,039	-0,018	-0,025
-95,059	-83,482	-0,147	-0,034
-94,045	800,000	-0,023	0,070
-93,030	-200,000	0,006	-0,071
-92,016	164,085	-0,047	-0,048
-91,001	132,501	-0,060	0,056
-89,986	-140,640	0,123	0,009
-88,972	155,736	-0,129	0,129
-87,957	-43,779	-0,107	0,039
-86,943	7,939	-0,104	0,056
-85,928	-60,725	-0,087	0,027
-84,913	-83,475	0,066	-0,015
-83,899	-35,310	-0,067	0,026
-82,884	-78,171	0,072	0,018
-81,870	800,000	-0,021	-0,065
-80,855	-28,450	-0,024	-0,010
-79,840	800,000	0,025	0,074
-78,826	136,994	-0,049	0,046
-77,811	-75,644	-0,092	-0,023
-76,797	-200,000	-0,000	0,046
-75,782	800,000	-0,047	-0,144
-74,767	222,350	0,018	-0,021
-73,753	-200,000	0,001	-0,012
-72,738	-27,725	-0,083	0,035
-71,724	-21,975	-0,075	0,033
-70,709	-54,957	0,015	0,005
-69,694	-200,000	0,001	-0,059
-68,680	97,508	0,031	-0,026
-67,665	627,666	0,019	0,035
-66,651	-200,000	-0,023	-0,120
-65,636	-65,959	-0,099	-0,028
-64,622	248,628	-0,009	0,011
-63,607	18,304	0,055	-0,032
-62,592	630,206	0,040	-0,074
-61,578	-117,675	-0,108	-0,014
-60,563	393,506	-0,070	-0,106
-59,549	-28,265	0,070	0,029
-58,534	-124,793	-1,397	-0,155
-57,519	799,900	-0,705	-1,418
-56,505	-200,000	-0,985	-4,472
-55,490	-65,183	0,693	-0,201
-54,476	800,000	4,856	11,779
-53,461	-200,000	14,295	253,359
-52,446	-200,000	695,918	2232,541
-51,432	568,330	1624,944	2872,610
-50,417	116,941	1631,514	1451,745
-49,403	72,877	1285,279	971,647
-48,388	37,459	1022,491	655,709
-47,373	23,733	981,134	584,109
-46,359	22,917	970,407	575,027
-45,344	21,964	966,114	569,352
-44,330	21,872	964,798	568,255
-43,315	21,702	963,458	566,892
-42,300	21,724	962,306	566,261
-41,286	21,697	961,400	565,618
-40,271	21,696	960,345	564,973
-39,257	21,659	959,298	564,215
-38,242	21,698	958,371	563,771
-37,227	21,701	957,252	563,100
-36,213	21,674	956,724	562,681
-35,198	21,680	955,850	562,163
-34,184	21,752	955,161	561,968
-33,169	21,612	954,279	560,976
-32,154	21,686	953,502	560,737
-31,140	21,770	952,382	560,324
-30,125	21,705	951,690	559,688
-29,111	21,762	950,706	559,269
-28,096	21,788	950,126	558,990
-27,082	21,690	949,537	558,307
-26,067	21,726	948,821	557,978
-25,052	21,794	947,834	557,592
-24,038	21,731	947,522	557,184
-23,023	21,732	946,926	556,818
-22,009	21,748	946,024	556,314
-20,994	21,726	945,384	555,848
-19,979	21,713	944,888	555,492
-18,965	21,704	944,270	555,078
-17,950	21,730	943,562	554,723
-16,936	21,700	942,829	554,174
-15,921	21,691	942,145	553,722
-14,906	21,596	941,420	552,972
-13,892	21,584	940,826	552,561
-12,877	21,584	940,330	552,250
-11,863	21,590	939,535	551,779
-10,848	21,580	939,183	551,519
-9,833	21,697	938,656	551,558
-8,819	21,682	938,200	551,222
-7,804	21,591	937,401	550,442
-6,790	21,678	936,654	550,254
-5,775	21,665	936,306	549,987
-4,760	21,637	935,474	549,389
-3,746	21,568	934,936	548,834
-2,731	21,454	934,250	548,052
-1,717	21,402	933,595	547,480
-0,702	21,379	932,880	546,967
0,313	21,174	932,425	546,881
1,327	24,194	930,259	555,040
2,342	33,342	793,448	497,696
3,356	30,882	450,475	278,838
4,371	0,777	294,508	152,185
5,386	-3,718	275,684	138,180
6,400	-4,870	270,034	134,263
7,415	-5,214	267,636	132,742
8,429	-5,075	266,624	132,356
9,444	-4,949	265,479	131,891
10,459	-4,995	264,876	131,538
11,473	-5,085	264,374	131,195
12,488	-5,043	263,774	130,923
13,502	-5,284	263,340	130,478
14,517	-5,044	262,878	130,455
15,531	-5,216	262,507	130,104
16,546	-5,159	262,245	130,014
17,561	-5,008	261,665	129,851
18,575	-5,109	261,614	129,722
19,590	-5,127	261,181	129,480
20,604	-5,071	260,927	129,392
21,619	-5,174	260,605	129,129
22,634	-5,062	260,169	129,002
23,648	-5,199	259,962	128,765
24,663	-5,158	259,677	128,649
25,677	-5,150	259,384	128,500
26,692	-5,215	259,156	128,317
27,707	-5,033	258,906	128,344
28,721	-5,320	258,640	127,945
29,736	-5,157	258,277	127,900
30,750	-4,993	258,086	127,939
31,765	-5,179	257,932	127,686
32,780	-5,237	257,734	127,525
33,794	-5,083	257,306	127,439
34,809	-5,189	257,238	127,300
35,823	-5,161	256,853	127,122
36,838	-5,296	256,746	126,939
37,853	-5,329	256,485	126,770
38,867	-5,371	256,297	126,628
39,882	-5,257	256,086	126,613
40,896	-5,305	255,817	126,427
41,911	-5,215	255,538	126,357
42,926	-5,031	255,091	126,285
43,940	-5,128	254,985	126,137
44,955	-5,256	254,909	125,976
45,969	-5,098	254,614	125,957
46,984	-5,710	254,455	125,332
47,999	-5,519	254,171	125,348
49,013	-5,822	253,926	124,952
50,028	-5,914	253,649	124,724
51,042	-5,998	253,394	124,515
52,057	-5,873	253,269	124,550
53,071	-5,880	252,954	124,379
54,086	-5,735	252,880	124,457
55,101	-5,817	252,697	124,285
56,115	-5,479	252,502	124,471
57,130	-5,125	252,419	124,726
58,144	-5,106	252,385	124,714
59,159	-4,953	252,006	124,648
60,174	-5,193	251,804	124,329
61,188	-5,086	251,526	124,274
62,203	-5,115	251,464	124,207
63,217	-4,943	251,107	124,167
64,232	-5,296	250,964	123,782
65,247	-5,038	250,699	123,862
66,261	-5,207	250,526	123,621
67,276	-5,409	250,336	123,342
68,290	-5,367	249,990	123,196
69,305	-5,498	249,915	123,036
70,320	-5,642	249,777	122,834
71,334	-5,287	249,479	122,980
72,349	-5,093	249,358	123,075
73,363	-4,783	249,155	123,229
74,378	-5,065	248,878	122,841
75,393	-5,130	248,725	122,699
76,407	-5,178	248,604	122,587
77,422	-5,062	248,390	122,570
78,436	-5,190	248,199	122,356
79,451	-5,077	247,725	122,206
80,466	-5,042	247,577	122,153
81,480	-5,275	247,425	121,869
82,495	-5,574	247,188	121,488
83,509	-5,418	247,155	121,594
84,524	-5,613	247,125	121,403
85,539	-5,361	246,703	121,397
86,553	-5,496	246,495	121,170
87,568	-5,519	246,310	121,049
88,582	-5,594	246,232	120,937
89,597	-5,331	245,963	121,015
90,611	-5,199	245,759	121,015
91,626	-5,228	245,803	121,002
92,641	-5,121	245,403	120,884
93,655	-5,243	245,276	120,708
94,670	-5,442	245,023	120,406
95,684	-5,303	244,909	120,456
96,699	-5,298	244,610	120,303
97,714	-5,453	244,604	120,159
98,728	-5,445	244,250	119,981
99,743	-5,560	244,129	119,814
100,757	-5,567	243,672	119,574
101,772	-5,398	243,586	119,662
102,787	-5,469	243,461	119,530
103,801	-5,417	243,234	119,451
104,816	-5,165	243,214	119,641
105,830	-5,129	242,983	119,546
106,845	-5,232	242,907	119,413
107,860	-5,349	242,770	119,237
108,874	-5,295	242,441	119,110
109,889	-5,411	242,375	118,971
110,903	-5,494	242,183	118,798
111,918	-5,467	241,988	118,713
112,933	-5,301	241,880	118,787
113,947	-5,236	241,574	118,680
114,962	-5,281	241,498	118,595
115,976	-5,280	241,193	118,436
116,991	-5,078	241,008	118,500
118,006	-5,442	240,857	118,116
119,020	-5,168	240,810	118,308
120,035	-5,068	240,562	118,258
121,049	-5,115	240,558	118,206
122,064	-5,028	240,291	118,136
123,079	-5,193	240,166	117,929
124,093	-5,304	239,951	117,722
125,108	-5,428	239,810	117,540
126,122	-5,519	239,492	117,300
127,137	-5,491	239,297	117,217
128,151	-5,466	239,182	117,170
129,166	-5,370	238,970	117,134
130,181	-5,582	238,755	116,846
131,195	-5,433	238,714	116,937
132,210	-5,487	238,473	116,765
133,224	-5,368	238,371	116,801
134,239	-5,182	238,174	116,845
135,254	-5,064	238,043	116,866
136,268	-5,271	237,659	116,499
137,283	-5,477	237,459	116,224
138,297	-5,412	237,320	116,198
139,312	-5,538	237,147	116,001
140,327	-5,361	237,093	116,108
141,341	-4,942	237,021	116,400
142,356	-5,128	236,987	116,223
143,370	-4,979	236,691	116,188
144,385	-4,798	236,604	116,281
145,400	-4,834	236,463	116,172
146,414	-4,975	236,188	115,913
147,429	-4,951	236,086	115,872
148,443	-4,866	235,775	115,777
149,458	-5,016	235,733	115,626
150,473	-5,022	235,484	115,488
151,487	-4,965	235,397	115,481
152,502	-5,040	235,153	115,291
153,516	-4,794	234,931	115,369
154,531	-4,895	234,830	115,228
155,546	-5,050	234,681	115,021
156,560	-5,084	234,476	114,883
157,575	-5,072	234,331	114,812
158,589	-5,179	234,170	114,637
159,604	-5,006	234,004	114,684
160,619	-4,850	233,822	114,708
161,633	-4,885	233,697	114,608
162,648	-4,874	233,592	114,556
163,662	-4,944	233,314	114,354
164,677	-5,187	233,256	114,123
165,692	-4,942	233,093	114,227
166,706	-4,862	232,897	114,184
167,721	-4,910	232,742	114,060
168,735	-4,773	232,636	114,106
169,750	-4,881	232,355	113,872
170,764	-4,802	232,324	113,910
171,779	-4,968	232,231	113,722
172,794	-5,138	232,217	113,572
173,808	-5,040	231,875	113,471
174,823	-5,485	231,590	112,971
175,837	-5,317	231,269	112,937
176,852	-5,204	231,338	113,050
177,867	-5,028	231,203	113,111
178,881	-4,975	231,085	113,085
179,896	-4,697	230,873	113,189
180,910	-4,823	230,755	113,023
181,925	-4,793	230,712	113,015
182,940	-4,971	230,412	112,719
183,954	-4,688	230,320	112,886
184,969	-4,917	230,285	112,679
185,983	-4,846	230,035	112,602
186,998	-4,678	229,926	112,669
188,013	-4,606	229,870	112,688
189,027	-4,533	229,511	112,559
190,042	-4,651	229,241	112,325
191,056	-4,586	229,099	112,296
192,071	-4,558	228,993	112,256
193,086	-4,602	228,979	112,205
194,100	-4,846	228,698	111,867
195,115	-5,189	228,454	111,472
196,129	-5,424	228,201	111,157
197,144	-3,012	228,971	113,394
198,159	1,366	230,220	117,413
199,173	3,786	230,831	119,600
200,188	3,723	230,785	119,516
201,202	3,824	230,680	119,529
202,217	4,294	230,592	119,838
203,232	4,447	230,348	119,819
204,246	4,407	230,325	119,766
205,261	4,412	230,063	119,623
206,275	4,837	230,035	119,927
207,290	4,668	229,780	119,652
208,304	4,843	229,740	119,756
209,319	4,708	229,624	119,581
210,334	4,616	229,382	119,373
211,348	4,448	229,087	119,080
212,363	4,094	228,816	118,655
213,377	3,807	228,638	118,331
214,392	3,745	228,417	118,158
215,407	3,827	228,441	118,223
216,421	3,843	228,258	118,130
217,436	3,871	227,991	118,004
218,450	3,600	227,751	117,661
219,465	3,418	227,642	117,454
220,480	3,684	227,500	117,574
221,494	3,553	227,588	117,509
222,509	3,947	227,239	117,620
223,523	3,657	227,173	117,353
224,538	3,461	227,028	117,118
225,553	3,662	226,925	117,208
226,567	3,742	226,840	117,215
227,582	4,012	226,623	117,298
228,596	4,018	226,575	117,267
229,611	3,967	226,392	117,123
230,626	3,635	226,215	116,768
231,640	3,748	225,997	116,732
232,655	3,998	225,939	116,882
233,669	4,367	225,836	117,097
234,684	4,457	225,704	117,088
235,699	4,197	225,400	116,722
236,713	3,995	225,300	116,507
237,728	4,012	225,103	116,407
238,742	3,728	224,792	116,022
239,757	3,619	224,725	115,894
240,772	3,736	224,623	115,920
241,786	3,533	224,502	115,694
242,801	3,834	224,548	115,934
243,815	3,980	224,486	116,002
244,830	4,193	224,194	116,001
245,844	3,855	224,004	115,639
246,859	3,728	224,002	115,531
247,874	4,008	223,735	115,594
248,888	4,037	223,575	115,523
249,903	3,844	223,535	115,346
250,917	3,889	223,177	115,185
251,932	3,971	223,095	115,194
252,947	3,606	222,909	114,815
253,961	3,701	222,622	114,728
254,976	4,033	222,428	114,865
255,990	4,124	222,423	114,921
257,005	4,079	222,376	114,853
258,020	3,864	222,294	114,640
259,034	4,265	222,224	114,892
260,049	4,058	222,040	114,633
261,063	3,983	221,604	114,342
262,078	4,249	221,725	114,591
263,093	4,091	221,661	114,430
264,107	4,099	221,470	114,328
265,122	4,082	221,219	114,175
266,136	3,937	221,315	114,108
267,151	4,410	220,993	114,281
268,166	3,758	220,781	113,679
269,180	3,569	220,625	113,449
270,195	3,561	220,431	113,333
271,209	3,630	220,163	113,236
272,224	3,637	220,281	113,292
273,239	3,756	220,043	113,247
274,253	3,582	220,000	113,087
275,268	3,601	219,765	112,970
276,282	3,596	219,463	112,800
277,297	3,585	219,427	112,764
278,312	3,728	219,237	112,762
279,326	4,012	219,112	112,895
280,341	3,699	219,187	112,694
281,355	3,635	219,064	112,574
282,370	3,693	218,941	112,543
283,384	3,624	218,494	112,253
284,399	3,385	218,437	112,039
285,414	3,526	218,242	112,032
286,428	3,847	218,229	112,250
287,443	3,790	218,168	112,167
288,457	3,743	218,159	112,117
289,472	3,750	217,910	111,985
290,487	3,279	217,667	111,507
291,501	3,378	217,393	111,429
292,516	3,462	217,292	111,428
293,530	3,270	217,212	111,237
294,545	3,130	217,130	111,084
295,560	3,535	216,982	111,292
296,574	3,565	216,758	111,190
297,589	3,624	216,731	111,208
298,603	4,049	216,555	111,416
299,618	4,178	216,531	111,487
300,633	3,979	216,410	111,271
301,647	4,097	216,211	111,244
302,662	3,992	216,122	111,112
303,676	4,000	216,063	111,077
304,691	3,918	215,889	110,919
305,706	4,002	215,810	110,929
306,720	4,081	215,483	110,808
307,735	3,867	215,323	110,562
308,749	3,570	215,167	110,259
309,764	3,873	215,083	110,424
310,779	4,351	214,855	110,639
311,793	3,834	214,816	110,239
312,808	4,009	214,637	110,262
313,822	3,880	214,524	110,102
314,837	3,604	214,370	109,815
315,852	3,677	214,178	109,760
316,866	3,683	213,995	109,661
317,881	4,063	213,903	109,875
318,895	4,143	213,882	109,912
319,910	3,936	213,649	109,635
320,925	3,636	213,394	109,280
321,939	3,391	213,177	108,985
322,954	3,439	213,190	109,016
323,968	3,751	213,037	109,150
324,983	3,956	213,103	109,319
325,997	3,902	213,055	109,247
327,012	4,028	212,801	109,197
328,027	3,980	212,645	109,072
329,041	4,057	212,478	109,031
330,056	4,396	212,453	109,249
331,070	4,088	212,125	108,853
332,085	3,661	212,063	108,509
333,100	3,720	211,823	108,419
334,114	3,652	211,824	108,362
335,129	3,642	211,648	108,255
336,143	3,596	211,488	108,131
337,158	3,662	211,293	108,068
338,173	3,629	211,046	107,909
339,187	3,882	210,923	108,014
340,202	3,543	210,767	107,686
341,216	3,468	210,671	107,576
342,231	3,644	210,764	107,737
343,246	3,712	210,334	107,555
344,260	3,403	210,348	107,336
345,275	3,818	210,232	107,558
346,289	3,881	210,174	107,563
347,304	3,822	210,061	107,454
348,319	3,645	209,916	107,246
349,333	3,645	209,909	107,234
350,348	3,666	209,644	107,103
351,362	3,845	209,622	107,207
352,377	3,974	209,532	107,241
353,392	3,616	209,372	106,900
354,406	3,748	209,231	106,911
355,421	194,521	1345,777	1434,535
356,435	155,255	1484,342	1434,647
