DTS Sentinel unit serial number:	SN410029Multiplexer serial number:	ORYXHardware model number:	OX2-SRSoftware version number:	ORYX F/W v4,00 Oryx Data Collector v3.7.2.0data status	okinstallation	B6 Nyhavnadifferential loss correction	single-endedforward channel	channel 2reverse channel	N/Adate	2023/12/09time	07:15:08forward acquisition time	300,00reverse acquisition time	0,00gamma	499,1914k internal	0,3139k external	0,3139temperature offset calibration	1,0000default loss term (dB/km)	0,3820temperature slope calibration	1,0000multiplexer offset coefficient	1,0000multiplexer slope coefficient	1,0000fibre end	0,00T internal ref (°C)	18,56T ext. ref 1 (°C)	2,05T ext. ref 2 (°C)	2,06length (m)	temperature (°C)	Stokes	anti-Stokes-744,400	-200,000	-0,009	0,050
-743,385	-60,851	-0,156	0,049
-742,371	-167,398	0,091	0,003
-741,356	-21,417	-0,231	-0,104
-740,342	-200,000	0,020	0,143
-739,327	-154,105	-0,204	0,010
-738,312	-79,465	0,123	-0,031
-737,298	91,388	-0,114	0,095
-736,283	-200,000	0,181	0,000
-735,269	-113,767	-0,213	0,030
-734,254	162,598	-0,070	0,073
-733,239	-157,424	-0,418	-0,018
-732,225	21,412	0,115	-0,069
-731,210	-127,592	0,087	0,009
-730,196	-145,782	-0,107	-0,007
-729,181	-48,827	0,078	0,027
-728,167	522,941	0,061	-0,107
-727,152	796,052	0,042	-0,087
-726,137	71,116	0,069	-0,053
-725,123	111,639	0,018	-0,016
-724,108	-200,000	0,015	-0,071
-723,094	-200,000	0,018	-0,144
-722,079	-200,000	-0,005	-0,134
-721,064	-200,000	-0,000	-0,159
-720,050	-133,023	-0,080	-0,007
-719,035	800,000	0,043	-0,118
-718,021	-106,191	-0,086	0,014
-717,006	-200,000	-0,054	-0,210
-715,991	156,693	-0,114	-0,117
-714,977	120,924	0,035	-0,032
-713,962	800,000	-0,016	0,042
-712,948	4,862	-0,065	0,035
-711,933	-24,876	0,218	0,095
-710,918	517,077	0,029	-0,051
-709,904	64,887	0,018	-0,014
-708,889	560,297	-0,019	-0,035
-707,875	-200,000	0,020	-0,118
-706,860	146,611	-0,024	0,024
-705,845	800,000	0,046	0,130
-704,831	9,598	-0,100	-0,056
-703,816	800,000	0,012	-0,035
-702,802	306,921	0,105	0,146
-701,787	-142,275	-0,087	-0,006
-700,772	-69,332	-0,045	0,013
-699,758	73,834	-0,178	-0,138
-698,743	-200,000	0,000	0,009
-697,729	800,000	-0,047	0,131
-696,714	800,000	-0,010	0,028
-695,699	205,051	-0,091	-0,105
-694,685	-111,506	-0,167	-0,025
-693,670	-200,000	-0,009	-0,095
-692,656	106,219	-0,028	-0,024
-691,641	800,000	0,009	-0,026
-690,627	130,369	-0,092	-0,087
-689,612	-200,000	0,033	-0,125
-688,597	-1,824	-0,059	-0,030
-687,583	-200,000	-0,000	-0,156
-686,568	-200,000	0,001	-0,085
-685,554	-133,578	-0,039	0,004
-684,539	575,407	-0,030	-0,055
-683,524	800,000	-0,046	-0,130
-682,510	-198,947	-0,095	0,000
-681,495	38,733	-0,050	-0,033
-680,481	-200,000	-0,011	-0,040
-679,466	11,832	-0,052	0,030
-678,451	-200,000	-0,012	-0,178
-677,437	110,024	-0,060	-0,053
-676,422	24,695	0,039	0,024
-675,408	234,090	-0,068	0,083
-674,393	8,962	-0,045	0,025
-673,378	-152,304	0,063	0,003
-672,364	-92,776	-0,065	-0,013
-671,349	1,766	-0,107	-0,057
-670,335	-200,000	0,001	0,004
-669,320	476,778	-0,054	-0,090
-668,305	-44,704	0,045	0,017
-667,291	-200,000	0,026	-0,092
-666,276	367,374	-0,026	-0,039
-665,262	-87,392	-0,128	-0,028
-664,247	-200,000	-0,008	-0,063
-663,232	388,668	0,063	-0,096
-662,218	365,809	0,049	0,073
-661,203	25,757	0,078	-0,048
-660,189	571,222	-0,067	0,121
-659,174	-70,957	-0,104	-0,029
-658,159	305,118	-0,072	0,099
-657,145	-200,000	-0,014	-0,079
-656,130	-200,000	-0,005	0,032
-655,116	-179,252	0,083	-0,001
-654,101	-73,094	-0,070	0,019
-653,086	444,156	0,097	-0,158
-652,072	-200,000	-0,012	-0,161
-651,057	-119,093	-0,044	0,006
-650,043	194,845	-0,054	0,060
-649,028	-46,733	-0,045	0,016
-648,014	-68,798	0,046	-0,013
-646,999	110,654	0,047	0,042
-645,984	-112,539	-0,025	0,004
-644,970	-200,000	-0,000	0,049
-643,955	0,659	-0,044	-0,023
-642,941	800,000	-0,051	-0,159
-641,926	-200,000	0,011	-0,151
-640,911	-90,061	-0,018	-0,004
-639,897	181,649	-0,049	0,053
-638,882	540,648	0,045	0,080
-637,868	-200,000	-0,003	0,137
-636,853	48,398	-0,114	-0,079
-635,838	-164,747	-0,091	0,003
-634,824	58,522	0,095	-0,069
-633,809	-200,000	-0,023	0,076
-632,795	259,542	-0,068	-0,086
-631,780	736,959	0,026	-0,052
-630,765	186,395	0,094	0,104
-629,751	-148,766	-0,072	0,004
-628,736	113,180	0,007	0,006
-627,722	215,510	-0,078	0,092
-626,707	-65,071	0,189	-0,056
-625,692	-200,000	0,023	-0,083
-624,678	-149,894	0,111	-0,006
-623,663	-200,000	0,039	-0,140
-622,649	-49,064	-0,090	0,032
-621,634	183,931	-0,068	0,075
-620,619	520,319	-0,077	0,134
-619,605	-200,000	0,022	-0,112
-618,590	80,833	-0,024	0,019
-617,576	-94,344	0,194	-0,039
-616,561	695,013	0,065	0,127
-615,546	-41,078	-0,101	0,038
-614,532	-42,218	-0,151	-0,057
-613,517	-200,000	-0,012	-0,117
-612,503	116,661	0,028	-0,026
-611,488	245,808	0,067	0,083
-610,474	-73,919	0,167	-0,044
-609,459	-200,000	-0,015	0,083
-608,444	800,000	0,091	0,194
-607,430	800,000	0,027	-0,080
-606,415	5,703	0,064	-0,035
-605,401	-200,000	-0,013	-0,055
-604,386	164,186	0,084	0,088
-603,371	-13,785	0,065	0,031
-602,357	-6,103	-0,127	0,064
-601,342	-200,000	0,005	-0,162
-600,328	-200,000	-0,009	-0,079
-599,313	800,000	0,030	0,085
-598,298	62,960	0,045	0,034
-597,284	93,278	0,104	0,087
-596,269	-170,759	0,119	-0,003
-595,255	800,000	0,021	-0,065
-594,240	33,479	0,072	-0,046
-593,225	-145,176	-0,204	-0,013
-592,211	-200,000	0,011	-0,115
-591,196	269,426	-0,111	-0,144
-590,182	99,414	0,055	-0,047
-589,167	-163,206	0,098	-0,003
-588,152	-200,000	-0,006	-0,121
-587,138	-183,068	-0,063	0,001
-586,123	-61,311	0,118	0,036
-585,109	-134,625	0,063	0,006
-584,094	34,938	-0,056	-0,036
-583,079	313,136	-0,065	-0,090
-582,065	226,416	0,060	-0,071
-581,050	-23,880	0,089	0,039
-580,036	800,000	-0,024	0,050
-579,021	2,941	-0,072	-0,038
-578,006	528,356	0,035	-0,061
-576,992	800,000	0,056	-0,123
-575,977	-149,795	0,113	0,006
-574,963	6,139	-0,065	0,035
-573,948	21,149	-0,021	0,012
-572,934	800,000	-0,069	-0,159
-571,919	-200,000	0,014	-0,046
-570,904	74,389	-0,053	-0,041
-569,890	744,753	0,040	-0,080
-568,875	800,000	-0,005	-0,012
-567,861	-200,000	0,031	0,196
-566,846	800,000	-0,003	-0,008
-565,831	274,460	-0,067	0,088
-564,817	-200,000	0,001	0,076
-563,802	133,014	0,084	0,080
-562,788	-66,904	0,050	-0,014
-561,773	-120,799	0,122	-0,015
-560,758	-120,310	-0,028	-0,004
-559,744	204,146	0,105	0,120
-558,729	-200,000	0,012	0,092
-557,715	-200,000	0,002	0,087
-556,700	-143,336	0,117	0,008
-555,685	169,025	-0,063	0,066
-554,671	5,824	0,043	-0,023
-553,656	800,000	-0,013	-0,036
-552,642	-200,000	0,012	0,128
-551,627	11,570	-0,072	-0,041
-550,612	-118,523	0,128	-0,016
-549,598	190,450	-0,039	-0,043
-548,583	-200,000	0,025	-0,096
-547,569	314,386	0,034	-0,047
-546,554	-72,866	0,015	0,004
-545,539	-82,809	0,100	0,023
-544,525	-64,723	-0,022	0,007
-543,510	6,288	-0,079	0,043
-542,496	-190,617	0,064	-0,000
-541,481	-200,000	-0,025	0,087
-540,466	-53,372	-0,101	-0,034
-539,452	218,669	-0,066	0,077
-538,437	19,730	-0,059	0,035
-537,423	800,000	0,073	0,222
-536,408	215,764	0,044	0,051
-535,393	-46,500	-0,108	-0,039
-534,379	-50,204	0,104	-0,036
-533,364	212,421	0,079	-0,092
-532,350	220,998	0,068	0,080
-531,335	-200,000	-0,011	0,052
-530,321	800,000	-0,004	-0,012
-529,306	-27,411	-0,068	-0,029
-528,291	800,000	-0,025	-0,065
-527,277	800,000	-0,041	0,091
-526,262	-200,000	-0,012	-0,092
-525,248	-200,000	-0,021	-0,083
-524,233	44,111	0,089	0,060
-523,218	-63,742	-0,152	0,046
-522,204	-200,000	0,013	-0,090
-521,189	-133,805	-0,095	0,009
-520,175	-33,798	-0,029	0,012
-519,160	-200,000	0,001	-0,143
-518,145	-117,108	0,181	0,024
-517,131	222,642	0,059	0,070
-516,116	-65,449	-0,005	0,001
-515,102	-15,802	0,035	-0,016
-514,087	512,470	-0,062	-0,107
-513,072	76,159	0,091	-0,070
-512,058	-32,364	-0,140	0,057
-511,043	16,611	-0,049	-0,028
-510,029	-200,000	0,005	0,025
-509,014	-200,000	0,011	0,057
-507,999	210,171	-0,042	0,049
-506,985	-116,946	-0,035	0,005
-505,970	-200,000	0,007	0,045
-504,956	577,473	-0,005	0,009
-503,941	-117,707	0,143	0,019
-502,926	19,283	0,105	-0,062
-501,912	-181,721	0,129	0,002
-500,897	-172,820	-0,079	-0,002
-499,883	238,220	0,047	-0,058
-498,868	-200,000	-0,017	-0,092
-497,853	68,477	-0,207	-0,155
-496,839	244,970	0,058	0,072
-495,824	720,859	0,072	0,141
-494,810	555,208	-0,043	0,076
-493,795	800,000	-0,030	0,065
-492,781	-200,000	0,032	0,190
-491,766	-199,236	-0,159	-0,001
-490,751	238,779	0,019	0,023
-489,737	21,354	0,104	0,062
-488,722	-35,396	0,103	0,041
-487,708	0,713	-0,071	0,037
-486,693	624,467	0,008	-0,014
-485,678	127,104	0,062	-0,057
-484,664	800,000	-0,079	-0,187
-483,649	-54,889	-0,044	0,015
-482,635	-200,000	-0,033	-0,140
-481,620	-200,000	0,001	-0,115
-480,605	-84,728	0,066	0,015
-479,591	-200,000	0,001	0,037
-478,576	-200,000	-0,001	-0,066
-477,562	398,937	-0,081	-0,124
-476,547	-98,409	-0,014	0,003
-475,532	800,000	0,024	0,070
-474,518	212,187	0,087	-0,101
-473,503	30,982	-0,012	0,008
-472,489	325,501	-0,065	0,091
-471,474	-126,711	-0,032	-0,003
-470,459	-100,975	0,069	-0,012
-469,445	800,000	-0,084	-0,237
-468,430	-43,473	-0,156	0,058
-467,416	800,000	0,013	0,042
-466,401	800,000	0,017	-0,054
-465,386	-91,220	0,055	-0,011
-464,372	52,848	-0,113	0,079
-463,357	-21,902	0,062	0,027
-462,343	-34,429	-0,045	-0,018
-461,328	330,743	0,047	0,066
-460,313	-118,142	-0,149	0,019
-459,299	-200,000	0,004	0,090
-458,284	673,683	-0,045	0,086
-457,270	-200,000	-0,000	-0,037
-456,255	-200,000	-0,029	-0,099
-455,241	-176,663	-0,038	0,001
-454,226	190,643	-0,071	-0,079
-453,211	-106,333	0,131	0,021
-452,197	-135,543	0,143	0,012
-451,182	782,261	0,058	-0,117
-450,168	45,927	-0,056	-0,038
-449,153	645,147	-0,021	0,039
-448,138	115,680	-0,084	-0,075
-447,124	-92,810	0,131	0,027
-446,109	-200,000	-0,031	-0,144
-445,095	-200,000	0,011	-0,070
-444,080	21,500	-0,042	0,025
-443,065	-200,000	0,007	-0,030
-442,051	-104,112	-0,064	0,011
-441,036	-60,600	-0,129	-0,040
-440,022	-55,838	0,109	-0,035
-439,007	186,171	0,029	0,032
-437,992	-200,000	0,010	-0,160
-436,978	22,665	-0,022	-0,013
-435,963	-200,000	0,020	0,085
-434,949	-147,004	-0,099	-0,006
-433,934	-200,000	0,033	-0,169
-432,919	205,571	-0,065	-0,074
-431,905	532,203	0,049	-0,085
-430,890	61,909	0,052	0,038
-429,876	-117,468	-0,070	-0,009
-428,861	569,696	0,108	-0,193
-427,846	-25,801	0,037	-0,016
-426,832	2,627	-0,108	-0,057
-425,817	-200,000	0,019	-0,081
-424,803	800,000	0,052	-0,147
-423,788	800,000	-0,026	-0,068
-422,773	-84,687	0,056	-0,013
-421,759	800,000	0,060	-0,137
-420,744	794,565	-0,032	-0,065
-419,730	24,773	-0,136	-0,082
-418,715	-34,291	-0,056	-0,023
-417,701	73,370	-0,140	-0,107
-416,686	272,265	0,053	-0,068
-415,671	16,604	0,111	0,064
-414,657	62,492	0,107	-0,078
-413,642	496,817	-0,024	-0,041
-412,628	-115,575	-0,155	0,021
-411,613	87,069	0,071	-0,057
-410,598	167,913	-0,082	-0,085
-409,584	680,632	-0,046	-0,088
-408,569	287,071	-0,006	0,008
-407,555	-200,000	-0,026	-0,092
-406,540	-73,337	0,139	0,037
-405,525	-200,000	-0,003	-0,126
-404,511	-142,298	-0,137	-0,010
-403,496	681,653	-0,048	-0,091
-402,482	314,792	-0,045	0,062
-401,467	301,877	0,062	-0,084
-400,452	554,586	0,054	0,095
-399,438	347,516	-0,023	0,033
-398,423	148,935	0,066	-0,065
-397,409	-200,000	-0,033	-0,132
-396,394	482,339	0,072	-0,119
-395,379	63,818	0,067	-0,049
-394,365	-200,000	0,022	0,086
-393,350	218,999	-0,026	-0,030
-392,336	800,000	0,036	0,115
-391,321	-200,000	0,002	-0,057
-390,306	-88,144	0,066	-0,014
-389,292	800,000	-0,051	0,121
-388,277	208,927	0,034	0,039
-387,263	451,590	-0,104	0,168
-386,248	266,925	0,048	0,061
-385,233	-46,848	-0,084	0,030
-384,219	195,604	-0,022	0,024
-383,204	-19,544	-0,130	0,058
-382,190	513,275	-0,045	-0,076
-381,175	-200,000	0,002	0,051
-380,160	-200,000	-0,007	0,076
-379,146	165,300	0,026	-0,027
-378,131	534,593	0,088	-0,152
-377,117	-112,665	-0,146	-0,021
-376,102	-200,000	0,012	-0,064
-375,088	-81,242	-0,072	-0,017
-374,073	-200,000	-0,001	0,041
-373,058	399,224	0,077	0,118
-372,044	-200,000	0,012	0,048
-371,029	262,601	-0,040	0,051
-370,015	-45,961	-0,079	-0,028
-369,000	-179,078	-0,072	0,001
-367,985	-200,000	-0,006	-0,056
-366,971	259,494	0,014	-0,018
-365,956	-200,000	0,055	0,204
-364,942	86,973	0,048	0,039
-363,927	800,000	-0,027	-0,082
-362,912	-200,000	-0,018	0,100
-361,898	181,707	-0,031	0,033
-360,883	343,376	-0,032	-0,046
-359,869	460,062	0,040	-0,065
-358,854	-154,043	0,169	-0,008
-357,839	-61,740	0,143	-0,044
-356,825	339,361	0,101	0,145
-355,810	45,069	-0,086	0,057
-354,796	-103,427	-0,078	0,013
-353,781	-200,000	0,009	0,059
-352,766	278,800	-0,006	0,007
-351,752	-200,000	-0,002	0,055
-350,737	-97,150	0,078	-0,015
-349,723	151,073	0,058	0,058
-348,708	400,942	0,035	-0,053
-347,693	121,323	-0,051	-0,047
-346,679	800,000	-0,017	-0,053
-345,664	6,481	-0,107	0,058
-344,650	-139,873	0,023	-0,002
-343,635	-200,000	-0,019	0,115
-342,620	467,635	-0,056	0,092
-341,606	-200,000	-0,048	0,204
-340,591	57,915	0,122	0,087
-339,577	-22,444	-0,116	0,051
-338,562	-94,343	-0,062	0,012
-337,548	-200,000	-0,044	0,168
-336,533	-68,181	0,016	-0,005
-335,518	695,882	-0,037	0,071
-334,504	50,151	-0,086	0,059
-333,489	706,244	-0,076	-0,147
-332,475	80,702	0,003	0,002
-331,460	800,000	0,036	0,082
-330,445	-4,481	-0,111	0,056
-329,431	338,392	0,008	-0,011
-328,416	800,000	-0,021	0,055
-327,402	-147,840	-0,066	-0,004
-326,387	224,325	0,107	0,126
-325,372	289,638	0,091	0,121
-324,358	800,000	-0,024	-0,051
-323,343	-200,000	0,040	0,168
-322,329	432,419	0,017	0,027
-321,314	-161,297	-0,025	0,001
-320,299	250,512	-0,040	-0,050
-319,285	-51,040	0,088	-0,030
-318,270	124,932	-0,058	0,053
-317,256	-200,000	-0,036	-0,151
-316,241	-200,000	-0,028	0,100
-315,226	-200,000	0,023	0,083
-314,212	-200,000	-0,021	-0,092
-313,197	-200,000	0,037	-0,129
-312,183	335,119	-0,074	0,106
-311,168	592,900	-0,023	-0,042
-310,153	800,000	-0,020	0,055
-309,139	218,551	-0,079	-0,092
-308,124	-172,104	0,082	-0,002
-307,110	-131,212	0,167	0,016
-306,095	800,000	-0,048	0,098
-305,080	165,289	-0,133	-0,137
-304,066	-6,571	-0,052	-0,026
-303,051	-31,352	-0,065	0,027
-302,037	171,649	-0,061	0,063
-301,022	57,850	-0,056	0,040
-300,008	365,907	0,114	0,168
-298,993	21,395	-0,083	-0,049
-297,978	-200,000	0,020	-0,115
-296,964	-96,454	-0,086	-0,016
-295,949	-120,357	0,100	0,012
-294,935	-117,349	0,033	0,004
-293,920	-200,000	0,028	-0,133
-292,905	-151,177	-0,037	-0,002
-291,891	318,673	-0,046	0,063
-290,876	115,618	-0,074	0,066
-289,862	-20,587	-0,094	0,042
-288,847	-200,000	-0,019	-0,091
-287,832	447,480	-0,046	-0,074
-286,818	82,082	0,038	0,030
-285,803	45,456	0,098	-0,065
-284,789	-3,663	0,169	0,085
-283,774	-200,000	0,015	0,139
-282,759	-200,000	0,017	-0,076
-281,745	-32,749	-0,144	0,058
-280,730	503,361	-0,048	-0,082
-279,716	800,000	0,055	-0,115
-278,701	156,016	-0,025	-0,025
-277,686	109,793	0,059	0,052
-276,672	800,000	0,040	-0,083
-275,657	59,999	-0,063	-0,046
-274,643	-83,492	-0,074	0,017
-273,628	-16,003	-0,155	-0,072
-272,613	-200,000	-0,009	0,115
-271,599	-200,000	0,034	-0,132
-270,584	800,000	0,020	0,050
-269,570	-200,000	-0,011	0,069
-268,555	-12,444	-0,075	-0,035
-267,540	-51,620	-0,150	0,051
-266,526	-200,000	0,020	-0,077
-265,511	-200,000	0,030	-0,121
-264,497	-59,715	0,100	0,031
-263,482	762,584	-0,016	-0,031
-262,467	-200,000	0,022	0,139
-261,453	-75,358	0,048	-0,012
-260,438	-78,037	-0,082	0,020
-259,424	3,175	0,144	0,076
-258,409	207,814	-0,011	-0,013
-257,395	-68,907	0,222	-0,062
-256,380	-117,080	0,103	-0,013
-255,365	126,856	0,054	-0,050
-254,351	-200,000	0,006	0,034
-253,336	115,588	0,033	-0,029
-252,322	-200,000	-0,031	-0,141
-251,307	507,217	0,057	-0,097
-250,292	360,617	-0,033	0,048
-249,278	-55,637	0,106	0,034
-248,263	-200,000	-0,060	0,204
-247,249	305,893	-0,059	0,080
-246,234	103,420	-0,048	0,041
-245,219	-29,331	0,141	-0,058
-244,205	-200,000	-0,001	-0,119
-243,190	-38,875	0,028	0,011
-242,176	-1,981	0,026	-0,013
-241,161	-200,000	-0,028	0,180
-240,146	59,202	-0,063	0,045
-239,132	234,963	-0,023	0,028
-238,117	-183,182	-0,160	-0,002
-237,103	484,095	-0,053	-0,088
-236,088	-200,000	0,011	0,047
-235,073	800,000	-0,024	0,049
-234,059	124,219	0,112	-0,102
-233,044	-200,000	-0,010	-0,048
-232,030	-190,451	0,077	0,001
-231,015	207,434	-0,158	-0,180
-230,000	-200,000	0,050	-0,168
-228,986	305,935	-0,024	-0,033
-227,971	706,665	0,046	0,089
-226,957	-200,000	-0,007	-0,066
-225,942	332,002	0,057	0,080
-224,927	269,777	0,017	0,021
-223,913	-92,960	-0,072	-0,015
-222,898	-200,000	-0,022	-0,079
-221,884	661,920	-0,024	-0,045
-220,869	-200,000	-0,017	0,060
-219,855	-200,000	0,001	-0,047
-218,840	-200,000	0,019	0,077
-217,825	469,626	-0,054	0,089
-216,811	-73,897	-0,072	0,019
-215,796	2,966	0,063	0,033
-214,782	78,617	-0,043	0,033
-213,767	-130,489	-0,032	0,003
-212,752	-107,355	-0,090	-0,014
-211,738	800,000	0,015	-0,033
-210,723	75,234	-0,014	-0,011
-209,709	-200,000	-0,009	-0,035
-208,694	-200,000	-0,017	-0,169
-207,679	-200,000	-0,008	0,064
-206,665	-200,000	-0,032	-0,207
-205,650	100,194	0,129	0,108
-204,636	-32,286	0,129	0,052
-203,621	-94,218	-0,037	0,007
-202,606	-200,000	0,018	-0,074
-201,592	-200,000	0,003	-0,134
-200,577	149,636	-0,064	0,063
-199,563	-200,000	0,023	-0,118
-198,548	209,173	0,028	0,032
-197,533	180,990	0,105	0,112
-196,519	-200,000	0,010	0,075
-195,504	513,558	-0,029	0,049
-194,490	172,704	0,038	-0,040
-193,475	30,593	0,106	-0,066
-192,460	-88,816	0,199	0,043
-191,446	-200,000	0,032	0,128
-190,431	800,000	0,037	0,097
-189,417	-73,774	-0,086	0,023
-188,402	-63,942	-0,139	0,041
-187,387	561,734	0,040	-0,070
-186,373	-69,327	-0,099	0,027
-185,358	-200,000	0,019	0,067
-184,344	11,586	0,077	-0,043
-183,329	800,000	-0,020	0,055
-182,315	751,783	-0,055	0,108
-181,300	-69,194	-0,093	0,026
-180,285	136,507	0,030	0,028
-179,271	-200,000	-0,020	-0,080
-178,256	-166,909	0,113	0,003
-177,242	-173,662	0,049	-0,001
-176,227	800,000	0,024	0,053
-175,212	-200,000	0,038	0,180
-174,198	-119,560	-0,031	0,004
-173,183	-93,081	-0,125	-0,025
-172,169	146,975	-0,056	-0,054
-171,154	-200,000	-0,014	0,104
-170,139	-200,000	-0,052	0,231
-169,125	-200,000	0,006	0,226
-168,110	168,003	-0,072	0,074
-167,096	800,000	0,017	0,054
-166,081	-88,843	0,126	-0,027
-165,066	678,337	-0,078	-0,148
-164,052	-200,000	0,021	-0,110
-163,037	-93,342	-0,054	-0,011
-162,023	-200,000	0,009	0,177
-161,008	-200,000	0,021	0,115
-159,993	-34,877	0,136	0,054
-158,979	-200,000	-0,021	0,080
-157,964	177,717	-0,048	0,051
-156,950	114,946	-0,056	-0,049
-155,935	175,155	0,056	0,059
-154,920	90,103	0,141	0,114
-153,906	-200,000	0,012	-0,063
-152,891	386,324	-0,032	0,048
-151,877	21,541	-0,030	0,017
-150,862	332,448	0,007	0,010
-149,847	20,495	0,054	-0,032
-148,833	-200,000	0,002	-0,081
-147,818	3,984	0,086	0,046
-146,804	659,021	0,039	-0,073
-145,789	800,000	0,007	0,022
-144,775	-40,881	-0,044	0,016
-143,760	800,000	0,016	0,041
-142,745	-93,370	0,082	0,016
-141,731	800,000	-0,031	0,076
-140,716	312,892	0,069	0,094
-139,702	478,740	0,069	0,113
-138,687	-200,000	-0,009	0,113
-137,672	-184,732	-0,187	0,002
-136,658	800,000	0,014	0,033
-135,643	800,000	0,026	-0,079
-134,629	81,611	-0,072	-0,056
-133,614	30,959	0,084	0,052
-132,599	-59,873	0,147	0,045
-131,585	771,967	-0,013	0,025
-130,570	-41,116	0,119	0,044
-129,556	-134,422	-0,098	0,009
-128,541	-200,000	-0,014	-0,180
-127,526	-200,000	0,001	0,013
-126,512	-103,068	-0,045	-0,008
-125,497	-77,383	0,045	-0,011
-124,483	-118,459	-0,067	-0,008
-123,468	-84,470	-0,078	0,018
-122,453	-183,431	0,067	-0,001
-121,439	-200,000	0,003	0,074
-120,424	800,000	-0,018	0,038
-119,410	10,266	0,031	0,017
-118,395	800,000	0,022	0,045
-117,380	-200,000	-0,003	0,081
-116,366	154,624	0,063	-0,063
-115,351	518,638	0,066	-0,112
-114,337	800,000	0,020	-0,043
-113,322	-200,000	-0,040	0,172
-112,307	168,599	-0,014	-0,014
-111,293	-200,000	0,043	0,194
-110,278	800,000	-0,035	0,072
-109,264	33,444	0,020	-0,013
-108,249	-200,000	-0,030	0,097
-107,234	-200,000	-0,003	-0,123
-106,220	54,229	-0,140	-0,097
-105,205	63,986	-0,145	-0,105
-104,191	-200,000	-0,015	0,156
-103,176	-200,000	0,029	0,158
-102,162	-175,131	0,058	0,001
-101,147	-50,873	-0,085	0,029
-100,132	42,391	-0,159	-0,104
-99,118	-200,000	0,009	-0,047
-98,103	-200,000	-0,002	-0,107
-97,089	-77,010	-0,081	0,020
-96,074	-200,000	0,004	0,038
-95,059	-75,505	-0,063	0,016
-94,045	-200,000	-0,001	-0,033
-93,030	137,501	0,044	0,041
-92,016	-146,955	-0,114	0,007
-91,001	77,240	-0,047	-0,036
-89,986	-200,000	0,020	0,090
-88,972	515,679	0,003	0,006
-87,957	459,904	0,024	0,039
-86,943	-12,424	-0,082	-0,039
-85,928	-123,077	-0,032	0,004
-84,913	10,852	-0,054	0,030
-83,899	800,000	0,027	-0,060
-82,884	-200,000	0,011	-0,111
-81,870	182,644	0,030	-0,032
-80,855	-76,299	0,042	0,011
-79,840	19,645	0,051	-0,030
-78,826	-200,000	-0,012	-0,048
-77,811	800,000	-0,072	-0,179
-76,797	163,125	0,068	-0,069
-75,782	100,210	0,081	-0,068
-74,767	-193,175	0,098	0,001
-73,753	253,524	0,071	-0,088
-72,738	800,000	0,037	0,099
-71,724	102,115	-0,054	0,046
-70,709	-200,000	-0,010	0,042
-69,694	-108,896	0,138	-0,021
-68,680	-200,000	-0,028	0,127
-67,665	-159,446	0,073	-0,003
-66,651	31,816	-0,103	-0,064
-65,636	229,910	-0,061	-0,072
-64,622	104,302	-0,138	-0,117
-63,607	-200,000	-0,003	0,022
-62,592	800,000	-0,060	-0,158
-61,578	800,000	-0,037	-0,079
-60,563	-116,503	0,068	0,009
-59,549	342,432	0,052	0,074
-58,534	-35,773	-1,696	-0,660
-57,519	568,560	-0,671	-1,182
-56,505	-200,000	-1,231	-4,676
-55,490	-165,621	0,730	-0,022
-54,476	800,000	5,285	12,152
-53,461	-200,000	15,805	277,925
-52,446	-200,000	702,953	2245,098
-51,432	561,781	1619,372	2838,706
-50,417	121,051	1623,739	1458,701
-49,403	81,224	1284,145	1000,550
-48,388	36,718	1027,929	654,187
-47,373	21,523	990,086	579,851
-46,359	20,506	978,709	569,813
-45,344	18,811	974,761	561,919
-44,330	18,895	973,179	561,262
-43,315	18,681	971,685	559,676
-42,300	18,657	970,544	558,918
-41,286	18,620	969,477	558,158
-40,271	18,609	968,509	557,544
-39,257	18,595	967,817	557,079
-38,242	18,680	966,832	556,766
-37,227	18,565	966,240	556,027
-36,213	18,578	965,120	555,405
-35,198	18,483	964,580	554,761
-34,184	18,658	963,589	554,740
-33,169	18,602	962,778	554,067
-32,154	18,654	961,954	553,741
-31,140	18,635	961,049	553,136
-30,125	18,619	960,338	552,654
-29,111	18,575	959,577	552,052
-28,096	18,698	958,690	551,916
-27,082	18,578	958,284	551,274
-26,067	18,600	957,411	550,819
-25,052	18,575	956,699	550,309
-24,038	18,561	956,123	549,911
-23,023	18,607	955,265	549,543
-22,009	18,622	954,471	549,113
-20,994	18,636	953,916	548,816
-19,979	18,611	953,493	548,471
-18,965	18,589	952,724	547,937
-17,950	18,579	952,287	547,631
-16,936	18,538	951,549	547,054
-15,921	18,548	950,976	546,732
-14,906	18,474	950,165	546,007
-13,892	18,505	949,330	545,606
-12,877	18,457	948,744	545,093
-11,863	18,450	948,062	544,658
-10,848	18,483	947,679	544,521
-9,833	18,569	947,156	544,474
-8,819	18,492	946,617	543,898
-7,804	18,443	945,941	543,330
-6,790	18,490	945,283	543,081
-5,775	18,522	944,577	542,758
-4,760	18,490	944,117	542,369
-3,746	18,514	943,427	542,026
-2,731	18,332	942,774	541,052
-1,717	18,340	941,841	540,520
-0,702	18,339	941,315	540,194
0,313	18,112	940,709	539,940
1,327	21,133	939,136	548,558
2,342	30,120	796,224	489,013
3,356	27,110	449,191	271,338
4,371	-2,629	295,001	148,420
5,386	-6,622	276,230	135,174
6,400	-8,193	270,623	130,956
7,415	-8,408	268,179	129,564
8,429	-8,052	266,910	129,266
9,444	-8,152	266,134	128,787
10,459	-7,947	265,388	128,602
11,473	-8,291	264,814	127,999
12,488	-8,221	264,224	127,766
13,502	-8,448	263,760	127,324
14,517	-8,393	263,328	127,154
15,531	-8,207	262,863	127,086
16,546	-8,156	262,583	126,986
17,561	-8,084	262,241	126,874
18,575	-8,245	261,939	126,571
19,590	-8,384	261,659	126,300
20,604	-8,105	261,235	126,334
21,619	-8,220	260,943	126,079
22,634	-8,239	260,515	125,843
23,648	-8,351	260,430	125,691
24,663	-8,242	259,969	125,555
25,677	-8,336	259,848	125,401
26,692	-8,162	259,569	125,411
27,707	-8,360	259,291	125,089
28,721	-8,340	258,983	124,948
29,736	-8,221	258,743	124,926
30,750	-8,387	258,588	124,693
31,765	-8,359	258,268	124,552
32,780	-8,328	257,957	124,418
33,794	-8,448	257,959	124,302
34,809	-8,275	257,521	124,233
35,823	-8,338	257,294	124,056
36,838	-8,497	257,036	123,780
37,853	-8,627	256,901	123,589
38,867	-8,419	256,615	123,624
39,882	-8,543	256,403	123,402
40,896	-8,299	256,205	123,511
41,911	-8,472	255,906	123,203
42,926	-8,458	255,723	123,116
43,940	-8,418	255,493	123,030
44,955	-8,375	255,266	122,947
45,969	-8,549	254,996	122,654
46,984	-8,693	254,756	122,402
47,999	-9,043	254,466	121,946
49,013	-9,001	254,149	121,820
50,028	-9,229	253,919	121,500
51,042	-9,271	253,732	121,363
52,057	-9,380	253,393	121,096
53,071	-9,245	253,263	121,140
54,086	-8,982	253,192	121,324
55,101	-9,181	252,937	121,018
56,115	-8,782	252,848	121,310
57,130	-8,468	252,762	121,530
58,144	-8,263	252,636	121,637
59,159	-8,032	252,207	121,619
60,174	-8,134	252,153	121,494
61,188	-8,075	252,065	121,491
62,203	-8,325	251,869	121,170
63,217	-8,219	251,455	121,052
64,232	-8,233	251,364	120,985
65,247	-8,200	250,961	120,809
66,261	-8,107	250,676	120,740
67,276	-8,543	250,624	120,331
68,290	-8,670	250,248	120,030
69,305	-8,688	249,983	119,877
70,320	-8,812	249,801	119,674
71,334	-8,676	249,730	119,744
72,349	-8,184	249,699	120,140
73,363	-8,289	249,578	119,982
74,378	-8,083	249,206	119,967
75,393	-8,405	249,133	119,647
76,407	-8,276	248,803	119,588
77,422	-8,314	248,631	119,462
78,436	-8,386	248,503	119,329
79,451	-8,538	248,222	119,054
80,466	-8,526	247,984	118,940
81,480	-8,556	247,659	118,748
82,495	-8,651	247,566	118,612
83,509	-8,630	247,526	118,600
84,524	-8,655	247,243	118,433
85,539	-8,657	246,910	118,261
86,553	-8,735	246,697	118,083
87,568	-8,715	246,572	118,029
88,582	-8,593	246,483	118,079
89,597	-8,671	246,229	117,881
90,611	-8,623	246,141	117,869
91,626	-8,429	245,930	117,920
92,641	-8,450	245,739	117,800
93,655	-8,444	245,362	117,614
94,670	-8,612	245,318	117,442
95,684	-8,566	245,094	117,362
96,699	-8,597	244,851	117,210
97,714	-8,750	244,778	117,036
98,728	-8,724	244,584	116,955
99,743	-8,863	244,302	116,694
100,757	-8,729	244,035	116,668
101,772	-8,756	244,018	116,626
102,787	-8,742	243,859	116,552
103,801	-8,641	243,631	116,516
104,816	-8,489	243,552	116,594
105,830	-8,399	243,319	116,547
106,845	-8,405	243,113	116,434
107,860	-8,578	243,079	116,263
108,874	-8,568	242,693	116,077
109,889	-8,679	242,600	115,929
110,903	-8,493	242,264	115,913
111,918	-8,856	242,147	115,546
112,933	-8,708	242,069	115,621
113,947	-8,412	241,851	115,751
114,962	-8,399	241,685	115,671
115,976	-8,251	241,545	115,717
116,991	-8,538	241,440	115,419
118,006	-8,507	241,236	115,338
119,020	-8,498	241,023	115,232
120,035	-8,447	240,903	115,207
121,049	-8,502	240,917	115,158
122,064	-8,560	240,525	114,912
123,079	-8,441	240,506	114,991
124,093	-8,597	240,229	114,720
125,108	-8,804	239,908	114,388
126,122	-8,978	239,802	114,185
127,137	-8,917	239,488	114,075
128,151	-8,952	239,294	113,944
129,166	-8,737	239,121	114,026
130,181	-8,857	239,177	113,945
131,195	-8,640	238,723	113,895
132,210	-8,819	238,700	113,729
133,224	-8,567	238,399	113,780
134,239	-8,612	238,439	113,752
135,254	-8,541	238,262	113,715
136,268	-8,700	238,012	113,456
137,283	-8,864	237,718	113,174
138,297	-9,041	237,575	112,952
139,312	-8,797	237,253	112,986
140,327	-8,646	237,358	113,148
141,341	-8,127	237,263	113,511
142,356	-8,131	237,124	113,432
143,370	-8,124	236,996	113,366
144,385	-7,984	236,836	113,392
145,400	-8,067	236,673	113,238
146,414	-8,129	236,490	113,090
147,429	-8,047	236,213	113,013
148,443	-8,080	236,050	112,899
149,458	-8,222	235,868	112,688
150,473	-8,117	235,724	112,692
151,487	-8,406	235,560	112,373
152,502	-8,262	235,318	112,363
153,516	-8,164	235,336	112,440
154,531	-7,923	234,879	112,404
155,546	-7,983	234,844	112,328
156,560	-8,214	234,653	112,043
157,575	-8,561	234,487	111,678
158,589	-8,415	234,266	111,679
159,604	-8,223	234,347	111,860
160,619	-7,969	233,947	111,861
161,633	-8,060	233,796	111,707
162,648	-7,929	233,829	111,816
163,662	-8,245	233,623	111,457
164,677	-8,375	233,451	111,262
165,692	-8,282	233,238	111,225
166,706	-8,063	233,034	111,290
167,721	-7,751	232,908	111,467
168,735	-8,046	232,963	111,250
169,750	-8,090	232,686	111,073
170,764	-8,001	232,498	111,044
171,779	-8,236	232,410	110,807
172,794	-8,116	232,289	110,833
173,808	-8,072	231,998	110,719
174,823	-8,853	231,724	109,965
175,837	-8,862	231,625	109,901
176,852	-8,339	231,351	110,172
177,867	-8,243	231,369	110,246
178,881	-8,239	231,321	110,216
179,896	-7,896	230,928	110,288
180,910	-8,023	230,975	110,201
181,925	-8,032	230,760	110,082
182,940	-8,144	230,655	109,934
183,954	-8,116	230,535	109,888
184,969	-8,181	230,518	109,820
185,983	-7,569	230,205	110,138
186,998	-7,607	230,010	110,006
188,013	-7,800	229,889	109,787
189,027	-7,853	229,769	109,679
190,042	-7,967	229,584	109,493
191,056	-7,994	229,307	109,330
192,071	-7,906	229,182	109,328
193,086	-8,132	229,071	109,090
194,100	-8,004	228,994	109,144
195,115	-8,304	228,543	108,687
196,129	-9,074	228,414	108,020
197,144	-4,790	229,784	111,988
198,159	0,573	231,383	116,942
199,173	3,419	231,898	119,412
200,188	3,580	231,787	119,470
201,202	3,621	231,833	119,515
202,217	3,834	231,656	119,579
203,232	3,981	231,487	119,595
204,246	4,210	231,312	119,671
205,261	3,911	231,241	119,392
206,275	4,301	231,181	119,653
207,290	4,215	230,979	119,471
208,304	4,310	230,814	119,449
209,319	4,253	230,632	119,299
210,334	4,057	230,406	119,021
211,348	3,733	230,228	118,668
212,363	3,503	230,000	118,363
213,377	3,418	229,778	118,172
214,392	3,175	229,723	117,945
215,407	3,370	229,589	118,016
216,421	3,634	229,320	118,071
217,436	3,466	229,106	117,821
218,450	3,127	229,024	117,509
219,465	3,228	228,798	117,459
220,480	3,374	228,652	117,485
221,494	3,103	228,489	117,184
222,509	3,300	228,555	117,358
223,523	3,331	228,336	117,259
224,538	3,300	228,035	117,070
225,553	3,092	228,173	116,972
226,567	3,590	227,977	117,241
227,582	3,614	227,807	117,162
228,596	3,828	227,672	117,245
229,611	3,360	227,436	116,756
230,626	3,321	227,252	116,622
231,640	3,074	227,153	116,372
232,655	3,483	227,033	116,612
233,669	3,938	227,026	116,944
234,684	3,915	226,822	116,811
235,699	3,755	226,700	116,616
236,713	3,641	226,297	116,312
237,728	3,338	226,229	116,037
238,742	3,287	226,029	115,886
239,757	3,386	225,837	115,851
240,772	3,328	225,676	115,716
241,786	3,262	225,620	115,626
242,801	3,694	225,609	115,937
243,815	3,926	225,482	116,036
244,830	3,810	225,226	115,807
245,844	3,549	224,976	115,471
246,859	3,122	225,006	115,155
247,874	3,652	224,884	115,481
248,888	3,609	224,848	115,419
249,903	3,424	224,544	115,114
250,917	3,471	224,349	115,039
251,932	3,367	224,071	114,809
252,947	3,322	224,057	114,757
253,961	3,349	223,873	114,673
254,976	3,488	223,729	114,693
255,990	3,771	223,612	114,834
257,005	3,683	223,525	114,714
258,020	3,692	223,493	114,694
259,034	3,694	223,239	114,555
260,049	3,707	223,113	114,490
261,063	3,555	222,946	114,281
262,078	3,759	222,763	114,328
263,093	3,878	222,793	114,422
264,107	3,465	222,631	114,022
265,122	3,721	222,415	114,091
266,136	3,959	222,312	114,205
267,151	3,691	222,118	113,896
268,166	3,420	221,860	113,553
269,180	3,186	221,607	113,240
270,195	3,259	221,505	113,232
271,209	3,335	221,350	113,199
272,224	3,403	221,207	113,166
273,239	3,501	221,134	113,190
274,253	3,225	221,011	112,914
275,268	3,398	220,643	112,843
276,282	3,064	220,607	112,568
277,297	3,373	220,424	112,692
278,312	3,362	220,383	112,653
279,326	3,525	220,312	112,727
280,341	3,543	220,225	112,686
281,355	3,548	220,115	112,623
282,370	3,322	219,859	112,316
283,384	3,113	219,666	112,055
284,399	3,067	219,584	111,969
285,414	3,134	219,371	111,899
286,428	3,463	219,317	112,103
287,443	3,704	219,178	112,197
288,457	3,554	219,212	112,095
289,472	3,314	218,873	111,737
290,487	2,990	218,644	111,374
291,501	2,791	218,555	111,173
292,516	2,934	218,383	111,180
293,530	3,240	218,335	111,369
294,545	3,005	218,159	111,098
295,560	3,233	218,062	111,204
296,574	3,549	217,885	111,334
297,589	3,217	217,728	111,003
298,603	3,527	217,554	111,128
299,618	3,538	217,640	111,171
300,633	3,428	217,496	111,008
301,647	3,704	217,384	111,140
302,662	3,613	217,198	110,970
303,676	3,707	217,003	110,928
304,691	3,542	216,950	110,772
305,706	3,713	216,789	110,803
306,720	3,551	216,618	110,589
307,735	3,401	216,388	110,353
308,749	3,345	216,387	110,303
309,764	3,632	216,106	110,356
310,779	3,393	216,127	110,185
311,793	3,420	215,859	110,058
312,808	3,882	215,625	110,260
313,822	3,272	215,584	109,793
314,837	2,921	215,387	109,431
315,852	3,264	215,386	109,666
316,866	3,595	215,338	109,869
317,881	3,815	215,187	109,940
318,895	3,857	214,978	109,853
319,910	3,322	214,727	109,333
320,925	3,404	214,481	109,257
321,939	3,102	214,366	108,973
322,954	3,156	214,274	108,955
323,968	3,441	214,326	109,175
324,983	3,477	214,124	109,087
325,997	3,627	214,070	109,157
327,012	3,826	213,937	109,221
328,027	3,300	213,708	108,721
329,041	3,563	213,772	108,930
330,056	3,888	213,498	109,012
331,070	3,283	213,326	108,485
332,085	3,257	213,106	108,345
333,100	3,411	212,940	108,360
334,114	3,471	213,045	108,446
335,129	3,444	212,775	108,280
336,143	3,402	212,405	108,053
337,158	3,375	212,377	108,010
338,173	3,291	212,309	107,906
339,187	3,259	212,185	107,811
340,202	3,208	212,004	107,674
341,216	3,210	211,602	107,462
342,231	3,168	211,685	107,464
343,246	3,201	211,679	107,475
344,260	3,132	211,576	107,364
345,275	3,376	211,424	107,449
346,289	3,677	211,249	107,561
347,304	3,488	211,112	107,350
348,319	3,386	210,950	107,186
349,333	3,259	210,812	107,018
350,348	3,305	210,813	107,041
351,362	3,537	210,532	107,051
352,377	3,839	210,474	107,223
353,392	3,589	210,287	106,943
354,406	3,443	210,350	106,864
355,421	195,014	1341,926	1426,628
356,435	155,716	1479,828	1426,667
