DTS Sentinel unit serial number:	SN410029Multiplexer serial number:	ORYXHardware model number:	OX2-SRSoftware version number:	ORYX F/W v4,00 Oryx Data Collector v3.7.2.0data status	okinstallation	B6 Nyhavnadifferential loss correction	single-endedforward channel	channel 2reverse channel	N/Adate	2023/12/08time	00:10:08forward acquisition time	300,00reverse acquisition time	0,00gamma	499,1914k internal	0,3164k external	0,3164temperature offset calibration	1,0000default loss term (dB/km)	0,3820temperature slope calibration	1,0000multiplexer offset coefficient	1,0000multiplexer slope coefficient	1,0000fibre end	0,00T internal ref (°C)	13,37T ext. ref 1 (°C)	-3,56T ext. ref 2 (°C)	-3,56length (m)	temperature (°C)	Stokes	anti-Stokes-744,400	98,171	0,141	0,120
-743,385	-4,475	-0,341	-0,173
-742,371	-94,719	0,151	-0,030
-741,356	-85,472	-0,349	-0,079
-740,342	27,072	0,081	-0,050
-739,327	-162,115	-0,223	0,008
-738,312	-42,722	0,092	-0,034
-737,298	-168,353	-0,358	0,010
-736,283	29,333	0,126	0,079
-735,269	-158,853	-0,365	-0,015
-734,254	-131,175	0,241	0,023
-733,239	9,511	-0,439	-0,244
-732,225	142,142	0,079	0,077
-731,210	-200,000	0,019	-0,097
-730,196	36,838	0,002	-0,002
-729,181	800,000	0,086	0,212
-728,167	-103,779	0,191	0,033
-727,152	-12,389	-0,052	-0,025
-726,137	329,813	-0,059	-0,084
-725,123	-200,000	-0,051	0,167
-724,108	42,719	-0,124	-0,083
-723,094	800,000	-0,052	-0,129
-722,079	-200,000	-0,005	0,090
-721,064	-200,000	0,003	0,044
-720,050	0,504	-0,067	0,035
-719,035	507,034	-0,066	-0,114
-718,021	9,606	-0,090	-0,050
-717,006	407,440	-0,061	-0,094
-715,991	-89,867	-0,095	0,020
-714,977	261,164	0,041	-0,053
-713,962	-200,000	-0,023	-0,111
-712,948	-200,000	0,003	-0,187
-711,933	-22,291	-0,070	-0,031
-710,918	-30,874	-0,084	0,035
-709,904	81,407	-0,095	-0,076
-708,889	23,038	-0,092	-0,056
-707,875	393,439	0,081	-0,125
-706,860	-39,747	-0,091	-0,035
-705,845	-102,895	0,111	-0,019
-704,831	-77,634	-0,053	0,013
-703,816	76,922	0,086	0,067
-702,802	800,000	-0,078	-0,192
-701,787	118,091	-0,067	-0,060
-700,772	230,704	-0,116	-0,140
-699,758	800,000	-0,036	-0,074
-698,743	308,745	0,057	0,079
-697,729	478,889	0,064	-0,107
-696,714	-111,775	0,123	-0,018
-695,699	-77,285	-0,097	0,025
-694,685	-200,000	-0,009	-0,081
-693,670	800,000	-0,060	-0,165
-692,656	305,144	-0,011	-0,015
-691,641	230,417	-0,060	0,072
-690,627	161,031	-0,109	0,112
-689,612	-35,972	0,103	0,041
-688,597	-98,535	-0,057	0,011
-687,583	-200,000	0,005	0,030
-686,568	324,243	0,011	-0,015
-685,554	-71,920	0,073	0,020
-684,539	68,618	0,100	-0,075
-683,524	28,497	0,063	0,039
-682,510	-35,223	-0,120	-0,048
-681,495	174,769	-0,097	-0,103
-680,481	156,516	0,093	-0,094
-679,466	-50,637	-0,045	0,015
-678,451	-90,902	-0,107	-0,022
-677,437	728,131	-0,051	-0,100
-676,422	-200,000	0,003	-0,013
-675,408	800,000	0,082	0,173
-674,393	-200,000	0,037	0,178
-673,378	-92,966	-0,150	0,031
-672,364	-200,000	-0,029	-0,202
-671,349	-130,461	0,059	-0,006
-670,335	364,191	-0,069	-0,102
-669,320	800,000	-0,023	0,067
-668,305	-77,452	-0,119	0,030
-667,291	473,573	-0,060	-0,100
-666,276	52,362	-0,027	0,019
-665,262	69,170	-0,146	-0,110
-664,247	-200,000	0,025	-0,098
-663,232	160,568	-0,030	0,031
-662,218	75,839	-0,100	-0,077
-661,203	619,417	0,011	0,021
-660,189	-200,000	0,006	-0,070
-659,174	-200,000	0,003	0,040
-658,159	-42,780	-0,068	-0,025
-657,145	41,060	0,106	0,070
-656,130	-86,074	0,028	-0,006
-655,116	760,995	-0,045	0,089
-654,101	-150,740	0,114	-0,006
-653,086	-200,000	-0,008	-0,029
-652,072	-79,535	-0,026	0,006
-651,057	-163,026	0,094	-0,003
-650,043	-118,990	0,092	-0,012
-649,028	-200,000	0,022	-0,164
-648,014	50,042	0,147	0,101
-646,999	-50,458	-0,113	-0,039
-645,984	410,282	0,045	0,070
-644,970	800,000	-0,032	-0,089
-643,955	-200,000	0,011	0,056
-642,941	346,817	0,023	0,033
-641,926	800,000	-0,022	-0,055
-640,911	-64,629	-0,028	-0,008
-639,897	61,342	-0,061	-0,045
-638,882	-6,661	-0,089	-0,044
-637,868	800,000	-0,035	0,109
-636,853	800,000	0,013	0,037
-635,838	-200,000	-0,003	-0,031
-634,824	608,100	0,047	-0,086
-633,809	477,072	0,052	0,086
-632,795	11,665	0,097	0,054
-631,780	-200,000	0,013	-0,058
-630,765	40,416	-0,137	-0,090
-629,751	-65,460	-0,053	0,015
-628,736	-47,015	-0,090	0,032
-627,722	-71,518	-0,061	-0,017
-626,707	268,783	-0,033	0,042
-625,692	-200,000	0,059	0,277
-624,678	-60,934	-0,091	0,028
-623,663	60,176	-0,084	-0,061
-622,649	-96,578	-0,069	-0,013
-621,634	127,102	0,111	0,103
-620,619	-47,662	0,033	-0,011
-619,605	-88,184	0,073	0,016
-618,590	-200,000	0,035	0,152
-617,576	-200,000	-0,009	0,095
-616,561	197,420	-0,052	0,058
-615,546	-7,460	0,037	0,018
-614,532	643,345	0,034	-0,063
-613,517	-200,000	0,009	-0,040
-612,503	129,551	0,041	0,039
-611,488	-49,333	-0,055	-0,019
-610,474	800,000	0,068	-0,197
-609,459	800,000	0,036	-0,075
-608,444	800,000	-0,025	0,055
-607,430	-74,790	-0,195	-0,051
-606,415	-29,928	-0,087	0,036
-605,401	-25,409	-0,076	0,033
-604,386	800,000	0,043	0,114
-603,371	-126,570	0,030	0,003
-602,357	-141,979	-0,107	-0,008
-601,342	626,973	0,030	0,056
-600,328	110,257	-0,135	-0,119
-599,313	800,000	-0,094	0,221
-598,298	800,000	0,005	-0,014
-597,284	-95,330	0,144	0,028
-596,269	-200,000	-0,016	0,159
-595,255	-200,000	-0,015	-0,077
-594,240	102,193	0,064	-0,054
-593,225	110,023	0,091	0,080
-592,211	-200,000	0,025	0,105
-591,196	800,000	-0,038	-0,085
-590,182	-160,551	-0,072	-0,003
-589,167	-42,057	0,085	0,032
-588,152	182,625	0,012	-0,013
-587,138	162,534	0,044	0,045
-586,123	800,000	-0,019	-0,060
-585,109	74,227	-0,043	-0,033
-584,094	-59,461	-0,095	0,030
-583,079	-94,887	-0,055	-0,011
-582,065	284,569	0,080	0,105
-581,050	-200,000	0,004	-0,061
-580,036	-63,926	0,094	-0,028
-579,021	88,631	-0,076	-0,062
-578,006	-60,322	-0,098	0,030
-576,992	-92,034	-0,093	0,019
-575,977	800,000	0,060	0,124
-574,963	800,000	-0,023	0,059
-573,948	-200,000	0,000	-0,037
-572,934	-8,555	-0,073	-0,036
-571,919	512,755	-0,037	0,063
-570,904	-25,708	-0,052	-0,022
-569,890	-200,000	-0,006	0,066
-568,875	-46,993	-0,042	-0,015
-567,861	-200,000	0,021	0,108
-566,846	-200,000	0,017	-0,097
-565,831	800,000	-0,049	0,127
-564,817	211,271	0,054	0,062
-563,802	-83,850	-0,119	0,027
-562,788	532,908	-0,087	-0,151
-561,773	800,000	0,030	0,064
-560,758	-87,304	0,103	0,023
-559,744	50,686	-0,028	-0,020
-558,729	800,000	0,034	-0,076
-557,715	97,398	-0,031	0,026
-556,700	-74,889	-0,036	-0,009
-555,685	-20,264	-0,099	-0,045
-554,671	-200,000	0,009	-0,165
-553,656	800,000	0,014	-0,037
-552,642	-200,000	-0,014	-0,061
-551,627	-200,000	-0,004	0,030
-550,612	615,372	-0,043	-0,079
-549,598	57,584	0,085	-0,061
-548,583	-153,292	-0,200	0,010
-547,569	-48,953	-0,157	0,054
-546,554	800,000	0,014	-0,032
-545,539	-200,000	0,017	0,057
-544,525	-200,000	0,002	0,024
-543,510	223,454	-0,007	-0,008
-542,496	329,805	-0,084	-0,118
-541,481	-52,165	-0,081	-0,027
-540,466	-118,679	-0,082	-0,010
-539,452	-200,000	-0,012	0,069
-538,437	357,833	0,086	0,126
-537,423	-200,000	0,019	-0,063
-536,408	145,467	0,030	0,029
-535,393	511,655	0,072	0,122
-534,379	800,000	-0,054	-0,119
-533,364	84,385	-0,163	-0,130
-532,350	800,000	0,039	0,089
-531,335	-38,644	0,144	0,055
-530,321	44,544	-0,027	0,018
-529,306	800,000	0,025	-0,062
-528,291	800,000	-0,074	0,169
-527,277	322,111	-0,147	-0,204
-526,262	195,089	-0,161	-0,178
-525,248	-191,706	-0,009	0,000
-524,233	485,027	-0,088	0,146
-523,218	-200,000	0,003	0,029
-522,204	-200,000	-0,001	0,121
-521,189	-91,211	-0,164	-0,034
-520,175	-127,466	0,081	-0,008
-519,160	50,402	0,107	0,074
-518,145	-200,000	0,002	0,018
-517,131	94,406	0,081	-0,067
-516,116	331,433	0,038	-0,054
-515,102	-45,899	-0,073	0,026
-514,087	-200,000	-0,012	-0,051
-513,072	70,896	-0,125	-0,094
-512,058	20,744	-0,146	0,086
-511,043	-142,378	0,100	-0,007
-510,029	-200,000	-0,015	-0,057
-509,014	-200,000	0,009	0,051
-507,999	700,293	0,021	-0,040
-506,985	-200,000	0,054	-0,243
-505,970	-140,584	0,207	0,015
-504,956	-169,287	0,093	0,002
-503,941	64,644	0,071	-0,052
-502,926	102,012	0,036	-0,031
-501,912	-200,000	-0,001	0,068
-500,897	-200,000	0,007	-0,068
-499,883	-200,000	0,011	-0,102
-498,868	-200,000	-0,005	-0,143
-497,853	-34,233	-0,076	-0,030
-496,839	628,211	-0,048	-0,089
-495,824	800,000	0,035	0,107
-494,810	107,417	0,079	0,068
-493,795	84,146	0,053	-0,042
-492,781	-200,000	-0,024	-0,122
-491,766	-178,057	-0,039	-0,001
-490,751	65,346	-0,063	-0,046
-489,737	59,538	0,103	-0,074
-488,722	-145,225	0,157	0,010
-487,708	34,809	0,086	-0,055
-486,693	800,000	-0,042	0,105
-485,678	-200,000	0,007	0,136
-484,664	-200,000	-0,010	-0,114
-483,649	181,252	-0,101	-0,108
-482,635	264,714	0,032	-0,040
-481,620	-200,000	0,024	-0,104
-480,605	482,642	-0,057	0,095
-479,591	-113,197	-0,128	0,018
-478,576	117,029	0,107	-0,096
-477,562	-73,861	-0,061	-0,016
-476,547	-200,000	0,011	-0,132
-475,532	-30,579	-0,034	0,014
-474,518	-36,736	-0,172	0,067
-473,503	255,347	-0,032	-0,041
-472,489	-200,000	-0,001	0,009
-471,474	-18,762	-0,067	-0,030
-470,459	55,519	-0,130	-0,091
-469,445	-135,232	0,100	0,009
-468,430	800,000	0,016	-0,049
-467,416	58,809	-0,036	-0,026
-466,401	46,802	-0,011	-0,008
-465,386	-76,855	0,023	-0,006
-464,372	-53,170	-0,049	-0,016
-463,357	90,751	0,048	0,039
-462,343	81,876	-0,138	-0,109
-461,328	-121,455	-0,134	0,016
-460,313	-121,222	0,046	0,006
-459,299	-51,303	-0,058	-0,020
-458,284	800,000	0,059	0,170
-457,270	73,547	0,102	-0,077
-456,255	-200,000	-0,010	0,093
-455,241	93,907	0,108	0,089
-454,226	800,000	0,013	0,040
-453,211	-156,160	0,021	0,001
-452,197	800,000	-0,026	-0,060
-451,182	-200,000	0,010	-0,049
-450,168	-15,954	0,079	0,036
-449,153	46,490	-0,070	-0,047
-448,138	-33,568	0,027	-0,011
-447,124	278,642	-0,057	0,074
-446,109	246,664	0,027	0,033
-445,095	-172,204	0,123	-0,003
-444,080	-3,502	0,086	-0,043
-443,065	-13,933	0,042	-0,020
-442,051	800,000	0,031	-0,087
-441,036	-130,921	0,160	-0,015
-440,022	-200,000	-0,001	-0,227
-439,007	259,277	-0,082	-0,103
-437,992	800,000	0,057	0,148
-436,978	-200,000	-0,009	0,056
-435,963	-68,178	-0,130	-0,037
-434,949	-0,191	-0,133	0,068
-433,934	800,000	-0,022	-0,059
-432,919	-30,978	-0,114	-0,046
-431,905	800,000	-0,073	-0,153
-430,890	240,090	-0,059	-0,071
-429,876	-200,000	0,003	0,015
-428,861	-61,190	0,085	0,026
-427,846	-98,481	-0,102	0,019
-426,832	278,980	-0,017	0,022
-425,817	-200,000	0,006	0,052
-424,803	21,238	0,024	-0,014
-423,788	800,000	-0,007	0,015
-422,773	679,293	0,038	0,072
-421,759	800,000	0,016	0,040
-420,744	88,460	-0,033	0,027
-419,730	-200,000	0,010	0,063
-418,715	-200,000	-0,024	-0,096
-417,701	-200,000	0,012	0,172
-416,686	-200,000	0,004	0,046
-415,671	315,095	0,082	0,112
-414,657	-104,235	0,027	0,005
-413,642	-200,000	-0,009	-0,205
-412,628	-14,643	0,126	-0,059
-411,613	509,634	-0,035	0,059
-410,598	-168,748	0,044	-0,001
-409,584	63,906	0,070	-0,051
-408,569	175,887	-0,073	0,077
-407,555	-180,159	-0,061	-0,001
-406,540	36,177	-0,132	0,084
-405,525	454,130	-0,067	0,109
-404,511	800,000	0,024	-0,076
-403,496	232,610	-0,062	-0,075
-402,482	-90,554	0,124	-0,026
-401,467	578,797	0,039	0,069
-400,452	431,705	0,097	0,153
-399,438	234,056	-0,035	-0,042
-398,423	215,062	-0,071	-0,082
-397,409	-4,009	0,071	0,036
-396,394	800,000	-0,034	0,086
-395,379	219,266	0,068	0,079
-394,365	-130,026	0,099	0,010
-393,350	0,773	0,060	0,031
-392,336	129,352	-0,037	-0,034
-391,321	323,532	-0,056	0,078
-390,306	-99,147	-0,015	-0,003
-389,292	-68,908	0,106	-0,030
-388,277	58,585	-0,090	-0,064
-387,263	800,000	-0,027	-0,073
-386,248	162,221	0,145	0,148
-385,233	-45,558	-0,110	-0,039
-384,219	203,013	0,113	0,126
-383,204	-200,000	-0,010	-0,085
-382,190	-128,855	0,041	-0,004
-381,175	93,678	-0,093	-0,077
-380,160	141,735	0,026	0,025
-379,146	349,927	-0,036	0,052
-378,131	-200,000	-0,006	0,078
-377,117	-126,360	0,089	0,009
-376,102	800,000	-0,019	0,058
-375,088	-200,000	-0,002	-0,068
-374,073	800,000	0,036	-0,075
-373,058	119,890	-0,076	-0,069
-372,044	800,000	0,009	-0,029
-371,029	-88,376	-0,013	0,003
-370,015	800,000	0,008	0,021
-369,000	-47,680	0,136	-0,048
-367,985	108,936	-0,023	0,020
-366,971	84,009	-0,032	0,025
-365,956	-38,930	0,092	0,035
-364,942	-27,442	-0,042	-0,018
-363,927	477,352	0,085	0,140
-362,912	-134,362	0,141	0,012
-361,898	-137,746	-0,051	-0,004
-360,883	591,221	0,055	-0,099
-359,869	-200,000	0,016	-0,200
-358,854	581,073	-0,053	-0,095
-357,839	-200,000	0,010	0,091
-356,825	-75,547	0,053	-0,014
-355,810	162,774	0,065	0,066
-354,796	800,000	0,040	-0,101
-353,781	800,000	0,049	0,104
-352,766	-112,167	-0,029	-0,004
-351,752	19,929	-0,086	0,050
-350,737	-60,409	0,087	0,027
-349,723	-144,494	0,085	0,006
-348,708	63,798	-0,097	-0,071
-347,693	800,000	0,044	-0,102
-346,679	-200,000	-0,026	-0,160
-345,664	-27,251	0,104	-0,044
-344,650	432,986	0,035	0,055
-343,635	800,000	-0,028	0,063
-342,620	32,283	0,027	0,017
-341,606	7,346	0,003	-0,002
-340,591	332,022	0,054	-0,076
-339,577	-15,891	-0,086	-0,039
-338,562	194,860	-0,093	0,103
-337,548	-200,000	-0,017	0,109
-336,533	493,612	-0,054	0,091
-335,518	209,300	-0,106	0,121
-334,504	92,171	0,117	0,095
-333,489	-200,000	0,041	-0,209
-332,475	-138,561	-0,136	0,011
-331,460	142,297	-0,091	-0,088
-330,445	-200,000	-0,002	0,044
-329,431	-144,083	0,050	-0,003
-328,416	-200,000	-0,013	0,046
-327,402	800,000	0,033	0,072
-326,387	800,000	0,013	0,028
-325,372	45,104	-0,107	-0,071
-324,358	127,198	-0,072	0,066
-323,343	-17,040	-0,050	-0,023
-322,329	69,564	0,215	0,160
-321,314	800,000	-0,034	0,089
-320,299	244,800	-0,107	0,130
-319,285	-34,545	0,037	-0,015
-318,270	553,213	0,057	0,099
-317,256	6,652	-0,156	-0,083
-316,241	-64,245	0,045	0,013
-315,226	219,347	-0,087	0,101
-314,212	402,861	0,106	0,161
-313,197	-83,132	-0,151	-0,035
-312,183	-139,916	0,036	-0,003
-311,168	-199,699	-0,093	-0,000
-310,153	-72,554	-0,006	0,002
-309,139	-200,000	-0,020	-0,208
-308,124	165,619	-0,039	-0,040
-307,110	-200,000	0,030	-0,104
-306,095	247,291	0,070	-0,086
-305,080	-0,372	0,118	0,061
-304,066	-50,648	-0,177	-0,060
-303,051	17,218	0,084	-0,048
-302,037	-41,268	0,120	0,045
-301,022	100,592	-0,052	-0,043
-300,008	19,537	0,047	-0,027
-298,993	33,170	0,037	0,023
-297,978	68,640	0,090	0,067
-296,964	638,489	0,050	-0,092
-295,949	227,665	-0,082	-0,097
-294,935	443,820	0,068	-0,108
-293,920	-78,631	-0,169	-0,041
-292,905	-108,661	-0,039	-0,006
-291,891	78,863	0,118	0,091
-290,876	-10,414	-0,071	-0,034
-289,862	17,306	-0,076	-0,043
-288,847	284,290	0,023	0,031
-287,832	-200,000	-0,003	-0,119
-286,818	120,847	-0,103	0,093
-285,803	195,125	0,055	-0,060
-284,789	627,615	0,036	0,066
-283,774	-25,498	-0,011	-0,005
-282,759	683,486	-0,015	-0,028
-281,745	-200,000	0,033	-0,111
-280,730	-104,058	0,145	0,024
-279,716	-108,003	-0,046	-0,007
-278,701	13,105	0,033	0,018
-277,686	-133,566	-0,084	-0,007
-276,672	-200,000	0,004	0,061
-275,657	12,316	-0,084	-0,046
-274,643	800,000	0,049	-0,127
-273,628	-200,000	0,031	0,137
-272,613	-200,000	-0,001	-0,094
-271,599	-120,887	0,042	-0,005
-270,584	303,445	-0,044	0,059
-269,570	325,998	0,045	-0,063
-268,555	21,279	0,152	0,089
-267,540	800,000	0,001	-0,004
-266,526	-143,420	0,099	-0,007
-265,511	-200,000	-0,005	-0,024
-264,497	562,316	0,082	0,143
-263,482	233,748	-0,001	-0,002
-262,467	99,058	0,046	-0,038
-261,453	188,004	0,025	0,027
-260,438	560,655	0,027	-0,048
-259,424	448,769	-0,031	0,050
-258,409	-200,000	0,003	-0,060
-257,395	5,415	0,074	-0,039
-256,380	489,765	0,037	-0,060
-255,365	118,418	-0,104	0,092
-254,351	-76,568	0,102	0,026
-253,336	-13,749	-0,043	-0,020
-252,322	229,062	-0,050	-0,059
-251,307	503,361	0,061	0,102
-250,292	498,319	0,040	-0,067
-249,278	-200,000	0,020	0,134
-248,263	78,660	-0,010	-0,008
-247,249	-73,799	0,097	-0,025
-246,234	-69,710	-0,155	-0,043
-245,219	-53,374	0,057	0,019
-244,205	-200,000	0,001	-0,130
-243,190	-200,000	-0,019	-0,069
-242,176	-71,870	0,121	-0,032
-241,161	800,000	0,062	0,139
-240,146	147,209	0,027	0,026
-239,132	800,000	-0,039	0,124
-238,117	-66,196	0,096	0,027
-237,103	-111,872	-0,073	-0,011
-236,088	11,536	0,151	-0,083
-235,073	194,370	0,121	0,133
-234,059	-200,000	-0,031	-0,171
-233,044	800,000	0,032	0,075
-232,030	162,385	-0,063	0,064
-231,015	13,510	0,081	-0,045
-230,000	534,146	-0,023	-0,039
-228,986	-200,000	0,003	-0,026
-227,971	771,306	0,080	0,157
-226,957	84,846	0,028	-0,022
-225,942	800,000	-0,013	-0,035
-224,927	121,149	0,051	0,046
-223,913	33,584	-0,115	0,072
-222,898	800,000	0,033	0,096
-221,884	-99,384	0,181	-0,033
-220,869	-88,721	0,116	0,025
-219,855	800,000	-0,085	0,174
-218,840	-103,921	-0,063	0,010
-217,825	-15,284	-0,037	-0,017
-216,811	-146,782	-0,071	-0,004
-215,796	-200,000	0,011	-0,061
-214,782	113,192	0,038	0,033
-213,767	-200,000	-0,010	-0,095
-212,752	-60,648	0,092	-0,028
-211,738	-21,932	-0,073	0,032
-210,723	-200,000	-0,001	0,116
-209,709	-38,462	0,056	0,021
-208,694	-200,000	-0,007	-0,067
-207,679	800,000	0,015	-0,040
-206,665	229,350	0,058	0,068
-205,650	-129,234	-0,086	-0,009
-204,636	-200,000	-0,002	0,166
-203,621	39,704	-0,056	-0,036
-202,606	158,030	0,087	0,087
-201,592	800,000	-0,033	-0,080
-200,577	68,389	0,141	0,104
-199,563	115,682	0,011	0,010
-198,548	57,002	-0,080	-0,056
-197,533	800,000	-0,051	0,147
-196,519	176,351	0,044	-0,046
-195,504	197,634	-0,075	-0,082
-194,490	275,386	0,033	-0,043
-193,475	-200,000	0,002	-0,131
-192,460	-103,173	0,096	-0,016
-191,446	-200,000	-0,003	0,116
-190,431	185,611	-0,107	0,114
-189,417	-200,000	-0,012	0,101
-188,402	-200,000	-0,006	-0,022
-187,387	93,549	-0,093	0,075
-186,373	-126,392	-0,081	-0,009
-185,358	441,123	-0,064	0,101
-184,344	-35,315	0,086	0,034
-183,329	244,291	0,025	-0,030
-182,315	-200,000	-0,002	-0,073
-181,300	-65,342	0,074	0,021
-180,285	20,155	-0,037	0,021
-179,271	20,915	-0,112	0,065
-178,256	-137,800	0,068	-0,005
-177,242	-67,697	0,015	-0,004
-176,227	800,000	0,090	0,182
-175,212	-69,566	0,120	-0,033
-174,198	-200,000	0,001	-0,116
-173,183	-200,000	0,003	0,048
-172,169	800,000	-0,100	-0,210
-171,154	-200,000	0,014	-0,057
-170,139	-58,163	0,073	-0,023
-169,125	193,855	-0,052	0,057
-168,110	800,000	0,034	-0,105
-167,096	-200,000	-0,026	-0,101
-166,081	45,105	-0,020	0,013
-165,066	-109,638	-0,017	-0,002
-164,052	-95,018	0,033	-0,006
-163,037	-112,707	-0,037	0,005
-162,023	54,843	0,068	-0,047
-161,008	16,723	0,053	0,030
-159,993	-200,000	0,003	-0,069
-158,979	-158,091	-0,063	-0,003
-157,964	-200,000	0,037	-0,120
-156,950	-129,512	0,074	0,007
-155,935	-200,000	0,011	0,059
-154,920	122,432	0,055	0,049
-153,906	7,641	-0,050	-0,027
-152,891	-73,680	0,055	-0,014
-151,877	12,742	-0,079	-0,044
-150,862	800,000	-0,071	-0,165
-149,847	238,443	0,059	0,070
-148,833	149,898	-0,151	-0,148
-147,818	570,666	-0,089	0,156
-146,804	337,827	-0,050	-0,070
-145,789	286,880	-0,074	-0,096
-144,775	-147,935	-0,068	0,004
-143,760	-84,326	-0,020	0,005
-142,745	271,189	0,005	0,006
-141,731	-18,881	0,117	-0,052
-140,716	-110,513	-0,060	0,009
-139,702	-200,000	-0,040	0,163
-138,687	800,000	-0,045	-0,091
-137,672	268,474	-0,042	-0,053
-136,658	-200,000	-0,009	-0,137
-135,643	-133,294	-0,027	-0,002
-134,629	271,653	0,010	0,013
-133,614	-200,000	0,022	0,123
-132,599	-200,000	-0,000	0,060
-131,585	-19,909	0,038	0,017
-130,570	-100,176	-0,046	-0,008
-129,556	-200,000	0,004	-0,034
-128,541	-200,000	0,022	-0,099
-127,526	428,524	0,013	0,020
-126,512	-200,000	0,006	0,107
-125,497	-140,315	0,093	-0,007
-124,483	191,320	0,076	0,082
-123,468	-120,401	-0,120	0,015
-122,453	800,000	-0,039	-0,119
-121,439	417,201	-0,070	-0,107
-120,424	-200,000	-0,014	-0,091
-119,410	-55,550	0,115	0,037
-118,395	469,537	-0,082	0,133
-117,380	-200,000	-0,058	0,224
-116,366	-90,255	0,023	-0,005
-115,351	800,000	-0,047	-0,125
-114,337	405,406	0,136	-0,206
-113,322	800,000	0,044	-0,089
-112,307	33,388	0,034	-0,021
-111,293	-98,482	0,030	-0,005
-110,278	-107,489	0,117	-0,018
-109,264	497,261	0,102	-0,169
-108,249	320,981	-0,041	0,056
-107,234	-200,000	0,014	-0,064
-106,220	-200,000	0,004	0,032
-105,205	209,806	-0,057	-0,064
-104,191	-6,472	0,121	0,059
-103,176	-107,257	0,150	0,023
-102,162	-200,000	0,000	0,103
-101,147	-200,000	0,015	0,133
-100,132	-200,000	0,009	-0,063
-99,118	-57,557	-0,024	-0,007
-98,103	-200,000	0,002	0,134
-97,089	-200,000	-0,001	0,214
-96,074	800,000	0,034	0,082
-95,059	-200,000	-0,008	0,107
-94,045	-27,803	-0,116	0,048
-93,030	800,000	-0,031	-0,094
-92,016	800,000	-0,030	-0,061
-91,001	-18,827	0,072	-0,032
-89,986	192,893	0,071	0,077
-88,972	800,000	-0,014	-0,029
-87,957	-0,993	0,176	0,089
-86,943	67,079	0,047	-0,034
-85,928	-200,000	-0,012	-0,064
-84,913	35,945	-0,081	0,051
-83,899	349,780	0,063	0,090
-82,884	800,000	-0,044	0,111
-81,870	76,936	0,152	0,115
-80,855	800,000	-0,059	0,157
-79,840	-200,000	-0,009	-0,065
-78,826	57,445	-0,047	0,033
-77,811	29,634	-0,039	-0,024
-76,797	-56,814	-0,088	0,028
-75,782	-132,229	-0,099	-0,009
-74,767	-121,783	0,189	0,022
-73,753	-120,968	-0,062	-0,007
-72,738	-200,000	0,004	0,024
-71,724	-200,000	0,007	-0,085
-70,709	455,944	0,064	-0,102
-69,694	-4,585	-0,061	-0,030
-68,680	248,201	-0,046	-0,055
-67,665	281,503	0,087	0,112
-66,651	-64,780	0,122	0,035
-65,636	342,867	0,054	-0,076
-64,622	-118,159	0,026	0,003
-63,607	378,769	0,030	-0,044
-62,592	-200,000	-0,004	0,070
-61,578	11,232	-0,101	-0,055
-60,563	-200,000	0,010	-0,053
-59,549	301,785	-0,032	-0,042
-58,534	45,443	-2,106	-1,390
-57,519	-200,000	-0,197	-0,730
-56,505	-200,000	-1,563	-5,124
-55,490	131,785	0,920	0,848
-54,476	800,000	5,375	12,058
-53,461	-200,000	18,739	315,736
-52,446	800,000	740,920	2315,783
-51,432	548,905	1654,130	2849,278
-50,417	109,908	1637,358	1406,225
-49,403	73,442	1287,617	964,126
-48,388	29,771	1029,341	626,199
-47,373	19,705	991,923	570,183
-46,359	17,130	979,507	554,574
-45,344	13,744	975,763	541,331
-44,330	14,065	974,183	541,486
-43,315	13,439	972,457	538,456
-42,300	13,392	971,333	537,660
-41,286	13,384	970,556	537,182
-40,271	13,438	969,349	536,668
-39,257	13,399	968,542	536,075
-38,242	13,419	967,781	535,696
-37,227	13,415	966,964	535,210
-36,213	13,395	965,984	534,584
-35,198	13,382	965,111	534,035
-34,184	13,393	964,335	533,621
-33,169	13,348	963,463	532,971
-32,154	13,418	962,492	532,639
-31,140	13,402	961,627	532,086
-30,125	13,407	960,889	531,674
-29,111	13,419	959,945	531,171
-28,096	13,443	959,300	530,869
-27,082	13,361	958,785	530,298
-26,067	13,410	958,024	530,015
-25,052	13,373	957,331	529,492
-24,038	13,381	956,546	529,060
-23,023	13,425	955,868	528,806
-22,009	13,444	955,272	528,518
-20,994	13,422	954,723	528,122
-19,979	13,400	954,253	527,772
-18,965	13,457	953,446	527,486
-17,950	13,413	952,945	527,045
-16,936	13,348	952,346	526,487
-15,921	13,429	951,524	526,270
-14,906	13,352	950,778	525,592
-13,892	13,309	950,272	525,154
-12,877	13,325	949,442	524,725
-11,863	13,233	948,922	524,122
-10,848	13,267	948,345	523,892
-9,833	13,389	947,774	523,943
-8,819	13,383	947,294	523,637
-7,804	13,328	946,540	523,026
-6,790	13,244	946,043	522,464
-5,775	13,377	945,365	522,490
-4,760	13,382	944,655	522,095
-3,746	13,254	944,236	521,436
-2,731	13,159	943,533	520,724
-1,717	13,100	942,882	520,157
-0,702	13,193	942,039	519,966
0,313	12,928	941,575	519,656
1,327	16,412	939,329	529,370
2,342	25,520	790,022	469,217
3,356	21,758	444,072	258,161
4,371	-7,550	296,696	143,084
5,386	-11,434	278,669	130,681
6,400	-12,621	272,697	126,763
7,415	-12,950	270,544	125,447
8,429	-12,951	269,080	124,756
9,444	-13,015	268,214	124,284
10,459	-13,110	267,523	123,867
11,473	-13,232	266,942	123,475
12,488	-13,004	266,441	123,440
13,502	-13,257	265,663	122,839
14,517	-13,273	265,351	122,669
15,531	-13,113	265,010	122,646
16,546	-13,102	264,647	122,476
17,561	-13,161	264,247	122,227
18,575	-13,134	263,953	122,105
19,590	-13,193	263,571	121,864
20,604	-13,035	263,170	121,810
21,619	-13,309	262,912	121,433
22,634	-13,023	262,488	121,483
23,648	-13,290	262,247	121,121
24,663	-13,254	262,105	121,078
25,677	-13,205	261,608	120,881
26,692	-13,138	261,476	120,868
27,707	-13,209	261,249	120,690
28,721	-13,128	260,925	120,602
29,736	-13,285	260,737	120,364
30,750	-13,124	260,407	120,345
31,765	-13,315	260,206	120,072
32,780	-13,326	259,930	119,923
33,794	-13,206	259,775	119,947
34,809	-13,347	259,344	119,613
35,823	-13,306	259,123	119,537
36,838	-13,146	258,789	119,514
37,853	-13,481	258,672	119,153
38,867	-13,353	258,504	119,178
39,882	-13,317	258,020	118,976
40,896	-13,311	257,938	118,933
41,911	-13,464	257,714	118,684
42,926	-13,425	257,370	118,550
43,940	-13,325	257,276	118,583
44,955	-13,343	257,043	118,450
45,969	-13,302	256,651	118,294
46,984	-13,806	256,510	117,778
47,999	-13,892	256,153	117,528
49,013	-14,046	256,026	117,325
50,028	-14,074	255,708	117,146
51,042	-14,104	255,506	117,016
52,057	-13,943	255,165	116,990
53,071	-14,169	254,994	116,704
54,086	-13,948	254,804	116,798
55,101	-13,891	254,624	116,755
56,115	-13,753	254,550	116,830
57,130	-13,198	254,488	117,272
58,144	-13,217	254,309	117,163
59,159	-13,023	253,955	117,157
60,174	-13,287	253,898	116,892
61,188	-13,105	253,576	116,891
62,203	-13,138	253,459	116,798
63,217	-13,251	253,209	116,574
64,232	-13,272	252,985	116,444
65,247	-13,200	252,727	116,376
66,261	-13,155	252,345	116,228
67,276	-13,344	252,159	115,970
68,290	-13,485	251,908	115,724
69,305	-13,761	251,758	115,408
70,320	-13,785	251,666	115,335
71,334	-13,215	251,277	115,633
72,349	-13,177	251,192	115,616
73,363	-13,231	251,194	115,561
74,378	-13,013	250,824	115,566
75,393	-13,157	250,729	115,389
76,407	-13,225	250,463	115,199
77,422	-13,266	250,258	115,059
78,436	-13,011	249,898	115,100
79,451	-13,038	249,752	115,000
80,466	-13,294	249,455	114,636
81,480	-13,455	249,284	114,410
82,495	-13,550	249,114	114,242
83,509	-13,578	249,026	114,167
84,524	-13,425	248,656	114,117
85,539	-13,647	248,453	113,826
86,553	-13,548	248,271	113,817
87,568	-13,557	248,233	113,782
88,582	-13,309	247,883	113,820
89,597	-13,562	247,780	113,549
90,611	-13,323	247,597	113,656
91,626	-13,119	247,463	113,755
92,641	-13,102	247,194	113,637
93,655	-13,274	247,114	113,445
94,670	-13,267	246,683	113,243
95,684	-13,400	246,615	113,090
96,699	-13,433	246,423	112,964
97,714	-13,334	246,091	112,885
98,728	-13,570	246,004	112,638
99,743	-13,522	245,711	112,534
100,757	-13,550	245,476	112,393
101,772	-13,559	245,285	112,288
102,787	-13,367	245,154	112,378
103,801	-13,377	245,194	112,377
104,816	-13,429	244,880	112,181
105,830	-13,056	244,701	112,398
106,845	-13,120	244,419	112,206
107,860	-13,129	244,406	112,182
108,874	-13,191	244,111	111,985
109,889	-13,452	243,993	111,705
110,903	-13,442	243,707	111,573
111,918	-13,468	243,407	111,404
112,933	-13,297	243,316	111,494
113,947	-13,258	243,167	111,448
114,962	-13,296	243,123	111,386
115,976	-13,250	242,680	111,211
116,991	-13,372	242,628	111,076
118,006	-13,335	242,596	111,082
119,020	-13,487	242,393	110,855
120,035	-13,188	242,312	111,054
121,049	-13,188	242,161	110,974
122,064	-13,177	242,109	110,950
123,079	-13,219	241,546	110,647
124,093	-13,349	241,412	110,470
125,108	-13,571	241,253	110,206
126,122	-13,737	240,927	109,912
127,137	-13,475	240,706	110,015
128,151	-13,690	240,621	109,791
129,166	-13,340	240,412	109,970
130,181	-13,745	240,443	109,646
131,195	-13,492	240,057	109,665
132,210	-13,431	239,981	109,670
133,224	-13,415	239,765	109,575
134,239	-13,302	239,699	109,627
135,254	-13,471	239,492	109,385
136,268	-13,304	239,120	109,340
137,283	-13,775	238,956	108,875
138,297	-13,916	238,896	108,724
139,312	-13,736	238,473	108,667
140,327	-13,485	238,345	108,802
141,341	-12,964	238,321	109,201
142,356	-12,978	238,222	109,134
143,370	-12,890	237,978	109,083
144,385	-13,051	238,017	108,962
145,400	-13,051	237,728	108,819
146,414	-12,946	237,500	108,790
147,429	-13,176	237,330	108,518
148,443	-13,128	237,264	108,517
149,458	-12,956	236,941	108,497
150,473	-13,087	236,999	108,409
151,487	-13,037	236,575	108,245
152,502	-13,102	236,512	108,155
153,516	-12,940	236,330	108,191
154,531	-12,853	236,154	108,171
155,546	-13,095	236,033	107,912
156,560	-13,068	235,852	107,841
157,575	-13,083	235,495	107,657
158,589	-13,278	235,443	107,468
159,604	-12,874	235,162	107,651
160,619	-12,718	235,042	107,710
161,633	-13,016	235,263	107,565
162,648	-12,666	234,789	107,616
163,662	-12,963	234,586	107,279
164,677	-13,091	234,487	107,123
165,692	-13,105	234,381	107,054
166,706	-12,940	234,191	107,088
167,721	-12,864	234,141	107,116
168,735	-12,855	233,957	107,028
169,750	-12,805	233,737	106,958
170,764	-13,068	233,608	106,682
171,779	-12,916	233,332	106,666
172,794	-12,826	233,343	106,732
173,808	-12,948	233,096	106,514
174,823	-13,522	232,586	105,822
175,837	-13,600	232,524	105,723
176,852	-13,499	232,672	105,860
177,867	-13,099	232,480	106,076
178,881	-12,911	232,368	106,163
179,896	-12,803	232,208	106,165
180,910	-13,000	232,034	105,922
181,925	-12,709	231,788	106,027
182,940	-13,002	231,627	105,715
183,954	-12,962	231,528	105,692
184,969	-12,765	231,455	105,803
185,983	-12,816	231,258	105,664
186,998	-12,805	231,068	105,577
188,013	-12,761	230,858	105,505
189,027	-12,738	230,812	105,493
190,042	-12,821	230,582	105,314
191,056	-12,738	230,508	105,334
192,071	-12,778	230,303	105,201
193,086	-12,864	230,075	105,020
194,100	-12,852	229,977	104,976
195,115	-13,253	229,579	104,475
196,129	-13,122	229,843	104,687
197,144	-7,409	231,676	109,958
198,159	-2,275	233,116	114,642
199,173	1,800	234,331	118,420
200,188	2,729	234,398	119,169
201,202	2,665	234,080	118,947
202,217	2,710	233,895	118,878
203,232	2,710	233,951	118,895
204,246	2,948	233,757	118,972
205,261	2,836	233,762	118,876
206,275	3,001	233,540	118,881
207,290	2,963	233,320	118,729
208,304	3,204	233,300	118,895
209,319	3,286	233,045	118,819
210,334	2,798	232,902	118,357
211,348	2,674	232,600	118,096
212,363	2,487	232,294	117,786
213,377	2,461	232,184	117,699
214,392	2,363	232,014	117,527
215,407	2,443	232,010	117,576
216,421	2,367	231,835	117,418
217,436	2,524	231,532	117,376
218,450	2,145	231,372	116,992
219,465	2,183	231,128	116,888
220,480	2,153	231,069	116,824
221,494	2,144	230,979	116,761
222,509	2,549	230,931	117,038
223,523	2,505	230,766	116,911
224,538	2,301	230,668	116,693
225,553	2,203	230,468	116,507
226,567	2,540	230,085	116,560
227,582	2,732	230,210	116,761
228,596	2,921	230,085	116,832
229,611	2,445	229,983	116,405
230,626	1,972	229,543	115,811
231,640	2,071	229,373	115,791
232,655	2,443	229,409	116,082
233,669	2,778	229,252	116,248
234,684	2,919	229,240	116,339
235,699	2,800	229,028	116,130
236,713	2,563	228,628	115,737
237,728	2,446	228,579	115,612
238,742	2,185	228,352	115,289
239,757	2,565	228,262	115,522
240,772	2,361	228,076	115,263
241,786	1,986	227,918	114,889
242,801	2,395	227,890	115,174
243,815	2,922	227,935	115,585
244,830	2,901	227,561	115,370
245,844	2,409	227,527	114,971
246,859	2,470	227,173	114,827
247,874	2,572	227,123	114,869
248,888	2,711	226,983	114,892
249,903	2,753	226,685	114,763
250,917	2,487	226,671	114,546
251,932	2,504	226,548	114,486
252,947	2,102	226,251	114,024
253,961	2,089	225,947	113,850
254,976	2,071	225,981	113,844
255,990	2,532	225,983	114,181
257,005	2,495	225,923	114,112
258,020	2,538	225,805	114,075
259,034	2,582	225,558	113,973
260,049	2,522	225,428	113,852
261,063	2,367	225,330	113,677
262,078	2,900	225,056	113,927
263,093	2,927	225,002	113,909
264,107	2,828	224,852	113,749
265,122	2,780	224,744	113,649
266,136	2,853	224,652	113,646
267,151	2,872	224,391	113,518
268,166	2,694	224,266	113,312
269,180	2,305	224,021	112,890
270,195	2,213	223,844	112,722
271,209	2,499	223,712	112,857
272,224	2,314	223,673	112,691
273,239	2,431	223,472	112,666
274,253	2,326	223,352	112,518
275,268	2,161	223,148	112,283
276,282	2,392	222,929	112,334
277,297	2,278	222,784	112,167
278,312	2,181	222,752	112,069
279,326	2,477	222,552	112,176
280,341	2,427	222,404	112,055
281,355	2,408	222,424	112,041
282,370	2,574	222,226	112,053
283,384	2,411	221,893	111,755
284,399	2,107	221,853	111,502
285,414	2,303	221,691	111,555
286,428	2,541	221,681	111,714
287,443	2,561	221,670	111,714
288,457	2,507	221,473	111,565
289,472	2,344	221,134	111,264
290,487	2,058	220,837	110,896
291,501	2,019	220,774	110,826
292,516	2,076	220,591	110,766
293,530	2,208	220,450	110,782
294,545	2,183	220,492	110,775
295,560	2,359	220,174	110,733
296,574	2,421	220,101	110,732
297,589	2,533	219,891	110,698
298,603	2,473	219,967	110,683
299,618	2,585	219,730	110,634
300,633	2,484	219,651	110,511
301,647	2,684	219,636	110,639
302,662	2,881	219,399	110,653
303,676	2,603	219,296	110,389
304,691	2,627	219,131	110,315
305,706	2,666	218,984	110,258
306,720	2,777	218,884	110,278
307,735	2,385	218,568	109,827
308,749	2,231	218,417	109,630
309,764	2,635	218,263	109,834
310,779	2,800	218,336	109,980
311,793	2,614	218,101	109,718
312,808	2,479	218,058	109,589
313,822	2,688	217,731	109,566
314,837	2,578	217,550	109,385
315,852	2,380	217,433	109,175
316,866	2,495	217,360	109,211
317,881	2,683	217,286	109,299
318,895	2,640	217,017	109,123
319,910	2,259	216,906	108,785
320,925	2,018	216,726	108,512
321,939	1,757	216,305	108,106
322,954	1,656	216,466	108,105
323,968	2,534	216,375	108,676
324,983	2,679	216,346	108,755
325,997	2,724	216,295	108,752
327,012	2,734	216,034	108,618
328,027	2,762	215,879	108,551
329,041	2,853	215,793	108,562
330,056	2,941	215,617	108,526
331,070	2,377	215,588	108,102
332,085	2,195	215,308	107,822
333,100	2,616	215,067	107,991
334,114	2,498	214,996	107,862
335,129	2,629	214,810	107,851
336,143	2,310	214,800	107,611
337,158	2,375	214,552	107,523
338,173	2,421	214,397	107,468
339,187	2,034	214,209	107,091
340,202	1,898	214,138	106,950
341,216	2,260	214,121	107,188
342,231	2,797	213,981	107,486
343,246	2,535	213,773	107,188
344,260	2,586	213,685	107,170
345,275	2,822	213,502	107,234
346,289	2,967	213,366	107,258
347,304	2,609	213,318	106,974
348,319	2,591	213,045	106,815
349,333	2,376	213,057	106,660
350,348	2,696	212,958	106,826
351,362	2,724	212,797	106,754
352,377	2,960	212,645	106,834
353,392	2,663	212,433	106,510
354,406	2,650	212,394	106,472
355,421	198,227	1311,402	1392,944
356,435	158,623	1445,237	1392,873
