DTS Sentinel unit serial number:	SN410029Multiplexer serial number:	ORYXHardware model number:	OX2-SRSoftware version number:	ORYX F/W v4,00 Oryx Data Collector v3.7.2.0data status	okinstallation	B6 Nyhavnadifferential loss correction	single-endedforward channel	channel 2reverse channel	N/Adate	2023/12/07time	10:45:08forward acquisition time	300,00reverse acquisition time	0,00gamma	499,1914k internal	0,3200k external	0,3200temperature offset calibration	1,0000default loss term (dB/km)	0,3820temperature slope calibration	1,0000multiplexer offset coefficient	1,0000multiplexer slope coefficient	1,0000fibre end	0,00T internal ref (°C)	7,28T ext. ref 1 (°C)	-6,88T ext. ref 2 (°C)	-6,95length (m)	temperature (°C)	Stokes	anti-Stokes-744,400	74,764	0,213	0,163
-743,385	-147,761	-0,441	0,026
-742,371	-200,000	0,050	0,171
-741,356	-71,136	-0,431	0,117
-740,342	-120,194	0,137	0,017
-739,327	-112,614	-0,347	-0,050
-738,312	-115,517	0,163	-0,022
-737,298	51,107	-0,443	-0,305
-736,283	-69,534	0,255	0,070
-735,269	-97,863	-0,438	-0,082
-734,254	377,571	0,163	0,243
-733,239	-6,095	-0,606	-0,300
-732,225	-63,144	0,423	0,126
-731,210	182,637	0,076	0,081
-730,196	-200,000	-0,015	-0,082
-729,181	3,554	-0,133	-0,070
-728,167	800,000	-0,064	-0,179
-727,152	-60,088	0,036	-0,011
-726,137	-32,719	0,044	0,018
-725,123	94,714	0,062	-0,051
-724,108	-200,000	-0,023	-0,133
-723,094	-200,000	-0,001	-0,037
-722,079	-141,535	-0,114	0,008
-721,064	754,749	0,082	0,163
-720,050	490,512	-0,032	0,053
-719,035	16,778	0,030	-0,017
-718,021	800,000	-0,019	0,052
-717,006	-200,000	-0,029	-0,113
-715,991	324,170	-0,109	-0,152
-714,977	30,329	-0,107	-0,066
-713,962	123,060	0,082	0,075
-712,948	-200,000	-0,010	0,161
-711,933	73,403	-0,093	0,071
-710,918	138,862	-0,082	-0,078
-709,904	147,894	-0,069	-0,067
-708,889	-200,000	-0,017	-0,099
-707,875	-4,844	-0,086	0,043
-706,860	366,109	-0,093	-0,136
-705,845	-84,775	0,136	-0,031
-704,831	9,238	0,051	0,028
-703,816	1,149	-0,082	-0,043
-702,802	-200,000	-0,003	0,014
-701,787	-180,388	-0,244	0,004
-700,772	-79,410	0,093	0,023
-699,758	25,069	0,089	-0,053
-698,743	179,407	-0,064	0,068
-697,729	-200,000	0,005	0,036
-696,714	-61,485	0,045	-0,014
-695,699	449,011	-0,030	-0,049
-694,685	-200,000	0,039	-0,180
-693,670	181,417	-0,076	-0,081
-692,656	660,769	0,045	-0,085
-691,641	-200,000	-0,013	0,065
-690,627	12,247	0,080	-0,045
-689,612	-200,000	0,032	0,104
-688,597	433,168	0,054	0,086
-687,583	-200,000	0,003	0,067
-686,568	800,000	-0,069	0,161
-685,554	373,516	0,031	0,046
-684,539	800,000	-0,039	-0,087
-683,524	147,876	-0,051	0,050
-682,510	3,238	0,069	0,036
-681,495	-200,000	-0,023	0,106
-680,481	800,000	0,055	0,143
-679,466	-200,000	0,012	0,059
-678,451	155,656	-0,029	-0,029
-677,437	-123,493	-0,145	-0,016
-676,422	112,654	0,028	0,024
-675,408	173,015	0,017	0,018
-674,393	-90,274	-0,051	-0,011
-673,378	-6,235	-0,025	-0,012
-672,364	-117,976	-0,166	-0,021
-671,349	-200,000	-0,004	-0,070
-670,335	-200,000	-0,010	0,059
-669,320	800,000	-0,019	0,055
-668,305	172,695	0,064	-0,067
-667,291	-200,000	0,004	-0,038
-666,276	685,694	-0,030	-0,057
-665,262	-200,000	-0,009	-0,078
-664,247	-200,000	-0,010	0,056
-663,232	31,548	-0,122	-0,076
-662,218	-200,000	-0,002	0,013
-661,203	-95,828	-0,119	0,023
-660,189	150,343	-0,044	0,043
-659,174	-139,878	-0,142	-0,011
-658,159	462,381	0,064	-0,105
-657,145	-45,665	-0,086	0,031
-656,130	-123,840	-0,131	0,015
-655,116	248,092	0,075	0,093
-654,101	-200,000	0,023	0,107
-653,086	-2,496	-0,084	0,043
-652,072	-200,000	0,006	0,148
-651,057	-200,000	0,004	-0,108
-650,043	220,060	0,014	0,016
-649,028	4,021	0,100	0,053
-648,014	-174,410	0,095	0,002
-646,999	-103,213	-0,062	0,011
-645,984	-155,927	0,014	0,001
-644,970	-12,508	-0,049	-0,023
-643,955	381,612	-0,037	-0,055
-642,941	-200,000	-0,002	-0,075
-641,926	81,338	-0,071	0,056
-640,911	-200,000	0,045	0,315
-639,897	87,308	-0,096	-0,077
-638,882	-19,605	0,070	0,031
-637,868	0,783	-0,170	0,088
-636,853	-200,000	-0,027	-0,127
-635,838	137,907	0,021	-0,020
-634,824	215,117	0,045	0,052
-633,809	-200,000	-0,032	0,158
-632,795	-200,000	0,014	0,091
-631,780	-138,321	0,114	-0,009
-630,765	360,456	-0,025	-0,037
-629,751	-107,879	-0,065	-0,010
-628,736	25,183	0,180	-0,108
-627,722	-81,184	-0,072	-0,017
-626,707	-178,702	-0,077	-0,001
-625,692	800,000	0,037	0,090
-624,678	800,000	0,035	0,109
-623,663	-200,000	0,009	-0,035
-622,649	-200,000	0,048	-0,159
-621,634	14,339	0,025	0,014
-620,619	64,497	-0,033	-0,024
-619,605	800,000	0,019	-0,058
-618,590	38,017	-0,079	-0,051
-617,576	-5,475	0,212	-0,105
-616,561	-78,297	-0,069	0,017
-615,546	-200,000	-0,028	-0,096
-614,532	-200,000	0,001	0,028
-613,517	-90,601	-0,050	-0,010
-612,503	-32,827	0,020	-0,008
-611,488	-200,000	0,012	0,101
-610,474	-200,000	-0,002	-0,045
-609,459	800,000	-0,047	-0,103
-608,444	191,045	-0,092	0,101
-607,430	800,000	-0,044	0,100
-606,415	-200,000	-0,011	0,092
-605,401	-200,000	-0,001	0,024
-604,386	-200,000	-0,001	0,056
-603,371	685,385	-0,022	0,042
-602,357	182,168	-0,041	-0,044
-601,342	132,456	0,071	0,066
-600,328	292,536	-0,086	0,113
-599,313	-181,589	-0,031	0,000
-598,298	561,580	-0,035	0,061
-597,284	171,771	0,021	0,022
-596,269	327,490	-0,008	0,011
-595,255	80,659	0,077	0,060
-594,240	-69,120	-0,157	0,043
-593,225	13,418	-0,082	0,046
-592,211	-94,121	-0,031	-0,006
-591,196	-72,301	0,086	0,023
-590,182	-200,000	0,004	-0,047
-589,167	73,763	0,080	0,060
-588,152	145,506	-0,121	-0,117
-587,138	-200,000	0,048	-0,159
-586,123	62,153	0,080	-0,058
-585,109	158,197	0,032	-0,032
-584,094	71,628	-0,116	-0,087
-583,079	-200,000	0,017	0,065
-582,065	-126,102	-0,059	0,006
-581,050	-38,545	-0,048	0,018
-580,036	117,520	-0,109	0,097
-579,021	111,245	-0,028	-0,025
-578,006	-7,703	0,007	-0,003
-576,992	398,934	0,075	0,114
-575,977	800,000	0,005	-0,013
-574,963	-200,000	0,016	0,071
-573,948	-13,824	0,097	0,045
-572,934	420,878	-0,032	-0,050
-571,919	307,843	-0,053	0,072
-570,904	-125,207	-0,036	0,004
-569,890	-83,305	-0,018	0,004
-568,875	-80,240	0,165	-0,040
-567,861	-92,779	-0,041	0,008
-566,846	6,556	0,093	-0,050
-565,831	-67,568	-0,112	0,032
-564,817	141,132	0,032	-0,030
-563,802	-200,000	0,037	-0,118
-562,788	800,000	0,014	0,040
-561,773	-133,666	-0,067	0,006
-560,758	71,558	-0,040	-0,030
-559,744	111,877	0,083	0,073
-558,729	-200,000	0,016	0,069
-557,715	-200,000	-0,020	-0,070
-556,700	-200,000	0,029	-0,179
-555,685	-200,000	0,027	-0,120
-554,671	-200,000	-0,001	0,032
-553,656	-200,000	0,008	-0,065
-552,642	121,834	0,113	-0,102
-551,627	-41,582	-0,060	0,022
-550,612	476,983	0,021	-0,034
-549,598	-200,000	-0,049	-0,199
-548,583	-78,191	-0,027	-0,007
-547,569	79,563	-0,109	-0,085
-546,554	-139,343	0,117	0,009
-545,539	800,000	0,025	-0,080
-544,525	-200,000	0,004	-0,052
-543,510	-16,995	-0,039	-0,018
-542,496	800,000	-0,022	-0,049
-541,481	-8,588	-0,130	-0,063
-540,466	621,961	0,022	0,041
-539,452	-200,000	-0,019	0,104
-538,437	-200,000	0,006	0,039
-537,423	40,436	0,009	0,006
-536,408	-200,000	0,007	-0,207
-535,393	-53,183	0,101	-0,033
-534,379	800,000	-0,025	0,071
-533,364	582,411	-0,015	0,027
-532,350	-105,799	0,104	-0,017
-531,335	800,000	0,037	0,085
-530,321	47,376	-0,050	-0,033
-529,306	800,000	-0,048	-0,113
-528,291	9,715	-0,113	-0,062
-527,277	103,367	-0,038	-0,032
-526,262	155,832	0,023	0,023
-525,248	50,454	0,086	0,059
-524,233	800,000	0,069	-0,147
-523,218	73,331	-0,087	-0,066
-522,204	35,276	-0,006	-0,004
-521,189	303,044	0,036	0,048
-520,175	-152,969	-0,125	-0,006
-519,160	173,897	-0,070	-0,073
-518,145	484,742	0,068	0,112
-517,131	-153,955	0,184	0,009
-516,116	-200,000	0,042	0,161
-515,102	-200,000	-0,056	-0,230
-514,087	-44,340	0,064	-0,023
-513,072	-200,000	0,018	0,069
-512,058	363,733	-0,024	-0,035
-511,043	-200,000	-0,002	0,033
-510,029	226,974	0,100	0,117
-509,014	113,448	0,115	0,101
-507,999	-200,000	-0,002	0,071
-506,985	-200,000	-0,000	0,015
-505,970	-149,063	0,048	-0,003
-504,956	-200,000	-0,001	0,019
-503,941	-124,276	0,097	-0,011
-502,926	37,172	0,067	0,043
-501,912	698,688	0,060	0,114
-500,897	89,002	-0,086	0,069
-499,883	-200,000	0,016	0,114
-498,868	-100,781	-0,090	-0,016
-497,853	-84,622	0,048	0,011
-496,839	-109,882	0,083	0,012
-495,824	-200,000	-0,016	-0,176
-494,810	800,000	0,054	0,121
-493,795	120,610	0,054	0,048
-492,781	-200,000	-0,044	-0,163
-491,766	-200,000	-0,011	0,049
-490,751	-27,081	-0,134	-0,056
-489,737	-18,490	-0,029	0,013
-488,722	-77,920	0,187	-0,046
-487,708	40,516	-0,080	0,052
-486,693	-118,537	0,169	0,021
-485,678	436,429	0,069	0,108
-484,664	134,567	-0,170	-0,159
-483,649	-200,000	-0,008	-0,140
-482,635	27,044	0,117	-0,071
-481,620	-200,000	0,006	-0,051
-480,605	-78,644	0,053	0,013
-479,591	-102,181	-0,054	-0,009
-478,576	97,606	0,047	0,038
-477,562	-200,000	0,024	0,087
-476,547	-76,319	-0,085	-0,021
-475,532	-200,000	0,012	-0,127
-474,518	-88,541	-0,122	-0,026
-473,503	112,116	0,081	0,070
-472,489	296,533	0,020	-0,026
-471,474	800,000	-0,025	0,063
-470,459	-196,885	-0,175	0,001
-469,445	800,000	-0,045	-0,131
-468,430	441,166	-0,059	-0,093
-467,416	-200,000	-0,014	-0,117
-466,401	800,000	-0,033	0,090
-465,386	800,000	0,050	-0,130
-464,372	800,000	0,076	0,177
-463,357	-36,977	-0,091	0,035
-462,343	-200,000	0,001	0,052
-461,328	363,822	-0,097	0,141
-460,313	800,000	-0,019	0,042
-459,299	80,320	-0,051	0,039
-458,284	587,790	0,049	-0,087
-457,270	149,339	0,051	-0,050
-456,255	800,000	0,042	-0,103
-455,241	-200,000	-0,006	0,076
-454,226	800,000	0,069	-0,166
-453,211	157,223	-0,104	0,103
-452,197	-23,743	-0,031	0,013
-451,182	-126,763	0,040	0,004
-450,168	1,224	0,085	-0,044
-449,153	-127,051	0,009	-0,001
-448,138	9,681	0,074	0,040
-447,124	176,063	-0,086	-0,090
-446,109	-51,683	-0,038	0,013
-445,095	771,017	-0,010	0,020
-444,080	-78,627	0,037	0,009
-443,065	-200,000	-0,000	0,124
-442,051	-200,000	0,018	0,196
-441,036	800,000	-0,030	-0,094
-440,022	177,014	-0,062	0,065
-439,007	92,196	-0,069	-0,056
-437,992	197,500	0,118	0,130
-436,978	-172,536	-0,063	-0,001
-435,963	-102,625	0,030	0,005
-434,949	124,679	0,046	0,041
-433,934	-53,533	-0,090	0,029
-432,919	-200,000	-0,004	-0,037
-431,905	-179,692	-0,074	0,001
-430,890	800,000	0,049	-0,099
-429,876	-87,302	-0,058	0,013
-428,861	482,318	-0,031	0,051
-427,846	-58,154	0,034	-0,011
-426,832	-127,463	-0,034	-0,003
-425,817	31,998	0,078	-0,048
-424,803	800,000	0,014	-0,036
-423,788	-74,139	0,120	-0,031
-422,773	-200,000	0,016	-0,058
-421,759	431,355	-0,043	-0,066
-420,744	224,704	0,074	0,086
-419,730	546,570	-0,063	0,108
-418,715	77,651	-0,058	0,044
-417,701	-108,927	0,015	-0,002
-416,686	164,032	0,052	-0,053
-415,671	-200,000	0,009	-0,077
-414,657	757,906	0,045	-0,088
-413,642	262,991	-0,055	0,069
-412,628	-29,546	0,016	-0,006
-411,613	-200,000	-0,008	0,046
-410,598	800,000	-0,029	0,082
-409,584	-200,000	-0,002	-0,105
-408,569	102,091	0,082	0,068
-407,555	142,451	-0,055	-0,053
-406,540	33,579	-0,086	-0,053
-405,525	67,482	0,071	-0,052
-404,511	89,313	-0,050	-0,040
-403,496	-200,000	0,034	-0,129
-402,482	198,435	-0,027	0,030
-401,467	605,348	-0,063	0,114
-400,452	504,632	-0,064	0,108
-399,438	-200,000	0,002	-0,065
-398,423	-200,000	0,001	0,101
-397,409	111,498	-0,075	-0,065
-396,394	-57,287	0,095	-0,030
-395,379	-200,000	-0,036	0,116
-394,365	-51,915	0,129	0,043
-393,350	-200,000	0,047	-0,158
-392,336	-200,000	0,009	-0,104
-391,321	173,301	-0,080	-0,083
-390,306	-200,000	0,023	-0,080
-389,292	-126,987	0,047	0,005
-388,277	-43,178	-0,046	-0,017
-387,263	6,978	0,177	0,095
-386,248	431,238	-0,060	0,093
-385,233	-200,000	0,006	-0,082
-384,219	-3,692	0,116	-0,057
-383,204	131,927	0,040	-0,037
-382,190	162,780	0,040	0,040
-381,175	-1,271	0,167	-0,084
-380,160	800,000	-0,061	0,130
-379,146	-200,000	-0,013	0,180
-378,131	-10,923	0,041	0,019
-377,117	-200,000	0,035	-0,125
-376,102	5,319	-0,097	0,051
-375,088	606,449	0,008	0,014
-374,073	109,931	-0,077	-0,066
-373,058	800,000	-0,019	0,057
-372,044	-108,995	-0,048	0,007
-371,029	-87,803	0,113	0,024
-370,015	800,000	-0,025	0,056
-369,000	90,068	0,036	0,028
-367,985	-200,000	0,012	-0,213
-366,971	-96,428	0,060	0,011
-365,956	417,797	0,085	-0,130
-364,942	-200,000	0,018	0,075
-363,927	-200,000	0,029	0,125
-362,912	-200,000	-0,010	-0,042
-361,898	-83,938	0,088	-0,020
-360,883	177,538	-0,008	-0,009
-359,869	-200,000	-0,002	0,093
-358,854	-15,298	-0,122	0,056
-357,839	-200,000	-0,009	0,182
-356,825	421,830	0,042	0,065
-355,810	800,000	-0,022	-0,054
-354,796	315,734	0,031	0,041
-353,781	-200,000	-0,001	0,058
-352,766	-200,000	0,012	-0,165
-351,752	-126,101	-0,076	0,008
-350,737	-64,591	0,072	-0,021
-349,723	-144,456	0,079	-0,005
-348,708	229,470	0,126	-0,147
-347,693	-26,124	0,082	-0,034
-346,679	-200,000	0,000	-0,049
-345,664	-200,000	0,010	-0,070
-344,650	-53,486	0,130	0,042
-343,635	-200,000	-0,001	0,029
-342,620	800,000	0,020	0,043
-341,606	-200,000	-0,019	0,125
-340,591	-34,022	-0,077	-0,030
-339,577	800,000	-0,014	0,035
-338,562	-39,131	-0,148	-0,055
-337,548	-200,000	0,011	0,052
-336,533	800,000	0,021	0,056
-335,518	800,000	-0,025	0,062
-334,504	135,171	0,069	-0,064
-333,489	-200,000	0,002	0,030
-332,475	-90,749	-0,026	0,005
-331,460	-18,270	0,108	0,048
-330,445	89,493	0,035	-0,028
-329,431	-159,329	0,121	0,005
-328,416	187,289	0,062	0,066
-327,402	-62,651	0,075	0,022
-326,387	158,564	0,048	0,047
-325,372	429,977	-0,069	-0,108
-324,358	-167,855	0,033	0,001
-323,343	-121,123	-0,090	0,011
-322,329	398,728	-0,047	-0,071
-321,314	-200,000	-0,022	-0,202
-320,299	50,732	0,042	0,028
-319,285	800,000	0,035	0,079
-318,270	800,000	-0,023	-0,053
-317,256	77,494	-0,016	-0,012
-316,241	135,856	0,013	0,013
-315,226	800,000	-0,055	0,117
-314,212	352,886	0,062	0,088
-313,197	46,377	-0,072	-0,047
-312,183	56,140	-0,116	0,080
-311,168	-38,042	0,048	0,018
-310,153	800,000	-0,057	-0,142
-309,139	-200,000	0,012	-0,067
-308,124	-200,000	-0,021	0,170
-307,110	193,092	0,028	-0,030
-306,095	441,134	0,038	0,060
-305,080	-88,941	0,054	-0,011
-304,066	-193,033	-0,146	0,001
-303,051	73,370	-0,089	-0,067
-302,037	446,700	0,040	0,062
-301,022	-9,618	-0,026	0,012
-300,008	-200,000	0,001	0,100
-298,993	-200,000	-0,033	0,104
-297,978	-105,183	0,097	-0,016
-296,964	-200,000	0,012	0,051
-295,949	-107,611	-0,063	-0,010
-294,935	-200,000	0,044	-0,151
-293,920	-200,000	0,004	-0,053
-292,905	-200,000	0,005	0,025
-291,891	400,911	-0,068	0,102
-290,876	1,644	0,115	0,059
-289,862	-191,621	-0,084	0,001
-288,847	-198,900	-0,140	0,001
-287,832	-200,000	0,012	-0,068
-286,818	-100,905	-0,085	-0,015
-285,803	-34,573	-0,125	0,049
-284,789	25,965	0,071	-0,042
-283,774	-200,000	0,013	0,195
-282,759	169,943	-0,100	0,102
-281,745	-80,194	-0,085	-0,020
-280,730	92,960	-0,086	-0,069
-279,716	42,455	-0,089	-0,058
-278,701	-47,004	0,090	-0,031
-277,686	-121,008	0,061	-0,007
-276,672	515,112	0,014	-0,024
-275,657	-200,000	-0,014	0,108
-274,643	-200,000	-0,018	-0,060
-273,628	71,271	-0,033	0,025
-272,613	-134,634	-0,060	-0,005
-271,599	-158,921	0,140	-0,006
-270,584	180,930	-0,028	0,029
-269,570	-17,541	-0,082	0,037
-268,555	61,994	-0,102	-0,072
-267,540	-2,045	-0,036	-0,018
-266,526	204,765	-0,058	-0,065
-265,511	408,882	-0,061	-0,093
-264,497	-200,000	-0,002	0,142
-263,482	60,509	0,028	0,020
-262,467	-92,425	-0,056	0,011
-261,453	-197,586	0,162	0,001
-260,438	243,470	0,032	-0,038
-259,424	-200,000	-0,014	-0,063
-258,409	-11,478	-0,156	-0,073
-257,395	-200,000	0,006	-0,044
-256,380	800,000	0,016	0,033
-255,365	124,615	0,083	0,075
-254,351	147,901	-0,061	0,059
-253,336	-200,000	0,007	-0,092
-252,322	800,000	-0,070	-0,167
-251,307	389,513	0,047	-0,070
-250,292	-23,580	0,192	0,082
-249,278	-200,000	-0,029	0,151
-248,263	-88,176	-0,071	0,015
-247,249	283,527	-0,058	-0,075
-246,234	9,478	0,073	-0,039
-245,219	-63,125	0,101	-0,030
-244,205	66,236	0,143	0,104
-243,190	55,941	-0,045	0,031
-242,176	313,555	-0,052	-0,070
-241,161	8,717	-0,041	-0,022
-240,146	-200,000	0,045	0,149
-239,132	-198,275	0,064	0,000
-238,117	49,661	-0,053	-0,036
-237,103	65,892	0,032	-0,023
-236,088	74,126	0,067	-0,050
-235,073	667,758	0,101	-0,187
-234,059	-53,215	-0,092	0,030
-233,044	80,463	0,031	0,024
-232,030	151,075	0,037	0,036
-231,015	62,542	-0,037	0,026
-230,000	800,000	-0,067	-0,198
-228,986	84,775	0,072	-0,057
-227,971	322,736	0,033	-0,044
-226,957	623,416	0,012	0,022
-225,942	-143,925	-0,134	0,009
-224,927	-136,776	-0,094	-0,008
-223,913	-200,000	0,005	-0,016
-222,898	103,001	-0,063	0,053
-221,884	129,409	-0,103	-0,094
-220,869	39,265	0,071	0,045
-219,855	177,620	-0,049	0,051
-218,840	-141,761	-0,132	0,009
-217,825	-200,000	-0,007	-0,028
-216,811	800,000	-0,028	-0,062
-215,796	96,035	0,070	-0,057
-214,782	320,722	-0,035	0,047
-213,767	-200,000	-0,008	0,100
-212,752	53,470	0,086	0,058
-211,738	-200,000	0,019	-0,124
-210,723	800,000	-0,020	0,043
-209,709	20,400	-0,142	0,082
-208,694	-60,109	-0,179	0,054
-207,679	-70,369	-0,076	-0,020
-206,665	-200,000	0,030	-0,135
-205,650	-111,441	-0,142	-0,020
-204,636	390,772	0,104	0,154
-203,621	800,000	0,032	-0,075
-202,606	59,216	-0,077	-0,054
-201,592	-87,227	0,078	-0,017
-200,577	-68,666	0,090	0,025
-199,563	-42,437	0,055	0,020
-198,548	-108,281	0,083	-0,013
-197,533	-146,392	0,121	0,007
-196,519	434,914	-0,037	0,057
-195,504	2,521	-0,118	0,061
-194,490	202,965	-0,080	-0,088
-193,475	-200,000	-0,039	-0,124
-192,460	-200,000	0,003	-0,086
-191,446	9,022	0,068	-0,036
-190,431	148,833	-0,040	-0,038
-189,417	-200,000	-0,033	0,144
-188,402	387,668	0,038	-0,056
-187,387	9,755	-0,055	0,029
-186,373	-163,886	0,031	0,001
-185,358	-200,000	0,027	-0,100
-184,344	372,035	0,035	-0,050
-183,329	33,972	0,058	-0,036
-182,315	114,089	-0,065	0,056
-181,300	800,000	-0,041	-0,090
-180,285	800,000	-0,021	-0,049
-179,271	499,677	-0,052	0,085
-178,256	-200,000	-0,008	0,041
-177,242	-200,000	0,036	0,153
-176,227	-3,089	0,084	0,042
-175,212	800,000	-0,036	-0,110
-174,198	-151,515	0,107	0,006
-173,183	54,781	0,042	-0,029
-172,169	147,456	-0,078	0,075
-171,154	-200,000	-0,006	0,025
-170,139	152,618	0,108	0,105
-169,125	84,617	0,032	0,025
-168,110	-200,000	-0,002	-0,037
-167,096	129,490	0,027	0,025
-166,081	-200,000	0,031	0,108
-165,066	-200,000	-0,021	-0,111
-164,052	-42,869	-0,026	0,009
-163,037	-200,000	-0,004	0,101
-162,023	800,000	0,053	0,130
-161,008	236,779	0,076	0,090
-159,993	-56,435	-0,067	-0,021
-158,979	172,073	-0,051	0,052
-157,964	-159,552	0,043	0,002
-156,950	39,008	-0,110	-0,070
-155,935	-194,625	0,032	-0,000
-154,920	-200,000	0,012	-0,060
-153,906	-200,000	-0,006	0,059
-152,891	183,689	0,012	-0,013
-151,877	-200,000	0,042	0,153
-150,862	185,766	-0,013	-0,014
-149,847	800,000	-0,044	0,116
-148,833	-200,000	-0,009	0,118
-147,818	-9,387	0,117	-0,055
-146,804	-64,971	0,096	-0,027
-145,789	-113,189	-0,065	0,009
-144,775	-167,861	-0,004	0,000
-143,760	-27,752	-0,030	0,012
-142,745	800,000	0,020	0,050
-141,731	-127,383	0,017	-0,002
-140,716	15,684	0,039	0,021
-139,702	-37,446	0,144	0,054
-138,687	77,565	0,040	0,030
-137,672	800,000	-0,004	0,010
-136,658	373,555	-0,084	-0,121
-135,643	359,126	0,015	-0,022
-134,629	14,201	0,121	0,067
-133,614	540,604	0,053	0,090
-132,599	-56,889	-0,054	0,017
-131,585	141,826	0,044	0,041
-130,570	128,773	-0,025	0,023
-129,556	-200,000	-0,001	-0,014
-128,541	-200,000	-0,028	-0,143
-127,526	155,110	0,049	-0,048
-126,512	800,000	0,079	0,189
-125,497	-200,000	0,025	0,163
-124,483	108,746	0,154	0,131
-123,468	-57,971	-0,094	0,029
-122,453	-84,894	-0,037	-0,008
-121,439	-97,787	-0,125	0,023
-120,424	-152,203	0,132	0,007
-119,410	63,119	0,066	0,047
-118,395	157,173	0,063	0,062
-117,380	-200,000	0,066	0,257
-116,366	800,000	0,028	-0,084
-115,351	396,929	0,047	-0,069
-114,337	210,075	-0,075	-0,083
-113,322	24,160	0,075	-0,044
-112,307	394,325	0,059	-0,087
-111,293	800,000	-0,062	0,149
-110,278	209,301	-0,057	0,063
-109,264	800,000	-0,017	0,039
-108,249	273,010	-0,119	0,150
-107,234	110,325	0,151	-0,129
-106,220	800,000	-0,057	0,159
-105,205	-200,000	0,008	0,051
-104,191	-115,642	0,158	0,021
-103,176	288,810	-0,118	0,152
-102,162	800,000	-0,062	0,142
-101,147	-0,960	-0,109	-0,055
-100,132	-86,878	0,133	-0,029
-99,118	-200,000	0,031	-0,124
-98,103	568,052	-0,092	-0,159
-97,089	328,178	0,068	0,093
-96,074	800,000	0,047	0,139
-95,059	-6,926	0,021	-0,010
-94,045	-200,000	0,018	-0,075
-93,030	-156,929	0,148	-0,006
-92,016	159,263	-0,143	-0,141
-91,001	400,372	0,009	-0,014
-89,986	800,000	0,043	0,115
-88,972	800,000	0,059	0,135
-87,957	800,000	-0,055	0,164
-86,943	186,385	0,093	-0,098
-85,928	-200,000	0,011	0,067
-84,913	-200,000	0,002	0,018
-83,899	-60,784	0,052	0,015
-82,884	218,913	-0,063	0,071
-81,870	-129,592	0,202	0,020
-80,855	-43,617	-0,096	-0,034
-79,840	-200,000	-0,002	0,106
-78,826	38,318	-0,032	0,020
-77,811	63,304	0,086	0,061
-76,797	-120,325	-0,089	0,011
-75,782	-123,925	0,056	0,006
-74,767	497,428	0,021	0,034
-73,753	-200,000	-0,002	0,228
-72,738	151,184	0,113	0,109
-71,724	236,667	0,050	0,059
-70,709	800,000	-0,023	0,056
-69,694	-69,425	0,071	-0,019
-68,680	800,000	0,032	-0,063
-67,665	237,619	-0,075	0,089
-66,651	-200,000	0,010	0,071
-65,636	800,000	0,040	0,109
-64,622	-200,000	-0,005	0,036
-63,607	273,052	-0,054	-0,068
-62,592	-88,666	0,025	-0,005
-61,578	-200,000	0,007	0,096
-60,563	-200,000	-0,016	0,076
-59,549	-12,218	-0,267	0,123
-58,534	97,738	-2,778	-2,262
-57,519	-115,471	0,554	-0,073
-56,505	800,000	-1,809	-5,561
-55,490	362,188	1,141	1,626
-54,476	800,000	5,434	12,102
-53,461	-200,000	22,486	351,279
-52,446	800,000	761,272	2278,749
-51,432	516,908	1643,219	2731,276
-50,417	65,159	1648,998	1178,840
-49,403	14,133	1567,553	862,224
-48,388	8,944	1520,599	810,053
-47,373	18,643	1515,250	856,075
-46,359	12,473	1503,328	818,493
-45,344	7,500	1499,351	791,403
-44,330	7,422	1497,570	790,039
-43,315	7,312	1495,758	788,504
-42,300	7,326	1493,763	787,489
-41,286	7,338	1492,270	786,731
-40,271	7,295	1490,863	785,745
-39,257	7,312	1489,472	785,062
-38,242	7,298	1487,964	784,169
-37,227	7,330	1486,550	783,548
-36,213	7,306	1485,124	782,647
-35,198	7,290	1483,990	781,942
-34,184	7,326	1482,701	781,408
-33,169	7,305	1481,245	780,508
-32,154	7,358	1479,657	779,903
-31,140	7,333	1478,614	779,194
-30,125	7,325	1477,275	778,423
-29,111	7,335	1475,726	777,625
-28,096	7,344	1475,020	777,262
-27,082	7,360	1473,882	776,715
-26,067	7,289	1472,785	775,753
-25,052	7,290	1471,478	775,038
-24,038	7,254	1470,362	774,245
-23,023	7,253	1469,468	773,738
-22,009	7,291	1468,515	773,390
-20,994	7,378	1467,640	773,329
-19,979	7,343	1466,482	772,516
-18,965	7,336	1465,412	771,885
-17,950	7,331	1464,514	771,356
-16,936	7,283	1463,428	770,522
-15,921	7,226	1462,499	769,723
-14,906	7,222	1461,430	769,110
-13,892	7,234	1460,342	768,564
-12,877	7,229	1459,503	768,070
-11,863	7,153	1458,477	767,128
-10,848	7,183	1457,668	766,819
-9,833	7,319	1456,563	766,867
-8,819	7,261	1455,749	766,126
-7,804	7,222	1454,746	765,377
-6,790	7,244	1454,096	765,114
-5,775	7,245	1453,190	764,614
-4,760	7,289	1452,050	764,194
-3,746	7,189	1451,066	763,161
-2,731	7,089	1449,992	762,081
-1,717	7,007	1448,923	761,092
-0,702	7,033	1448,071	760,741
0,313	6,905	1446,682	760,543
1,327	10,491	1443,656	776,181
2,342	19,348	1202,687	681,957
3,356	14,813	672,612	371,242
4,371	-13,213	456,145	208,827
5,386	-16,258	429,316	192,103
6,400	-17,154	420,751	186,977
7,415	-16,442	417,258	186,414
8,429	-17,927	414,534	183,097
9,444	-17,884	413,208	182,555
10,459	-17,946	412,257	182,032
11,473	-17,920	411,211	181,590
12,488	-17,999	410,182	181,011
13,502	-18,064	409,528	180,616
14,517	-18,333	408,862	179,933
15,531	-18,350	408,352	179,670
16,546	-18,092	407,445	179,609
17,561	-18,303	407,035	179,123
18,575	-18,204	406,225	178,887
19,590	-18,307	405,691	178,494
20,604	-18,202	405,320	178,458
21,619	-18,389	404,933	178,017
22,634	-18,203	404,164	177,917
23,648	-18,390	403,841	177,504
24,663	-18,295	403,266	177,365
25,677	-18,379	402,923	177,083
26,692	-18,379	402,648	176,947
27,707	-18,331	402,148	176,776
28,721	-18,295	401,651	176,592
29,736	-18,349	401,255	176,328
30,750	-18,293	400,769	176,175
31,765	-18,327	400,389	175,946
32,780	-18,344	400,171	175,812
33,794	-18,387	399,787	175,569
34,809	-18,302	399,353	175,478
35,823	-18,352	398,938	175,212
36,838	-18,404	398,563	174,962
37,853	-18,471	398,173	174,684
38,867	-18,427	397,776	174,554
39,882	-18,428	397,608	174,463
40,896	-18,324	397,103	174,366
41,911	-18,302	396,704	174,205
42,926	-18,316	396,242	173,967
43,940	-18,403	395,925	173,696
44,955	-18,350	395,569	173,595
45,969	-18,326	395,222	173,460
46,984	-18,350	394,902	173,272
47,999	-18,426	394,627	173,034
49,013	-18,365	394,350	172,978
50,028	-18,352	393,953	172,807
51,042	-18,331	393,478	172,610
52,057	-18,408	393,143	172,346
53,071	-18,273	392,919	172,411
54,086	-18,342	392,652	172,187
55,101	-18,252	392,272	172,125
56,115	-18,214	391,784	171,946
57,130	-18,180	391,438	171,823
58,144	-18,143	391,056	171,689
59,159	-18,183	390,705	171,467
60,174	-18,173	390,445	171,350
61,188	-18,220	390,012	171,083
62,203	-18,135	389,757	171,068
63,217	-18,207	389,327	170,769
64,232	-18,235	389,082	170,610
65,247	-18,053	388,534	170,592
66,261	-18,129	388,188	170,326
67,276	-18,231	387,981	170,087
68,290	-18,370	387,667	169,752
69,305	-18,249	387,411	169,783
70,320	-18,199	387,039	169,671
71,334	-18,273	386,735	169,425
72,349	-18,172	386,397	169,394
73,363	-18,299	386,100	169,083
74,378	-18,317	385,840	168,931
75,393	-18,270	385,428	168,796
76,407	-18,213	384,941	168,642
77,422	-18,251	384,797	168,515
78,436	-18,233	384,391	168,345
79,451	-18,091	383,926	168,309
80,466	-18,240	383,530	167,929
81,480	-18,298	383,329	167,751
82,495	-18,090	382,790	167,769
83,509	-18,243	382,668	167,503
84,524	-18,170	382,486	167,503
85,539	-18,161	382,188	167,369
86,553	-18,300	381,831	167,019
87,568	-18,274	381,471	166,879
88,582	-18,216	380,956	166,713
89,597	-18,316	380,842	166,521
90,611	-18,239	380,440	166,429
91,626	-18,185	380,376	166,455
92,641	-18,148	379,864	166,264
93,655	-18,224	379,608	166,040
94,670	-18,241	379,366	165,897
95,684	-18,141	379,073	165,882
96,699	-18,140	378,743	165,724
97,714	-18,169	378,488	165,561
98,728	-18,176	378,166	165,396
99,743	-18,240	377,910	165,187
100,757	-18,230	377,476	164,997
101,772	-18,195	377,239	164,922
102,787	-18,230	376,922	164,725
103,801	-18,173	376,638	164,659
104,816	-18,273	376,543	164,475
105,830	-18,190	376,135	164,387
106,845	-18,187	375,775	164,220
107,860	-18,119	375,419	164,134
108,874	-18,038	375,062	164,066
109,889	-17,983	374,908	164,052
110,903	-18,121	374,671	163,761
111,918	-18,056	374,166	163,608
112,933	-18,207	373,981	163,322
113,947	-18,091	373,589	163,282
114,962	-18,201	373,496	163,089
115,976	-18,142	373,052	162,954
116,991	-18,007	372,754	162,978
118,006	-18,053	372,502	162,796
119,020	-18,110	372,306	162,625
120,035	-18,079	372,162	162,587
121,049	-18,059	371,747	162,415
122,064	-18,088	371,364	162,197
123,079	-18,058	371,252	162,172
124,093	-18,054	370,752	161,943
125,108	-18,068	370,607	161,848
126,122	-18,149	370,182	161,548
127,137	-18,356	370,012	161,202
128,151	-18,122	369,628	161,311
129,166	-18,108	369,329	161,183
130,181	-18,130	368,993	160,996
131,195	-18,074	368,745	160,942
132,210	-18,149	368,489	160,723
133,224	-18,017	368,151	160,724
134,239	-17,933	367,837	160,676
135,254	-18,041	367,579	160,416
136,268	-17,974	367,343	160,381
137,283	-18,076	367,045	160,111
138,297	-18,056	366,607	159,930
139,312	-18,124	366,418	159,751
140,327	-18,072	366,109	159,665
141,341	-18,019	365,880	159,616
142,356	-17,970	365,683	159,576
143,370	-17,910	365,423	159,522
144,385	-17,971	365,157	159,316
145,400	-17,845	364,746	159,277
146,414	-18,144	364,573	158,822
147,429	-18,068	364,126	158,707
148,443	-18,044	364,000	158,666
149,458	-18,037	363,677	158,520
150,473	-17,942	363,485	158,538
151,487	-17,982	363,106	158,309
152,502	-17,903	362,835	158,272
153,516	-18,038	362,532	157,963
154,531	-18,108	362,289	157,759
155,546	-17,939	362,052	157,846
156,560	-17,962	361,721	157,660
157,575	-18,035	361,644	157,524
158,589	-17,876	361,280	157,543
159,604	-17,928	361,002	157,345
160,619	-17,830	360,718	157,325
161,633	-17,934	360,379	157,038
162,648	-18,139	360,365	156,771
163,662	-17,944	359,855	156,770
164,677	-17,939	359,813	156,743
165,692	-17,915	359,459	156,604
166,706	-17,908	359,299	156,529
167,721	-17,890	359,034	156,421
168,735	-17,932	358,832	156,269
169,750	-17,971	358,586	156,102
170,764	-17,966	358,391	156,008
171,779	-17,859	358,110	156,000
172,794	-17,826	357,840	155,908
173,808	-17,871	357,489	155,687
174,823	-18,112	357,222	155,270
175,837	-18,094	357,071	155,212
176,852	-18,003	356,875	155,221
177,867	-17,919	356,577	155,178
178,881	-17,858	356,359	155,141
179,896	-17,862	356,091	155,006
180,910	-17,848	355,714	154,845
181,925	-17,894	355,724	154,781
182,940	-17,888	355,318	154,597
183,954	-17,793	354,948	154,535
184,969	-17,873	354,883	154,398
185,983	-17,783	354,628	154,380
186,998	-17,903	354,525	154,180
188,013	-17,852	354,127	154,053
189,027	-17,823	353,787	153,926
190,042	-17,834	353,577	153,808
191,056	-17,899	353,340	153,614
192,071	-17,817	352,988	153,543
193,086	-17,913	352,710	153,297
194,100	-17,655	352,719	153,589
195,115	-17,388	352,583	153,830
196,129	-15,896	353,408	155,931
197,144	-11,497	355,309	161,954
198,159	-7,766	357,040	167,152
199,173	-4,773	358,173	171,223
200,188	-3,841	358,318	172,383
201,202	-3,838	358,393	172,407
202,217	-3,477	358,130	172,693
203,232	-3,222	358,024	172,929
204,246	-3,249	357,776	172,761
205,261	-3,099	357,672	172,873
206,275	-3,063	357,356	172,748
207,290	-2,923	357,082	172,766
208,304	-2,903	356,876	172,674
209,319	-3,026	356,542	172,351
210,334	-2,875	356,467	172,479
211,348	-2,844	356,296	172,416
212,363	-2,816	356,032	172,306
213,377	-2,715	355,899	172,346
214,392	-2,832	355,687	172,090
215,407	-2,704	355,505	172,137
216,421	-2,900	355,260	171,773
217,436	-2,688	354,879	171,822
218,450	-2,684	354,577	171,666
219,465	-2,661	354,520	171,649
220,480	-2,744	354,240	171,401
221,494	-2,549	353,933	171,465
222,509	-2,732	353,877	171,209
223,523	-2,667	353,584	171,127
224,538	-2,723	353,292	170,906
225,553	-2,694	352,982	170,775
226,567	-2,838	352,855	170,530
227,582	-2,804	352,603	170,433
228,596	-2,668	352,352	170,454
229,611	-2,724	352,215	170,308
230,626	-2,707	352,019	170,218
231,640	-2,753	351,589	169,941
232,655	-2,803	351,434	169,793
233,669	-2,662	351,104	169,781
234,684	-2,660	351,021	169,729
235,699	-2,604	350,751	169,648
236,713	-2,518	350,344	169,535
237,728	-2,572	350,352	169,462
238,742	-2,666	350,079	169,205
239,757	-2,607	349,822	169,135
240,772	-2,679	349,551	168,905
241,786	-2,701	349,346	168,766
242,801	-2,607	349,033	168,708
243,815	-2,753	348,897	168,459
244,830	-2,667	348,642	168,420
245,844	-2,653	348,487	168,346
246,859	-2,722	348,232	168,129
247,874	-2,518	347,915	168,194
248,888	-2,550	347,668	168,023
249,903	-2,648	347,563	167,845
250,917	-2,626	347,251	167,705
251,932	-2,482	346,924	167,697
252,947	-2,718	346,882	167,392
253,961	-2,789	346,691	167,204
254,976	-2,659	346,365	167,179
255,990	-2,589	346,171	167,151
257,005	-2,615	346,036	167,041
258,020	-2,584	345,772	166,935
259,034	-2,424	345,466	166,954
260,049	-2,421	345,260	166,842
261,063	-2,545	345,039	166,580
262,078	-2,618	344,891	166,411
263,093	-2,618	344,647	166,279
264,107	-2,550	344,421	166,232
265,122	-2,451	344,057	166,153
266,136	-2,611	344,010	165,935
267,151	-2,479	343,590	165,866
268,166	-2,487	343,493	165,796
269,180	-2,619	343,297	165,537
270,195	-2,492	342,968	165,507
271,209	-2,423	342,793	165,486
272,224	-2,446	342,654	165,378
273,239	-2,450	342,380	165,227
274,253	-2,502	342,165	165,049
275,268	-2,559	341,953	164,868
276,282	-2,465	341,513	164,747
277,297	-2,515	341,331	164,589
278,312	-2,366	341,188	164,672
279,326	-2,391	341,090	164,582
280,341	-2,510	340,869	164,327
281,355	-2,352	340,569	164,345
282,370	-2,376	340,389	164,216
283,384	-2,378	340,230	164,123
284,399	-2,400	339,948	163,947
285,414	-2,389	339,605	163,780
286,428	-2,297	339,503	163,819
287,443	-2,446	339,407	163,591
288,457	-2,481	339,225	163,451
289,472	-2,405	338,897	163,362
290,487	-2,282	338,683	163,382
291,501	-2,514	338,422	162,983
292,516	-2,261	338,201	163,144
293,530	-2,356	338,021	162,936
294,545	-2,292	337,657	162,818
295,560	-2,409	337,616	162,654
296,574	-2,331	337,448	162,645
297,589	-2,267	337,125	162,545
298,603	-2,257	336,943	162,453
299,618	-2,315	336,803	162,308
300,633	-2,358	336,643	162,169
301,647	-2,117	336,370	162,288
302,662	-2,216	336,124	162,047
303,676	-2,204	335,917	161,945
304,691	-2,323	335,814	161,750
305,706	-2,209	335,440	161,681
306,720	-2,172	335,237	161,609
307,735	-2,214	335,051	161,459
308,749	-2,118	334,732	161,397
309,764	-2,024	334,514	161,380
310,779	-2,364	334,441	160,958
311,793	-2,252	334,074	160,889
312,808	-2,191	333,775	160,797
313,822	-2,073	333,687	160,870
314,837	-2,302	333,559	160,543
315,852	-2,361	333,403	160,389
316,866	-2,212	333,113	160,398
317,881	-2,090	332,885	160,407
318,895	-2,103	332,676	160,278
319,910	-2,162	332,488	160,109
320,925	-2,086	332,217	160,047
321,939	-2,136	332,161	159,952
322,954	-2,052	331,851	159,879
323,968	-2,073	331,750	159,793
324,983	-1,930	331,377	159,754
325,997	-2,202	331,311	159,414
327,012	-2,049	330,914	159,373
328,027	-1,935	330,741	159,400
329,041	-2,051	330,634	159,208
330,056	-2,086	330,326	159,008
331,070	-2,079	330,174	158,929
332,085	-2,052	329,869	158,797
333,100	-1,910	329,707	158,858
334,114	-1,792	329,447	158,845
335,129	-1,916	329,359	158,654
336,143	-1,976	329,135	158,468
337,158	-2,006	328,906	158,311
338,173	-1,982	328,703	158,226
339,187	-1,904	328,413	158,156
340,202	-2,092	328,190	157,832
341,216	-1,965	327,939	157,833
342,231	-2,032	327,808	157,685
343,246	-1,965	327,594	157,640
344,260	-1,862	327,403	157,643
345,275	-2,063	327,239	157,336
346,289	-1,924	326,906	157,310
347,304	-2,011	326,737	157,122
348,319	-1,945	326,530	157,079
349,333	-1,886	326,408	157,069
350,348	-1,922	326,047	156,843
351,362	-1,908	325,987	156,814
352,377	-1,792	325,599	156,738
353,392	-1,826	325,602	156,689
354,406	-1,888	325,428	156,525
355,421	195,757	1323,166	1382,213
356,435	160,034	1444,525	1382,037
