DTS Sentinel unit serial number:	SN410029Multiplexer serial number:	ORYXHardware model number:	OX2-SRSoftware version number:	ORYX F/W v4,00 Oryx Data Collector v3.7.2.0data status	okinstallation	B6 Nyhavnadifferential loss correction	single-endedforward channel	channel 2reverse channel	N/Adate	2023/12/09time	20:45:08forward acquisition time	300,00reverse acquisition time	0,00gamma	499,1914k internal	0,3129k external	0,3129temperature offset calibration	1,0000default loss term (dB/km)	0,3820temperature slope calibration	1,0000multiplexer offset coefficient	1,0000multiplexer slope coefficient	1,0000fibre end	0,00T internal ref (°C)	21,38T ext. ref 1 (°C)	5,38T ext. ref 2 (°C)	5,37length (m)	temperature (°C)	Stokes	anti-Stokes-744,400	-122,978	0,070	0,008
-743,385	-127,823	-0,241	0,025
-742,371	20,631	0,158	-0,095
-741,356	115,356	-0,131	0,119
-740,342	61,039	-0,084	0,062
-739,327	15,406	-0,220	0,128
-738,312	-200,000	-0,004	0,028
-737,298	149,191	-0,166	0,168
-736,283	-84,083	0,142	0,033
-735,269	-155,852	-0,239	0,011
-734,254	114,350	0,097	-0,088
-733,239	-39,679	-0,338	-0,131
-732,225	423,557	-0,056	0,089
-731,210	800,000	0,082	0,216
-730,196	379,848	-0,078	-0,120
-729,181	387,640	-0,095	-0,147
-728,167	327,301	-0,011	-0,015
-727,152	122,203	-0,027	0,025
-726,137	0,980	-0,038	-0,020
-725,123	51,341	-0,166	-0,117
-724,108	337,435	0,051	-0,074
-723,094	-200,000	-0,008	-0,179
-722,079	124,262	-0,051	-0,048
-721,064	800,000	0,049	-0,105
-720,050	800,000	-0,025	-0,062
-719,035	11,084	-0,070	0,040
-718,021	-200,000	0,036	-0,177
-717,006	800,000	-0,035	-0,092
-715,991	85,550	-0,125	-0,102
-714,977	-139,887	-0,053	-0,004
-713,962	800,000	-0,032	-0,097
-712,948	26,679	0,092	0,057
-711,933	-107,930	0,035	-0,006
-710,918	-199,016	-0,167	-0,001
-709,904	-200,000	0,011	-0,088
-708,889	40,747	-0,075	0,050
-707,875	-92,147	0,025	0,005
-706,860	653,698	-0,029	-0,056
-705,845	155,942	-0,035	-0,036
-704,831	108,998	-0,057	-0,050
-703,816	800,000	0,010	0,021
-702,802	-200,000	-0,005	0,081
-701,787	-5,546	0,040	0,020
-700,772	-200,000	-0,033	-0,143
-699,758	-45,614	0,047	-0,017
-698,743	35,787	-0,143	-0,093
-697,729	-24,204	-0,022	0,010
-696,714	60,301	-0,054	0,040
-695,699	800,000	0,062	0,173
-694,685	203,729	0,025	-0,029
-693,670	99,529	-0,164	0,141
-692,656	222,218	-0,107	-0,128
-691,641	692,987	-0,056	-0,110
-690,627	-72,175	-0,128	-0,035
-689,612	-151,662	-0,169	-0,009
-688,597	-107,059	0,019	0,003
-687,583	-29,499	0,038	-0,016
-686,568	-200,000	-0,009	-0,035
-685,554	800,000	-0,050	-0,117
-684,539	-200,000	-0,015	-0,086
-683,524	-200,000	0,019	0,062
-682,510	-140,161	-0,163	-0,013
-681,495	-143,860	-0,058	-0,004
-680,481	-50,295	0,059	0,021
-679,466	-39,994	-0,087	-0,033
-678,451	800,000	0,036	-0,074
-677,437	-152,171	0,176	-0,009
-676,422	214,029	-0,050	0,059
-675,408	800,000	-0,025	0,075
-674,393	-200,000	-0,012	0,081
-673,378	60,874	-0,047	-0,034
-672,364	800,000	-0,023	-0,049
-671,349	180,213	-0,115	-0,125
-670,335	800,000	0,020	0,059
-669,320	-71,257	0,036	-0,010
-668,305	800,000	0,048	-0,102
-667,291	114,464	0,036	-0,032
-666,276	130,086	-0,034	-0,032
-665,262	-181,412	-0,106	0,001
-664,247	-200,000	-0,011	-0,139
-663,232	456,242	0,047	-0,078
-662,218	-60,131	0,035	0,011
-661,203	-200,000	-0,011	0,116
-660,189	97,868	0,129	0,110
-659,174	-59,598	0,092	-0,029
-658,159	-200,000	0,020	-0,088
-657,145	800,000	-0,064	-0,172
-656,130	16,182	-0,090	-0,052
-655,116	-117,052	-0,082	-0,011
-654,101	521,152	-0,056	-0,098
-653,086	257,376	-0,082	0,105
-652,072	46,825	-0,079	0,054
-651,057	800,000	-0,011	-0,026
-650,043	57,512	-0,077	0,056
-649,028	-200,000	-0,001	0,052
-648,014	800,000	0,028	0,085
-646,999	300,059	0,033	-0,045
-645,984	543,212	0,049	-0,087
-644,970	-64,356	-0,165	0,049
-643,955	40,565	-0,098	-0,066
-642,941	-1,092	-0,080	-0,042
-641,926	-23,835	-0,046	0,020
-640,911	-99,201	0,154	0,028
-639,897	11,192	-0,059	0,033
-638,882	-117,173	0,024	-0,003
-637,868	-123,301	0,067	-0,008
-636,853	162,485	-0,027	-0,028
-635,838	57,594	-0,034	-0,025
-634,824	66,558	0,070	-0,052
-633,809	314,517	-0,056	-0,078
-632,795	-102,992	0,143	0,025
-631,780	469,247	0,081	0,135
-630,765	-200,000	-0,028	0,128
-629,751	-97,188	-0,126	-0,024
-628,736	-76,805	-0,119	-0,031
-627,722	-28,552	-0,159	-0,068
-626,707	89,768	0,056	0,046
-625,692	800,000	0,052	0,135
-624,678	100,261	0,105	0,090
-623,663	365,694	-0,016	-0,025
-622,649	-200,000	-0,006	-0,076
-621,634	-94,724	-0,169	-0,034
-620,619	321,483	-0,068	-0,097
-619,605	-200,000	0,013	-0,119
-618,590	-200,000	0,022	-0,093
-617,576	67,176	-0,026	0,019
-616,561	800,000	-0,058	-0,127
-615,546	-200,000	0,040	-0,169
-614,532	-200,000	-0,006	-0,025
-613,517	-146,276	0,096	0,006
-612,503	-35,359	-0,131	-0,052
-611,488	199,383	0,036	0,041
-610,474	800,000	-0,058	0,153
-609,459	-123,733	-0,081	0,009
-608,444	-200,000	-0,023	-0,105
-607,430	134,787	0,076	-0,073
-606,415	800,000	0,061	-0,137
-605,401	-46,893	-0,052	-0,019
-604,386	-110,328	0,099	-0,015
-603,371	88,662	-0,090	0,074
-602,357	158,029	0,050	-0,051
-601,342	-83,229	-0,129	-0,030
-600,328	800,000	-0,044	-0,121
-599,313	545,552	0,073	-0,130
-598,298	-26,626	0,083	0,036
-597,284	354,824	0,048	0,071
-596,269	46,528	-0,022	0,015
-595,255	-200,000	-0,019	0,112
-594,240	-28,497	-0,113	-0,048
-593,225	159,627	0,031	-0,032
-592,211	-200,000	0,002	-0,086
-591,196	6,305	-0,009	0,005
-590,182	-57,237	-0,006	-0,002
-589,167	-200,000	0,030	0,000
-588,152	-3,395	0,024	0,012
-587,138	-200,000	-0,027	0,104
-586,123	173,408	-0,103	0,110
-585,109	-200,000	-0,004	0,062
-584,094	33,884	-0,041	0,026
-583,079	800,000	0,015	0,039
-582,065	71,823	0,070	-0,054
-581,050	-200,000	-0,001	-0,051
-580,036	87,824	-0,113	-0,093
-579,021	292,508	0,060	-0,081
-578,006	76,147	-0,025	-0,019
-576,992	340,086	0,035	0,051
-575,977	476,401	-0,024	-0,040
-574,963	-74,332	-0,028	-0,007
-573,948	73,138	0,115	0,089
-572,934	-200,000	-0,011	0,052
-571,919	101,807	0,052	-0,045
-570,904	372,166	0,058	-0,087
-569,890	-200,000	-0,003	0,039
-568,875	516,298	0,049	0,086
-567,861	373,020	0,066	-0,099
-566,846	94,870	-0,034	0,029
-565,831	180,629	-0,093	0,101
-564,817	-57,915	-0,082	-0,026
-563,802	-62,968	-0,080	0,024
-562,788	-200,000	-0,006	-0,094
-561,773	-51,780	0,155	0,053
-560,758	800,000	-0,029	-0,067
-559,744	-59,865	0,109	-0,034
-558,729	-200,000	-0,020	0,159
-557,715	-77,900	-0,040	0,010
-556,700	800,000	-0,056	-0,148
-555,685	-73,878	0,138	-0,037
-554,671	-200,000	-0,003	-0,131
-553,656	59,551	-0,059	-0,043
-552,642	-23,475	0,077	-0,034
-551,627	800,000	-0,037	0,088
-550,612	5,390	-0,043	-0,023
-549,598	-11,245	-0,209	-0,101
-548,583	10,580	0,049	-0,028
-547,569	-174,127	0,148	0,003
-546,554	216,159	0,098	0,115
-545,539	-11,956	0,079	0,038
-544,525	91,128	0,040	-0,033
-543,510	449,928	-0,059	-0,097
-542,496	791,778	0,047	0,095
-541,481	-200,000	-0,002	-0,017
-540,466	-200,000	-0,002	-0,096
-539,452	-200,000	0,022	-0,094
-538,437	-2,500	0,017	-0,009
-537,423	-139,137	0,018	0,001
-536,408	-26,691	0,090	-0,039
-535,393	-55,589	-0,036	-0,012
-534,379	-34,477	-0,040	0,016
-533,364	-200,000	0,030	0,140
-532,350	800,000	-0,034	-0,070
-531,335	-43,163	0,033	-0,012
-530,321	674,097	0,035	0,067
-529,306	-200,000	0,012	0,077
-528,291	741,309	0,009	-0,017
-527,277	800,000	-0,042	-0,113
-526,262	582,888	0,053	-0,097
-525,248	-200,000	-0,029	-0,149
-524,233	526,080	0,053	-0,093
-523,218	4,828	0,060	-0,033
-522,204	175,871	-0,079	-0,085
-521,189	-200,000	-0,011	-0,142
-520,175	120,466	-0,045	-0,041
-519,160	-200,000	0,005	-0,024
-518,145	67,351	-0,122	0,092
-517,131	-200,000	-0,008	0,044
-516,116	278,717	0,050	-0,066
-515,102	800,000	-0,050	0,148
-514,087	-200,000	-0,035	-0,124
-513,072	-200,000	-0,025	-0,174
-512,058	-38,304	-0,116	-0,045
-511,043	-28,402	0,087	0,037
-510,029	208,515	0,060	0,070
-509,014	-152,063	-0,156	-0,008
-507,999	-200,000	0,010	0,042
-506,985	-200,000	0,006	-0,022
-505,970	89,920	0,034	-0,028
-504,956	270,694	-0,046	0,060
-503,941	290,115	-0,040	0,054
-502,926	350,233	0,059	-0,087
-501,912	800,000	-0,024	-0,066
-500,897	-200,000	0,017	-0,085
-499,883	488,756	0,068	0,115
-498,868	117,707	-0,083	-0,075
-497,853	800,000	-0,014	-0,031
-496,839	686,844	-0,060	-0,115
-495,824	75,440	0,073	-0,057
-494,810	-92,067	0,116	0,024
-493,795	54,568	-0,029	0,021
-492,781	-21,834	-0,129	-0,057
-491,766	90,439	-0,081	-0,067
-490,751	562,054	-0,009	-0,016
-489,737	93,418	-0,107	0,089
-488,722	220,689	-0,057	0,068
-487,708	254,900	0,076	0,097
-486,693	201,491	-0,037	-0,042
-485,678	36,683	-0,123	-0,080
-484,664	-200,000	-0,052	-0,178
-483,649	-146,049	0,044	-0,003
-482,635	104,792	0,057	-0,050
-481,620	270,917	-0,106	0,138
-480,605	-200,000	-0,021	0,134
-479,591	-200,000	0,031	0,123
-478,576	-200,000	-0,007	0,084
-477,562	-37,542	0,032	0,013
-476,547	-183,356	-0,199	-0,002
-475,532	800,000	0,018	-0,048
-474,518	800,000	0,020	-0,041
-473,503	-90,224	0,109	-0,023
-472,489	-200,000	-0,025	0,251
-471,474	800,000	0,024	0,074
-470,459	291,116	-0,062	-0,083
-469,445	311,767	-0,014	0,019
-468,430	-8,263	-0,128	-0,063
-467,416	-69,501	0,109	-0,031
-466,401	325,880	-0,122	0,173
-465,386	-184,018	0,117	0,001
-464,372	179,509	-0,019	-0,021
-463,357	48,064	0,038	0,026
-462,343	800,000	0,032	0,091
-461,328	249,639	-0,074	0,092
-460,313	-119,158	0,093	-0,012
-459,299	-200,000	-0,021	0,087
-458,284	-200,000	0,006	0,120
-457,270	237,257	-0,038	0,046
-456,255	-103,304	-0,184	-0,032
-455,241	236,364	-0,050	-0,061
-454,226	800,000	-0,043	0,138
-453,211	34,937	0,109	-0,070
-452,197	800,000	-0,035	0,071
-451,182	800,000	-0,023	-0,057
-450,168	-200,000	-0,026	0,099
-449,153	12,997	-0,066	0,037
-448,138	27,603	0,060	0,037
-447,124	800,000	0,014	-0,036
-446,109	235,673	0,071	0,087
-445,095	16,296	0,160	0,093
-444,080	-200,000	0,018	0,151
-443,065	-117,059	0,083	-0,011
-442,051	-200,000	0,002	-0,063
-441,036	800,000	-0,025	-0,053
-440,022	-200,000	-0,027	-0,170
-439,007	-91,399	-0,055	0,012
-437,992	-55,548	-0,100	0,033
-436,978	-17,347	0,113	-0,052
-435,963	-138,942	0,096	0,008
-434,949	800,000	-0,032	-0,081
-433,934	420,176	-0,052	-0,082
-432,919	-200,000	-0,046	-0,166
-431,905	-50,865	-0,128	-0,044
-430,890	50,906	0,024	-0,017
-429,876	-76,633	0,163	0,042
-428,861	-200,000	0,011	0,093
-427,846	249,631	0,101	0,127
-426,832	98,663	-0,062	-0,053
-425,817	47,658	-0,063	-0,043
-424,803	-19,016	0,141	0,064
-423,788	-200,000	0,003	-0,020
-422,773	800,000	0,033	0,069
-421,759	-200,000	-0,010	0,060
-420,744	288,553	0,139	0,185
-419,730	128,221	0,042	0,039
-418,715	-107,497	-0,139	-0,022
-417,701	-200,000	-0,012	0,050
-416,686	13,786	-0,118	0,067
-415,671	-126,358	0,168	0,018
-414,657	800,000	0,047	0,119
-413,642	800,000	-0,048	0,103
-412,628	-157,410	0,087	-0,004
-411,613	-161,469	0,037	0,001
-410,598	-181,363	-0,016	-0,000
-409,584	-25,276	-0,061	0,027
-408,569	6,378	-0,056	0,030
-407,555	69,872	0,077	0,058
-406,540	782,181	0,060	0,121
-405,525	-24,026	-0,033	-0,015
-404,511	-153,816	-0,050	-0,002
-403,496	295,792	-0,037	0,050
-402,482	2,289	0,044	-0,023
-401,467	-61,909	0,176	-0,054
-400,452	-95,464	0,020	0,004
-399,438	-200,000	-0,007	0,028
-398,423	-200,000	-0,025	0,123
-397,409	52,968	0,094	-0,066
-396,394	800,000	0,017	-0,040
-395,379	-105,240	0,085	-0,014
-394,365	800,000	-0,031	0,100
-393,350	413,588	0,076	0,119
-392,336	9,492	-0,146	0,081
-391,321	89,964	-0,047	-0,038
-390,306	16,206	-0,176	-0,102
-389,292	703,597	-0,050	0,098
-388,277	800,000	0,026	-0,058
-387,263	-88,671	-0,069	-0,015
-386,248	-83,957	0,164	-0,038
-385,233	800,000	0,041	-0,132
-384,219	-52,128	-0,161	0,054
-383,204	-200,000	-0,011	-0,088
-382,190	-48,647	-0,018	-0,006
-381,175	-49,702	0,115	-0,040
-380,160	-143,030	0,025	-0,002
-379,146	-43,007	0,058	-0,022
-378,131	-200,000	-0,007	-0,047
-377,117	-200,000	0,005	-0,160
-376,102	-68,675	-0,115	0,033
-375,088	-64,518	-0,113	0,033
-374,073	-124,972	0,076	0,009
-373,058	315,205	-0,046	0,063
-372,044	-200,000	-0,016	0,103
-371,029	51,044	-0,140	0,097
-370,015	105,002	0,111	0,096
-369,000	-180,019	0,022	-0,000
-367,985	-200,000	0,007	-0,075
-366,971	-200,000	-0,030	-0,125
-365,956	-200,000	-0,008	0,075
-364,942	576,475	0,111	0,199
-363,927	-200,000	0,009	0,028
-362,912	410,003	0,005	0,007
-361,898	-92,615	-0,099	-0,020
-360,883	-134,864	0,004	0,000
-359,869	-60,608	0,026	0,008
-358,854	9,938	0,146	0,081
-357,839	-37,356	-0,117	-0,045
-356,825	55,755	-0,058	0,041
-355,810	800,000	0,027	0,058
-354,796	-151,535	-0,058	0,003
-353,781	-44,436	0,090	-0,033
-352,766	67,228	-0,083	0,062
-351,752	-200,000	0,041	0,146
-350,737	195,287	0,044	0,049
-349,723	50,316	0,082	-0,057
-348,708	572,054	-0,023	-0,041
-347,693	-16,144	0,017	0,008
-346,679	-200,000	-0,018	-0,160
-345,664	-37,940	-0,088	-0,034
-344,650	800,000	0,026	-0,068
-343,635	-200,000	-0,003	0,086
-342,620	800,000	0,025	-0,071
-341,606	-200,000	-0,013	-0,054
-340,591	80,331	-0,042	-0,033
-339,577	800,000	-0,037	-0,117
-338,562	-173,317	-0,024	0,001
-337,548	571,758	0,017	0,031
-336,533	800,000	0,017	0,039
-335,518	-49,268	-0,093	-0,032
-334,504	588,444	0,098	0,178
-333,489	-200,000	-0,023	0,147
-332,475	800,000	-0,041	-0,104
-331,460	-0,378	-0,103	-0,053
-330,445	78,148	0,083	-0,064
-329,431	63,422	0,123	0,090
-328,416	-200,000	-0,015	0,079
-327,402	96,280	0,102	-0,086
-326,387	-200,000	0,000	-0,032
-325,372	-200,000	0,037	0,149
-324,358	452,099	-0,074	0,120
-323,343	229,044	0,066	-0,079
-322,329	-200,000	-0,009	-0,083
-321,314	-26,982	0,211	0,090
-320,299	78,366	-0,164	0,128
-319,285	352,186	-0,032	-0,046
-318,270	-147,400	-0,105	-0,006
-317,256	-200,000	-0,005	0,024
-316,241	-200,000	-0,007	-0,115
-315,226	-153,287	0,032	-0,002
-314,212	800,000	0,074	0,153
-313,197	226,541	0,084	0,100
-312,183	-125,719	0,189	-0,021
-311,168	633,430	-0,044	-0,082
-310,153	235,709	-0,019	-0,024
-309,139	800,000	0,019	0,049
-308,124	163,056	0,064	0,066
-307,110	-200,000	-0,004	-0,075
-306,095	124,787	0,060	0,056
-305,080	463,679	0,023	-0,037
-304,066	-179,851	-0,128	-0,002
-303,051	-200,000	0,020	0,087
-302,037	-200,000	-0,003	-0,029
-301,022	-200,000	0,036	0,123
-300,008	-200,000	-0,013	0,192
-298,993	146,586	0,034	-0,033
-297,978	130,359	-0,036	-0,034
-296,964	-200,000	0,036	-0,115
-295,949	-200,000	-0,024	-0,104
-294,935	119,597	-0,083	0,075
-293,920	-151,559	0,097	0,005
-292,905	248,775	0,052	-0,065
-291,891	-200,000	-0,007	0,029
-290,876	180,118	-0,076	0,081
-289,862	800,000	0,011	0,028
-288,847	-11,307	-0,063	-0,030
-287,832	175,190	0,085	-0,090
-286,818	726,673	0,054	-0,106
-285,803	800,000	-0,018	-0,044
-284,789	35,352	-0,050	-0,032
-283,774	14,321	-0,067	0,038
-282,759	194,546	-0,034	0,037
-281,745	-24,889	-0,056	-0,024
-280,730	192,366	-0,063	-0,069
-279,716	-97,154	0,113	-0,021
-278,701	800,000	-0,040	0,101
-277,686	-112,974	0,042	0,006
-276,672	12,739	-0,134	0,075
-275,657	271,235	-0,037	-0,048
-274,643	800,000	-0,005	-0,014
-273,628	-78,868	0,031	-0,008
-272,613	157,475	0,033	0,033
-271,599	738,773	0,048	-0,095
-270,584	-191,538	0,076	0,001
-269,570	261,953	-0,112	0,142
-268,555	292,264	-0,094	0,125
-267,540	-200,000	-0,010	-0,080
-266,526	-200,000	0,000	-0,015
-265,511	464,142	0,039	0,065
-264,497	220,957	0,065	-0,076
-263,482	314,821	0,081	0,112
-262,467	-200,000	0,017	0,096
-261,453	144,955	0,061	0,060
-260,438	82,507	-0,079	-0,062
-259,424	282,710	0,027	0,035
-258,409	397,969	0,047	0,072
-257,395	-200,000	0,033	-0,171
-256,380	11,504	0,073	-0,041
-255,365	636,070	0,016	0,029
-254,351	-87,062	-0,144	0,032
-253,336	-200,000	0,009	-0,051
-252,322	-106,182	-0,125	-0,020
-251,307	254,632	0,017	0,021
-250,292	-200,000	-0,035	-0,137
-249,278	800,000	0,014	-0,033
-248,263	-61,871	-0,037	0,011
-247,249	-83,439	-0,100	0,023
-246,234	-122,438	0,054	0,006
-245,219	72,580	-0,070	-0,053
-244,205	640,263	0,052	-0,097
-243,190	-27,941	0,064	-0,027
-242,176	21,854	-0,028	-0,017
-241,161	-96,826	0,091	0,017
-240,146	-200,000	0,003	0,051
-239,132	-57,407	0,142	0,045
-238,117	114,974	-0,109	-0,097
-237,103	-115,785	-0,214	-0,029
-236,088	-200,000	-0,008	0,034
-235,073	-181,218	0,070	-0,001
-234,059	-124,647	0,070	0,008
-233,044	354,003	-0,053	0,078
-232,030	246,957	-0,049	0,061
-231,015	800,000	0,061	-0,141
-230,000	-102,189	-0,211	-0,037
-228,986	-118,172	-0,256	-0,033
-227,971	-27,152	0,052	0,022
-226,957	-200,000	0,113	-0,000
-225,942	800,000	-0,009	-0,027
-224,927	613,514	-0,028	0,051
-223,913	793,549	-0,011	-0,023
-222,898	612,037	0,034	-0,063
-221,884	800,000	-0,047	-0,096
-220,869	-200,000	-0,008	0,057
-219,855	-109,217	0,038	0,006
-218,840	598,213	0,064	0,115
-217,825	800,000	0,047	0,119
-216,811	-5,587	0,079	-0,040
-215,796	800,000	0,011	-0,023
-214,782	652,751	-0,031	0,058
-213,767	592,451	-0,045	-0,082
-212,752	800,000	-0,011	-0,032
-211,738	295,665	-0,042	0,056
-210,723	126,393	-0,087	0,080
-209,709	50,021	0,103	0,071
-208,694	-157,425	-0,158	0,007
-207,679	-200,000	-0,004	0,026
-206,665	14,742	0,095	0,054
-205,650	800,000	0,038	-0,111
-204,636	6,830	0,127	0,068
-203,621	-130,773	0,188	-0,018
-202,606	241,792	0,033	-0,041
-201,592	-200,000	0,021	-0,120
-200,577	98,482	-0,058	0,049
-199,563	-46,873	0,077	-0,027
-198,548	42,082	0,050	0,033
-197,533	800,000	-0,019	0,047
-196,519	-200,000	0,037	-0,136
-195,504	22,434	0,098	-0,058
-194,490	76,597	-0,120	-0,093
-193,475	-29,482	-0,046	-0,019
-192,460	-115,587	-0,055	0,007
-191,446	261,277	0,063	-0,080
-190,431	-34,676	-0,087	-0,034
-189,417	-200,000	0,007	0,093
-188,402	-74,393	0,089	0,023
-187,387	221,531	-0,101	-0,119
-186,373	-200,000	0,023	-0,110
-185,358	-200,000	0,039	-0,156
-184,344	466,838	0,053	-0,087
-183,329	8,375	0,118	0,064
-182,315	772,405	0,034	0,069
-181,300	-200,000	-0,013	-0,066
-180,285	134,407	0,040	-0,038
-179,271	254,178	-0,057	-0,071
-178,256	800,000	-0,013	0,037
-177,242	19,843	0,011	-0,007
-176,227	337,063	0,061	0,087
-175,212	800,000	-0,071	0,197
-174,198	-45,995	-0,094	0,034
-173,183	-156,158	-0,077	-0,003
-172,169	108,001	-0,067	-0,058
-171,154	106,143	0,060	-0,051
-170,139	-200,000	0,042	0,179
-169,125	113,875	-0,102	0,090
-168,110	800,000	0,004	0,013
-167,096	49,305	0,157	-0,107
-166,081	800,000	-0,016	0,040
-165,066	703,222	-0,036	-0,069
-164,052	-178,914	0,107	0,002
-163,037	-109,880	0,069	0,010
-162,023	546,994	0,070	-0,122
-161,008	-19,129	0,067	0,030
-159,993	-82,514	0,042	-0,010
-158,979	-165,265	-0,093	0,003
-157,964	-200,000	0,004	0,019
-156,950	325,635	-0,025	0,034
-155,935	8,604	0,121	0,066
-154,920	59,495	0,080	-0,057
-153,906	-96,671	-0,054	0,010
-152,891	-62,225	0,036	0,011
-151,877	200,119	0,027	0,031
-150,862	9,628	-0,066	-0,036
-149,847	209,096	-0,043	0,049
-148,833	800,000	-0,041	0,118
-147,818	-18,146	-0,117	0,053
-146,804	418,263	0,033	0,051
-145,789	170,154	0,106	-0,111
-144,775	-88,587	-0,107	-0,023
-143,760	79,268	-0,109	0,085
-142,745	394,876	0,049	-0,074
-141,731	-200,000	-0,022	-0,114
-140,716	125,486	0,050	-0,046
-139,702	220,604	0,063	0,073
-138,687	104,292	0,086	0,073
-137,672	-200,000	-0,011	-0,129
-136,658	-150,430	-0,104	0,006
-135,643	-200,000	-0,018	-0,162
-134,629	423,143	0,042	-0,065
-133,614	-45,834	0,111	-0,040
-132,599	287,650	-0,088	0,116
-131,585	800,000	0,041	0,112
-130,570	194,763	-0,045	0,050
-129,556	324,041	-0,030	0,041
-128,541	-200,000	0,008	-0,025
-127,526	-200,000	-0,011	-0,037
-126,512	800,000	0,008	0,024
-125,497	24,244	0,080	0,048
-124,483	209,641	-0,015	0,017
-123,468	-120,927	0,054	-0,006
-122,453	-59,503	-0,138	-0,043
-121,439	-90,405	0,093	-0,019
-120,424	106,340	-0,066	-0,057
-119,410	162,988	0,140	0,143
-118,395	85,605	-0,122	0,098
-117,380	18,016	0,101	-0,058
-116,366	-168,225	0,098	0,003
-115,351	-200,000	-0,007	0,048
-114,337	258,437	-0,079	-0,098
-113,322	-157,053	0,069	0,003
-112,307	419,938	-0,025	-0,040
-111,293	-54,346	0,068	0,022
-110,278	173,893	0,100	0,105
-109,264	-200,000	0,008	0,040
-108,249	116,359	-0,015	-0,014
-107,234	113,285	0,052	0,046
-106,220	70,881	-0,061	-0,046
-105,205	114,836	0,073	0,065
-104,191	800,000	0,020	0,060
-103,176	159,758	-0,076	-0,077
-102,162	495,234	0,040	0,066
-101,147	-200,000	0,019	0,247
-100,132	-200,000	-0,025	-0,130
-99,118	41,546	0,053	0,035
-98,103	296,766	0,022	0,030
-97,089	456,859	0,034	-0,055
-96,074	800,000	0,046	-0,123
-95,059	450,108	-0,040	0,064
-94,045	-111,816	0,053	-0,008
-93,030	800,000	-0,044	-0,094
-92,016	489,418	-0,079	-0,132
-91,001	124,732	-0,042	-0,039
-89,986	731,430	-0,038	0,075
-88,972	-200,000	-0,005	0,078
-87,957	-200,000	-0,016	0,122
-86,943	-200,000	-0,019	-0,105
-85,928	-34,385	-0,108	-0,043
-84,913	-200,000	-0,008	-0,054
-83,899	-0,300	-0,095	0,049
-82,884	-112,475	0,010	0,001
-81,870	69,196	-0,057	-0,043
-80,855	-200,000	0,032	0,110
-79,840	74,199	-0,089	-0,068
-78,826	3,091	-0,104	-0,055
-77,811	137,868	-0,073	-0,069
-76,797	800,000	0,023	0,048
-75,782	54,137	0,032	0,022
-74,767	-52,003	-0,082	0,027
-73,753	800,000	-0,008	0,024
-72,738	-200,000	0,011	-0,045
-71,724	-87,190	-0,027	0,006
-70,709	-200,000	0,026	0,088
-69,694	-45,561	-0,068	-0,024
-68,680	-48,926	0,088	-0,030
-67,665	236,265	-0,065	0,078
-66,651	-4,433	0,048	-0,024
-65,636	-16,907	0,036	-0,016
-64,622	-200,000	0,050	0,000
-63,607	2,618	0,050	0,026
-62,592	-200,000	0,009	-0,094
-61,578	371,578	0,043	0,064
-60,563	800,000	0,056	0,155
-59,549	203,434	0,050	0,056
-58,534	-69,687	-1,468	-0,404
-57,519	800,000	-0,709	-1,450
-56,505	-200,000	-1,003	-4,423
-55,490	-101,954	0,688	-0,119
-54,476	800,000	4,932	11,654
-53,461	-200,000	14,425	256,164
-52,446	800,000	697,727	2230,594
-51,432	563,760	1624,948	2861,768
-50,417	116,805	1630,840	1449,709
-49,403	73,465	1284,666	973,034
-48,388	37,440	1022,612	655,365
-47,373	23,454	981,501	583,087
-46,359	22,646	970,815	574,070
-45,344	21,616	966,496	568,133
-44,330	21,527	965,092	566,997
-43,315	21,424	963,607	565,766
-42,300	21,430	962,527	565,126
-41,286	21,499	961,465	564,705
-40,271	21,417	960,582	563,899
-39,257	21,445	959,512	563,341
-38,242	21,386	958,624	562,605
-37,227	21,391	957,864	562,153
-36,213	21,358	956,705	561,344
-35,198	21,365	955,971	560,912
-34,184	21,419	955,302	560,672
-33,169	21,387	954,461	560,052
-32,154	21,455	953,557	559,721
-31,140	21,532	952,464	559,304
-30,125	21,413	951,994	558,621
-29,111	21,469	951,167	558,295
-28,096	21,410	950,514	557,700
-27,082	21,417	949,892	557,336
-26,067	21,490	948,681	556,838
-25,052	21,394	948,272	556,268
-24,038	21,436	947,586	555,976
-23,023	21,359	947,138	555,446
-22,009	21,496	946,292	555,365
-20,994	21,483	945,791	555,008
-19,979	21,421	945,199	554,440
-18,965	21,455	944,538	554,139
-17,950	21,395	943,844	553,518
-16,936	21,378	943,204	553,068
-15,921	21,322	942,487	552,446
-14,906	21,296	941,754	551,913
-13,892	21,300	941,034	551,483
-12,877	21,285	940,421	551,054
-11,863	21,249	939,958	550,645
-10,848	21,273	939,355	550,345
-9,833	21,396	939,059	550,541
-8,819	21,434	938,236	550,157
-7,804	21,294	937,759	549,413
-6,790	21,304	936,920	548,931
-5,775	21,324	936,550	548,757
-4,760	21,279	935,924	548,225
-3,746	21,288	935,203	547,810
-2,731	21,123	934,604	546,915
-1,717	21,145	933,770	546,477
-0,702	21,116	933,218	546,039
0,313	20,914	932,549	545,838
1,327	23,960	930,598	554,209
2,342	33,292	793,674	497,434
3,356	30,944	450,343	278,699
4,371	0,688	294,590	152,055
5,386	-3,634	275,644	138,164
6,400	-4,876	269,863	134,100
7,415	-5,325	267,575	132,537
8,429	-5,133	266,247	132,044
9,444	-4,993	265,409	131,744
10,459	-5,006	264,872	131,455
11,473	-5,293	264,277	130,886
12,488	-5,296	263,662	130,567
13,502	-5,460	263,259	130,206
14,517	-5,459	262,834	129,987
15,531	-5,081	262,256	130,030
16,546	-5,065	261,931	129,871
17,561	-5,408	261,825	129,498
18,575	-5,283	261,326	129,352
19,590	-5,374	261,031	129,113
20,604	-5,365	260,703	128,947
21,619	-5,527	260,385	128,634
22,634	-5,368	260,069	128,609
23,648	-5,288	259,631	128,452
24,663	-5,313	259,533	128,370
25,677	-5,284	259,452	128,344
26,692	-5,445	258,930	127,931
27,707	-5,443	258,838	127,875
28,721	-5,432	258,515	127,714
29,736	-5,599	258,274	127,436
30,750	-5,543	257,978	127,328
31,765	-5,593	257,622	127,096
32,780	-5,316	257,432	127,236
33,794	-5,532	257,292	126,965
34,809	-5,590	256,867	126,693
35,823	-5,465	256,842	126,780
36,838	-5,538	256,484	126,527
37,853	-5,486	256,283	126,462
38,867	-5,254	256,016	126,523
39,882	-5,572	255,918	126,184
40,896	-5,411	255,578	126,146
41,911	-5,328	255,384	126,112
42,926	-5,380	255,122	125,926
43,940	-5,551	254,926	125,669
44,955	-5,735	254,730	125,400
45,969	-5,538	254,392	125,394
46,984	-5,743	254,153	125,086
47,999	-5,790	253,811	124,866
49,013	-6,091	253,763	124,568
50,028	-6,069	253,275	124,337
51,042	-6,128	253,158	124,217
52,057	-6,105	252,925	124,112
53,071	-6,227	252,719	123,894
54,086	-6,121	252,656	123,944
55,101	-5,991	252,560	123,998
56,115	-5,785	252,227	124,003
57,130	-5,551	252,377	124,268
58,144	-5,165	252,078	124,443
59,159	-5,122	251,722	124,294
60,174	-5,469	251,643	123,944
61,188	-5,342	251,308	123,878
62,203	-5,308	251,053	123,770
63,217	-5,321	250,958	123,701
64,232	-5,455	250,820	123,507
65,247	-5,265	250,504	123,504
66,261	-5,268	250,130	123,305
67,276	-5,602	250,050	122,968
68,290	-5,643	249,747	122,773
69,305	-5,778	249,512	122,531
70,320	-5,837	249,315	122,373
71,334	-5,619	249,296	122,540
72,349	-5,340	249,136	122,688
73,363	-5,194	248,973	122,721
74,378	-5,153	248,585	122,554
75,393	-5,327	248,480	122,344
76,407	-5,215	248,274	122,327
77,422	-5,425	248,200	122,101
78,436	-5,337	247,939	122,036
79,451	-5,267	247,658	121,946
80,466	-5,525	247,552	121,664
81,480	-5,632	247,235	121,407
82,495	-5,643	247,110	121,325
83,509	-5,585	246,842	121,232
84,524	-5,628	246,688	121,109
85,539	-5,710	246,511	120,942
86,553	-5,593	246,357	120,955
87,568	-5,654	246,027	120,730
88,582	-5,881	245,991	120,511
89,597	-5,585	245,614	120,565
90,611	-5,613	245,648	120,547
91,626	-5,457	245,372	120,531
92,641	-5,377	245,334	120,570
93,655	-5,584	245,199	120,319
94,670	-5,391	244,822	120,284
95,684	-5,490	244,733	120,147
96,699	-5,465	244,519	120,053
97,714	-5,555	244,223	119,821
98,728	-5,767	244,071	119,559
99,743	-5,667	243,785	119,491
100,757	-5,675	243,561	119,364
101,772	-5,678	243,487	119,315
102,787	-5,558	243,238	119,281
103,801	-5,571	243,160	119,222
104,816	-5,416	242,890	119,208
105,830	-5,214	242,871	119,356
106,845	-5,214	242,583	119,204
107,860	-5,448	242,516	118,966
108,874	-5,377	242,310	118,914
109,889	-5,471	241,989	118,667
110,903	-5,433	241,848	118,619
111,918	-5,516	241,695	118,465
112,933	-5,498	241,565	118,406
113,947	-5,527	241,388	118,284
114,962	-5,505	241,296	118,247
115,976	-5,406	241,066	118,205
116,991	-5,435	240,799	118,040
118,006	-5,648	240,776	117,843
119,020	-5,321	240,573	118,002
120,035	-5,242	240,458	118,000
121,049	-5,321	240,304	117,849
122,064	-5,535	240,162	117,593
123,079	-5,379	239,942	117,603
124,093	-5,454	239,578	117,352
125,108	-5,718	239,547	117,111
126,122	-5,799	239,086	116,809
127,137	-5,904	239,046	116,693
128,151	-5,688	238,860	116,768
129,166	-5,684	238,840	116,751
130,181	-5,694	238,460	116,546
131,195	-5,679	238,325	116,483
132,210	-5,584	238,207	116,491
133,224	-5,483	237,983	116,454
134,239	-5,515	237,898	116,376
135,254	-5,317	237,800	116,478
136,268	-5,553	237,527	116,143
137,283	-5,638	237,111	115,861
138,297	-5,876	237,072	115,639
139,312	-5,891	236,965	115,565
140,327	-5,714	236,884	115,657
141,341	-5,194	236,792	116,022
142,356	-5,047	236,538	116,005
143,370	-4,993	236,529	116,034
144,385	-5,231	236,396	115,766
145,400	-5,187	236,166	115,679
146,414	-5,171	235,921	115,562
147,429	-5,153	235,603	115,410
148,443	-5,340	235,593	115,245
149,458	-5,249	235,357	115,192
150,473	-5,093	235,293	115,276
151,487	-5,253	235,143	115,063
152,502	-5,204	234,985	115,015
153,516	-5,262	234,679	114,809
154,531	-5,163	234,680	114,878
155,546	-5,169	234,427	114,739
156,560	-5,204	234,231	114,605
157,575	-5,351	233,902	114,317
158,589	-5,436	233,975	114,275
159,604	-5,010	233,803	114,520
160,619	-5,177	233,635	114,294
161,633	-5,121	233,388	114,208
162,648	-5,074	233,279	114,181
163,662	-5,255	233,191	113,985
164,677	-5,265	233,071	113,908
165,692	-5,222	232,775	113,787
166,706	-5,145	232,786	113,843
167,721	-5,001	232,452	113,783
168,735	-5,081	232,513	113,740
169,750	-5,034	232,260	113,643
170,764	-5,098	232,049	113,479
171,779	-5,114	231,967	113,416
172,794	-4,946	231,779	113,447
173,808	-5,217	231,573	113,123
174,823	-5,436	231,197	112,757
175,837	-5,671	231,110	112,520
176,852	-5,400	231,095	112,715
177,867	-5,200	230,821	112,728
178,881	-4,985	230,793	112,873
179,896	-5,270	230,694	112,591
180,910	-4,987	230,476	112,696
181,925	-5,080	230,381	112,567
182,940	-4,947	230,177	112,562
183,954	-4,993	230,153	112,504
184,969	-4,991	229,955	112,398
185,983	-5,016	230,030	112,406
186,998	-4,719	229,487	112,361
188,013	-5,075	229,597	112,128
189,027	-4,858	229,299	112,141
190,042	-4,832	229,030	112,020
191,056	-5,018	228,985	111,844
192,071	-5,117	229,015	111,771
193,086	-4,964	228,683	111,718
194,100	-5,099	228,445	111,487
195,115	-5,298	228,322	111,263
196,129	-5,427	227,871	110,934
197,144	-2,615	229,004	113,657
198,159	1,807	230,211	117,687
199,173	3,652	230,781	119,404
200,188	3,987	230,480	119,498
201,202	4,026	230,346	119,448
202,217	4,140	230,216	119,458
203,232	4,240	230,223	119,529
204,246	4,350	230,114	119,547
205,261	4,362	229,997	119,484
206,275	4,553	229,817	119,528
207,290	4,753	229,678	119,600
208,304	4,727	229,565	119,510
209,319	4,382	229,231	119,060
210,334	4,394	229,128	119,004
211,348	4,111	228,750	118,580
212,363	3,693	228,758	118,252
213,377	3,632	228,467	118,044
214,392	3,631	228,246	117,918
215,407	3,931	228,016	118,019
216,421	3,771	228,010	117,883
217,436	3,650	227,942	117,745
218,450	3,359	227,536	117,301
219,465	3,525	227,437	117,366
220,480	3,593	227,444	117,412
221,494	3,689	227,211	117,355
222,509	3,726	227,125	117,328
223,523	3,728	226,893	117,199
224,538	3,700	226,819	117,129
225,553	3,652	226,717	117,029
226,567	3,778	226,436	116,970
227,582	4,128	226,335	117,174
228,596	4,103	226,305	117,128
229,611	3,735	226,120	116,743
230,626	3,566	225,935	116,508
231,640	3,486	225,683	116,307
232,655	3,897	225,743	116,640
233,669	4,295	225,698	116,908
234,684	4,527	225,608	117,026
235,699	4,238	225,184	116,578
236,713	3,838	225,099	116,221
237,728	3,655	224,851	115,944
238,742	3,650	224,639	115,821
239,757	3,681	224,481	115,752
240,772	3,628	224,302	115,610
241,786	3,726	224,277	115,661
242,801	3,831	224,144	115,661
243,815	4,259	224,102	115,951
244,830	4,122	223,922	115,744
245,844	3,624	223,822	115,308
246,859	3,806	223,732	115,388
247,874	3,923	223,548	115,370
248,888	4,111	223,329	115,388
249,903	3,881	223,208	115,143
250,917	3,631	222,997	114,837
251,932	3,955	222,780	114,957
252,947	3,491	222,703	114,560
253,961	3,387	222,573	114,406
254,976	3,697	222,248	114,459
255,990	3,913	222,290	114,632
257,005	3,854	222,119	114,490
258,020	4,006	222,028	114,546
259,034	4,238	222,051	114,720
260,049	3,954	221,808	114,373
261,063	3,988	221,647	114,305
262,078	4,038	221,448	114,229
263,093	4,179	221,379	114,289
264,107	3,895	221,192	113,971
265,122	4,168	221,096	114,114
266,136	4,132	221,078	114,068
267,151	4,192	220,851	113,984
268,166	3,876	220,510	113,565
269,180	3,768	220,216	113,324
270,195	3,675	220,217	113,246
271,209	3,588	220,046	113,084
272,224	3,462	220,079	112,998
273,239	3,782	219,975	113,170
274,253	3,677	219,513	112,845
275,268	3,499	219,500	112,697
276,282	3,392	219,380	112,546
277,297	3,517	219,274	112,574
278,312	3,441	219,196	112,468
279,326	3,768	219,063	112,630
280,341	3,772	218,824	112,500
281,355	3,733	218,757	112,427
282,370	3,712	218,608	112,325
283,384	3,322	218,394	111,920
284,399	3,220	218,130	111,700
285,414	3,441	218,022	111,796
286,428	3,839	217,982	112,056
287,443	3,824	217,951	112,019
288,457	3,929	217,719	111,966
289,472	3,724	217,701	111,798
290,487	3,347	217,264	111,290
291,501	3,471	217,132	111,302
292,516	3,355	217,163	111,223
293,530	3,412	216,942	111,142
294,545	3,538	216,870	111,187
295,560	3,488	216,776	111,092
296,574	3,662	216,661	111,149
297,589	3,757	216,354	111,051
298,603	3,668	216,298	110,947
299,618	3,728	216,175	110,918
300,633	3,762	216,188	110,939
301,647	4,022	216,023	111,033
302,662	3,969	215,886	110,914
303,676	4,032	215,719	110,864
304,691	3,969	215,613	110,754
305,706	3,920	215,625	110,715
306,720	3,981	215,297	110,581
307,735	3,479	215,230	110,175
308,749	3,552	214,998	110,099
309,764	3,674	214,934	110,144
310,779	3,924	214,845	110,268
311,793	3,873	214,572	110,082
312,808	3,771	214,332	109,876
313,822	3,661	214,333	109,788
314,837	3,517	214,170	109,591
315,852	3,473	214,004	109,465
316,866	3,771	213,827	109,578
317,881	3,957	213,708	109,640
318,895	3,941	213,644	109,585
319,910	3,804	213,463	109,385
320,925	3,358	213,405	109,028
321,939	3,207	213,081	108,746
322,954	3,173	212,976	108,658
323,968	3,782	213,135	109,163
324,983	3,721	212,897	108,987
325,997	4,202	212,741	109,239
327,012	3,840	212,471	108,834
328,027	3,928	212,533	108,919
329,041	4,263	212,445	109,101
330,056	4,241	212,294	108,998
331,070	3,703	212,062	108,489
332,085	3,294	211,784	108,049
333,100	3,523	211,744	108,180
334,114	3,816	211,558	108,282
335,129	3,723	211,388	108,120
336,143	3,409	211,320	107,854
337,158	3,603	211,152	107,896
338,173	3,577	210,963	107,771
339,187	3,464	210,745	107,571
340,202	3,483	210,638	107,520
341,216	3,328	210,481	107,322
342,231	3,525	210,555	107,488
343,246	3,743	210,178	107,439
344,260	3,949	210,016	107,490
345,275	3,774	210,033	107,367
346,289	3,766	209,946	107,307
347,304	3,745	209,887	107,252
348,319	3,658	209,744	107,109
349,333	3,572	209,644	106,989
350,348	3,854	209,342	107,022
351,362	3,699	209,408	106,938
352,377	3,626	209,260	106,802
353,392	3,547	209,091	106,651
354,406	3,829	208,982	106,782
355,421	195,026	1342,679	1432,103
356,435	155,686	1480,890	1432,206
