DTS Sentinel unit serial number:	SN410029Multiplexer serial number:	ORYXHardware model number:	OX2-SRSoftware version number:	ORYX F/W v4,00 Oryx Data Collector v3.7.2.0data status	okinstallation	B6 Nyhavnadifferential loss correction	single-endedforward channel	channel 2reverse channel	N/Adate	2023/12/10time	14:25:08forward acquisition time	300,00reverse acquisition time	0,00gamma	499,1914k internal	0,3122k external	0,3122temperature offset calibration	1,0000default loss term (dB/km)	0,3820temperature slope calibration	1,0000multiplexer offset coefficient	1,0000multiplexer slope coefficient	1,0000fibre end	0,00T internal ref (°C)	22,62T ext. ref 1 (°C)	6,11T ext. ref 2 (°C)	6,12length (m)	temperature (°C)	Stokes	anti-Stokes-744,400	-200,000	-0,023	-0,197
-743,385	-42,198	-0,329	0,125
-742,371	-162,509	0,096	-0,003
-741,356	797,791	-0,055	0,115
-740,342	15,227	0,064	0,037
-739,327	135,326	-0,103	0,100
-738,312	-37,578	-0,071	-0,028
-737,298	-133,786	-0,364	0,033
-736,283	145,385	-0,063	0,063
-735,269	-11,412	-0,154	0,075
-734,254	-72,787	-0,077	-0,021
-733,239	-134,177	-0,366	-0,033
-732,225	-119,512	0,227	-0,029
-731,210	800,000	-0,065	0,162
-730,196	778,953	-0,015	0,030
-729,181	-46,612	0,067	-0,024
-728,167	-200,000	0,008	0,085
-727,152	-200,000	-0,007	-0,074
-726,137	387,306	-0,049	-0,076
-725,123	36,848	-0,078	-0,051
-724,108	800,000	-0,025	-0,081
-723,094	5,173	-0,092	0,051
-722,079	40,305	-0,077	0,052
-721,064	64,065	-0,022	-0,016
-720,050	775,853	-0,038	0,078
-719,035	-200,000	0,016	0,080
-718,021	36,682	-0,158	0,103
-717,006	-145,544	-0,192	0,013
-715,991	351,454	0,045	-0,067
-714,977	3,690	-0,009	-0,005
-713,962	20,951	-0,031	-0,019
-712,948	-69,553	0,108	0,031
-711,933	167,883	0,017	0,018
-710,918	-44,400	0,033	0,012
-709,904	-86,276	-0,075	0,017
-708,889	551,246	-0,082	-0,147
-707,875	15,005	-0,057	-0,033
-706,860	59,624	-0,062	-0,046
-705,845	-200,000	0,026	-0,100
-704,831	69,429	0,118	0,090
-703,816	799,381	0,026	0,053
-702,802	99,098	-0,072	0,062
-701,787	85,205	0,030	0,024
-700,772	-28,042	-0,109	-0,047
-699,758	-124,585	-0,143	-0,016
-698,743	-200,000	0,013	0,088
-697,729	58,899	-0,084	-0,061
-696,714	11,902	0,024	-0,014
-695,699	-200,000	-0,005	-0,057
-694,685	541,958	0,068	0,121
-693,670	-200,000	0,014	-0,101
-692,656	800,000	-0,042	-0,126
-691,641	538,762	0,061	0,109
-690,627	391,440	-0,039	0,060
-689,612	58,870	0,063	-0,046
-688,597	-43,175	-0,120	0,045
-687,583	481,777	-0,059	-0,100
-686,568	800,000	-0,044	-0,142
-685,554	57,265	-0,029	-0,021
-684,539	-121,821	-0,099	0,012
-683,524	-200,000	0,022	0,159
-682,510	-200,000	-0,004	0,095
-681,495	290,021	-0,035	-0,047
-680,481	25,050	0,037	0,023
-679,466	-103,719	0,046	0,008
-678,451	-47,823	-0,184	0,066
-677,437	-13,028	0,119	-0,058
-676,422	200,792	0,077	-0,088
-675,408	137,378	-0,024	0,023
-674,393	-151,883	-0,120	-0,006
-673,378	800,000	-0,073	-0,197
-672,364	705,285	-0,047	-0,094
-671,349	-137,611	-0,086	-0,007
-670,335	-26,757	-0,135	-0,058
-669,320	-1,106	0,081	-0,042
-668,305	69,402	0,041	-0,031
-667,291	-55,912	0,102	-0,033
-666,276	800,000	-0,051	0,119
-665,262	-200,000	0,003	-0,020
-664,247	-134,033	0,067	0,006
-663,232	232,068	0,042	0,052
-662,218	800,000	-0,007	0,015
-661,203	50,905	-0,127	0,090
-660,189	0,380	-0,104	-0,055
-659,174	-166,319	0,046	-0,001
-658,159	187,462	-0,051	-0,056
-657,145	-69,380	-0,140	-0,040
-656,130	-200,000	-0,017	-0,086
-655,116	678,203	-0,053	0,102
-654,101	92,237	-0,033	0,028
-653,086	-114,911	0,087	-0,012
-652,072	327,179	-0,023	0,034
-651,057	-200,000	-0,005	-0,019
-650,043	40,133	-0,029	-0,019
-649,028	102,325	-0,084	0,073
-648,014	800,000	-0,045	0,131
-646,999	-75,167	0,022	0,006
-645,984	-146,752	0,028	-0,002
-644,970	-5,419	0,078	-0,040
-643,955	769,506	-0,026	0,053
-642,941	51,611	-0,068	-0,048
-641,926	38,544	0,051	0,034
-640,911	85,225	0,068	-0,056
-639,897	56,389	-0,074	-0,054
-638,882	284,348	-0,021	-0,029
-637,868	-200,000	0,017	0,100
-636,853	275,416	-0,029	0,039
-635,838	354,750	0,019	-0,028
-634,824	-17,110	-0,043	0,020
-633,809	-5,002	0,103	-0,053
-632,795	55,912	0,100	-0,072
-631,780	-70,461	0,063	0,018
-630,765	-200,000	0,019	-0,068
-629,751	-200,000	0,042	-0,193
-628,736	-67,967	-0,149	-0,043
-627,722	298,954	-0,045	-0,061
-626,707	-200,000	0,007	-0,128
-625,692	-97,383	-0,094	0,018
-624,678	791,949	0,047	0,097
-623,663	610,375	0,046	-0,086
-622,649	129,901	-0,053	0,051
-621,634	800,000	-0,060	-0,140
-620,619	-200,000	0,011	-0,085
-619,605	-200,000	-0,019	-0,078
-618,590	-200,000	0,002	0,090
-617,576	151,197	0,064	0,065
-616,561	-74,129	-0,106	0,028
-615,546	-44,018	-0,017	0,006
-614,532	-91,279	0,099	0,021
-613,517	800,000	-0,028	0,058
-612,503	295,602	-0,004	0,005
-611,488	296,193	-0,089	0,121
-610,474	-200,000	0,018	-0,102
-609,459	25,069	-0,069	0,042
-608,444	518,541	-0,042	-0,074
-607,430	223,301	-0,039	-0,046
-606,415	-54,174	-0,083	0,028
-605,401	110,591	0,061	0,054
-604,386	-200,000	0,011	0,069
-603,371	-51,365	-0,083	0,029
-602,357	81,356	0,057	0,045
-601,342	63,435	-0,096	0,071
-600,328	-154,858	0,056	0,003
-599,313	-64,478	-0,081	-0,024
-598,298	60,850	0,101	-0,074
-597,284	-161,704	-0,152	-0,006
-596,269	105,537	-0,053	-0,046
-595,255	56,793	-0,070	0,050
-594,240	-74,399	0,110	0,029
-593,225	-127,015	-0,098	0,011
-592,211	667,512	0,057	0,110
-591,196	-58,207	-0,105	0,034
-590,182	-140,857	0,042	0,003
-589,167	-33,686	-0,023	0,009
-588,152	114,845	-0,058	-0,052
-587,138	-200,000	0,006	-0,058
-586,123	210,554	-0,090	-0,105
-585,109	-200,000	-0,013	-0,160
-584,094	-200,000	0,002	-0,123
-583,079	-200,000	0,004	0,021
-582,065	-73,616	-0,122	-0,033
-581,050	265,274	-0,057	0,073
-580,036	11,860	-0,063	0,036
-579,021	218,246	0,066	0,078
-578,006	-200,000	0,030	0,103
-576,992	-200,000	0,004	-0,016
-575,977	-200,000	-0,019	-0,140
-574,963	-177,790	0,041	0,001
-573,948	422,591	-0,027	-0,043
-572,934	14,021	-0,046	0,026
-571,919	-125,268	-0,087	-0,010
-570,904	800,000	-0,037	-0,077
-569,890	199,506	-0,037	0,042
-568,875	-188,966	0,004	0,000
-567,861	-200,000	0,022	0,121
-566,846	-113,710	0,052	-0,007
-565,831	27,374	0,079	0,049
-564,817	75,093	0,060	-0,047
-563,802	590,675	-0,030	0,054
-562,788	-200,000	-0,001	0,015
-561,773	-171,637	0,050	-0,001
-560,758	600,943	-0,028	0,051
-559,744	150,290	0,074	-0,075
-558,729	43,311	-0,125	-0,085
-557,715	-82,557	-0,144	-0,034
-556,700	800,000	0,041	-0,106
-555,685	28,975	0,051	0,032
-554,671	-18,497	-0,090	0,041
-553,656	800,000	-0,007	0,016
-552,642	-68,765	-0,121	0,034
-551,627	142,295	0,003	0,002
-550,612	-98,332	-0,144	0,027
-549,598	-27,707	-0,062	-0,027
-548,583	-200,000	0,006	0,040
-547,569	326,004	-0,025	0,036
-546,554	458,243	0,033	0,055
-545,539	285,431	0,023	-0,031
-544,525	-3,554	0,037	0,019
-543,510	201,526	-0,051	0,059
-542,496	320,100	-0,063	0,089
-541,481	248,859	-0,096	-0,120
-540,466	-78,239	0,100	0,025
-539,452	395,486	0,044	0,068
-538,437	-111,649	-0,088	-0,013
-537,423	457,763	0,076	0,125
-536,408	800,000	-0,002	-0,005
-535,393	800,000	-0,033	0,095
-534,379	333,686	-0,061	-0,087
-533,364	-200,000	-0,009	-0,046
-532,350	-200,000	-0,041	0,150
-531,335	395,200	0,030	-0,047
-530,321	-25,046	0,087	0,038
-529,306	-200,000	-0,011	-0,092
-528,291	-200,000	0,011	-0,048
-527,277	-57,995	0,052	-0,017
-526,262	-200,000	-0,026	-0,102
-525,248	39,353	0,063	-0,041
-524,233	48,866	-0,018	-0,012
-523,218	314,469	-0,161	0,225
-522,204	-66,621	0,051	0,015
-521,189	171,356	0,096	-0,102
-520,175	6,955	0,052	-0,028
-519,160	414,020	0,065	0,102
-518,145	-200,000	-0,008	0,068
-517,131	40,500	0,144	0,095
-516,116	800,000	-0,061	0,154
-515,102	-10,167	0,090	0,044
-514,087	-200,000	-0,010	-0,122
-513,072	-200,000	0,012	-0,050
-512,058	-200,000	-0,031	0,190
-511,043	-200,000	0,019	0,148
-510,029	-200,000	0,001	0,059
-509,014	-200,000	0,005	0,073
-507,999	-200,000	0,020	0,109
-506,985	718,152	0,025	-0,048
-505,970	-142,022	-0,187	-0,014
-504,956	182,135	-0,042	0,046
-503,941	146,202	0,015	-0,015
-502,926	243,925	0,024	-0,030
-501,912	-115,963	0,025	0,003
-500,897	-200,000	0,007	0,117
-499,883	627,235	-0,032	0,060
-498,868	-200,000	0,009	0,034
-497,853	-112,233	-0,074	-0,011
-496,839	-200,000	0,027	-0,092
-495,824	690,530	0,078	-0,152
-494,810	-200,000	-0,010	-0,109
-493,795	-44,772	0,077	-0,028
-492,781	800,000	-0,015	0,035
-491,766	-200,000	-0,007	0,028
-490,751	-136,760	0,032	-0,003
-489,737	800,000	-0,069	-0,172
-488,722	-167,672	0,150	0,004
-487,708	-159,315	-0,083	-0,003
-486,693	-93,233	0,112	0,023
-485,678	-138,468	0,114	0,009
-484,664	-1,985	-0,092	0,047
-483,649	-200,000	-0,022	0,121
-482,635	-27,996	0,025	-0,010
-481,620	36,322	-0,163	-0,106
-480,605	-153,274	0,047	0,002
-479,591	114,142	-0,057	0,051
-478,576	-200,000	-0,040	0,162
-477,562	281,683	-0,026	0,035
-476,547	89,463	-0,046	-0,038
-475,532	390,733	0,056	-0,086
-474,518	-78,210	0,151	0,038
-473,503	-200,000	0,019	0,095
-472,489	300,178	-0,015	0,021
-471,474	-200,000	-0,004	-0,032
-470,459	558,913	-0,026	-0,047
-469,445	-57,592	0,062	0,020
-468,430	358,140	-0,014	-0,021
-467,416	22,609	0,087	-0,053
-466,401	800,000	-0,041	0,090
-465,386	800,000	0,037	0,087
-464,372	-200,000	0,020	0,078
-463,357	-200,000	-0,002	-0,013
-462,343	645,957	-0,056	0,107
-461,328	800,000	-0,053	0,115
-460,313	-200,000	0,009	-0,043
-459,299	4,393	0,118	-0,064
-458,284	1,875	-0,070	0,037
-457,270	526,033	0,023	0,041
-456,255	785,463	-0,020	-0,040
-455,241	-200,000	0,011	-0,051
-454,226	-200,000	-0,010	-0,034
-453,211	-46,714	-0,086	-0,031
-452,197	327,895	-0,025	-0,036
-451,182	101,696	-0,044	-0,038
-450,168	114,252	-0,032	-0,029
-449,153	124,347	-0,070	-0,065
-448,138	357,902	0,059	-0,087
-447,124	197,768	-0,056	-0,063
-446,109	-200,000	0,005	0,070
-445,095	153,783	-0,059	-0,059
-444,080	-200,000	-0,004	0,072
-443,065	497,449	0,073	0,124
-442,051	662,251	0,084	-0,160
-441,036	-200,000	0,002	-0,024
-440,022	800,000	0,068	-0,148
-439,007	-200,000	-0,016	-0,069
-437,992	1,806	-0,061	-0,033
-436,978	72,771	0,054	-0,042
-435,963	23,620	0,119	0,072
-434,949	15,140	-0,066	0,038
-433,934	-44,361	-0,056	0,020
-432,919	41,817	0,088	0,059
-431,905	-200,000	-0,003	-0,034
-430,890	-88,545	0,169	-0,037
-429,876	-39,958	0,148	-0,057
-428,861	121,645	0,056	-0,051
-427,846	31,523	-0,043	0,027
-426,832	800,000	0,037	-0,112
-425,817	800,000	0,004	0,009
-424,803	-200,000	0,014	0,089
-423,788	134,988	0,066	-0,063
-422,773	79,779	0,095	0,075
-421,759	800,000	0,079	0,223
-420,744	-200,000	0,008	-0,027
-419,730	-200,000	-0,019	0,084
-418,715	-200,000	0,039	-0,162
-417,701	23,628	-0,086	0,052
-416,686	800,000	-0,016	-0,034
-415,671	-200,000	0,015	-0,062
-414,657	221,207	0,102	-0,121
-413,642	700,530	-0,091	-0,178
-412,628	-45,831	-0,044	-0,016
-411,613	-77,032	-0,103	0,026
-410,598	316,051	-0,042	-0,058
-409,584	-200,000	0,004	-0,013
-408,569	-97,287	0,074	-0,014
-407,555	-200,000	-0,012	0,126
-406,540	20,269	-0,091	0,054
-405,525	420,208	-0,043	0,069
-404,511	24,876	-0,081	-0,049
-403,496	-200,000	0,015	-0,076
-402,482	-83,270	0,012	0,003
-401,467	-29,365	0,062	0,026
-400,452	-84,181	0,065	0,015
-399,438	375,048	0,089	-0,134
-398,423	-200,000	0,001	0,007
-397,409	-200,000	0,037	-0,169
-396,394	-200,000	-0,035	-0,171
-395,379	13,913	0,048	-0,027
-394,365	-200,000	-0,007	0,087
-393,350	47,204	0,047	0,032
-392,336	800,000	0,013	0,038
-391,321	-106,568	-0,101	-0,016
-390,306	412,259	-0,087	-0,136
-389,292	-33,281	0,020	0,008
-388,277	39,315	-0,102	-0,067
-387,263	800,000	0,101	-0,237
-386,248	-200,000	0,001	-0,057
-385,233	-82,648	-0,191	-0,045
-384,219	800,000	0,002	0,005
-383,204	366,450	0,035	0,052
-382,190	-146,855	0,134	-0,008
-381,175	800,000	0,016	-0,038
-380,160	-93,878	0,087	0,017
-379,146	-200,000	0,020	0,114
-378,131	-173,466	0,126	-0,003
-377,117	-80,390	-0,113	0,028
-376,102	159,363	0,106	-0,108
-375,088	-200,000	-0,006	0,029
-374,073	-200,000	-0,022	-0,092
-373,058	-97,822	-0,061	-0,011
-372,044	-85,044	0,088	-0,020
-371,029	66,767	-0,183	-0,137
-370,015	800,000	0,012	0,026
-369,000	-50,090	-0,113	0,039
-367,985	465,550	-0,037	-0,061
-366,971	-20,721	-0,100	-0,045
-365,956	-200,000	-0,016	0,089
-364,942	-123,999	0,038	-0,004
-363,927	800,000	-0,006	0,019
-362,912	800,000	-0,072	0,147
-361,898	5,774	0,084	-0,046
-360,883	-200,000	0,040	-0,259
-359,869	-51,570	-0,041	-0,014
-358,854	471,624	-0,049	-0,081
-357,839	1,203	0,042	-0,022
-356,825	112,081	0,071	0,063
-355,810	-65,135	-0,198	0,058
-354,796	-52,114	-0,088	-0,030
-353,781	-46,477	0,065	-0,023
-352,766	-18,944	-0,174	0,079
-351,752	800,000	-0,036	-0,098
-350,737	-200,000	0,010	0,059
-349,723	63,106	0,168	0,124
-348,708	-200,000	0,002	0,064
-347,693	181,077	-0,078	0,085
-346,679	-18,875	-0,054	0,025
-345,664	-52,259	-0,069	-0,023
-344,650	650,713	-0,017	0,032
-343,635	-14,018	0,100	-0,047
-342,620	93,547	0,048	-0,040
-341,606	-136,930	-0,071	-0,006
-340,591	-47,932	0,077	0,027
-339,577	598,600	0,071	-0,129
-338,562	800,000	-0,036	-0,093
-337,548	368,924	0,084	-0,125
-336,533	628,170	0,059	-0,110
-335,518	149,950	0,073	0,072
-334,504	800,000	-0,073	0,170
-333,489	-96,031	-0,019	-0,004
-332,475	-109,526	-0,168	-0,026
-331,460	23,620	0,058	0,035
-330,445	55,574	0,095	0,067
-329,431	-131,153	-0,129	0,012
-328,416	128,027	0,070	0,066
-327,402	143,672	-0,040	-0,039
-326,387	767,428	-0,061	-0,122
-325,372	-171,206	-0,181	0,004
-324,358	-200,000	-0,011	-0,054
-323,343	-28,251	0,118	0,050
-322,329	200,109	-0,045	-0,051
-321,314	26,084	0,093	0,057
-320,299	-200,000	0,007	0,035
-319,285	-91,584	0,130	0,027
-318,270	230,707	0,035	0,042
-317,256	800,000	0,049	-0,107
-316,241	-200,000	0,000	-0,017
-315,226	-127,644	0,134	0,014
-314,212	-12,621	0,053	-0,025
-313,197	-200,000	0,002	0,106
-312,183	-200,000	-0,006	0,093
-311,168	479,257	-0,026	0,043
-310,153	-200,000	-0,042	-0,158
-309,139	-200,000	-0,002	-0,120
-308,124	-11,283	-0,020	0,009
-307,110	17,177	0,124	-0,072
-306,095	-35,493	0,113	0,045
-305,080	156,685	0,073	-0,073
-304,066	17,906	-0,056	0,032
-303,051	800,000	0,061	0,154
-302,037	3,126	0,144	0,077
-301,022	332,364	-0,034	0,048
-300,008	525,073	0,089	0,154
-298,993	92,968	-0,067	-0,056
-297,978	311,681	0,068	0,094
-296,964	503,538	0,098	-0,167
-295,949	149,662	0,106	0,105
-294,935	-116,289	-0,041	0,005
-293,920	-200,000	-0,014	-0,135
-292,905	0,621	0,026	0,014
-291,891	472,407	-0,060	0,099
-290,876	415,512	0,069	0,108
-289,862	-200,000	0,015	-0,095
-288,847	-68,848	-0,141	-0,040
-287,832	-126,006	0,123	-0,013
-286,818	800,000	0,053	-0,154
-285,803	-4,090	0,065	-0,033
-284,789	138,455	0,082	-0,079
-283,774	-15,746	-0,010	-0,005
-282,759	588,122	-0,072	-0,130
-281,745	79,319	-0,045	-0,035
-280,730	509,784	0,034	-0,057
-279,716	-40,480	0,087	0,033
-278,701	34,824	-0,021	-0,013
-277,686	310,932	0,073	0,101
-276,672	-50,400	-0,091	-0,031
-275,657	-96,020	-0,010	0,002
-274,643	161,952	-0,046	0,047
-273,628	-53,559	0,046	0,015
-272,613	42,744	0,066	-0,044
-271,599	47,164	-0,032	-0,022
-270,584	-43,113	-0,021	0,008
-269,570	84,084	-0,121	0,097
-268,555	800,000	-0,017	-0,049
-267,540	800,000	0,056	-0,116
-266,526	37,452	-0,074	-0,048
-265,511	125,282	-0,045	0,041
-264,497	84,687	0,075	-0,060
-263,482	20,734	-0,125	0,074
-262,467	315,912	0,084	0,116
-261,453	-157,832	-0,218	0,009
-260,438	-200,000	-0,014	0,078
-259,424	-200,000	0,010	-0,172
-258,409	800,000	0,031	-0,069
-257,395	-171,831	0,051	-0,001
-256,380	80,391	-0,033	0,026
-255,365	-200,000	-0,000	-0,011
-254,351	-200,000	-0,001	-0,007
-253,336	-25,197	0,094	-0,040
-252,322	144,475	0,052	0,050
-251,307	-50,799	0,170	0,058
-250,292	-200,000	-0,003	0,123
-249,278	230,982	-0,046	-0,055
-248,263	325,349	0,054	0,076
-247,249	470,719	0,031	0,051
-246,234	353,469	-0,039	-0,057
-245,219	-200,000	0,008	-0,120
-244,205	-101,428	0,134	0,024
-243,190	160,661	0,069	-0,071
-242,176	-35,484	0,060	-0,024
-241,161	-200,000	-0,001	-0,059
-240,146	800,000	0,077	0,169
-239,132	571,130	-0,016	-0,029
-238,117	-200,000	-0,037	-0,154
-237,103	164,294	-0,081	-0,084
-236,088	800,000	-0,043	-0,104
-235,073	-200,000	-0,013	-0,043
-234,059	800,000	0,028	-0,063
-233,044	527,224	-0,036	-0,063
-232,030	-63,976	0,046	0,014
-231,015	118,857	-0,051	-0,046
-230,000	-200,000	-0,001	-0,034
-228,986	800,000	0,028	-0,083
-227,971	181,310	0,050	0,054
-226,957	41,099	-0,045	0,030
-225,942	-55,150	0,036	0,012
-224,927	-21,815	-0,082	-0,036
-223,913	-200,000	-0,014	0,232
-222,898	622,708	0,022	0,042
-221,884	-83,370	0,029	-0,007
-220,869	-200,000	0,005	-0,061
-219,855	800,000	-0,036	-0,082
-218,840	278,397	0,110	0,144
-217,825	174,908	-0,157	0,166
-216,811	98,349	-0,101	0,085
-215,796	521,617	0,065	0,111
-214,782	136,286	0,037	-0,035
-213,767	-200,000	-0,019	0,097
-212,752	-101,018	0,095	0,017
-211,738	402,639	-0,030	-0,046
-210,723	23,738	0,132	0,079
-209,709	-93,886	-0,187	-0,037
-208,694	193,500	-0,081	-0,089
-207,679	-132,590	0,093	0,009
-206,665	-46,848	0,084	-0,030
-205,650	-132,044	0,172	0,016
-204,636	288,083	0,020	-0,026
-203,621	316,114	-0,016	0,022
-202,606	-32,606	-0,076	-0,031
-201,592	76,943	-0,087	0,067
-200,577	-123,558	-0,085	0,010
-199,563	197,363	-0,048	-0,054
-198,548	-65,591	0,126	-0,037
-197,533	800,000	0,007	0,021
-196,519	343,556	0,052	-0,075
-195,504	-142,473	0,118	-0,008
-194,490	-122,842	-0,147	-0,017
-193,475	-58,745	-0,096	0,030
-192,460	59,018	0,087	0,062
-191,446	82,401	0,079	0,063
-190,431	-19,910	0,077	0,035
-189,417	-41,788	0,132	0,049
-188,402	272,768	0,080	0,103
-187,387	-57,549	-0,037	0,012
-186,373	-200,000	-0,017	-0,095
-185,358	319,017	-0,091	-0,126
-184,344	62,827	-0,020	-0,015
-183,329	-99,931	-0,097	-0,018
-182,315	111,606	0,097	0,085
-181,300	-135,879	-0,050	0,004
-180,285	800,000	-0,047	-0,145
-179,271	67,874	0,103	0,077
-178,256	-167,337	-0,075	-0,002
-177,242	84,984	-0,119	0,095
-176,227	354,081	-0,031	0,045
-175,212	132,123	-0,060	0,057
-174,198	800,000	0,017	-0,040
-173,183	-200,000	-0,013	-0,115
-172,169	-105,157	-0,042	-0,007
-171,154	175,386	-0,076	-0,081
-170,139	96,862	-0,063	0,052
-169,125	264,825	0,070	0,089
-168,110	201,576	0,075	0,084
-167,096	39,700	0,070	-0,046
-166,081	93,184	-0,054	0,044
-165,066	-200,000	0,006	0,104
-164,052	-200,000	0,010	-0,041
-163,037	267,843	0,076	0,098
-162,023	-200,000	-0,044	0,165
-161,008	-200,000	-0,019	0,147
-159,993	-155,628	-0,150	0,007
-158,979	295,955	0,063	0,084
-157,964	204,497	0,046	-0,052
-156,950	35,686	-0,162	0,103
-155,935	280,795	-0,080	0,104
-154,920	-93,595	0,109	0,022
-153,906	-200,000	0,016	0,116
-152,891	-200,000	0,017	0,066
-151,877	180,666	0,053	0,056
-150,862	-144,790	-0,091	-0,006
-149,847	800,000	-0,044	-0,124
-148,833	94,454	-0,111	0,092
-147,818	-200,000	-0,007	0,115
-146,804	800,000	-0,030	0,097
-145,789	800,000	-0,059	0,185
-144,775	-200,000	0,022	-0,140
-143,760	-64,500	-0,100	-0,029
-142,745	800,000	-0,058	-0,121
-141,731	180,347	0,046	-0,049
-140,716	549,344	-0,040	-0,070
-139,702	-96,909	-0,091	0,017
-138,687	-8,693	0,096	0,047
-137,672	242,281	-0,044	-0,054
-136,658	124,556	-0,078	-0,071
-135,643	138,550	0,060	-0,057
-134,629	39,679	-0,073	0,047
-133,614	610,759	-0,101	0,184
-132,599	72,414	0,183	0,139
-131,585	72,197	0,086	-0,065
-130,570	-200,000	-0,016	-0,065
-129,556	124,044	-0,037	-0,034
-128,541	800,000	0,038	-0,099
-127,526	-200,000	0,004	-0,037
-126,512	545,122	-0,027	0,047
-125,497	-200,000	0,018	-0,141
-124,483	800,000	0,027	0,087
-123,468	86,417	-0,083	0,067
-122,453	800,000	0,058	0,124
-121,439	130,913	0,061	-0,057
-120,424	100,282	0,051	-0,043
-119,410	357,680	0,053	0,077
-118,395	-162,227	0,013	-0,000
-117,380	-112,455	-0,165	-0,024
-116,366	-198,256	-0,018	0,000
-115,351	800,000	-0,016	0,045
-114,337	-139,708	0,159	-0,012
-113,322	-43,730	0,122	-0,045
-112,307	-200,000	0,000	0,016
-111,293	-78,463	0,146	0,036
-110,278	800,000	-0,052	0,109
-109,264	-111,572	0,023	0,003
-108,249	-163,450	-0,157	-0,005
-107,234	600,097	0,067	-0,122
-106,220	202,829	-0,015	-0,016
-105,205	-200,000	-0,021	0,164
-104,191	-119,491	0,073	-0,009
-103,176	47,572	0,044	-0,030
-102,162	31,000	-0,063	-0,039
-101,147	800,000	0,037	-0,079
-100,132	-27,055	0,108	0,046
-99,118	-200,000	-0,035	-0,180
-98,103	-200,000	0,022	-0,088
-97,089	-200,000	-0,009	0,092
-96,074	531,069	-0,068	-0,117
-95,059	-96,992	0,122	-0,023
-94,045	25,138	-0,043	-0,026
-93,030	-18,883	0,079	0,036
-92,016	283,636	-0,059	-0,077
-91,001	800,000	0,039	0,079
-89,986	-56,875	0,067	0,021
-88,972	245,081	-0,006	0,008
-87,957	164,997	0,061	0,062
-86,943	513,881	0,031	0,053
-85,928	-11,611	-0,038	0,018
-84,913	216,186	0,061	-0,071
-83,899	800,000	-0,054	-0,112
-82,884	800,000	0,030	0,063
-81,870	273,620	0,027	0,035
-80,855	-200,000	0,003	0,099
-79,840	232,604	-0,069	-0,083
-78,826	135,372	-0,088	-0,083
-77,811	-67,450	0,068	-0,019
-76,797	-200,000	-0,001	-0,081
-75,782	800,000	0,093	0,247
-74,767	-200,000	-0,010	0,035
-73,753	-16,453	0,051	0,024
-72,738	-139,081	-0,061	0,005
-71,724	-62,154	-0,104	-0,031
-70,709	354,490	-0,075	-0,109
-69,694	-9,896	-0,041	0,020
-68,680	-105,400	0,127	0,021
-67,665	247,578	0,031	0,038
-66,651	-200,000	0,010	-0,056
-65,636	-163,910	-0,047	-0,002
-64,622	-167,608	-0,092	-0,003
-63,607	54,047	-0,046	0,032
-62,592	32,978	-0,072	-0,045
-61,578	247,077	0,010	0,012
-60,563	71,122	0,092	-0,069
-59,549	800,000	-0,044	-0,088
-58,534	-119,866	-1,417	-0,175
-57,519	644,691	-0,833	-1,550
-56,505	-200,000	-0,896	-4,493
-55,490	138,505	0,501	-0,477
-54,476	800,000	5,022	11,833
-53,461	-200,000	13,405	253,404
-52,446	-200,000	688,674	2270,568
-51,432	597,313	1622,788	2930,507
-50,417	120,806	1636,286	1476,643
-49,403	73,715	1290,373	980,403
-48,388	38,452	1025,118	661,783
-47,373	24,550	982,659	588,623
-46,359	23,779	972,381	579,912
-45,344	22,809	968,251	574,254
-44,330	22,757	966,714	573,149
-43,315	22,690	965,422	572,142
-42,300	22,716	964,032	571,379
-41,286	22,679	963,300	570,803
-40,271	22,655	962,133	570,009
-39,257	22,652	961,251	569,454
-38,242	22,578	960,613	568,813
-37,227	22,579	959,750	568,283
-36,213	22,604	958,679	567,707
-35,198	22,596	957,794	567,137
-34,184	22,632	957,366	566,977
-33,169	22,606	956,190	566,175
-32,154	22,651	955,477	565,875
-31,140	22,710	954,451	565,434
-30,125	22,645	953,678	564,744
-29,111	22,673	952,830	564,310
-28,096	22,686	952,269	563,998
-27,082	22,660	951,479	563,424
-26,067	22,722	950,686	563,130
-25,052	22,676	950,020	562,566
-24,038	22,635	949,466	562,084
-23,023	22,653	948,918	561,794
-22,009	22,652	948,053	561,257
-20,994	22,733	947,452	561,139
-19,979	22,724	946,906	560,765
-18,965	22,724	946,376	560,428
-17,950	22,721	945,566	559,918
-16,936	22,674	944,881	559,339
-15,921	22,608	944,393	558,816
-14,906	22,573	943,568	558,194
-13,892	22,622	942,664	557,794
-12,877	22,575	942,190	557,343
-11,863	22,477	941,773	556,761
-10,848	22,582	941,000	556,617
-9,833	22,583	940,765	556,458
-8,819	22,564	940,170	556,025
-7,804	22,575	939,359	555,556
-6,790	22,530	938,934	555,142
-5,775	22,546	938,201	554,738
-4,760	22,660	937,472	554,644
-3,746	22,601	936,906	554,100
-2,731	22,451	936,208	553,190
-1,717	22,346	935,615	552,489
-0,702	22,342	935,005	552,094
0,313	22,076	934,413	551,737
1,327	25,292	932,038	560,404
2,342	34,822	796,949	504,591
3,356	32,857	452,101	283,259
4,371	1,829	293,920	153,178
5,386	-2,763	274,761	138,833
6,400	-4,160	268,810	134,519
7,415	-4,704	266,334	132,767
8,429	-4,417	265,318	132,512
9,444	-4,429	264,376	132,018
10,459	-4,389	263,765	131,738
11,473	-4,459	263,101	131,332
12,488	-4,518	262,649	131,041
13,502	-4,592	262,103	130,690
14,517	-4,620	261,775	130,489
15,531	-4,771	261,606	130,257
16,546	-4,358	260,990	130,311
17,561	-4,324	260,599	130,134
18,575	-4,380	260,338	129,942
19,590	-4,415	259,999	129,730
20,604	-4,370	259,695	129,607
21,619	-4,509	259,428	129,338
22,634	-4,511	258,955	129,089
23,648	-4,502	258,774	128,995
24,663	-4,559	258,595	128,843
25,677	-4,598	258,310	128,655
26,692	-4,424	258,223	128,755
27,707	-4,234	257,607	128,605
28,721	-4,522	257,408	128,239
29,736	-4,502	257,159	128,121
30,750	-4,447	256,994	128,077
31,765	-4,637	256,833	127,816
32,780	-4,549	256,477	127,706
33,794	-4,470	256,307	127,680
34,809	-4,445	256,029	127,552
35,823	-4,439	255,854	127,458
36,838	-4,553	255,657	127,249
37,853	-4,738	255,353	126,923
38,867	-4,639	255,162	126,903
39,882	-4,541	254,887	126,842
40,896	-4,618	254,691	126,665
41,911	-4,422	254,427	126,694
42,926	-4,604	254,330	126,475
43,940	-4,714	254,103	126,255
44,955	-4,585	253,860	126,236
45,969	-4,751	253,692	125,996
46,984	-4,823	253,310	125,733
47,999	-5,038	252,833	125,298
49,013	-5,211	252,965	125,201
50,028	-5,172	252,501	124,994
51,042	-5,382	252,322	124,712
52,057	-5,295	252,044	124,639
53,071	-5,371	251,917	124,499
54,086	-5,275	251,781	124,504
55,101	-5,331	251,636	124,373
56,115	-4,948	251,578	124,664
57,130	-4,699	251,491	124,826
58,144	-4,357	251,204	124,967
59,159	-4,277	251,003	124,925
60,174	-4,428	250,769	124,667
61,188	-4,366	250,456	124,554
62,203	-4,524	250,349	124,354
63,217	-4,510	250,081	124,222
64,232	-4,560	250,015	124,135
65,247	-4,242	249,679	124,229
66,261	-4,458	249,522	123,956
67,276	-4,462	249,255	123,808
68,290	-4,863	248,984	123,319
69,305	-5,153	248,702	122,921
70,320	-4,894	248,637	123,099
71,334	-4,725	248,504	123,167
72,349	-4,344	248,251	123,355
73,363	-4,361	248,145	123,276
74,378	-4,322	247,857	123,156
75,393	-4,357	247,792	123,083
76,407	-4,468	247,557	122,861
77,422	-4,526	247,272	122,659
78,436	-4,385	247,043	122,654
79,451	-4,422	246,839	122,511
80,466	-4,444	246,554	122,340
81,480	-4,454	246,504	122,295
82,495	-4,728	246,174	121,890
83,509	-4,743	246,277	121,917
84,524	-4,665	246,006	121,838
85,539	-4,703	245,683	121,635
86,553	-4,749	245,367	121,430
87,568	-4,794	245,345	121,370
88,582	-4,594	245,110	121,410
89,597	-4,676	245,027	121,290
90,611	-4,777	244,829	121,096
91,626	-4,710	244,643	121,050
92,641	-4,566	244,526	121,101
93,655	-4,533	244,419	121,065
94,670	-4,549	244,081	120,874
95,684	-4,651	243,875	120,676
96,699	-4,563	243,751	120,677
97,714	-4,832	243,549	120,342
98,728	-4,749	243,240	120,247
99,743	-4,903	243,153	120,066
100,757	-4,863	242,835	119,931
101,772	-4,979	242,751	119,782
102,787	-4,928	242,761	119,819
103,801	-4,692	242,312	119,782
104,816	-4,710	242,228	119,716
105,830	-4,612	242,135	119,740
106,845	-4,486	242,004	119,769
107,860	-4,514	241,798	119,633
108,874	-4,495	241,512	119,497
109,889	-4,828	241,210	119,062
110,903	-4,826	241,145	119,021
111,918	-4,764	240,966	118,973
112,933	-4,941	240,876	118,772
113,947	-4,595	240,756	118,987
114,962	-4,550	240,434	118,855
115,976	-4,458	240,282	118,844
116,991	-4,524	240,127	118,703
118,006	-4,477	240,006	118,671
119,020	-4,618	240,017	118,550
120,035	-4,710	239,811	118,363
121,049	-4,570	239,672	118,398
122,064	-4,520	239,387	118,287
123,079	-4,474	239,045	118,145
124,093	-4,657	239,058	117,992
125,108	-4,848	238,799	117,698
126,122	-5,020	238,574	117,436
127,137	-4,849	238,256	117,408
128,151	-5,042	238,236	117,231
129,166	-4,786	237,878	117,252
130,181	-4,916	237,862	117,129
131,195	-4,898	237,549	116,978
132,210	-4,878	237,627	117,023
133,224	-4,604	237,186	117,017
134,239	-4,643	237,125	116,945
135,254	-4,689	237,059	116,865
136,268	-4,601	236,788	116,792
137,283	-4,967	236,581	116,384
138,297	-5,045	236,358	116,200
139,312	-5,194	236,222	116,003
140,327	-4,721	235,986	116,258
141,341	-4,335	236,163	116,646
142,356	-4,384	236,007	116,519
143,370	-4,151	235,752	116,570
144,385	-4,295	235,604	116,371
145,400	-4,305	235,540	116,320
146,414	-4,293	235,329	116,215
147,429	-4,361	235,210	116,092
148,443	-4,357	234,943	115,953
149,458	-4,140	234,801	116,047
150,473	-4,436	234,586	115,693
151,487	-4,430	234,452	115,621
152,502	-4,561	234,271	115,418
153,516	-4,256	234,157	115,594
154,531	-4,311	233,901	115,414
155,546	-4,518	233,862	115,219
156,560	-4,450	233,592	115,130
157,575	-4,362	233,320	115,056
158,589	-4,388	233,156	114,944
159,604	-4,488	233,298	114,924
160,619	-4,312	233,070	114,941
161,633	-4,119	232,810	114,956
162,648	-3,940	232,554	114,961
163,662	-4,338	232,549	114,633
164,677	-4,353	232,280	114,478
165,692	-4,328	232,208	114,453
166,706	-4,356	232,200	114,417
167,721	-4,041	231,801	114,458
168,735	-4,176	231,865	114,372
169,750	-4,125	231,692	114,317
170,764	-4,313	231,465	114,048
171,779	-4,321	231,329	113,964
172,794	-4,204	231,092	113,929
173,808	-4,313	230,890	113,734
174,823	-5,119	230,805	113,048
175,837	-4,841	230,358	113,038
176,852	-4,595	230,354	113,219
177,867	-4,242	230,320	113,468
178,881	-4,524	230,351	113,252
179,896	-4,387	230,169	113,260
180,910	-4,134	229,853	113,292
181,925	-4,079	229,651	113,225
182,940	-4,032	229,578	113,216
183,954	-4,087	229,379	113,065
184,969	-4,080	229,375	113,058
185,983	-4,182	229,332	112,947
186,998	-4,120	228,981	112,812
188,013	-4,218	228,961	112,717
189,027	-3,971	228,687	112,764
190,042	-4,220	228,626	112,530
191,056	-4,235	228,407	112,400
192,071	-4,248	228,257	112,306
193,086	-4,155	227,880	112,183
194,100	-4,090	227,726	112,147
195,115	-4,606	227,388	111,573
196,129	-5,283	227,076	110,887
197,144	-2,246	228,372	113,864
198,159	1,889	229,398	117,578
199,173	4,028	229,903	119,489
200,188	4,429	229,663	119,664
201,202	4,094	229,618	119,370
202,217	4,564	229,577	119,702
203,232	4,770	229,461	119,791
204,246	4,713	229,277	119,640
205,261	4,782	229,036	119,557
206,275	4,826	229,024	119,574
207,290	5,107	228,831	119,680
208,304	5,017	228,764	119,564
209,319	4,741	228,504	119,205
210,334	4,766	228,387	119,153
211,348	4,576	228,099	118,845
212,363	4,109	228,067	118,460
213,377	3,987	227,657	118,142
214,392	4,175	227,455	118,171
215,407	4,094	227,414	118,077
216,421	4,050	227,317	117,982
217,436	3,801	227,082	117,659
218,450	3,822	226,797	117,517
219,465	3,787	226,696	117,427
220,480	3,986	226,489	117,462
221,494	3,960	226,401	117,386
222,509	4,049	226,322	117,402
223,523	3,939	226,211	117,250
224,538	3,899	226,030	117,115
225,553	3,766	226,059	117,019
226,567	3,877	225,772	116,945
227,582	4,220	225,703	117,159
228,596	4,404	225,607	117,238
229,611	4,007	225,440	116,840
230,626	3,941	225,128	116,618
231,640	4,052	224,997	116,624
232,655	4,172	224,981	116,696
233,669	4,644	224,818	116,958
234,684	4,614	224,744	116,886
235,699	4,482	224,425	116,610
236,713	4,167	224,385	116,341
237,728	4,085	224,055	116,097
238,742	3,965	223,949	115,942
239,757	4,002	223,706	115,834
240,772	4,094	223,522	115,797
241,786	4,057	223,530	115,764
242,801	4,168	223,448	115,794
243,815	4,350	223,450	115,921
244,830	4,410	223,255	115,855
245,844	4,218	222,939	115,537
246,859	3,976	222,920	115,335
247,874	4,297	222,747	115,476
248,888	4,457	222,582	115,500
249,903	4,256	222,432	115,261
250,917	4,063	222,230	115,002
251,932	3,866	222,096	114,775
252,947	3,852	222,101	114,758
253,961	4,115	221,801	114,788
254,976	4,024	221,540	114,575
255,990	4,208	221,564	114,715
257,005	4,216	221,457	114,655
258,020	4,409	221,315	114,715
259,034	4,385	221,322	114,690
260,049	4,426	220,889	114,486
261,063	4,384	220,898	114,449
262,078	4,349	220,956	114,443
263,093	4,623	220,573	114,437
264,107	4,288	220,541	114,163
265,122	4,449	220,240	114,116
266,136	4,541	220,267	114,188
267,151	4,349	220,152	113,976
268,166	4,398	219,759	113,798
269,180	4,011	219,571	113,405
270,195	4,012	219,446	113,332
271,209	3,965	219,398	113,262
272,224	3,973	219,215	113,163
273,239	4,204	219,094	113,261
274,253	3,996	218,994	113,046
275,268	3,731	218,929	112,808
276,282	3,692	218,686	112,644
277,297	3,646	218,447	112,477
278,312	3,945	218,256	112,588
279,326	4,039	218,223	112,629
280,341	4,032	218,096	112,549
281,355	4,100	218,030	112,554
282,370	4,183	217,844	112,509
283,384	4,030	217,412	112,164
284,399	3,629	217,370	111,840
285,414	3,692	217,339	111,860
286,428	3,899	217,361	112,012
287,443	4,221	217,142	112,124
288,457	4,129	217,010	111,979
289,472	4,208	216,830	111,933
290,487	3,536	216,658	111,347
291,501	3,563	216,412	111,230
292,516	3,833	216,358	111,388
293,530	3,763	216,333	111,314
294,545	3,832	216,075	111,221
295,560	4,015	215,998	111,304
296,574	3,903	215,955	111,191
297,589	4,089	215,810	111,241
298,603	4,214	215,625	111,226
299,618	4,145	215,584	111,146
300,633	4,031	215,411	110,964
301,647	4,340	215,392	111,167
302,662	4,282	215,148	110,990
303,676	4,332	215,064	110,972
304,691	4,338	214,841	110,852
305,706	4,066	214,725	110,586
306,720	4,137	214,571	110,548
307,735	4,212	214,378	110,492
308,749	4,051	214,150	110,250
309,764	3,997	214,143	110,198
310,779	4,362	213,958	110,354
311,793	4,282	213,892	110,253
312,808	4,458	213,608	110,223
313,822	4,257	213,583	110,056
314,837	4,014	213,402	109,780
315,852	3,981	213,222	109,654
316,866	3,942	213,086	109,546
317,881	4,157	213,064	109,678
318,895	4,253	212,973	109,690
319,910	3,911	212,826	109,361
320,925	3,797	212,540	109,124
321,939	3,440	212,416	108,797
322,954	3,754	212,187	108,893
323,968	4,058	212,274	109,143
324,983	4,455	212,127	109,339
325,997	4,498	212,012	109,300
327,012	4,088	211,702	108,841
328,027	4,053	211,668	108,789
329,041	4,341	211,760	109,030
330,056	4,252	211,553	108,851
331,070	4,206	211,258	108,657
332,085	4,109	211,048	108,471
333,100	3,933	210,969	108,297
334,114	4,033	210,816	108,279
335,129	3,935	210,698	108,140
336,143	3,968	210,397	107,999
337,158	4,032	210,420	108,046
338,173	4,061	210,195	107,941
339,187	4,039	210,087	107,861
340,202	3,746	209,954	107,577
341,216	3,986	209,737	107,624
342,231	3,968	209,652	107,559
343,246	3,874	209,574	107,444
344,260	3,978	209,467	107,452
345,275	4,109	209,175	107,383
346,289	3,949	209,233	107,293
347,304	4,223	209,157	107,435
348,319	4,087	208,964	107,231
349,333	3,799	208,893	106,985
350,348	3,985	208,772	107,043
351,362	4,352	208,534	107,167
352,377	4,339	208,465	107,113
353,392	3,900	208,384	106,757
354,406	3,873	208,297	106,684
355,421	192,824	1346,276	1431,687
356,435	153,800	1485,029	1431,810
