DTS Sentinel unit serial number:	SN410029Multiplexer serial number:	ORYXHardware model number:	OX2-SRSoftware version number:	ORYX F/W v4,00 Oryx Data Collector v3.7.2.0data status	okinstallation	B6 Nyhavnadifferential loss correction	single-endedforward channel	channel 2reverse channel	N/Adate	2023/12/07time	17:25:08forward acquisition time	300,00reverse acquisition time	0,00gamma	499,1914k internal	0,3164k external	0,3164temperature offset calibration	1,0000default loss term (dB/km)	0,3820temperature slope calibration	1,0000multiplexer offset coefficient	1,0000multiplexer slope coefficient	1,0000fibre end	0,00T internal ref (°C)	14,46T ext. ref 1 (°C)	-2,43T ext. ref 2 (°C)	-2,45length (m)	temperature (°C)	Stokes	anti-Stokes-744,400	-134,947	0,092	0,008
-743,385	-36,649	-0,279	-0,110
-742,371	38,272	0,050	0,033
-741,356	-159,184	-0,221	-0,009
-740,342	-70,139	0,093	0,026
-739,327	-150,937	-0,456	0,025
-738,312	210,500	0,100	0,116
-737,298	-91,527	-0,447	0,093
-736,283	219,828	0,093	0,109
-735,269	-174,675	-0,355	-0,007
-734,254	-200,000	-0,003	0,179
-733,239	-200,000	-0,536	0,002
-732,225	-151,889	0,220	-0,012
-731,210	-139,644	0,126	-0,010
-730,196	800,000	-0,019	-0,047
-729,181	-22,665	-0,060	0,026
-728,167	-33,375	0,091	0,037
-727,152	-200,000	0,010	-0,128
-726,137	438,516	-0,058	-0,093
-725,123	335,700	0,050	-0,072
-724,108	-200,000	0,008	-0,026
-723,094	800,000	-0,018	-0,051
-722,079	63,195	0,048	-0,035
-721,064	-39,365	-0,105	0,040
-720,050	-200,000	-0,007	0,046
-719,035	-87,404	0,064	-0,014
-718,021	-41,261	0,078	0,030
-717,006	125,997	-0,043	-0,040
-715,991	72,156	-0,166	0,127
-714,977	2,152	-0,203	0,107
-713,962	-15,616	-0,110	-0,052
-712,948	-129,806	-0,060	-0,006
-711,933	800,000	0,059	-0,166
-710,918	800,000	-0,039	-0,089
-709,904	-169,488	-0,119	-0,003
-708,889	800,000	-0,022	-0,066
-707,875	96,855	-0,106	-0,089
-706,860	-15,233	0,072	0,034
-705,845	-200,000	0,005	0,037
-704,831	383,498	0,046	0,069
-703,816	-140,319	0,046	0,003
-702,802	272,774	-0,055	0,072
-701,787	332,529	-0,033	-0,047
-700,772	-200,000	-0,024	-0,235
-699,758	-200,000	-0,007	0,094
-698,743	800,000	0,015	-0,038
-697,729	225,667	-0,023	0,027
-696,714	188,593	0,116	0,128
-695,699	800,000	0,071	-0,195
-694,685	467,680	-0,033	-0,054
-693,670	128,219	-0,135	-0,126
-692,656	4,864	0,054	-0,029
-691,641	185,178	0,089	-0,097
-690,627	-103,820	-0,085	-0,014
-689,612	-200,000	0,010	0,045
-688,597	158,963	0,087	0,089
-687,583	398,827	0,050	-0,077
-686,568	121,897	-0,020	0,018
-685,554	301,100	-0,063	-0,086
-684,539	-200,000	-0,001	0,007
-683,524	-200,000	0,017	0,103
-682,510	226,466	0,065	0,077
-681,495	-10,575	-0,128	-0,062
-680,481	-102,600	0,078	-0,014
-679,466	-98,402	-0,162	-0,030
-678,451	-200,000	-0,055	-0,186
-677,437	257,529	-0,024	-0,030
-676,422	800,000	-0,038	0,097
-675,408	800,000	-0,045	0,098
-674,393	145,150	0,022	-0,022
-673,378	-67,333	-0,152	0,043
-672,364	14,735	-0,093	0,053
-671,349	-200,000	-0,011	-0,269
-670,335	120,822	0,120	-0,110
-669,320	-200,000	0,014	0,049
-668,305	746,337	0,040	-0,080
-667,291	-101,605	-0,094	0,017
-666,276	800,000	-0,032	-0,068
-665,262	97,149	-0,110	-0,093
-664,247	800,000	-0,030	-0,091
-663,232	411,479	0,067	-0,105
-662,218	-85,633	-0,054	-0,012
-661,203	-200,000	-0,022	-0,147
-660,189	184,582	-0,066	-0,072
-659,174	143,138	-0,141	-0,138
-658,159	527,341	-0,070	0,121
-657,145	599,999	-0,040	0,074
-656,130	-41,985	0,069	-0,026
-655,116	54,609	-0,054	0,038
-654,101	90,719	0,044	-0,037
-653,086	143,458	0,032	-0,032
-652,072	800,000	-0,039	0,096
-651,057	-200,000	-0,038	-0,152
-650,043	800,000	-0,051	-0,111
-649,028	438,783	-0,104	-0,166
-648,014	-200,000	-0,006	-0,064
-646,999	800,000	0,039	-0,100
-645,984	642,968	-0,056	0,105
-644,970	34,233	-0,052	-0,033
-643,955	54,567	-0,044	-0,031
-642,941	-7,490	0,026	0,013
-641,926	-200,000	0,001	0,025
-640,911	800,000	0,040	0,087
-639,897	216,109	0,075	0,087
-638,882	735,267	-0,044	-0,087
-637,868	146,300	-0,055	-0,054
-636,853	-46,593	0,025	-0,009
-635,838	147,331	0,039	-0,038
-634,824	-200,000	-0,004	-0,025
-633,809	33,715	0,101	0,064
-632,795	364,106	0,055	0,082
-631,780	-156,748	0,063	0,003
-630,765	-97,837	-0,066	0,012
-629,751	-21,743	0,099	0,044
-628,736	54,269	0,056	0,040
-627,722	-200,000	-0,005	-0,208
-626,707	-200,000	-0,025	-0,088
-625,692	113,231	-0,059	-0,052
-624,678	355,406	0,043	0,063
-623,663	1,952	-0,039	-0,020
-622,649	800,000	-0,062	-0,151
-621,634	262,196	-0,062	0,079
-620,619	91,688	-0,040	-0,033
-619,605	-54,849	0,092	-0,030
-618,590	8,122	0,080	0,044
-617,576	-37,923	-0,044	0,017
-616,561	-200,000	-0,002	-0,118
-615,546	-168,303	0,020	-0,001
-614,532	-200,000	-0,031	-0,290
-613,517	-169,978	-0,178	-0,005
-612,503	-52,622	0,057	0,019
-611,488	-96,759	0,121	-0,023
-610,474	-39,132	0,017	-0,006
-609,459	-112,972	-0,113	0,016
-608,444	-200,000	-0,008	-0,088
-607,430	-200,000	-0,029	-0,164
-606,415	-13,867	-0,034	-0,016
-605,401	46,990	-0,040	0,027
-604,386	311,537	-0,078	0,107
-603,371	-54,810	-0,159	0,052
-602,357	155,734	0,087	0,088
-601,342	800,000	-0,025	-0,054
-600,328	-200,000	-0,002	-0,187
-599,313	359,032	0,026	0,038
-598,298	-200,000	0,021	-0,088
-597,284	-73,169	0,041	-0,011
-596,269	-200,000	-0,006	0,133
-595,255	-83,021	0,109	-0,026
-594,240	800,000	0,041	0,117
-593,225	-200,000	-0,016	0,127
-592,211	-29,725	-0,028	0,012
-591,196	130,070	0,137	-0,128
-590,182	43,762	0,143	-0,095
-589,167	36,675	0,107	0,069
-588,152	214,693	-0,049	-0,057
-587,138	178,122	0,055	0,059
-586,123	800,000	-0,035	0,088
-585,109	620,474	-0,078	0,144
-584,094	-5,146	-0,112	-0,056
-583,079	-200,000	0,012	0,066
-582,065	-93,113	-0,092	-0,019
-581,050	-57,665	0,027	-0,009
-580,036	36,762	0,110	-0,071
-579,021	42,636	-0,061	-0,041
-578,006	407,867	-0,045	-0,070
-576,992	32,310	0,071	-0,045
-575,977	113,495	-0,122	-0,108
-574,963	13,972	0,107	0,060
-573,948	-200,000	0,016	0,157
-572,934	611,295	-0,044	0,080
-571,919	86,142	-0,145	-0,117
-570,904	-74,788	-0,116	0,030
-569,890	-200,000	0,008	-0,123
-568,875	23,471	0,162	-0,097
-567,861	800,000	-0,055	-0,151
-566,846	-200,000	-0,023	0,128
-565,831	-149,554	0,072	0,004
-564,817	-200,000	-0,004	-0,137
-563,802	641,290	-0,112	-0,209
-562,788	-87,404	-0,049	0,011
-561,773	-90,652	0,073	0,015
-560,758	800,000	-0,019	-0,052
-559,744	672,713	0,020	-0,038
-558,729	50,549	-0,036	0,025
-557,715	26,253	-0,089	-0,054
-556,700	118,829	-0,133	-0,120
-555,685	52,254	-0,026	-0,018
-554,671	161,816	0,037	0,038
-553,656	49,377	0,078	-0,054
-552,642	-77,308	-0,085	-0,021
-551,627	-200,000	-0,015	-0,051
-550,612	-138,489	-0,115	-0,009
-549,598	-19,415	-0,129	-0,058
-548,583	-200,000	-0,005	-0,124
-547,569	31,853	-0,081	0,051
-546,554	800,000	0,062	0,169
-545,539	583,821	0,016	0,029
-544,525	-200,000	0,023	-0,106
-543,510	27,430	0,043	-0,026
-542,496	-142,304	-0,192	-0,014
-541,481	800,000	0,029	-0,083
-540,466	771,575	0,045	-0,091
-539,452	-104,953	0,102	0,017
-538,437	-200,000	0,011	0,109
-537,423	-200,000	0,017	0,110
-536,408	-33,153	-0,111	-0,045
-535,393	-100,220	-0,028	-0,005
-534,379	-200,000	-0,016	-0,065
-533,364	118,916	0,097	-0,087
-532,350	-39,665	-0,100	0,038
-531,335	-166,522	-0,112	0,003
-530,321	-18,455	-0,025	0,011
-529,306	-103,147	-0,220	-0,038
-528,291	-77,531	-0,086	-0,022
-527,277	-200,000	-0,019	0,077
-526,262	243,204	0,047	0,057
-525,248	-200,000	0,004	-0,025
-524,233	-15,616	0,078	0,036
-523,218	-200,000	0,004	0,057
-522,204	26,337	-0,118	-0,072
-521,189	800,000	-0,036	0,099
-520,175	-200,000	-0,010	0,066
-519,160	-90,026	0,109	-0,023
-518,145	800,000	0,057	0,146
-517,131	-200,000	0,001	0,088
-516,116	27,039	0,129	0,079
-515,102	-17,644	-0,050	-0,023
-514,087	467,526	0,021	-0,034
-513,072	-111,837	-0,100	-0,015
-512,058	58,870	-0,047	0,034
-511,043	169,319	0,031	0,033
-510,029	800,000	-0,037	0,082
-509,014	119,293	0,096	-0,087
-507,999	-91,369	0,075	-0,016
-506,985	-108,815	0,037	0,006
-505,970	800,000	-0,026	0,079
-504,956	32,826	0,117	0,074
-503,941	800,000	0,040	0,081
-502,926	53,941	0,125	0,087
-501,912	800,000	0,033	-0,072
-500,897	390,989	-0,069	0,105
-499,883	29,785	-0,018	-0,011
-498,868	685,300	0,045	-0,086
-497,853	-200,000	-0,013	-0,060
-496,839	575,861	-0,044	0,078
-495,824	-45,042	0,061	-0,022
-494,810	-1,250	-0,124	0,064
-493,795	-65,472	-0,059	0,017
-492,781	-9,067	-0,061	0,030
-491,766	386,689	0,062	0,093
-490,751	52,254	0,028	0,020
-489,737	-200,000	0,005	0,020
-488,722	800,000	-0,027	0,068
-487,708	-200,000	0,016	0,072
-486,693	-200,000	0,027	0,115
-485,678	-28,775	-0,154	-0,064
-484,664	-162,096	-0,121	0,004
-483,649	-8,726	0,170	0,083
-482,635	247,633	0,027	-0,033
-481,620	800,000	-0,017	0,053
-480,605	217,943	-0,074	0,086
-479,591	-82,659	-0,065	0,015
-478,576	-133,721	-0,113	-0,010
-477,562	121,468	0,139	-0,126
-476,547	-16,768	-0,035	0,016
-475,532	-14,184	0,083	-0,039
-474,518	-103,557	-0,043	-0,007
-473,503	101,356	-0,107	0,091
-472,489	304,346	0,133	0,180
-471,474	-13,639	-0,091	0,043
-470,459	-38,830	0,037	0,014
-469,445	-147,608	-0,059	-0,004
-468,430	-73,022	0,024	0,006
-467,416	2,933	-0,093	0,049
-466,401	139,819	-0,067	0,064
-465,386	191,981	0,034	0,037
-464,372	-159,946	0,041	-0,002
-463,357	242,661	-0,051	0,062
-462,343	-155,766	-0,097	-0,004
-461,328	121,401	0,081	-0,073
-460,313	198,741	0,022	-0,025
-459,299	14,202	-0,042	0,024
-458,284	295,376	-0,061	-0,082
-457,270	-120,945	0,111	-0,013
-456,255	-200,000	0,015	-0,098
-455,241	-200,000	0,015	-0,128
-454,226	123,250	-0,071	-0,065
-453,211	-200,000	-0,013	0,124
-452,197	-200,000	0,002	0,031
-451,182	-200,000	0,012	0,044
-450,168	-120,469	0,120	-0,015
-449,153	476,979	-0,019	-0,032
-448,138	-200,000	-0,007	0,077
-447,124	800,000	-0,033	0,092
-446,109	115,360	-0,110	0,098
-445,095	213,570	0,068	0,079
-444,080	601,060	0,097	0,176
-443,065	431,671	0,051	0,080
-442,051	-39,060	-0,085	0,032
-441,036	-79,037	0,061	0,015
-440,022	-98,459	0,049	-0,009
-439,007	-200,000	0,023	-0,097
-437,992	-200,000	0,050	0,219
-436,978	-200,000	0,010	0,057
-435,963	-200,000	0,002	-0,015
-434,949	800,000	-0,006	-0,014
-433,934	-148,643	-0,081	-0,005
-432,919	130,557	0,087	-0,081
-431,905	-100,523	0,020	-0,004
-430,890	512,731	0,119	0,202
-429,876	-131,026	0,070	-0,007
-428,861	31,244	0,124	0,077
-427,846	-200,000	0,009	-0,054
-426,832	282,676	0,027	-0,036
-425,817	-200,000	-0,038	-0,145
-424,803	-200,000	-0,016	-0,102
-423,788	-162,226	0,194	-0,007
-422,773	-130,523	-0,128	0,012
-421,759	-108,462	0,136	0,021
-420,744	11,213	0,116	-0,065
-419,730	297,994	-0,063	-0,084
-418,715	-19,732	0,061	0,027
-417,701	800,000	0,029	0,076
-416,686	510,279	0,047	0,079
-415,671	-24,309	0,052	-0,022
-414,657	-200,000	0,001	0,003
-413,642	-117,521	0,010	-0,001
-412,628	-140,625	-0,046	0,003
-411,613	74,587	-0,025	-0,019
-410,598	84,563	-0,057	-0,045
-409,584	735,618	-0,013	-0,025
-408,569	-56,124	0,140	0,045
-407,555	254,344	0,079	-0,099
-406,540	-52,929	-0,060	-0,020
-405,525	-100,273	0,091	-0,016
-404,511	-23,001	-0,112	-0,049
-403,496	149,247	0,045	-0,044
-402,482	210,361	-0,060	-0,069
-401,467	-64,068	-0,140	0,041
-400,452	-196,286	0,019	0,000
-399,438	-200,000	-0,014	0,099
-398,423	45,646	0,047	0,031
-397,409	-167,595	-0,118	-0,003
-396,394	210,975	0,073	-0,083
-395,379	-99,285	0,030	0,005
-394,365	91,437	-0,026	0,022
-393,350	-200,000	0,015	0,063
-392,336	593,246	-0,029	0,051
-391,321	167,720	-0,049	0,051
-390,306	-85,238	0,039	0,009
-389,292	406,831	-0,132	-0,203
-388,277	29,434	0,089	0,055
-387,263	319,915	0,097	0,134
-386,248	69,452	0,023	0,017
-385,233	203,459	0,105	0,119
-384,219	563,711	-0,046	-0,081
-383,204	151,143	0,078	0,077
-382,190	800,000	0,043	-0,088
-381,175	-12,850	0,042	-0,020
-380,160	109,607	-0,061	0,053
-379,146	-65,323	0,093	0,027
-378,131	-36,179	0,120	0,047
-377,117	558,005	0,049	0,086
-376,102	-200,000	0,007	-0,137
-375,088	-20,550	-0,103	-0,046
-374,073	28,488	-0,062	-0,038
-373,058	-200,000	0,002	-0,009
-372,044	268,995	-0,048	0,061
-371,029	132,743	0,012	-0,011
-370,015	-28,912	-0,120	0,050
-369,000	800,000	0,022	-0,065
-367,985	-12,584	-0,111	-0,052
-366,971	-66,327	0,210	0,060
-365,956	800,000	0,027	0,058
-364,942	-120,603	0,079	0,010
-363,927	86,309	0,014	0,012
-362,912	91,877	0,060	0,049
-361,898	94,971	0,017	-0,014
-360,883	-77,410	0,101	0,025
-359,869	-200,000	-0,009	0,070
-358,854	-95,704	-0,062	0,012
-357,839	91,941	0,148	-0,121
-356,825	-138,357	-0,103	0,008
-355,810	743,913	0,064	-0,126
-354,796	-70,842	0,027	0,007
-353,781	18,566	-0,131	0,076
-352,766	184,421	0,036	-0,039
-351,752	7,493	0,062	-0,034
-350,737	-5,992	-0,087	0,043
-349,723	-200,000	-0,015	0,071
-348,708	668,558	0,040	-0,074
-347,693	23,703	0,053	-0,032
-346,679	-24,618	0,111	-0,048
-345,664	-200,000	0,016	-0,085
-344,650	-58,348	0,110	0,034
-343,635	800,000	0,032	0,091
-342,620	-112,503	0,142	-0,020
-341,606	800,000	0,016	0,042
-340,591	800,000	0,037	-0,105
-339,577	-21,110	0,087	0,038
-338,562	-113,771	-0,160	0,022
-337,548	397,244	-0,080	-0,122
-336,533	800,000	-0,013	0,034
-335,518	-64,279	0,098	-0,029
-334,504	-105,090	0,049	-0,008
-333,489	62,912	0,174	-0,126
-332,475	110,324	-0,112	0,097
-331,460	172,566	0,041	-0,043
-330,445	292,291	-0,037	0,048
-329,431	-18,399	-0,043	0,019
-328,416	-200,000	0,035	0,120
-327,402	181,841	0,042	0,045
-326,387	-200,000	0,027	0,102
-325,372	585,085	0,026	0,047
-324,358	-200,000	-0,007	-0,097
-323,343	-19,981	-0,070	-0,031
-322,329	436,537	-0,038	-0,060
-321,314	800,000	-0,073	0,194
-320,299	-200,000	-0,022	0,084
-319,285	800,000	-0,025	-0,061
-318,270	-56,248	-0,036	-0,011
-317,256	-69,261	-0,154	-0,043
-316,241	457,054	0,090	-0,145
-315,226	38,973	0,073	-0,047
-314,212	-190,719	0,016	0,000
-313,197	162,911	0,077	0,078
-312,183	-24,478	-0,030	-0,013
-311,168	-9,915	0,037	0,018
-310,153	239,508	-0,053	0,064
-309,139	-124,173	-0,060	0,007
-308,124	800,000	-0,048	-0,128
-307,110	-89,043	0,264	0,056
-306,095	-158,172	0,127	-0,005
-305,080	800,000	0,009	0,021
-304,066	107,358	-0,153	0,131
-303,051	322,316	-0,062	-0,085
-302,037	-18,244	0,062	-0,028
-301,022	406,735	-0,100	-0,153
-300,008	404,680	0,093	0,141
-298,993	800,000	-0,023	0,046
-297,978	-67,983	0,015	0,004
-296,964	476,825	-0,058	0,095
-295,949	-200,000	-0,008	0,068
-294,935	-21,566	0,117	-0,051
-293,920	-3,763	-0,094	-0,047
-292,905	166,611	0,018	-0,019
-291,891	800,000	0,042	0,091
-290,876	171,845	-0,075	0,078
-289,862	-9,755	-0,074	0,036
-288,847	17,626	-0,048	0,028
-287,832	186,872	-0,088	-0,095
-286,818	-200,000	-0,003	-0,098
-285,803	220,918	0,014	0,016
-284,789	112,276	0,092	-0,081
-283,774	800,000	-0,009	0,024
-282,759	-65,973	-0,127	0,036
-281,745	-19,684	-0,106	-0,047
-280,730	-200,000	-0,023	-0,090
-279,716	-19,364	-0,164	0,073
-278,701	-200,000	-0,000	0,028
-277,686	-200,000	-0,034	0,113
-276,672	-200,000	0,021	0,074
-275,657	339,717	0,067	0,094
-274,643	-200,000	-0,007	-0,057
-273,628	8,661	0,155	-0,084
-272,613	203,083	-0,055	0,062
-271,599	800,000	0,044	0,098
-270,584	441,758	0,054	0,085
-269,570	-200,000	0,001	-0,063
-268,555	137,610	0,078	0,074
-267,540	800,000	-0,009	0,025
-266,526	-200,000	0,008	-0,076
-265,511	-86,451	-0,118	-0,026
-264,497	800,000	0,025	0,079
-263,482	12,207	-0,106	0,059
-262,467	-200,000	-0,014	0,118
-261,453	499,333	0,047	-0,079
-260,438	-200,000	0,029	-0,099
-259,424	-200,000	-0,024	-0,103
-258,409	87,838	-0,070	-0,056
-257,395	105,647	-0,096	0,082
-256,380	-200,000	0,005	0,018
-255,365	-65,203	0,107	0,031
-254,351	60,397	-0,094	0,067
-253,336	-25,031	0,028	-0,012
-252,322	-200,000	-0,028	-0,106
-251,307	-200,000	0,024	-0,083
-250,292	132,124	0,059	0,054
-249,278	800,000	0,067	0,205
-248,263	-200,000	-0,008	-0,140
-247,249	720,215	-0,021	0,041
-246,234	354,768	-0,069	-0,099
-245,219	-200,000	0,017	-0,091
-244,205	259,823	0,055	-0,069
-243,190	-170,904	-0,054	0,001
-242,176	-71,807	-0,086	0,023
-241,161	-65,342	-0,019	-0,005
-240,146	800,000	0,012	0,030
-239,132	527,406	0,080	-0,137
-238,117	190,423	-0,101	-0,110
-237,103	-79,063	-0,148	0,036
-236,088	260,706	0,018	0,022
-235,073	99,740	-0,062	-0,052
-234,059	328,059	0,048	-0,067
-233,044	107,577	-0,024	0,021
-232,030	800,000	0,055	-0,166
-231,015	-200,000	0,016	-0,176
-230,000	-86,473	-0,059	0,013
-228,986	800,000	-0,031	0,066
-227,971	800,000	0,025	0,063
-226,957	4,881	0,132	0,070
-225,942	310,053	-0,079	-0,107
-224,927	134,562	0,077	0,072
-223,913	-58,875	0,042	-0,013
-222,898	-200,000	-0,005	0,077
-221,884	-200,000	-0,003	0,027
-220,869	-60,039	0,150	0,046
-219,855	321,224	-0,071	0,097
-218,840	-200,000	0,036	-0,135
-217,825	401,386	0,029	-0,044
-216,811	-200,000	0,023	0,094
-215,796	721,015	-0,052	-0,099
-214,782	282,495	0,047	0,062
-213,767	-200,000	0,004	0,027
-212,752	-200,000	0,007	0,087
-211,738	800,000	0,012	-0,028
-210,723	-112,856	0,024	-0,003
-209,709	-19,436	-0,215	-0,096
-208,694	75,457	0,048	0,037
-207,679	61,304	-0,071	-0,051
-206,665	-10,834	-0,097	0,046
-205,650	800,000	0,030	-0,095
-204,636	102,523	-0,058	-0,049
-203,621	372,623	-0,035	-0,051
-202,606	-17,581	0,012	-0,005
-201,592	-200,000	0,009	-0,145
-200,577	-200,000	0,042	-0,166
-199,563	800,000	-0,051	0,129
-198,548	-200,000	0,020	0,155
-197,533	800,000	0,041	0,122
-196,519	-29,104	-0,031	0,013
-195,504	-8,196	-0,069	0,034
-194,490	373,700	-0,067	-0,099
-193,475	-91,976	0,049	-0,010
-192,460	258,599	0,017	0,022
-191,446	800,000	0,061	-0,136
-190,431	-66,465	0,087	0,025
-189,417	-200,000	-0,011	0,084
-188,402	-29,364	-0,085	0,035
-187,387	-87,348	-0,063	0,014
-186,373	-200,000	0,001	-0,043
-185,358	214,216	0,077	-0,088
-184,344	209,361	-0,077	0,087
-183,329	800,000	0,033	0,097
-182,315	-126,092	0,044	0,005
-181,300	156,127	-0,117	-0,116
-180,285	178,279	0,036	-0,037
-179,271	112,697	-0,163	0,142
-178,256	-200,000	0,010	-0,047
-177,242	800,000	-0,029	-0,058
-176,227	-70,554	0,091	-0,025
-175,212	-69,423	0,054	0,015
-174,198	-7,898	0,040	-0,020
-173,183	-168,342	-0,160	-0,004
-172,169	-70,570	-0,143	-0,039
-171,154	417,708	-0,030	-0,047
-170,139	-200,000	-0,045	0,147
-169,125	3,273	0,085	0,045
-168,110	-200,000	-0,019	-0,129
-167,096	52,911	-0,106	-0,073
-166,081	-61,730	-0,130	-0,039
-165,066	-200,000	0,046	0,148
-164,052	393,019	-0,034	0,051
-163,037	306,073	0,036	-0,049
-162,023	541,357	0,058	-0,099
-161,008	-58,737	0,212	0,066
-159,993	-200,000	-0,006	0,051
-158,979	86,428	-0,039	-0,031
-157,964	59,531	0,138	0,098
-156,950	-139,547	0,061	0,005
-155,935	-200,000	-0,005	-0,064
-154,920	-200,000	0,018	0,062
-153,906	-200,000	0,042	-0,180
-152,891	36,429	0,122	0,077
-151,877	-200,000	-0,003	0,034
-150,862	-200,000	0,004	-0,026
-149,847	578,165	-0,054	-0,095
-148,833	-136,752	-0,177	0,014
-147,818	-111,027	0,076	-0,011
-146,804	57,591	-0,068	-0,048
-145,789	53,981	-0,059	0,040
-144,775	161,710	-0,077	-0,077
-143,760	346,888	-0,113	-0,160
-142,745	-3,816	0,023	0,011
-141,731	283,184	-0,065	0,084
-140,716	-200,000	-0,027	0,145
-139,702	-38,951	0,139	-0,052
-138,687	23,993	0,048	0,029
-137,672	-67,615	0,085	0,024
-136,658	48,578	-0,128	-0,086
-135,643	800,000	-0,055	-0,125
-134,629	800,000	0,043	-0,106
-133,614	-19,287	-0,021	0,009
-132,599	534,317	0,065	0,111
-131,585	800,000	-0,013	-0,036
-130,570	-200,000	-0,003	-0,028
-129,556	38,723	0,099	0,064
-128,541	195,395	0,072	-0,079
-127,526	-200,000	-0,028	0,125
-126,512	-38,247	0,098	0,037
-125,497	-98,129	0,115	-0,021
-124,483	-101,273	-0,015	0,003
-123,468	-86,801	-0,036	0,008
-122,453	-118,468	-0,089	-0,011
-121,439	800,000	-0,042	0,113
-120,424	-14,534	0,104	-0,048
-119,410	-200,000	0,012	-0,127
-118,395	-75,593	0,044	0,011
-117,380	-74,574	0,091	0,023
-116,366	50,814	-0,032	0,022
-115,351	-9,747	-0,170	0,081
-114,337	800,000	0,029	-0,058
-113,322	502,707	0,026	-0,044
-112,307	-43,116	-0,065	0,023
-111,293	-79,462	-0,081	-0,019
-110,278	800,000	0,016	0,032
-109,264	450,208	0,022	0,035
-108,249	50,548	-0,093	-0,063
-107,234	-200,000	-0,033	-0,110
-106,220	91,929	-0,112	0,091
-105,205	800,000	0,024	0,063
-104,191	130,006	0,129	0,118
-103,176	-63,221	0,045	-0,013
-102,162	-200,000	0,012	-0,064
-101,147	-138,397	0,134	0,010
-100,132	-127,921	-0,159	-0,016
-99,118	130,935	0,044	-0,040
-98,103	232,240	0,066	0,078
-97,089	-101,336	0,131	-0,023
-96,074	-200,000	-0,008	-0,027
-95,059	74,232	-0,098	0,074
-94,045	-200,000	-0,004	0,090
-93,030	800,000	0,046	0,108
-92,016	-92,979	-0,069	-0,014
-91,001	-200,000	-0,015	0,057
-89,986	-35,849	-0,129	0,050
-88,972	-200,000	0,001	-0,049
-87,957	447,302	-0,054	0,085
-86,943	220,848	0,077	-0,089
-85,928	-200,000	-0,010	-0,104
-84,913	495,397	-0,041	-0,068
-83,899	-200,000	-0,004	-0,062
-82,884	-15,216	-0,082	0,037
-81,870	-200,000	0,007	-0,040
-80,855	-127,938	0,080	0,008
-79,840	302,035	-0,036	-0,048
-78,826	-67,821	0,074	-0,021
-77,811	-200,000	0,010	-0,126
-76,797	-200,000	-0,007	-0,026
-75,782	86,454	-0,035	0,028
-74,767	-200,000	-0,027	0,095
-73,753	800,000	-0,018	0,057
-72,738	430,977	0,060	0,094
-71,724	58,562	-0,118	-0,083
-70,709	-164,553	-0,109	0,003
-69,694	800,000	-0,056	0,150
-68,680	713,052	0,058	0,111
-67,665	800,000	0,041	0,096
-66,651	-75,878	0,090	0,023
-65,636	456,731	0,060	0,096
-64,622	111,155	-0,120	-0,104
-63,607	-81,003	-0,044	-0,010
-62,592	-134,622	-0,157	0,014
-61,578	800,000	-0,036	-0,080
-60,563	-124,766	0,065	0,007
-59,549	195,616	-0,053	0,058
-58,534	38,036	-1,943	-1,236
-57,519	-200,000	-0,191	-0,751
-56,505	-200,000	-1,387	-4,975
-55,490	57,117	0,811	0,566
-54,476	800,000	5,402	12,001
-53,461	-200,000	18,093	291,642
-52,446	800,000	729,463	2220,500
-51,432	525,886	1642,370	2780,584
-50,417	107,802	1631,622	1391,551
-49,403	72,307	1283,633	956,819
-48,388	30,676	1024,797	626,642
-47,373	19,771	986,769	567,566
-46,359	17,898	974,426	554,329
-45,344	14,800	970,435	541,946
-44,330	14,999	968,895	541,712
-43,315	14,510	967,007	539,044
-42,300	14,467	965,984	538,315
-41,286	14,427	965,125	537,683
-40,271	14,493	963,909	537,200
-39,257	14,494	963,087	536,723
-38,242	14,477	962,372	536,248
-37,227	14,481	961,677	535,850
-36,213	14,460	960,705	535,222
-35,198	14,471	959,634	534,640
-34,184	14,526	959,002	534,442
-33,169	14,447	957,969	533,591
-32,154	14,512	957,122	533,307
-31,140	14,507	956,264	532,792
-30,125	14,552	955,392	532,432
-29,111	14,497	954,624	531,803
-28,096	14,491	953,989	531,410
-27,082	14,468	953,224	530,889
-26,067	14,553	952,390	530,675
-25,052	14,415	952,097	530,051
-24,038	14,480	951,126	529,697
-23,023	14,398	950,744	529,199
-22,009	14,529	949,795	529,070
-20,994	14,508	949,091	528,589
-19,979	14,505	948,632	528,302
-18,965	14,469	947,833	527,724
-17,950	14,520	947,422	527,636
-16,936	14,467	946,650	527,016
-15,921	14,429	946,092	526,563
-14,906	14,406	945,350	526,057
-13,892	14,387	944,799	525,668
-12,877	14,392	944,171	525,314
-11,863	14,368	943,324	524,747
-10,848	14,355	943,007	524,509
-9,833	14,455	942,519	524,533
-8,819	14,437	941,872	524,096
-7,804	14,405	941,196	523,596
-6,790	14,392	940,501	523,147
-5,775	14,404	940,158	522,975
-4,760	14,397	939,468	522,545
-3,746	14,383	938,827	522,125
-2,731	14,280	938,079	521,364
-1,717	14,240	937,321	520,797
-0,702	14,232	936,534	520,313
0,313	14,018	936,187	520,234
1,327	17,573	934,023	530,134
2,342	26,739	786,770	470,577
3,356	23,107	442,361	259,213
4,371	-6,642	294,795	143,112
5,386	-10,640	276,469	130,429
6,400	-11,840	270,769	126,619
7,415	-12,147	268,654	125,336
8,429	-12,324	267,132	124,453
9,444	-12,460	266,277	123,920
10,459	-12,197	265,639	123,851
11,473	-12,391	264,998	123,365
12,488	-12,251	264,360	123,184
13,502	-12,579	263,806	122,619
14,517	-12,371	263,360	122,588
15,531	-12,428	263,094	122,402
16,546	-12,348	262,666	122,264
17,561	-12,478	262,332	121,981
18,575	-12,273	262,018	122,007
19,590	-12,496	261,614	121,609
20,604	-12,357	261,295	121,574
21,619	-12,370	260,948	121,390
22,634	-12,552	260,639	121,074
23,648	-12,522	260,330	120,946
24,663	-12,499	259,959	120,783
25,677	-12,379	259,719	120,767
26,692	-12,505	259,649	120,613
27,707	-12,289	259,096	120,536
28,721	-12,502	259,034	120,307
29,736	-12,682	258,743	120,004
30,750	-12,470	258,469	120,052
31,765	-12,503	258,315	119,942
32,780	-12,372	257,990	119,895
33,794	-12,507	257,744	119,652
34,809	-12,380	257,330	119,559
35,823	-12,444	257,209	119,436
36,838	-12,419	256,922	119,315
37,853	-12,606	256,827	119,096
38,867	-12,587	256,439	118,922
39,882	-12,635	256,374	118,840
40,896	-12,604	256,127	118,742
41,911	-12,630	255,786	118,550
42,926	-12,592	255,733	118,548
43,940	-12,552	255,191	118,321
44,955	-12,708	254,970	118,072
45,969	-12,587	254,917	118,143
46,984	-12,753	254,532	117,810
47,999	-13,152	254,418	117,400
49,013	-13,128	254,107	117,267
50,028	-13,154	253,866	117,123
51,042	-13,094	253,522	117,006
52,057	-13,232	253,304	116,776
53,071	-13,127	253,140	116,780
54,086	-13,120	253,134	116,773
55,101	-13,032	252,782	116,676
56,115	-12,620	252,600	116,936
57,130	-12,433	252,588	117,080
58,144	-12,327	252,352	117,052
59,159	-12,377	252,088	116,876
60,174	-12,416	251,905	116,747
61,188	-12,374	251,788	116,719
62,203	-12,399	251,494	116,550
63,217	-12,375	251,292	116,467
64,232	-12,400	251,118	116,355
65,247	-12,453	250,866	116,183
66,261	-12,461	250,645	116,063
67,276	-12,453	250,330	115,913
68,290	-12,994	250,199	115,382
69,305	-13,012	249,942	115,238
70,320	-12,712	249,661	115,353
71,334	-12,536	249,565	115,447
72,349	-12,418	249,441	115,480
73,363	-12,272	249,265	115,512
74,378	-12,238	248,924	115,373
75,393	-12,297	248,683	115,201
76,407	-12,432	248,502	114,993
77,422	-12,413	248,320	114,914
78,436	-12,418	248,184	114,836
79,451	-12,433	247,970	114,715
80,466	-12,370	247,733	114,647
81,480	-12,298	247,260	114,479
82,495	-12,575	247,299	114,255
83,509	-12,523	247,238	114,259
84,524	-12,489	246,888	114,116
85,539	-12,636	246,798	113,941
86,553	-12,675	246,512	113,767
87,568	-12,708	246,377	113,667
88,582	-12,547	246,105	113,666
89,597	-12,623	246,114	113,596
90,611	-12,608	245,732	113,422
91,626	-12,306	245,605	113,605
92,641	-12,485	245,427	113,363
93,655	-12,604	245,259	113,176
94,670	-12,479	244,949	113,127
95,684	-12,619	244,917	112,986
96,699	-12,618	244,714	112,883
97,714	-12,616	244,428	112,742
98,728	-12,991	244,466	112,439
99,743	-12,683	244,004	112,472
100,757	-12,990	244,039	112,224
101,772	-12,671	243,685	112,315
102,787	-12,616	243,511	112,270
103,801	-12,548	243,266	112,203
104,816	-12,533	243,181	112,166
105,830	-12,327	242,955	112,222
106,845	-12,422	242,848	112,084
107,860	-12,335	242,718	112,085
108,874	-12,377	242,514	111,946
109,889	-12,606	242,165	111,588
110,903	-12,514	242,062	111,606
111,918	-12,601	241,874	111,438
112,933	-12,676	241,669	111,272
113,947	-12,651	241,595	111,248
114,962	-12,589	241,318	111,162
115,976	-12,490	241,245	111,199
116,991	-12,454	240,841	111,032
118,006	-12,575	240,793	110,902
119,020	-12,477	240,753	110,953
120,035	-12,369	240,578	110,951
121,049	-12,400	240,298	110,786
122,064	-12,426	240,058	110,644
123,079	-12,502	239,985	110,540
124,093	-12,493	239,727	110,419
125,108	-12,733	239,547	110,131
126,122	-12,717	239,315	110,027
127,137	-12,843	239,199	109,862
128,151	-12,558	238,958	109,972
129,166	-12,610	238,802	109,848
130,181	-12,724	238,561	109,636
131,195	-12,780	238,432	109,522
132,210	-12,533	238,280	109,641
133,224	-12,464	238,124	109,615
134,239	-12,716	238,053	109,370
135,254	-12,608	237,820	109,340
136,268	-12,493	237,635	109,337
137,283	-13,037	237,332	108,751
138,297	-12,969	237,174	108,724
139,312	-12,800	236,893	108,721
140,327	-12,587	236,936	108,901
141,341	-12,230	236,831	109,129
142,356	-12,283	236,753	109,041
143,370	-12,186	236,520	109,001
144,385	-11,956	236,296	109,073
145,400	-12,262	236,272	108,807
146,414	-12,409	235,983	108,547
147,429	-12,241	235,569	108,481
148,443	-12,212	235,620	108,518
149,458	-12,391	235,434	108,280
150,473	-12,414	235,389	108,231
151,487	-12,494	235,028	107,992
152,502	-12,266	235,036	108,167
153,516	-12,224	234,705	108,038
154,531	-12,371	234,512	107,824
155,546	-12,320	234,396	107,801
156,560	-12,384	234,165	107,635
157,575	-12,398	233,941	107,511
158,589	-12,480	233,839	107,390
159,604	-12,116	233,721	107,613
160,619	-12,235	233,613	107,460
161,633	-12,024	233,398	107,517
162,648	-11,860	233,198	107,545
163,662	-12,258	233,096	107,175
164,677	-12,401	232,902	106,965
165,692	-12,289	232,798	106,995
166,706	-12,327	232,579	106,855
167,721	-12,220	232,577	106,929
168,735	-12,157	232,444	106,907
169,750	-12,143	232,097	106,749
170,764	-12,263	231,828	106,522
171,779	-12,299	231,854	106,497
172,794	-12,218	231,730	106,493
173,808	-12,410	231,506	106,231
174,823	-12,793	231,126	105,749
175,837	-12,745	231,153	105,789
176,852	-12,528	231,184	105,963
177,867	-12,224	230,858	106,040
178,881	-12,354	230,747	105,879
179,896	-12,293	230,545	105,824
180,910	-12,118	230,358	105,864
181,925	-12,319	230,307	105,676
182,940	-12,161	230,115	105,701
183,954	-12,227	229,976	105,576
184,969	-12,090	229,844	105,613
185,983	-12,189	229,623	105,425
186,998	-12,001	229,450	105,481
188,013	-12,081	229,421	105,397
189,027	-12,081	229,280	105,323
190,042	-12,056	229,014	105,210
191,056	-12,089	228,895	105,121
192,071	-11,991	228,584	105,044
193,086	-12,141	228,618	104,935
194,100	-11,973	228,405	104,957
195,115	-12,422	227,983	104,409
196,129	-12,062	228,077	104,719
197,144	-7,364	229,693	109,077
198,159	-2,424	231,051	113,536
199,173	1,402	232,090	117,005
200,188	2,005	232,031	117,431
201,202	1,774	231,974	117,213
202,217	1,729	231,777	117,069
203,232	1,826	231,826	117,158
204,246	2,074	231,475	117,162
205,261	2,146	231,448	117,193
206,275	2,163	231,493	117,219
207,290	2,099	231,194	117,008
208,304	2,225	231,030	117,011
209,319	2,109	230,957	116,875
210,334	2,339	230,527	116,823
211,348	1,984	230,539	116,546
212,363	1,663	230,226	116,131
213,377	1,553	230,117	115,982
214,392	1,642	229,900	115,930
215,407	1,716	229,821	115,936
216,421	1,776	229,619	115,870
217,436	1,680	229,460	115,707
218,450	1,437	229,294	115,426
219,465	1,655	229,066	115,468
220,480	1,512	228,938	115,284
221,494	1,257	229,019	115,120
222,509	1,634	228,850	115,312
223,523	1,941	228,619	115,419
224,538	1,491	228,408	114,960
225,553	1,525	228,095	114,818
226,567	1,705	228,196	114,995
227,582	1,962	228,170	115,167
228,596	2,132	227,880	115,139
229,611	1,941	227,748	114,918
230,626	1,417	227,314	114,292
231,640	1,324	227,411	114,260
232,655	1,827	227,324	114,587
233,669	1,903	227,160	114,551
234,684	2,380	227,016	114,829
235,699	2,140	227,005	114,632
236,713	1,770	226,763	114,221
237,728	1,729	226,450	114,022
238,742	1,558	226,217	113,765
239,757	1,932	226,084	113,970
240,772	1,432	225,975	113,529
241,786	1,660	225,807	113,605
242,801	1,714	225,804	113,634
243,815	2,493	225,726	114,169
244,830	2,103	225,530	113,768
245,844	1,780	225,255	113,377
246,859	1,667	225,118	113,213
247,874	1,753	225,093	113,256
248,888	1,855	224,933	113,241
249,903	1,915	224,871	113,244
250,917	1,821	224,555	113,005
251,932	1,596	224,318	112,708
252,947	1,461	224,141	112,509
253,961	1,416	224,003	112,396
254,976	1,552	223,928	112,449
255,990	1,764	224,001	112,633
257,005	1,906	223,840	112,648
258,020	2,016	223,570	112,584
259,034	1,726	223,461	112,304
260,049	1,981	223,270	112,387
261,063	1,620	223,080	112,014
262,078	1,951	222,977	112,197
263,093	2,199	222,953	112,358
264,107	1,973	222,867	112,138
265,122	2,117	222,587	112,094
266,136	2,142	222,538	112,078
267,151	2,097	222,289	111,909
268,166	1,644	222,110	111,475
269,180	1,443	221,916	111,219
270,195	1,581	221,768	111,237
271,209	1,723	221,659	111,277
272,224	1,775	221,551	111,251
273,239	1,623	221,364	111,036
274,253	1,489	221,305	110,898
275,268	1,430	220,928	110,655
276,282	1,243	221,035	110,563
277,297	1,360	220,647	110,444
278,312	1,586	220,743	110,647
279,326	1,631	220,646	110,622
280,341	1,725	220,436	110,575
281,355	1,641	220,305	110,439
282,370	1,768	220,174	110,456
283,384	1,485	219,845	110,075
284,399	1,336	219,751	109,909
285,414	1,310	219,770	109,890
286,428	1,508	219,668	109,973
287,443	1,775	219,512	110,079
288,457	1,783	219,408	110,023
289,472	1,749	219,036	109,803
290,487	1,347	218,861	109,414
291,501	1,358	218,613	109,288
292,516	1,460	218,416	109,253
293,530	1,440	218,552	109,297
294,545	1,445	218,466	109,248
295,560	1,549	218,220	109,190
296,574	1,755	218,089	109,264
297,589	1,602	218,066	109,132
298,603	1,881	217,887	109,234
299,618	1,694	217,799	109,045
300,633	1,805	217,679	109,055
301,647	2,031	217,440	109,088
302,662	2,045	217,277	109,007
303,676	2,238	217,338	109,167
304,691	1,995	217,158	108,892
305,706	1,937	217,004	108,763
306,720	2,017	216,785	108,701
307,735	1,866	216,654	108,518
308,749	1,504	216,481	108,162
309,764	1,837	216,359	108,330
310,779	1,916	216,391	108,393
311,793	1,962	216,083	108,262
312,808	1,957	215,963	108,188
313,822	1,785	215,909	108,029
314,837	1,829	215,728	107,960
315,852	1,736	215,434	107,737
316,866	1,812	215,485	107,807
317,881	1,979	215,241	107,794
318,895	1,815	215,196	107,646
319,910	1,594	214,913	107,338
320,925	1,484	214,634	107,111
321,939	1,107	214,552	106,793
322,954	1,094	214,641	106,818
323,968	1,751	214,533	107,220
324,983	1,823	214,395	107,193
325,997	1,857	214,298	107,159
327,012	1,941	214,069	107,095
328,027	1,697	213,998	106,877
329,041	1,925	213,852	106,955
330,056	2,043	213,655	106,931
331,070	1,608	213,521	106,547
332,085	1,680	213,355	106,506
333,100	1,694	213,250	106,453
334,114	1,981	213,167	106,605
335,129	1,913	212,834	106,381
336,143	1,797	212,671	106,208
337,158	1,619	212,692	106,085
338,173	1,812	212,465	106,097
339,187	1,654	212,319	105,904
340,202	1,535	212,014	105,659
341,216	1,539	212,034	105,663
342,231	1,351	212,085	105,547
343,246	1,355	211,883	105,440
344,260	1,362	211,651	105,320
345,275	2,115	211,642	105,832
346,289	2,361	211,589	105,967
347,304	2,172	211,452	105,757
348,319	2,016	211,179	105,502
349,333	1,905	211,073	105,363
350,348	1,764	211,043	105,241
351,362	2,136	210,842	105,389
352,377	2,205	210,682	105,348
353,392	2,040	210,521	105,144
354,406	1,840	210,481	104,976
355,421	197,720	1314,331	1394,776
356,435	158,126	1448,780	1394,743
