DTS Sentinel unit serial number:	SN410029Multiplexer serial number:	ORYXHardware model number:	OX2-SRSoftware version number:	ORYX F/W v4,00 Oryx Data Collector v3.7.2.0data status	okinstallation	B6 Nyhavnadifferential loss correction	single-endedforward channel	channel 2reverse channel	N/Adate	2023/12/10time	06:30:08forward acquisition time	300,00reverse acquisition time	0,00gamma	499,1914k internal	0,3123k external	0,3123temperature offset calibration	1,0000default loss term (dB/km)	0,3820temperature slope calibration	1,0000multiplexer offset coefficient	1,0000multiplexer slope coefficient	1,0000fibre end	0,00T internal ref (°C)	22,58T ext. ref 1 (°C)	6,45T ext. ref 2 (°C)	6,45length (m)	temperature (°C)	Stokes	anti-Stokes-744,400	-200,000	0,011	-0,074
-743,385	-81,038	-0,303	0,074
-742,371	58,904	0,077	0,056
-741,356	800,000	-0,054	0,141
-740,342	-200,000	0,000	-0,042
-739,327	401,274	-0,067	0,105
-738,312	292,725	0,062	-0,084
-737,298	-49,295	-0,189	-0,067
-736,283	136,793	0,036	-0,035
-735,269	-65,604	-0,172	0,051
-734,254	-103,979	0,143	0,025
-733,239	-14,509	-0,344	-0,164
-732,225	-15,981	0,166	0,079
-731,210	295,023	-0,110	0,151
-730,196	-194,701	-0,018	-0,000
-729,181	-72,601	-0,113	0,031
-728,167	-200,000	-0,003	0,012
-727,152	-15,054	-0,037	-0,018
-726,137	800,000	-0,018	0,056
-725,123	-138,366	-0,032	-0,003
-724,108	187,653	-0,138	-0,154
-723,094	-13,773	-0,134	-0,064
-722,079	213,507	-0,066	-0,077
-721,064	-200,000	0,007	-0,094
-720,050	144,604	0,041	-0,041
-719,035	57,671	-0,099	0,072
-718,021	800,000	-0,032	-0,081
-717,006	13,538	-0,131	-0,076
-715,991	781,063	-0,046	-0,095
-714,977	800,000	-0,030	-0,085
-713,962	307,795	-0,040	0,056
-712,948	-73,231	0,037	0,010
-711,933	241,367	0,085	0,106
-710,918	-4,973	-0,060	0,031
-709,904	-200,000	0,016	-0,084
-708,889	70,396	-0,050	0,038
-707,875	-200,000	0,018	-0,105
-706,860	-200,000	-0,029	-0,159
-705,845	800,000	0,040	0,095
-704,831	800,000	-0,044	0,092
-703,816	409,359	-0,065	0,102
-702,802	49,450	-0,020	-0,014
-701,787	-80,599	-0,043	-0,010
-700,772	168,387	-0,044	-0,047
-699,758	-200,000	-0,011	0,063
-698,743	351,778	0,073	-0,107
-697,729	169,216	0,114	0,121
-696,714	-55,516	0,056	-0,019
-695,699	17,838	-0,092	-0,055
-694,685	134,332	-0,098	-0,095
-693,670	13,338	-0,136	-0,078
-692,656	616,608	-0,033	0,062
-691,641	-160,164	0,098	-0,004
-690,627	-200,000	-0,008	-0,074
-689,612	43,105	-0,039	0,026
-688,597	51,329	-0,128	0,090
-687,583	-200,000	-0,008	-0,098
-686,568	-169,640	0,099	-0,003
-685,554	71,208	-0,009	-0,007
-684,539	34,871	0,039	-0,025
-683,524	-42,475	0,079	-0,030
-682,510	-200,000	0,003	-0,161
-681,495	-200,000	0,003	0,065
-680,481	800,000	0,034	-0,074
-679,466	8,394	0,069	-0,038
-678,451	-200,000	0,022	0,098
-677,437	-60,716	-0,042	-0,013
-676,422	800,000	-0,024	0,066
-675,408	13,954	0,011	-0,006
-674,393	-10,117	0,055	-0,027
-673,378	-200,000	0,057	-0,219
-672,364	800,000	-0,036	-0,095
-671,349	136,745	-0,050	-0,048
-670,335	-123,993	-0,061	0,007
-669,320	-83,630	0,134	0,032
-668,305	130,981	0,067	-0,064
-667,291	-39,100	-0,087	0,034
-666,276	48,614	0,025	0,017
-665,262	57,021	-0,123	0,089
-664,247	165,049	0,074	-0,078
-663,232	-178,308	0,032	0,001
-662,218	64,862	0,068	0,051
-661,203	282,218	0,062	0,083
-660,189	-78,230	-0,128	0,032
-659,174	800,000	-0,034	-0,077
-658,159	-106,188	0,034	0,006
-657,145	800,000	0,028	0,058
-656,130	1,101	-0,012	-0,007
-655,116	-200,000	0,012	0,074
-654,101	309,733	-0,018	0,025
-653,086	-151,266	-0,095	-0,005
-652,072	166,933	0,061	0,065
-651,057	-46,083	-0,154	-0,056
-650,043	23,353	-0,078	-0,048
-649,028	800,000	0,014	0,034
-648,014	133,113	-0,065	0,063
-646,999	800,000	-0,058	0,166
-645,984	-107,355	0,101	0,016
-644,970	-200,000	0,001	-0,055
-643,955	619,984	-0,067	-0,125
-642,941	800,000	0,018	-0,047
-641,926	800,000	-0,019	0,040
-640,911	155,114	-0,048	0,049
-639,897	-200,000	-0,015	0,168
-638,882	-29,095	0,200	0,085
-637,868	5,761	-0,056	0,031
-636,853	800,000	-0,026	-0,081
-635,838	216,519	-0,065	0,077
-634,824	-12,236	-0,041	-0,020
-633,809	-83,944	-0,067	0,016
-632,795	69,801	-0,087	0,067
-631,780	230,235	0,084	0,102
-630,765	-60,940	-0,137	-0,043
-629,751	3,923	0,112	-0,061
-628,736	418,309	0,039	-0,062
-627,722	-200,000	-0,015	-0,206
-626,707	-200,000	0,006	-0,132
-625,692	-28,232	0,079	-0,034
-624,678	63,818	-0,066	-0,049
-623,663	-36,184	-0,118	-0,047
-622,649	512,774	-0,061	0,106
-621,634	-0,257	-0,111	-0,059
-620,619	-43,934	-0,070	0,026
-619,605	-200,000	0,003	0,089
-618,590	-151,957	0,111	-0,006
-617,576	-200,000	-0,010	0,075
-616,561	-144,989	0,081	-0,005
-615,546	379,835	-0,028	0,043
-614,532	-152,949	-0,138	-0,007
-613,517	226,971	-0,088	-0,106
-612,503	-200,000	0,027	-0,111
-611,488	309,349	-0,029	-0,040
-610,474	517,628	-0,045	-0,078
-609,459	350,539	0,129	-0,190
-608,444	347,208	0,035	-0,051
-607,430	800,000	-0,066	-0,191
-606,415	800,000	0,018	-0,040
-605,401	-29,716	0,154	-0,065
-604,386	-200,000	0,006	0,096
-603,371	-144,287	0,100	0,007
-602,357	81,248	-0,168	-0,134
-601,342	-200,000	-0,022	-0,090
-600,328	227,279	-0,100	-0,121
-599,313	-199,050	-0,216	0,001
-598,298	457,679	-0,019	0,031
-597,284	-200,000	0,004	-0,021
-596,269	-200,000	0,007	-0,039
-595,255	412,627	0,055	-0,087
-594,240	2,513	0,079	0,042
-593,225	0,440	-0,141	0,074
-592,211	9,315	-0,104	-0,058
-591,196	244,643	-0,036	0,045
-590,182	130,490	-0,031	0,029
-589,167	-58,571	0,096	-0,031
-588,152	182,230	0,062	0,068
-587,138	123,438	-0,089	0,083
-586,123	-40,328	-0,068	-0,026
-585,109	-111,680	-0,076	-0,011
-584,094	122,061	-0,068	0,063
-583,079	-82,003	-0,009	0,002
-582,065	-64,926	-0,018	0,005
-581,050	-200,000	0,011	-0,079
-580,036	-59,939	-0,050	0,016
-579,021	143,193	-0,054	-0,053
-578,006	134,496	-0,045	-0,043
-576,992	-20,967	0,015	0,007
-575,977	148,483	0,054	0,054
-574,963	-0,212	0,172	0,090
-573,948	102,236	-0,050	0,043
-572,934	-200,000	0,009	-0,102
-571,919	800,000	-0,010	-0,030
-570,904	800,000	-0,024	0,060
-569,890	190,421	0,046	0,051
-568,875	800,000	-0,032	-0,091
-567,861	-200,000	-0,009	0,120
-566,846	453,826	0,043	0,071
-565,831	464,011	0,010	-0,017
-564,817	330,957	-0,063	-0,090
-563,802	102,489	-0,068	-0,059
-562,788	-13,092	0,105	0,050
-561,773	-200,000	0,001	-0,094
-560,758	-146,296	-0,153	-0,010
-559,744	-72,736	0,061	-0,017
-558,729	271,621	0,025	0,033
-557,715	730,559	-0,078	0,156
-556,700	-191,301	-0,136	-0,001
-555,685	-59,719	-0,150	-0,047
-554,671	-193,182	-0,038	-0,000
-553,656	-200,000	0,000	-0,062
-552,642	-107,650	0,139	-0,022
-551,627	-200,000	0,006	0,127
-550,612	616,094	-0,038	0,070
-549,598	444,809	-0,068	-0,110
-548,583	24,952	-0,116	-0,071
-547,569	-144,195	0,086	-0,006
-546,554	-200,000	0,029	0,130
-545,539	-200,000	0,021	0,131
-544,525	200,452	0,043	-0,049
-543,510	429,025	-0,011	0,018
-542,496	-117,774	0,015	0,002
-541,481	-126,799	0,087	0,009
-540,466	-22,635	-0,048	0,021
-539,452	64,011	0,166	-0,123
-538,437	420,883	-0,071	-0,113
-537,423	-54,930	0,091	-0,030
-536,408	-112,056	0,122	0,018
-535,393	-71,553	0,019	-0,005
-534,379	-200,000	0,045	-0,189
-533,364	800,000	-0,009	-0,028
-532,350	-200,000	-0,016	0,070
-531,335	-200,000	-0,024	-0,079
-530,321	-30,213	0,114	0,047
-529,306	38,081	-0,043	0,028
-528,291	-64,815	0,033	0,010
-527,277	-200,000	-0,001	-0,076
-526,262	666,518	-0,031	0,060
-525,248	188,044	0,031	0,034
-524,233	-91,819	0,099	-0,021
-523,218	344,175	-0,080	0,116
-522,204	339,556	-0,027	0,038
-521,189	-107,269	0,013	-0,002
-520,175	-32,918	0,151	-0,062
-519,160	329,468	-0,067	-0,095
-518,145	-70,397	0,048	-0,013
-517,131	123,163	0,078	0,072
-516,116	-112,128	0,030	-0,004
-515,102	39,441	0,109	-0,072
-514,087	-52,692	-0,068	-0,023
-513,072	-0,308	-0,110	0,058
-512,058	257,262	0,040	0,051
-511,043	324,045	0,069	-0,098
-510,029	800,000	0,023	0,062
-509,014	239,536	-0,069	0,085
-507,999	-10,012	0,066	0,032
-506,985	-200,000	0,012	-0,100
-505,970	-108,287	-0,032	-0,005
-504,956	-13,201	0,024	-0,011
-503,941	-56,138	-0,104	0,034
-502,926	122,201	0,139	0,128
-501,912	-200,000	-0,006	0,076
-500,897	-171,718	-0,046	0,001
-499,883	-200,000	0,009	0,057
-498,868	-200,000	-0,013	0,058
-497,853	-200,000	-0,009	0,041
-496,839	443,633	0,100	0,162
-495,824	-70,908	0,052	0,014
-494,810	-106,358	0,050	-0,008
-493,795	-200,000	-0,053	0,185
-492,781	-200,000	0,001	-0,073
-491,766	-64,384	-0,083	-0,025
-490,751	146,215	0,129	-0,128
-489,737	115,199	-0,010	-0,009
-488,722	76,569	0,040	-0,032
-487,708	-200,000	-0,012	-0,131
-486,693	-200,000	0,011	0,106
-485,678	49,555	-0,108	0,075
-484,664	301,312	0,033	0,045
-483,649	30,929	-0,095	-0,060
-482,635	53,408	0,062	-0,044
-481,620	489,731	0,031	-0,053
-480,605	-200,000	-0,038	0,128
-479,591	800,000	0,052	-0,110
-478,576	-73,502	0,024	0,006
-477,562	195,882	0,061	-0,068
-476,547	-200,000	0,005	-0,136
-475,532	30,872	-0,176	-0,111
-474,518	56,547	0,064	-0,046
-473,503	340,520	0,064	-0,092
-472,489	-200,000	0,014	0,178
-471,474	-146,996	-0,094	-0,006
-470,459	800,000	-0,061	-0,155
-469,445	-123,161	0,122	-0,014
-468,430	-75,964	0,058	-0,015
-467,416	-31,126	0,060	-0,025
-466,401	-200,000	-0,022	0,093
-465,386	30,179	-0,101	0,064
-464,372	123,667	-0,038	-0,035
-463,357	800,000	-0,066	-0,157
-462,343	-200,000	0,008	-0,058
-461,328	-200,000	0,014	-0,068
-460,313	-93,312	-0,073	-0,015
-459,299	-200,000	-0,009	0,084
-458,284	-168,708	0,134	-0,004
-457,270	-109,035	-0,062	-0,010
-456,255	183,702	-0,007	0,007
-455,241	325,938	-0,034	-0,048
-454,226	-142,546	-0,170	-0,012
-453,211	67,888	0,055	-0,042
-452,197	-200,000	0,013	0,109
-451,182	-18,123	-0,050	-0,023
-450,168	51,215	-0,122	0,085
-449,153	-128,536	-0,060	0,006
-448,138	-38,540	-0,157	-0,061
-447,124	-200,000	-0,014	-0,067
-446,109	19,075	0,088	-0,052
-445,095	-157,002	-0,051	0,002
-444,080	96,552	-0,053	-0,044
-443,065	-56,666	-0,199	-0,064
-442,051	800,000	0,017	-0,054
-441,036	27,313	-0,026	0,016
-440,022	-62,267	-0,165	-0,050
-439,007	800,000	-0,029	0,082
-437,992	-67,311	0,039	0,011
-436,978	-200,000	0,007	0,129
-435,963	800,000	-0,036	0,097
-434,949	-200,000	0,008	0,068
-433,934	180,508	-0,096	-0,104
-432,919	130,191	0,034	0,032
-431,905	-84,956	0,087	0,020
-430,890	-200,000	0,008	0,035
-429,876	-53,592	0,086	-0,029
-428,861	191,783	0,030	0,034
-427,846	-200,000	0,032	-0,165
-426,832	-90,987	-0,030	0,006
-425,817	-119,302	0,109	0,014
-424,803	-177,618	-0,069	-0,001
-423,788	-200,000	-0,026	-0,128
-422,773	43,771	-0,025	-0,017
-421,759	-200,000	-0,030	0,103
-420,744	638,203	0,075	-0,141
-419,730	-53,064	-0,118	0,040
-418,715	-54,832	0,046	-0,015
-417,701	581,046	0,044	0,079
-416,686	-200,000	-0,003	0,040
-415,671	-17,674	-0,052	0,024
-414,657	161,218	-0,055	-0,056
-413,642	-200,000	-0,004	0,029
-412,628	-200,000	-0,001	0,041
-411,613	335,131	-0,096	-0,137
-410,598	-200,000	0,021	-0,072
-409,584	-108,612	0,135	0,021
-408,569	216,126	0,073	-0,085
-407,555	94,044	0,075	-0,062
-406,540	-200,000	0,016	0,087
-405,525	286,590	-0,034	0,046
-404,511	800,000	-0,024	0,060
-403,496	-200,000	0,008	0,080
-402,482	262,364	-0,062	0,080
-401,467	5,447	0,071	-0,038
-400,452	129,143	0,076	0,071
-399,438	126,530	-0,076	0,071
-398,423	315,610	-0,025	-0,035
-397,409	-25,543	-0,055	-0,024
-396,394	800,000	-0,011	-0,024
-395,379	-19,156	-0,096	-0,044
-394,365	-21,776	0,179	-0,080
-393,350	19,051	0,007	0,004
-392,336	-69,026	-0,104	0,029
-391,321	-46,735	0,025	-0,009
-390,306	418,881	0,066	0,104
-389,292	-32,974	-0,073	0,030
-388,277	-200,000	0,012	0,100
-387,263	-3,539	0,126	-0,064
-386,248	-71,771	-0,078	-0,021
-385,233	90,773	-0,105	0,087
-384,219	-37,593	0,029	0,011
-383,204	365,279	0,033	-0,048
-382,190	143,637	-0,058	-0,057
-381,175	-141,453	0,075	0,006
-380,160	622,314	0,015	0,028
-379,146	-200,000	-0,035	0,125
-378,131	-38,730	-0,025	0,010
-377,117	-154,567	0,014	0,001
-376,102	-200,000	-0,003	0,028
-375,088	280,641	-0,078	-0,103
-374,073	-200,000	0,012	-0,080
-373,058	81,711	-0,108	-0,086
-372,044	70,872	0,040	-0,030
-371,029	-19,878	-0,051	0,023
-370,015	655,894	0,071	0,134
-369,000	-28,135	0,096	0,040
-367,985	-200,000	0,005	-0,059
-366,971	652,998	0,014	-0,027
-365,956	-200,000	0,025	-0,118
-364,942	800,000	-0,034	-0,108
-363,927	56,598	0,081	-0,058
-362,912	7,476	-0,099	-0,054
-361,898	-200,000	-0,002	-0,013
-360,883	356,760	-0,045	-0,066
-359,869	41,463	-0,073	-0,049
-358,854	-158,874	-0,113	-0,005
-357,839	717,473	-0,027	-0,053
-356,825	-200,000	-0,003	0,169
-355,810	800,000	-0,020	0,046
-354,796	-150,240	0,071	-0,004
-353,781	-79,745	-0,129	-0,032
-352,766	-200,000	-0,023	-0,084
-351,752	-200,000	0,027	-0,096
-350,737	-54,390	0,080	0,027
-349,723	-73,606	0,155	0,041
-348,708	9,254	0,079	-0,044
-347,693	18,804	0,066	0,039
-346,679	-200,000	0,003	-0,041
-345,664	30,288	-0,025	-0,016
-344,650	-160,711	-0,104	-0,004
-343,635	109,708	0,144	0,127
-342,620	-36,001	-0,057	-0,023
-341,606	800,000	0,027	-0,065
-340,591	188,386	0,055	0,061
-339,577	543,528	-0,065	0,114
-338,562	-200,000	-0,038	-0,123
-337,548	281,496	-0,013	0,017
-336,533	558,089	0,052	0,092
-335,518	-55,365	0,044	0,015
-334,504	98,466	0,075	0,063
-333,489	1,795	-0,074	0,039
-332,475	800,000	-0,062	0,156
-331,460	-200,000	0,010	-0,109
-330,445	299,549	-0,044	0,060
-329,431	24,194	-0,053	-0,032
-328,416	-200,000	-0,013	-0,067
-327,402	373,476	0,038	-0,057
-326,387	-92,673	0,111	-0,023
-325,372	-34,243	0,058	-0,023
-324,358	-160,703	0,071	0,003
-323,343	-190,707	0,124	0,001
-322,329	759,054	0,039	-0,078
-321,314	-44,191	-0,097	-0,035
-320,299	-27,585	0,081	-0,035
-319,285	190,619	0,093	0,103
-318,270	-132,892	-0,145	-0,013
-317,256	-52,866	-0,069	-0,023
-316,241	257,017	0,101	0,127
-315,226	-123,805	0,128	0,015
-314,212	27,192	0,127	-0,078
-313,197	-200,000	-0,020	0,134
-312,183	54,392	0,079	-0,055
-311,168	800,000	0,023	-0,047
-310,153	23,253	-0,075	-0,045
-309,139	553,491	0,099	0,175
-308,124	-200,000	0,022	0,144
-307,110	185,033	0,099	0,108
-306,095	752,094	0,013	-0,027
-305,080	-200,000	-0,008	0,037
-304,066	-200,000	0,005	-0,023
-303,051	578,742	-0,049	-0,088
-302,037	-96,423	-0,010	-0,002
-301,022	41,363	-0,075	-0,049
-300,008	-150,836	0,241	0,013
-298,993	-8,140	0,106	0,052
-297,978	-200,000	-0,003	0,046
-296,964	49,618	-0,075	-0,052
-295,949	-200,000	-0,008	-0,056
-294,935	34,774	-0,051	-0,033
-293,920	-200,000	0,023	0,097
-292,905	-200,000	-0,010	0,049
-291,891	800,000	-0,031	0,076
-290,876	20,495	-0,064	-0,038
-289,862	249,309	0,066	-0,082
-288,847	-200,000	0,041	0,235
-287,832	1,575	-0,081	0,042
-286,818	-200,000	0,005	0,131
-285,803	141,991	0,085	0,083
-284,789	-0,014	-0,151	-0,078
-283,774	321,160	0,080	0,112
-282,759	800,000	-0,038	0,120
-281,745	80,881	0,067	-0,053
-280,730	-200,000	-0,024	0,117
-279,716	-98,740	-0,134	0,025
-278,701	800,000	0,062	-0,150
-277,686	454,396	0,045	0,073
-276,672	-200,000	0,009	0,077
-275,657	-26,509	-0,090	0,039
-274,643	-79,860	0,059	-0,014
-273,628	228,474	-0,112	-0,134
-272,613	73,270	-0,098	0,075
-271,599	-35,349	-0,116	-0,046
-270,584	407,489	-0,005	-0,008
-269,570	-29,104	0,091	0,038
-268,555	25,689	-0,030	0,018
-267,540	164,374	-0,049	-0,051
-266,526	-54,772	-0,103	0,034
-265,511	800,000	-0,014	0,039
-264,497	106,757	0,076	-0,066
-263,482	183,443	-0,048	-0,052
-262,467	-200,000	0,029	0,099
-261,453	34,028	-0,072	-0,046
-260,438	406,551	-0,023	-0,035
-259,424	-162,619	-0,015	0,001
-258,409	-111,715	0,056	0,008
-257,395	68,437	-0,119	-0,089
-256,380	-119,435	0,141	0,018
-255,365	195,432	0,134	0,149
-254,351	-132,811	0,063	0,006
-253,336	-161,979	-0,072	0,003
-252,322	-200,000	-0,005	-0,110
-251,307	-200,000	-0,007	0,044
-250,292	230,889	0,069	-0,083
-249,278	-100,940	0,069	-0,012
-248,263	-150,244	-0,058	0,003
-247,249	271,741	-0,050	-0,064
-246,234	340,291	-0,021	0,030
-245,219	800,000	0,057	-0,116
-244,205	76,759	0,105	-0,081
-243,190	-97,078	-0,096	0,018
-242,176	-200,000	-0,025	0,081
-241,161	524,942	0,048	-0,083
-240,146	103,560	-0,038	-0,033
-239,132	-193,102	-0,016	-0,000
-238,117	-144,758	-0,134	-0,009
-237,103	157,991	-0,108	-0,110
-236,088	105,362	0,009	-0,008
-235,073	15,348	-0,057	0,033
-234,059	-89,657	0,044	0,009
-233,044	-200,000	0,014	0,068
-232,030	800,000	0,013	0,032
-231,015	202,725	0,053	-0,059
-230,000	800,000	-0,029	-0,078
-228,986	800,000	0,044	0,139
-227,971	-9,006	-0,025	0,012
-226,957	-200,000	-0,001	0,086
-225,942	3,705	0,097	0,052
-224,927	45,369	0,049	-0,033
-223,913	-29,661	-0,098	-0,041
-222,898	-48,982	-0,062	0,021
-221,884	800,000	0,020	0,049
-220,869	-200,000	0,013	0,131
-219,855	-200,000	0,025	0,103
-218,840	344,865	-0,087	0,125
-217,825	548,572	-0,018	-0,031
-216,811	141,735	0,083	-0,081
-215,796	-74,798	-0,047	0,012
-214,782	-35,725	0,092	-0,036
-213,767	4,904	0,146	-0,078
-212,752	-200,000	0,009	-0,099
-211,738	-29,584	0,169	0,070
-210,723	-10,349	0,045	0,021
-209,709	-200,000	-0,004	-0,031
-208,694	-36,923	-0,070	0,027
-207,679	-109,042	-0,080	0,012
-206,665	-20,713	0,094	-0,042
-205,650	122,871	0,079	0,072
-204,636	-200,000	0,014	0,141
-203,621	-200,000	0,000	0,063
-202,606	137,199	-0,036	0,035
-201,592	-55,682	-0,098	0,032
-200,577	80,613	-0,040	-0,031
-199,563	-200,000	-0,009	0,109
-198,548	800,000	0,059	0,149
-197,533	800,000	-0,024	0,069
-196,519	32,894	0,139	-0,087
-195,504	212,834	-0,039	-0,045
-194,490	92,675	-0,131	-0,108
-193,475	352,714	-0,039	0,056
-192,460	-200,000	0,020	0,083
-191,446	-42,010	0,028	0,010
-190,431	800,000	0,019	0,061
-189,417	294,353	-0,051	0,068
-188,402	192,081	0,057	0,063
-187,387	43,851	-0,064	-0,043
-186,373	-10,286	0,029	0,014
-185,358	237,122	-0,037	0,045
-184,344	22,590	0,099	-0,059
-183,329	-200,000	0,015	-0,090
-182,315	401,241	-0,014	-0,021
-181,300	-19,565	0,124	-0,056
-180,285	-45,364	-0,054	0,020
-179,271	-29,706	0,032	-0,013
-178,256	-200,000	-0,005	0,055
-177,242	182,067	0,060	-0,064
-176,227	-40,105	0,131	-0,049
-175,212	92,230	0,057	-0,047
-174,198	-114,736	-0,139	0,019
-173,183	-200,000	-0,010	-0,160
-172,169	800,000	0,027	-0,068
-171,154	-200,000	0,004	-0,084
-170,139	800,000	-0,049	0,130
-169,125	-200,000	0,035	0,128
-168,110	-31,159	0,090	-0,037
-167,096	-25,756	0,075	0,032
-166,081	-194,014	0,073	-0,000
-165,066	641,403	-0,016	-0,030
-164,052	800,000	-0,028	-0,081
-163,037	-200,000	0,019	0,163
-162,023	-86,968	0,087	0,019
-161,008	800,000	0,044	-0,118
-159,993	13,760	0,117	0,066
-158,979	800,000	-0,005	-0,012
-157,964	800,000	-0,034	-0,080
-156,950	-23,491	-0,043	0,019
-155,935	0,970	-0,086	-0,045
-154,920	77,986	0,059	0,046
-153,906	123,541	0,142	0,130
-152,891	-200,000	0,013	-0,052
-151,877	-134,894	0,025	0,002
-150,862	91,594	-0,169	0,138
-149,847	-43,354	-0,032	0,012
-148,833	-200,000	-0,007	-0,113
-147,818	-41,381	-0,010	0,004
-146,804	-91,080	-0,058	0,012
-145,789	661,239	-0,098	0,184
-144,775	-200,000	-0,010	-0,035
-143,760	-121,521	-0,173	-0,021
-142,745	277,692	-0,091	0,118
-141,731	349,306	-0,053	-0,077
-140,716	-191,718	0,104	0,001
-139,702	353,631	-0,046	-0,066
-138,687	19,532	0,230	0,134
-137,672	-26,118	-0,116	-0,050
-136,658	146,825	-0,108	-0,106
-135,643	-200,000	0,004	0,075
-134,629	-89,329	0,178	0,038
-133,614	454,961	0,041	-0,067
-132,599	-99,318	0,201	-0,037
-131,585	-38,373	0,098	0,038
-130,570	-200,000	-0,004	-0,035
-129,556	246,705	0,039	-0,048
-128,541	261,097	-0,066	-0,084
-127,526	800,000	0,051	-0,111
-126,512	-200,000	0,004	-0,174
-125,497	-135,705	0,089	-0,008
-124,483	100,334	0,003	-0,003
-123,468	505,418	-0,096	0,162
-122,453	-200,000	-0,017	-0,170
-121,439	131,730	0,069	0,064
-120,424	-57,246	0,163	-0,052
-119,410	485,857	0,034	-0,056
-118,395	-200,000	0,029	-0,097
-117,380	-53,501	-0,075	0,025
-116,366	800,000	-0,034	0,071
-115,351	31,367	0,114	0,071
-114,337	-200,000	-0,002	-0,164
-113,322	466,866	-0,041	0,067
-112,307	25,232	-0,145	-0,087
-111,293	27,274	0,029	-0,017
-110,278	-90,150	-0,028	-0,006
-109,264	-95,020	-0,097	-0,019
-108,249	37,966	0,092	-0,059
-107,234	-151,816	-0,074	-0,004
-106,220	22,094	0,059	0,035
-105,205	1,697	-0,119	-0,062
-104,191	25,475	0,061	-0,037
-103,176	-200,000	-0,021	0,072
-102,162	365,843	-0,016	0,024
-101,147	-121,071	-0,044	-0,005
-100,132	727,374	0,012	0,023
-99,118	-200,000	-0,010	-0,054
-98,103	-200,000	-0,007	0,056
-97,089	770,659	-0,064	0,128
-96,074	-187,590	0,037	-0,000
-95,059	16,325	-0,092	0,053
-94,045	-200,000	0,035	-0,150
-93,030	-27,310	-0,123	-0,052
-92,016	-200,000	-0,008	-0,058
-91,001	-200,000	-0,044	-0,173
-89,986	800,000	0,026	-0,067
-88,972	-200,000	-0,011	-0,054
-87,957	800,000	-0,085	0,177
-86,943	-62,260	0,004	-0,001
-85,928	-108,895	-0,195	0,030
-84,913	-59,679	-0,029	-0,009
-83,899	37,397	-0,042	0,027
-82,884	146,952	0,070	-0,069
-81,870	-200,000	-0,007	0,059
-80,855	-98,153	-0,070	-0,013
-79,840	-104,081	0,093	0,016
-78,826	-31,861	0,059	0,024
-77,811	-94,092	0,037	-0,007
-76,797	26,807	-0,014	0,008
-75,782	-200,000	-0,003	0,036
-74,767	800,000	0,034	0,072
-73,753	-33,060	-0,135	0,054
-72,738	308,343	0,084	0,115
-71,724	-84,974	0,028	0,006
-70,709	800,000	0,040	0,084
-69,694	-27,742	0,088	-0,037
-68,680	-200,000	0,003	0,098
-67,665	349,912	-0,093	0,134
-66,651	28,865	0,005	0,003
-65,636	38,030	-0,068	0,044
-64,622	13,449	-0,077	-0,043
-63,607	800,000	0,020	0,060
-62,592	89,816	0,067	-0,054
-61,578	408,089	-0,050	-0,076
-60,563	-52,908	-0,097	0,032
-59,549	-200,000	-0,062	0,209
-58,534	-159,270	-1,369	-0,055
-57,519	800,000	-0,671	-1,534
-56,505	-200,000	-0,914	-4,389
-55,490	17,302	0,697	-0,400
-54,476	800,000	5,040	11,811
-53,461	-200,000	13,456	253,287
-52,446	-200,000	689,073	2269,053
-51,432	595,705	1623,280	2927,103
-50,417	120,823	1636,374	1476,208
-49,403	73,597	1290,388	979,536
-48,388	38,393	1025,189	661,359
-47,373	24,533	982,654	588,327
-46,359	23,768	972,285	579,586
-45,344	22,844	967,892	573,922
-44,330	22,762	966,660	572,901
-43,315	22,653	965,192	571,652
-42,300	22,614	964,226	570,930
-41,286	22,641	963,245	570,416
-40,271	22,595	962,279	569,671
-39,257	22,617	961,219	569,093
-38,242	22,577	960,338	568,420
-37,227	22,592	959,608	568,012
-36,213	22,533	958,876	567,366
-35,198	22,557	957,918	566,853
-34,184	22,596	957,186	566,525
-33,169	22,561	956,309	565,872
-32,154	22,687	955,468	565,758
-31,140	22,555	954,582	564,784
-30,125	22,572	953,799	564,353
-29,111	22,589	952,921	563,866
-28,096	22,600	952,341	563,534
-27,082	22,647	951,601	563,226
-26,067	22,634	950,826	562,703
-25,052	22,664	949,973	562,274
-24,038	22,616	949,310	561,703
-23,023	22,703	948,601	561,541
-22,009	22,712	947,983	561,184
-20,994	22,648	947,623	560,743
-19,979	22,657	946,919	560,331
-18,965	22,539	946,512	559,693
-17,950	22,678	945,543	559,541
-16,936	22,644	944,943	559,054
-15,921	22,639	944,317	558,647
-14,906	22,520	943,644	557,845
-13,892	22,560	942,948	557,542
-12,877	22,530	942,395	557,096
-11,863	22,453	941,741	556,441
-10,848	22,483	941,313	556,262
-9,833	22,584	940,807	556,264
-8,819	22,524	940,321	555,762
-7,804	22,486	939,486	555,126
-6,790	22,521	938,871	554,851
-5,775	22,550	938,260	554,559
-4,760	22,565	937,626	554,211
-3,746	22,526	936,808	553,583
-2,731	22,376	936,298	552,785
-1,717	22,318	935,635	552,188
-0,702	22,358	934,952	551,890
0,313	22,068	934,336	551,444
1,327	25,193	932,283	560,016
2,342	34,678	796,811	503,918
3,356	32,664	451,757	282,639
4,371	1,732	293,671	152,889
5,386	-2,946	274,678	138,562
6,400	-4,152	268,735	134,434
7,415	-4,487	266,381	132,937
8,429	-4,126	265,137	132,635
9,444	-4,139	264,304	132,194
10,459	-4,126	263,563	131,823
11,473	-4,250	263,058	131,447
12,488	-4,413	262,611	131,064
13,502	-4,484	262,048	130,707
14,517	-4,288	261,520	130,609
15,531	-4,372	261,162	130,343
16,546	-4,419	260,959	130,187
17,561	-4,314	260,414	129,998
18,575	-4,117	260,116	130,015
19,590	-4,425	259,760	129,549
20,604	-4,208	259,518	129,611
21,619	-4,354	259,381	129,400
22,634	-4,300	258,848	129,172
23,648	-4,229	258,646	129,123
24,663	-4,267	258,280	128,894
25,677	-4,305	258,026	128,723
26,692	-4,550	257,912	128,437
27,707	-4,243	257,612	128,548
28,721	-4,301	257,263	128,311
29,736	-4,304	256,924	128,128
30,750	-4,632	256,804	127,767
31,765	-4,331	256,576	127,908
32,780	-4,447	256,191	127,602
33,794	-4,465	256,200	127,579
34,809	-4,550	255,951	127,369
35,823	-4,522	255,559	127,187
36,838	-4,340	255,289	127,202
37,853	-4,330	255,026	127,067
38,867	-4,416	254,873	126,905
39,882	-4,637	254,789	126,657
40,896	-4,475	254,536	126,663
41,911	-4,487	254,252	126,500
42,926	-4,196	253,935	126,585
43,940	-4,485	253,829	126,269
44,955	-4,545	253,616	126,099
45,969	-4,721	253,315	125,785
46,984	-4,781	253,200	125,664
47,999	-4,846	252,836	125,416
49,013	-4,986	252,603	125,167
50,028	-5,234	252,342	124,812
51,042	-5,048	251,903	124,744
52,057	-5,262	251,807	124,501
53,071	-5,390	251,676	124,314
54,086	-5,283	251,492	124,305
55,101	-5,021	251,350	124,449
56,115	-4,610	251,166	124,702
57,130	-4,440	251,127	124,818
58,144	-4,109	250,884	124,972
59,159	-4,291	250,813	124,768
60,174	-4,149	250,460	124,704
61,188	-4,198	250,249	124,545
62,203	-4,240	250,143	124,445
63,217	-4,277	249,907	124,286
64,232	-4,169	249,632	124,230
65,247	-4,331	249,443	123,986
66,261	-4,096	249,152	124,031
67,276	-4,590	248,970	123,508
68,290	-4,668	248,870	123,380
69,305	-4,708	248,480	123,142
70,320	-4,802	248,397	123,009
71,334	-4,680	248,300	123,054
72,349	-4,353	248,095	123,220
73,363	-4,222	247,951	123,249
74,378	-4,142	247,682	123,173
75,393	-4,134	247,408	123,032
76,407	-4,372	247,161	122,697
77,422	-4,248	247,066	122,744
78,436	-4,205	246,810	122,642
79,451	-4,444	246,653	122,351
80,466	-4,426	246,336	122,198
81,480	-4,405	246,160	122,117
82,495	-4,379	245,804	121,952
83,509	-4,498	245,740	121,809
84,524	-4,682	245,583	121,565
85,539	-4,678	245,439	121,487
86,553	-4,756	245,143	121,264
87,568	-4,522	245,000	121,378
88,582	-4,431	244,751	121,320
89,597	-4,758	244,555	120,938
90,611	-4,495	244,536	121,139
91,626	-4,455	244,537	121,162
92,641	-4,302	244,140	121,082
93,655	-4,676	244,060	120,719
94,670	-4,489	243,762	120,717
95,684	-4,438	243,647	120,692
96,699	-4,388	243,496	120,648
97,714	-4,650	243,249	120,297
98,728	-4,592	243,001	120,212
99,743	-4,705	242,794	120,005
100,757	-4,701	242,650	119,926
101,772	-4,700	242,407	119,796
102,787	-4,597	242,178	119,758
103,801	-4,603	242,213	119,759
104,816	-4,387	241,990	119,817
105,830	-4,637	241,846	119,529
106,845	-4,296	241,746	119,750
107,860	-4,467	241,413	119,433
108,874	-4,400	241,225	119,385
109,889	-4,604	241,067	119,128
110,903	-4,520	240,932	119,120
111,918	-4,647	240,754	118,917
112,933	-4,736	240,575	118,744
113,947	-4,414	240,333	118,879
114,962	-4,433	240,216	118,795
115,976	-4,465	240,027	118,665
116,991	-4,415	239,828	118,597
118,006	-4,570	239,632	118,363
119,020	-4,478	239,596	118,409
120,035	-4,403	239,473	118,400
121,049	-4,375	239,293	118,322
122,064	-4,452	239,156	118,181
123,079	-4,380	238,872	118,089
124,093	-4,564	238,728	117,858
125,108	-4,644	238,439	117,639
126,122	-4,771	238,175	117,395
127,137	-4,960	238,056	117,173
128,151	-4,829	237,804	117,144
129,166	-4,593	237,794	117,320
130,181	-4,697	237,504	117,083
131,195	-4,595	237,319	117,064
132,210	-4,533	237,309	117,099
133,224	-4,570	237,266	117,037
134,239	-4,427	236,844	116,934
135,254	-4,509	236,919	116,894
136,268	-4,412	236,376	116,694
137,283	-4,803	236,282	116,322
138,297	-4,715	236,028	116,258
139,312	-4,978	235,922	115,983
140,327	-4,531	235,780	116,263
141,341	-4,167	235,849	116,579
142,356	-4,063	235,869	116,662
143,370	-4,223	235,543	116,362
144,385	-4,024	235,280	116,382
145,400	-3,999	235,169	116,336
146,414	-4,183	235,029	116,109
147,429	-4,103	234,881	116,089
148,443	-3,917	234,586	116,082
149,458	-3,968	234,413	115,946
150,473	-4,280	234,366	115,663
151,487	-4,354	234,121	115,473
152,502	-4,119	234,012	115,596
153,516	-4,226	233,930	115,460
154,531	-3,899	233,611	115,552
155,546	-4,229	233,534	115,241
156,560	-4,086	233,247	115,203
157,575	-4,231	233,148	115,029
158,589	-4,130	232,894	114,973
159,604	-4,132	232,809	114,919
160,619	-3,988	232,716	114,977
161,633	-4,094	232,513	114,783
162,648	-4,166	232,388	114,654
163,662	-4,208	232,052	114,445
164,677	-4,224	232,040	114,416
165,692	-4,033	231,872	114,474
166,706	-4,034	231,810	114,432
167,721	-4,051	231,608	114,309
168,735	-3,990	231,511	114,299
169,750	-3,982	231,321	114,201
170,764	-4,072	231,170	114,046
171,779	-3,970	230,920	113,992
172,794	-4,101	230,887	113,863
173,808	-4,108	230,602	113,706
174,823	-4,511	230,333	113,248
175,837	-4,600	230,132	113,070
176,852	-4,441	230,025	113,132
177,867	-4,061	230,058	113,434
178,881	-4,101	230,014	113,371
179,896	-3,595	229,673	113,589
180,910	-3,917	229,513	113,248
181,925	-4,083	229,436	113,070
182,940	-4,156	229,423	112,997
183,954	-4,026	229,090	112,924
184,969	-3,872	229,160	113,068
185,983	-3,853	228,807	112,899
186,998	-3,937	228,601	112,722
188,013	-3,945	228,674	112,742
189,027	-3,842	228,401	112,677
190,042	-3,470	228,019	112,767
191,056	-3,806	228,034	112,504
192,071	-3,797	227,906	112,438
193,086	-4,107	227,830	112,150
194,100	-4,134	227,630	112,021
195,115	-4,199	227,218	111,758
196,129	-4,464	227,082	111,477
197,144	-1,980	227,772	113,725
198,159	1,208	228,967	116,783
199,173	3,969	229,282	119,072
200,188	4,477	229,369	119,500
201,202	4,321	229,179	119,270
202,217	4,342	229,139	119,254
203,232	4,468	229,187	119,366
204,246	4,505	228,960	119,266
205,261	4,473	228,770	119,131
206,275	4,868	228,571	119,322
207,290	4,865	228,418	119,229
208,304	4,969	228,276	119,224
209,319	4,679	228,215	118,958
210,334	4,782	228,006	118,918
211,348	4,648	227,640	118,614
212,363	4,036	227,525	118,074
213,377	3,844	227,343	117,822
214,392	3,976	227,088	117,781
215,407	3,915	227,010	117,683
216,421	4,068	226,876	117,720
217,436	4,109	226,543	117,568
218,450	3,805	226,440	117,271
219,465	3,592	226,354	117,054
220,480	3,809	226,140	117,099
221,494	3,799	226,082	117,051
222,509	3,741	226,034	116,971
223,523	3,917	225,742	116,943
224,538	3,846	225,695	116,854
225,553	3,838	225,523	116,749
226,567	3,881	225,403	116,709
227,582	4,197	225,238	116,853
228,596	4,336	225,198	116,928
229,611	3,874	225,009	116,468
230,626	3,753	224,771	116,244
231,640	3,835	224,506	116,158
232,655	4,253	224,426	116,422
233,669	4,431	224,522	116,596
234,684	4,608	224,300	116,604
235,699	4,175	224,168	116,198
236,713	4,226	223,883	116,079
237,728	3,978	223,658	115,765
238,742	3,970	223,547	115,691
239,757	3,783	223,357	115,442
240,772	3,546	223,219	115,183
241,786	3,872	223,133	115,373
242,801	4,148	223,018	115,510
243,815	4,348	223,004	115,642
244,830	4,418	222,841	115,600
245,844	4,164	222,598	115,273
246,859	4,140	222,402	115,143
247,874	4,190	222,388	115,163
248,888	4,182	222,242	115,072
249,903	4,064	222,063	114,880
250,917	3,890	221,827	114,619
251,932	3,816	221,740	114,508
252,947	3,964	221,582	114,526
253,961	3,791	221,329	114,257
254,976	3,928	221,129	114,245
255,990	4,096	221,201	114,397
257,005	4,150	221,089	114,369
258,020	3,941	220,864	114,088
259,034	4,324	220,943	114,402
260,049	4,405	220,666	114,309
261,063	4,092	220,488	113,974
262,078	4,507	220,251	114,149
263,093	4,324	220,304	114,030
264,107	4,055	220,130	113,732
265,122	4,282	220,038	113,842
266,136	4,370	219,962	113,857
267,151	4,364	219,717	113,716
268,166	3,877	219,435	113,201
269,180	3,864	219,280	113,101
270,195	3,815	219,095	112,960
271,209	3,720	219,106	112,886
272,224	3,989	218,862	112,947
273,239	3,967	218,858	112,919
274,253	4,015	218,580	112,801
275,268	3,842	218,377	112,559
276,282	3,765	218,208	112,406
277,297	3,695	218,066	112,271
278,312	3,580	218,044	112,167
279,326	3,984	217,858	112,355
280,341	3,785	217,637	112,086
281,355	4,000	217,558	112,192
282,370	4,135	217,415	112,207
283,384	3,969	217,101	111,914
284,399	3,627	217,080	111,645
285,414	3,755	216,959	111,666
286,428	3,967	216,780	111,717
287,443	4,072	216,690	111,738
288,457	4,169	216,661	111,782
289,472	4,134	216,463	111,645
290,487	3,393	216,288	111,008
291,501	3,405	216,103	110,912
292,516	3,573	215,912	110,925
293,530	3,566	215,924	110,916
294,545	3,702	215,707	110,894
295,560	3,795	215,593	110,892
296,574	3,619	215,663	110,791
297,589	3,771	215,436	110,775
298,603	3,988	215,214	110,807
299,618	4,093	215,111	110,819
300,633	4,223	214,931	110,810
301,647	4,191	214,745	110,682
302,662	4,214	214,822	110,728
303,676	4,052	214,743	110,561
304,691	4,152	214,518	110,507
305,706	4,212	214,459	110,510
306,720	4,097	214,095	110,230
307,735	4,192	213,759	110,115
308,749	3,931	213,789	109,934
309,764	4,025	213,915	110,056
310,779	4,197	213,662	110,039
311,793	4,163	213,558	109,952
312,808	4,061	213,422	109,799
313,822	4,050	213,222	109,679
314,837	4,189	213,018	109,662
315,852	3,938	212,793	109,359
316,866	3,813	212,798	109,262
317,881	4,285	212,660	109,517
318,895	4,119	212,453	109,283
319,910	4,146	212,371	109,251
320,925	3,744	212,078	108,805
321,939	3,392	211,880	108,445
322,954	3,601	211,892	108,589
323,968	3,915	211,920	108,816
324,983	4,134	211,663	108,829
325,997	4,345	211,589	108,930
327,012	3,877	211,482	108,535
328,027	3,796	211,468	108,461
329,041	4,529	211,276	108,870
330,056	4,586	211,038	108,778
331,070	3,913	210,896	108,221
332,085	3,591	210,638	107,853
333,100	3,700	210,650	107,926
334,114	4,297	210,452	108,234
335,129	4,084	210,387	108,041
336,143	3,946	209,983	107,728
337,158	3,868	210,131	107,740
338,173	4,163	209,907	107,821
339,187	3,850	209,681	107,477
340,202	3,485	209,592	107,166
341,216	3,702	209,352	107,186
342,231	3,642	209,444	107,181
343,246	3,620	209,296	107,081
344,260	3,751	209,156	107,091
345,275	3,697	209,069	107,000
346,289	3,936	209,020	107,130
347,304	4,170	208,757	107,149
348,319	4,125	208,580	107,018
349,333	3,895	208,624	106,871
350,348	3,962	208,441	106,814
351,362	4,158	208,329	106,883
352,377	4,094	208,149	106,737
353,392	3,706	207,958	106,361
354,406	3,619	208,000	106,312
355,421	194,610	1346,386	1437,093
356,435	155,292	1485,186	1437,223
