DTS Sentinel unit serial number:	SN410029Multiplexer serial number:	ORYXHardware model number:	OX2-SRSoftware version number:	ORYX F/W v4,00 Oryx Data Collector v3.7.2.0data status	okinstallation	B6 Nyhavnadifferential loss correction	single-endedforward channel	channel 2reverse channel	N/Adate	2023/12/08time	17:50:08forward acquisition time	300,00reverse acquisition time	0,00gamma	499,1914k internal	0,3158k external	0,3158temperature offset calibration	1,0000default loss term (dB/km)	0,3820temperature slope calibration	1,0000multiplexer offset coefficient	1,0000multiplexer slope coefficient	1,0000fibre end	0,00T internal ref (°C)	15,19T ext. ref 1 (°C)	-1,28T ext. ref 2 (°C)	-1,27length (m)	temperature (°C)	Stokes	anti-Stokes-744,400	60,469	0,033	-0,024
-743,385	49,042	-0,211	0,146
-742,371	-200,000	0,032	0,186
-741,356	-139,227	-0,306	0,024
-740,342	201,029	0,060	0,069
-739,327	-152,613	-0,316	-0,016
-738,312	424,081	0,039	0,062
-737,298	-40,066	-0,202	-0,077
-736,283	-144,850	0,123	0,008
-735,269	-200,000	-0,216	0,001
-734,254	102,484	0,099	0,085
-733,239	-20,469	-0,439	-0,198
-732,225	30,719	0,153	0,096
-731,210	57,234	-0,025	-0,018
-730,196	-26,449	-0,137	-0,059
-729,181	69,254	-0,104	-0,079
-728,167	-38,086	0,067	0,026
-727,152	403,126	-0,088	-0,137
-726,137	800,000	-0,023	-0,054
-725,123	5,282	-0,088	-0,047
-724,108	129,656	-0,074	-0,070
-723,094	207,325	-0,042	0,049
-722,079	132,219	0,049	0,047
-721,064	418,107	-0,016	-0,026
-720,050	-92,668	-0,064	-0,013
-719,035	752,743	0,032	-0,064
-718,021	-162,000	-0,117	0,004
-717,006	-71,241	0,097	0,027
-715,991	38,163	-0,073	-0,048
-714,977	-200,000	-0,012	0,039
-713,962	126,055	-0,130	-0,121
-712,948	-94,176	0,034	-0,007
-711,933	-157,773	0,039	0,002
-710,918	66,297	-0,030	0,023
-709,904	-11,540	-0,065	-0,031
-708,889	218,071	-0,073	-0,086
-707,875	221,332	-0,162	-0,192
-706,860	257,944	-0,016	0,020
-705,845	-58,126	0,031	-0,010
-704,831	532,590	0,087	0,152
-703,816	55,998	-0,062	-0,045
-702,802	-71,738	-0,073	0,020
-701,787	-144,704	-0,033	0,002
-700,772	278,675	0,057	-0,075
-699,758	-200,000	-0,002	-0,188
-698,743	-12,949	-0,032	0,015
-697,729	260,592	-0,030	-0,039
-696,714	674,508	0,010	-0,019
-695,699	360,237	0,023	0,034
-694,685	-200,000	-0,062	0,000
-693,670	-22,468	-0,032	-0,014
-692,656	-64,600	-0,142	-0,042
-691,641	-200,000	0,009	-0,073
-690,627	-200,000	0,016	0,054
-689,612	-105,869	0,196	0,032
-688,597	41,295	-0,181	-0,120
-687,583	28,336	-0,062	0,038
-686,568	8,387	-0,157	-0,086
-685,554	-98,267	-0,145	-0,027
-684,539	-165,929	0,026	0,001
-683,524	-134,352	0,196	-0,017
-682,510	-26,704	-0,049	-0,021
-681,495	680,809	0,034	0,065
-680,481	198,635	0,054	-0,061
-679,466	-200,000	0,020	-0,100
-678,451	-200,000	-0,006	-0,097
-677,437	405,312	-0,023	0,035
-676,422	306,140	0,031	0,043
-675,408	403,725	0,050	-0,078
-674,393	-200,000	-0,031	0,118
-673,378	-1,085	-0,128	0,066
-672,364	-2,760	-0,170	0,087
-671,349	281,428	0,025	-0,033
-670,335	700,420	-0,036	-0,070
-669,320	312,454	-0,069	-0,095
-668,305	-200,000	0,042	0,184
-667,291	800,000	0,029	0,079
-666,276	58,226	-0,104	0,074
-665,262	5,744	-0,148	-0,080
-664,247	-114,676	0,131	-0,018
-663,232	800,000	-0,047	-0,129
-662,218	163,212	-0,087	-0,090
-661,203	800,000	-0,020	-0,061
-660,189	132,016	-0,073	-0,069
-659,174	-200,000	0,015	-0,119
-658,159	-86,529	-0,234	-0,052
-657,145	72,923	-0,139	-0,107
-656,130	646,794	0,050	0,094
-655,116	-200,000	-0,007	0,035
-654,101	800,000	-0,017	-0,042
-653,086	-128,267	0,150	0,016
-652,072	164,725	-0,157	-0,162
-651,057	124,819	-0,040	-0,037
-650,043	-175,510	0,125	0,002
-649,028	284,179	-0,028	0,037
-648,014	-114,851	-0,065	0,009
-646,999	-121,916	-0,079	0,009
-645,984	-65,428	0,056	0,016
-644,970	800,000	-0,023	-0,073
-643,955	472,676	0,113	-0,187
-642,941	25,480	-0,226	-0,138
-641,926	140,607	0,057	0,055
-640,911	-200,000	-0,028	-0,126
-639,897	800,000	-0,013	0,026
-638,882	-96,026	0,132	0,026
-637,868	-200,000	-0,020	-0,115
-636,853	126,930	-0,007	0,007
-635,838	-81,935	0,005	0,001
-634,824	113,612	-0,089	-0,080
-633,809	186,412	0,053	-0,058
-632,795	-200,000	0,012	0,060
-631,780	52,057	-0,026	0,018
-630,765	-200,000	-0,014	0,101
-629,751	17,816	0,055	-0,032
-628,736	-122,165	-0,091	0,011
-627,722	800,000	0,013	-0,029
-626,707	221,036	-0,053	0,063
-625,692	-95,595	0,019	0,004
-624,678	420,765	-0,060	-0,094
-623,663	-200,000	-0,035	-0,131
-622,649	-200,000	-0,022	0,092
-621,634	-104,851	-0,098	0,016
-620,619	-200,000	0,003	0,054
-619,605	-200,000	0,037	0,133
-618,590	-200,000	0,023	-0,109
-617,576	-31,239	-0,124	-0,051
-616,561	193,773	-0,119	0,132
-615,546	-32,539	-0,035	-0,014
-614,532	67,162	-0,046	0,035
-613,517	-200,000	0,026	-0,121
-612,503	-127,693	-0,132	0,014
-611,488	-74,481	-0,078	0,020
-610,474	4,499	-0,141	0,076
-609,459	-63,244	0,032	0,010
-608,444	-187,502	0,050	-0,000
-607,430	-133,839	-0,054	0,005
-606,415	124,483	-0,099	-0,091
-605,401	789,979	0,044	0,089
-604,386	-200,000	-0,019	0,095
-603,371	669,666	-0,038	0,072
-602,357	-80,007	-0,054	-0,013
-601,342	-200,000	-0,001	-0,100
-600,328	378,044	-0,148	-0,223
-599,313	-55,794	-0,041	0,013
-598,298	-104,927	0,163	0,027
-597,284	-200,000	-0,002	0,133
-596,269	5,067	-0,068	-0,036
-595,255	542,555	0,063	-0,111
-594,240	-74,903	-0,090	0,023
-593,225	437,632	-0,015	0,025
-592,211	-121,843	0,125	-0,015
-591,196	-200,000	0,019	-0,099
-590,182	800,000	0,007	-0,022
-589,167	-200,000	-0,015	-0,054
-588,152	-200,000	0,018	0,063
-587,138	-200,000	0,000	0,085
-586,123	-111,938	-0,234	0,034
-585,109	83,450	-0,040	-0,032
-584,094	147,003	0,025	-0,025
-583,079	201,299	0,056	0,063
-582,065	368,329	0,043	0,064
-581,050	-200,000	0,001	-0,036
-580,036	79,834	0,105	-0,082
-579,021	-200,000	-0,027	-0,111
-578,006	39,567	-0,118	-0,077
-576,992	23,813	0,084	-0,051
-575,977	131,390	0,096	-0,091
-574,963	-104,660	0,093	-0,016
-573,948	-62,431	-0,094	-0,028
-572,934	-200,000	0,009	0,085
-571,919	70,547	0,031	-0,023
-570,904	50,383	-0,112	0,077
-569,890	-110,367	-0,093	-0,014
-568,875	-24,275	-0,042	0,018
-567,861	114,642	-0,016	0,014
-566,846	-129,226	0,153	0,015
-565,831	60,331	-0,089	-0,064
-564,817	800,000	-0,016	-0,041
-563,802	137,477	0,067	0,065
-562,788	-200,000	-0,005	0,082
-561,773	-200,000	0,006	-0,031
-560,758	-200,000	0,002	0,012
-559,744	60,898	-0,086	0,062
-558,729	-200,000	0,011	-0,058
-557,715	-126,611	-0,258	-0,028
-556,700	-196,475	0,054	-0,000
-555,685	800,000	-0,072	-0,159
-554,671	261,183	-0,082	0,104
-553,656	-57,408	0,070	0,022
-552,642	-200,000	0,007	0,096
-551,627	-200,000	-0,042	0,140
-550,612	-96,929	0,047	0,009
-549,598	125,919	-0,110	0,101
-548,583	-200,000	-0,024	-0,132
-547,569	49,348	0,107	0,074
-546,554	-200,000	0,031	-0,103
-545,539	46,557	0,060	0,041
-544,525	128,211	-0,111	-0,104
-543,510	-200,000	0,008	-0,046
-542,496	-200,000	0,005	0,035
-541,481	-3,492	-0,049	-0,025
-540,466	770,141	-0,044	0,087
-539,452	-120,369	0,114	-0,014
-538,437	7,749	0,085	0,047
-537,423	-14,762	0,094	0,044
-536,408	129,516	-0,076	-0,071
-535,393	-0,273	-0,156	-0,081
-534,379	-43,408	0,062	0,023
-533,364	18,915	-0,118	-0,069
-532,350	800,000	-0,040	0,092
-531,335	-33,029	-0,026	-0,010
-530,321	-49,930	0,076	0,026
-529,306	-200,000	-0,002	0,050
-528,291	205,158	0,008	-0,009
-527,277	-69,942	-0,125	0,035
-526,262	-157,857	-0,141	0,006
-525,248	-59,557	0,181	0,057
-524,233	159,292	0,094	-0,096
-523,218	800,000	-0,022	-0,061
-522,204	6,249	0,048	0,026
-521,189	800,000	0,038	-0,109
-520,175	-86,834	-0,089	-0,020
-519,160	-200,000	0,008	-0,079
-518,145	-70,440	0,037	0,010
-517,131	125,560	-0,038	0,035
-516,116	-55,774	0,056	0,018
-515,102	800,000	0,059	0,141
-514,087	-200,000	-0,003	-0,048
-513,072	800,000	0,021	-0,049
-512,058	-75,798	0,053	0,014
-511,043	95,919	0,066	0,055
-510,029	-95,034	-0,076	-0,015
-509,014	-200,000	0,021	0,090
-507,999	181,260	-0,042	-0,045
-506,985	553,620	-0,041	0,071
-505,970	68,687	-0,059	-0,044
-504,956	126,428	0,022	0,020
-503,941	-149,855	-0,035	-0,002
-502,926	800,000	-0,051	-0,108
-501,912	83,790	0,087	-0,070
-500,897	-95,533	0,110	0,021
-499,883	6,362	-0,027	-0,015
-498,868	800,000	-0,044	-0,105
-497,853	161,664	-0,028	-0,028
-496,839	-72,443	0,048	-0,013
-495,824	282,543	-0,068	-0,089
-494,810	-200,000	0,005	0,086
-493,795	-72,448	-0,108	0,029
-492,781	800,000	0,012	-0,033
-491,766	191,108	-0,076	0,083
-490,751	-200,000	0,008	-0,109
-489,737	800,000	0,041	-0,124
-488,722	198,433	0,018	0,020
-487,708	254,316	-0,101	0,127
-486,693	-94,768	-0,024	0,005
-485,678	13,779	0,063	-0,036
-484,664	32,508	-0,107	-0,067
-483,649	-60,061	-0,096	0,030
-482,635	60,210	0,058	-0,042
-481,620	-200,000	0,011	0,122
-480,605	94,711	0,140	0,116
-479,591	90,313	-0,079	0,065
-478,576	-41,985	-0,048	-0,018
-477,562	61,973	-0,092	-0,067
-476,547	-31,065	0,026	-0,011
-475,532	654,823	-0,037	-0,069
-474,518	800,000	0,008	-0,024
-473,503	-132,498	0,019	-0,002
-472,489	800,000	0,029	0,075
-471,474	-200,000	0,003	0,053
-470,459	0,996	0,060	0,031
-469,445	-200,000	-0,023	-0,080
-468,430	-70,203	0,035	0,010
-467,416	800,000	-0,022	0,051
-466,401	9,607	0,139	0,076
-465,386	-13,299	0,058	-0,027
-464,372	25,918	0,096	0,058
-463,357	32,354	-0,032	0,020
-462,343	800,000	-0,025	-0,066
-461,328	-26,038	-0,130	0,056
-460,313	-89,317	0,122	0,026
-459,299	-200,000	-0,031	-0,140
-458,284	131,444	0,163	0,153
-457,270	112,330	-0,097	0,085
-456,255	-128,974	0,037	-0,004
-455,241	800,000	0,029	-0,063
-454,226	-200,000	0,016	0,068
-453,211	-200,000	0,017	0,078
-452,197	665,436	0,051	0,096
-451,182	176,539	0,030	-0,032
-450,168	800,000	-0,015	-0,046
-449,153	-156,264	-0,203	0,009
-448,138	695,416	-0,037	-0,072
-447,124	-104,851	0,073	0,012
-446,109	-200,000	0,001	-0,145
-445,095	-200,000	0,051	0,182
-444,080	-200,000	0,007	0,028
-443,065	32,222	-0,070	0,044
-442,051	-122,632	0,019	0,002
-441,036	-200,000	0,045	-0,161
-440,022	-0,490	0,063	-0,032
-439,007	372,647	0,036	-0,054
-437,992	-200,000	0,018	-0,149
-436,978	-119,228	0,030	0,004
-435,963	-200,000	0,026	0,167
-434,949	-106,756	0,096	0,015
-433,934	-142,910	-0,049	0,003
-432,919	122,800	0,073	-0,067
-431,905	96,372	-0,121	-0,101
-430,890	800,000	0,030	-0,061
-429,876	64,832	0,087	0,064
-428,861	343,644	0,081	-0,116
-427,846	100,011	-0,023	0,020
-426,832	800,000	-0,022	0,065
-425,817	-13,889	0,044	0,021
-424,803	76,272	0,143	-0,110
-423,788	-31,491	-0,064	0,026
-422,773	46,496	-0,031	0,021
-421,759	-12,934	0,046	-0,022
-420,744	115,819	-0,033	0,029
-419,730	764,100	-0,046	0,091
-418,715	102,164	-0,050	-0,042
-417,701	800,000	-0,034	-0,071
-416,686	-200,000	0,006	-0,026
-415,671	-39,503	-0,084	0,032
-414,657	-121,975	-0,100	0,012
-413,642	-200,000	0,006	0,038
-412,628	1,676	0,086	0,045
-411,613	588,352	0,023	0,041
-410,598	-200,000	0,004	0,025
-409,584	-200,000	-0,012	-0,059
-408,569	355,892	-0,031	0,046
-407,555	49,396	-0,016	-0,011
-406,540	72,642	0,148	0,112
-405,525	392,223	-0,035	-0,053
-404,511	-200,000	0,029	-0,153
-403,496	212,131	0,064	0,074
-402,482	-175,591	0,149	0,003
-401,467	-200,000	-0,015	0,076
-400,452	-200,000	-0,004	0,054
-399,438	76,807	-0,173	0,133
-398,423	-2,857	-0,061	-0,031
-397,409	-83,995	0,012	0,003
-396,394	312,528	-0,075	-0,103
-395,379	155,181	-0,037	0,037
-394,365	682,780	0,091	0,173
-393,350	-111,501	0,069	0,010
-392,336	-128,262	0,076	-0,008
-391,321	206,585	0,042	-0,047
-390,306	800,000	-0,017	0,049
-389,292	-200,000	-0,029	-0,138
-388,277	-180,552	-0,071	0,001
-387,263	-46,429	0,144	-0,051
-386,248	-165,718	0,058	-0,002
-385,233	-63,001	0,046	0,014
-384,219	-200,000	-0,000	0,016
-383,204	-48,223	-0,084	-0,029
-382,190	-200,000	-0,008	0,089
-381,175	79,278	-0,050	-0,039
-380,160	368,626	0,077	0,114
-379,146	-44,038	0,165	-0,060
-378,131	81,258	-0,040	0,031
-377,117	120,965	0,045	0,041
-376,102	-200,000	-0,015	-0,079
-375,088	-200,000	0,014	-0,060
-374,073	-200,000	-0,005	-0,176
-373,058	327,183	-0,069	0,096
-372,044	-122,623	0,061	0,007
-371,029	-200,000	-0,006	0,234
-370,015	-129,654	-0,089	0,009
-369,000	23,313	0,014	0,009
-367,985	264,627	0,086	-0,108
-366,971	383,166	0,066	-0,099
-365,956	800,000	-0,031	-0,067
-364,942	97,738	0,063	-0,053
-363,927	-152,716	-0,033	-0,002
-362,912	-20,494	-0,127	0,056
-361,898	800,000	0,026	-0,062
-360,883	800,000	0,031	-0,089
-359,869	800,000	-0,043	-0,096
-358,854	-200,000	-0,012	-0,069
-357,839	107,208	0,074	-0,064
-356,825	93,201	0,034	0,028
-355,810	292,377	0,034	0,045
-354,796	800,000	-0,008	-0,024
-353,781	800,000	-0,011	0,022
-352,766	-24,482	-0,019	0,008
-351,752	-161,289	-0,007	-0,000
-350,737	60,287	-0,064	0,046
-349,723	-200,000	-0,041	0,175
-348,708	45,707	-0,079	-0,053
-347,693	-47,656	0,017	-0,006
-346,679	10,827	-0,121	-0,067
-345,664	51,480	-0,052	0,036
-344,650	-200,000	0,019	-0,081
-343,635	-40,214	0,052	-0,020
-342,620	1,969	-0,071	0,037
-341,606	800,000	0,017	0,038
-340,591	-102,914	-0,097	0,016
-339,577	-80,778	0,014	-0,003
-338,562	45,453	0,051	-0,034
-337,548	-39,899	0,040	0,015
-336,533	800,000	0,062	0,151
-335,518	-9,723	-0,071	0,034
-334,504	-26,542	0,024	-0,010
-333,489	110,636	-0,174	-0,152
-332,475	310,007	-0,047	0,064
-331,460	213,124	0,048	-0,056
-330,445	113,067	-0,066	-0,058
-329,431	95,377	-0,032	0,027
-328,416	-169,069	0,121	0,003
-327,402	-200,000	-0,007	0,064
-326,387	70,948	-0,035	-0,026
-325,372	-200,000	0,014	0,157
-324,358	698,468	0,038	-0,073
-323,343	-15,879	-0,148	-0,068
-322,329	147,748	0,064	0,062
-321,314	-143,611	-0,084	0,006
-320,299	-59,599	-0,005	-0,001
-319,285	346,596	-0,084	-0,120
-318,270	485,332	0,033	-0,054
-317,256	-184,848	-0,071	-0,001
-316,241	800,000	-0,009	0,021
-315,226	27,002	-0,128	-0,078
-314,212	419,939	0,030	0,047
-313,197	-200,000	0,006	-0,022
-312,183	301,044	0,088	0,118
-311,168	45,783	0,039	-0,026
-310,153	473,276	-0,049	-0,081
-309,139	-132,722	-0,135	0,012
-308,124	559,315	-0,105	-0,185
-307,110	-200,000	-0,010	0,128
-306,095	184,586	0,070	0,076
-305,080	744,679	0,045	0,089
-304,066	-200,000	-0,009	-0,036
-303,051	138,820	0,045	0,043
-302,037	-200,000	0,005	-0,065
-301,022	224,803	0,065	0,076
-300,008	800,000	0,057	0,143
-298,993	55,077	0,090	0,063
-297,978	-7,147	0,217	0,106
-296,964	800,000	-0,014	0,042
-295,949	202,190	-0,061	0,068
-294,935	-200,000	0,012	-0,082
-293,920	192,226	-0,038	-0,042
-292,905	243,997	0,073	0,089
-291,891	44,679	0,069	0,046
-290,876	800,000	-0,033	-0,070
-289,862	24,404	-0,102	0,061
-288,847	-200,000	-0,048	-0,209
-287,832	-53,000	0,062	0,021
-286,818	-138,911	-0,050	0,004
-285,803	-130,601	0,118	-0,011
-284,789	800,000	0,023	0,060
-283,774	100,882	0,030	-0,025
-282,759	-93,744	-0,155	0,031
-281,745	-200,000	0,011	-0,141
-280,730	-116,266	-0,134	0,018
-279,716	-200,000	0,022	-0,071
-278,701	-200,000	0,011	0,075
-277,686	36,026	0,075	-0,048
-276,672	-57,118	0,046	-0,015
-275,657	109,984	0,095	0,083
-274,643	61,922	-0,059	-0,043
-273,628	-11,734	-0,023	-0,011
-272,613	800,000	-0,014	0,040
-271,599	800,000	0,051	-0,113
-270,584	-200,000	0,015	0,147
-269,570	-109,771	-0,006	0,001
-268,555	800,000	0,015	0,032
-267,540	-1,021	0,061	0,031
-266,526	128,794	-0,028	-0,026
-265,511	-200,000	0,006	-0,041
-264,497	-200,000	-0,006	-0,041
-263,482	68,196	0,120	0,089
-262,467	-126,354	0,176	0,019
-261,453	53,220	0,026	0,018
-260,438	-85,206	-0,082	0,018
-259,424	442,640	-0,029	-0,046
-258,409	-118,911	-0,075	-0,009
-257,395	100,827	-0,051	0,043
-256,380	23,152	0,065	0,039
-255,365	67,460	-0,039	0,029
-254,351	-200,000	-0,023	0,161
-253,336	149,082	-0,040	-0,039
-252,322	53,543	0,110	-0,076
-251,307	438,640	-0,071	-0,113
-250,292	481,638	0,065	0,107
-249,278	-200,000	0,006	0,114
-248,263	2,981	0,086	-0,045
-247,249	293,037	-0,099	-0,131
-246,234	-200,000	0,012	-0,050
-245,219	-36,798	-0,041	0,016
-244,205	-200,000	0,028	-0,130
-243,190	8,556	-0,105	-0,057
-242,176	70,316	0,040	0,030
-241,161	-200,000	-0,005	0,076
-240,146	-200,000	-0,000	0,004
-239,132	35,311	-0,023	-0,014
-238,117	94,678	0,073	-0,060
-237,103	471,347	0,055	0,089
-236,088	193,368	-0,039	-0,042
-235,073	-189,990	-0,036	0,000
-234,059	205,684	0,127	0,143
-233,044	142,419	0,103	-0,099
-232,030	241,730	0,061	-0,073
-231,015	-82,648	0,023	-0,005
-230,000	146,352	-0,062	0,060
-228,986	-172,450	0,094	0,002
-227,971	42,113	0,247	0,162
-226,957	-12,376	-0,057	-0,027
-225,942	-200,000	-0,006	0,020
-224,927	-90,918	0,019	0,004
-223,913	267,890	-0,113	0,143
-222,898	-159,123	-0,031	-0,001
-221,884	131,236	-0,021	-0,020
-220,869	174,661	-0,048	0,050
-219,855	-44,217	-0,092	-0,033
-218,840	82,596	-0,094	0,074
-217,825	781,609	-0,061	-0,120
-216,811	207,508	0,068	0,077
-215,796	-200,000	-0,005	-0,090
-214,782	335,557	0,104	-0,146
-213,767	-91,000	0,104	0,021
-212,752	800,000	0,023	-0,067
-211,738	127,715	0,107	0,098
-210,723	-200,000	0,031	0,109
-209,709	-69,071	-0,042	0,012
-208,694	-112,555	-0,084	-0,012
-207,679	219,006	0,075	-0,087
-206,665	654,697	-0,019	0,036
-205,650	-32,173	0,033	-0,013
-204,636	-67,371	0,108	0,030
-203,621	632,208	-0,021	-0,038
-202,606	90,448	-0,100	-0,080
-201,592	467,813	0,058	0,094
-200,577	59,179	0,095	-0,067
-199,563	44,455	0,109	0,072
-198,548	-47,471	-0,083	-0,029
-197,533	223,893	-0,021	0,025
-196,519	-164,549	-0,042	-0,001
-195,504	-140,747	0,026	0,002
-194,490	-75,448	-0,071	0,018
-193,475	45,826	0,112	0,075
-192,460	140,730	-0,053	-0,051
-191,446	362,189	-0,090	0,131
-190,431	146,360	0,046	0,044
-189,417	-200,000	-0,021	0,091
-188,402	-200,000	0,004	-0,042
-187,387	84,527	-0,074	0,058
-186,373	453,028	-0,110	-0,176
-185,358	800,000	-0,012	-0,037
-184,344	-3,597	0,083	0,041
-183,329	72,266	0,123	0,092
-182,315	-131,327	0,065	0,006
-181,300	-70,435	-0,066	0,018
-180,285	101,848	0,042	-0,035
-179,271	-15,873	-0,083	-0,038
-178,256	340,204	0,020	0,029
-177,242	-134,452	0,096	-0,008
-176,227	800,000	0,054	0,145
-175,212	-75,778	0,122	0,031
-174,198	800,000	0,035	-0,095
-173,183	190,512	-0,034	-0,037
-172,169	27,764	-0,038	0,023
-171,154	54,331	-0,107	-0,074
-170,139	159,381	0,059	0,059
-169,125	43,266	0,045	0,030
-168,110	-135,227	-0,089	-0,008
-167,096	-200,000	-0,009	-0,231
-166,081	224,879	0,085	-0,099
-165,066	800,000	-0,053	-0,120
-164,052	761,622	0,018	-0,036
-163,037	53,107	0,027	-0,018
-162,023	-8,053	0,150	0,072
-161,008	28,873	-0,076	-0,046
-159,993	243,583	0,113	0,137
-158,979	-106,154	0,093	0,015
-157,964	800,000	0,025	0,067
-156,950	355,719	0,042	-0,061
-155,935	-130,572	-0,011	0,001
-154,920	-77,197	0,106	0,026
-153,906	124,485	0,084	0,076
-152,891	800,000	-0,055	0,150
-151,877	-128,217	-0,035	0,004
-150,862	331,835	0,032	-0,044
-149,847	121,925	0,085	-0,076
-148,833	-100,421	-0,054	0,009
-147,818	-200,000	0,009	0,040
-146,804	106,922	-0,053	0,045
-145,789	-90,477	-0,024	-0,005
-144,775	164,688	-0,070	-0,072
-143,760	-200,000	0,004	-0,034
-142,745	107,238	-0,072	0,062
-141,731	800,000	0,020	0,063
-140,716	-36,669	0,030	0,012
-139,702	4,695	-0,093	0,049
-138,687	363,898	-0,025	0,037
-137,672	-48,286	0,059	-0,020
-136,658	-31,205	0,054	-0,022
-135,643	800,000	-0,007	-0,021
-134,629	27,951	-0,126	0,076
-133,614	134,681	0,089	0,083
-132,599	-200,000	0,019	0,062
-131,585	800,000	0,047	0,110
-130,570	-69,536	-0,067	-0,018
-129,556	800,000	0,006	0,012
-128,541	-34,463	-0,118	0,046
-127,526	267,664	-0,007	0,008
-126,512	3,255	0,046	0,024
-125,497	282,279	0,056	0,072
-124,483	800,000	0,006	-0,017
-123,468	-63,451	0,158	0,046
-122,453	175,488	-0,054	0,056
-121,439	-200,000	-0,025	-0,180
-120,424	800,000	0,040	0,088
-119,410	800,000	-0,068	0,150
-118,395	-37,641	0,128	0,049
-117,380	-50,411	-0,137	0,046
-116,366	353,297	0,060	-0,086
-115,351	50,124	-0,095	-0,064
-114,337	351,828	-0,014	-0,019
-113,322	135,619	-0,024	-0,022
-112,307	-58,793	0,092	0,029
-111,293	42,946	-0,076	0,050
-110,278	-200,000	-0,006	0,185
-109,264	47,914	-0,048	0,032
-108,249	21,116	-0,058	0,034
-107,234	-38,711	-0,114	-0,043
-106,220	44,453	-0,075	0,050
-105,205	-1,571	0,075	-0,038
-104,191	800,000	0,070	-0,174
-103,176	-200,000	0,026	-0,092
-102,162	800,000	0,035	-0,080
-101,147	653,575	-0,096	0,178
-100,132	800,000	0,003	0,006
-99,118	800,000	-0,033	-0,070
-98,103	22,260	-0,039	-0,023
-97,089	-200,000	0,001	0,147
-96,074	358,537	0,062	-0,089
-95,059	31,661	-0,086	-0,053
-94,045	1,561	-0,032	-0,017
-93,030	-200,000	0,019	0,077
-92,016	-200,000	-0,025	-0,123
-91,001	34,519	-0,092	-0,058
-89,986	800,000	0,018	-0,052
-88,972	269,904	0,087	0,110
-87,957	78,851	-0,111	-0,086
-86,943	-200,000	0,011	-0,105
-85,928	-200,000	-0,009	-0,094
-84,913	-1,123	-0,061	0,031
-83,899	11,284	-0,060	0,033
-82,884	202,072	0,112	-0,125
-81,870	800,000	0,028	-0,072
-80,855	-200,000	0,006	0,080
-79,840	35,196	-0,061	0,039
-78,826	765,348	0,091	-0,178
-77,811	-200,000	0,001	-0,056
-76,797	-4,187	-0,080	-0,039
-75,782	-200,000	-0,001	0,029
-74,767	-200,000	0,009	0,040
-73,753	191,723	0,038	-0,041
-72,738	800,000	0,017	0,050
-71,724	18,782	-0,076	0,044
-70,709	-200,000	0,008	-0,048
-69,694	28,512	0,136	-0,083
-68,680	-200,000	0,019	0,071
-67,665	322,716	-0,056	0,077
-66,651	789,132	0,056	0,111
-65,636	116,805	0,123	-0,109
-64,622	-200,000	0,020	-0,069
-63,607	800,000	-0,075	-0,155
-62,592	-200,000	0,001	0,026
-61,578	-14,936	-0,084	0,038
-60,563	110,152	0,147	0,127
-59,549	249,082	0,073	0,089
-58,534	9,498	-2,079	-1,126
-57,519	-200,000	-0,160	-0,709
-56,505	-200,000	-1,292	-5,085
-55,490	99,192	0,874	0,724
-54,476	800,000	5,031	11,799
-53,461	-200,000	17,867	289,758
-52,446	800,000	726,892	2228,895
-51,432	536,046	1639,572	2802,451
-50,417	109,405	1629,434	1399,704
-49,403	73,034	1283,200	961,032
-48,388	31,449	1026,221	631,204
-47,373	19,878	988,131	569,666
-46,359	18,192	976,138	557,208
-45,344	15,471	972,347	546,129
-44,330	15,714	970,851	546,062
-43,315	15,251	968,988	543,482
-42,300	15,203	968,070	542,791
-41,286	15,200	966,883	542,093
-40,271	15,213	965,850	541,534
-39,257	15,218	965,003	541,055
-38,242	15,222	964,185	540,586
-37,227	15,205	963,386	540,063
-36,213	15,194	962,533	539,527
-35,198	15,141	961,807	538,929
-34,184	15,252	960,895	538,756
-33,169	15,189	959,864	537,952
-32,154	15,290	958,737	537,626
-31,140	15,295	958,017	537,216
-30,125	15,231	957,384	536,632
-29,111	15,226	956,504	536,101
-28,096	15,206	955,995	535,730
-27,082	15,295	955,200	535,551
-26,067	15,265	954,445	535,010
-25,052	15,145	953,761	534,220
-24,038	15,182	953,081	533,935
-23,023	15,156	952,454	533,483
-22,009	15,289	951,723	533,475
-20,994	15,260	951,101	533,012
-19,979	15,236	950,560	532,612
-18,965	15,238	949,712	532,122
-17,950	15,205	949,347	531,793
-16,936	15,202	948,642	531,366
-15,921	15,177	947,790	530,788
-14,906	15,045	947,346	530,097
-13,892	15,088	946,711	529,859
-12,877	15,109	945,861	529,428
-11,863	15,074	945,393	529,034
-10,848	15,098	944,908	528,819
-9,833	15,172	944,486	528,795
-8,819	15,148	943,817	528,323
-7,804	15,180	942,969	527,929
-6,790	15,126	942,691	527,581
-5,775	15,160	941,975	527,268
-4,760	15,150	941,423	526,907
-3,746	15,141	940,620	526,408
-2,731	15,005	940,064	525,645
-1,717	14,982	939,288	525,118
-0,702	14,974	938,722	524,755
0,313	14,790	938,129	524,636
1,327	18,165	936,018	534,027
2,342	27,295	789,826	474,666
3,356	23,928	444,854	262,334
4,371	-5,570	295,936	144,993
5,386	-9,606	277,495	132,117
6,400	-10,744	271,864	128,366
7,415	-10,946	269,524	127,063
8,429	-10,820	268,163	126,526
9,444	-10,998	267,239	125,916
10,459	-10,973	266,563	125,609
11,473	-11,132	266,042	125,208
12,488	-11,019	265,437	125,014
13,502	-11,250	264,878	124,530
14,517	-11,237	264,614	124,407
15,531	-11,299	264,104	124,100
16,546	-11,064	263,624	124,076
17,561	-11,226	263,463	123,843
18,575	-11,201	263,008	123,641
19,590	-11,188	262,608	123,453
20,604	-11,134	262,467	123,425
21,619	-11,311	262,083	123,074
22,634	-11,284	261,723	122,918
23,648	-11,253	261,412	122,789
24,663	-11,289	261,180	122,636
25,677	-11,275	260,934	122,523
26,692	-11,303	260,608	122,334
27,707	-11,323	260,361	122,189
28,721	-11,176	260,123	122,197
29,736	-11,434	259,887	121,847
30,750	-11,416	259,671	121,751
31,765	-11,321	259,266	121,634
32,780	-11,332	258,975	121,476
33,794	-11,344	258,831	121,388
34,809	-11,220	258,570	121,364
35,823	-11,457	258,358	121,045
36,838	-11,292	258,095	121,056
37,853	-11,290	257,736	120,879
38,867	-11,528	257,703	120,643
39,882	-11,292	257,369	120,683
40,896	-11,554	257,251	120,387
41,911	-11,623	256,902	120,153
42,926	-11,368	256,603	120,225
43,940	-11,471	256,595	120,120
44,955	-11,684	256,247	119,760
45,969	-11,647	256,082	119,705
46,984	-11,594	255,677	119,551
47,999	-11,933	255,359	119,097
49,013	-12,105	255,100	118,816
50,028	-12,214	254,947	118,639
51,042	-12,258	254,768	118,507
52,057	-12,519	254,535	118,162
53,071	-12,167	254,255	118,326
54,086	-12,120	254,079	118,274
55,101	-12,142	254,062	118,237
56,115	-11,859	253,857	118,376
57,130	-11,262	253,625	118,774
58,144	-10,984	253,577	118,980
59,159	-11,225	253,350	118,655
60,174	-11,152	253,066	118,574
61,188	-11,173	252,989	118,510
62,203	-11,220	252,793	118,367
63,217	-11,305	252,413	118,105
64,232	-11,259	252,242	118,054
65,247	-11,420	252,110	117,844
66,261	-11,258	251,827	117,839
67,276	-11,542	251,636	117,497
68,290	-11,802	251,453	117,179
69,305	-11,944	251,024	116,846
70,320	-11,802	250,956	116,926
71,334	-11,467	250,610	117,039
72,349	-11,416	250,843	117,182
73,363	-11,034	250,485	117,330
74,378	-11,291	250,327	117,026
75,393	-11,253	250,050	116,918
76,407	-11,388	249,741	116,650
77,422	-11,344	249,500	116,564
78,436	-11,293	249,444	116,570
79,451	-11,284	249,188	116,448
80,466	-11,492	249,026	116,186
81,480	-11,528	248,560	115,928
82,495	-11,823	248,572	115,674
83,509	-11,513	248,333	115,813
84,524	-11,664	248,158	115,594
85,539	-11,586	247,735	115,453
86,553	-11,833	247,775	115,253
87,568	-11,662	247,606	115,308
88,582	-11,598	247,443	115,275
89,597	-11,675	247,239	115,106
90,611	-11,429	246,906	115,147
91,626	-11,447	246,851	115,095
92,641	-11,420	246,726	115,050
93,655	-11,441	246,452	114,894
94,670	-11,595	246,223	114,648
95,684	-11,444	245,914	114,620
96,699	-11,631	245,847	114,422
97,714	-11,480	245,594	114,421
98,728	-11,738	245,514	114,158
99,743	-11,754	245,310	114,040
100,757	-11,706	244,936	113,896
101,772	-11,812	244,883	113,773
102,787	-11,802	244,685	113,679
103,801	-11,525	244,510	113,817
104,816	-11,468	244,388	113,798
105,830	-11,473	244,180	113,686
106,845	-11,350	244,115	113,748
107,860	-11,239	243,904	113,731
108,874	-11,473	243,450	113,317
109,889	-11,491	243,382	113,259
110,903	-11,631	243,243	113,069
111,918	-11,649	243,042	112,951
112,933	-11,527	242,857	112,955
113,947	-11,402	242,736	112,992
114,962	-11,297	242,457	112,939
115,976	-11,336	242,378	112,859
116,991	-11,414	242,148	112,678
118,006	-11,577	242,173	112,546
119,020	-11,418	241,898	112,538
120,035	-11,408	241,795	112,489
121,049	-11,376	241,733	112,476
122,064	-11,242	241,416	112,428
123,079	-11,436	241,188	112,154
124,093	-11,523	240,882	111,930
125,108	-11,830	240,774	111,619
126,122	-11,951	240,450	111,361
127,137	-12,076	240,189	111,128
128,151	-11,965	240,035	111,137
129,166	-11,750	239,959	111,268
130,181	-11,731	239,761	111,181
131,195	-11,651	239,463	111,097
132,210	-11,792	239,510	110,995
133,224	-11,488	239,301	111,134
134,239	-11,402	239,128	111,114
135,254	-11,341	238,937	111,064
136,268	-11,596	238,709	110,743
137,283	-11,878	238,416	110,369
138,297	-11,971	238,093	110,135
139,312	-12,084	238,104	110,040
140,327	-11,690	237,988	110,293
141,341	-11,276	238,131	110,683
142,356	-11,010	237,859	110,760
143,370	-11,006	237,674	110,668
144,385	-11,096	237,448	110,481
145,400	-10,948	237,262	110,503
146,414	-11,107	237,186	110,330
147,429	-11,177	237,009	110,182
148,443	-10,968	236,662	110,178
149,458	-11,126	236,542	109,986
150,473	-11,055	236,518	110,022
151,487	-11,247	236,318	109,766
152,502	-11,233	236,141	109,685
153,516	-11,160	235,853	109,599
154,531	-11,214	235,660	109,457
155,546	-11,141	235,535	109,447
156,560	-11,396	235,494	109,215
157,575	-11,428	235,195	109,041
158,589	-11,417	235,078	108,987
159,604	-11,004	234,813	109,182
160,619	-10,955	234,790	109,200
161,633	-10,880	234,683	109,200
162,648	-10,912	234,332	109,002
163,662	-10,980	234,354	108,948
164,677	-11,230	234,154	108,648
165,692	-11,139	233,975	108,627
166,706	-10,997	233,877	108,684
167,721	-11,155	233,884	108,553
168,735	-10,869	233,724	108,694
169,750	-11,049	233,427	108,404
170,764	-10,999	233,145	108,304
171,779	-11,002	233,184	108,310
172,794	-10,983	233,001	108,230
173,808	-10,951	232,627	108,071
174,823	-11,642	232,405	107,417
175,837	-11,762	232,218	107,227
176,852	-11,254	232,232	107,622
177,867	-11,156	232,114	107,634
178,881	-10,956	231,937	107,699
179,896	-10,936	231,868	107,673
180,910	-11,016	231,656	107,502
181,925	-11,020	231,481	107,409
182,940	-11,122	231,285	107,228
183,954	-10,976	231,312	107,346
184,969	-10,771	231,136	107,413
185,983	-10,907	230,989	107,229
186,998	-10,931	230,861	107,142
188,013	-10,809	230,481	107,051
189,027	-10,785	230,423	107,033
190,042	-10,998	230,230	106,769
191,056	-10,813	230,202	106,890
192,071	-10,966	230,003	106,669
193,086	-10,978	229,829	106,570
194,100	-10,664	229,638	106,715
195,115	-10,930	229,265	106,326
196,129	-11,155	229,254	106,139
197,144	-6,119	231,071	110,884
198,159	-0,103	232,895	116,447
199,173	3,060	233,456	119,187
200,188	3,401	233,606	119,519
201,202	3,247	233,549	119,359
202,217	3,362	233,316	119,319
203,232	3,603	233,181	119,427
204,246	3,688	232,976	119,378
205,261	3,820	233,045	119,505
206,275	3,949	232,723	119,429
207,290	4,086	232,630	119,477
208,304	3,910	232,405	119,214
209,319	3,769	232,285	119,034
210,334	3,549	232,093	118,754
211,348	3,511	231,944	118,638
212,363	3,277	231,684	118,313
213,377	2,919	231,433	117,898
214,392	3,145	231,162	117,924
215,407	3,248	231,027	117,923
216,421	3,229	231,055	117,913
217,436	3,146	230,752	117,684
218,450	3,012	230,494	117,438
219,465	2,742	230,463	117,205
220,480	2,939	230,181	117,202
221,494	2,783	230,158	117,061
222,509	3,214	230,011	117,305
223,523	3,133	229,952	117,203
224,538	3,059	229,687	117,001
225,553	2,951	229,642	116,885
226,567	3,115	229,592	116,974
227,582	3,272	229,445	117,010
228,596	3,466	229,341	117,094
229,611	3,207	229,085	116,755
230,626	2,938	228,741	116,364
231,640	3,005	228,663	116,365
232,655	3,208	228,683	116,520
233,669	3,587	228,675	116,794
234,684	3,621	228,433	116,685
235,699	3,398	228,324	116,450
236,713	3,231	228,064	116,181
237,728	3,005	227,843	115,886
238,742	3,052	227,660	115,818
239,757	3,070	227,554	115,768
240,772	3,165	227,315	115,707
241,786	3,014	227,233	115,541
242,801	3,330	227,071	115,688
243,815	3,564	227,055	115,845
244,830	3,297	226,977	115,594
245,844	3,383	226,638	115,476
246,859	3,285	226,524	115,333
247,874	3,513	226,497	115,481
248,888	3,464	226,175	115,270
249,903	3,070	226,154	114,953
250,917	3,159	225,849	114,854
251,932	3,200	225,765	114,832
252,947	3,072	225,630	114,657
253,961	2,928	225,466	114,456
254,976	3,157	225,317	114,542
255,990	3,432	225,164	114,659
257,005	3,226	225,199	114,513
258,020	3,272	225,017	114,444
259,034	3,395	224,975	114,504
260,049	3,400	224,772	114,394
261,063	3,215	224,724	114,222
262,078	3,589	224,497	114,375
263,093	3,571	224,347	114,275
264,107	3,578	224,175	114,183
265,122	3,601	224,050	114,126
266,136	3,623	224,043	114,129
267,151	3,680	223,686	113,979
268,166	3,361	223,444	113,609
269,180	2,941	223,286	113,207
270,195	2,981	223,247	113,207
271,209	3,007	222,934	113,057
272,224	3,064	222,906	113,075
273,239	3,319	222,722	113,161
274,253	3,280	222,604	113,062
275,268	2,851	222,450	112,656
276,282	2,951	222,248	112,617
277,297	2,741	222,086	112,371
278,312	3,022	222,003	112,525
279,326	3,333	221,881	112,682
280,341	2,933	221,746	112,310
281,355	3,349	221,712	112,589
282,370	3,445	221,368	112,474
283,384	2,846	221,215	111,948
284,399	2,797	221,141	111,864
285,414	2,926	220,965	111,859
286,428	3,062	221,022	111,978
287,443	3,340	220,822	112,070
288,457	3,165	220,735	111,888
289,472	3,169	220,313	111,667
290,487	2,678	220,121	111,201
291,501	2,721	220,023	111,174
292,516	2,787	219,964	111,182
293,530	2,860	219,911	111,198
294,545	2,649	219,737	110,947
295,560	2,785	219,704	111,019
296,574	3,052	219,459	111,080
297,589	3,002	219,363	110,985
298,603	2,949	219,336	110,923
299,618	3,099	219,137	110,921
300,633	3,230	219,018	110,946
301,647	3,181	219,024	110,904
302,662	3,104	218,904	110,777
303,676	3,186	218,685	110,716
304,691	3,262	218,428	110,631
305,706	3,310	218,297	110,589
306,720	3,147	218,204	110,415
307,735	2,975	217,925	110,140
308,749	3,024	217,757	110,080
309,764	3,220	217,681	110,173
310,779	3,453	217,634	110,307
311,793	3,181	217,509	110,038
312,808	3,465	217,266	110,109
313,822	3,126	217,140	109,793
314,837	3,137	216,934	109,686
315,852	3,071	216,744	109,533
316,866	3,050	216,663	109,468
317,881	3,311	216,588	109,607
318,895	3,220	216,495	109,485
319,910	3,242	216,220	109,351
320,925	3,008	216,146	109,137
321,939	2,700	215,830	108,748
322,954	2,971	215,768	108,900
323,968	3,198	215,785	109,062
324,983	3,241	215,687	109,033
325,997	3,252	215,601	108,988
327,012	3,309	215,367	108,900
328,027	3,134	215,201	108,682
329,041	3,014	215,278	108,626
330,056	3,129	215,015	108,565
331,070	2,768	214,667	108,123
332,085	2,894	214,432	108,085
333,100	3,102	214,519	108,267
334,114	3,298	214,496	108,384
335,129	3,083	214,223	108,084
336,143	3,199	213,956	108,022
337,158	3,177	213,924	107,981
338,173	3,435	213,779	108,080
339,187	3,260	213,638	107,875
340,202	2,953	213,522	107,591
341,216	2,929	213,438	107,522
342,231	3,021	213,187	107,451
343,246	2,928	213,116	107,340
344,260	2,659	213,057	107,112
345,275	3,145	212,873	107,351
346,289	3,425	212,685	107,443
347,304	3,370	212,621	107,362
348,319	3,181	212,430	107,124
349,333	3,185	212,270	107,037
350,348	3,280	212,261	107,089
351,362	3,359	212,082	107,044
352,377	3,400	211,964	107,003
353,392	3,258	211,817	106,821
354,406	3,158	211,696	106,681
355,421	196,342	1338,906	1418,843
356,435	156,886	1476,212	1418,818
