DTS Sentinel unit serial number:	SN410029Multiplexer serial number:	ORYXHardware model number:	OX2-SRSoftware version number:	ORYX F/W v4,00 Oryx Data Collector v3.7.2.0data status	okinstallation	B6 Nyhavnadifferential loss correction	single-endedforward channel	channel 2reverse channel	N/Adate	2023/12/08time	06:30:08forward acquisition time	300,00reverse acquisition time	0,00gamma	499,1914k internal	0,3165k external	0,3165temperature offset calibration	1,0000default loss term (dB/km)	0,3820temperature slope calibration	1,0000multiplexer offset coefficient	1,0000multiplexer slope coefficient	1,0000fibre end	0,00T internal ref (°C)	13,00T ext. ref 1 (°C)	-3,70T ext. ref 2 (°C)	-3,73length (m)	temperature (°C)	Stokes	anti-Stokes-744,400	-137,850	0,192	0,016
-743,385	-119,845	-0,409	-0,051
-742,371	676,814	0,095	0,182
-741,356	-33,245	-0,292	0,118
-740,342	250,889	0,124	0,156
-739,327	-105,687	-0,363	-0,060
-738,312	-130,015	0,075	0,007
-737,298	-175,207	-0,298	-0,006
-736,283	-79,024	0,123	-0,030
-735,269	-54,761	-0,286	-0,095
-734,254	14,747	0,128	0,073
-733,239	-53,670	-0,564	-0,188
-732,225	-132,667	0,176	0,016
-731,210	115,821	0,151	0,136
-730,196	-200,000	0,006	-0,119
-729,181	586,320	-0,057	-0,104
-728,167	179,914	0,034	-0,037
-727,152	-41,763	-0,011	0,004
-726,137	800,000	-0,033	0,077
-725,123	-106,549	-0,101	-0,016
-724,108	123,739	-0,114	-0,105
-723,094	-94,208	-0,205	-0,041
-722,079	-200,000	-0,010	-0,077
-721,064	800,000	0,063	-0,191
-720,050	324,184	-0,132	-0,186
-719,035	-200,000	0,010	-0,056
-718,021	800,000	0,033	-0,073
-717,006	-119,655	-0,135	-0,017
-715,991	-200,000	-0,002	0,030
-714,977	800,000	-0,039	0,095
-713,962	-98,272	0,013	-0,002
-712,948	24,353	-0,065	0,040
-711,933	-110,340	0,086	-0,013
-710,918	-0,925	-0,153	-0,079
-709,904	-99,867	-0,132	-0,024
-708,889	800,000	-0,050	-0,152
-707,875	300,605	-0,052	0,070
-706,860	676,756	-0,013	0,025
-705,845	-200,000	-0,012	-0,068
-704,831	285,254	0,031	-0,041
-703,816	398,554	0,025	-0,038
-702,802	422,418	0,041	0,064
-701,787	-152,918	0,021	0,001
-700,772	34,280	-0,081	-0,052
-699,758	100,335	-0,065	-0,055
-698,743	267,713	0,027	-0,035
-697,729	-36,165	-0,093	0,037
-696,714	-200,000	0,031	0,123
-695,699	172,634	-0,135	-0,143
-694,685	-15,133	0,200	-0,094
-693,670	-18,512	0,108	-0,049
-692,656	249,916	0,023	-0,028
-691,641	126,385	0,085	0,079
-690,627	95,951	0,073	0,061
-689,612	800,000	-0,008	0,023
-688,597	-200,000	-0,019	-0,124
-687,583	292,550	0,063	-0,084
-686,568	800,000	-0,007	0,015
-685,554	5,990	0,049	0,027
-684,539	-66,780	0,123	-0,035
-683,524	0,244	-0,042	-0,022
-682,510	220,361	-0,031	0,037
-681,495	472,851	0,046	0,076
-680,481	-9,405	-0,055	-0,027
-679,466	103,497	-0,063	-0,054
-678,451	538,171	-0,055	0,096
-677,437	338,565	0,052	-0,075
-676,422	33,104	-0,065	0,041
-675,408	161,235	0,081	-0,083
-674,393	346,567	0,023	-0,033
-673,378	123,151	-0,074	-0,068
-672,364	-95,760	-0,148	-0,029
-671,349	-63,274	0,099	-0,030
-670,335	800,000	-0,015	0,044
-669,320	-59,610	0,099	0,031
-668,305	-127,262	0,020	0,002
-667,291	163,560	-0,084	-0,087
-666,276	-135,306	0,105	0,009
-665,262	93,695	-0,063	-0,052
-664,247	30,003	0,043	-0,027
-663,232	717,883	-0,036	-0,071
-662,218	248,263	0,072	0,090
-661,203	-146,471	0,017	-0,001
-660,189	336,781	0,024	-0,035
-659,174	-200,000	0,020	-0,093
-658,159	-200,000	-0,019	-0,113
-657,145	-55,035	0,062	0,020
-656,130	-4,293	-0,078	0,039
-655,116	-200,000	0,036	0,137
-654,101	-9,924	-0,050	0,024
-653,086	800,000	0,057	-0,121
-652,072	800,000	-0,068	0,181
-651,057	350,101	0,063	-0,092
-650,043	-63,418	-0,131	0,039
-649,028	3,695	-0,027	0,014
-648,014	513,198	0,036	-0,062
-646,999	-200,000	-0,003	0,020
-645,984	-200,000	0,007	0,036
-644,970	545,770	-0,074	-0,129
-643,955	516,844	0,018	-0,031
-642,941	-85,284	-0,060	0,014
-641,926	-200,000	0,027	-0,119
-640,911	-102,205	0,045	-0,008
-639,897	628,590	0,105	0,196
-638,882	-200,000	-0,020	0,094
-637,868	291,760	-0,013	0,017
-636,853	313,228	0,088	-0,121
-635,838	2,454	-0,024	0,013
-634,824	800,000	-0,053	-0,148
-633,809	652,994	0,053	-0,100
-632,795	-57,342	0,131	0,042
-631,780	205,771	0,026	-0,029
-630,765	-200,000	0,022	0,100
-629,751	-200,000	-0,042	-0,140
-628,736	800,000	0,058	-0,162
-627,722	-26,056	-0,094	0,040
-626,707	206,426	0,039	-0,044
-625,692	143,754	-0,047	0,046
-624,678	-200,000	0,018	-0,107
-623,663	-200,000	-0,010	0,085
-622,649	17,827	-0,140	0,081
-621,634	800,000	0,061	0,160
-620,619	800,000	-0,018	0,055
-619,605	-48,986	0,131	0,046
-618,590	393,372	0,034	0,052
-617,576	-77,875	-0,130	0,033
-616,561	-33,345	-0,150	0,060
-615,546	13,063	0,084	-0,048
-614,532	488,967	-0,054	0,090
-613,517	-200,000	-0,021	-0,093
-612,503	-11,534	0,073	0,035
-611,488	71,048	-0,064	-0,048
-610,474	57,846	0,096	-0,069
-609,459	424,500	-0,030	-0,048
-608,444	800,000	-0,058	-0,170
-607,430	-130,686	0,050	-0,005
-606,415	800,000	0,031	-0,064
-605,401	-200,000	0,009	-0,082
-604,386	11,428	0,168	0,094
-603,371	59,694	-0,016	0,011
-602,357	-17,280	-0,100	-0,046
-601,342	439,749	-0,114	-0,182
-600,328	800,000	-0,042	-0,095
-599,313	-200,000	-0,035	-0,151
-598,298	-165,380	0,024	0,001
-597,284	244,560	0,038	0,047
-596,269	-200,000	0,005	0,043
-595,255	-200,000	-0,000	-0,088
-594,240	-200,000	-0,001	-0,158
-593,225	-103,332	0,032	0,006
-592,211	800,000	-0,022	0,067
-591,196	82,108	-0,126	-0,100
-590,182	552,285	-0,055	-0,098
-589,167	277,988	0,029	-0,038
-588,152	-200,000	0,033	0,151
-587,138	104,020	-0,077	-0,066
-586,123	-57,286	-0,121	0,039
-585,109	-200,000	-0,028	-0,116
-584,094	-200,000	0,002	-0,135
-583,079	102,914	0,073	-0,062
-582,065	-135,786	0,021	-0,002
-581,050	557,146	-0,031	0,055
-580,036	-200,000	0,041	0,000
-579,021	592,563	-0,056	-0,101
-578,006	14,402	-0,056	0,032
-576,992	507,022	0,047	0,080
-575,977	579,691	0,054	0,097
-574,963	-96,655	0,037	0,007
-573,948	-82,655	-0,069	-0,016
-572,934	49,194	0,029	0,020
-571,919	135,532	-0,057	-0,054
-570,904	-200,000	-0,010	-0,092
-569,890	800,000	-0,038	0,120
-568,875	-83,776	-0,064	-0,015
-567,861	257,710	-0,021	0,027
-566,846	-108,987	0,056	0,009
-565,831	193,545	-0,026	-0,029
-564,817	-8,372	-0,196	-0,096
-563,802	314,353	-0,049	-0,067
-562,788	-200,000	0,034	-0,173
-561,773	-18,366	-0,057	-0,026
-560,758	-62,922	0,066	-0,020
-559,744	-200,000	0,040	-0,129
-558,729	-200,000	0,016	0,068
-557,715	-200,000	0,011	-0,148
-556,700	-200,000	-0,002	0,021
-555,685	111,848	-0,092	0,081
-554,671	-60,970	0,105	-0,032
-553,656	800,000	0,026	-0,078
-552,642	800,000	0,036	0,100
-551,627	-200,000	0,009	0,035
-550,612	205,279	-0,064	-0,073
-549,598	433,708	-0,066	0,104
-548,583	89,368	-0,106	0,086
-547,569	-126,840	0,105	0,011
-546,554	332,711	0,045	-0,063
-545,539	81,736	-0,008	-0,006
-544,525	-200,000	0,042	0,161
-543,510	115,236	0,024	0,021
-542,496	51,910	0,021	-0,014
-541,481	-200,000	-0,063	-0,233
-540,466	532,403	-0,044	0,076
-539,452	209,795	0,112	0,128
-538,437	51,277	-0,067	0,047
-537,423	-200,000	-0,012	0,058
-536,408	-10,547	0,124	0,060
-535,393	641,255	-0,039	0,073
-534,379	-55,711	0,050	0,016
-533,364	-88,198	-0,029	-0,006
-532,350	527,759	0,028	-0,049
-531,335	39,950	0,051	0,033
-530,321	-107,218	-0,084	0,013
-529,306	800,000	0,011	0,029
-528,291	-142,178	-0,102	0,007
-527,277	800,000	-0,010	0,025
-526,262	-36,156	-0,060	0,024
-525,248	44,643	0,017	-0,012
-524,233	270,249	0,066	-0,085
-523,218	-131,139	-0,040	-0,004
-522,204	-67,124	-0,075	0,021
-521,189	-200,000	-0,016	-0,173
-520,175	12,015	-0,160	0,089
-519,160	-93,833	-0,066	0,013
-518,145	95,586	0,064	-0,054
-517,131	2,910	0,047	0,025
-516,116	315,437	-0,074	0,102
-515,102	800,000	-0,030	0,076
-514,087	656,284	0,054	-0,102
-513,072	-200,000	-0,007	-0,083
-512,058	202,095	-0,023	0,026
-511,043	-189,811	0,068	0,001
-510,029	800,000	0,010	-0,028
-509,014	646,448	0,044	-0,081
-507,999	-89,627	-0,103	0,022
-506,985	302,848	0,061	0,083
-505,970	-2,387	-0,065	0,033
-504,956	-94,156	0,076	0,015
-503,941	800,000	0,081	0,178
-502,926	390,870	0,024	0,037
-501,912	151,498	-0,021	0,021
-500,897	-0,183	-0,073	0,038
-499,883	400,418	0,080	0,122
-498,868	192,738	-0,087	-0,096
-497,853	4,012	-0,081	-0,043
-496,839	-113,636	0,127	-0,018
-495,824	51,759	0,125	-0,086
-494,810	390,574	-0,033	0,051
-493,795	-13,551	-0,045	0,021
-492,781	116,079	-0,019	0,017
-491,766	-179,431	-0,157	-0,002
-490,751	800,000	0,029	0,071
-489,737	203,326	-0,052	-0,059
-488,722	45,139	-0,094	0,063
-487,708	19,283	0,072	0,042
-486,693	-200,000	0,008	0,148
-485,678	172,254	0,081	0,085
-484,664	-200,000	0,015	-0,106
-483,649	-37,546	-0,060	0,023
-482,635	-161,702	0,112	-0,004
-481,620	-144,461	0,069	0,005
-480,605	55,600	0,130	0,091
-479,591	705,747	-0,076	0,146
-478,576	-200,000	-0,000	-0,027
-477,562	23,538	-0,138	-0,082
-476,547	-200,000	-0,012	-0,240
-475,532	-200,000	-0,009	-0,229
-474,518	-3,575	0,131	-0,066
-473,503	-200,000	0,007	0,102
-472,489	-200,000	-0,021	-0,113
-471,474	-163,879	0,085	0,003
-470,459	800,000	0,056	0,154
-469,445	113,721	0,127	-0,112
-468,430	219,898	-0,068	0,079
-467,416	-200,000	-0,009	-0,046
-466,401	48,776	-0,051	0,035
-465,386	119,325	0,054	0,049
-464,372	-200,000	0,000	0,060
-463,357	-87,609	-0,053	0,011
-462,343	-148,661	0,089	-0,005
-461,328	-200,000	0,002	0,107
-460,313	71,630	0,086	0,065
-459,299	250,468	0,072	0,089
-458,284	-200,000	-0,016	0,057
-457,270	-45,083	0,047	0,017
-456,255	-89,159	-0,177	-0,038
-455,241	-38,194	-0,049	0,019
-454,226	63,138	-0,082	-0,060
-453,211	-200,000	0,001	-0,093
-452,197	60,442	-0,107	-0,077
-451,182	270,152	0,003	-0,004
-450,168	167,288	0,026	0,026
-449,153	-125,339	0,015	-0,002
-448,138	-200,000	-0,027	-0,123
-447,124	-200,000	0,004	-0,093
-446,109	232,463	0,030	-0,036
-445,095	106,259	0,027	0,023
-444,080	-162,596	0,110	-0,004
-443,065	1,714	-0,090	0,047
-442,051	-159,106	0,091	0,004
-441,036	-61,230	0,089	0,027
-440,022	-82,415	0,035	-0,008
-439,007	800,000	-0,032	-0,083
-437,992	-200,000	0,033	-0,145
-436,978	-62,630	0,107	0,032
-435,963	-66,355	0,080	-0,023
-434,949	358,502	0,024	-0,035
-433,934	48,941	-0,099	0,068
-432,919	-200,000	0,010	0,070
-431,905	199,391	0,039	-0,044
-430,890	570,610	-0,055	0,097
-429,876	415,624	0,043	-0,067
-428,861	92,840	0,166	0,136
-427,846	-85,308	0,012	0,003
-426,832	77,096	-0,155	-0,120
-425,817	86,813	-0,112	0,090
-424,803	-200,000	-0,009	0,053
-423,788	54,210	-0,052	-0,036
-422,773	-71,823	0,167	0,045
-421,759	-125,647	-0,134	0,015
-420,744	-138,774	-0,140	0,011
-419,730	800,000	0,044	-0,098
-418,715	-200,000	-0,032	-0,182
-417,701	112,501	0,043	-0,038
-416,686	-74,358	0,049	-0,013
-415,671	-104,791	0,099	0,016
-414,657	28,314	0,135	-0,083
-413,642	-200,000	0,020	0,127
-412,628	12,106	-0,033	0,018
-411,613	713,925	-0,029	-0,055
-410,598	800,000	0,024	-0,073
-409,584	441,561	-0,051	-0,082
-408,569	-118,909	-0,057	-0,007
-407,555	12,936	0,128	-0,072
-406,540	567,552	-0,027	-0,049
-405,525	83,757	0,083	-0,066
-404,511	358,579	0,066	0,096
-403,496	0,541	-0,013	-0,006
-402,482	163,384	-0,120	0,123
-401,467	-200,000	0,008	0,079
-400,452	5,850	0,190	0,102
-399,438	-200,000	0,012	-0,065
-398,423	27,980	-0,015	0,009
-397,409	164,461	-0,065	0,066
-396,394	57,746	0,145	0,103
-395,379	-200,000	0,020	0,000
-394,365	323,008	0,042	0,058
-393,350	148,570	-0,004	0,004
-392,336	-200,000	-0,033	0,190
-391,321	4,996	0,065	0,035
-390,306	800,000	-0,045	-0,112
-389,292	-74,968	0,079	-0,020
-388,277	-200,000	0,025	-0,223
-387,263	-112,136	-0,061	-0,009
-386,248	287,902	0,065	0,086
-385,233	-200,000	-0,030	0,141
-384,219	800,000	0,018	-0,045
-383,204	-58,271	-0,064	-0,020
-382,190	-10,172	-0,065	-0,031
-381,175	111,708	0,073	0,064
-380,160	65,402	0,079	-0,058
-379,146	232,548	0,070	-0,083
-378,131	-200,000	0,005	0,126
-377,117	170,591	0,029	-0,031
-376,102	116,757	-0,115	-0,102
-375,088	207,405	-0,052	-0,059
-374,073	-200,000	0,000	0,186
-373,058	-110,196	-0,101	0,015
-372,044	466,544	0,062	0,101
-371,029	-200,000	-0,016	0,129
-370,015	-200,000	-0,024	-0,081
-369,000	-200,000	0,001	0,094
-367,985	800,000	0,025	-0,068
-366,971	-67,336	-0,059	-0,017
-365,956	21,784	0,128	0,075
-364,942	510,627	0,027	0,046
-363,927	193,216	-0,067	0,074
-362,912	268,596	0,034	0,044
-361,898	-18,368	-0,053	-0,024
-360,883	-42,250	-0,134	-0,049
-359,869	-21,871	-0,026	-0,011
-358,854	800,000	0,047	-0,126
-357,839	33,942	-0,034	-0,021
-356,825	-200,000	-0,003	-0,038
-355,810	-85,119	0,071	-0,016
-354,796	-200,000	0,003	0,026
-353,781	-18,652	-0,082	-0,037
-352,766	800,000	0,034	0,104
-351,752	800,000	-0,016	0,051
-350,737	-200,000	-0,015	0,129
-349,723	398,345	0,060	0,091
-348,708	604,013	0,037	0,066
-347,693	-200,000	0,006	-0,031
-346,679	-200,000	-0,016	-0,063
-345,664	800,000	-0,049	-0,123
-344,650	490,322	0,056	-0,093
-343,635	248,560	-0,048	-0,059
-342,620	-200,000	0,022	0,124
-341,606	47,987	0,063	-0,043
-340,591	661,421	0,019	-0,036
-339,577	800,000	0,017	-0,052
-338,562	-14,223	0,065	-0,030
-337,548	-28,645	-0,057	0,023
-336,533	-11,381	0,171	0,081
-335,518	-113,858	0,064	-0,009
-334,504	-146,963	0,007	0,000
-333,489	69,656	-0,151	-0,113
-332,475	1,916	0,054	-0,028
-331,460	800,000	-0,061	0,156
-330,445	-200,000	-0,028	-0,140
-329,431	17,872	0,108	-0,062
-328,416	63,402	-0,043	0,031
-327,402	32,437	0,091	0,057
-326,387	443,594	0,058	-0,092
-325,372	-200,000	0,004	0,024
-324,358	246,178	0,024	-0,030
-323,343	-66,915	-0,122	-0,035
-322,329	-200,000	0,008	0,048
-321,314	-200,000	0,002	0,071
-320,299	96,022	0,076	0,063
-319,285	140,252	0,023	-0,022
-318,270	47,964	-0,065	0,044
-317,256	143,496	-0,080	-0,077
-316,241	63,752	-0,102	0,074
-315,226	19,312	0,093	-0,054
-314,212	514,736	-0,035	0,060
-313,197	-57,171	0,093	0,030
-312,183	123,142	-0,026	-0,024
-311,168	-200,000	0,009	-0,106
-310,153	-56,160	-0,076	-0,024
-309,139	395,276	0,065	0,099
-308,124	114,267	0,039	-0,034
-307,110	-155,917	0,076	-0,003
-306,095	503,818	0,014	-0,023
-305,080	-200,000	-0,011	0,121
-304,066	9,336	-0,101	-0,055
-303,051	-200,000	-0,043	0,177
-302,037	-147,244	0,047	0,003
-301,022	90,769	0,124	0,100
-300,008	167,565	0,057	0,059
-298,993	433,821	0,051	0,081
-297,978	349,791	-0,067	0,096
-296,964	-200,000	-0,002	0,012
-295,949	405,580	-0,076	-0,116
-294,935	-122,814	0,058	-0,007
-293,920	-200,000	0,017	0,103
-292,905	457,956	0,096	0,154
-291,891	6,320	-0,038	0,020
-290,876	475,373	0,058	0,095
-289,862	-128,399	-0,100	-0,010
-288,847	83,769	0,009	0,007
-287,832	-200,000	-0,003	0,023
-286,818	-30,723	0,128	-0,052
-285,803	-200,000	0,005	0,135
-284,789	-200,000	0,016	0,148
-283,774	102,491	-0,104	-0,088
-282,759	-200,000	0,015	0,085
-281,745	-103,696	0,047	0,008
-280,730	92,088	0,085	0,069
-279,716	800,000	0,025	0,065
-278,701	-125,294	0,168	-0,018
-277,686	74,270	0,154	0,117
-276,672	737,828	0,040	-0,078
-275,657	119,650	-0,047	-0,042
-274,643	800,000	0,015	-0,040
-273,628	440,078	-0,028	0,045
-272,613	60,181	-0,067	-0,048
-271,599	-37,527	-0,026	-0,010
-270,584	-200,000	0,027	0,128
-269,570	65,937	-0,019	0,014
-268,555	38,584	-0,101	0,065
-267,540	-24,655	0,067	-0,028
-266,526	-21,180	-0,062	-0,027
-265,511	-186,937	0,043	-0,000
-264,497	-78,190	-0,070	-0,017
-263,482	130,618	-0,029	0,026
-262,467	-200,000	-0,010	0,038
-261,453	29,437	-0,064	0,039
-260,438	539,700	-0,035	-0,061
-259,424	-99,055	-0,093	0,017
-258,409	-172,904	0,068	-0,001
-257,395	239,631	0,050	0,061
-256,380	100,072	0,053	-0,044
-255,365	-102,212	-0,083	-0,014
-254,351	800,000	-0,023	-0,061
-253,336	22,599	-0,061	0,036
-252,322	-200,000	0,011	-0,042
-251,307	-200,000	0,019	0,069
-250,292	-200,000	-0,025	-0,091
-249,278	800,000	0,035	0,090
-248,263	279,238	-0,066	0,085
-247,249	17,847	-0,136	-0,078
-246,234	-172,969	0,103	-0,002
-245,219	88,054	-0,088	-0,070
-244,205	405,063	0,054	-0,083
-243,190	-200,000	0,012	-0,071
-242,176	161,912	0,064	-0,064
-241,161	-60,071	0,083	-0,025
-240,146	650,727	0,015	-0,028
-239,132	66,259	0,041	0,030
-238,117	186,542	-0,066	-0,071
-237,103	268,709	-0,021	0,027
-236,088	147,651	-0,145	0,141
-235,073	-52,351	0,022	0,007
-234,059	463,749	0,061	0,099
-233,044	-200,000	0,018	-0,147
-232,030	-60,611	0,117	0,036
-231,015	141,255	-0,108	-0,103
-230,000	312,346	0,026	-0,035
-228,986	260,124	-0,049	-0,061
-227,971	-60,927	-0,138	-0,042
-226,957	27,296	0,103	0,062
-225,942	-35,911	0,118	0,046
-224,927	42,489	-0,017	-0,011
-223,913	10,264	-0,062	-0,034
-222,898	-105,509	-0,144	-0,023
-221,884	-91,925	-0,095	-0,019
-220,869	800,000	0,053	-0,114
-219,855	-44,484	-0,119	0,043
-218,840	209,938	-0,044	-0,050
-217,825	-120,479	-0,055	0,007
-216,811	-18,305	-0,063	0,028
-215,796	15,221	0,054	-0,030
-214,782	-62,025	0,147	0,044
-213,767	-142,510	0,076	0,005
-212,752	0,145	0,052	-0,027
-211,738	-200,000	-0,019	0,123
-210,723	800,000	-0,061	0,190
-209,709	149,081	-0,125	-0,122
-208,694	-13,669	-0,039	0,018
-207,679	800,000	-0,022	-0,066
-206,665	-9,397	0,134	0,064
-205,650	513,535	-0,022	-0,037
-204,636	29,395	0,028	0,017
-203,621	-15,259	-0,051	0,024
-202,606	-9,800	0,128	0,061
-201,592	241,025	-0,097	-0,117
-200,577	-176,527	-0,083	-0,001
-199,563	284,324	0,072	-0,094
-198,548	-151,817	0,042	0,002
-197,533	677,806	-0,021	-0,040
-196,519	-200,000	-0,010	0,061
-195,504	273,882	0,130	-0,166
-194,490	-30,723	-0,083	-0,034
-193,475	-200,000	-0,014	-0,051
-192,460	217,055	0,066	-0,076
-191,446	20,992	0,030	-0,017
-190,431	88,557	0,079	0,063
-189,417	-200,000	-0,005	-0,034
-188,402	676,931	-0,014	-0,026
-187,387	784,984	-0,068	0,135
-186,373	18,107	-0,055	0,032
-185,358	-107,633	-0,114	-0,018
-184,344	-200,000	-0,009	0,057
-183,329	402,537	-0,026	0,040
-182,315	-89,260	-0,014	-0,003
-181,300	-200,000	0,022	-0,165
-180,285	2,253	-0,137	-0,071
-179,271	294,290	0,042	-0,056
-178,256	-0,120	-0,085	0,044
-177,242	-38,003	-0,052	-0,020
-176,227	800,000	0,042	-0,101
-175,212	238,870	0,060	0,072
-174,198	-117,754	0,042	-0,005
-173,183	800,000	-0,042	0,089
-172,169	-200,000	0,033	0,129
-171,154	-162,393	0,045	-0,002
-170,139	11,347	-0,032	0,018
-169,125	111,697	0,092	0,080
-168,110	-200,000	0,010	0,111
-167,096	800,000	0,022	0,051
-166,081	124,398	-0,089	-0,081
-165,066	-69,966	-0,245	-0,067
-164,052	376,643	0,062	-0,092
-163,037	167,268	-0,079	-0,081
-162,023	-33,590	-0,105	0,042
-161,008	-200,000	0,005	0,189
-159,993	217,852	0,060	0,068
-158,979	-154,434	-0,096	0,005
-157,964	800,000	0,017	0,048
-156,950	-11,899	-0,064	-0,030
-155,935	-3,281	0,148	-0,074
-154,920	-97,021	0,049	-0,009
-153,906	-25,381	0,079	0,034
-152,891	-59,304	-0,146	-0,045
-151,877	800,000	-0,035	-0,106
-150,862	99,113	0,034	-0,028
-149,847	273,088	-0,115	-0,146
-148,833	236,736	0,091	-0,109
-147,818	-126,822	0,175	0,018
-146,804	172,207	-0,062	0,064
-145,789	-200,000	0,020	-0,066
-144,775	-200,000	-0,019	-0,076
-143,760	51,456	-0,084	0,057
-142,745	244,534	-0,059	-0,072
-141,731	800,000	-0,043	0,093
-140,716	19,661	0,023	0,013
-139,702	408,485	0,044	-0,067
-138,687	-113,843	0,076	-0,011
-137,672	132,134	0,103	-0,095
-136,658	37,998	-0,110	-0,070
-135,643	-200,000	0,011	-0,051
-134,629	-108,528	-0,105	0,016
-133,614	-200,000	0,018	0,080
-132,599	135,492	-0,020	-0,018
-131,585	620,718	0,058	0,104
-130,570	800,000	0,046	0,112
-129,556	-200,000	0,007	-0,090
-128,541	-91,468	0,091	-0,019
-127,526	-200,000	-0,008	-0,043
-126,512	-200,000	0,009	-0,091
-125,497	515,080	-0,048	0,081
-124,483	-155,919	-0,085	0,004
-123,468	-74,813	-0,119	0,030
-122,453	446,861	-0,079	0,125
-121,439	-110,724	0,131	-0,019
-120,424	-200,000	-0,025	0,099
-119,410	-5,003	0,075	-0,037
-118,395	-38,791	0,093	-0,035
-117,380	-6,577	-0,065	0,032
-116,366	50,753	-0,096	0,065
-115,351	-77,350	-0,069	0,017
-114,337	-200,000	0,011	0,143
-113,322	-98,915	-0,026	0,005
-112,307	70,067	-0,080	-0,059
-111,293	-1,245	0,083	0,042
-110,278	800,000	0,011	0,027
-109,264	-77,217	-0,054	-0,013
-108,249	181,186	-0,039	-0,041
-107,234	346,513	-0,046	-0,066
-106,220	800,000	-0,025	-0,078
-105,205	210,025	0,040	-0,045
-104,191	502,508	0,052	0,086
-103,176	-200,000	0,034	0,110
-102,162	2,918	0,065	-0,034
-101,147	567,280	0,068	0,119
-100,132	-200,000	0,003	0,024
-99,118	104,761	-0,065	-0,055
-98,103	76,602	0,047	-0,035
-97,089	-200,000	-0,009	0,176
-96,074	-200,000	0,004	0,085
-95,059	800,000	0,035	0,073
-94,045	-200,000	-0,001	0,036
-93,030	116,108	-0,143	-0,126
-92,016	-200,000	-0,021	-0,082
-91,001	-66,486	0,152	-0,043
-89,986	-145,273	-0,009	0,001
-88,972	191,374	-0,016	-0,017
-87,957	-177,370	-0,058	0,001
-86,943	-66,563	-0,054	-0,015
-85,928	558,323	0,087	-0,151
-84,913	47,741	-0,021	0,014
-83,899	171,924	0,054	-0,055
-82,884	800,000	0,017	0,044
-81,870	59,401	-0,030	-0,021
-80,855	-136,791	0,025	-0,002
-79,840	181,459	-0,058	0,061
-78,826	124,987	-0,034	-0,031
-77,811	-78,176	-0,043	-0,011
-76,797	-58,235	-0,057	-0,018
-75,782	422,848	0,049	-0,076
-74,767	-44,641	0,062	0,022
-73,753	-83,480	0,150	-0,034
-72,738	600,186	0,039	-0,070
-71,724	56,129	0,021	0,014
-70,709	800,000	-0,011	0,023
-69,694	-141,393	-0,194	0,014
-68,680	467,337	0,055	-0,089
-67,665	11,586	0,087	0,048
-66,651	-200,000	0,023	0,110
-65,636	-163,929	-0,085	-0,003
-64,622	-33,211	-0,017	-0,007
-63,607	291,823	0,073	0,095
-62,592	-0,821	0,072	-0,036
-61,578	-75,795	0,061	-0,015
-60,563	-81,364	-0,086	0,020
-59,549	291,253	0,035	-0,046
-58,534	39,881	-2,291	-1,470
-57,519	-200,000	-0,100	-0,668
-56,505	-200,000	-1,490	-5,102
-55,490	61,041	0,941	0,668
-54,476	800,000	5,235	12,140
-53,461	-200,000	19,111	321,397
-52,446	800,000	742,460	2325,095
-51,432	548,130	1655,102	2848,492
-50,417	109,530	1637,565	1404,187
-49,403	73,146	1287,906	962,877
-48,388	29,360	1029,496	624,711
-47,373	19,551	992,521	569,850
-46,359	16,841	980,342	553,934
-45,344	13,360	976,765	540,471
-44,330	13,715	974,879	540,569
-43,315	13,086	973,074	537,487
-42,300	13,055	972,027	536,787
-41,286	13,062	971,019	536,232
-40,271	13,068	970,014	535,675
-39,257	13,048	969,364	535,230
-38,242	13,010	968,500	534,606
-37,227	13,059	967,400	534,138
-36,213	13,085	966,350	533,623
-35,198	12,897	965,802	532,688
-34,184	12,999	965,108	532,614
-33,169	12,912	964,200	531,809
-32,154	13,060	962,990	531,602
-31,140	13,090	962,135	531,206
-30,125	13,110	961,511	530,904
-29,111	13,087	960,590	530,300
-28,096	13,027	960,109	529,820
-27,082	13,051	959,290	529,424
-26,067	13,078	958,556	529,084
-25,052	12,996	957,889	528,431
-24,038	12,961	957,363	528,009
-23,023	13,022	956,673	527,804
-22,009	13,009	956,026	527,382
-20,994	13,096	955,164	527,165
-19,979	13,055	954,627	526,717
-18,965	13,022	954,190	526,347
-17,950	13,091	953,511	526,176
-16,936	12,966	952,900	525,417
-15,921	12,972	952,226	525,044
-14,906	12,952	951,449	524,530
-13,892	12,961	950,706	524,129
-12,877	12,898	950,288	523,676
-11,863	12,858	949,537	523,112
-10,848	12,931	948,970	523,014
-9,833	13,065	948,538	523,180
-8,819	13,004	947,896	522,613
-7,804	12,907	947,115	521,852
-6,790	12,902	946,640	521,554
-5,775	12,976	945,873	521,347
-4,760	12,995	945,551	521,207
-3,746	13,032	944,702	520,837
-2,731	12,828	944,284	519,938
-1,717	12,777	943,635	519,397
-0,702	12,835	942,497	518,934
0,313	12,610	941,992	518,728
1,327	16,075	940,172	528,627
2,342	25,371	790,528	468,989
3,356	21,469	445,172	258,295
4,371	-7,856	298,700	143,697
5,386	-11,442	280,467	131,479
6,400	-12,884	274,720	127,420
7,415	-13,004	272,565	126,296
8,429	-12,993	270,866	125,508
9,444	-13,238	269,972	124,857
10,459	-13,052	269,414	124,759
11,473	-13,188	268,942	124,404
12,488	-13,213	268,338	124,091
13,502	-13,382	267,613	123,590
14,517	-13,450	267,288	123,367
15,531	-13,386	266,793	123,186
16,546	-13,216	266,352	123,127
17,561	-13,174	265,904	122,946
18,575	-13,183	265,688	122,827
19,590	-13,457	265,353	122,413
20,604	-13,263	265,067	122,445
21,619	-13,450	264,685	122,089
22,634	-13,222	264,262	122,090
23,648	-13,597	264,013	121,625
24,663	-13,376	263,952	121,786
25,677	-13,462	263,409	121,447
26,692	-13,475	263,339	121,392
27,707	-13,483	263,091	121,260
28,721	-13,525	262,852	121,101
29,736	-13,305	262,327	121,046
30,750	-13,556	262,213	120,758
31,765	-13,374	261,908	120,769
32,780	-13,498	261,702	120,552
33,794	-13,475	261,359	120,404
34,809	-13,413	261,071	120,316
35,823	-13,296	260,789	120,279
36,838	-13,535	260,662	119,998
37,853	-13,710	260,439	119,729
38,867	-13,499	260,266	119,825
39,882	-13,633	259,972	119,561
40,896	-13,415	259,710	119,622
41,911	-13,502	259,418	119,401
42,926	-13,557	259,256	119,266
43,940	-13,589	258,932	119,079
44,955	-13,718	258,823	118,904
45,969	-13,746	258,521	118,731
46,984	-14,001	258,347	118,416
47,999	-14,201	257,970	118,056
49,013	-14,262	257,841	117,933
50,028	-14,231	257,376	117,737
51,042	-14,509	257,105	117,360
52,057	-14,372	256,880	117,366
53,071	-14,338	256,678	117,293
54,086	-14,366	256,605	117,225
55,101	-14,221	256,473	117,281
56,115	-13,878	256,208	117,448
57,130	-13,309	256,135	117,901
58,144	-13,519	256,170	117,723
59,159	-13,259	255,856	117,794
60,174	-13,421	255,624	117,536
61,188	-13,149	255,345	117,633
62,203	-13,421	255,265	117,350
63,217	-13,405	254,948	117,208
64,232	-13,483	254,649	116,992
65,247	-13,322	254,659	117,126
66,261	-13,535	254,334	116,782
67,276	-13,514	253,964	116,619
68,290	-13,668	253,675	116,344
69,305	-13,788	253,268	116,043
70,320	-13,937	253,344	115,939
71,334	-13,712	253,212	116,062
72,349	-13,207	252,985	116,383
73,363	-13,268	252,838	116,252
74,378	-13,488	252,691	115,985
75,393	-13,510	252,425	115,834
76,407	-13,332	252,168	115,858
77,422	-13,460	252,088	115,701
78,436	-13,315	251,753	115,662
79,451	-13,575	251,571	115,344
80,466	-13,512	251,163	115,201
81,480	-13,653	250,922	114,960
82,495	-13,708	250,791	114,843
83,509	-13,840	250,871	114,757
84,524	-13,699	250,369	114,637
85,539	-13,970	250,153	114,298
86,553	-14,069	249,962	114,116
87,568	-13,703	249,763	114,325
88,582	-13,849	249,706	114,166
89,597	-13,862	249,521	114,060
90,611	-13,575	249,338	114,209
91,626	-13,484	249,137	114,183
92,641	-13,647	249,050	113,996
93,655	-13,599	248,661	113,849
94,670	-13,598	248,519	113,774
95,684	-13,672	248,165	113,539
96,699	-13,560	248,074	113,582
97,714	-13,682	247,922	113,400
98,728	-14,004	247,587	112,966
99,743	-13,837	247,431	113,024
100,757	-13,852	247,249	112,919
101,772	-13,954	247,107	112,759
102,787	-13,883	246,971	112,746
103,801	-13,891	246,827	112,663
104,816	-13,681	246,572	112,713
105,830	-13,618	246,597	112,766
106,845	-13,472	246,363	112,771
107,860	-13,572	245,935	112,482
108,874	-13,639	245,940	112,419
109,889	-13,562	245,561	112,299
110,903	-13,779	245,437	112,052
111,918	-13,708	245,189	111,988
112,933	-13,660	245,200	112,023
113,947	-13,471	244,895	112,030
114,962	-13,544	244,669	111,856
115,976	-13,347	244,480	111,923
116,991	-13,550	244,518	111,762
118,006	-13,721	244,317	111,518
119,020	-13,687	244,028	111,405
120,035	-13,203	243,961	111,764
121,049	-13,329	243,725	111,543
122,064	-13,628	243,723	111,285
123,079	-13,649	243,324	111,075
124,093	-13,776	243,131	110,873
125,108	-13,896	242,981	110,696
126,122	-14,000	242,619	110,436
127,137	-13,954	242,414	110,370
128,151	-13,725	242,245	110,471
129,166	-13,920	242,118	110,243
130,181	-13,859	241,970	110,216
131,195	-13,991	241,674	109,964
132,210	-13,576	241,517	110,222
133,224	-13,482	241,491	110,277
134,239	-13,648	241,306	110,047
135,254	-13,467	241,173	110,124
136,268	-13,829	240,926	109,706
137,283	-13,917	240,653	109,501
138,297	-14,172	240,443	109,189
139,312	-13,996	240,082	109,157
140,327	-13,747	240,143	109,378
141,341	-13,322	240,099	109,693
142,356	-13,080	239,948	109,810
143,370	-13,024	239,745	109,752
144,385	-13,037	239,740	109,730
145,400	-13,177	239,311	109,410
146,414	-13,133	239,274	109,419
147,429	-13,378	239,008	109,090
148,443	-13,033	238,863	109,293
149,458	-13,124	238,729	109,148
150,473	-13,354	238,748	108,962
151,487	-13,476	238,382	108,687
152,502	-13,128	238,091	108,825
153,516	-13,091	237,990	108,798
154,531	-13,394	237,792	108,455
155,546	-13,429	237,620	108,339
156,560	-13,433	237,527	108,284
157,575	-13,423	237,261	108,160
158,589	-13,234	237,043	108,203
159,604	-13,373	237,023	108,073
160,619	-13,125	236,871	108,192
161,633	-13,067	236,537	108,076
162,648	-12,941	236,501	108,150
163,662	-13,151	236,178	107,826
164,677	-13,066	236,185	107,887
165,692	-13,098	236,040	107,785
166,706	-13,184	235,925	107,655
167,721	-13,052	235,755	107,673
168,735	-13,085	235,506	107,523
169,750	-13,037	235,477	107,539
170,764	-13,256	235,267	107,260
171,779	-12,977	235,098	107,394
172,794	-12,948	234,983	107,355
173,808	-13,318	234,680	106,915
174,823	-13,959	234,435	106,287
175,837	-13,907	234,282	106,249
176,852	-13,485	234,349	106,603
177,867	-13,296	234,100	106,630
178,881	-12,973	233,881	106,774
179,896	-13,057	233,737	106,633
180,910	-13,089	233,607	106,539
181,925	-12,949	233,477	106,581
182,940	-13,043	233,469	106,493
183,954	-13,079	233,300	106,378
184,969	-13,015	233,176	106,363
185,983	-13,005	232,992	106,277
186,998	-13,088	232,786	106,108
188,013	-13,075	232,557	106,005
189,027	-12,809	232,453	106,156
190,042	-13,073	232,323	105,881
191,056	-12,758	232,066	106,000
192,071	-12,973	231,891	105,743
193,086	-12,810	231,781	105,811
194,100	-12,971	231,788	105,679
195,115	-13,064	231,283	105,367
196,129	-12,637	231,499	105,788
197,144	-6,614	233,559	111,443
198,159	-0,732	235,332	116,912
199,173	2,561	236,217	119,937
200,188	2,977	236,208	120,250
201,202	3,107	235,916	120,193
202,217	3,184	235,838	120,203
203,232	3,258	235,771	120,216
204,246	3,386	235,593	120,215
205,261	3,482	235,502	120,233
206,275	3,519	235,422	120,210
207,290	3,565	235,278	120,163
208,304	3,777	235,084	120,219
209,319	3,624	234,908	119,998
210,334	3,561	234,722	119,843
211,348	3,184	234,424	119,387
212,363	3,038	234,117	119,105
213,377	2,822	233,868	118,800
214,392	2,742	233,844	118,715
215,407	2,802	233,802	118,730
216,421	2,933	233,602	118,720
217,436	2,709	233,435	118,450
218,450	2,625	233,138	118,223
219,465	2,438	232,951	117,973
220,480	2,566	232,999	118,086
221,494	2,619	232,755	117,993
222,509	2,864	232,692	118,140
223,523	2,760	232,514	117,959
224,538	2,704	232,302	117,797
225,553	2,848	232,147	117,819
226,567	2,713	232,169	117,716
227,582	3,135	231,938	117,914
228,596	3,015	232,070	117,878
229,611	2,907	231,663	117,577
230,626	2,476	231,331	117,067
231,640	2,616	231,383	117,190
232,655	2,862	231,275	117,314
233,669	3,387	230,962	117,548
234,684	3,254	230,949	117,429
235,699	3,139	230,825	117,267
236,713	2,814	230,568	116,877
237,728	2,711	230,425	116,715
238,742	2,590	230,099	116,448
239,757	2,630	230,107	116,472
240,772	2,814	229,876	116,485
241,786	2,648	229,912	116,366
242,801	2,965	229,563	116,421
243,815	3,372	229,700	116,790
244,830	2,929	229,579	116,381
245,844	2,776	229,317	116,121
246,859	2,817	229,025	115,994
247,874	3,179	228,896	116,193
248,888	3,193	228,751	116,120
249,903	3,014	228,601	115,897
250,917	3,012	228,415	115,792
251,932	2,848	228,277	115,587
252,947	2,711	228,158	115,413
253,961	2,550	227,952	115,176
254,976	2,797	227,870	115,312
255,990	3,148	227,828	115,545
257,005	3,143	227,526	115,378
258,020	2,855	227,526	115,151
259,034	3,086	227,452	115,277
260,049	2,906	227,387	115,098
261,063	2,968	227,168	115,023
262,078	3,263	226,974	115,137
263,093	3,190	226,781	114,974
264,107	3,019	226,687	114,788
265,122	3,289	226,538	114,904
266,136	3,400	226,472	114,944
267,151	3,499	226,118	114,828
268,166	2,891	226,028	114,317
269,180	2,594	225,704	113,921
270,195	2,707	225,631	113,959
271,209	2,842	225,422	113,943
272,224	2,776	225,406	113,876
273,239	2,764	225,253	113,779
274,253	2,711	225,163	113,684
275,268	2,558	224,913	113,434
276,282	2,397	224,693	113,193
277,297	2,562	224,529	113,223
278,312	2,868	224,388	113,370
279,326	2,760	224,261	113,215
280,341	2,769	224,368	113,266
281,355	2,951	224,136	113,273
282,370	2,649	224,043	112,993
283,384	2,599	223,706	112,775
284,399	2,500	223,553	112,615
285,414	2,497	223,398	112,524
286,428	2,733	223,432	112,706
287,443	2,896	223,373	112,786
288,457	2,952	223,160	112,711
289,472	2,908	222,880	112,527
290,487	2,317	222,674	111,977
291,501	2,318	222,465	111,862
292,516	2,479	222,330	111,903
293,530	2,580	222,140	111,872
294,545	2,338	222,218	111,723
295,560	2,499	222,146	111,795
296,574	2,722	222,053	111,903
297,589	2,770	221,747	111,773
298,603	2,914	221,601	111,796
299,618	2,737	221,439	111,574
300,633	2,772	221,514	111,627
301,647	3,127	221,219	111,728
302,662	2,911	221,232	111,567
303,676	2,974	221,063	111,518
304,691	3,051	220,866	111,465
305,706	2,955	220,710	111,306
306,720	2,941	220,645	111,254
307,735	2,741	220,431	110,990
308,749	2,422	220,257	110,660
309,764	2,819	220,223	110,922
310,779	3,051	220,057	110,997
311,793	2,905	219,895	110,799
312,808	2,930	219,691	110,705
313,822	2,989	219,484	110,634
314,837	2,824	219,383	110,453
315,852	2,669	219,203	110,240
316,866	2,868	219,122	110,334
317,881	3,062	219,050	110,428
318,895	3,010	218,801	110,255
319,910	2,786	218,600	109,982
320,925	2,735	218,476	109,873
321,939	2,311	218,282	109,461
322,954	2,338	218,243	109,451
323,968	2,744	218,343	109,784
324,983	2,926	218,118	109,792
325,997	2,851	217,985	109,661
327,012	2,976	217,811	109,654
328,027	3,073	217,662	109,638
329,041	3,172	217,662	109,699
330,056	3,205	217,451	109,607
331,070	2,840	217,163	109,191
332,085	2,668	217,020	108,987
333,100	2,731	216,863	108,943
334,114	2,708	216,612	108,790
335,129	2,684	216,566	108,741
336,143	2,909	216,546	108,881
337,158	3,073	216,385	108,908
338,173	2,984	216,253	108,768
339,187	2,977	215,876	108,564
340,202	2,512	215,958	108,265
341,216	2,684	215,771	108,284
342,231	2,805	215,594	108,271
343,246	2,673	215,540	108,140
344,260	2,726	215,470	108,133
345,275	3,031	215,347	108,278
346,289	2,779	215,213	108,022
347,304	3,018	214,990	108,071
348,319	2,717	214,801	107,753
349,333	2,803	214,770	107,788
350,348	2,783	214,616	107,687
351,362	2,943	214,595	107,780
352,377	3,006	214,450	107,742
353,392	2,898	214,133	107,497
354,406	2,885	213,977	107,400
355,421	198,245	1314,746	1396,147
356,435	158,670	1448,804	1396,083
