DTS Sentinel unit serial number:	SN410029Multiplexer serial number:	ORYXHardware model number:	OX2-SRSoftware version number:	ORYX F/W v4,00 Oryx Data Collector v3.7.2.0data status	okinstallation	B6 Nyhavnadifferential loss correction	single-endedforward channel	channel 2reverse channel	N/Adate	2023/12/10time	12:55:08forward acquisition time	300,00reverse acquisition time	0,00gamma	499,1914k internal	0,3123k external	0,3123temperature offset calibration	1,0000default loss term (dB/km)	0,3820temperature slope calibration	1,0000multiplexer offset coefficient	1,0000multiplexer slope coefficient	1,0000fibre end	0,00T internal ref (°C)	22,81T ext. ref 1 (°C)	6,51T ext. ref 2 (°C)	6,53length (m)	temperature (°C)	Stokes	anti-Stokes-744,400	800,000	0,070	-0,174
-743,385	22,925	-0,182	0,111
-742,371	77,089	0,184	0,146
-741,356	723,970	-0,088	0,176
-740,342	800,000	0,061	-0,174
-739,327	-101,569	-0,194	0,035
-738,312	-45,185	0,125	-0,046
-737,298	-148,625	-0,199	0,012
-736,283	68,117	0,092	0,070
-735,269	460,394	-0,116	0,194
-734,254	-114,124	-0,053	0,008
-733,239	99,976	-0,268	-0,232
-732,225	-52,830	0,170	0,058
-731,210	281,778	-0,090	0,121
-730,196	92,186	0,069	0,058
-729,181	-131,842	-0,104	-0,010
-728,167	-32,819	-0,035	-0,014
-727,152	-36,260	0,023	0,009
-726,137	224,079	-0,047	0,057
-725,123	800,000	-0,102	-0,232
-724,108	109,290	-0,126	-0,113
-723,094	-76,146	-0,091	-0,024
-722,079	58,933	-0,073	-0,053
-721,064	648,766	-0,026	0,050
-720,050	-200,000	0,009	-0,053
-719,035	260,843	-0,060	-0,078
-718,021	-52,443	0,066	-0,022
-717,006	-200,000	-0,062	-0,256
-715,991	306,440	-0,034	-0,047
-714,977	-200,000	-0,041	-0,211
-713,962	451,006	-0,132	-0,217
-712,948	-15,883	-0,038	-0,018
-711,933	292,321	-0,030	0,041
-710,918	225,950	0,077	-0,093
-709,904	-200,000	-0,043	-0,154
-708,889	55,489	-0,182	-0,131
-707,875	-200,000	-0,177	0,001
-706,860	-15,114	-0,013	0,006
-705,845	-171,348	-0,092	0,002
-704,831	37,107	0,095	0,063
-703,816	-144,881	0,041	-0,003
-702,802	-74,339	-0,166	0,044
-701,787	-200,000	-0,002	-0,031
-700,772	800,000	0,035	-0,074
-699,758	204,934	-0,045	-0,052
-698,743	29,250	0,018	-0,011
-697,729	-200,000	-0,011	-0,051
-696,714	182,539	0,024	0,026
-695,699	426,066	-0,029	0,046
-694,685	41,463	0,027	-0,018
-693,670	800,000	-0,050	-0,131
-692,656	176,938	-0,071	-0,077
-691,641	-150,788	0,152	-0,008
-690,627	8,820	0,085	-0,048
-689,612	-146,738	0,126	0,008
-688,597	-200,000	0,021	-0,101
-687,583	72,227	0,103	-0,080
-686,568	305,120	0,059	0,082
-685,554	434,982	-0,059	-0,096
-684,539	800,000	-0,065	0,172
-683,524	-141,147	0,179	-0,013
-682,510	-5,474	0,187	0,095
-681,495	123,553	-0,063	0,059
-680,481	-83,575	-0,043	0,010
-679,466	74,079	0,107	-0,083
-678,451	208,932	-0,051	-0,059
-677,437	-22,141	-0,094	-0,042
-676,422	-79,410	0,075	0,019
-675,408	-37,312	0,021	0,008
-674,393	-73,018	0,080	-0,022
-673,378	76,771	0,036	0,029
-672,364	-200,000	0,018	-0,072
-671,349	-200,000	-0,033	-0,181
-670,335	-116,569	-0,068	-0,009
-669,320	-103,017	0,034	-0,006
-668,305	110,551	0,030	-0,027
-667,291	-170,069	0,143	-0,004
-666,276	-19,111	-0,112	-0,052
-665,262	7,826	-0,100	-0,056
-664,247	-200,000	0,002	-0,033
-663,232	97,771	0,034	-0,029
-662,218	44,831	0,132	0,090
-661,203	-200,000	-0,017	-0,093
-660,189	800,000	-0,030	-0,074
-659,174	-13,983	0,102	-0,049
-658,159	312,742	0,041	0,057
-657,145	-63,883	-0,157	-0,048
-656,130	-200,000	-0,018	0,090
-655,116	526,819	-0,065	-0,115
-654,101	44,802	0,076	-0,052
-653,086	377,753	-0,038	0,058
-652,072	800,000	0,048	0,101
-651,057	64,802	-0,129	-0,097
-650,043	94,733	-0,021	0,018
-649,028	44,893	0,040	-0,027
-648,014	-114,526	0,136	-0,019
-646,999	-200,000	0,022	-0,110
-645,984	736,759	-0,025	0,051
-644,970	283,430	-0,125	-0,168
-643,955	-109,337	0,048	-0,008
-642,941	110,275	-0,003	0,003
-641,926	-45,388	-0,070	0,026
-640,911	385,485	0,032	-0,049
-639,897	757,101	0,055	-0,110
-638,882	153,007	-0,119	0,121
-637,868	-160,869	0,041	-0,002
-636,853	150,689	-0,140	-0,141
-635,838	-200,000	0,015	-0,219
-634,824	-133,319	-0,087	-0,008
-633,809	442,878	-0,047	0,077
-632,795	340,983	0,121	0,175
-631,780	7,286	0,096	0,053
-630,765	-200,000	0,007	0,037
-629,751	559,523	0,048	-0,086
-628,736	-133,309	-0,101	-0,009
-627,722	-62,469	0,049	-0,015
-626,707	-200,000	-0,020	-0,097
-625,692	270,910	-0,054	-0,071
-624,678	121,990	0,082	-0,076
-623,663	-166,545	-0,094	0,003
-622,649	656,759	0,041	-0,078
-621,634	63,618	-0,007	0,005
-620,619	786,472	0,037	0,076
-619,605	250,204	0,101	0,128
-618,590	117,618	0,033	-0,030
-617,576	70,875	-0,035	0,026
-616,561	58,458	-0,155	0,112
-615,546	298,430	0,062	-0,085
-614,532	61,751	0,048	-0,036
-613,517	-200,000	-0,021	-0,101
-612,503	-200,000	0,013	0,054
-611,488	-200,000	0,002	-0,043
-610,474	-200,000	-0,025	0,112
-609,459	-104,489	-0,149	0,025
-608,444	-97,189	-0,076	0,015
-607,430	-75,376	-0,116	-0,030
-606,415	-200,000	0,001	-0,011
-605,401	-37,074	-0,067	-0,026
-604,386	536,912	-0,015	0,027
-603,371	-200,000	-0,001	0,147
-602,357	293,749	-0,034	0,046
-601,342	-32,046	0,095	0,039
-600,328	800,000	0,058	0,121
-599,313	-38,024	-0,031	-0,012
-598,298	374,249	0,033	-0,049
-597,284	-200,000	0,021	-0,079
-596,269	571,129	0,047	0,085
-595,255	718,850	0,078	0,155
-594,240	-127,029	-0,146	0,016
-593,225	800,000	-0,021	0,064
-592,211	369,383	0,061	-0,092
-591,196	800,000	-0,033	0,070
-590,182	156,874	-0,032	-0,033
-589,167	32,508	0,086	-0,055
-588,152	800,000	-0,028	0,072
-587,138	-87,466	-0,090	-0,020
-586,123	459,065	-0,017	-0,029
-585,109	-200,000	-0,024	-0,131
-584,094	77,398	0,114	-0,090
-583,079	-200,000	-0,014	-0,127
-582,065	-200,000	0,017	-0,110
-581,050	-200,000	0,039	-0,148
-580,036	-200,000	-0,010	-0,164
-579,021	-200,000	-0,027	-0,132
-578,006	371,713	0,089	-0,134
-576,992	-200,000	-0,003	-0,056
-575,977	-200,000	-0,006	-0,053
-574,963	-88,926	0,157	0,034
-573,948	-200,000	-0,008	-0,044
-572,934	27,403	-0,072	0,045
-571,919	-51,953	-0,120	-0,041
-570,904	-200,000	0,014	-0,073
-569,890	800,000	-0,034	-0,103
-568,875	-103,525	0,037	-0,006
-567,861	376,918	0,071	0,108
-566,846	68,822	0,021	0,016
-565,831	-144,921	-0,090	0,006
-564,817	-200,000	0,001	0,014
-563,802	-200,000	0,003	-0,017
-562,788	105,722	-0,086	-0,075
-561,773	-93,470	0,010	-0,002
-560,758	800,000	0,042	-0,089
-559,744	800,000	-0,045	-0,117
-558,729	-200,000	-0,014	0,055
-557,715	800,000	0,033	0,101
-556,700	101,428	-0,057	-0,049
-555,685	312,104	0,044	-0,061
-554,671	322,188	-0,036	0,051
-553,656	-200,000	0,010	0,080
-552,642	-71,411	0,041	-0,011
-551,627	381,981	-0,042	0,065
-550,612	-93,851	-0,176	0,035
-549,598	800,000	0,042	-0,090
-548,583	-131,006	0,085	-0,008
-547,569	800,000	-0,015	-0,034
-546,554	-200,000	0,006	-0,027
-545,539	-173,147	0,101	0,002
-544,525	380,732	-0,035	-0,053
-543,510	-54,107	-0,096	-0,032
-542,496	-181,109	0,092	0,001
-541,481	-115,365	0,010	-0,001
-540,466	-200,000	-0,032	0,174
-539,452	-200,000	-0,017	0,086
-538,437	-96,419	0,087	-0,017
-537,423	-99,803	0,202	0,037
-536,408	136,008	-0,066	-0,063
-535,393	360,542	0,068	-0,101
-534,379	-162,102	-0,126	-0,005
-533,364	177,811	0,007	-0,008
-532,350	800,000	0,061	0,193
-531,335	-119,651	0,044	-0,006
-530,321	800,000	0,045	0,097
-529,306	-74,189	-0,113	-0,030
-528,291	23,738	-0,010	-0,006
-527,277	-57,456	-0,134	-0,043
-526,262	-200,000	-0,012	-0,080
-525,248	-126,073	-0,098	0,011
-524,233	-200,000	0,011	0,078
-523,218	-27,864	0,117	0,050
-522,204	-93,590	0,061	-0,012
-521,189	467,293	-0,025	0,042
-520,175	-25,498	-0,069	0,030
-519,160	800,000	-0,034	0,079
-518,145	-200,000	0,020	0,154
-517,131	-95,902	-0,083	0,016
-516,116	-200,000	0,048	0,156
-515,102	188,865	-0,007	0,008
-514,087	-200,000	-0,007	-0,052
-513,072	153,967	-0,011	-0,011
-512,058	-61,979	0,018	-0,006
-511,043	118,628	-0,096	0,088
-510,029	-200,000	-0,003	0,015
-509,014	800,000	0,048	0,118
-507,999	-200,000	-0,001	0,131
-506,985	44,311	0,140	-0,095
-505,970	52,491	-0,104	0,074
-504,956	-200,000	0,014	0,101
-503,941	-200,000	-0,005	0,053
-502,926	-67,375	-0,074	-0,021
-501,912	-200,000	0,000	-0,041
-500,897	-124,041	0,043	-0,005
-499,883	-175,682	-0,081	-0,002
-498,868	180,730	-0,088	-0,095
-497,853	-141,635	-0,041	-0,003
-496,839	289,053	0,029	-0,039
-495,824	-42,159	0,099	-0,037
-494,810	-95,500	0,026	0,005
-493,795	358,289	0,047	0,069
-492,781	-200,000	-0,021	-0,070
-491,766	-200,000	0,007	-0,039
-490,751	566,587	0,054	-0,097
-489,737	-59,144	-0,054	-0,017
-488,722	-0,480	0,061	-0,032
-487,708	129,994	0,080	0,076
-486,693	-55,049	0,110	0,036
-485,678	800,000	-0,038	0,114
-484,664	-200,000	0,028	-0,108
-483,649	-54,537	-0,141	0,047
-482,635	540,777	-0,024	0,043
-481,620	183,744	0,084	0,092
-480,605	800,000	-0,033	0,093
-479,591	91,963	0,069	-0,057
-478,576	-84,777	0,019	-0,004
-477,562	800,000	0,013	0,030
-476,547	484,005	-0,067	-0,114
-475,532	376,528	0,081	-0,123
-474,518	-54,768	-0,100	0,033
-473,503	-200,000	0,043	0,168
-472,489	-200,000	-0,017	-0,062
-471,474	96,715	0,070	0,059
-470,459	-158,355	0,020	0,001
-469,445	75,563	-0,105	-0,082
-468,430	-4,338	-0,137	0,070
-467,416	361,487	-0,144	0,213
-466,401	-104,378	0,097	0,016
-465,386	-173,935	-0,113	0,002
-464,372	800,000	-0,048	0,113
-463,357	-200,000	0,019	0,075
-462,343	-200,000	-0,014	-0,125
-461,328	800,000	0,030	-0,090
-460,313	294,393	-0,037	0,051
-459,299	-175,975	0,115	0,002
-458,284	-200,000	0,003	-0,208
-457,270	238,007	0,081	0,100
-456,255	-200,000	-0,001	-0,065
-455,241	7,271	-0,118	-0,065
-454,226	602,542	-0,051	-0,093
-453,211	-200,000	-0,014	0,093
-452,197	-200,000	-0,003	0,021
-451,182	530,791	0,038	0,067
-450,168	-200,000	-0,019	-0,063
-449,153	239,795	-0,048	-0,060
-448,138	-48,442	-0,075	-0,027
-447,124	139,430	-0,047	-0,046
-446,109	-200,000	-0,023	-0,100
-445,095	248,282	0,047	0,059
-444,080	192,541	0,065	0,073
-443,065	365,943	-0,038	0,056
-442,051	-200,000	-0,010	0,077
-441,036	39,941	-0,077	-0,051
-440,022	-64,789	-0,174	-0,052
-439,007	396,157	-0,035	0,054
-437,992	800,000	-0,014	0,038
-436,978	-154,757	-0,103	-0,005
-435,963	18,566	0,107	0,063
-434,949	209,927	-0,069	-0,080
-433,934	-33,469	-0,169	0,068
-432,919	-103,676	-0,006	0,001
-431,905	-97,278	-0,079	-0,015
-430,890	-110,079	0,156	-0,024
-429,876	-200,000	0,012	0,079
-428,861	-200,000	-0,049	0,170
-427,846	-171,725	-0,143	-0,003
-426,832	-56,138	0,060	-0,020
-425,817	207,867	-0,058	0,067
-424,803	-200,000	0,024	-0,100
-423,788	-153,703	0,124	-0,006
-422,773	432,726	-0,045	0,072
-421,759	189,588	0,099	0,110
-420,744	27,847	-0,027	-0,016
-419,730	157,215	-0,098	-0,100
-418,715	-117,217	-0,065	0,009
-417,701	143,571	0,050	-0,049
-416,686	-28,499	0,222	-0,094
-415,671	82,998	0,059	0,047
-414,657	-200,000	-0,009	0,152
-413,642	203,479	-0,056	0,064
-412,628	60,626	0,100	-0,073
-411,613	-85,911	-0,106	0,024
-410,598	-167,777	-0,075	-0,002
-409,584	145,223	-0,034	-0,034
-408,569	385,658	0,018	0,027
-407,555	-200,000	-0,002	-0,043
-406,540	8,103	0,069	0,038
-405,525	212,193	-0,055	-0,064
-404,511	-11,942	-0,051	-0,024
-403,496	-200,000	-0,005	0,018
-402,482	205,152	-0,069	-0,079
-401,467	223,848	0,073	0,086
-400,452	-200,000	0,010	0,033
-399,438	555,810	0,083	0,147
-398,423	-200,000	-0,005	-0,078
-397,409	-115,235	0,106	-0,015
-396,394	221,660	0,090	-0,106
-395,379	21,371	0,102	0,061
-394,365	-200,000	-0,018	0,114
-393,350	624,756	0,040	0,074
-392,336	90,992	0,080	0,066
-391,321	381,959	0,037	-0,055
-390,306	22,747	-0,097	0,058
-389,292	-138,431	-0,065	-0,005
-388,277	293,925	-0,016	0,021
-387,263	66,869	0,041	0,031
-386,248	44,963	0,103	0,069
-385,233	-152,495	0,145	0,008
-384,219	424,032	-0,034	-0,054
-383,204	259,633	-0,056	0,071
-382,190	-200,000	-0,009	-0,206
-381,175	-200,000	-0,026	0,097
-380,160	-40,128	-0,029	0,011
-379,146	5,632	0,076	0,041
-378,131	-200,000	-0,020	0,151
-377,117	-200,000	-0,009	-0,034
-376,102	-200,000	-0,012	0,127
-375,088	31,710	-0,028	-0,018
-374,073	-200,000	-0,017	-0,067
-373,058	113,928	0,095	0,085
-372,044	2,411	0,108	0,057
-371,029	48,324	0,034	0,024
-370,015	-200,000	0,017	0,157
-369,000	-200,000	-0,006	0,071
-367,985	-200,000	0,019	0,063
-366,971	-93,087	0,174	0,035
-365,956	-200,000	0,000	0,092
-364,942	-71,390	0,074	0,020
-363,927	-43,907	-0,127	0,047
-362,912	363,973	-0,054	0,080
-361,898	129,124	-0,056	0,052
-360,883	496,424	-0,093	-0,158
-359,869	-172,708	0,085	-0,002
-358,854	-98,430	-0,111	0,021
-357,839	800,000	0,068	0,143
-356,825	36,239	0,068	-0,044
-355,810	-200,000	0,010	0,061
-354,796	800,000	-0,046	-0,101
-353,781	219,364	-0,073	-0,086
-352,766	26,973	0,154	0,094
-351,752	-200,000	-0,019	-0,064
-350,737	-105,212	0,113	0,019
-349,723	-83,605	0,080	-0,019
-348,708	-194,605	-0,129	0,001
-347,693	-24,909	0,152	-0,066
-346,679	-200,000	0,001	0,051
-345,664	800,000	-0,069	-0,161
-344,650	157,617	-0,036	0,037
-343,635	-100,452	0,103	0,019
-342,620	62,990	-0,083	0,061
-341,606	800,000	0,053	0,135
-340,591	-103,626	0,207	0,035
-339,577	20,043	-0,073	-0,043
-338,562	-200,000	-0,003	-0,021
-337,548	219,533	0,047	-0,056
-336,533	-200,000	-0,023	0,108
-335,518	-200,000	0,026	0,310
-334,504	-150,309	0,063	-0,003
-333,489	280,734	-0,077	-0,102
-332,475	147,818	-0,044	0,044
-331,460	60,242	-0,091	-0,066
-330,445	306,600	-0,091	-0,125
-329,431	-97,257	-0,063	-0,012
-328,416	519,051	-0,020	0,035
-327,402	-45,855	0,140	0,050
-326,387	-3,773	0,110	-0,056
-325,372	616,159	0,010	-0,018
-324,358	345,992	-0,057	-0,083
-323,343	559,306	0,032	0,057
-322,329	800,000	0,028	0,068
-321,314	-200,000	-0,012	0,131
-320,299	-2,815	-0,037	0,019
-319,285	77,541	0,081	-0,063
-318,270	-200,000	0,006	-0,021
-317,256	-200,000	-0,000	0,069
-316,241	2,986	0,079	0,042
-315,226	19,646	0,037	-0,022
-314,212	174,187	0,041	-0,044
-313,197	800,000	0,042	0,134
-312,183	191,727	-0,103	-0,114
-311,168	-21,783	-0,027	0,012
-310,153	498,185	0,063	0,107
-309,139	176,371	-0,047	-0,051
-308,124	-61,773	-0,062	0,019
-307,110	21,216	0,097	0,058
-306,095	420,216	0,046	0,073
-305,080	69,905	0,022	0,017
-304,066	800,000	0,020	0,056
-303,051	-121,445	-0,015	0,002
-302,037	-120,823	0,031	-0,004
-301,022	-200,000	-0,012	-0,070
-300,008	46,724	-0,119	0,081
-298,993	-22,182	-0,063	-0,028
-297,978	252,500	0,051	-0,064
-296,964	59,748	-0,078	-0,056
-295,949	24,794	-0,060	-0,036
-294,935	796,392	-0,067	-0,135
-293,920	291,020	0,057	0,076
-292,905	8,972	0,122	-0,067
-291,891	-76,790	0,079	-0,020
-290,876	-94,726	0,117	0,023
-289,862	-200,000	-0,012	0,101
-288,847	77,414	-0,024	-0,019
-287,832	800,000	0,009	0,023
-286,818	-98,195	0,080	-0,015
-285,803	610,532	0,006	0,012
-284,789	72,818	0,155	-0,118
-283,774	5,270	0,128	-0,069
-282,759	-77,131	-0,074	-0,019
-281,745	-200,000	-0,028	-0,161
-280,730	800,000	-0,047	-0,098
-279,716	186,060	0,088	-0,096
-278,701	130,329	0,021	0,020
-277,686	-200,000	0,004	0,027
-276,672	-138,123	0,103	0,008
-275,657	800,000	0,036	0,089
-274,643	303,541	-0,092	-0,126
-273,628	-127,116	-0,104	-0,011
-272,613	-200,000	-0,002	0,013
-271,599	-200,000	0,020	-0,143
-270,584	800,000	0,054	-0,121
-269,570	-121,355	-0,129	-0,016
-268,555	257,505	0,073	-0,092
-267,540	64,434	-0,071	-0,052
-266,526	-200,000	0,037	-0,174
-265,511	761,360	0,034	-0,067
-264,497	-33,078	0,075	-0,030
-263,482	-92,434	0,062	-0,013
-262,467	-12,447	-0,054	0,026
-261,453	-47,344	-0,056	0,020
-260,438	-200,000	0,001	0,099
-259,424	116,825	0,058	0,052
-258,409	-200,000	-0,010	0,035
-257,395	57,115	-0,006	0,005
-256,380	-109,573	0,031	0,005
-255,365	-200,000	-0,021	0,078
-254,351	800,000	0,010	0,031
-253,336	128,374	0,048	0,045
-252,322	79,568	-0,035	-0,027
-251,307	224,471	0,054	0,064
-250,292	-200,000	-0,048	-0,162
-249,278	1,653	0,109	-0,057
-248,263	156,498	0,010	0,010
-247,249	155,087	-0,057	-0,057
-246,234	-50,023	-0,008	0,003
-245,219	419,389	-0,051	-0,080
-244,205	-127,651	-0,133	0,014
-243,190	-38,512	0,098	-0,038
-242,176	142,162	0,061	-0,059
-241,161	-13,901	0,176	0,083
-240,146	800,000	0,033	0,092
-239,132	-74,266	-0,128	-0,034
-238,117	-13,605	-0,046	-0,022
-237,103	408,324	-0,040	0,061
-236,088	-56,108	0,038	0,012
-235,073	800,000	-0,063	0,157
-234,059	253,843	0,033	-0,042
-233,044	-200,000	0,018	-0,125
-232,030	-200,000	-0,016	0,080
-231,015	800,000	-0,030	-0,094
-230,000	-141,678	-0,089	0,006
-228,986	-8,919	-0,082	0,040
-227,971	-99,660	0,061	-0,011
-226,957	-138,563	0,083	0,007
-225,942	-200,000	0,000	0,038
-224,927	-125,928	-0,071	0,008
-223,913	-121,392	-0,120	-0,014
-222,898	-75,890	-0,023	0,006
-221,884	130,850	0,024	-0,022
-220,869	800,000	-0,036	0,105
-219,855	-200,000	0,007	0,124
-218,840	-200,000	0,024	0,121
-217,825	-160,646	-0,073	-0,003
-216,811	-55,153	-0,048	-0,016
-215,796	29,463	-0,051	-0,032
-214,782	-200,000	0,012	-0,057
-213,767	208,577	0,080	-0,091
-212,752	-200,000	0,000	-0,052
-211,738	59,851	0,047	-0,034
-210,723	633,608	-0,014	-0,026
-209,709	-200,000	0,026	-0,094
-208,694	-200,000	0,019	-0,066
-207,679	-200,000	-0,031	-0,106
-206,665	-200,000	-0,003	0,110
-205,650	800,000	0,005	0,016
-204,636	800,000	0,021	-0,055
-203,621	-106,875	-0,114	0,018
-202,606	-78,806	0,035	-0,009
-201,592	65,598	-0,100	-0,074
-200,577	-12,926	-0,041	0,020
-199,563	-19,654	0,058	0,026
-198,548	800,000	0,052	0,149
-197,533	-148,404	-0,172	-0,010
-196,519	75,830	-0,031	0,024
-195,504	-33,665	0,027	0,011
-194,490	366,379	-0,073	-0,108
-193,475	-200,000	0,013	-0,201
-192,460	-200,000	0,004	-0,021
-191,446	-200,000	-0,004	-0,130
-190,431	-200,000	-0,010	-0,043
-189,417	595,820	-0,028	-0,051
-188,402	-128,042	0,056	-0,006
-187,387	-59,631	-0,080	0,025
-186,373	284,501	0,081	0,106
-185,358	-66,673	0,030	0,009
-184,344	187,840	-0,062	-0,068
-183,329	-200,000	0,016	-0,084
-182,315	-200,000	-0,006	0,028
-181,300	622,952	-0,066	0,122
-180,285	43,305	-0,021	-0,014
-179,271	-15,963	-0,122	-0,056
-178,256	119,462	-0,006	0,005
-177,242	-12,207	0,114	-0,054
-176,227	-32,988	0,026	-0,010
-175,212	-200,000	-0,003	-0,028
-174,198	-186,386	0,109	-0,001
-173,183	-191,303	-0,035	0,000
-172,169	56,060	0,128	0,090
-171,154	207,686	-0,058	-0,066
-170,139	48,830	0,122	0,083
-169,125	-200,000	0,018	0,092
-168,110	714,155	0,010	0,019
-167,096	-132,134	0,027	-0,003
-166,081	-39,057	-0,093	0,035
-165,066	73,263	-0,076	-0,058
-164,052	-200,000	0,005	-0,119
-163,037	143,273	-0,100	0,097
-162,023	800,000	-0,023	-0,059
-161,008	209,123	0,084	0,096
-159,993	339,913	-0,049	-0,069
-158,979	-82,185	-0,061	0,014
-157,964	364,719	-0,021	0,031
-156,950	126,408	0,066	-0,061
-155,935	-162,945	-0,063	-0,002
-154,920	197,337	0,049	0,054
-153,906	-177,120	0,083	0,001
-152,891	-200,000	-0,013	-0,109
-151,877	800,000	-0,028	0,069
-150,862	-115,559	-0,127	-0,017
-149,847	-74,848	-0,043	-0,011
-148,833	-200,000	0,004	-0,068
-147,818	800,000	-0,050	0,160
-146,804	-57,740	0,112	0,036
-145,789	-200,000	0,024	0,125
-144,775	800,000	-0,034	0,104
-143,760	-200,000	-0,029	-0,235
-142,745	74,777	-0,090	0,069
-141,731	-200,000	-0,028	0,138
-140,716	-147,863	-0,046	0,003
-139,702	343,020	0,079	0,113
-138,687	-3,515	-0,034	0,017
-137,672	240,133	-0,025	-0,030
-136,658	800,000	-0,072	-0,170
-135,643	239,382	-0,055	-0,066
-134,629	-133,251	-0,014	-0,001
-133,614	-200,000	-0,003	0,049
-132,599	115,609	-0,086	0,076
-131,585	794,159	0,026	-0,052
-130,570	-200,000	-0,001	-0,101
-129,556	219,710	-0,022	0,026
-128,541	-66,676	-0,140	-0,040
-127,526	225,155	0,028	0,033
-126,512	800,000	0,027	-0,060
-125,497	-101,258	0,132	0,023
-124,483	-82,079	0,073	0,017
-123,468	35,420	-0,056	0,036
-122,453	-110,407	-0,071	0,011
-121,439	-5,936	0,034	-0,017
-120,424	-200,000	-0,039	-0,222
-119,410	-200,000	-0,018	0,078
-118,395	294,411	0,061	0,081
-117,380	663,879	-0,010	0,018
-116,366	-200,000	0,003	0,026
-115,351	87,302	-0,062	0,050
-114,337	-117,442	-0,066	0,009
-113,322	800,000	0,029	0,078
-112,307	98,481	-0,081	0,068
-111,293	-184,438	0,068	-0,001
-110,278	391,431	0,016	0,024
-109,264	-200,000	0,008	-0,038
-108,249	339,389	-0,029	-0,042
-107,234	89,072	0,075	0,061
-106,220	187,434	-0,065	-0,071
-105,205	-36,032	-0,067	-0,026
-104,191	71,137	-0,133	0,100
-103,176	-129,431	0,126	-0,013
-102,162	592,318	0,013	-0,023
-101,147	800,000	-0,047	0,103
-100,132	57,603	0,131	-0,093
-99,118	89,625	-0,072	-0,058
-98,103	-200,000	0,027	-0,139
-97,089	800,000	-0,052	0,137
-96,074	136,602	-0,076	-0,073
-95,059	-12,345	0,115	0,054
-94,045	-89,594	-0,146	-0,031
-93,030	-200,000	-0,017	0,077
-92,016	-57,235	-0,085	0,027
-91,001	796,455	0,028	-0,057
-89,986	214,637	-0,035	0,040
-88,972	-124,081	-0,050	-0,006
-87,957	-76,457	0,100	-0,025
-86,943	-78,778	0,120	-0,030
-85,928	-113,294	-0,081	0,011
-84,913	-82,585	0,122	-0,029
-83,899	-200,000	0,009	-0,059
-82,884	762,411	-0,052	0,103
-81,870	31,620	-0,059	0,037
-80,855	-118,071	-0,118	0,015
-79,840	-200,000	0,000	-0,012
-78,826	-163,411	-0,084	-0,003
-77,811	30,649	-0,123	-0,076
-76,797	-200,000	-0,020	-0,067
-75,782	-58,633	0,025	-0,008
-74,767	14,923	0,144	0,082
-73,753	62,887	0,084	0,061
-72,738	436,550	-0,113	0,179
-71,724	800,000	-0,082	-0,182
-70,709	800,000	-0,032	-0,069
-69,694	-200,000	0,010	-0,159
-68,680	-26,460	0,062	0,026
-67,665	1,635	0,130	-0,068
-66,651	-200,000	-0,009	0,052
-65,636	321,196	0,034	-0,048
-64,622	106,209	0,077	0,066
-63,607	800,000	0,041	-0,131
-62,592	156,976	0,082	-0,083
-61,578	145,736	0,064	-0,062
-60,563	800,000	-0,014	-0,035
-59,549	412,691	-0,026	0,040
-58,534	-143,969	-1,350	0,091
-57,519	600,921	-0,809	-1,465
-56,505	-200,000	-0,855	-4,402
-55,490	27,176	0,545	-0,331
-54,476	800,000	5,034	11,934
-53,461	-200,000	13,241	252,122
-52,446	-200,000	688,146	2273,291
-51,432	599,690	1623,201	2935,448
-50,417	121,290	1637,329	1479,689
-49,403	73,385	1291,714	979,949
-48,388	38,571	1026,112	662,742
-47,373	24,749	983,345	589,614
-46,359	23,968	973,095	580,884
-45,344	23,016	968,971	575,280
-44,330	22,905	967,358	573,940
-43,315	22,874	966,030	573,026
-42,300	22,845	964,980	572,286
-41,286	22,824	964,308	571,797
-40,271	22,760	963,200	570,910
-39,257	22,797	962,135	570,375
-38,242	22,825	961,125	569,845
-37,227	22,822	960,448	569,412
-36,213	22,813	959,517	568,807
-35,198	22,807	958,654	568,254
-34,184	22,800	958,092	567,877
-33,169	22,823	956,940	567,244
-32,154	22,855	956,120	566,839
-31,140	22,888	955,227	566,393
-30,125	22,748	954,736	565,628
-29,111	22,796	953,618	565,099
-28,096	22,915	952,930	565,051
-27,082	22,867	952,394	564,556
-26,067	22,849	951,582	563,995
-25,052	22,832	950,765	563,435
-24,038	22,798	950,253	563,000
-23,023	22,922	949,596	562,986
-22,009	22,933	948,796	562,524
-20,994	22,872	948,373	562,056
-19,979	22,866	947,845	561,701
-18,965	22,840	947,156	561,188
-17,950	22,882	946,428	560,867
-16,936	22,796	945,727	560,156
-15,921	22,725	945,225	559,608
-14,906	22,714	944,504	559,126
-13,892	22,766	943,732	558,813
-12,877	22,749	943,048	558,329
-11,863	22,720	942,459	557,867
-10,848	22,787	941,917	557,739
-9,833	22,801	941,644	557,597
-8,819	22,841	940,899	557,262
-7,804	22,757	940,215	556,569
-6,790	22,714	939,629	556,063
-5,775	22,751	938,926	555,743
-4,760	22,733	938,498	555,411
-3,746	22,716	937,793	554,918
-2,731	22,545	937,036	553,907
-1,717	22,589	936,370	553,630
-0,702	22,526	935,764	553,050
0,313	22,334	935,029	552,844
1,327	25,559	932,945	561,716
2,342	35,439	797,951	506,796
3,356	33,686	451,844	284,311
4,371	2,248	292,652	152,919
5,386	-2,456	273,637	138,538
6,400	-3,974	267,827	134,182
7,415	-4,361	265,328	132,563
8,429	-4,016	264,044	132,224
9,444	-4,171	263,300	131,699
10,459	-4,069	262,607	131,433
11,473	-4,141	262,101	131,102
12,488	-4,170	261,399	130,714
13,502	-4,426	261,062	130,303
14,517	-4,096	260,384	130,249
15,531	-4,158	260,215	130,098
16,546	-4,120	259,937	129,982
17,561	-4,118	259,376	129,691
18,575	-4,040	259,152	129,637
19,590	-4,202	258,864	129,337
20,604	-4,060	258,486	129,263
21,619	-4,231	258,264	128,988
22,634	-4,128	257,869	128,871
23,648	-4,223	257,538	128,610
24,663	-4,146	257,256	128,526
25,677	-4,058	257,027	128,478
26,692	-4,300	256,716	128,097
27,707	-4,340	256,564	127,974
28,721	-4,201	256,414	128,011
29,736	-3,996	255,951	127,949
30,750	-4,400	255,735	127,473
31,765	-4,206	255,526	127,529
32,780	-4,255	255,293	127,358
33,794	-4,261	255,079	127,235
34,809	-4,176	254,838	127,178
35,823	-4,321	254,686	126,963
36,838	-4,212	254,345	126,877
37,853	-4,477	254,229	126,577
38,867	-4,420	253,982	126,492
39,882	-4,179	253,588	126,495
40,896	-4,380	253,529	126,278
41,911	-4,324	253,237	126,171
42,926	-4,297	253,046	126,088
43,940	-4,427	252,859	125,871
44,955	-4,250	252,562	125,865
45,969	-4,475	252,362	125,559
46,984	-4,669	252,088	125,243
47,999	-4,892	251,859	124,925
49,013	-4,899	251,638	124,798
50,028	-4,798	251,268	124,691
51,042	-5,043	251,074	124,372
52,057	-5,223	250,788	124,064
53,071	-5,133	250,701	124,088
54,086	-5,101	250,663	124,085
55,101	-4,974	250,492	124,098
56,115	-4,671	250,239	124,223
57,130	-4,321	250,195	124,491
58,144	-4,070	249,961	124,579
59,159	-3,882	249,763	124,631
60,174	-3,953	249,523	124,439
61,188	-4,211	249,322	124,107
62,203	-4,310	249,269	123,984
63,217	-4,171	249,061	123,989
64,232	-4,201	248,729	123,787
65,247	-4,155	248,570	123,735
66,261	-4,188	248,295	123,559
67,276	-4,414	248,058	123,238
68,290	-4,607	247,707	122,889
69,305	-4,704	247,543	122,714
70,320	-4,517	247,339	122,761
71,334	-4,432	247,311	122,808
72,349	-4,071	246,998	122,948
73,363	-4,020	246,965	122,963
74,378	-4,084	246,711	122,772
75,393	-4,193	246,539	122,584
76,407	-4,209	246,226	122,403
77,422	-4,137	246,049	122,365
78,436	-4,118	245,967	122,329
79,451	-4,198	245,659	122,098
80,466	-4,257	245,439	121,929
81,480	-4,425	245,189	121,651
82,495	-4,625	245,018	121,388
83,509	-4,543	244,917	121,396
84,524	-4,404	244,717	121,403
85,539	-4,527	244,327	121,095
86,553	-4,372	244,133	121,118
87,568	-4,639	244,122	120,879
88,582	-4,649	243,888	120,743
89,597	-4,445	243,534	120,728
90,611	-4,554	243,710	120,713
91,626	-4,347	243,470	120,756
92,641	-4,315	243,243	120,659
93,655	-4,338	243,186	120,601
94,670	-4,272	242,815	120,462
95,684	-4,532	242,669	120,162
96,699	-4,407	242,417	120,130
97,714	-4,452	242,258	120,004
98,728	-4,577	242,154	119,838
99,743	-4,620	241,798	119,615
100,757	-4,708	241,527	119,398
101,772	-4,577	241,493	119,479
102,787	-4,473	241,226	119,422
103,801	-4,481	241,118	119,351
104,816	-4,278	240,926	119,413
105,830	-4,331	241,045	119,417
106,845	-4,241	240,774	119,347
107,860	-4,060	240,468	119,333
108,874	-4,461	240,463	118,990
109,889	-4,484	240,163	118,812
110,903	-4,514	239,957	118,675
111,918	-4,604	239,767	118,497
112,933	-4,333	239,507	118,579
113,947	-4,428	239,475	118,475
114,962	-4,260	239,334	118,533
115,976	-4,164	239,014	118,442
116,991	-4,276	238,942	118,305
118,006	-4,437	238,738	118,061
119,020	-4,335	238,602	118,067
120,035	-4,226	238,543	118,116
121,049	-4,185	238,339	118,038
122,064	-4,167	238,116	117,931
123,079	-4,377	237,962	117,673
124,093	-4,544	237,852	117,473
125,108	-4,588	237,572	117,289
126,122	-4,670	237,186	117,021
127,137	-4,793	237,063	116,850
128,151	-4,679	237,049	116,926
129,166	-4,571	236,832	116,895
130,181	-4,623	236,697	116,776
131,195	-4,386	236,393	116,807
132,210	-4,612	236,275	116,556
133,224	-4,498	236,345	116,672
134,239	-4,374	236,064	116,624
135,254	-4,166	235,843	116,671
136,268	-4,457	235,631	116,322
137,283	-4,817	235,484	115,950
138,297	-4,846	235,181	115,766
139,312	-4,873	235,039	115,665
140,327	-4,377	234,855	115,962
141,341	-4,120	234,994	116,225
142,356	-4,079	234,811	116,158
143,370	-3,972	234,598	116,127
144,385	-3,994	234,524	116,063
145,400	-3,840	234,351	116,090
146,414	-3,904	234,116	115,912
147,429	-3,965	233,953	115,772
148,443	-3,987	233,840	115,689
149,458	-4,120	233,739	115,522
150,473	-4,110	233,458	115,382
151,487	-3,920	233,256	115,421
152,502	-4,127	233,186	115,213
153,516	-3,798	232,950	115,347
154,531	-4,067	232,951	115,123
155,546	-3,792	232,530	115,123
156,560	-4,167	232,307	114,705
157,575	-4,165	232,240	114,664
158,589	-4,250	231,980	114,458
159,604	-4,144	231,996	114,540
160,619	-3,900	231,842	114,646
161,633	-3,767	231,687	114,664
162,648	-4,119	231,591	114,328
163,662	-4,116	231,329	114,192
164,677	-4,244	231,202	114,018
165,692	-4,036	231,033	114,088
166,706	-3,747	230,951	114,264
167,721	-3,937	230,731	113,996
168,735	-4,007	230,760	113,945
169,750	-3,871	230,420	113,874
170,764	-3,921	230,318	113,774
171,779	-3,887	230,181	113,723
172,794	-3,721	229,878	113,693
173,808	-4,101	229,838	113,366
174,823	-4,666	229,577	112,786
175,837	-4,530	229,292	112,742
176,852	-4,311	229,364	112,938
177,867	-4,108	229,223	113,017
178,881	-3,735	228,964	113,169
179,896	-3,760	228,875	113,096
180,910	-3,996	228,798	112,865
181,925	-3,951	228,592	112,788
182,940	-3,908	228,488	112,760
183,954	-3,844	228,325	112,719
184,969	-3,908	228,224	112,609
185,983	-3,678	227,952	112,643
186,998	-3,746	227,757	112,484
188,013	-3,740	227,679	112,440
189,027	-3,776	227,553	112,340
190,042	-3,757	227,353	112,246
191,056	-3,702	227,120	112,164
192,071	-3,837	227,156	112,066
193,086	-3,875	226,909	111,906
194,100	-3,819	226,827	111,899
195,115	-4,166	226,358	111,390
196,129	-4,806	226,100	110,762
197,144	-1,861	227,169	113,546
198,159	2,237	228,197	117,216
199,173	3,991	228,735	118,837
200,188	4,338	228,407	118,924
201,202	4,290	228,398	118,872
202,217	4,370	228,262	118,852
203,232	4,573	228,170	118,949
204,246	4,660	228,069	118,953
205,261	4,760	227,907	118,935
206,275	5,048	227,765	119,072
207,290	4,822	227,608	118,805
208,304	4,887	227,489	118,782
209,319	4,783	227,405	118,648
210,334	4,971	227,068	118,606
211,348	4,666	226,788	118,216
212,363	4,208	226,644	117,780
213,377	4,083	226,449	117,573
214,392	3,966	226,301	117,397
215,407	4,255	226,082	117,493
216,421	4,219	226,069	117,448
217,436	4,174	225,798	117,262
218,450	3,810	225,662	116,904
219,465	3,901	225,395	116,825
220,480	3,930	225,259	116,766
221,494	3,831	225,255	116,679
222,509	3,929	225,071	116,647
223,523	3,991	225,047	116,671
224,538	4,108	224,622	116,529
225,553	4,062	224,592	116,468
226,567	4,045	224,705	116,503
227,582	4,250	224,451	116,516
228,596	4,587	224,366	116,716
229,611	4,102	224,232	116,270
230,626	3,883	223,942	115,944
231,640	4,028	223,618	115,875
232,655	4,368	223,687	116,157
233,669	4,621	223,661	116,324
234,684	4,717	223,449	116,275
235,699	4,639	223,256	116,106
236,713	4,338	222,996	115,734
237,728	3,875	222,922	115,338
238,742	3,675	222,768	115,098
239,757	4,009	222,638	115,271
240,772	3,906	222,427	115,074
241,786	4,071	222,249	115,095
242,801	4,165	222,281	115,172
243,815	4,432	222,251	115,346
244,830	4,553	222,044	115,318
245,844	4,019	221,874	114,821
246,859	4,096	221,646	114,750
247,874	4,190	221,624	114,799
248,888	4,225	221,435	114,717
249,903	4,133	221,324	114,581
250,917	3,981	221,152	114,368
251,932	3,996	220,890	114,234
252,947	3,719	220,849	113,997
253,961	4,053	220,567	114,089
254,976	3,960	220,382	113,914
255,990	4,308	220,458	114,201
257,005	4,327	220,305	114,125
258,020	4,289	220,209	114,038
259,034	4,401	219,959	113,981
260,049	4,413	219,849	113,922
261,063	4,271	219,669	113,714
262,078	4,592	219,608	113,909
263,093	4,407	219,553	113,734
264,107	4,410	219,369	113,631
265,122	4,464	219,112	113,527
266,136	4,588	219,074	113,589
267,151	4,649	218,848	113,506
268,166	4,131	218,805	113,094
269,180	3,814	218,396	112,639
270,195	3,922	218,343	112,681
271,209	4,006	218,122	112,619
272,224	3,983	218,076	112,568
273,239	4,193	217,962	112,653
274,253	4,125	217,697	112,456
275,268	3,934	217,551	112,231
276,282	3,597	217,354	111,874
277,297	3,629	217,238	111,828
278,312	3,650	217,161	111,793
279,326	3,978	217,077	111,979
280,341	3,809	216,983	111,797
281,355	3,963	216,898	111,856
282,370	4,160	216,620	111,845
283,384	3,682	216,509	111,431
284,399	3,863	216,214	111,400
285,414	3,792	216,051	111,255
286,428	3,966	216,114	111,403
287,443	4,226	215,944	111,495
288,457	4,086	215,996	111,409
289,472	4,093	215,711	111,258
290,487	3,693	215,471	110,835
291,501	3,566	215,335	110,664
292,516	3,718	215,301	110,746
293,530	3,919	215,153	110,805
294,545	3,742	214,957	110,566
295,560	3,766	214,769	110,478
296,574	3,859	214,721	110,510
297,589	4,043	214,501	110,519
298,603	4,208	214,458	110,605
299,618	4,262	214,303	110,554
300,633	4,383	214,139	110,547
301,647	4,365	214,114	110,511
302,662	4,235	214,007	110,353
303,676	4,249	213,836	110,264
304,691	4,323	213,778	110,278
305,706	4,225	213,664	110,139
306,720	4,191	213,431	109,985
307,735	3,933	213,178	109,661
308,749	3,956	213,124	109,640
309,764	4,080	213,034	109,672
310,779	4,353	212,876	109,775
311,793	4,326	212,651	109,630
312,808	3,827	212,719	109,301
313,822	4,113	212,442	109,352
314,837	4,111	212,284	109,259
315,852	4,024	212,047	109,066
316,866	4,053	212,035	109,070
317,881	4,226	211,982	109,156
318,895	4,310	211,829	109,127
319,910	3,987	211,579	108,760
320,925	3,622	211,442	108,422
321,939	3,427	211,215	108,158
322,954	3,764	211,044	108,299
323,968	3,968	211,082	108,453
324,983	4,004	211,051	108,452
325,997	4,167	210,859	108,458
327,012	4,195	210,646	108,359
328,027	4,065	210,582	108,225
329,041	4,547	210,636	108,582
330,056	4,655	210,495	108,575
331,070	4,246	210,218	108,136
332,085	3,816	209,970	107,698
333,100	3,968	209,755	107,684
334,114	4,066	209,658	107,693
335,129	4,123	209,452	107,618
336,143	3,796	209,291	107,297
337,158	3,986	209,290	107,420
338,173	3,775	209,193	107,213
339,187	3,959	209,042	107,254
340,202	3,893	208,958	107,156
341,216	3,706	208,586	106,825
342,231	3,797	208,620	106,896
343,246	3,868	208,386	106,816
344,260	3,861	208,379	106,798
345,275	3,851	208,308	106,746
346,289	4,078	208,042	106,757
347,304	4,065	208,031	106,733
348,319	3,949	207,892	106,572
349,333	3,986	207,775	106,528
350,348	4,094	207,790	106,601
351,362	4,053	207,620	106,476
352,377	4,184	207,449	106,470
353,392	4,292	207,216	106,415
354,406	4,353	207,018	106,345
355,421	194,059	1344,385	1433,542
356,435	154,805	1483,068	1433,664
