DTS Sentinel unit serial number:	SN410029Multiplexer serial number:	ORYXHardware model number:	OX2-SRSoftware version number:	ORYX F/W v4,00 Oryx Data Collector v3.7.2.0data status	okinstallation	B6 Nyhavnadifferential loss correction	single-endedforward channel	channel 2reverse channel	N/Adate	2023/12/09time	18:35:08forward acquisition time	300,00reverse acquisition time	0,00gamma	499,1914k internal	0,3130k external	0,3130temperature offset calibration	1,0000default loss term (dB/km)	0,3820temperature slope calibration	1,0000multiplexer offset coefficient	1,0000multiplexer slope coefficient	1,0000fibre end	0,00T internal ref (°C)	21,05T ext. ref 1 (°C)	4,68T ext. ref 2 (°C)	4,69length (m)	temperature (°C)	Stokes	anti-Stokes-744,400	800,000	0,034	-0,086
-743,385	-90,132	-0,367	0,079
-742,371	282,847	0,039	0,052
-741,356	-82,696	-0,271	0,065
-740,342	193,706	0,043	-0,048
-739,327	-82,248	-0,298	0,072
-738,312	-72,723	0,124	0,034
-737,298	-158,154	-0,362	0,015
-736,283	-10,862	0,151	-0,074
-735,269	11,485	-0,207	0,118
-734,254	53,896	0,119	0,085
-733,239	-33,938	-0,348	-0,142
-732,225	-162,102	0,162	-0,006
-731,210	800,000	-0,044	-0,094
-730,196	302,910	0,055	-0,076
-729,181	-200,000	-0,007	-0,118
-728,167	-200,000	-0,009	-0,164
-727,152	106,529	0,016	-0,014
-726,137	-12,826	-0,081	0,039
-725,123	800,000	0,065	-0,186
-724,108	-200,000	0,001	0,044
-723,094	-118,810	-0,143	-0,019
-722,079	94,758	0,045	-0,038
-721,064	-111,847	0,115	-0,017
-720,050	-175,901	0,084	0,002
-719,035	-71,259	0,115	0,032
-718,021	-3,509	-0,055	0,028
-717,006	123,811	-0,149	-0,139
-715,991	800,000	0,029	-0,079
-714,977	466,175	-0,041	-0,069
-713,962	800,000	-0,022	-0,060
-712,948	81,458	-0,065	-0,052
-711,933	-200,000	0,011	0,051
-710,918	211,918	0,052	-0,061
-709,904	26,184	-0,054	0,034
-708,889	-89,998	-0,053	-0,011
-707,875	-132,692	-0,183	0,017
-706,860	-106,950	0,080	-0,013
-705,845	-36,281	0,074	-0,030
-704,831	-32,321	0,097	-0,040
-703,816	217,022	-0,025	-0,029
-702,802	150,014	-0,018	0,018
-701,787	661,245	-0,086	-0,164
-700,772	-60,562	-0,078	0,025
-699,758	-130,315	0,101	0,010
-698,743	0,816	0,112	-0,059
-697,729	-33,902	-0,025	0,010
-696,714	-147,514	0,052	-0,003
-695,699	-200,000	-0,008	0,032
-694,685	90,573	-0,064	-0,053
-693,670	36,919	-0,054	0,035
-692,656	-121,971	0,016	0,002
-691,641	-57,958	-0,092	-0,030
-690,627	-200,000	0,002	-0,015
-689,612	97,043	-0,072	0,061
-688,597	-200,000	0,017	-0,114
-687,583	-108,920	-0,131	0,021
-686,568	642,235	-0,050	-0,095
-685,554	800,000	0,020	-0,050
-684,539	-70,741	0,049	-0,014
-683,524	576,530	-0,024	0,044
-682,510	-64,849	-0,017	0,005
-681,495	-45,771	-0,133	-0,048
-680,481	-139,444	-0,071	0,006
-679,466	159,532	-0,176	-0,182
-678,451	-46,775	-0,025	0,009
-677,437	253,010	-0,046	-0,058
-676,422	264,385	0,052	-0,067
-675,408	-200,000	-0,006	-0,048
-674,393	-112,486	-0,104	-0,015
-673,378	-200,000	0,021	-0,163
-672,364	-200,000	0,127	-0,000
-671,349	800,000	0,027	-0,063
-670,335	107,582	0,044	0,039
-669,320	557,047	0,050	-0,091
-668,305	-200,000	-0,001	-0,108
-667,291	31,160	-0,084	-0,053
-666,276	118,196	-0,069	-0,063
-665,262	-200,000	-0,028	-0,185
-664,247	-200,000	0,017	0,089
-663,232	-12,640	0,061	0,029
-662,218	-200,000	0,004	-0,061
-661,203	96,286	-0,052	0,044
-660,189	-200,000	0,002	0,037
-659,174	800,000	0,010	-0,028
-658,159	414,519	-0,041	-0,065
-657,145	61,906	-0,021	0,016
-656,130	103,312	-0,095	-0,083
-655,116	257,063	-0,067	-0,085
-654,101	-149,233	-0,036	-0,002
-653,086	-63,999	-0,043	0,013
-652,072	-200,000	0,007	0,059
-651,057	771,129	0,083	-0,168
-650,043	96,546	0,021	-0,018
-649,028	-17,432	-0,043	0,020
-648,014	-200,000	0,002	-0,097
-646,999	-132,225	0,133	-0,013
-645,984	214,191	0,075	0,088
-644,970	-200,000	0,033	-0,151
-643,955	800,000	0,073	-0,161
-642,941	-200,000	-0,041	-0,139
-641,926	-117,535	-0,045	-0,006
-640,911	800,000	-0,038	0,085
-639,897	-200,000	-0,019	0,065
-638,882	587,747	-0,037	-0,068
-637,868	444,505	0,054	0,088
-636,853	-151,545	-0,060	-0,003
-635,838	800,000	0,035	-0,103
-634,824	-79,538	0,127	-0,032
-633,809	437,189	0,041	0,066
-632,795	707,182	0,065	0,127
-631,780	181,412	0,041	-0,045
-630,765	146,142	-0,102	-0,101
-629,751	-200,000	0,043	-0,209
-628,736	-200,000	-0,012	-0,066
-627,722	249,460	0,037	0,047
-626,707	-15,262	-0,055	0,026
-625,692	-145,809	0,028	-0,002
-624,678	-200,000	-0,017	0,097
-623,663	-200,000	0,013	-0,096
-622,649	-200,000	-0,045	-0,185
-621,634	26,672	0,084	-0,052
-620,619	-200,000	-0,020	-0,156
-619,605	456,529	-0,059	-0,098
-618,590	237,557	-0,103	0,127
-617,576	387,722	0,040	-0,062
-616,561	102,579	-0,079	0,068
-615,546	-200,000	0,007	0,043
-614,532	65,939	-0,053	0,040
-613,517	-200,000	-0,009	-0,119
-612,503	-6,427	-0,164	0,083
-611,488	781,683	0,070	0,142
-610,474	-200,000	-0,036	0,000
-609,459	-14,167	0,083	-0,039
-608,444	-151,018	-0,205	0,011
-607,430	-101,577	-0,139	-0,025
-606,415	-200,000	-0,007	-0,073
-605,401	749,179	0,045	-0,090
-604,386	-95,148	0,053	0,010
-603,371	-40,304	0,088	-0,034
-602,357	194,149	-0,106	0,119
-601,342	-200,000	0,016	0,102
-600,328	284,545	-0,035	-0,047
-599,313	185,959	0,054	0,060
-598,298	-107,201	0,102	0,016
-597,284	-187,155	0,247	-0,002
-596,269	-107,196	-0,155	0,025
-595,255	-96,071	0,026	-0,005
-594,240	-200,000	0,028	-0,160
-593,225	201,194	-0,103	-0,117
-592,211	-63,071	-0,089	0,027
-591,196	29,344	-0,115	-0,072
-590,182	-16,143	0,100	-0,047
-589,167	-52,493	0,026	-0,009
-588,152	610,218	-0,037	0,068
-587,138	449,670	-0,058	-0,095
-586,123	-200,000	-0,020	-0,070
-585,109	334,025	0,019	0,027
-584,094	-200,000	0,018	-0,117
-583,079	-17,779	-0,178	0,082
-582,065	150,989	0,121	0,121
-581,050	596,707	-0,055	-0,102
-580,036	-33,144	0,070	-0,029
-579,021	-82,191	-0,115	-0,027
-578,006	-69,893	-0,138	-0,039
-576,992	41,625	0,048	-0,032
-575,977	-57,003	0,029	0,009
-574,963	-200,000	0,026	0,087
-573,948	-200,000	-0,039	0,171
-572,934	-200,000	0,024	0,144
-571,919	-45,193	-0,105	-0,038
-570,904	-46,253	-0,079	-0,028
-569,890	641,808	-0,045	-0,086
-568,875	-97,608	0,103	-0,019
-567,861	199,510	0,078	-0,088
-566,846	-200,000	0,026	0,092
-565,831	-4,985	0,082	0,041
-564,817	112,343	-0,050	-0,045
-563,802	26,960	-0,061	-0,037
-562,788	-200,000	-0,006	0,110
-561,773	800,000	0,071	-0,210
-560,758	-200,000	-0,007	-0,025
-559,744	6,325	-0,055	0,030
-558,729	172,567	0,037	-0,039
-557,715	141,123	0,153	0,150
-556,700	-134,649	0,098	-0,009
-555,685	-200,000	0,014	-0,150
-554,671	294,923	-0,079	0,106
-553,656	251,293	-0,056	-0,071
-552,642	800,000	-0,010	-0,023
-551,627	-129,446	-0,120	-0,012
-550,612	800,000	0,059	-0,153
-549,598	-159,928	-0,142	-0,006
-548,583	24,852	-0,068	0,042
-547,569	-198,183	-0,051	0,000
-546,554	-200,000	-0,001	0,048
-545,539	-200,000	-0,013	0,081
-544,525	-147,027	0,037	-0,002
-543,510	45,353	-0,071	0,048
-542,496	800,000	-0,063	-0,143
-541,481	467,083	-0,068	-0,113
-540,466	-3,407	0,037	0,019
-539,452	-200,000	-0,004	0,130
-538,437	-106,853	0,120	-0,019
-537,423	-200,000	-0,020	0,107
-536,408	-103,188	0,111	-0,019
-535,393	-200,000	0,016	0,125
-534,379	-200,000	0,006	-0,085
-533,364	-200,000	0,035	0,133
-532,350	-200,000	0,010	0,048
-531,335	37,504	0,058	0,038
-530,321	-200,000	0,017	0,115
-529,306	-200,000	-0,032	0,166
-528,291	-39,167	-0,074	0,028
-527,277	-200,000	0,022	-0,121
-526,262	53,922	-0,095	-0,067
-525,248	-200,000	-0,005	0,090
-524,233	773,248	0,072	0,146
-523,218	-18,587	-0,117	0,054
-522,204	800,000	0,056	0,137
-521,189	-83,931	-0,132	-0,031
-520,175	4,088	-0,094	-0,051
-519,160	800,000	-0,038	0,102
-518,145	-200,000	0,004	0,071
-517,131	-12,047	-0,047	0,023
-516,116	90,132	-0,058	0,048
-515,102	-12,671	0,132	0,063
-514,087	-200,000	-0,011	0,054
-513,072	800,000	0,038	-0,079
-512,058	-48,158	-0,065	0,023
-511,043	-200,000	0,011	-0,056
-510,029	-200,000	0,005	0,034
-509,014	-15,083	0,072	-0,034
-507,999	292,811	0,037	0,050
-506,985	-63,763	-0,242	0,073
-505,970	176,703	-0,018	-0,020
-504,956	-106,188	0,086	0,014
-503,941	800,000	-0,038	-0,082
-502,926	24,822	-0,031	0,019
-501,912	186,177	0,030	0,032
-500,897	89,906	0,097	-0,080
-499,883	-200,000	-0,004	-0,023
-498,868	800,000	0,030	-0,086
-497,853	-129,676	-0,122	-0,012
-496,839	107,086	0,080	0,070
-495,824	-49,584	0,048	0,017
-494,810	-164,928	0,023	0,001
-493,795	53,210	-0,148	0,104
-492,781	800,000	0,036	0,095
-491,766	354,641	0,043	-0,064
-490,751	-91,416	-0,254	-0,053
-489,737	120,032	-0,055	0,050
-488,722	18,189	0,042	-0,025
-487,708	-94,596	0,157	0,031
-486,693	345,757	0,120	0,174
-485,678	-5,205	0,167	0,084
-484,664	-171,013	-0,106	-0,003
-483,649	147,534	-0,080	0,080
-482,635	-200,000	0,006	-0,027
-481,620	-93,287	-0,087	-0,018
-480,605	-97,269	0,070	0,013
-479,591	103,424	-0,036	-0,031
-478,576	800,000	-0,049	-0,138
-477,562	-200,000	-0,009	-0,079
-476,547	-200,000	-0,006	-0,043
-475,532	-154,314	-0,156	-0,008
-474,518	216,399	-0,053	0,062
-473,503	-39,648	0,104	-0,040
-472,489	-200,000	0,007	0,176
-471,474	-11,384	0,090	0,043
-470,459	-67,775	-0,087	0,025
-469,445	76,225	-0,028	-0,022
-468,430	-77,273	-0,142	0,036
-467,416	-200,000	0,017	-0,111
-466,401	-200,000	0,045	0,156
-465,386	-17,481	-0,079	0,037
-464,372	-200,000	0,014	0,085
-463,357	10,590	0,066	0,037
-462,343	258,323	0,025	0,032
-461,328	800,000	-0,017	0,048
-460,313	245,951	0,084	0,105
-459,299	8,456	-0,027	0,015
-458,284	40,306	0,059	-0,039
-457,270	111,413	0,053	0,047
-456,255	-30,292	-0,048	0,020
-455,241	115,573	-0,050	-0,045
-454,226	-200,000	0,014	-0,105
-453,211	800,000	0,056	0,139
-452,197	-200,000	0,008	0,057
-451,182	800,000	0,072	0,156
-450,168	29,486	0,084	-0,052
-449,153	-52,951	-0,017	-0,006
-448,138	-38,237	-0,097	0,038
-447,124	-22,157	-0,056	-0,025
-446,109	107,227	-0,085	-0,074
-445,095	433,708	0,019	0,031
-444,080	501,861	-0,048	0,082
-443,065	88,221	0,083	0,067
-442,051	-80,125	-0,138	0,034
-441,036	-0,767	0,015	-0,008
-440,022	-78,209	0,218	-0,055
-439,007	-28,240	-0,013	-0,005
-437,992	-200,000	0,000	-0,099
-436,978	201,372	0,005	0,006
-435,963	203,987	0,048	-0,055
-434,949	-26,407	-0,097	-0,042
-433,934	-200,000	0,001	0,018
-432,919	35,406	-0,040	0,026
-431,905	-30,904	0,105	-0,043
-430,890	-121,170	0,142	-0,017
-429,876	-200,000	-0,000	0,104
-428,861	8,361	0,141	-0,077
-427,846	-200,000	0,034	-0,120
-426,832	800,000	-0,035	-0,084
-425,817	665,770	0,047	0,090
-424,803	-200,000	-0,055	-0,000
-423,788	-150,956	-0,044	-0,002
-422,773	-4,584	0,168	0,085
-421,759	-200,000	-0,011	0,093
-420,744	-93,600	-0,123	-0,025
-419,730	126,126	0,061	-0,057
-418,715	-124,206	0,070	0,008
-417,701	-200,000	-0,021	0,076
-416,686	394,638	0,050	0,076
-415,671	800,000	0,036	-0,109
-414,657	-200,000	0,007	0,068
-413,642	-83,034	0,124	0,029
-412,628	800,000	-0,064	-0,171
-411,613	163,189	-0,108	0,111
-410,598	-158,671	-0,064	0,003
-409,584	800,000	-0,019	0,055
-408,569	-200,000	0,051	0,197
-407,555	82,148	0,013	-0,010
-406,540	-109,362	-0,101	0,016
-405,525	164,430	-0,080	0,083
-404,511	-71,726	0,048	0,013
-403,496	239,801	-0,036	0,044
-402,482	75,877	-0,017	-0,013
-401,467	-200,000	0,002	-0,008
-400,452	614,699	0,032	0,059
-399,438	563,662	0,017	0,030
-398,423	-19,931	-0,036	-0,016
-397,409	-16,631	-0,256	0,119
-396,394	584,291	-0,041	0,074
-395,379	178,915	0,065	-0,070
-394,365	373,534	0,028	0,042
-393,350	-54,299	0,101	0,033
-392,336	66,055	0,136	-0,101
-391,321	800,000	0,058	-0,171
-390,306	-29,955	-0,093	0,038
-389,292	779,872	0,061	-0,123
-388,277	93,883	0,067	-0,056
-387,263	549,636	0,017	-0,030
-386,248	-147,119	0,045	-0,003
-385,233	91,797	0,159	0,131
-384,219	-200,000	-0,006	-0,075
-383,204	-174,756	-0,117	0,002
-382,190	-106,674	-0,059	-0,009
-381,175	56,320	0,099	-0,071
-380,160	800,000	-0,051	-0,110
-379,146	-57,492	0,097	-0,031
-378,131	800,000	-0,062	0,151
-377,117	-161,172	-0,066	-0,002
-376,102	-61,798	-0,024	0,007
-375,088	-14,068	-0,048	-0,023
-374,073	106,863	-0,082	-0,071
-373,058	166,701	0,092	-0,096
-372,044	234,567	0,080	0,097
-371,029	362,950	0,098	-0,144
-370,015	16,437	0,120	0,069
-369,000	338,370	-0,050	0,071
-367,985	-88,062	0,036	0,008
-366,971	-200,000	0,019	-0,076
-365,956	800,000	-0,059	-0,150
-364,942	800,000	0,046	0,104
-363,927	-79,384	-0,042	-0,010
-362,912	266,291	-0,132	-0,170
-361,898	62,270	-0,070	-0,051
-360,883	-200,000	0,001	-0,192
-359,869	-200,000	-0,029	0,120
-358,854	-134,511	0,097	-0,009
-357,839	553,889	0,043	-0,076
-356,825	-200,000	0,018	0,094
-355,810	264,276	0,048	-0,061
-354,796	-200,000	-0,004	0,018
-353,781	-200,000	0,023	0,152
-352,766	-27,978	-0,045	-0,019
-351,752	140,991	0,077	-0,075
-350,737	249,788	0,121	0,150
-349,723	-200,000	0,035	-0,146
-348,708	-4,943	0,068	0,034
-347,693	-0,798	-0,106	0,055
-346,679	425,101	-0,069	-0,110
-345,664	-97,536	0,059	0,011
-344,650	-200,000	0,022	-0,139
-343,635	-43,616	0,135	-0,050
-342,620	235,495	-0,061	-0,074
-341,606	800,000	0,022	0,070
-340,591	800,000	-0,030	0,093
-339,577	800,000	-0,077	-0,169
-338,562	800,000	0,024	-0,076
-337,548	-119,041	0,104	0,013
-336,533	800,000	-0,013	0,037
-335,518	-96,297	0,113	-0,022
-334,504	800,000	-0,018	-0,046
-333,489	-200,000	-0,032	0,129
-332,475	31,588	-0,124	0,078
-331,460	800,000	0,067	-0,136
-330,445	-200,000	0,021	-0,134
-329,431	45,778	0,049	-0,033
-328,416	-31,212	0,027	0,011
-327,402	560,061	0,026	-0,047
-326,387	800,000	-0,026	0,063
-325,372	1,452	-0,048	-0,025
-324,358	182,007	-0,121	-0,131
-323,343	-200,000	0,001	-0,039
-322,329	-109,290	0,205	-0,031
-321,314	-7,161	0,068	0,034
-320,299	149,547	-0,019	-0,019
-319,285	-200,000	-0,005	-0,071
-318,270	7,910	-0,034	0,019
-317,256	800,000	-0,041	-0,117
-316,241	469,669	0,054	-0,090
-315,226	-18,451	-0,024	-0,011
-314,212	-59,684	0,100	-0,031
-313,197	249,064	0,092	-0,115
-312,183	98,101	-0,122	-0,103
-311,168	8,622	0,041	0,022
-310,153	90,636	0,101	-0,083
-309,139	-200,000	0,002	0,020
-308,124	-25,146	-0,052	-0,023
-307,110	-62,543	0,055	-0,017
-306,095	-64,355	0,094	0,028
-305,080	374,430	0,036	-0,054
-304,066	-0,384	-0,068	0,035
-303,051	-200,000	0,010	0,081
-302,037	132,951	0,018	-0,017
-301,022	120,873	0,030	-0,027
-300,008	-200,000	-0,002	0,034
-298,993	33,048	-0,077	0,049
-297,978	-200,000	-0,002	-0,049
-296,964	-69,432	-0,078	0,022
-295,949	-41,526	0,136	0,051
-294,935	-70,237	-0,075	-0,021
-293,920	-200,000	0,011	0,077
-292,905	-200,000	-0,003	0,052
-291,891	56,640	0,080	0,057
-290,876	-200,000	-0,018	-0,114
-289,862	-8,860	0,133	0,065
-288,847	-68,419	0,034	-0,010
-287,832	-101,954	0,117	0,021
-286,818	1,816	-0,079	-0,042
-285,803	-63,421	-0,055	0,017
-284,789	68,282	-0,105	-0,078
-283,774	-200,000	0,022	0,112
-282,759	-35,558	-0,134	-0,053
-281,745	-200,000	0,017	-0,089
-280,730	185,238	0,032	-0,035
-279,716	-7,322	0,019	-0,010
-278,701	-200,000	0,002	0,064
-277,686	228,923	-0,089	-0,106
-276,672	-200,000	0,003	0,103
-275,657	-74,211	0,087	-0,023
-274,643	131,093	0,035	-0,033
-273,628	680,910	0,051	-0,097
-272,613	234,510	-0,106	-0,128
-271,599	-118,222	-0,055	-0,007
-270,584	229,371	-0,037	0,045
-269,570	800,000	0,069	0,167
-268,555	-97,700	-0,094	0,018
-267,540	2,494	-0,131	-0,069
-266,526	800,000	-0,023	-0,063
-265,511	-200,000	-0,004	0,110
-264,497	-10,280	0,161	0,077
-263,482	800,000	-0,036	0,105
-262,467	332,348	-0,018	0,026
-261,453	-200,000	0,006	-0,075
-260,438	800,000	-0,025	0,076
-259,424	800,000	-0,037	-0,080
-258,409	-72,357	-0,038	-0,010
-257,395	-122,967	0,103	0,012
-256,380	640,980	0,092	0,172
-255,365	-200,000	0,002	-0,053
-254,351	-96,699	0,130	-0,025
-253,336	1,263	-0,042	0,022
-252,322	113,371	0,080	-0,071
-251,307	-163,410	0,054	0,002
-250,292	83,420	-0,054	-0,043
-249,278	-200,000	0,050	-0,206
-248,263	-200,000	-0,012	0,122
-247,249	261,051	0,023	-0,029
-246,234	114,783	-0,043	0,038
-245,219	-200,000	-0,005	0,016
-244,205	-41,900	0,154	-0,057
-243,190	32,405	-0,049	0,031
-242,176	305,653	-0,019	0,026
-241,161	800,000	-0,046	0,135
-240,146	800,000	0,051	0,121
-239,132	-200,000	0,011	0,056
-238,117	-200,000	-0,019	-0,079
-237,103	54,190	-0,100	0,070
-236,088	27,988	0,025	0,015
-235,073	530,095	0,058	0,100
-234,059	-200,000	0,022	0,077
-233,044	30,763	0,058	-0,036
-232,030	451,351	0,057	-0,093
-231,015	-200,000	-0,017	0,123
-230,000	386,684	-0,064	0,097
-228,986	190,410	0,080	0,088
-227,971	129,446	0,071	-0,066
-226,957	71,536	0,068	-0,051
-225,942	418,990	-0,021	-0,032
-224,927	-200,000	0,040	0,135
-223,913	-200,000	-0,003	0,095
-222,898	20,952	-0,105	0,062
-221,884	-179,724	0,066	0,001
-220,869	-200,000	0,003	-0,093
-219,855	-88,797	-0,091	0,019
-218,840	-200,000	0,028	0,128
-217,825	-77,710	-0,129	0,032
-216,811	-177,061	-0,018	0,000
-215,796	180,707	-0,014	0,015
-214,782	-200,000	-0,037	0,138
-213,767	7,157	0,064	0,035
-212,752	146,734	-0,040	0,039
-211,738	-47,254	-0,160	0,057
-210,723	43,196	0,025	0,017
-209,709	-154,717	-0,053	-0,003
-208,694	800,000	0,062	-0,135
-207,679	103,011	-0,069	-0,059
-206,665	199,777	0,056	0,062
-205,650	123,423	-0,114	0,104
-204,636	64,064	0,049	-0,036
-203,621	25,517	0,077	0,047
-202,606	-200,000	-0,014	-0,045
-201,592	-200,000	0,010	-0,037
-200,577	440,043	-0,046	-0,074
-199,563	-200,000	-0,004	0,016
-198,548	76,117	0,014	0,011
-197,533	57,128	0,074	0,053
-196,519	210,224	0,077	0,089
-195,504	800,000	-0,010	-0,031
-194,490	-200,000	-0,024	-0,091
-193,475	14,273	-0,105	0,060
-192,460	-113,459	0,083	0,012
-191,446	490,476	-0,035	-0,058
-190,431	-200,000	-0,018	-0,131
-189,417	800,000	0,052	0,155
-188,402	-159,115	0,102	0,004
-187,387	-82,613	-0,075	0,017
-186,373	-200,000	-0,013	-0,045
-185,358	22,253	0,128	-0,076
-184,344	800,000	-0,036	0,073
-183,329	82,797	0,029	0,023
-182,315	73,422	-0,060	0,046
-181,300	-150,134	-0,153	-0,008
-180,285	-200,000	-0,007	-0,085
-179,271	800,000	-0,014	-0,044
-178,256	184,253	0,074	0,079
-177,242	21,401	-0,032	0,019
-176,227	427,812	-0,062	-0,097
-175,212	-111,961	-0,058	-0,008
-174,198	13,274	0,114	0,064
-173,183	606,351	-0,042	-0,077
-172,169	-89,094	-0,042	0,009
-171,154	-200,000	0,007	0,031
-170,139	55,635	0,104	-0,073
-169,125	54,567	-0,037	-0,026
-168,110	247,685	-0,052	-0,063
-167,096	2,752	-0,112	0,059
-166,081	-154,823	0,087	-0,004
-165,066	58,322	-0,079	-0,056
-164,052	-60,915	-0,104	-0,032
-163,037	35,553	0,028	0,018
-162,023	87,199	0,091	0,073
-161,008	33,919	-0,059	0,037
-159,993	-200,000	-0,000	-0,006
-158,979	-92,033	-0,145	-0,030
-157,964	624,181	-0,032	0,059
-156,950	-200,000	0,000	0,014
-155,935	800,000	-0,022	-0,060
-154,920	-200,000	-0,017	-0,096
-153,906	800,000	0,056	-0,130
-152,891	176,068	-0,020	-0,021
-151,877	28,918	-0,028	0,017
-150,862	-77,432	-0,129	-0,032
-149,847	240,429	-0,040	-0,049
-148,833	-200,000	0,011	0,134
-147,818	-39,372	0,033	0,013
-146,804	16,641	0,059	0,034
-145,789	-104,296	-0,053	-0,009
-144,775	342,463	-0,062	-0,089
-143,760	-200,000	-0,016	0,066
-142,745	15,553	-0,069	-0,039
-141,731	-72,722	0,119	-0,032
-140,716	-27,292	0,052	0,022
-139,702	441,680	0,018	0,029
-138,687	116,649	0,040	0,036
-137,672	-46,471	-0,047	-0,017
-136,658	-25,988	-0,147	-0,063
-135,643	328,452	0,020	-0,028
-134,629	140,598	-0,060	-0,058
-133,614	-127,670	0,059	0,006
-132,599	359,252	0,041	0,060
-131,585	800,000	0,031	0,088
-130,570	-153,827	0,107	-0,005
-129,556	205,748	-0,049	0,056
-128,541	269,721	-0,088	-0,113
-127,526	-200,000	-0,012	0,103
-126,512	800,000	0,006	0,018
-125,497	4,677	-0,062	-0,033
-124,483	-72,434	0,135	0,036
-123,468	602,751	0,023	0,042
-122,453	-200,000	0,013	0,125
-121,439	-176,826	-0,114	-0,002
-120,424	91,292	-0,049	-0,040
-119,410	-30,630	0,050	0,020
-118,395	7,681	0,026	0,014
-117,380	79,585	0,147	0,115
-116,366	-200,000	0,010	0,084
-115,351	-126,001	-0,095	0,010
-114,337	285,907	-0,078	0,102
-113,322	-127,602	0,067	0,007
-112,307	184,019	-0,067	0,072
-111,293	-12,802	-0,094	-0,044
-110,278	156,923	0,079	0,080
-109,264	-77,567	0,087	-0,022
-108,249	-16,280	-0,015	0,007
-107,234	63,029	-0,031	-0,022
-106,220	-200,000	-0,038	-0,173
-105,205	-200,000	0,021	-0,118
-104,191	-200,000	-0,009	-0,061
-103,176	800,000	0,054	-0,116
-102,162	-54,145	0,125	-0,041
-101,147	55,145	-0,042	0,029
-100,132	-200,000	0,058	-0,212
-99,118	800,000	-0,037	-0,102
-98,103	749,415	0,056	-0,111
-97,089	800,000	-0,018	0,044
-96,074	617,244	0,030	0,055
-95,059	-80,610	-0,048	-0,011
-94,045	-200,000	-0,007	0,071
-93,030	-18,142	-0,054	-0,024
-92,016	-61,240	-0,082	0,025
-91,001	168,375	0,073	0,075
-89,986	800,000	0,026	-0,082
-88,972	-8,102	0,129	0,063
-87,957	-124,507	-0,051	0,006
-86,943	148,715	0,057	-0,056
-85,928	236,356	-0,062	0,074
-84,913	7,985	-0,083	0,045
-83,899	12,137	0,010	-0,005
-82,884	-113,292	0,091	-0,013
-81,870	-200,000	-0,013	-0,135
-80,855	239,329	-0,047	-0,057
-79,840	174,445	-0,054	-0,056
-78,826	167,783	0,074	-0,076
-77,811	543,346	-0,066	-0,115
-76,797	-200,000	-0,005	-0,095
-75,782	-70,578	0,013	-0,003
-74,767	-200,000	0,014	0,217
-73,753	800,000	0,046	0,095
-72,738	-58,907	-0,112	0,035
-71,724	25,853	0,086	0,052
-70,709	116,637	0,082	0,073
-69,694	-200,000	0,019	-0,218
-68,680	292,546	0,098	-0,129
-67,665	137,497	0,045	-0,042
-66,651	-1,489	0,074	0,037
-65,636	257,555	0,055	-0,068
-64,622	61,269	0,091	0,066
-63,607	-200,000	-0,002	-0,023
-62,592	-200,000	-0,010	-0,068
-61,578	46,554	-0,159	0,107
-60,563	477,427	0,062	0,101
-59,549	-200,000	-0,028	0,130
-58,534	-114,115	-1,473	-0,204
-57,519	543,936	-0,750	-1,302
-56,505	-200,000	-1,010	-4,482
-55,490	-95,938	0,642	-0,123
-54,476	800,000	4,964	11,882
-53,461	-200,000	14,464	258,377
-52,446	-200,000	696,311	2234,446
-51,432	565,622	1622,516	2860,023
-50,417	117,654	1630,019	1452,381
-49,403	74,621	1284,228	976,944
-48,388	37,489	1022,370	655,092
-47,373	23,215	981,643	582,126
-46,359	22,352	971,063	573,004
-45,344	21,277	966,575	566,823
-44,330	21,317	965,019	566,020
-43,315	21,096	963,685	564,495
-42,300	21,108	962,668	563,918
-41,286	21,135	961,584	563,348
-40,271	21,109	960,666	562,704
-39,257	21,023	959,824	561,907
-38,242	21,034	958,610	561,211
-37,227	21,093	958,119	561,091
-36,213	21,069	957,172	560,438
-35,198	20,999	956,185	559,611
-34,184	21,097	955,503	559,505
-33,169	20,993	954,786	558,729
-32,154	21,101	953,751	558,448
-31,140	21,124	953,051	558,092
-30,125	21,110	952,246	557,552
-29,111	21,109	951,289	556,966
-28,096	21,176	950,516	556,707
-27,082	21,089	949,962	556,081
-26,067	21,056	949,215	555,518
-25,052	21,117	948,313	555,162
-24,038	21,090	947,690	554,689
-23,023	21,068	947,041	554,217
-22,009	21,149	946,517	554,147
-20,994	21,157	945,931	553,807
-19,979	21,108	945,337	553,280
-18,965	21,029	944,821	552,704
-17,950	21,137	944,047	552,574
-16,936	21,044	943,394	551,876
-15,921	20,954	942,800	551,218
-14,906	21,026	941,677	550,770
-13,892	20,983	941,324	550,405
-12,877	20,961	940,828	550,023
-11,863	20,898	940,304	549,494
-10,848	21,007	939,538	549,370
-9,833	21,060	939,265	549,358
-8,819	21,035	938,624	548,880
-7,804	21,024	937,840	548,367
-6,790	20,990	937,420	547,990
-5,775	21,053	936,585	547,680
-4,760	20,996	936,026	547,153
-3,746	20,961	935,507	546,715
-2,731	20,784	934,820	545,734
-1,717	20,782	934,009	545,235
-0,702	20,771	933,313	544,770
0,313	20,637	932,699	544,815
1,327	23,697	930,841	553,287
2,342	33,074	794,013	496,851
3,356	30,655	450,573	278,285
4,371	0,098	294,559	151,376
5,386	-4,392	275,664	137,395
6,400	-5,624	269,827	133,328
7,415	-5,734	267,506	132,068
8,429	-5,628	266,331	131,573
9,444	-5,733	265,471	131,041
10,459	-5,646	264,789	130,772
11,473	-5,835	264,296	130,345
12,488	-5,684	263,604	130,129
13,502	-5,939	263,185	129,680
14,517	-5,938	262,914	129,535
15,531	-5,654	262,426	129,540
16,546	-5,713	261,946	129,238
17,561	-5,901	261,737	128,954
18,575	-5,528	261,302	129,064
19,590	-5,764	261,060	128,721
20,604	-5,462	260,607	128,757
21,619	-5,770	260,421	128,378
22,634	-5,706	260,070	128,250
23,648	-5,862	259,758	127,945
24,663	-6,017	259,666	127,750
25,677	-5,948	259,274	127,608
26,692	-5,734	259,148	127,725
27,707	-5,874	258,802	127,418
28,721	-5,921	258,523	127,228
29,736	-5,876	258,272	127,133
30,750	-5,879	257,991	126,980
31,765	-5,997	257,819	126,780
32,780	-5,755	257,539	126,846
33,794	-5,928	257,306	126,566
34,809	-5,919	256,991	126,408
35,823	-5,881	256,783	126,328
36,838	-6,011	256,643	126,134
37,853	-5,738	256,243	126,165
38,867	-5,916	256,182	125,968
39,882	-5,905	255,841	125,798
40,896	-5,991	255,706	125,645
41,911	-5,889	255,371	125,559
42,926	-5,879	255,234	125,490
43,940	-5,862	254,943	125,350
44,955	-6,002	254,693	125,093
45,969	-6,150	254,442	124,829
46,984	-6,261	254,263	124,634
47,999	-6,411	253,878	124,303
49,013	-6,438	253,775	124,218
50,028	-6,482	253,482	124,025
51,042	-6,725	253,186	123,658
52,057	-6,648	253,053	123,649
53,071	-6,488	252,769	123,638
54,086	-6,476	252,628	123,569
55,101	-6,315	252,377	123,574
56,115	-6,182	252,376	123,678
57,130	-5,691	252,057	123,935
58,144	-5,610	252,134	124,032
59,159	-5,569	251,674	123,830
60,174	-5,718	251,664	123,685
61,188	-5,956	251,538	123,408
62,203	-5,967	251,283	123,262
63,217	-5,891	251,072	123,213
64,232	-5,832	250,808	123,123
65,247	-5,746	250,544	123,056
66,261	-5,794	250,240	122,855
67,276	-5,874	250,065	122,689
68,290	-6,036	249,841	122,429
69,305	-6,296	249,653	122,104
70,320	-6,141	249,498	122,150
71,334	-5,711	249,289	122,404
72,349	-5,856	249,211	122,231
73,363	-5,695	249,004	122,256
74,378	-5,792	248,783	122,054
75,393	-5,809	248,400	121,840
76,407	-5,764	248,252	121,795
77,422	-5,787	248,106	121,693
78,436	-5,788	248,108	121,683
79,451	-5,795	247,724	121,478
80,466	-5,938	247,419	121,195
81,480	-5,922	247,221	121,101
82,495	-5,984	247,098	120,978
83,509	-5,979	246,847	120,848
84,524	-6,038	246,711	120,721
85,539	-5,942	246,355	120,618
86,553	-6,225	246,301	120,342
87,568	-6,185	246,117	120,275
88,582	-6,074	245,915	120,259
89,597	-6,125	245,837	120,167
90,611	-5,959	245,747	120,252
91,626	-5,896	245,503	120,175
92,641	-5,803	245,248	120,117
93,655	-5,898	245,008	119,909
94,670	-5,802	244,973	119,962
95,684	-5,844	244,592	119,730
96,699	-5,886	244,480	119,629
97,714	-5,942	244,219	119,444
98,728	-6,078	244,031	119,228
99,743	-6,133	244,036	119,174
100,757	-6,289	243,687	118,862
101,772	-6,060	243,446	118,924
102,787	-5,993	243,374	118,935
103,801	-5,900	243,118	118,877
104,816	-5,892	243,086	118,857
105,830	-5,761	242,863	118,846
106,845	-5,858	242,630	118,641
107,860	-6,007	242,589	118,487
108,874	-5,950	242,258	118,361
109,889	-5,988	242,257	118,319
110,903	-6,133	241,874	118,002
111,918	-6,330	241,821	117,803
112,933	-6,006	241,684	117,993
113,947	-5,857	241,367	117,950
114,962	-5,745	241,182	117,941
115,976	-5,763	241,127	117,890
116,991	-5,785	240,871	117,736
118,006	-5,869	240,693	117,570
119,020	-6,013	240,747	117,466
120,035	-5,766	240,420	117,499
121,049	-5,783	240,357	117,445
122,064	-5,863	240,216	117,299
123,079	-5,858	239,920	117,148
124,093	-5,716	239,582	117,088
125,108	-6,180	239,396	116,609
126,122	-6,288	239,181	116,405
127,137	-6,297	239,085	116,341
128,151	-6,419	238,953	116,167
129,166	-6,185	238,780	116,263
130,181	-6,187	238,529	116,129
131,195	-6,313	238,386	115,946
132,210	-6,182	238,221	115,962
133,224	-6,069	238,162	116,015
134,239	-5,678	237,843	116,166
135,254	-5,793	237,722	116,003
136,268	-6,020	237,557	115,729
137,283	-6,297	237,376	115,406
138,297	-6,129	237,073	115,385
139,312	-6,374	236,980	115,131
140,327	-6,102	236,995	115,348
141,341	-5,712	236,897	115,605
142,356	-5,580	236,683	115,596
143,370	-5,690	236,479	115,398
144,385	-5,530	236,252	115,405
145,400	-5,597	236,084	115,260
146,414	-5,594	235,857	115,141
147,429	-5,641	235,842	115,084
148,443	-5,878	235,720	114,825
149,458	-5,738	235,451	114,796
150,473	-5,690	235,299	114,751
151,487	-5,656	235,026	114,634
152,502	-5,639	235,070	114,659
153,516	-5,543	234,730	114,560
154,531	-5,606	234,506	114,390
155,546	-5,476	234,499	114,480
156,560	-5,842	234,233	114,048
157,575	-5,838	233,915	113,886
158,589	-5,838	233,844	113,842
159,604	-5,524	233,772	114,046
160,619	-5,699	233,687	113,855
161,633	-5,466	233,452	113,915
162,648	-5,664	233,365	113,706
163,662	-5,756	233,245	113,564
164,677	-5,625	232,810	113,445
165,692	-5,610	232,851	113,468
166,706	-5,342	232,648	113,571
167,721	-5,387	232,484	113,444
168,735	-5,548	232,519	113,325
169,750	-5,374	232,261	113,325
170,764	-5,573	232,138	113,099
171,779	-5,782	232,107	112,909
172,794	-5,663	231,904	112,894
173,808	-5,530	231,532	112,808
174,823	-5,924	231,303	112,376
175,837	-6,307	231,156	111,994
176,852	-5,963	231,192	112,272
177,867	-5,521	230,885	112,459
178,881	-5,501	230,831	112,438
179,896	-5,470	230,855	112,464
180,910	-5,378	230,427	112,318
181,925	-5,687	230,458	112,081
182,940	-5,309	230,139	112,211
183,954	-5,714	230,146	111,889
184,969	-5,452	230,040	112,031
185,983	-5,349	229,744	111,957
186,998	-5,438	229,764	111,887
188,013	-5,386	229,513	111,796
189,027	-5,388	229,300	111,681
190,042	-5,301	229,215	111,697
191,056	-5,402	228,917	111,463
192,071	-5,432	228,845	111,395
193,086	-5,581	228,706	111,202
194,100	-5,640	228,552	111,072
195,115	-5,648	228,191	110,880
196,129	-6,249	228,111	110,366
197,144	-3,382	228,918	112,970
198,159	1,167	230,291	117,179
199,173	3,891	230,792	119,543
200,188	4,050	230,655	119,585
201,202	4,061	230,649	119,580
202,217	4,040	230,392	119,420
203,232	4,117	230,460	119,504
204,246	4,401	230,149	119,552
205,261	4,210	230,193	119,416
206,275	4,368	229,972	119,413
207,290	4,602	229,856	119,524
208,304	4,551	229,775	119,431
209,319	4,426	229,517	119,190
210,334	4,358	229,333	119,031
211,348	4,038	229,203	118,707
212,363	3,696	228,949	118,302
213,377	3,469	228,856	118,068
214,392	3,595	228,539	117,990
215,407	3,873	228,208	118,023
216,421	3,925	228,160	118,027
217,436	3,817	228,003	117,852
218,450	3,434	227,787	117,437
219,465	3,406	227,522	117,269
220,480	3,515	227,546	117,354
221,494	3,411	227,357	117,166
222,509	3,497	227,374	117,230
223,523	3,685	227,087	117,216
224,538	3,623	226,831	117,025
225,553	3,592	226,782	116,966
226,567	3,596	226,758	116,947
227,582	3,952	226,605	117,128
228,596	3,996	226,584	117,141
229,611	3,908	226,298	116,915
230,626	3,572	226,108	116,551
231,640	3,441	226,051	116,412
232,655	3,843	225,913	116,635
233,669	4,534	225,842	117,112
234,684	4,417	225,594	116,885
235,699	3,829	225,619	116,442
236,713	3,747	225,334	116,222
237,728	3,737	225,083	116,075
238,742	3,756	224,910	115,990
239,757	3,828	224,666	115,908
240,772	3,703	224,624	115,782
241,786	3,552	224,525	115,606
242,801	3,742	224,294	115,621
243,815	4,102	224,435	115,953
244,830	4,033	224,133	115,735
245,844	3,970	224,014	115,617
246,859	3,833	223,748	115,366
247,874	3,783	223,890	115,391
248,888	3,701	223,748	115,247
249,903	3,926	223,273	115,160
250,917	3,724	223,190	114,956
251,932	3,566	223,070	114,765
252,947	3,724	222,758	114,713
253,961	3,480	222,791	114,537
254,976	3,508	222,585	114,443
255,990	3,847	222,549	114,666
257,005	4,004	222,354	114,672
258,020	3,588	222,291	114,320
259,034	4,167	222,241	114,716
260,049	3,933	221,940	114,376
261,063	3,900	221,688	114,211
262,078	3,877	221,804	114,244
263,093	4,133	221,580	114,308
264,107	4,213	221,351	114,239
265,122	3,857	221,232	113,903
266,136	4,236	221,151	114,132
267,151	4,288	220,898	114,030
268,166	3,723	220,723	113,512
269,180	3,282	220,575	113,100
270,195	3,464	220,310	113,088
271,209	3,487	220,268	113,074
272,224	3,572	220,191	113,087
273,239	3,778	220,094	113,179
274,253	3,683	219,868	112,983
275,268	3,480	219,667	112,720
276,282	3,313	219,497	112,500
277,297	3,387	219,387	112,488
278,312	3,695	219,198	112,606
279,326	3,611	219,083	112,476
280,341	3,647	219,105	112,503
281,355	3,787	218,960	112,522
282,370	3,489	218,735	112,178
283,384	3,378	218,506	111,969
284,399	3,435	218,283	111,887
285,414	3,462	218,224	111,867
286,428	3,729	218,074	111,974
287,443	3,701	218,192	112,004
288,457	3,894	217,961	112,016
289,472	3,799	217,756	111,832
290,487	3,371	217,522	111,391
291,501	3,137	217,322	111,108
292,516	3,467	217,211	111,282
293,530	3,105	217,177	110,991
294,545	3,177	217,134	111,011
295,560	3,419	216,986	111,101
296,574	3,672	216,744	111,151
297,589	3,554	216,718	111,042
298,603	3,693	216,560	111,052
299,618	3,530	216,479	110,883
300,633	3,778	216,193	110,905
301,647	4,033	216,042	111,002
302,662	3,618	216,113	110,729
303,676	4,032	215,897	110,906
304,691	4,061	215,839	110,888
305,706	4,061	215,692	110,803
306,720	4,025	215,577	110,708
307,735	3,654	215,273	110,275
308,749	3,501	215,228	110,132
309,764	3,714	215,192	110,257
310,779	3,828	214,990	110,226
311,793	4,029	214,653	110,187
312,808	3,720	214,536	109,896
313,822	3,546	214,536	109,761
314,837	3,530	214,361	109,651
315,852	3,417	214,051	109,401
316,866	3,490	214,012	109,424
317,881	3,916	213,938	109,681
318,895	3,698	213,938	109,515
319,910	3,535	213,695	109,265
320,925	3,613	213,435	109,178
321,939	2,974	213,267	108,627
322,954	3,341	213,097	108,792
323,968	3,771	213,294	109,188
324,983	3,790	213,023	109,053
325,997	3,773	213,028	109,034
327,012	3,773	212,761	108,888
328,027	3,791	212,700	108,860
329,041	4,158	212,499	109,007
330,056	4,119	212,362	108,899
331,070	3,655	212,173	108,465
332,085	3,270	211,930	108,060
333,100	3,534	211,732	108,135
334,114	3,869	211,840	108,417
335,129	3,789	211,620	108,238
336,143	3,533	211,458	107,965
337,158	3,793	211,332	108,074
338,173	3,671	211,155	107,888
339,187	3,189	211,104	107,514
340,202	3,344	211,007	107,563
341,216	3,054	210,862	107,277
342,231	3,410	210,513	107,339
343,246	3,552	210,396	107,369
344,260	3,204	210,389	107,113
345,275	3,633	210,274	107,345
346,289	3,614	210,245	107,307
347,304	3,726	210,025	107,263
348,319	3,640	209,963	107,162
349,333	3,564	209,642	106,935
350,348	3,766	209,735	107,114
351,362	3,685	209,618	106,988
352,377	3,870	209,420	107,007
353,392	3,681	209,205	106,756
354,406	3,814	209,054	106,762
355,421	193,991	1344,120	1429,631
356,435	154,807	1482,495	1429,712
