DTS Sentinel unit serial number:	SN410029Multiplexer serial number:	ORYXHardware model number:	OX2-SRSoftware version number:	ORYX F/W v4,00 Oryx Data Collector v3.7.2.0data status	okinstallation	B6 Nyhavnadifferential loss correction	single-endedforward channel	channel 2reverse channel	N/Adate	2023/12/10time	18:15:08forward acquisition time	300,00reverse acquisition time	0,00gamma	499,1914k internal	0,3123k external	0,3123temperature offset calibration	1,0000default loss term (dB/km)	0,3820temperature slope calibration	1,0000multiplexer offset coefficient	1,0000multiplexer slope coefficient	1,0000fibre end	0,00T internal ref (°C)	22,37T ext. ref 1 (°C)	5,96T ext. ref 2 (°C)	5,97length (m)	temperature (°C)	Stokes	anti-Stokes-744,400	800,000	-0,050	-0,141
-743,385	-21,045	-0,270	0,123
-742,371	-26,389	0,086	-0,038
-741,356	2,315	-0,207	0,111
-740,342	18,281	0,123	-0,073
-739,327	38,658	-0,208	0,138
-738,312	4,306	0,115	-0,063
-737,298	-74,231	-0,287	0,077
-736,283	193,851	0,108	0,122
-735,269	-11,340	-0,243	0,119
-734,254	-68,138	0,144	0,041
-733,239	-146,288	-0,481	-0,031
-732,225	226,850	0,125	0,152
-731,210	800,000	0,025	0,067
-730,196	624,827	-0,024	-0,044
-729,181	159,697	-0,033	0,034
-728,167	-200,000	-0,028	0,000
-727,152	226,471	-0,022	0,026
-726,137	-200,000	-0,040	-0,201
-725,123	232,831	-0,067	-0,082
-724,108	236,143	-0,069	-0,085
-723,094	35,986	-0,196	-0,128
-722,079	649,944	0,065	-0,124
-721,064	24,423	0,134	0,083
-720,050	-200,000	-0,024	-0,157
-719,035	188,532	-0,106	-0,118
-718,021	-46,546	-0,137	-0,050
-717,006	-200,000	-0,005	-0,053
-715,991	29,264	0,069	-0,044
-714,977	31,275	-0,135	-0,086
-713,962	-200,000	-0,033	-0,203
-712,948	-200,000	-0,007	0,025
-711,933	-1,734	-0,025	-0,013
-710,918	84,734	-0,040	0,032
-709,904	6,550	0,080	0,044
-708,889	-71,051	0,039	0,011
-707,875	790,103	0,030	0,062
-706,860	-127,503	-0,098	-0,010
-705,845	-200,000	-0,009	-0,132
-704,831	28,011	-0,045	0,028
-703,816	-62,020	0,013	-0,004
-702,802	245,380	0,055	-0,069
-701,787	113,621	-0,072	0,065
-700,772	76,018	-0,076	-0,060
-699,758	75,818	-0,122	-0,096
-698,743	312,731	-0,012	0,016
-697,729	87,632	-0,069	0,057
-696,714	-200,000	-0,022	0,123
-695,699	-200,000	-0,016	-0,070
-694,685	54,449	0,078	0,056
-693,670	212,915	-0,088	-0,104
-692,656	155,375	0,062	-0,063
-691,641	89,305	-0,049	-0,040
-690,627	-200,000	-0,006	0,088
-689,612	-200,000	0,004	0,042
-688,597	-186,308	-0,107	0,001
-687,583	-200,000	-0,049	-0,193
-686,568	67,488	-0,209	-0,158
-685,554	47,637	-0,110	-0,076
-684,539	-44,504	0,201	0,075
-683,524	126,506	0,038	0,036
-682,510	-200,000	0,012	0,066
-681,495	106,602	0,077	0,068
-680,481	-140,274	0,073	-0,006
-679,466	68,244	-0,093	-0,071
-678,451	-116,328	-0,042	0,006
-677,437	147,183	0,082	-0,082
-676,422	46,474	0,048	0,033
-675,408	87,617	0,122	0,101
-674,393	241,221	-0,072	-0,089
-673,378	104,708	0,095	0,084
-672,364	158,402	-0,047	-0,048
-671,349	35,512	-0,099	0,064
-670,335	-200,000	0,056	0,218
-669,320	-200,000	-0,002	-0,021
-668,305	107,288	-0,059	0,052
-667,291	21,739	0,052	-0,032
-666,276	251,514	-0,117	0,148
-665,262	65,917	-0,023	-0,018
-664,247	800,000	-0,091	-0,197
-663,232	-101,430	-0,059	0,010
-662,218	-200,000	0,002	-0,102
-661,203	-73,852	-0,064	0,017
-660,189	-112,670	0,055	-0,008
-659,174	-130,881	0,076	0,007
-658,159	131,431	-0,020	0,019
-657,145	180,319	-0,033	0,036
-656,130	152,297	0,021	0,021
-655,116	-200,000	0,005	0,061
-654,101	-200,000	-0,008	-0,035
-653,086	-200,000	0,011	0,050
-652,072	-200,000	0,001	0,026
-651,057	29,330	0,021	-0,013
-650,043	387,336	0,045	0,069
-649,028	111,360	0,031	0,027
-648,014	-200,000	-0,026	0,096
-646,999	8,672	0,026	-0,014
-645,984	124,347	0,044	0,042
-644,970	-8,792	0,047	-0,023
-643,955	-200,000	0,014	-0,091
-642,941	274,212	0,042	-0,056
-641,926	-34,777	-0,031	0,013
-640,911	317,826	0,074	-0,104
-639,897	-74,598	0,136	-0,036
-638,882	236,078	-0,030	0,037
-637,868	-80,754	0,125	0,031
-636,853	-53,833	-0,049	0,016
-635,838	800,000	0,038	-0,101
-634,824	492,909	-0,032	0,054
-633,809	-200,000	0,001	0,036
-632,795	356,135	0,074	-0,110
-631,780	421,375	-0,063	0,100
-630,765	-200,000	-0,021	0,105
-629,751	-45,679	0,160	-0,058
-628,736	-74,504	-0,135	-0,036
-627,722	184,658	-0,074	0,082
-626,707	314,691	-0,043	-0,060
-625,692	659,618	0,019	0,037
-624,678	-187,462	-0,076	-0,001
-623,663	-200,000	-0,022	-0,151
-622,649	-32,990	-0,182	-0,075
-621,634	-27,852	-0,141	-0,060
-620,619	13,479	-0,078	-0,045
-619,605	40,982	-0,017	0,011
-618,590	800,000	0,018	-0,045
-617,576	-68,563	-0,039	-0,011
-616,561	409,608	-0,056	-0,088
-615,546	-76,781	-0,111	-0,029
-614,532	-200,000	0,009	0,143
-613,517	36,008	0,127	-0,083
-612,503	584,627	0,046	-0,084
-611,488	-200,000	-0,038	-0,137
-610,474	-77,316	-0,136	-0,035
-609,459	95,656	-0,017	-0,015
-608,444	-109,335	-0,113	0,018
-607,430	-62,348	-0,106	0,033
-606,415	42,252	0,108	-0,072
-605,401	-200,000	-0,002	-0,097
-604,386	-200,000	0,095	-0,000
-603,371	-95,308	0,087	-0,017
-602,357	29,924	-0,075	0,047
-601,342	175,769	0,042	0,045
-600,328	-131,237	0,044	0,004
-599,313	-200,000	0,022	-0,118
-598,298	26,886	-0,036	0,022
-597,284	-83,608	0,027	0,006
-596,269	152,932	0,030	-0,031
-595,255	-200,000	0,008	0,103
-594,240	-130,841	0,115	0,011
-593,225	327,198	-0,084	0,120
-592,211	-200,000	0,015	-0,074
-591,196	-148,432	-0,095	0,006
-590,182	8,874	0,053	0,030
-589,167	-200,000	-0,062	0,277
-588,152	-200,000	0,006	0,028
-587,138	363,333	-0,032	0,048
-586,123	-96,240	-0,057	0,011
-585,109	-162,313	-0,189	0,007
-584,094	681,678	0,036	0,071
-583,079	569,455	0,073	-0,131
-582,065	10,959	0,077	0,043
-581,050	93,696	0,025	-0,021
-580,036	65,083	-0,055	0,041
-579,021	800,000	-0,028	-0,075
-578,006	800,000	-0,037	-0,106
-576,992	39,698	0,083	-0,055
-575,977	179,163	0,027	-0,029
-574,963	-4,844	0,073	-0,037
-573,948	-200,000	-0,013	0,099
-572,934	77,117	-0,010	0,008
-571,919	153,805	0,030	0,031
-570,904	85,509	-0,114	0,093
-569,890	-200,000	0,024	-0,101
-568,875	-200,000	0,007	0,023
-567,861	-12,274	-0,014	-0,007
-566,846	-78,689	0,090	-0,023
-565,831	-94,127	-0,091	-0,018
-564,817	10,394	-0,059	-0,033
-563,802	800,000	-0,046	-0,149
-562,788	378,574	0,020	0,031
-561,773	6,675	0,076	0,041
-560,758	-31,622	-0,049	-0,020
-559,744	800,000	0,020	-0,044
-558,729	-200,000	0,025	0,081
-557,715	18,715	-0,099	-0,058
-556,700	105,456	-0,059	0,052
-555,685	800,000	0,020	-0,049
-554,671	0,373	0,095	0,050
-553,656	-89,721	0,055	0,012
-552,642	421,826	0,107	0,171
-551,627	-33,154	0,078	0,032
-550,612	314,240	-0,068	-0,095
-549,598	-200,000	-0,029	-0,121
-548,583	-178,474	0,022	0,000
-547,569	800,000	0,051	0,134
-546,554	141,021	0,051	0,050
-545,539	800,000	-0,014	0,036
-544,525	-167,784	-0,116	-0,003
-543,510	94,428	0,023	0,019
-542,496	10,221	0,026	-0,014
-541,481	-200,000	-0,013	-0,049
-540,466	-200,000	0,008	0,046
-539,452	-200,000	-0,004	0,068
-538,437	58,087	0,072	-0,052
-537,423	243,515	-0,051	-0,063
-536,408	283,583	-0,034	-0,046
-535,393	-200,000	-0,023	0,080
-534,379	187,980	0,091	0,100
-533,364	800,000	0,019	0,054
-532,350	561,500	0,034	0,060
-531,335	202,508	-0,065	-0,074
-530,321	99,212	0,094	0,080
-529,306	-161,992	-0,120	-0,004
-528,291	-200,000	-0,004	0,136
-527,277	48,251	-0,039	0,027
-526,262	-18,857	-0,152	0,069
-525,248	-98,004	0,080	0,015
-524,233	377,019	0,057	0,086
-523,218	-172,477	0,100	0,002
-522,204	286,756	-0,074	-0,099
-521,189	-115,180	0,102	0,014
-520,175	69,805	-0,099	-0,075
-519,160	25,843	0,055	0,034
-518,145	-145,285	0,070	-0,005
-517,131	310,762	0,038	0,053
-516,116	63,810	0,036	0,026
-515,102	-200,000	0,004	0,139
-514,087	-200,000	0,009	0,073
-513,072	286,405	0,052	-0,070
-512,058	6,262	-0,050	0,027
-511,043	-100,531	-0,045	0,008
-510,029	296,689	-0,087	0,119
-509,014	51,425	-0,058	0,041
-507,999	227,799	-0,068	-0,082
-506,985	190,603	0,074	-0,082
-505,970	800,000	-0,023	-0,057
-504,956	800,000	0,078	-0,181
-503,941	-69,939	-0,035	0,010
-502,926	11,860	0,101	0,057
-501,912	800,000	0,062	0,154
-500,897	-200,000	-0,007	-0,129
-499,883	800,000	-0,031	-0,094
-498,868	-200,000	0,012	0,053
-497,853	181,837	-0,085	0,093
-496,839	349,944	-0,025	-0,037
-495,824	-200,000	0,003	0,012
-494,810	501,385	0,052	-0,089
-493,795	74,178	-0,116	0,090
-492,781	-87,993	0,114	-0,025
-491,766	149,805	0,016	-0,016
-490,751	800,000	-0,054	-0,121
-489,737	-200,000	-0,001	-0,093
-488,722	-67,291	0,115	0,033
-487,708	800,000	0,047	0,127
-486,693	-200,000	0,003	-0,067
-485,678	800,000	0,011	-0,028
-484,664	-151,448	-0,012	-0,001
-483,649	-12,051	0,127	-0,061
-482,635	151,744	0,074	0,075
-481,620	359,658	0,047	-0,070
-480,605	35,101	0,089	-0,058
-479,591	-200,000	0,012	0,123
-478,576	-168,802	0,044	0,001
-477,562	33,095	-0,114	-0,073
-476,547	-153,784	0,169	-0,008
-475,532	38,499	0,028	0,018
-474,518	418,313	0,050	0,079
-473,503	-128,645	0,165	0,017
-472,489	-89,157	-0,098	0,021
-471,474	43,371	-0,105	0,071
-470,459	259,529	0,081	-0,104
-469,445	35,956	-0,202	-0,131
-468,430	78,939	-0,117	-0,092
-467,416	-69,665	0,084	0,024
-466,401	88,261	0,061	-0,050
-465,386	-45,338	0,055	0,020
-464,372	-50,469	0,154	-0,053
-463,357	-86,811	0,133	-0,030
-462,343	180,091	-0,062	0,067
-461,328	103,981	0,078	-0,068
-460,313	-79,379	0,090	0,022
-459,299	232,521	0,077	0,094
-458,284	108,205	-0,023	0,020
-457,270	282,855	0,087	-0,116
-456,255	800,000	-0,037	0,087
-455,241	-112,321	-0,129	0,019
-454,226	-140,796	-0,013	-0,001
-453,211	375,365	0,046	0,070
-452,197	-77,962	0,089	-0,022
-451,182	-77,118	0,161	0,041
-450,168	609,353	0,028	0,052
-449,153	524,008	0,036	-0,062
-448,138	7,512	-0,135	0,074
-447,124	312,129	-0,049	0,068
-446,109	-60,921	-0,051	0,016
-445,095	-91,317	-0,098	-0,020
-444,080	-200,000	-0,002	0,116
-443,065	72,730	-0,056	0,043
-442,051	-200,000	0,020	0,076
-441,036	-26,047	-0,069	-0,030
-440,022	-108,441	0,058	-0,009
-439,007	-200,000	0,015	-0,076
-437,992	800,000	0,013	-0,039
-436,978	-24,297	-0,054	0,024
-435,963	-32,673	-0,068	-0,028
-434,949	50,753	0,045	0,031
-433,934	800,000	0,047	-0,110
-432,919	339,030	-0,029	-0,041
-431,905	-37,199	-0,026	-0,010
-430,890	41,202	0,163	0,108
-429,876	-200,000	0,006	0,195
-428,861	150,327	0,057	-0,057
-427,846	63,744	-0,045	0,034
-426,832	47,974	-0,060	-0,041
-425,817	50,245	0,053	-0,037
-424,803	800,000	0,023	0,055
-423,788	329,184	-0,076	-0,108
-422,773	-99,869	0,063	-0,011
-421,759	485,626	0,037	0,063
-420,744	-200,000	0,014	-0,145
-419,730	-200,000	0,001	0,064
-418,715	-27,611	-0,150	-0,064
-417,701	800,000	0,078	0,171
-416,686	-200,000	-0,001	0,078
-415,671	-67,170	-0,177	-0,051
-414,657	-200,000	0,012	-0,046
-413,642	316,736	-0,024	0,033
-412,628	-192,593	0,027	-0,000
-411,613	800,000	-0,042	-0,101
-410,598	800,000	-0,015	-0,046
-409,584	-200,000	-0,007	0,084
-408,569	398,145	0,051	-0,078
-407,555	-200,000	0,000	0,076
-406,540	207,981	0,054	0,062
-405,525	261,358	0,049	0,063
-404,511	800,000	-0,044	-0,100
-403,496	-90,231	-0,166	-0,035
-402,482	800,000	0,042	0,103
-401,467	-200,000	-0,021	0,101
-400,452	-200,000	-0,004	0,014
-399,438	-200,000	0,045	0,210
-398,423	-27,762	0,088	0,037
-397,409	800,000	0,040	0,104
-396,394	-25,111	0,085	0,037
-395,379	-197,230	0,066	-0,000
-394,365	-72,600	-0,022	-0,006
-393,350	-200,000	-0,036	-0,180
-392,336	-75,991	0,100	-0,026
-391,321	-200,000	0,033	-0,138
-390,306	-200,000	0,001	-0,114
-389,292	-121,250	0,010	-0,001
-388,277	800,000	0,029	-0,071
-387,263	-200,000	0,005	-0,122
-386,248	-20,124	0,114	0,052
-385,233	-200,000	0,000	-0,075
-384,219	10,813	0,109	-0,061
-383,204	-200,000	-0,009	0,048
-382,190	-200,000	0,012	0,066
-381,175	-151,729	-0,082	0,004
-380,160	411,171	0,069	-0,108
-379,146	-45,437	-0,035	0,013
-378,131	481,682	0,042	0,070
-377,117	-200,000	0,032	0,169
-376,102	-200,000	-0,008	-0,135
-375,088	-200,000	-0,014	0,102
-374,073	-84,856	-0,042	-0,010
-373,058	800,000	0,066	-0,157
-372,044	-200,000	0,038	-0,134
-371,029	71,994	0,037	-0,028
-370,015	-156,352	-0,089	0,004
-369,000	-200,000	-0,004	-0,046
-367,985	-200,000	0,037	-0,207
-366,971	247,295	-0,093	-0,116
-365,956	-51,015	0,139	0,048
-364,942	89,345	0,063	0,052
-363,927	86,096	-0,021	-0,017
-362,912	-107,318	-0,136	-0,022
-361,898	581,395	-0,044	0,079
-360,883	-184,921	-0,122	-0,001
-359,869	-107,506	0,038	-0,006
-358,854	-200,000	-0,012	-0,139
-357,839	-13,082	0,117	0,056
-356,825	377,500	0,099	0,148
-355,810	-200,000	-0,005	0,162
-354,796	800,000	0,051	0,138
-353,781	800,000	0,022	0,057
-352,766	-130,607	-0,099	0,010
-351,752	-100,929	0,019	0,003
-350,737	245,476	-0,029	-0,036
-349,723	-123,276	0,049	0,006
-348,708	170,807	-0,079	-0,083
-347,693	102,465	-0,081	0,069
-346,679	-162,893	0,135	-0,005
-345,664	800,000	-0,115	-0,284
-344,650	6,040	-0,171	-0,093
-343,635	178,205	0,134	0,144
-342,620	167,992	0,060	-0,062
-341,606	-5,207	0,023	0,011
-340,591	193,846	-0,061	-0,068
-339,577	-200,000	0,001	-0,028
-338,562	-25,499	-0,133	-0,058
-337,548	445,405	-0,004	0,007
-336,533	800,000	0,047	0,103
-335,518	776,437	-0,020	-0,041
-334,504	-200,000	-0,040	-0,132
-333,489	-33,673	0,062	-0,025
-332,475	-200,000	-0,010	0,042
-331,460	318,794	-0,018	0,025
-330,445	575,615	0,064	-0,116
-329,431	49,498	0,100	-0,069
-328,416	568,717	0,081	0,145
-327,402	-19,188	-0,055	0,025
-326,387	163,137	-0,069	0,071
-325,372	601,869	-0,019	0,035
-324,358	273,411	0,069	0,090
-323,343	-200,000	0,027	0,146
-322,329	-200,000	0,005	-0,033
-321,314	378,716	-0,030	0,045
-320,299	-75,608	-0,018	0,005
-319,285	-116,320	-0,181	-0,024
-318,270	-200,000	-0,008	0,077
-317,256	77,541	-0,088	0,069
-316,241	-38,623	0,145	0,056
-315,226	-200,000	-0,008	0,034
-314,212	306,683	-0,021	-0,029
-313,197	800,000	0,075	-0,156
-312,183	695,183	0,079	-0,152
-311,168	-200,000	-0,022	-0,104
-310,153	-151,836	-0,131	0,007
-309,139	777,492	-0,048	-0,097
-308,124	-12,536	0,031	0,015
-307,110	69,277	-0,042	-0,032
-306,095	800,000	-0,028	-0,063
-305,080	412,372	-0,058	0,091
-304,066	180,814	0,024	0,026
-303,051	-162,797	0,063	0,002
-302,037	681,245	0,017	-0,032
-301,022	800,000	0,039	-0,103
-300,008	605,616	0,060	0,111
-298,993	39,118	-0,132	0,086
-297,978	800,000	0,053	0,113
-296,964	744,268	-0,060	0,118
-295,949	214,439	0,054	-0,063
-294,935	800,000	-0,029	-0,074
-293,920	-56,107	-0,042	0,014
-292,905	-200,000	0,006	-0,105
-291,891	-200,000	0,030	-0,132
-290,876	145,636	-0,047	-0,046
-289,862	81,419	0,025	-0,020
-288,847	-100,877	-0,076	-0,014
-287,832	-200,000	0,016	-0,051
-286,818	-35,226	0,067	0,027
-285,803	-29,356	0,129	0,054
-284,789	281,205	0,083	0,109
-283,774	-116,050	0,108	0,014
-282,759	-77,576	-0,104	-0,026
-281,745	-164,480	-0,062	-0,002
-280,730	800,000	-0,050	-0,141
-279,716	-89,253	0,119	-0,026
-278,701	128,398	-0,074	0,069
-277,686	611,482	0,099	0,182
-276,672	248,463	0,059	0,073
-275,657	207,261	0,029	0,033
-274,643	109,645	-0,080	-0,070
-273,628	-4,811	0,084	0,042
-272,613	-200,000	0,021	-0,074
-271,599	-22,523	0,087	0,038
-270,584	-30,168	-0,093	-0,039
-269,570	-65,996	0,057	0,017
-268,555	179,531	0,105	0,113
-267,540	-200,000	-0,005	-0,104
-266,526	754,891	0,030	-0,059
-265,511	-59,878	-0,053	-0,016
-264,497	528,147	0,025	0,043
-263,482	800,000	-0,028	0,079
-262,467	-52,009	0,120	0,041
-261,453	74,047	-0,092	-0,071
-260,438	-200,000	0,008	0,055
-259,424	-200,000	-0,015	0,068
-258,409	428,313	-0,034	0,053
-257,395	800,000	0,035	0,080
-256,380	-200,000	0,001	0,039
-255,365	401,476	-0,075	0,115
-254,351	95,235	-0,039	-0,033
-253,336	-113,036	-0,056	-0,008
-252,322	-200,000	0,028	0,096
-251,307	219,372	-0,093	-0,109
-250,292	-200,000	-0,010	0,062
-249,278	-200,000	0,017	0,099
-248,263	7,448	-0,057	0,031
-247,249	-200,000	-0,014	0,110
-246,234	800,000	-0,017	-0,039
-245,219	31,510	0,058	-0,036
-244,205	800,000	0,041	0,119
-243,190	-200,000	-0,024	-0,082
-242,176	800,000	0,089	0,225
-241,161	164,400	0,051	-0,053
-240,146	-200,000	0,008	0,057
-239,132	-62,859	-0,049	0,015
-238,117	800,000	-0,032	0,091
-237,103	-149,958	-0,074	0,004
-236,088	-25,567	0,098	-0,042
-235,073	800,000	-0,060	-0,192
-234,059	428,767	-0,045	-0,071
-233,044	-27,474	-0,285	-0,121
-232,030	511,580	0,056	-0,096
-231,015	-200,000	0,010	-0,107
-230,000	-200,000	-0,034	-0,199
-228,986	672,823	-0,055	0,105
-227,971	-43,507	0,038	0,014
-226,957	268,850	-0,027	-0,034
-225,942	219,916	-0,053	-0,063
-224,927	18,154	-0,053	0,031
-223,913	-200,000	0,022	-0,143
-222,898	36,321	0,028	-0,018
-221,884	-200,000	-0,018	-0,066
-220,869	-200,000	-0,031	-0,118
-219,855	-44,233	-0,050	0,018
-218,840	-84,164	0,020	-0,005
-217,825	188,009	-0,087	-0,095
-216,811	-200,000	0,006	0,071
-215,796	800,000	0,026	-0,079
-214,782	-200,000	-0,010	-0,110
-213,767	65,925	0,063	0,047
-212,752	440,327	0,061	0,098
-211,738	111,813	-0,131	0,116
-210,723	-186,243	0,128	0,001
-209,709	568,477	-0,065	-0,116
-208,694	-14,765	-0,049	-0,023
-207,679	-73,365	-0,065	-0,017
-206,665	-1,658	-0,023	-0,012
-205,650	800,000	-0,017	0,053
-204,636	59,177	0,093	0,067
-203,621	-53,407	-0,178	0,059
-202,606	-200,000	-0,006	-0,064
-201,592	-200,000	0,001	-0,020
-200,577	-81,878	-0,073	0,017
-199,563	108,728	-0,098	0,085
-198,548	717,601	0,054	0,105
-197,533	140,875	-0,024	-0,024
-196,519	-190,844	0,104	0,001
-195,504	-84,458	-0,056	-0,013
-194,490	-91,215	-0,116	0,024
-193,475	800,000	0,017	0,039
-192,460	-68,752	0,023	-0,006
-191,446	742,861	0,057	-0,112
-190,431	-200,000	0,022	0,133
-189,417	-200,000	0,000	-0,066
-188,402	-200,000	-0,018	0,109
-187,387	10,846	-0,072	-0,040
-186,373	-67,274	-0,094	-0,027
-185,358	-66,201	-0,122	0,035
-184,344	516,345	0,075	0,128
-183,329	282,358	0,078	-0,102
-182,315	49,809	0,029	-0,020
-181,300	-82,643	-0,064	0,015
-180,285	-174,054	0,123	-0,003
-179,271	505,796	-0,039	0,066
-178,256	-130,197	-0,106	-0,010
-177,242	-134,822	0,133	-0,012
-176,227	348,640	-0,050	0,072
-175,212	24,127	0,039	-0,023
-174,198	-131,391	-0,130	-0,012
-173,183	325,980	0,015	0,021
-172,169	800,000	-0,065	-0,149
-171,154	70,365	0,070	0,053
-170,139	-200,000	0,033	0,137
-169,125	-57,921	0,129	0,041
-168,110	-76,932	0,087	0,022
-167,096	52,149	-0,135	0,094
-166,081	199,327	0,062	-0,069
-165,066	32,618	0,086	-0,054
-164,052	-86,257	-0,217	0,048
-163,037	-68,589	0,100	-0,028
-162,023	236,267	-0,018	-0,022
-161,008	0,760	-0,143	0,074
-159,993	-200,000	-0,003	0,139
-158,979	800,000	-0,039	-0,085
-157,964	75,742	-0,086	-0,066
-156,950	-200,000	0,017	-0,098
-155,935	220,457	-0,083	-0,097
-154,920	99,655	0,038	0,032
-153,906	-200,000	-0,007	0,075
-152,891	-14,394	-0,071	-0,033
-151,877	276,386	-0,078	-0,102
-150,862	29,023	-0,017	-0,010
-149,847	-200,000	0,018	-0,077
-148,833	205,920	-0,101	-0,115
-147,818	-117,704	0,066	-0,009
-146,804	24,697	0,035	-0,021
-145,789	-200,000	0,022	0,097
-144,775	185,784	0,063	0,068
-143,760	200,585	-0,060	-0,068
-142,745	-200,000	-0,001	-0,005
-141,731	-28,053	-0,114	-0,048
-140,716	-88,651	-0,035	-0,007
-139,702	-80,517	-0,112	-0,027
-138,687	199,701	0,055	-0,061
-137,672	654,527	-0,046	0,086
-136,658	75,780	-0,098	-0,075
-135,643	-12,660	-0,072	0,034
-134,629	92,649	-0,096	-0,079
-133,614	-63,933	0,077	-0,023
-132,599	-200,000	-0,001	0,071
-131,585	636,747	0,051	0,094
-130,570	-33,986	0,034	0,014
-129,556	165,971	-0,051	-0,052
-128,541	124,601	0,160	0,146
-127,526	-7,907	0,022	0,011
-126,512	-164,311	0,074	0,002
-125,497	-200,000	0,019	0,114
-124,483	138,051	-0,045	0,043
-123,468	-200,000	0,039	-0,160
-122,453	-59,716	-0,036	-0,011
-121,439	-150,020	0,137	-0,008
-120,424	161,283	0,078	-0,080
-119,410	-109,131	0,157	-0,024
-118,395	-200,000	-0,016	0,059
-117,380	129,309	-0,050	0,047
-116,366	389,939	-0,046	0,069
-115,351	-41,325	-0,031	0,012
-114,337	-100,630	-0,296	-0,053
-113,322	-200,000	-0,021	-0,110
-112,307	446,983	-0,011	-0,018
-111,293	41,733	-0,185	0,122
-110,278	38,890	0,095	0,062
-109,264	-200,000	-0,020	-0,085
-108,249	47,931	0,090	-0,061
-107,234	-105,473	-0,139	0,023
-106,220	12,233	-0,044	0,024
-105,205	-200,000	-0,026	0,111
-104,191	800,000	-0,021	-0,058
-103,176	-99,473	-0,067	-0,012
-102,162	50,209	0,097	0,066
-101,147	17,093	0,157	-0,090
-100,132	231,758	0,058	0,069
-99,118	-22,509	-0,133	-0,058
-98,103	46,447	-0,038	-0,026
-97,089	-200,000	0,011	0,039
-96,074	60,224	-0,114	0,082
-95,059	-200,000	-0,037	0,127
-94,045	-200,000	0,052	0,172
-93,030	95,204	-0,160	0,133
-92,016	225,009	-0,071	-0,084
-91,001	6,112	0,118	-0,063
-89,986	-200,000	-0,021	0,183
-88,972	40,344	-0,037	-0,024
-87,957	-71,689	0,172	0,046
-86,943	-42,109	0,068	-0,025
-85,928	109,033	-0,074	0,065
-84,913	578,684	-0,039	-0,069
-83,899	-200,000	0,001	-0,070
-82,884	163,963	0,050	-0,051
-81,870	206,467	-0,034	0,038
-80,855	-13,767	0,005	-0,003
-79,840	79,965	0,077	-0,060
-78,826	-63,971	0,179	-0,053
-77,811	-151,256	0,030	-0,002
-76,797	-200,000	0,009	-0,050
-75,782	-171,566	0,136	-0,003
-74,767	-31,544	0,061	0,025
-73,753	800,000	0,024	-0,051
-72,738	-51,499	0,136	0,046
-71,724	-21,716	-0,094	0,041
-70,709	76,353	-0,016	0,013
-69,694	-26,788	-0,011	0,005
-68,680	-200,000	0,020	-0,131
-67,665	-200,000	-0,025	0,117
-66,651	-51,047	-0,056	0,019
-65,636	-157,315	-0,104	0,004
-64,622	572,298	0,028	0,050
-63,607	-200,000	0,001	0,090
-62,592	120,006	0,040	-0,036
-61,578	-0,978	-0,048	-0,025
-60,563	-82,211	0,079	-0,018
-59,549	-122,092	0,098	-0,012
-58,534	-118,666	-1,294	-0,164
-57,519	800,000	-0,690	-1,455
-56,505	-200,000	-0,937	-4,461
-55,490	15,387	0,624	-0,355
-54,476	800,000	4,954	11,835
-53,461	-200,000	13,572	253,404
-52,446	-200,000	689,615	2260,436
-51,432	591,800	1622,305	2918,616
-50,417	119,435	1635,037	1468,834
-49,403	73,259	1289,222	977,565
-48,388	38,070	1024,307	659,883
-47,373	24,335	981,978	587,434
-46,359	23,525	971,621	578,560
-45,344	22,652	967,105	572,995
-44,330	22,579	965,792	571,956
-43,315	22,459	964,312	570,665
-42,300	22,420	963,437	569,997
-41,286	22,417	962,497	569,409
-40,271	22,383	961,612	568,754
-39,257	22,389	960,633	568,170
-38,242	22,393	959,542	567,517
-37,227	22,385	958,709	566,976
-36,213	22,339	958,088	566,438
-35,198	22,353	957,128	565,893
-34,184	22,436	956,329	565,664
-33,169	22,334	955,421	564,776
-32,154	22,428	954,536	564,535
-31,140	22,432	953,764	564,069
-30,125	22,454	952,794	563,542
-29,111	22,452	951,947	563,013
-28,096	22,423	951,424	562,589
-27,082	22,414	950,726	562,125
-26,067	22,390	950,015	561,605
-25,052	22,398	949,227	561,143
-24,038	22,459	948,503	560,886
-23,023	22,389	948,059	560,379
-22,009	22,432	947,307	560,049
-20,994	22,412	946,738	559,625
-19,979	22,442	946,209	559,387
-18,965	22,457	945,545	559,019
-17,950	22,390	944,918	558,415
-16,936	22,350	944,265	557,878
-15,921	22,387	943,318	557,415
-14,906	22,312	942,588	556,723
-13,892	22,282	942,078	556,303
-12,877	22,261	941,610	555,939
-11,863	22,256	940,823	555,435
-10,848	22,304	940,183	555,189
-9,833	22,377	939,902	555,233
-8,819	22,401	939,258	554,906
-7,804	22,246	938,746	554,089
-6,790	22,320	937,941	553,827
-5,775	22,418	937,364	553,773
-4,760	22,380	936,786	553,289
-3,746	22,301	936,187	552,664
-2,731	22,179	935,633	551,931
-1,717	22,098	934,744	551,128
-0,702	22,140	934,014	550,811
0,313	21,911	933,484	550,607
1,327	25,117	931,429	559,427
2,342	34,723	796,090	503,726
3,356	32,832	451,550	282,844
4,371	1,825	293,687	153,036
5,386	-2,730	274,674	138,806
6,400	-4,442	268,975	134,325
7,415	-4,855	266,379	132,636
8,429	-4,505	265,141	132,328
9,444	-4,509	264,301	131,893
10,459	-4,378	263,617	131,659
11,473	-4,731	263,047	131,043
12,488	-4,756	262,515	130,744
13,502	-4,879	262,042	130,385
14,517	-4,695	261,605	130,322
15,531	-4,723	261,353	130,160
16,546	-4,627	260,907	130,013
17,561	-4,548	260,510	129,874
18,575	-4,475	260,310	129,828
19,590	-4,757	260,011	129,415
20,604	-4,444	259,639	129,498
21,619	-4,577	259,096	129,097
22,634	-4,579	258,912	128,992
23,648	-4,633	258,585	128,769
24,663	-4,676	258,320	128,588
25,677	-4,709	258,062	128,418
26,692	-4,727	257,844	128,283
27,707	-4,549	257,341	128,178
28,721	-4,815	257,240	127,882
29,736	-4,615	257,044	127,949
30,750	-4,657	256,769	127,764
31,765	-4,748	256,548	127,562
32,780	-4,725	256,359	127,478
33,794	-4,832	256,083	127,234
34,809	-4,653	255,874	127,276
35,823	-4,763	255,650	127,057
36,838	-4,800	255,469	126,923
37,853	-4,799	255,163	126,761
38,867	-4,912	254,828	126,484
39,882	-4,786	254,757	126,548
40,896	-4,915	254,456	126,275
41,911	-5,029	254,415	126,142
42,926	-4,737	253,979	126,171
43,940	-4,813	253,824	126,016
44,955	-4,878	253,606	125,840
45,969	-4,812	253,257	125,713
46,984	-5,114	253,043	125,333
47,999	-5,381	252,883	125,009
49,013	-5,514	252,643	124,764
50,028	-5,503	252,253	124,570
51,042	-5,641	252,072	124,350
52,057	-5,711	251,925	124,206
53,071	-5,550	251,536	124,142
54,086	-5,604	251,527	124,080
55,101	-5,231	251,316	124,287
56,115	-5,214	251,284	124,275
57,130	-4,739	251,122	124,593
58,144	-4,436	251,178	124,872
59,159	-4,303	250,718	124,747
60,174	-4,481	250,516	124,482
61,188	-4,621	250,353	124,269
62,203	-4,687	250,233	124,142
63,217	-4,724	250,008	123,987
64,232	-4,698	249,809	123,900
65,247	-4,737	249,639	123,771
66,261	-4,528	249,204	123,723
67,276	-4,809	249,122	123,431
68,290	-5,090	248,853	123,047
69,305	-5,211	248,526	122,771
70,320	-5,441	248,428	122,515
71,334	-5,009	248,225	122,772
72,349	-4,554	248,133	123,103
73,363	-4,426	247,805	123,038
74,378	-4,540	247,842	122,949
75,393	-4,658	247,558	122,697
76,407	-4,779	247,286	122,449
77,422	-4,745	247,123	122,386
78,436	-4,682	247,021	122,378
79,451	-4,661	246,678	122,215
80,466	-4,947	246,516	121,882
81,480	-4,696	246,202	121,927
82,495	-4,894	246,054	121,676
83,509	-4,771	245,816	121,652
84,524	-5,010	245,761	121,412
85,539	-5,251	245,531	121,085
86,553	-5,200	245,362	121,033
87,568	-5,019	245,228	121,109
88,582	-5,125	245,005	120,898
89,597	-5,196	244,865	120,759
90,611	-4,907	244,645	120,883
91,626	-4,828	244,600	120,916
92,641	-4,713	244,229	120,818
93,655	-4,804	244,134	120,684
94,670	-4,996	243,913	120,403
95,684	-5,019	243,655	120,246
96,699	-4,913	243,561	120,277
97,714	-4,958	243,236	120,069
98,728	-5,080	243,166	119,922
99,743	-4,988	242,934	119,873
100,757	-5,335	242,827	119,521
101,772	-4,926	242,489	119,683
102,787	-4,969	242,342	119,565
103,801	-4,947	242,136	119,470
104,816	-4,861	242,070	119,499
105,830	-4,654	241,921	119,586
106,845	-4,732	241,816	119,459
107,860	-4,728	241,625	119,357
108,874	-4,843	241,423	119,152
109,889	-4,978	241,130	118,885
110,903	-4,902	240,961	118,854
111,918	-4,811	240,719	118,799
112,933	-5,114	240,734	118,546
113,947	-5,132	240,640	118,474
114,962	-4,772	240,359	118,621
115,976	-4,808	240,210	118,508
116,991	-4,769	239,922	118,387
118,006	-4,801	239,807	118,294
119,020	-4,754	239,725	118,281
120,035	-4,643	239,558	118,279
121,049	-4,783	239,591	118,170
122,064	-4,735	239,380	118,095
123,079	-4,913	239,046	117,774
124,093	-4,918	238,796	117,636
125,108	-4,965	238,517	117,450
126,122	-5,186	238,317	117,161
127,137	-5,196	238,129	117,050
128,151	-5,153	238,047	117,034
129,166	-5,037	237,832	117,013
130,181	-5,142	237,679	116,842
131,195	-5,236	237,519	116,677
132,210	-5,001	237,482	116,838
133,224	-4,994	237,288	116,738
134,239	-4,960	237,224	116,724
135,254	-4,668	237,008	116,843
136,268	-5,026	236,644	116,365
137,283	-5,230	236,369	116,054
138,297	-5,460	236,213	115,781
139,312	-5,348	236,025	115,770
140,327	-5,029	236,022	116,015
141,341	-4,397	235,881	116,443
142,356	-4,491	235,796	116,316
143,370	-4,538	235,625	116,183
144,385	-4,612	235,670	116,136
145,400	-4,230	235,352	116,275
146,414	-4,260	235,147	116,139
147,429	-4,356	234,894	115,927
148,443	-4,536	234,840	115,746
149,458	-4,590	234,695	115,621
150,473	-4,399	234,419	115,627
151,487	-4,750	234,250	115,253
152,502	-4,586	234,198	115,349
153,516	-4,388	233,921	115,360
154,531	-4,588	233,856	115,158
155,546	-4,714	233,689	114,964
156,560	-4,615	233,461	114,921
157,575	-4,703	233,155	114,691
158,589	-4,765	233,113	114,611
159,604	-4,464	232,903	114,736
160,619	-4,309	232,791	114,793
161,633	-4,410	232,659	114,638
162,648	-4,452	232,450	114,492
163,662	-4,500	232,498	114,467
164,677	-4,457	232,209	114,348
165,692	-4,587	232,065	114,164
166,706	-4,239	231,858	114,327
167,721	-4,340	231,804	114,210
168,735	-4,184	231,643	114,244
169,750	-4,524	231,542	113,916
170,764	-4,506	231,195	113,750
171,779	-4,292	231,313	113,966
172,794	-4,603	231,117	113,615
173,808	-4,354	230,766	113,628
174,823	-5,017	230,479	112,956
175,837	-4,970	230,292	112,891
176,852	-4,664	230,268	113,109
177,867	-4,624	230,207	113,101
178,881	-4,396	230,011	113,172
179,896	-4,137	229,822	113,271
180,910	-4,488	229,772	112,963
181,925	-4,581	229,621	112,806
182,940	-4,387	229,402	112,840
183,954	-4,421	229,298	112,752
184,969	-4,317	229,179	112,764
185,983	-4,220	229,023	112,753
186,998	-4,337	228,800	112,542
188,013	-4,288	228,722	112,532
189,027	-4,180	228,613	112,552
190,042	-4,260	228,352	112,351
191,056	-4,261	228,162	112,247
192,071	-4,230	228,001	112,182
193,086	-4,326	227,935	112,065
194,100	-4,360	227,786	111,956
195,115	-4,501	227,384	111,639
196,129	-5,111	227,077	111,008
197,144	-2,040	228,323	113,987
198,159	1,907	229,338	117,548
199,173	3,926	229,823	119,354
200,188	4,430	229,571	119,604
201,202	4,372	229,596	119,561
202,217	4,688	229,393	119,689
203,232	4,800	229,490	119,816
204,246	4,903	229,318	119,795
205,261	4,757	229,139	119,578
206,275	5,017	228,907	119,647
207,290	5,150	228,890	119,730
208,304	5,068	228,743	119,579
209,319	4,854	228,458	119,255
210,334	4,844	228,415	119,214
211,348	4,551	228,062	118,794
212,363	4,300	227,789	118,448
213,377	3,926	227,702	118,105
214,392	3,901	227,448	117,944
215,407	4,182	227,403	118,126
216,421	4,156	227,297	118,040
217,436	4,320	227,021	118,012
218,450	4,121	226,774	117,721
219,465	3,774	226,686	117,399
220,480	3,996	226,466	117,445
221,494	3,879	226,372	117,296
222,509	4,067	226,285	117,384
223,523	3,906	226,187	117,200
224,538	4,257	225,905	117,310
225,553	4,204	225,654	117,129
226,567	4,429	225,611	117,267
227,582	4,238	225,701	117,158
228,596	4,481	225,688	117,325
229,611	4,206	225,294	116,902
230,626	4,031	225,052	116,633
231,640	3,852	224,858	116,386
232,655	4,228	224,957	116,712
233,669	4,739	224,804	117,010
234,684	4,582	224,713	116,833
235,699	4,549	224,555	116,715
236,713	4,344	224,280	116,407
237,728	3,940	224,075	115,986
238,742	4,047	223,929	115,980
239,757	3,984	223,779	115,845
240,772	4,090	223,608	115,826
241,786	4,120	223,485	115,775
242,801	3,976	223,629	115,730
243,815	4,441	223,346	115,923
244,830	4,455	223,268	115,882
245,844	4,290	223,066	115,644
246,859	4,119	222,912	115,425
247,874	4,299	222,791	115,487
248,888	4,449	222,585	115,482
249,903	4,295	222,325	115,222
250,917	4,044	222,360	115,042
251,932	3,906	222,077	114,783
252,947	4,092	221,890	114,815
253,961	4,019	221,749	114,677
254,976	4,007	221,570	114,565
255,990	4,388	221,633	114,872
257,005	4,287	221,441	114,687
258,020	4,323	221,363	114,662
259,034	4,413	221,174	114,621
260,049	4,406	221,120	114,578
261,063	4,461	220,785	114,435
262,078	4,509	220,821	114,479
263,093	4,552	220,630	114,401
264,107	4,527	220,443	114,276
265,122	4,419	220,317	114,120
266,136	4,622	220,180	114,189
267,151	4,585	219,959	114,037
268,166	3,968	219,858	113,519
269,180	3,682	219,551	113,139
270,195	4,112	219,376	113,357
271,209	4,247	219,252	113,381
272,224	4,070	219,211	113,220
273,239	4,009	219,164	113,141
274,253	3,863	218,787	112,829
275,268	3,794	218,746	112,747
276,282	3,824	218,521	112,643
277,297	3,892	218,522	112,683
278,312	3,915	218,387	112,621
279,326	4,058	218,205	112,621
280,341	3,990	218,167	112,541
281,355	4,244	217,962	112,612
282,370	4,208	217,633	112,406
283,384	3,950	217,674	112,229
284,399	3,593	217,499	111,868
285,414	3,913	217,235	111,955
286,428	4,105	217,384	112,161
287,443	4,295	217,259	112,226
288,457	4,472	216,967	112,193
289,472	4,167	216,830	111,891
290,487	3,931	216,573	111,577
291,501	3,638	216,325	111,227
292,516	3,857	216,362	111,395
293,530	3,790	216,209	111,258
294,545	3,620	216,273	111,158
295,560	4,044	216,018	111,323
296,574	4,047	215,919	111,264
297,589	3,960	215,832	111,146
298,603	4,126	215,622	111,149
299,618	3,990	215,525	110,990
300,633	3,895	215,452	110,874
301,647	4,188	215,245	110,969
302,662	4,188	215,207	110,940
303,676	4,401	214,969	110,960
304,691	4,098	214,858	110,675
305,706	4,378	214,771	110,822
306,720	4,306	214,630	110,688
307,735	4,204	214,435	110,504
308,749	3,973	214,275	110,246
309,764	4,487	214,163	110,546
310,779	4,475	213,947	110,417
311,793	4,210	213,884	110,185
312,808	4,347	213,704	110,180
313,822	4,154	213,562	109,959
314,837	4,310	213,395	109,975
315,852	3,906	213,137	109,544
316,866	4,040	213,129	109,626
317,881	4,392	213,014	109,808
318,895	4,556	212,955	109,884
319,910	4,178	212,670	109,458
320,925	3,810	212,588	109,145
321,939	3,582	212,359	108,856
322,954	3,881	212,286	109,021
323,968	3,911	212,340	109,060
324,983	4,211	212,047	109,112
325,997	4,228	212,001	109,091
327,012	4,266	211,679	108,943
328,027	4,180	211,712	108,889
329,041	4,384	211,744	109,040
330,056	4,687	211,577	109,159
331,070	4,354	211,269	108,754
332,085	3,822	211,117	108,292
333,100	3,970	210,883	108,266
334,114	4,111	210,783	108,305
335,129	4,206	210,741	108,340
336,143	4,114	210,449	108,116
337,158	3,857	210,529	107,967
338,173	4,053	210,334	107,995
339,187	3,969	210,168	107,841
340,202	3,849	209,984	107,653
341,216	3,855	209,751	107,528
342,231	4,077	209,673	107,634
343,246	4,138	209,546	107,602
344,260	3,929	209,534	107,440
345,275	4,038	209,501	107,489
346,289	4,132	209,282	107,433
347,304	4,362	209,129	107,505
348,319	4,233	208,990	107,334
349,333	4,127	208,748	107,127
350,348	3,978	208,760	107,020
351,362	4,235	208,563	107,088
352,377	4,241	208,493	107,047
353,392	4,118	208,297	106,851
354,406	4,263	208,134	106,859
355,421	194,401	1345,601	1435,989
356,435	155,123	1484,294	1436,118
