DTS Sentinel unit serial number:	SN410029Multiplexer serial number:	ORYXHardware model number:	OX2-SRSoftware version number:	ORYX F/W v4,00 Oryx Data Collector v3.7.2.0data status	okinstallation	B6 Nyhavnadifferential loss correction	single-endedforward channel	channel 2reverse channel	N/Adate	2023/12/10time	22:40:08forward acquisition time	300,00reverse acquisition time	0,00gamma	499,1914k internal	0,3123k external	0,3123temperature offset calibration	1,0000default loss term (dB/km)	0,3820temperature slope calibration	1,0000multiplexer offset coefficient	1,0000multiplexer slope coefficient	1,0000fibre end	0,00T internal ref (°C)	22,37T ext. ref 1 (°C)	6,17T ext. ref 2 (°C)	6,18length (m)	temperature (°C)	Stokes	anti-Stokes-744,400	-200,000	-0,010	0,066
-743,385	118,355	-0,109	0,100
-742,371	-200,000	0,025	-0,169
-741,356	229,029	-0,142	0,173
-740,342	-1,832	0,108	-0,057
-739,327	-104,477	-0,206	0,035
-738,312	-36,913	-0,089	0,035
-737,298	-43,546	-0,213	0,080
-736,283	800,000	-0,051	-0,116
-735,269	-48,536	-0,212	0,075
-734,254	800,000	0,019	0,050
-733,239	-152,034	-0,375	-0,020
-732,225	-73,897	0,104	-0,028
-731,210	-142,081	-0,125	-0,009
-730,196	292,815	0,049	0,067
-729,181	-200,000	0,007	-0,055
-728,167	93,170	0,070	0,059
-727,152	-200,000	-0,001	-0,062
-726,137	-54,032	-0,064	0,022
-725,123	299,914	0,028	0,038
-724,108	-8,676	-0,108	-0,054
-723,094	-200,000	0,019	-0,118
-722,079	-200,000	0,002	0,026
-721,064	115,672	-0,027	-0,025
-720,050	-46,980	0,099	-0,036
-719,035	95,471	-0,085	-0,072
-718,021	800,000	-0,035	0,082
-717,006	415,129	0,034	-0,053
-715,991	13,950	-0,107	-0,062
-714,977	289,403	-0,033	-0,045
-713,962	-45,197	-0,092	0,034
-712,948	116,004	0,102	0,093
-711,933	-200,000	-0,006	-0,040
-710,918	-70,214	-0,088	0,025
-709,904	-2,353	-0,041	-0,021
-708,889	292,741	0,091	0,124
-707,875	451,235	0,019	-0,032
-706,860	-3,666	0,024	0,012
-705,845	387,116	-0,080	-0,123
-704,831	91,584	0,040	-0,033
-703,816	150,302	-0,027	0,027
-702,802	45,028	0,105	0,072
-701,787	99,035	0,124	-0,107
-700,772	800,000	-0,056	-0,153
-699,758	756,394	-0,051	-0,103
-698,743	-200,000	0,036	-0,161
-697,729	-200,000	0,006	0,059
-696,714	-164,379	-0,092	-0,003
-695,699	800,000	-0,043	0,099
-694,685	-112,465	-0,091	-0,013
-693,670	-105,991	-0,096	-0,016
-692,656	-139,021	-0,085	0,007
-691,641	-200,000	0,018	0,089
-690,627	-78,545	-0,103	0,026
-689,612	179,230	-0,093	-0,101
-688,597	-56,932	-0,066	0,021
-687,583	-66,216	-0,047	-0,014
-686,568	200,324	-0,096	-0,109
-685,554	-160,261	-0,119	-0,005
-684,539	19,693	-0,008	-0,005
-683,524	-142,661	0,047	0,003
-682,510	94,248	-0,192	0,162
-681,495	412,505	0,035	0,055
-680,481	-130,686	-0,095	0,009
-679,466	761,521	-0,089	-0,180
-678,451	800,000	-0,028	-0,069
-677,437	-119,370	-0,080	-0,010
-676,422	21,400	0,060	-0,036
-675,408	-200,000	0,011	0,073
-674,393	2,089	-0,072	0,038
-673,378	800,000	-0,062	-0,151
-672,364	-200,000	-0,013	-0,056
-671,349	34,560	-0,147	-0,096
-670,335	800,000	-0,023	-0,065
-669,320	772,873	-0,018	0,036
-668,305	-56,861	0,008	-0,003
-667,291	122,077	-0,086	-0,080
-666,276	-200,000	-0,007	-0,071
-665,262	-84,347	-0,099	-0,023
-664,247	-37,361	-0,112	0,044
-663,232	-157,334	0,168	0,007
-662,218	800,000	-0,018	0,047
-661,203	-200,000	0,041	-0,138
-660,189	800,000	-0,038	0,099
-659,174	35,386	-0,119	-0,077
-658,159	100,558	-0,116	-0,100
-657,145	42,726	-0,077	0,052
-656,130	-80,537	0,089	-0,022
-655,116	-24,710	-0,042	-0,018
-654,101	-18,345	0,097	0,045
-653,086	-200,000	-0,020	0,070
-652,072	-56,029	-0,073	0,024
-651,057	193,689	0,057	-0,064
-650,043	386,139	-0,069	-0,106
-649,028	-117,848	-0,081	-0,011
-648,014	94,194	0,086	0,073
-646,999	39,324	0,111	-0,073
-645,984	452,266	-0,009	-0,015
-644,970	-111,621	-0,079	-0,012
-643,955	30,831	-0,073	0,047
-642,941	-200,000	0,035	0,117
-641,926	365,073	-0,085	0,128
-640,911	85,186	0,048	0,039
-639,897	-200,000	-0,029	0,095
-638,882	131,662	-0,068	-0,065
-637,868	684,598	0,033	0,064
-636,853	-52,743	0,056	0,019
-635,838	30,690	-0,073	0,046
-634,824	426,714	-0,065	-0,104
-633,809	-71,590	-0,058	-0,016
-632,795	-36,296	-0,087	-0,035
-631,780	-200,000	0,027	0,177
-630,765	-167,241	0,075	-0,002
-629,751	514,727	-0,094	-0,163
-628,736	-57,173	-0,158	-0,051
-627,722	-85,687	0,080	-0,018
-626,707	800,000	-0,038	0,103
-625,692	-140,390	0,075	0,006
-624,678	338,846	-0,033	-0,048
-623,663	-29,427	-0,020	0,009
-622,649	-200,000	0,014	-0,119
-621,634	82,816	-0,094	0,076
-620,619	623,800	-0,041	-0,078
-619,605	800,000	-0,021	-0,068
-618,590	-200,000	0,007	-0,037
-617,576	17,079	-0,042	0,025
-616,561	-200,000	-0,010	-0,037
-615,546	-2,158	0,079	0,041
-614,532	-200,000	-0,005	-0,173
-613,517	47,757	-0,026	0,018
-612,503	424,610	-0,088	-0,141
-611,488	-152,776	-0,045	0,002
-610,474	-158,364	-0,078	-0,003
-609,459	-200,000	-0,007	0,057
-608,444	383,951	-0,046	-0,070
-607,430	460,143	-0,055	0,091
-606,415	-200,000	0,006	0,088
-605,401	-36,884	-0,045	0,018
-604,386	580,027	0,016	0,029
-603,371	-121,517	0,127	0,016
-602,357	-60,527	0,133	-0,042
-601,342	800,000	0,043	0,133
-600,328	438,301	-0,122	-0,197
-599,313	145,722	-0,059	-0,059
-598,298	-40,461	-0,062	-0,024
-597,284	626,761	0,034	0,064
-596,269	-200,000	0,022	0,119
-595,255	800,000	-0,048	0,102
-594,240	-98,569	0,075	0,014
-593,225	-200,000	0,011	-0,105
-592,211	-200,000	-0,012	-0,126
-591,196	-200,000	-0,003	0,045
-590,182	-104,264	0,104	-0,018
-589,167	-18,903	0,107	-0,049
-588,152	-82,584	-0,108	-0,026
-587,138	286,398	-0,096	0,129
-586,123	503,702	-0,056	-0,096
-585,109	279,605	0,053	-0,071
-584,094	51,082	-0,092	0,064
-583,079	4,236	0,092	0,050
-582,065	-200,000	-0,015	0,256
-581,050	-160,962	0,118	0,005
-580,036	800,000	-0,035	0,081
-579,021	800,000	-0,030	-0,063
-578,006	795,921	0,081	-0,167
-576,992	-79,875	-0,171	-0,042
-575,977	800,000	0,021	-0,048
-574,963	-200,000	-0,025	-0,159
-573,948	164,808	-0,065	0,068
-572,934	-156,085	0,105	0,005
-571,919	11,354	-0,085	-0,048
-570,904	492,330	-0,026	-0,044
-569,890	-200,000	-0,034	-0,141
-568,875	-200,000	0,038	0,146
-567,861	800,000	0,032	0,067
-566,846	-41,981	0,068	-0,026
-565,831	46,444	-0,123	0,085
-564,817	-36,785	-0,033	0,013
-563,802	-93,582	-0,066	0,013
-562,788	800,000	-0,020	-0,058
-561,773	-200,000	-0,007	-0,050
-560,758	193,110	0,142	-0,160
-559,744	203,686	0,026	-0,030
-558,729	-200,000	0,005	-0,041
-557,715	800,000	0,022	0,063
-556,700	216,030	-0,039	0,046
-555,685	47,549	-0,052	-0,036
-554,671	-200,000	-0,001	-0,163
-553,656	-117,616	0,105	-0,014
-552,642	48,282	0,105	0,073
-551,627	616,594	-0,049	0,092
-550,612	-200,000	-0,010	-0,049
-549,598	-200,000	-0,005	-0,026
-548,583	-61,187	-0,096	0,030
-547,569	800,000	0,043	0,121
-546,554	231,664	0,092	-0,112
-545,539	249,133	0,106	-0,134
-544,525	-63,652	0,014	-0,004
-543,510	127,786	0,041	0,039
-542,496	319,534	0,057	0,081
-541,481	-200,000	-0,187	0,000
-540,466	261,234	0,061	-0,078
-539,452	246,287	0,052	0,065
-538,437	-13,790	0,042	0,020
-537,423	44,300	-0,040	-0,027
-536,408	-111,242	-0,190	0,028
-535,393	800,000	-0,013	0,038
-534,379	-200,000	-0,001	-0,095
-533,364	-54,395	-0,090	-0,030
-532,350	-200,000	-0,011	0,042
-531,335	152,242	0,091	0,092
-530,321	201,678	0,055	0,062
-529,306	785,432	0,020	0,041
-528,291	264,469	-0,087	-0,112
-527,277	317,066	-0,056	-0,078
-526,262	-31,941	-0,078	-0,032
-525,248	-7,866	-0,127	-0,063
-524,233	565,848	0,029	0,052
-523,218	-179,743	0,163	0,003
-522,204	62,301	0,154	0,113
-521,189	800,000	0,013	0,038
-520,175	496,519	0,073	-0,124
-519,160	-157,262	-0,168	-0,007
-518,145	85,380	0,039	-0,032
-517,131	-105,560	-0,049	0,008
-516,116	-135,478	-0,082	-0,007
-515,102	-25,832	-0,038	0,016
-514,087	128,968	-0,022	0,021
-513,072	-200,000	-0,002	-0,103
-512,058	800,000	0,095	-0,201
-511,043	800,000	-0,067	0,170
-510,029	305,457	0,073	0,100
-509,014	277,888	-0,039	-0,051
-507,999	160,818	0,089	-0,092
-506,985	-88,960	-0,159	-0,035
-505,970	-86,086	0,052	0,012
-504,956	-39,431	-0,078	0,030
-503,941	-200,000	0,012	0,043
-502,926	800,000	-0,049	0,131
-501,912	339,899	0,084	0,121
-500,897	800,000	0,029	-0,087
-499,883	421,626	-0,023	0,036
-498,868	-44,986	-0,024	-0,009
-497,853	-177,874	-0,127	-0,002
-496,839	800,000	-0,017	0,036
-495,824	800,000	0,046	0,095
-494,810	-125,540	0,130	-0,014
-493,795	800,000	0,036	0,088
-492,781	534,905	0,035	0,062
-491,766	800,000	-0,022	-0,049
-490,751	-100,811	0,110	-0,020
-489,737	119,437	0,053	-0,048
-488,722	-72,246	-0,084	-0,023
-487,708	-29,653	0,128	-0,054
-486,693	800,000	-0,016	0,038
-485,678	209,176	-0,048	-0,055
-484,664	449,874	0,013	-0,021
-483,649	245,173	0,092	-0,115
-482,635	-13,140	-0,099	-0,047
-481,620	88,884	0,073	-0,060
-480,605	800,000	0,030	0,086
-479,591	-121,622	-0,062	0,008
-478,576	403,268	-0,032	0,049
-477,562	-112,293	-0,076	-0,011
-476,547	-49,575	-0,119	0,041
-475,532	-200,000	0,001	-0,012
-474,518	4,517	-0,107	0,057
-473,503	19,128	0,042	-0,025
-472,489	-131,132	-0,074	-0,007
-471,474	260,609	0,097	0,125
-470,459	-200,000	0,005	-0,032
-469,445	-0,039	-0,096	-0,050
-468,430	-81,162	0,223	-0,054
-467,416	-200,000	0,006	0,098
-466,401	-200,000	-0,029	-0,159
-465,386	-200,000	0,010	-0,050
-464,372	145,287	-0,063	-0,062
-463,357	759,732	0,019	-0,038
-462,343	800,000	-0,021	-0,066
-461,328	580,259	0,031	0,057
-460,313	-113,387	0,183	0,026
-459,299	538,374	-0,060	0,106
-458,284	-124,654	-0,050	0,006
-457,270	-200,000	0,020	0,106
-456,255	-128,284	-0,054	-0,006
-455,241	-200,000	-0,027	-0,181
-454,226	-200,000	-0,002	-0,074
-453,211	-165,574	0,061	0,002
-452,197	-200,000	0,011	-0,089
-451,182	24,434	0,068	-0,041
-450,168	83,880	-0,100	0,081
-449,153	-57,018	0,072	0,023
-448,138	35,010	-0,197	-0,127
-447,124	-200,000	-0,057	-0,205
-446,109	-12,293	0,057	-0,028
-445,095	212,609	0,017	-0,020
-444,080	-24,362	0,114	-0,050
-443,065	276,679	0,055	-0,072
-442,051	-200,000	-0,005	0,039
-441,036	-168,118	0,086	-0,002
-440,022	-4,193	-0,092	-0,047
-439,007	-200,000	-0,007	0,027
-437,992	164,139	0,057	-0,059
-436,978	-124,983	-0,050	0,006
-435,963	247,872	-0,032	0,040
-434,949	263,306	0,038	-0,049
-433,934	-73,735	0,064	-0,017
-432,919	363,387	0,049	0,073
-431,905	-22,866	-0,086	0,038
-430,890	-95,936	-0,027	-0,005
-429,876	191,034	-0,061	0,068
-428,861	-72,699	0,051	-0,014
-427,846	-126,648	-0,087	0,009
-426,832	-23,147	0,092	-0,041
-425,817	114,753	-0,081	0,072
-424,803	339,177	0,076	-0,109
-423,788	-200,000	0,037	-0,127
-422,773	-104,164	-0,048	0,008
-421,759	-60,472	0,106	0,033
-420,744	-200,000	-0,015	-0,075
-419,730	-200,000	-0,012	-0,144
-418,715	800,000	-0,028	-0,085
-417,701	-99,034	-0,034	-0,006
-416,686	190,804	-0,051	0,057
-415,671	370,280	0,108	0,162
-414,657	232,533	0,090	0,109
-413,642	-109,973	-0,168	-0,026
-412,628	10,970	0,048	0,027
-411,613	73,450	-0,126	0,097
-410,598	800,000	-0,013	0,028
-409,584	60,047	0,015	-0,011
-408,569	730,702	-0,033	0,066
-407,555	140,894	0,059	0,058
-406,540	-50,562	-0,101	-0,035
-405,525	-200,000	-0,012	-0,055
-404,511	187,615	-0,025	0,028
-403,496	-200,000	0,012	-0,072
-402,482	800,000	-0,029	-0,086
-401,467	-200,000	0,007	0,032
-400,452	-200,000	-0,003	0,122
-399,438	45,954	0,069	0,047
-398,423	-87,656	-0,131	0,029
-397,409	214,415	0,064	0,075
-396,394	-58,053	0,069	-0,022
-395,379	36,134	0,093	-0,060
-394,365	136,636	-0,050	-0,048
-393,350	-200,000	-0,009	0,081
-392,336	-114,386	0,020	0,003
-391,321	-200,000	-0,016	0,205
-390,306	12,733	-0,082	-0,047
-389,292	800,000	0,032	-0,077
-388,277	-16,460	-0,061	0,028
-387,263	-43,390	0,175	0,065
-386,248	-123,158	-0,044	-0,005
-385,233	20,106	-0,140	0,083
-384,219	800,000	0,050	0,120
-383,204	800,000	0,038	-0,097
-382,190	800,000	-0,045	-0,103
-381,175	8,938	-0,168	0,093
-380,160	-200,000	0,021	0,084
-379,146	636,860	0,042	0,078
-378,131	-200,000	0,023	0,151
-377,117	-138,365	0,153	-0,012
-376,102	-200,000	-0,007	0,048
-375,088	-8,479	-0,094	0,046
-374,073	800,000	0,048	-0,113
-373,058	-200,000	0,002	-0,074
-372,044	207,897	-0,096	0,110
-371,029	-14,633	0,181	-0,085
-370,015	77,102	-0,080	0,062
-369,000	-82,092	-0,030	-0,007
-367,985	150,270	-0,061	-0,061
-366,971	-200,000	0,031	0,192
-365,956	-200,000	0,025	0,084
-364,942	400,825	0,029	0,045
-363,927	109,736	-0,141	0,124
-362,912	-2,372	0,076	0,039
-361,898	800,000	-0,057	-0,125
-360,883	161,805	-0,095	-0,098
-359,869	-200,000	0,009	-0,082
-358,854	-200,000	0,008	-0,087
-357,839	-200,000	-0,030	-0,110
-356,825	-200,000	0,017	0,056
-355,810	685,806	0,022	0,043
-354,796	-26,524	0,076	-0,033
-353,781	183,767	0,043	-0,047
-352,766	-200,000	-0,003	-0,073
-351,752	8,435	-0,029	0,016
-350,737	-126,005	0,173	-0,019
-349,723	-13,655	0,136	-0,064
-348,708	-83,680	0,029	0,007
-347,693	800,000	0,046	0,135
-346,679	279,930	-0,067	-0,088
-345,664	-200,000	-0,028	-0,122
-344,650	201,479	-0,036	-0,041
-343,635	-200,000	0,010	-0,034
-342,620	-61,732	-0,072	0,022
-341,606	800,000	-0,021	-0,068
-340,591	204,216	-0,051	0,058
-339,577	-60,842	-0,053	-0,016
-338,562	636,351	-0,039	0,072
-337,548	-200,000	0,020	0,076
-336,533	-34,755	0,159	0,064
-335,518	-124,462	0,052	-0,006
-334,504	-200,000	-0,031	-0,149
-333,489	110,639	0,025	0,022
-332,475	800,000	-0,021	-0,060
-331,460	-17,775	-0,087	-0,040
-330,445	-99,216	-0,110	-0,020
-329,431	800,000	0,041	0,086
-328,416	-139,737	0,020	-0,002
-327,402	-61,945	-0,033	-0,010
-326,387	-103,787	-0,050	0,008
-325,372	-42,331	-0,172	0,064
-324,358	-107,100	-0,071	-0,011
-323,343	58,144	-0,062	-0,045
-322,329	174,291	0,037	0,040
-321,314	59,701	0,079	-0,057
-320,299	609,570	-0,006	0,011
-319,285	452,349	0,037	-0,060
-318,270	9,236	0,129	-0,071
-317,256	800,000	-0,029	-0,066
-316,241	196,442	0,095	0,106
-315,226	285,399	-0,086	0,113
-314,212	-116,913	-0,142	0,019
-313,197	46,955	0,042	-0,028
-312,183	-58,103	0,080	-0,025
-311,168	18,421	-0,053	-0,031
-310,153	-200,000	0,011	0,041
-309,139	57,230	-0,028	0,020
-308,124	-136,250	0,035	0,003
-307,110	164,620	-0,040	-0,041
-306,095	-200,000	0,000	0,007
-305,080	-101,360	-0,079	0,014
-304,066	389,509	0,062	0,095
-303,051	-184,696	-0,069	-0,001
-302,037	-200,000	0,028	-0,147
-301,022	169,646	0,057	0,060
-300,008	179,701	0,137	0,147
-298,993	-200,000	-0,008	0,082
-297,978	732,147	0,073	0,144
-296,964	-21,839	0,055	-0,024
-295,949	-6,936	0,084	-0,042
-294,935	-200,000	0,010	-0,109
-293,920	-17,432	0,035	0,016
-292,905	800,000	-0,028	-0,067
-291,891	-47,059	0,125	0,044
-290,876	-132,118	-0,079	0,007
-289,862	180,815	0,056	0,061
-288,847	653,017	0,033	0,061
-287,832	385,027	0,070	0,106
-286,818	29,609	0,036	-0,022
-285,803	800,000	0,056	-0,126
-284,789	39,876	-0,066	0,043
-283,774	-0,775	-0,129	0,067
-282,759	-76,347	0,123	-0,032
-281,745	634,352	-0,036	-0,067
-280,730	466,358	0,042	0,069
-279,716	-200,000	0,010	0,042
-278,701	28,796	0,043	-0,026
-277,686	44,709	0,044	0,030
-276,672	0,733	0,063	-0,033
-275,657	800,000	0,017	-0,041
-274,643	-95,442	0,038	0,007
-273,628	-200,000	-0,004	-0,213
-272,613	-10,656	0,084	0,040
-271,599	448,379	0,094	0,152
-270,584	-39,439	-0,113	0,043
-269,570	-200,000	0,030	0,128
-268,555	-14,508	-0,031	-0,015
-267,540	-200,000	0,021	0,089
-266,526	-91,221	-0,102	0,021
-265,511	-200,000	0,001	0,110
-264,497	-142,971	0,038	-0,003
-263,482	62,898	0,094	0,069
-262,467	32,457	-0,123	-0,078
-261,453	-200,000	0,007	0,060
-260,438	-200,000	-0,010	0,033
-259,424	-3,488	-0,031	0,016
-258,409	-200,000	0,002	0,006
-257,395	132,398	0,104	-0,098
-256,380	47,741	0,089	0,061
-255,365	800,000	0,068	0,187
-254,351	69,201	0,102	0,077
-253,336	70,648	-0,054	-0,041
-252,322	-200,000	-0,008	-0,145
-251,307	800,000	-0,015	-0,040
-250,292	-128,041	-0,137	-0,014
-249,278	-21,072	0,036	-0,016
-248,263	-90,593	0,154	0,032
-247,249	-200,000	-0,006	0,025
-246,234	-62,730	-0,100	0,030
-245,219	92,583	0,076	-0,063
-244,205	56,002	-0,057	-0,040
-243,190	299,401	0,033	0,045
-242,176	19,639	0,044	0,026
-241,161	-200,000	-0,010	-0,073
-240,146	-92,854	0,096	-0,019
-239,132	-200,000	0,009	-0,058
-238,117	-141,534	-0,113	-0,008
-237,103	170,674	0,093	0,097
-236,088	-200,000	0,019	-0,122
-235,073	-125,550	0,176	-0,019
-234,059	-200,000	-0,017	0,108
-233,044	214,487	-0,048	-0,056
-232,030	-200,000	-0,022	0,077
-231,015	174,752	0,050	-0,053
-230,000	-44,895	0,043	0,016
-228,986	-132,313	-0,096	-0,009
-227,971	-200,000	-0,015	0,068
-226,957	800,000	-0,061	0,124
-225,942	-131,242	0,066	-0,006
-224,927	2,269	0,036	0,019
-223,913	-24,141	-0,016	0,007
-222,898	-133,546	-0,090	0,008
-221,884	-200,000	0,017	-0,059
-220,869	-147,230	0,078	0,005
-219,855	291,774	-0,013	0,017
-218,840	-93,607	0,035	0,007
-217,825	340,945	-0,075	0,107
-216,811	800,000	-0,019	-0,052
-215,796	-49,375	-0,204	-0,071
-214,782	78,914	-0,073	-0,057
-213,767	3,584	0,106	0,056
-212,752	13,656	0,066	0,038
-211,738	318,352	-0,048	-0,067
-210,723	-2,439	-0,121	-0,062
-209,709	-96,774	-0,117	-0,022
-208,694	800,000	0,053	-0,156
-207,679	39,809	0,097	0,063
-206,665	80,456	0,071	-0,056
-205,650	-143,842	-0,081	0,005
-204,636	210,924	0,081	0,093
-203,621	800,000	0,042	-0,125
-202,606	529,472	0,014	-0,024
-201,592	-200,000	0,016	-0,055
-200,577	-123,615	-0,110	-0,013
-199,563	62,286	0,029	-0,021
-198,548	-89,769	0,020	0,004
-197,533	-98,525	0,085	-0,016
-196,519	297,951	0,027	-0,037
-195,504	261,512	-0,073	0,092
-194,490	-200,000	0,004	0,070
-193,475	-200,000	-0,012	0,100
-192,460	664,306	0,023	0,044
-191,446	800,000	0,069	0,181
-190,431	609,772	0,049	0,090
-189,417	189,020	-0,014	-0,015
-188,402	2,957	-0,006	-0,003
-187,387	159,892	0,100	-0,102
-186,373	91,278	-0,013	-0,010
-185,358	22,438	0,029	-0,017
-184,344	100,759	0,110	-0,093
-183,329	-55,975	-0,020	0,006
-182,315	224,476	0,021	0,025
-181,300	-184,362	-0,164	0,002
-180,285	246,227	-0,110	-0,136
-179,271	88,174	-0,092	-0,074
-178,256	-121,743	-0,032	0,004
-177,242	800,000	-0,037	-0,109
-176,227	248,557	0,090	0,112
-175,212	-200,000	-0,015	0,125
-174,198	634,338	0,048	0,089
-173,183	22,753	-0,109	0,065
-172,169	-69,934	-0,099	0,027
-171,154	-200,000	-0,009	-0,075
-170,139	205,969	0,045	0,051
-169,125	-95,213	0,146	0,028
-168,110	281,283	-0,098	0,128
-167,096	163,819	-0,129	0,133
-166,081	181,325	0,088	-0,094
-165,066	718,921	0,042	0,082
-164,052	-135,525	-0,136	-0,012
-163,037	-60,945	0,128	-0,039
-162,023	-200,000	-0,008	0,079
-161,008	447,465	-0,029	0,047
-159,993	5,992	0,099	-0,053
-158,979	800,000	0,062	-0,134
-157,964	-8,179	-0,101	-0,050
-156,950	-200,000	0,023	-0,160
-155,935	-117,642	0,042	-0,005
-154,920	800,000	0,030	-0,094
-153,906	46,340	0,099	-0,067
-152,891	800,000	-0,006	-0,017
-151,877	-200,000	-0,010	-0,041
-150,862	-200,000	-0,016	0,103
-149,847	-88,432	-0,077	-0,017
-148,833	76,429	0,084	0,065
-147,818	-200,000	-0,006	-0,164
-146,804	-200,000	0,009	0,072
-145,789	800,000	-0,053	0,136
-144,775	-29,929	-0,109	0,045
-143,760	-27,062	-0,056	-0,024
-142,745	-200,000	0,003	-0,173
-141,731	-200,000	-0,024	-0,124
-140,716	-200,000	-0,014	-0,058
-139,702	-200,000	0,023	0,139
-138,687	800,000	-0,016	0,045
-137,672	-200,000	0,036	0,136
-136,658	212,205	-0,069	0,080
-135,643	800,000	-0,043	-0,115
-134,629	85,561	0,102	-0,082
-133,614	-200,000	0,010	-0,120
-132,599	10,949	0,090	-0,050
-131,585	-59,699	0,114	0,035
-130,570	-164,684	-0,192	-0,006
-129,556	-136,402	0,067	-0,006
-128,541	-19,710	-0,033	-0,015
-127,526	-170,379	-0,115	-0,003
-126,512	-200,000	0,016	-0,075
-125,497	800,000	0,019	0,050
-124,483	-78,470	0,206	-0,051
-123,468	430,135	0,019	-0,030
-122,453	-200,000	0,002	-0,113
-121,439	332,962	-0,047	-0,067
-120,424	800,000	-0,029	-0,063
-119,410	-200,000	0,023	-0,132
-118,395	-200,000	0,035	0,150
-117,380	69,232	-0,064	-0,048
-116,366	800,000	0,026	-0,053
-115,351	-72,276	-0,213	0,057
-114,337	-87,942	-0,101	-0,022
-113,322	-200,000	-0,008	-0,141
-112,307	291,744	0,093	0,123
-111,293	-114,746	0,139	0,019
-110,278	182,841	-0,132	0,142
-109,264	7,380	0,059	-0,032
-108,249	214,037	0,057	0,066
-107,234	127,120	0,078	-0,072
-106,220	238,292	-0,064	0,077
-105,205	94,167	-0,038	0,031
-104,191	-166,362	-0,091	-0,003
-103,176	413,169	0,031	0,047
-102,162	-200,000	-0,014	0,094
-101,147	-156,686	-0,082	0,004
-100,132	-160,385	-0,091	-0,003
-99,118	115,713	-0,065	0,057
-98,103	775,638	-0,064	0,127
-97,089	-182,061	-0,028	0,000
-96,074	-12,504	0,057	-0,027
-95,059	-46,499	-0,052	0,018
-94,045	800,000	0,039	0,088
-93,030	19,523	-0,087	-0,051
-92,016	800,000	-0,056	-0,118
-91,001	-53,081	-0,123	0,041
-89,986	232,913	0,078	0,093
-88,972	206,497	0,121	0,137
-87,957	385,944	0,040	-0,060
-86,943	-33,105	0,067	-0,027
-85,928	16,715	-0,119	-0,068
-84,913	-55,069	-0,182	-0,059
-83,899	-89,538	0,183	-0,039
-82,884	-32,548	-0,142	0,057
-81,870	-179,129	0,145	-0,002
-80,855	-58,941	0,103	0,032
-79,840	-87,015	0,216	-0,047
-78,826	-111,137	-0,093	0,014
-77,811	800,000	-0,072	-0,172
-76,797	660,352	0,058	0,109
-75,782	116,266	-0,094	-0,084
-74,767	-120,834	0,050	-0,006
-73,753	99,574	0,028	-0,023
-72,738	-159,017	-0,081	0,003
-71,724	-121,390	-0,109	0,013
-70,709	187,427	-0,015	-0,016
-69,694	624,555	0,034	-0,062
-68,680	141,184	0,085	-0,082
-67,665	-57,298	-0,080	0,025
-66,651	-41,644	0,025	0,009
-65,636	800,000	-0,019	0,042
-64,622	31,163	-0,100	-0,062
-63,607	90,015	-0,101	-0,082
-62,592	-10,780	-0,103	0,049
-61,578	-200,000	-0,019	-0,082
-60,563	617,002	0,038	0,070
-59,549	250,089	0,032	0,040
-58,534	-126,920	-1,384	-0,146
-57,519	685,291	-0,828	-1,577
-56,505	-200,000	-0,824	-4,569
-55,490	28,830	0,626	-0,384
-54,476	800,000	4,911	11,901
-53,461	-200,000	13,618	252,582
-52,446	-200,000	689,160	2259,642
-51,432	592,541	1622,197	2919,835
-50,417	119,467	1635,133	1469,061
-49,403	73,319	1289,159	977,750
-48,388	38,143	1024,233	660,080
-47,373	24,348	982,038	587,508
-46,359	23,524	971,597	578,536
-45,344	22,570	967,492	572,950
-44,330	22,524	965,764	571,756
-43,315	22,485	964,260	570,715
-42,300	22,338	963,447	569,730
-41,286	22,378	962,632	569,357
-40,271	22,361	961,511	568,617
-39,257	22,308	960,607	567,888
-38,242	22,373	959,523	567,434
-37,227	22,409	958,674	567,027
-36,213	22,370	957,780	566,347
-35,198	22,347	956,948	565,759
-34,184	22,482	956,121	565,687
-33,169	22,337	955,522	564,841
-32,154	22,385	954,647	564,454
-31,140	22,445	953,675	564,051
-30,125	22,422	952,909	563,501
-29,111	22,379	952,140	562,886
-28,096	22,362	951,318	562,322
-27,082	22,428	950,565	562,069
-26,067	22,379	949,909	561,502
-25,052	22,434	949,228	561,252
-24,038	22,404	948,573	560,745
-23,023	22,353	948,031	560,241
-22,009	22,500	947,313	560,265
-20,994	22,494	946,655	559,834
-19,979	22,443	946,067	559,302
-18,965	22,467	945,360	558,936
-17,950	22,458	944,802	558,555
-16,936	22,337	944,236	557,813
-15,921	22,371	943,446	557,435
-14,906	22,293	942,792	556,776
-13,892	22,343	941,983	556,435
-12,877	22,319	941,426	556,008
-11,863	22,260	940,868	555,471
-10,848	22,255	940,347	555,125
-9,833	22,342	939,930	555,133
-8,819	22,366	939,228	554,772
-7,804	22,348	938,452	554,233
-6,790	22,316	937,912	553,793
-5,775	22,392	937,375	553,692
-4,760	22,295	936,828	553,042
-3,746	22,334	936,093	552,707
-2,731	22,122	935,528	551,684
-1,717	22,061	934,777	551,026
-0,702	22,080	934,187	550,715
0,313	21,892	933,552	550,579
1,327	25,009	931,573	559,169
2,342	34,844	796,364	504,217
3,356	32,905	451,721	283,059
4,371	2,079	293,657	153,275
5,386	-2,583	274,657	138,935
6,400	-4,157	268,869	134,535
7,415	-4,724	266,391	132,761
8,429	-4,496	265,268	132,399
9,444	-4,562	264,526	131,957
10,459	-4,355	263,637	131,689
11,473	-4,671	263,211	131,178
12,488	-4,527	262,518	130,952
13,502	-4,794	261,939	130,409
14,517	-4,722	261,612	130,300
15,531	-4,586	261,347	130,279
16,546	-4,596	260,850	130,010
17,561	-4,591	260,508	129,833
18,575	-4,604	260,226	129,669
19,590	-4,785	259,949	129,357
20,604	-4,717	259,675	129,271
21,619	-4,510	259,209	129,212
22,634	-4,388	258,893	129,152
23,648	-4,681	258,638	128,751
24,663	-4,671	258,188	128,525
25,677	-4,514	258,253	128,686
26,692	-4,633	257,916	128,401
27,707	-4,621	257,638	128,261
28,721	-4,729	257,357	128,014
29,736	-4,520	256,939	127,980
30,750	-4,790	256,969	127,744
31,765	-4,777	256,613	127,568
32,780	-4,747	256,265	127,410
33,794	-4,791	256,142	127,298
34,809	-4,666	255,849	127,252
35,823	-4,811	255,577	126,977
36,838	-4,856	255,403	126,840
37,853	-4,833	255,270	126,783
38,867	-4,785	255,027	126,694
39,882	-4,636	254,904	126,751
40,896	-4,794	254,567	126,434
41,911	-4,818	254,123	126,181
42,926	-4,893	254,156	126,121
43,940	-5,006	253,774	125,822
44,955	-4,909	253,496	125,757
45,969	-5,052	253,346	125,547
46,984	-5,457	253,183	125,101
47,999	-5,215	252,799	125,112
49,013	-5,569	252,608	124,698
50,028	-5,412	252,236	124,639
51,042	-5,496	251,983	124,430
52,057	-5,522	251,817	124,315
53,071	-5,608	251,564	124,105
54,086	-5,602	251,541	124,087
55,101	-5,296	251,307	124,225
56,115	-5,284	251,276	124,209
57,130	-4,883	251,128	124,471
58,144	-4,448	251,032	124,788
59,159	-4,596	250,788	124,528
60,174	-4,530	250,517	124,439
61,188	-4,623	250,442	124,310
62,203	-4,724	250,053	124,020
63,217	-4,661	249,825	123,950
64,232	-4,484	249,643	124,000
65,247	-4,627	249,555	123,823
66,261	-4,539	249,198	123,710
67,276	-4,927	249,109	123,323
68,290	-4,961	248,774	123,116
69,305	-5,159	248,514	122,808
70,320	-5,160	248,402	122,741
71,334	-4,916	248,232	122,854
72,349	-4,554	248,095	123,084
73,363	-4,578	247,960	122,986
74,378	-4,469	247,715	122,945
75,393	-4,654	247,574	122,708
76,407	-4,504	247,230	122,653
77,422	-4,527	247,052	122,534
78,436	-4,692	246,982	122,349
79,451	-4,653	246,699	122,231
80,466	-4,668	246,435	122,076
81,480	-4,793	246,186	121,837
82,495	-4,857	245,952	121,656
83,509	-4,803	245,895	121,662
84,524	-5,174	245,728	121,257
85,539	-5,111	245,467	121,169
86,553	-5,201	245,334	121,018
87,568	-4,887	245,018	121,115
88,582	-4,891	244,956	121,070
89,597	-4,998	244,767	120,876
90,611	-4,951	244,785	120,914
91,626	-4,719	244,488	120,951
92,641	-4,744	244,349	120,850
93,655	-4,732	244,031	120,692
94,670	-4,705	243,666	120,523
95,684	-4,930	243,683	120,333
96,699	-4,964	243,490	120,199
97,714	-4,805	243,308	120,230
98,728	-5,044	243,143	119,939
99,743	-5,195	242,942	119,703
100,757	-5,061	242,568	119,620
101,772	-5,321	242,523	119,372
102,787	-4,948	242,307	119,563
103,801	-5,085	242,199	119,386
104,816	-4,921	242,075	119,450
105,830	-4,717	241,944	119,544
106,845	-4,540	241,680	119,549
107,860	-4,692	241,443	119,296
108,874	-4,710	241,254	119,177
109,889	-4,867	241,164	118,993
110,903	-4,751	240,891	118,943
111,918	-4,989	240,780	118,681
112,933	-5,077	240,714	118,565
113,947	-4,753	240,475	118,704
114,962	-4,751	240,282	118,600
115,976	-4,854	240,059	118,394
116,991	-4,803	239,857	118,326
118,006	-4,741	239,738	118,308
119,020	-4,715	239,697	118,298
120,035	-4,709	239,568	118,229
121,049	-4,541	239,473	118,309
122,064	-4,944	239,237	117,852
123,079	-4,719	238,896	117,857
124,093	-4,946	238,848	117,638
125,108	-5,161	238,621	117,341
126,122	-5,172	238,312	117,169
127,137	-5,291	238,100	116,957
128,151	-5,124	237,890	116,980
129,166	-4,972	237,666	116,982
130,181	-5,013	237,502	116,858
131,195	-5,429	237,615	116,565
132,210	-4,910	237,279	116,811
133,224	-4,813	237,130	116,806
134,239	-4,686	237,115	116,891
135,254	-4,681	236,922	116,789
136,268	-4,904	236,621	116,450
137,283	-5,268	236,443	116,058
138,297	-5,098	236,156	116,044
139,312	-5,339	236,050	115,788
140,327	-4,793	235,931	116,158
141,341	-4,610	236,053	116,356
142,356	-4,312	235,754	116,438
143,370	-4,313	235,574	116,338
144,385	-4,178	235,338	116,319
145,400	-4,355	235,285	116,140
146,414	-4,356	235,133	116,054
147,429	-4,489	234,975	115,859
148,443	-4,553	234,888	115,755
149,458	-4,515	234,609	115,637
150,473	-4,380	234,420	115,642
151,487	-4,552	234,306	115,438
152,502	-4,585	234,126	115,312
153,516	-4,292	233,915	115,432
154,531	-4,363	233,774	115,296
155,546	-4,252	233,529	115,253
156,560	-4,701	233,466	114,855
157,575	-4,707	233,154	114,686
158,589	-4,582	233,143	114,770
159,604	-4,215	232,930	114,945
160,619	-4,344	232,801	114,769
161,633	-4,270	232,640	114,739
162,648	-4,308	232,595	114,676
163,662	-4,409	232,325	114,452
164,677	-4,670	232,142	114,146
165,692	-4,492	231,963	114,188
166,706	-4,321	231,921	114,293
167,721	-4,244	231,831	114,299
168,735	-4,252	231,628	114,182
169,750	-4,472	231,479	113,925
170,764	-4,484	231,354	113,844
171,779	-4,388	231,079	113,774
172,794	-4,235	231,091	113,890
173,808	-4,437	230,720	113,539
174,823	-5,081	230,417	112,875
175,837	-4,815	230,178	112,956
176,852	-4,604	230,301	113,171
177,867	-4,552	230,173	113,139
178,881	-4,584	229,990	113,014
179,896	-4,424	229,983	113,125
180,910	-4,359	229,687	113,021
181,925	-4,363	229,542	112,936
182,940	-4,286	229,504	112,967
183,954	-4,222	229,297	112,905
184,969	-4,315	229,209	112,779
185,983	-4,323	229,133	112,726
186,998	-4,104	228,868	112,755
188,013	-4,287	228,738	112,539
189,027	-4,104	228,435	112,522
190,042	-4,017	228,362	112,544
191,056	-4,281	228,231	112,264
192,071	-4,413	228,199	112,136
193,086	-4,295	227,830	112,036
194,100	-4,022	227,676	112,162
195,115	-4,487	227,337	111,626
196,129	-5,397	226,992	110,744
197,144	-2,314	228,105	113,665
198,159	2,081	229,284	117,654
199,173	4,110	229,706	119,435
200,188	4,327	229,732	119,607
201,202	4,331	229,408	119,430
202,217	4,690	229,279	119,630
203,232	4,729	229,447	119,737
204,246	4,705	229,355	119,660
205,261	4,852	229,103	119,631
206,275	5,037	228,928	119,672
207,290	5,015	228,844	119,601
208,304	5,069	228,594	119,501
209,319	5,135	228,304	119,389
210,334	4,824	228,260	119,116
211,348	4,585	227,986	118,779
212,363	4,075	227,921	118,343
213,377	4,061	227,540	118,124
214,392	3,926	227,492	117,985
215,407	4,240	227,415	118,175
216,421	4,366	227,109	118,102
217,436	4,097	226,981	117,819
218,450	3,912	226,754	117,549
219,465	3,870	226,559	117,406
220,480	3,963	226,513	117,442
221,494	3,814	226,473	117,297
222,509	3,907	226,230	117,231
223,523	4,173	226,149	117,383
224,538	4,024	225,892	117,125
225,553	4,018	225,908	117,118
226,567	4,241	225,752	117,197
227,582	4,374	225,591	117,203
228,596	4,572	225,536	117,315
229,611	4,314	225,079	116,871
230,626	3,892	225,132	116,569
231,640	4,006	224,917	116,533
232,655	4,401	224,896	116,810
233,669	4,542	224,954	116,937
234,684	4,772	224,744	116,991
235,699	4,457	224,443	116,587
236,713	4,312	224,236	116,359
237,728	4,064	224,124	116,103
238,742	4,017	223,822	115,902
239,757	4,058	223,771	115,896
240,772	4,013	223,677	115,802
241,786	4,007	223,415	115,652
242,801	4,314	223,473	115,903
243,815	4,683	223,309	116,084
244,830	4,712	223,167	116,022
245,844	4,053	222,876	115,366
246,859	4,243	222,891	115,506
247,874	4,657	222,687	115,700
248,888	4,363	222,693	115,473
249,903	4,611	222,364	115,478
250,917	4,500	222,197	115,297
251,932	4,046	222,110	114,903
252,947	4,019	221,945	114,788
253,961	4,090	221,661	114,683
254,976	4,261	221,579	114,758
255,990	4,266	221,410	114,664
257,005	4,469	221,336	114,766
258,020	4,296	221,268	114,592
259,034	4,349	221,295	114,636
260,049	4,299	221,061	114,466
261,063	4,347	220,771	114,342
262,078	4,534	220,707	114,437
263,093	4,388	220,627	114,277
264,107	4,587	220,393	114,293
265,122	4,570	220,241	114,192
266,136	4,620	220,289	114,243
267,151	4,514	220,166	114,091
268,166	4,030	219,846	113,558
269,180	3,770	219,582	113,220
270,195	4,112	219,251	113,290
271,209	3,879	219,333	113,152
272,224	4,133	219,119	113,217
273,239	4,153	219,024	113,174
274,253	3,934	218,913	112,944
275,268	4,200	218,708	113,024
276,282	4,058	218,530	112,818
277,297	3,857	218,250	112,516
278,312	3,955	218,259	112,583
279,326	4,316	218,193	112,803
280,341	4,044	217,985	112,486
281,355	4,233	218,002	112,623
282,370	4,136	217,755	112,415
283,384	3,929	217,637	112,193
284,399	3,688	217,544	111,959
285,414	3,866	217,399	112,004
286,428	4,042	217,287	112,065
287,443	4,403	217,111	112,226
288,457	4,043	217,026	111,911
289,472	3,927	216,776	111,688
290,487	3,829	216,597	111,515
291,501	3,669	216,525	111,351
292,516	3,922	216,308	111,413
293,530	4,010	216,254	111,439
294,545	3,888	216,105	111,264
295,560	3,812	216,009	111,150
296,574	4,182	215,703	111,250
297,589	3,965	215,857	111,163
298,603	4,255	215,585	111,222
299,618	4,061	215,543	111,050
300,633	4,031	215,424	110,957
301,647	4,232	215,202	110,977
302,662	4,458	215,030	111,041
303,676	4,083	215,012	110,753
304,691	4,221	214,932	110,801
305,706	4,661	214,738	111,007
306,720	4,465	214,430	110,697
307,735	4,264	214,273	110,462
308,749	3,932	214,194	110,174
309,764	4,323	214,056	110,373
310,779	4,483	213,988	110,443
311,793	4,383	213,819	110,274
312,808	4,095	213,695	109,995
313,822	4,309	213,559	110,068
314,837	4,224	213,284	109,855
315,852	3,786	213,096	109,437
316,866	4,049	213,066	109,599
317,881	4,105	213,028	109,609
318,895	4,253	212,867	109,622
319,910	4,225	212,682	109,497
320,925	4,092	212,490	109,294
321,939	3,751	212,354	108,972
322,954	3,619	212,218	108,799
323,968	4,117	212,267	109,168
324,983	4,268	212,130	109,195
325,997	4,313	211,948	109,123
327,012	4,243	211,767	108,971
328,027	4,160	211,696	108,866
329,041	4,340	211,751	109,012
330,056	4,596	211,534	109,071
331,070	4,136	211,222	108,576
332,085	4,083	211,022	108,426
333,100	4,072	210,845	108,318
334,114	4,145	210,807	108,340
335,129	4,028	210,594	108,139
336,143	4,054	210,505	108,102
337,158	3,739	210,361	107,797
338,173	3,898	210,131	107,781
339,187	4,009	210,011	107,787
340,202	3,813	209,944	107,607
341,216	3,596	209,779	107,361
342,231	3,725	209,762	107,432
343,246	3,810	209,562	107,379
344,260	4,002	209,332	107,386
345,275	3,845	209,454	107,329
346,289	3,992	209,250	107,318
347,304	4,336	208,961	107,400
348,319	3,977	209,054	107,188
349,333	3,993	208,767	107,042
350,348	4,010	208,602	106,960
351,362	4,438	208,456	107,173
352,377	4,349	208,478	107,113
353,392	4,063	208,229	106,777
354,406	4,319	208,135	106,897
355,421	194,996	1344,666	1436,923
356,435	155,623	1483,251	1437,046
