DTS Sentinel unit serial number:	SN410029Multiplexer serial number:	ORYXHardware model number:	OX2-SRSoftware version number:	ORYX F/W v4,00 Oryx Data Collector v3.7.2.0data status	okinstallation	B6 Nyhavnadifferential loss correction	single-endedforward channel	channel 2reverse channel	N/Adate	2023/12/11time	04:15:08forward acquisition time	300,00reverse acquisition time	0,00gamma	499,1914k internal	0,3125k external	0,3125temperature offset calibration	1,0000default loss term (dB/km)	0,3820temperature slope calibration	1,0000multiplexer offset coefficient	1,0000multiplexer slope coefficient	1,0000fibre end	0,00T internal ref (°C)	20,68T ext. ref 1 (°C)	3,41T ext. ref 2 (°C)	3,41length (m)	temperature (°C)	Stokes	anti-Stokes-744,400	800,000	0,029	-0,093
-743,385	-40,681	-0,188	0,072
-742,371	-9,028	0,076	-0,038
-741,356	21,570	-0,224	0,135
-740,342	-200,000	0,018	-0,099
-739,327	-153,732	-0,116	0,006
-738,312	-200,000	-0,018	-0,063
-737,298	-53,553	-0,272	0,092
-736,283	-63,187	0,083	0,025
-735,269	-76,849	-0,367	0,095
-734,254	77,106	0,064	0,051
-733,239	-177,944	-0,379	0,007
-732,225	-133,362	0,197	0,018
-731,210	-200,000	0,038	0,000
-730,196	540,308	0,044	-0,078
-729,181	-104,579	-0,049	-0,008
-728,167	293,812	0,025	-0,034
-727,152	295,171	-0,074	0,101
-726,137	10,444	-0,096	0,054
-725,123	-13,859	0,084	0,040
-724,108	-58,852	-0,079	-0,025
-723,094	91,584	0,065	-0,054
-722,079	-200,000	-0,015	0,073
-721,064	-16,679	-0,122	-0,057
-720,050	-66,918	0,089	0,026
-719,035	-149,664	-0,112	-0,006
-718,021	800,000	-0,075	-0,155
-717,006	-141,725	-0,213	0,016
-715,991	524,697	-0,059	-0,104
-714,977	-200,000	-0,028	-0,128
-713,962	47,242	0,079	-0,054
-712,948	259,520	-0,078	0,100
-711,933	-53,798	0,096	-0,033
-710,918	-200,000	-0,005	-0,022
-709,904	339,329	-0,102	-0,149
-708,889	-168,300	-0,081	0,002
-707,875	780,741	-0,038	-0,077
-706,860	143,453	-0,094	0,093
-705,845	128,960	-0,024	-0,023
-704,831	-69,406	0,102	0,029
-703,816	-7,311	0,039	-0,019
-702,802	-200,000	-0,021	-0,132
-701,787	-200,000	-0,028	-0,116
-700,772	-200,000	0,018	-0,085
-699,758	394,561	-0,041	-0,064
-698,743	541,012	0,016	-0,029
-697,729	800,000	0,050	0,119
-696,714	-200,000	-0,004	0,047
-695,699	18,296	-0,099	0,059
-694,685	709,069	0,023	0,045
-693,670	-123,109	-0,081	0,010
-692,656	-132,852	-0,021	-0,002
-691,641	-84,413	-0,090	-0,021
-690,627	-56,215	0,088	0,029
-689,612	-99,608	-0,093	0,017
-688,597	-75,232	-0,199	-0,052
-687,583	800,000	0,030	-0,064
-686,568	-78,201	-0,140	-0,035
-685,554	-200,000	0,014	-0,078
-684,539	290,665	0,045	-0,061
-683,524	118,983	-0,077	0,071
-682,510	240,400	-0,094	0,117
-681,495	800,000	-0,056	-0,166
-680,481	27,208	-0,045	-0,028
-679,466	-200,000	0,000	-0,078
-678,451	31,793	0,037	-0,024
-677,437	129,468	0,066	-0,063
-676,422	-173,217	0,136	0,003
-675,408	-200,000	0,003	-0,036
-674,393	128,762	-0,041	-0,038
-673,378	-200,000	0,016	-0,063
-672,364	-21,978	-0,052	-0,023
-671,349	68,352	-0,065	0,050
-670,335	193,376	0,020	-0,022
-669,320	-193,685	0,166	-0,001
-668,305	-200,000	0,038	0,128
-667,291	-200,000	-0,011	0,054
-666,276	193,585	-0,124	-0,140
-665,262	-200,000	0,012	-0,055
-664,247	-200,000	0,016	0,107
-663,232	-39,083	-0,120	-0,047
-662,218	-200,000	0,002	0,029
-661,203	-108,479	-0,121	0,019
-660,189	281,836	0,037	0,050
-659,174	314,447	0,064	-0,090
-658,159	-77,479	-0,110	0,028
-657,145	82,088	0,095	-0,076
-656,130	-200,000	-0,013	-0,069
-655,116	520,017	0,045	0,078
-654,101	-32,477	-0,206	0,085
-653,086	-200,000	0,011	0,090
-652,072	162,964	-0,038	-0,040
-651,057	-6,501	0,066	0,033
-650,043	-200,000	-0,038	-0,128
-649,028	-137,452	-0,014	-0,001
-648,014	-200,000	-0,003	-0,102
-646,999	-27,692	0,037	0,016
-645,984	-30,069	-0,112	-0,047
-644,970	68,083	-0,057	-0,043
-643,955	-52,303	0,012	0,004
-642,941	100,743	-0,161	-0,139
-641,926	-73,916	-0,039	0,010
-640,911	653,648	-0,014	-0,026
-639,897	-38,102	-0,014	-0,006
-638,882	32,370	0,113	-0,072
-637,868	-200,000	-0,035	-0,188
-636,853	800,000	0,063	-0,146
-635,838	-200,000	0,031	-0,152
-634,824	161,400	-0,053	-0,055
-633,809	656,682	-0,032	0,062
-632,795	800,000	-0,003	0,008
-631,780	127,016	0,077	-0,072
-630,765	-54,455	-0,169	-0,057
-629,751	-84,056	-0,091	0,021
-628,736	800,000	-0,041	-0,126
-627,722	-200,000	-0,024	0,085
-626,707	800,000	0,010	0,021
-625,692	-19,071	0,008	-0,004
-624,678	-200,000	0,001	-0,065
-623,663	800,000	-0,015	-0,047
-622,649	800,000	-0,069	0,163
-621,634	800,000	-0,053	-0,161
-620,619	207,174	-0,081	0,093
-619,605	800,000	0,043	0,131
-618,590	-200,000	0,007	-0,024
-617,576	800,000	0,080	0,190
-616,561	-200,000	0,004	0,087
-615,546	-138,858	-0,053	-0,004
-614,532	-166,857	-0,085	0,003
-613,517	-181,715	-0,062	0,001
-612,503	721,903	0,018	-0,035
-611,488	233,244	0,098	0,119
-610,474	800,000	0,077	0,208
-609,459	583,023	0,051	0,093
-608,444	229,093	0,045	-0,054
-607,430	-200,000	-0,001	0,011
-606,415	-5,800	-0,096	-0,049
-605,401	66,033	-0,074	0,055
-604,386	3,488	-0,085	0,046
-603,371	-200,000	0,000	0,082
-602,357	69,863	0,097	0,074
-601,342	-52,405	0,032	0,011
-600,328	-200,000	-0,010	0,053
-599,313	321,296	0,021	0,029
-598,298	136,032	-0,058	-0,056
-597,284	-173,361	0,137	0,003
-596,269	-200,000	-0,020	0,136
-595,255	191,608	0,026	-0,029
-594,240	278,301	-0,116	-0,153
-593,225	341,021	0,012	-0,018
-592,211	-136,156	0,065	-0,006
-591,196	743,673	-0,026	0,052
-590,182	43,412	0,034	0,023
-589,167	-200,000	-0,028	0,213
-588,152	-69,890	-0,078	-0,022
-587,138	-102,897	-0,095	0,017
-586,123	800,000	0,027	-0,083
-585,109	76,479	-0,101	-0,079
-584,094	60,940	0,043	-0,031
-583,079	-200,000	0,006	-0,132
-582,065	-200,000	-0,011	-0,042
-581,050	-15,373	-0,051	0,024
-580,036	92,053	-0,081	-0,068
-579,021	-200,000	-0,006	-0,103
-578,006	643,921	-0,029	0,055
-576,992	-63,300	0,024	0,007
-575,977	-200,000	0,014	0,053
-574,963	800,000	0,031	0,093
-573,948	800,000	0,011	-0,027
-572,934	800,000	-0,033	0,102
-571,919	-184,503	0,105	-0,001
-570,904	93,832	-0,102	-0,086
-569,890	-86,715	-0,152	-0,034
-568,875	-200,000	0,007	0,105
-567,861	800,000	-0,068	0,187
-566,846	-200,000	-0,006	-0,039
-565,831	575,622	-0,043	0,079
-564,817	52,612	0,024	-0,017
-563,802	-144,267	-0,117	0,008
-562,788	47,126	-0,066	-0,045
-561,773	-105,246	-0,039	0,007
-560,758	800,000	0,037	0,084
-559,744	32,590	0,039	-0,025
-558,729	250,246	-0,076	-0,096
-557,715	184,866	0,160	-0,176
-556,700	-200,000	0,027	-0,181
-555,685	-102,325	-0,059	0,010
-554,671	800,000	0,036	-0,074
-553,656	-200,000	0,005	0,064
-552,642	-200,000	-0,003	0,087
-551,627	-200,000	-0,165	0,000
-550,612	-93,358	-0,056	-0,011
-549,598	222,448	-0,087	0,104
-548,583	-200,000	0,013	0,109
-547,569	80,424	-0,024	0,019
-546,554	800,000	0,035	-0,086
-545,539	282,371	-0,062	-0,082
-544,525	-146,516	0,034	0,002
-543,510	-200,000	-0,005	0,039
-542,496	-102,365	0,135	-0,024
-541,481	78,723	-0,136	0,107
-540,466	800,000	-0,070	-0,163
-539,452	354,882	0,029	-0,042
-538,437	-200,000	0,018	0,121
-537,423	349,415	-0,051	-0,074
-536,408	93,195	0,108	0,090
-535,393	-200,000	0,036	-0,136
-534,379	800,000	0,029	0,061
-533,364	291,312	-0,036	0,048
-532,350	714,219	-0,052	0,103
-531,335	-188,295	0,126	0,001
-530,321	-200,000	0,005	-0,050
-529,306	-70,813	-0,122	-0,034
-528,291	120,062	-0,141	0,129
-527,277	800,000	-0,034	-0,100
-526,262	-97,848	-0,071	0,013
-525,248	-34,588	0,079	-0,032
-524,233	76,742	-0,036	-0,028
-523,218	-200,000	-0,014	-0,061
-522,204	109,812	-0,034	-0,030
-521,189	207,399	0,084	0,097
-520,175	-147,236	-0,091	0,006
-519,160	-59,124	0,122	-0,038
-518,145	11,526	0,097	-0,055
-517,131	-73,695	-0,068	0,018
-516,116	172,458	-0,062	0,065
-515,102	-200,000	0,010	0,196
-514,087	-200,000	-0,005	-0,070
-513,072	131,227	-0,087	-0,082
-512,058	-200,000	0,016	-0,082
-511,043	-200,000	-0,020	0,079
-510,029	259,613	-0,013	-0,017
-509,014	11,040	0,112	0,063
-507,999	-13,076	0,057	0,027
-506,985	-118,777	0,167	0,021
-505,970	70,521	0,041	-0,031
-504,956	579,609	-0,049	0,089
-503,941	-200,000	-0,015	0,062
-502,926	45,531	0,101	0,069
-501,912	-200,000	0,031	0,110
-500,897	711,530	-0,008	0,016
-499,883	-24,372	-0,101	-0,044
-498,868	73,173	-0,112	-0,087
-497,853	-200,000	0,008	-0,068
-496,839	-200,000	-0,012	-0,051
-495,824	342,768	0,070	0,101
-494,810	-200,000	-0,012	0,084
-493,795	302,359	-0,043	-0,059
-492,781	55,853	0,061	0,044
-491,766	-200,000	-0,024	0,120
-490,751	-59,440	-0,139	-0,044
-489,737	-200,000	0,023	-0,099
-488,722	800,000	-0,036	-0,077
-487,708	99,390	-0,027	-0,023
-486,693	188,248	0,024	0,027
-485,678	800,000	-0,006	-0,015
-484,664	78,098	0,059	0,046
-483,649	800,000	-0,051	0,130
-482,635	194,544	-0,061	0,069
-481,620	-35,670	0,115	0,046
-480,605	84,098	0,110	-0,089
-479,591	-7,771	-0,013	0,006
-478,576	370,984	-0,016	0,024
-477,562	54,765	0,040	-0,029
-476,547	-200,000	-0,005	-0,240
-475,532	-44,414	0,167	-0,061
-474,518	-141,083	0,046	0,003
-473,503	-102,660	0,033	0,006
-472,489	209,651	0,168	0,195
-471,474	25,122	-0,139	-0,085
-470,459	-23,237	-0,079	-0,035
-469,445	137,163	-0,041	-0,040
-468,430	144,360	0,135	0,133
-467,416	800,000	0,045	0,126
-466,401	-200,000	-0,005	-0,121
-465,386	800,000	-0,055	-0,154
-464,372	27,971	0,047	0,029
-463,357	-44,926	-0,082	-0,030
-462,343	-200,000	-0,007	0,092
-461,328	-86,476	0,008	0,002
-460,313	231,690	0,038	-0,045
-459,299	-200,000	-0,007	-0,114
-458,284	-200,000	0,005	-0,030
-457,270	590,409	0,017	-0,032
-456,255	-137,072	-0,101	-0,008
-455,241	-200,000	0,041	-0,189
-454,226	800,000	0,032	-0,085
-453,211	-200,000	-0,017	-0,114
-452,197	800,000	0,018	-0,038
-451,182	125,362	0,137	0,128
-450,168	-200,000	0,017	0,126
-449,153	-87,345	-0,037	-0,008
-448,138	-52,476	-0,014	0,005
-447,124	519,464	0,042	-0,072
-446,109	800,000	0,045	-0,133
-445,095	-200,000	0,005	-0,085
-444,080	319,163	0,027	-0,038
-443,065	-200,000	0,026	0,109
-442,051	66,034	0,044	0,033
-441,036	-100,932	0,067	0,012
-440,022	-200,000	0,002	-0,067
-439,007	443,588	-0,039	0,062
-437,992	800,000	0,035	-0,092
-436,978	-154,229	0,128	-0,006
-435,963	383,623	-0,055	0,083
-434,949	531,953	-0,024	-0,042
-433,934	800,000	-0,012	-0,025
-432,919	-116,663	-0,030	-0,004
-431,905	-118,709	0,054	-0,007
-430,890	315,738	0,017	0,023
-429,876	-200,000	-0,018	0,073
-428,861	529,286	0,064	0,112
-427,846	-51,213	0,083	0,028
-426,832	-200,000	-0,037	-0,129
-425,817	8,372	-0,093	-0,051
-424,803	163,877	0,059	-0,061
-423,788	38,298	-0,103	-0,067
-422,773	-200,000	-0,009	-0,043
-421,759	292,023	0,054	-0,073
-420,744	-3,652	-0,103	0,052
-419,730	800,000	0,053	-0,160
-418,715	350,969	-0,062	-0,090
-417,701	-200,000	-0,018	-0,092
-416,686	-135,933	0,239	0,020
-415,671	-200,000	0,007	-0,043
-414,657	-57,824	0,037	0,012
-413,642	29,323	0,125	0,078
-412,628	800,000	0,049	-0,139
-411,613	155,647	-0,141	-0,143
-410,598	-2,206	0,041	0,021
-409,584	800,000	0,080	0,170
-408,569	318,431	0,077	-0,107
-407,555	800,000	-0,007	0,017
-406,540	83,607	0,045	0,036
-405,525	-160,098	-0,079	0,003
-404,511	-146,033	-0,101	-0,006
-403,496	579,640	-0,021	-0,038
-402,482	-200,000	0,002	-0,036
-401,467	646,957	0,047	0,089
-400,452	-65,500	0,072	-0,021
-399,438	0,625	-0,174	0,091
-398,423	-200,000	0,016	-0,071
-397,409	336,801	-0,051	-0,073
-396,394	-135,832	-0,098	-0,008
-395,379	118,920	-0,047	0,043
-394,365	-24,022	0,165	-0,072
-393,350	800,000	0,079	0,186
-392,336	800,000	-0,054	0,114
-391,321	729,868	0,020	-0,039
-390,306	129,806	0,029	0,027
-389,292	800,000	0,009	0,023
-388,277	-47,289	-0,088	0,031
-387,263	-200,000	0,000	0,079
-386,248	-200,000	0,016	-0,083
-385,233	-200,000	-0,016	0,104
-384,219	-200,000	-0,007	-0,098
-383,204	800,000	-0,042	-0,118
-382,190	-200,000	0,006	-0,074
-381,175	-200,000	0,007	-0,128
-380,160	249,695	-0,005	0,007
-379,146	-128,445	0,076	-0,008
-378,131	-34,505	0,033	0,013
-377,117	-200,000	0,012	-0,102
-376,102	-200,000	-0,017	0,074
-375,088	73,304	0,097	0,074
-374,073	-152,277	-0,060	-0,003
-373,058	69,783	-0,019	-0,015
-372,044	-200,000	0,020	-0,073
-371,029	-200,000	0,010	0,094
-370,015	-184,991	0,124	0,001
-369,000	800,000	0,049	-0,109
-367,985	131,192	-0,113	0,107
-366,971	448,972	-0,055	0,089
-365,956	61,899	0,026	0,019
-364,942	800,000	0,050	0,112
-363,927	-183,903	0,081	-0,001
-362,912	800,000	-0,040	-0,094
-361,898	-200,000	0,010	-0,117
-360,883	800,000	0,038	-0,082
-359,869	-200,000	-0,044	-0,154
-358,854	-39,579	-0,088	0,034
-357,839	-31,822	0,146	0,060
-356,825	5,369	0,140	0,076
-355,810	-16,493	-0,076	-0,035
-354,796	800,000	0,032	0,065
-353,781	-121,116	-0,207	0,025
-352,766	219,576	-0,069	-0,081
-351,752	66,083	-0,053	0,040
-350,737	-200,000	0,014	-0,095
-349,723	-200,000	0,096	0,000
-348,708	37,093	0,118	-0,076
-347,693	-200,000	0,009	-0,041
-346,679	-11,722	-0,068	0,033
-345,664	-47,608	-0,082	-0,029
-344,650	144,051	-0,063	-0,061
-343,635	-98,703	0,174	-0,032
-342,620	-83,549	0,067	-0,015
-341,606	368,918	0,074	0,110
-340,591	-163,114	-0,138	-0,005
-339,577	-122,401	-0,061	-0,007
-338,562	-200,000	-0,031	-0,113
-337,548	-165,702	-0,080	0,002
-336,533	-200,000	0,001	0,153
-335,518	-200,000	0,005	0,176
-334,504	-200,000	-0,010	-0,060
-333,489	-32,456	-0,096	0,039
-332,475	800,000	-0,017	-0,046
-331,460	-200,000	0,021	0,074
-330,445	404,242	0,045	0,069
-329,431	-48,853	0,099	0,035
-328,416	-134,746	0,152	0,013
-327,402	411,886	-0,036	0,057
-326,387	69,662	0,103	0,078
-325,372	-200,000	-0,009	0,098
-324,358	-200,000	-0,010	-0,104
-323,343	68,218	0,098	-0,073
-322,329	-171,286	0,025	0,001
-321,314	331,778	-0,013	0,019
-320,299	663,885	-0,067	0,128
-319,285	800,000	0,037	0,092
-318,270	800,000	-0,014	-0,044
-317,256	759,628	0,006	-0,011
-316,241	223,500	-0,066	-0,078
-315,226	554,490	0,063	0,112
-314,212	119,935	0,064	0,058
-313,197	800,000	0,052	0,153
-312,183	-3,319	-0,026	-0,013
-311,168	-89,844	-0,059	0,013
-310,153	800,000	0,035	0,085
-309,139	48,347	-0,093	0,064
-308,124	282,735	0,069	-0,091
-307,110	-149,535	0,127	-0,007
-306,095	45,120	0,058	0,039
-305,080	800,000	-0,041	0,127
-304,066	800,000	0,043	-0,093
-303,051	46,866	0,042	-0,028
-302,037	751,271	0,016	-0,031
-301,022	-117,162	0,049	0,006
-300,008	-200,000	0,001	0,160
-298,993	73,991	0,080	0,061
-297,978	373,544	-0,069	0,103
-296,964	-24,353	0,039	0,017
-295,949	-92,053	0,093	-0,019
-294,935	720,520	0,044	-0,087
-293,920	800,000	0,027	-0,069
-292,905	-200,000	-0,020	-0,113
-291,891	-200,000	-0,046	0,213
-290,876	-200,000	-0,005	0,099
-289,862	166,567	0,130	-0,135
-288,847	-103,468	-0,165	0,028
-287,832	-200,000	0,024	0,091
-286,818	521,891	0,021	0,037
-285,803	-200,000	0,010	0,068
-284,789	23,815	0,048	0,029
-283,774	204,639	0,010	-0,011
-282,759	-200,000	0,008	0,091
-281,745	-200,000	0,012	0,062
-280,730	0,859	-0,097	-0,051
-279,716	-134,316	0,042	0,004
-278,701	40,001	0,078	-0,051
-277,686	116,259	0,040	-0,036
-276,672	-116,688	0,128	-0,017
-275,657	768,479	0,041	-0,082
-274,643	692,266	0,037	0,071
-273,628	223,296	-0,031	-0,036
-272,613	43,655	-0,040	-0,026
-271,599	-200,000	0,008	0,153
-270,584	-200,000	-0,013	0,122
-269,570	-29,946	0,057	-0,024
-268,555	15,753	-0,100	-0,057
-267,540	240,572	-0,072	0,088
-266,526	123,956	-0,022	0,021
-265,511	-25,078	-0,076	-0,033
-264,497	133,024	0,045	-0,042
-263,482	-20,095	0,094	0,042
-262,467	228,334	-0,037	0,044
-261,453	-200,000	-0,009	0,105
-260,438	-200,000	-0,020	0,162
-259,424	-200,000	0,013	-0,066
-258,409	-200,000	0,011	-0,107
-257,395	800,000	-0,035	0,072
-256,380	-200,000	0,029	-0,100
-255,365	800,000	-0,041	0,083
-254,351	800,000	0,040	-0,120
-253,336	-200,000	0,015	-0,065
-252,322	645,938	-0,038	0,072
-251,307	-200,000	0,013	0,078
-250,292	270,923	0,135	-0,174
-249,278	53,382	-0,063	0,044
-248,263	188,898	0,077	0,084
-247,249	183,338	-0,061	0,066
-246,234	278,770	-0,047	0,062
-245,219	-3,403	0,078	0,040
-244,205	800,000	0,022	-0,061
-243,190	800,000	0,044	-0,118
-242,176	617,611	-0,030	0,055
-241,161	52,057	0,119	0,083
-240,146	670,325	0,035	0,066
-239,132	-200,000	0,017	-0,069
-238,117	-194,365	-0,056	0,000
-237,103	800,000	-0,038	0,109
-236,088	800,000	-0,018	0,050
-235,073	92,863	0,028	-0,023
-234,059	16,730	0,045	-0,026
-233,044	800,000	0,025	0,065
-232,030	344,635	-0,064	-0,092
-231,015	403,133	-0,097	-0,149
-230,000	80,834	-0,022	-0,017
-228,986	77,546	-0,034	-0,026
-227,971	-90,500	-0,125	-0,026
-226,957	-36,849	0,232	0,090
-225,942	800,000	0,040	0,105
-224,927	-93,244	-0,071	-0,014
-223,913	-103,445	-0,036	0,006
-222,898	-145,531	-0,094	-0,006
-221,884	90,326	-0,038	0,031
-220,869	368,600	0,070	0,104
-219,855	-200,000	-0,013	0,092
-218,840	-200,000	0,017	0,104
-217,825	28,830	0,127	0,078
-216,811	800,000	0,028	0,086
-215,796	-200,000	0,017	0,091
-214,782	-200,000	-0,008	0,083
-213,767	-63,207	-0,048	-0,014
-212,752	800,000	0,030	0,090
-211,738	558,415	-0,084	0,148
-210,723	232,230	0,027	0,032
-209,709	-124,933	-0,121	0,013
-208,694	645,664	-0,052	-0,097
-207,679	201,465	-0,128	-0,144
-206,665	-140,885	0,071	0,005
-205,650	-200,000	-0,039	-0,144
-204,636	-23,401	-0,101	0,044
-203,621	-200,000	0,037	0,141
-202,606	-31,204	-0,160	-0,066
-201,592	168,676	-0,086	-0,090
-200,577	550,451	-0,061	-0,107
-199,563	800,000	0,019	-0,040
-198,548	-200,000	0,023	-0,078
-197,533	467,377	0,040	-0,065
-196,519	-56,943	-0,016	0,005
-195,504	800,000	0,025	-0,077
-194,490	800,000	0,026	-0,055
-193,475	800,000	0,023	-0,052
-192,460	-84,420	0,049	0,011
-191,446	-30,590	0,103	-0,042
-190,431	-175,696	0,104	-0,002
-189,417	47,928	-0,093	0,063
-188,402	98,720	0,062	-0,052
-187,387	-8,043	-0,077	-0,038
-186,373	3,572	0,027	0,014
-185,358	-200,000	0,008	-0,034
-184,344	178,841	0,080	0,086
-183,329	-120,484	0,135	-0,017
-182,315	-200,000	-0,016	0,081
-181,300	493,695	-0,027	0,046
-180,285	-200,000	-0,021	-0,084
-179,271	-87,204	-0,228	-0,050
-178,256	381,570	0,070	-0,105
-177,242	800,000	0,037	0,082
-176,227	584,853	0,062	0,112
-175,212	-200,000	0,018	-0,059
-174,198	56,400	-0,072	-0,051
-173,183	-200,000	-0,005	-0,048
-172,169	193,131	-0,032	-0,036
-171,154	800,000	-0,038	0,080
-170,139	35,738	-0,111	-0,071
-169,125	140,141	0,034	-0,032
-168,110	159,456	0,039	-0,040
-167,096	-75,805	-0,142	0,036
-166,081	-135,636	0,097	-0,008
-165,066	-131,023	0,083	0,008
-164,052	-45,332	-0,176	-0,063
-163,037	48,275	0,121	-0,082
-162,023	117,333	-0,046	-0,041
-161,008	800,000	-0,030	-0,075
-159,993	-200,000	0,009	-0,129
-158,979	-130,146	-0,184	-0,018
-157,964	-6,713	-0,076	-0,038
-156,950	-14,842	-0,120	-0,056
-155,935	-123,818	-0,038	-0,004
-154,920	-0,636	0,121	0,062
-153,906	19,272	0,102	-0,060
-152,891	-70,899	0,099	0,027
-151,877	-200,000	0,035	-0,239
-150,862	30,229	0,020	-0,013
-149,847	725,474	0,075	-0,146
-148,833	56,011	0,063	0,044
-147,818	89,655	-0,053	0,043
-146,804	148,877	0,029	-0,028
-145,789	-77,435	0,116	0,029
-144,775	-102,230	-0,048	-0,008
-143,760	-160,735	0,013	0,000
-142,745	-43,793	-0,088	0,032
-141,731	-200,000	-0,005	0,056
-140,716	-200,000	-0,020	0,066
-139,702	-5,990	0,182	0,090
-138,687	64,364	-0,080	-0,058
-137,672	150,309	0,071	-0,070
-136,658	-117,597	0,057	-0,007
-135,643	268,975	-0,128	0,164
-134,629	800,000	-0,012	-0,025
-133,614	-200,000	0,001	-0,071
-132,599	123,576	-0,058	-0,053
-131,585	109,515	-0,109	0,095
-130,570	90,759	-0,181	-0,147
-129,556	393,936	-0,085	-0,130
-128,541	669,260	-0,032	0,061
-127,526	-200,000	0,000	-0,091
-126,512	173,760	-0,030	-0,032
-125,497	800,000	-0,044	0,091
-124,483	800,000	-0,031	0,068
-123,468	-200,000	0,032	-0,133
-122,453	-143,460	-0,155	0,011
-121,439	154,561	-0,044	-0,044
-120,424	504,753	-0,043	0,073
-119,410	-200,000	-0,005	-0,233
-118,395	-39,744	-0,044	0,017
-117,380	-200,000	0,011	0,083
-116,366	800,000	-0,067	0,141
-115,351	800,000	0,006	-0,018
-114,337	214,073	-0,043	-0,050
-113,322	408,128	-0,031	-0,048
-112,307	-71,709	0,033	0,009
-111,293	800,000	0,082	0,203
-110,278	18,907	-0,086	-0,050
-109,264	-118,244	-0,040	-0,005
-108,249	79,656	0,016	-0,013
-107,234	366,305	0,050	-0,073
-106,220	103,927	0,005	0,005
-105,205	800,000	0,042	0,090
-104,191	800,000	-0,032	0,079
-103,176	-200,000	0,016	0,062
-102,162	-200,000	0,001	0,193
-101,147	285,124	-0,011	-0,015
-100,132	143,631	-0,043	-0,042
-99,118	800,000	-0,033	0,077
-98,103	-40,598	-0,073	0,027
-97,089	130,413	-0,033	-0,031
-96,074	-126,062	0,132	-0,014
-95,059	365,669	-0,062	0,091
-94,045	-40,550	-0,068	-0,025
-93,030	-200,000	0,009	0,049
-92,016	-31,287	-0,025	0,010
-91,001	-200,000	-0,018	-0,071
-89,986	346,391	-0,067	0,097
-88,972	12,264	0,083	-0,046
-87,957	285,329	-0,063	-0,082
-86,943	-200,000	0,001	-0,144
-85,928	635,677	0,036	-0,066
-84,913	558,257	0,077	-0,135
-83,899	191,800	-0,038	-0,041
-82,884	-200,000	-0,007	0,092
-81,870	485,847	-0,042	0,069
-80,855	4,325	0,014	0,008
-79,840	-11,339	-0,061	-0,029
-78,826	3,122	-0,057	0,030
-77,811	-117,848	-0,007	0,001
-76,797	218,513	-0,068	-0,079
-75,782	-128,597	0,082	0,008
-74,767	-200,000	0,014	0,145
-73,753	305,504	0,117	0,158
-72,738	461,581	-0,102	0,166
-71,724	-200,000	0,002	0,043
-70,709	55,715	-0,069	0,049
-69,694	-150,789	-0,068	0,004
-68,680	800,000	0,063	0,135
-67,665	31,817	-0,123	0,077
-66,651	75,913	0,116	0,089
-65,636	-200,000	-0,001	-0,083
-64,622	77,038	-0,080	-0,062
-63,607	258,284	-0,141	-0,177
-62,592	314,308	0,049	-0,068
-61,578	-177,866	-0,102	-0,002
-60,563	-161,324	-0,095	0,004
-59,549	221,731	0,027	0,031
-58,534	-95,908	-1,549	-0,297
-57,519	535,707	-0,694	-1,198
-56,505	-200,000	-1,115	-4,525
-55,490	-122,041	0,549	-0,065
-54,476	800,000	5,196	11,879
-53,461	-200,000	14,845	265,581
-52,446	-200,000	698,054	2266,247
-51,432	586,589	1622,848	2906,838
-50,417	121,183	1630,432	1471,682
-49,403	79,345	1284,463	997,612
-48,388	38,022	1022,857	658,209
-47,373	23,129	982,661	583,327
-46,359	22,187	971,815	573,774
-45,344	20,933	967,539	567,126
-44,330	20,959	966,213	566,409
-43,315	20,796	964,602	564,911
-42,300	20,784	963,750	564,351
-41,286	20,734	962,817	563,620
-40,271	20,692	961,765	562,846
-39,257	20,676	960,836	562,226
-38,242	20,782	959,924	562,015
-37,227	20,748	959,214	561,466
-36,213	20,724	958,178	560,759
-35,198	20,700	957,226	560,104
-34,184	20,727	956,577	559,790
-33,169	20,670	955,631	559,028
-32,154	20,723	954,837	558,715
-31,140	20,712	953,938	558,128
-30,125	20,707	953,197	557,659
-29,111	20,708	952,371	557,155
-28,096	20,738	951,637	556,802
-27,082	20,716	951,001	556,335
-26,067	20,710	950,065	555,747
-25,052	20,724	949,278	555,311
-24,038	20,719	948,817	555,000
-23,023	20,657	948,129	554,380
-22,009	20,753	947,315	554,188
-20,994	20,807	946,702	553,979
-19,979	20,707	946,359	553,438
-18,965	20,725	945,684	553,080
-17,950	20,724	944,933	552,613
-16,936	20,622	944,517	552,024
-15,921	20,660	943,623	551,601
-14,906	20,648	942,873	551,101
-13,892	20,696	942,174	550,825
-12,877	20,655	941,635	550,355
-11,863	20,508	941,307	549,676
-10,848	20,564	940,725	549,491
-9,833	20,695	940,132	549,541
-8,819	20,702	939,489	549,163
-7,804	20,560	938,933	548,366
-6,790	20,577	938,404	548,091
-5,775	20,676	937,622	547,924
-4,760	20,624	937,064	547,414
-3,746	20,616	936,443	547,002
-2,731	20,522	935,910	546,373
-1,717	20,457	935,009	545,619
-0,702	20,418	934,396	545,117
0,313	20,273	933,540	544,982
1,327	23,208	931,876	553,206
2,342	32,240	793,754	495,233
3,356	29,311	450,794	276,815
4,371	-0,882	295,678	151,184
5,386	-5,068	276,810	137,530
6,400	-6,641	271,110	133,213
7,415	-7,144	268,899	131,648
8,429	-6,670	267,603	131,440
9,444	-6,651	266,712	131,008
10,459	-6,544	266,125	130,807
11,473	-6,547	265,653	130,560
12,488	-6,714	265,037	130,092
13,502	-6,940	264,754	129,736
14,517	-6,726	264,234	129,665
15,531	-6,396	263,858	129,770
16,546	-6,261	263,538	129,722
17,561	-6,173	263,208	129,629
18,575	-6,194	262,894	129,443
19,590	-6,102	262,414	129,279
20,604	-6,161	262,161	129,089
21,619	-6,380	261,965	128,784
22,634	-6,211	261,531	128,711
23,648	-6,248	261,139	128,474
24,663	-6,143	260,852	128,416
25,677	-6,357	260,875	128,223
26,692	-6,303	260,394	128,023
27,707	-6,293	260,292	127,971
28,721	-6,345	260,020	127,778
29,736	-6,450	259,777	127,554
30,750	-6,416	259,480	127,427
31,765	-6,384	259,281	127,347
32,780	-6,370	259,023	127,222
33,794	-6,293	258,679	127,110
34,809	-6,148	258,420	127,100
35,823	-6,246	258,242	126,914
36,838	-6,229	257,999	126,798
37,853	-6,396	257,762	126,523
38,867	-6,560	257,639	126,305
39,882	-6,409	257,375	126,299
40,896	-6,450	257,124	126,127
41,911	-6,278	256,936	126,177
42,926	-6,338	256,634	125,964
43,940	-6,382	256,490	125,843
44,955	-6,282	256,006	125,682
45,969	-6,362	255,873	125,536
46,984	-6,639	255,703	125,197
47,999	-6,814	255,455	124,911
49,013	-6,845	255,252	124,773
50,028	-7,060	254,930	124,416
51,042	-6,948	254,666	124,374
52,057	-7,191	254,501	124,070
53,071	-7,144	254,370	124,036
54,086	-6,921	254,131	124,103
55,101	-6,988	254,021	123,980
56,115	-6,720	253,948	124,168
57,130	-6,404	253,758	124,339
58,144	-6,065	253,392	124,444
59,159	-6,350	253,324	124,152
60,174	-6,219	252,964	124,078
61,188	-6,351	252,873	123,907
62,203	-6,255	252,664	123,877
63,217	-6,441	252,410	123,580
64,232	-6,270	252,367	123,697
65,247	-6,405	252,217	123,495
66,261	-6,228	251,764	123,415
67,276	-6,371	251,524	123,163
68,290	-6,744	251,304	122,723
69,305	-6,754	251,001	122,554
70,320	-6,615	250,934	122,631
71,334	-6,462	250,721	122,647
72,349	-6,180	250,654	122,846
73,363	-6,363	250,452	122,580
74,378	-6,080	250,197	122,686
75,393	-6,280	249,996	122,406
76,407	-6,161	249,918	122,458
77,422	-6,167	249,584	122,279
78,436	-6,438	249,461	121,976
79,451	-6,419	249,155	121,831
80,466	-6,261	248,926	121,843
81,480	-6,364	248,623	121,596
82,495	-6,628	248,585	121,342
83,509	-6,471	248,452	121,400
84,524	-6,578	248,335	121,240
85,539	-6,433	247,883	121,133
86,553	-6,702	247,808	120,856
87,568	-6,499	247,582	120,907
88,582	-6,489	247,256	120,746
89,597	-6,672	247,104	120,507
90,611	-6,476	247,093	120,657
91,626	-6,475	246,981	120,591
92,641	-6,256	246,719	120,638
93,655	-6,456	246,558	120,380
94,670	-6,568	246,306	120,151
95,684	-6,377	246,103	120,203
96,699	-6,368	245,978	120,138
97,714	-6,674	245,818	119,792
98,728	-6,596	245,584	119,733
99,743	-6,639	245,347	119,570
100,757	-6,522	245,129	119,551
101,772	-6,834	245,104	119,267
102,787	-6,500	244,750	119,365
103,801	-6,657	244,648	119,172
104,816	-6,525	244,524	119,211
105,830	-6,478	244,265	119,114
106,845	-6,289	244,128	119,194
107,860	-6,425	243,863	118,941
108,874	-6,315	243,604	118,895
109,889	-6,662	243,526	118,558
110,903	-6,455	243,169	118,546
111,918	-6,728	243,253	118,349
112,933	-6,615	243,022	118,320
113,947	-6,700	242,860	118,159
114,962	-6,376	242,604	118,294
115,976	-6,342	242,573	118,296
116,991	-6,430	242,304	118,082
118,006	-6,582	242,164	117,877
119,020	-6,549	242,086	117,856
120,035	-6,499	241,986	117,838
121,049	-6,427	241,739	117,767
122,064	-6,412	241,347	117,578
123,079	-6,549	241,357	117,459
124,093	-6,703	241,146	117,219
125,108	-6,647	240,900	117,135
126,122	-6,741	240,692	116,945
127,137	-6,923	240,516	116,701
128,151	-6,837	240,348	116,679
129,166	-6,861	240,267	116,610
130,181	-6,737	239,912	116,529
131,195	-6,788	239,803	116,424
132,210	-6,635	239,647	116,463
133,224	-6,385	239,519	116,595
134,239	-6,471	239,292	116,404
135,254	-6,360	239,178	116,428
136,268	-6,538	238,895	116,135
137,283	-6,831	238,689	115,786
138,297	-6,929	238,515	115,611
139,312	-7,123	238,393	115,384
140,327	-6,937	238,302	115,481
141,341	-6,261	238,090	115,917
142,356	-6,289	238,108	115,893
143,370	-6,226	237,871	115,818
144,385	-6,262	237,687	115,689
145,400	-6,007	237,535	115,811
146,414	-6,168	237,271	115,542
147,429	-6,208	237,181	115,455
148,443	-6,076	236,869	115,400
149,458	-6,242	236,670	115,159
150,473	-6,166	236,602	115,176
151,487	-6,411	236,395	114,868
152,502	-6,345	236,226	114,829
153,516	-6,112	236,158	114,974
154,531	-6,265	235,866	114,698
155,546	-6,396	235,764	114,533
156,560	-6,473	235,676	114,418
157,575	-6,217	235,314	114,437
158,589	-6,424	235,063	114,139
159,604	-6,187	234,969	114,273
160,619	-6,118	234,908	114,289
161,633	-5,931	234,889	114,419
162,648	-6,116	234,765	114,200
163,662	-6,008	234,413	114,105
164,677	-6,337	234,403	113,827
165,692	-6,427	234,272	113,681
166,706	-6,309	234,071	113,668
167,721	-5,973	233,943	113,863
168,735	-6,040	233,690	113,677
169,750	-6,012	233,508	113,601
170,764	-6,226	233,512	113,422
171,779	-6,173	233,179	113,293
172,794	-6,172	232,978	113,186
173,808	-6,488	232,958	112,915
174,823	-6,611	232,628	112,648
175,837	-6,697	232,439	112,478
176,852	-6,438	232,350	112,630
177,867	-6,097	232,232	112,832
178,881	-6,326	232,227	112,639
179,896	-6,176	232,022	112,648
180,910	-6,141	231,839	112,576
181,925	-6,055	231,616	112,526
182,940	-6,056	231,536	112,476
183,954	-6,168	231,431	112,326
184,969	-6,080	231,377	112,359
185,983	-6,039	231,208	112,299
186,998	-6,165	231,072	112,124
188,013	-6,013	230,830	112,117
189,027	-6,084	230,581	111,930
190,042	-6,001	230,514	111,953
191,056	-6,170	230,438	111,773
192,071	-6,011	230,156	111,751
193,086	-6,139	229,894	111,514
194,100	-6,224	229,674	111,331
195,115	-6,929	229,104	110,496
196,129	-7,583	228,963	109,909
197,144	-4,265	230,200	113,087
198,159	0,725	231,656	117,706
199,173	4,056	232,463	120,721
200,188	4,739	232,370	121,198
201,202	4,506	232,264	120,949
202,217	4,706	232,190	121,056
203,232	4,799	232,119	121,081
204,246	4,975	231,950	121,119
205,261	5,134	231,880	121,196
206,275	5,301	231,663	121,203
207,290	5,133	231,592	121,023
208,304	5,068	231,372	120,847
209,319	5,058	231,101	120,687
210,334	4,943	231,010	120,540
211,348	4,769	230,682	120,222
212,363	4,439	230,561	119,892
213,377	4,154	230,365	119,558
214,392	4,097	230,170	119,403
215,407	4,330	230,070	119,521
216,421	4,419	229,900	119,490
217,436	4,281	229,801	119,321
218,450	3,983	229,420	118,882
219,465	4,018	229,251	118,811
220,480	3,941	229,176	118,702
221,494	3,835	229,003	118,520
222,509	3,946	229,029	118,609
223,523	4,204	228,760	118,657
224,538	3,965	228,683	118,423
225,553	4,364	228,444	118,596
226,567	4,202	228,426	118,452
227,582	4,456	228,308	118,575
228,596	4,653	228,134	118,625
229,611	4,288	227,901	118,213
230,626	4,317	227,759	118,151
231,640	4,331	227,498	118,016
232,655	4,247	227,502	117,943
233,669	4,518	227,479	118,129
234,684	4,709	227,404	118,225
235,699	4,472	227,179	117,916
236,713	4,386	226,839	117,663
237,728	4,106	226,746	117,391
238,742	3,876	226,628	117,145
239,757	4,423	226,349	117,406
240,772	4,211	226,118	117,115
241,786	4,309	226,069	117,153
242,801	4,434	226,070	117,239
243,815	4,419	226,023	117,192
244,830	4,611	225,803	117,213
245,844	4,656	225,574	117,119
246,859	4,371	225,323	116,762
247,874	4,404	225,243	116,735
248,888	4,650	225,182	116,879
249,903	4,345	224,948	116,517
250,917	4,220	224,809	116,341
251,932	4,223	224,739	116,296
252,947	3,987	224,554	116,012
253,961	3,916	224,326	115,830
254,976	4,200	224,214	115,976
255,990	4,440	223,992	116,031
257,005	4,528	224,034	116,109
258,020	4,288	224,025	115,912
259,034	4,796	223,717	116,125
260,049	4,446	223,585	115,783
261,063	4,607	223,214	115,701
262,078	4,571	223,327	115,723
263,093	4,678	223,180	115,716
264,107	4,489	223,171	115,559
265,122	4,519	222,948	115,456
266,136	4,613	222,883	115,482
267,151	4,687	222,733	115,450
268,166	4,099	222,330	114,792
269,180	4,057	222,052	114,608
270,195	3,996	222,104	114,578
271,209	3,987	221,954	114,484
272,224	4,083	221,726	114,428
273,239	4,427	221,577	114,597
274,253	4,283	221,474	114,426
275,268	4,056	221,314	114,164
276,282	3,888	221,190	113,966
277,297	4,108	220,888	113,963
278,312	3,937	220,910	113,837
279,326	4,019	220,799	113,831
280,341	4,357	220,707	114,023
281,355	4,276	220,528	113,860
282,370	4,411	220,249	113,806
283,384	4,331	220,215	113,720
284,399	4,017	220,048	113,392
285,414	3,896	219,880	113,206
286,428	4,195	219,811	113,380
287,443	4,393	219,667	113,442
288,457	4,284	219,582	113,307
289,472	4,233	219,416	113,174
290,487	3,991	219,009	112,777
291,501	3,653	219,012	112,521
292,516	4,146	218,825	112,775
293,530	4,177	218,621	112,683
294,545	3,980	218,593	112,514
295,560	4,074	218,464	112,507
296,574	4,367	218,335	112,644
297,589	4,300	218,210	112,521
298,603	4,360	218,023	112,458
299,618	4,113	218,017	112,265
300,633	4,024	217,982	112,172
301,647	4,606	217,755	112,469
302,662	4,544	217,708	112,390
303,676	4,521	217,512	112,261
304,691	4,370	217,424	112,096
305,706	4,409	217,193	111,995
306,720	4,397	217,127	111,942
307,735	4,407	216,852	111,798
308,749	4,079	216,749	111,498
309,764	4,300	216,606	111,574
310,779	4,436	216,475	111,595
311,793	4,354	216,360	111,466
312,808	4,338	216,218	111,372
313,822	4,514	215,847	111,298
314,837	4,315	215,855	111,148
315,852	4,216	215,564	110,917
316,866	4,280	215,613	110,979
317,881	4,614	215,451	111,126
318,895	4,714	215,326	111,123
319,910	4,390	215,028	110,727
320,925	4,314	215,028	110,663
321,939	3,687	214,900	110,137
322,954	3,594	214,678	109,947
323,968	4,028	214,713	110,266
324,983	4,379	214,600	110,449
325,997	4,474	214,441	110,425
327,012	4,269	214,371	110,233
328,027	4,457	214,020	110,177
329,041	4,570	214,176	110,328
330,056	4,757	213,995	110,358
331,070	4,130	213,651	109,725
332,085	3,918	213,545	109,509
333,100	4,069	213,288	109,476
334,114	4,140	213,195	109,469
335,129	4,303	213,066	109,508
336,143	4,211	213,008	109,403
337,158	3,999	212,974	109,226
338,173	4,196	212,681	109,205
339,187	4,033	212,562	109,019
340,202	3,857	212,427	108,815
341,216	3,955	212,175	108,746
342,231	4,157	212,130	108,856
343,246	3,905	212,104	108,655
344,260	4,037	211,925	108,647
345,275	3,902	211,920	108,539
346,289	4,217	211,776	108,677
347,304	4,363	211,589	108,675
348,319	4,082	211,623	108,485
349,333	4,285	211,165	108,383
350,348	4,487	211,157	108,511
351,362	4,391	211,099	108,404
352,377	4,573	210,980	108,462
353,392	4,446	210,676	108,207
354,406	4,380	210,717	108,172
355,421	193,225	1346,282	1431,592
356,435	154,214	1484,706	1431,697
