DTS Sentinel unit serial number:	SN410029Multiplexer serial number:	ORYXHardware model number:	OX2-SRSoftware version number:	ORYX F/W v4,00 Oryx Data Collector v3.7.2.0data status	okinstallation	B6 Nyhavnadifferential loss correction	single-endedforward channel	channel 2reverse channel	N/Adate	2023/12/08time	13:30:08forward acquisition time	300,00reverse acquisition time	0,00gamma	499,1914k internal	0,3159k external	0,3159temperature offset calibration	1,0000default loss term (dB/km)	0,3820temperature slope calibration	1,0000multiplexer offset coefficient	1,0000multiplexer slope coefficient	1,0000fibre end	0,00T internal ref (°C)	15,06T ext. ref 1 (°C)	-1,56T ext. ref 2 (°C)	-1,55length (m)	temperature (°C)	Stokes	anti-Stokes-744,400	156,957	0,148	0,151
-743,385	-90,602	-0,353	-0,075
-742,371	-108,471	0,178	0,028
-741,356	-83,061	-0,340	0,080
-740,342	-43,155	0,108	0,040
-739,327	-128,376	-0,268	0,028
-738,312	154,803	0,152	0,154
-737,298	-141,899	-0,474	0,034
-736,283	51,612	0,188	0,131
-735,269	-136,372	-0,334	0,028
-734,254	800,000	0,056	0,174
-733,239	-39,914	-0,405	-0,155
-732,225	-41,067	0,206	0,078
-731,210	-15,090	0,064	-0,030
-730,196	103,951	-0,135	0,117
-729,181	800,000	0,015	-0,042
-728,167	800,000	0,038	-0,105
-727,152	-66,496	-0,020	-0,006
-726,137	263,766	0,080	-0,102
-725,123	800,000	0,034	-0,078
-724,108	13,207	-0,161	-0,091
-723,094	-4,540	0,025	-0,012
-722,079	800,000	-0,029	-0,078
-721,064	-200,000	-0,003	0,069
-720,050	-200,000	0,002	0,048
-719,035	-200,000	0,063	-0,211
-718,021	139,035	-0,159	-0,154
-717,006	-200,000	-0,001	-0,035
-715,991	41,872	0,009	-0,006
-714,977	64,575	-0,119	-0,088
-713,962	-111,008	-0,157	0,023
-712,948	800,000	0,015	0,034
-711,933	169,685	-0,079	0,083
-710,918	31,097	-0,126	-0,080
-709,904	800,000	-0,031	-0,082
-708,889	98,637	-0,059	-0,050
-707,875	148,911	-0,117	-0,117
-706,860	-200,000	0,024	-0,232
-705,845	-200,000	-0,001	-0,040
-704,831	157,208	-0,107	0,109
-703,816	800,000	-0,061	-0,135
-702,802	19,935	-0,071	0,042
-701,787	231,781	0,059	-0,071
-700,772	145,767	-0,061	0,060
-699,758	-108,283	-0,123	0,019
-698,743	800,000	0,025	-0,053
-697,729	18,079	-0,039	0,023
-696,714	198,019	0,073	-0,083
-695,699	76,993	-0,126	-0,098
-694,685	107,349	-0,064	-0,056
-693,670	-139,158	-0,121	-0,009
-692,656	-200,000	-0,013	-0,056
-691,641	41,723	0,131	0,087
-690,627	173,664	0,061	0,065
-689,612	-73,289	-0,069	0,018
-688,597	180,842	0,054	0,058
-687,583	721,499	-0,018	-0,036
-686,568	17,974	-0,148	0,087
-685,554	-56,643	-0,066	-0,021
-684,539	-200,000	0,013	0,142
-683,524	451,664	-0,016	0,027
-682,510	-200,000	-0,008	0,027
-681,495	800,000	-0,011	-0,033
-680,481	-113,683	-0,074	-0,010
-679,466	-200,000	-0,007	-0,034
-678,451	-100,498	-0,248	0,045
-677,437	-200,000	-0,010	-0,100
-676,422	-200,000	0,009	-0,183
-675,408	800,000	-0,021	-0,066
-674,393	-77,155	-0,069	0,018
-673,378	-140,982	-0,087	-0,006
-672,364	32,162	-0,161	-0,102
-671,349	-170,105	-0,032	-0,001
-670,335	267,416	-0,024	-0,031
-669,320	204,562	-0,051	-0,058
-668,305	-34,967	-0,140	0,056
-667,291	-200,000	-0,004	-0,160
-666,276	-189,852	-0,061	-0,000
-665,262	-48,568	0,127	-0,045
-664,247	800,000	-0,057	0,140
-663,232	-105,854	0,083	-0,014
-662,218	800,000	-0,046	0,094
-661,203	67,497	0,043	-0,032
-660,189	-88,704	0,067	0,014
-659,174	33,192	0,065	0,042
-658,159	496,908	-0,100	-0,169
-657,145	456,715	-0,100	-0,164
-656,130	-200,000	-0,001	0,073
-655,116	-100,643	-0,154	-0,028
-654,101	-44,059	-0,113	-0,042
-653,086	-200,000	-0,011	0,073
-652,072	24,278	0,028	-0,017
-651,057	270,064	0,063	0,081
-650,043	-200,000	0,004	0,075
-649,028	235,885	0,036	-0,044
-648,014	-90,837	0,069	-0,014
-646,999	800,000	-0,047	-0,121
-645,984	393,285	-0,024	-0,036
-644,970	24,019	-0,098	-0,059
-643,955	52,988	-0,094	-0,066
-642,941	-200,000	0,001	-0,006
-641,926	-200,000	0,005	0,150
-640,911	-28,351	0,070	-0,029
-639,897	800,000	-0,049	0,108
-638,882	-65,613	0,163	0,048
-637,868	800,000	0,025	-0,074
-636,853	767,297	-0,062	0,124
-635,838	336,363	0,022	-0,031
-634,824	508,279	0,060	-0,103
-633,809	-194,741	-0,031	-0,000
-632,795	19,888	-0,051	0,030
-631,780	-1,692	0,035	0,018
-630,765	192,521	-0,120	0,133
-629,751	132,360	0,033	0,031
-628,736	-200,000	-0,055	-0,193
-627,722	-99,023	-0,079	-0,015
-626,707	387,354	0,009	0,014
-625,692	541,493	-0,021	0,037
-624,678	-200,000	-0,026	-0,122
-623,663	-16,642	0,029	-0,013
-622,649	351,411	-0,057	-0,084
-621,634	-200,000	0,004	0,089
-620,619	91,475	0,167	-0,137
-619,605	800,000	-0,044	0,114
-618,590	537,330	-0,061	0,107
-617,576	-136,485	0,119	0,010
-616,561	-107,362	-0,110	0,018
-615,546	-138,657	-0,094	-0,007
-614,532	-200,000	-0,012	-0,103
-613,517	800,000	0,068	-0,140
-612,503	227,037	-0,037	-0,044
-611,488	-142,058	0,061	-0,004
-610,474	-86,547	-0,034	-0,008
-609,459	-107,011	0,131	0,021
-608,444	800,000	0,011	-0,031
-607,430	61,575	-0,082	-0,060
-606,415	30,160	-0,093	-0,058
-605,401	294,873	-0,045	0,061
-604,386	-200,000	0,016	-0,077
-603,371	-107,581	-0,187	0,030
-602,357	267,725	0,032	0,042
-601,342	112,781	0,074	-0,066
-600,328	12,858	0,117	-0,066
-599,313	-38,824	-0,186	0,072
-598,298	-112,958	0,107	-0,015
-597,284	800,000	0,054	0,111
-596,269	136,579	0,093	-0,089
-595,255	800,000	-0,017	-0,036
-594,240	-30,273	-0,014	-0,006
-593,225	-200,000	0,015	-0,114
-592,211	-200,000	0,011	0,054
-591,196	-75,712	0,106	0,027
-590,182	451,985	0,050	0,082
-589,167	108,814	0,136	-0,119
-588,152	800,000	-0,035	0,080
-587,138	-200,000	0,036	0,148
-586,123	14,697	-0,062	-0,035
-585,109	-200,000	0,022	0,105
-584,094	-54,680	0,147	-0,048
-583,079	-8,310	0,095	-0,047
-582,065	75,813	-0,095	0,074
-581,050	25,043	-0,063	-0,038
-580,036	-59,940	0,031	-0,010
-579,021	63,615	-0,076	0,056
-578,006	355,541	-0,033	-0,048
-576,992	282,102	0,024	0,032
-575,977	3,271	-0,090	-0,048
-574,963	-200,000	0,024	0,085
-573,948	-157,541	-0,059	0,003
-572,934	463,592	0,035	-0,057
-571,919	170,469	0,039	0,041
-570,904	373,540	0,066	-0,099
-569,890	558,485	0,053	-0,094
-568,875	-200,000	0,002	0,034
-567,861	-91,865	-0,056	0,012
-566,846	800,000	-0,047	0,103
-565,831	155,934	-0,094	-0,095
-564,817	-200,000	-0,014	0,087
-563,802	-78,709	-0,056	0,014
-562,788	800,000	-0,038	0,088
-561,773	-200,000	-0,005	0,109
-560,758	74,907	-0,088	0,068
-559,744	113,396	0,065	-0,058
-558,729	800,000	-0,037	0,077
-557,715	-200,000	0,027	-0,134
-556,700	800,000	0,040	-0,127
-555,685	-189,556	-0,111	0,001
-554,671	138,380	0,010	0,009
-553,656	-200,000	-0,005	0,092
-552,642	374,200	0,053	0,080
-551,627	-200,000	-0,025	-0,095
-550,612	800,000	0,043	-0,122
-549,598	-87,303	0,056	-0,012
-548,583	-7,468	0,146	0,072
-547,569	132,188	-0,097	-0,091
-546,554	-75,565	-0,041	-0,011
-545,539	-200,000	0,001	0,036
-544,525	-100,873	-0,048	-0,009
-543,510	800,000	-0,016	-0,038
-542,496	111,414	-0,064	-0,057
-541,481	-200,000	0,007	-0,132
-540,466	800,000	0,049	-0,151
-539,452	-10,990	0,044	-0,021
-538,437	-107,400	-0,017	0,003
-537,423	-18,572	-0,088	0,040
-536,408	309,625	0,051	0,069
-535,393	800,000	-0,046	0,109
-534,379	-31,085	-0,097	-0,040
-533,364	149,114	0,034	-0,033
-532,350	-200,000	0,009	0,113
-531,335	480,547	0,073	-0,121
-530,321	-200,000	0,005	0,035
-529,306	-4,545	0,092	-0,046
-528,291	-200,000	-0,018	-0,103
-527,277	-200,000	-0,014	0,068
-526,262	-200,000	-0,023	0,098
-525,248	-59,871	0,058	0,018
-524,233	288,197	0,118	0,156
-523,218	329,973	-0,059	0,083
-522,204	-30,340	-0,103	0,042
-521,189	-200,000	-0,004	-0,223
-520,175	800,000	-0,041	-0,094
-519,160	-200,000	-0,001	-0,031
-518,145	-200,000	-0,010	0,167
-517,131	558,786	-0,036	0,064
-516,116	220,619	0,043	0,051
-515,102	-105,129	-0,159	0,026
-514,087	-200,000	-0,016	-0,091
-513,072	-179,793	-0,208	-0,003
-512,058	800,000	0,024	-0,061
-511,043	800,000	-0,029	-0,081
-510,029	76,195	0,067	-0,051
-509,014	108,802	0,027	0,023
-507,999	404,300	0,036	0,056
-506,985	591,140	-0,018	-0,033
-505,970	-156,898	-0,084	0,004
-504,956	553,292	0,014	0,025
-503,941	-200,000	-0,008	0,119
-502,926	77,326	-0,081	-0,063
-501,912	268,154	0,040	0,051
-500,897	-200,000	0,032	0,136
-499,883	-179,382	-0,155	-0,002
-498,868	-200,000	0,008	-0,039
-497,853	-134,548	-0,087	-0,008
-496,839	-200,000	0,004	0,034
-495,824	-79,593	0,060	0,015
-494,810	292,127	-0,090	0,120
-493,795	-200,000	0,006	-0,071
-492,781	-70,540	-0,097	0,027
-491,766	31,459	-0,071	-0,045
-490,751	180,409	-0,074	-0,080
-489,737	253,555	-0,032	-0,039
-488,722	163,796	0,139	0,143
-487,708	-200,000	-0,014	-0,114
-486,693	-200,000	-0,013	-0,102
-485,678	-191,673	0,006	0,000
-484,664	800,000	-0,022	-0,045
-483,649	-200,000	0,004	0,041
-482,635	800,000	-0,019	-0,057
-481,620	-200,000	0,006	0,127
-480,605	204,847	0,145	0,164
-479,591	314,998	0,032	-0,044
-478,576	800,000	-0,025	0,076
-477,562	94,389	-0,118	-0,098
-476,547	-200,000	0,006	-0,077
-475,532	-200,000	-0,024	0,085
-474,518	35,205	0,030	0,019
-473,503	-200,000	0,016	0,055
-472,489	-200,000	-0,003	0,123
-471,474	800,000	-0,071	0,165
-470,459	-200,000	0,003	0,058
-469,445	274,227	0,059	-0,077
-468,430	800,000	0,053	-0,121
-467,416	-110,960	0,069	-0,010
-466,401	-200,000	-0,019	0,108
-465,386	223,729	0,072	0,084
-464,372	390,024	-0,052	0,078
-463,357	-200,000	-0,002	0,023
-462,343	-200,000	0,012	-0,240
-461,328	-200,000	0,002	0,068
-460,313	192,982	0,090	0,099
-459,299	-200,000	0,004	0,068
-458,284	594,309	0,069	-0,125
-457,270	800,000	0,028	0,064
-456,255	-200,000	-0,019	0,120
-455,241	-200,000	0,001	-0,017
-454,226	24,539	0,148	0,089
-453,211	213,109	0,070	0,081
-452,197	-151,389	0,114	-0,006
-451,182	-62,673	-0,066	0,020
-450,168	-200,000	-0,000	0,187
-449,153	-200,000	-0,004	-0,075
-448,138	-73,042	-0,106	-0,028
-447,124	412,084	0,065	0,101
-446,109	-139,778	0,039	0,003
-445,095	-64,062	0,126	-0,037
-444,080	290,965	-0,080	-0,106
-443,065	-200,000	-0,021	-0,200
-442,051	352,947	0,023	-0,033
-441,036	-2,755	-0,073	-0,037
-440,022	-10,932	-0,042	-0,020
-439,007	-67,466	-0,155	0,044
-437,992	-88,024	0,069	-0,015
-436,978	800,000	-0,006	0,013
-435,963	514,108	0,026	-0,044
-434,949	-52,834	-0,156	-0,052
-433,934	604,966	-0,066	-0,119
-432,919	-200,000	-0,001	0,010
-431,905	-200,000	0,035	0,188
-430,890	-35,785	0,049	-0,019
-429,876	60,962	0,139	0,100
-428,861	291,584	-0,077	0,102
-427,846	114,705	-0,091	0,080
-426,832	271,583	0,058	0,075
-425,817	-81,831	0,071	-0,017
-424,803	800,000	0,008	0,019
-423,788	-91,324	-0,014	0,003
-422,773	-82,017	0,031	0,007
-421,759	543,840	-0,047	0,082
-420,744	-35,113	-0,147	-0,058
-419,730	-11,333	-0,072	0,034
-418,715	347,500	-0,039	-0,057
-417,701	426,739	0,025	-0,040
-416,686	-200,000	-0,039	-0,131
-415,671	-200,000	-0,011	0,085
-414,657	628,060	0,024	0,045
-413,642	-118,393	-0,122	0,016
-412,628	800,000	0,021	0,061
-411,613	411,990	-0,092	-0,143
-410,598	-20,198	-0,047	-0,021
-409,584	238,747	0,102	-0,124
-408,569	-34,221	0,095	0,038
-407,555	-48,991	0,068	0,024
-406,540	-27,823	-0,122	-0,051
-405,525	-121,138	-0,064	-0,008
-404,511	-200,000	-0,020	0,071
-403,496	-147,665	-0,082	-0,005
-402,482	0,721	-0,035	-0,018
-401,467	-200,000	0,007	-0,060
-400,452	-45,712	0,048	0,017
-399,438	277,918	-0,064	-0,083
-398,423	163,000	-0,071	0,072
-397,409	-34,004	-0,087	-0,035
-396,394	4,943	0,150	-0,080
-395,379	-12,382	0,014	0,007
-394,365	225,243	0,059	0,070
-393,350	149,551	0,061	0,060
-392,336	-200,000	-0,000	-0,105
-391,321	800,000	0,051	0,155
-390,306	190,442	-0,159	-0,174
-389,292	62,257	0,062	-0,045
-388,277	-69,546	0,065	0,018
-387,263	-200,000	-0,007	-0,094
-386,248	-99,958	-0,030	-0,005
-385,233	44,586	-0,050	-0,034
-384,219	243,765	-0,084	-0,102
-383,204	-200,000	-0,005	-0,063
-382,190	800,000	-0,017	0,038
-381,175	-200,000	0,006	0,052
-380,160	-143,939	0,030	-0,002
-379,146	-200,000	0,021	-0,091
-378,131	73,397	-0,018	-0,014
-377,117	567,931	-0,069	0,122
-376,102	-200,000	-0,013	-0,055
-375,088	-200,000	-0,018	-0,122
-374,073	107,510	-0,045	-0,039
-373,058	-5,008	-0,073	-0,036
-372,044	-106,928	0,073	-0,012
-371,029	-3,413	-0,053	0,027
-370,015	110,756	0,078	0,068
-369,000	750,750	-0,042	-0,082
-367,985	-200,000	-0,013	-0,215
-366,971	-93,362	-0,139	-0,028
-365,956	52,328	0,126	0,087
-364,942	615,921	-0,050	0,091
-363,927	705,304	0,005	-0,010
-362,912	-200,000	0,015	0,061
-361,898	-200,000	-0,010	0,093
-360,883	-200,000	-0,024	0,114
-359,869	-40,342	-0,086	0,032
-358,854	209,155	0,075	0,086
-357,839	-200,000	-0,003	-0,037
-356,825	394,909	0,028	0,043
-355,810	-98,544	-0,054	-0,010
-354,796	800,000	0,030	0,088
-353,781	-200,000	-0,001	0,028
-352,766	11,042	-0,017	-0,009
-351,752	-164,946	-0,141	0,004
-350,737	-200,000	0,002	0,049
-349,723	-31,877	0,170	0,069
-348,708	-200,000	0,021	0,142
-347,693	800,000	-0,041	0,114
-346,679	-116,167	-0,126	-0,017
-345,664	507,446	-0,062	0,105
-344,650	16,379	0,151	0,086
-343,635	800,000	0,067	-0,177
-342,620	-112,850	0,112	-0,016
-341,606	-143,057	-0,149	0,010
-340,591	1,535	0,157	-0,082
-339,577	361,108	-0,053	-0,078
-338,562	-200,000	-0,026	-0,128
-337,548	800,000	-0,035	-0,093
-336,533	175,888	0,084	0,088
-335,518	-44,375	-0,035	-0,012
-334,504	-200,000	0,029	0,147
-333,489	800,000	-0,019	0,052
-332,475	-159,037	-0,199	0,008
-331,460	98,216	0,100	-0,084
-330,445	-200,000	-0,001	-0,082
-329,431	78,722	0,086	-0,067
-328,416	800,000	0,086	0,197
-327,402	161,240	0,049	-0,050
-326,387	21,416	0,046	-0,027
-325,372	79,391	-0,095	-0,074
-324,358	-170,318	-0,132	-0,003
-323,343	-70,418	-0,061	0,017
-322,329	-62,911	-0,039	0,012
-321,314	-68,091	0,029	-0,008
-320,299	58,422	0,170	0,121
-319,285	-58,558	0,064	0,020
-318,270	-200,000	-0,026	-0,084
-317,256	219,911	0,106	-0,123
-316,241	-40,639	0,051	-0,019
-315,226	-200,000	0,014	0,116
-314,212	-198,408	0,147	0,001
-313,197	-118,750	-0,107	0,014
-312,183	800,000	0,038	0,107
-311,168	-61,296	-0,017	-0,005
-310,153	-200,000	-0,030	-0,180
-309,139	223,080	-0,044	-0,052
-308,124	-54,487	-0,156	0,051
-307,110	-159,597	0,059	0,002
-306,095	-200,000	0,021	-0,071
-305,080	-200,000	0,011	0,059
-304,066	-42,472	-0,094	-0,035
-303,051	-200,000	-0,008	0,035
-302,037	78,597	-0,061	0,047
-301,022	-36,094	0,107	0,042
-300,008	80,692	-0,072	0,056
-298,993	-169,955	0,164	0,004
-297,978	220,938	-0,061	-0,071
-296,964	-200,000	0,015	-0,089
-295,949	77,450	-0,138	-0,106
-294,935	-200,000	-0,003	-0,074
-293,920	225,043	-0,032	0,037
-292,905	113,622	0,029	-0,026
-291,891	393,516	-0,057	-0,086
-290,876	-200,000	-0,002	-0,074
-289,862	269,015	-0,093	-0,118
-288,847	-46,065	0,044	0,016
-287,832	-8,436	0,060	0,029
-286,818	-63,192	-0,180	-0,053
-285,803	219,052	0,069	0,080
-284,789	-200,000	-0,035	0,135
-283,774	715,677	0,026	-0,050
-282,759	-200,000	0,020	0,127
-281,745	-93,652	-0,062	-0,012
-280,730	-68,078	-0,137	-0,038
-279,716	306,009	-0,109	-0,146
-278,701	-129,376	0,084	-0,008
-277,686	-200,000	0,015	-0,066
-276,672	37,809	0,074	-0,047
-275,657	184,013	0,051	-0,054
-274,643	-30,310	-0,058	-0,024
-273,628	431,836	0,027	-0,042
-272,613	182,305	-0,052	-0,056
-271,599	800,000	0,009	0,030
-270,584	333,505	0,053	-0,074
-269,570	-101,303	0,127	-0,022
-268,555	30,160	-0,125	0,077
-267,540	544,214	0,054	0,093
-266,526	-18,881	0,081	0,036
-265,511	-60,728	0,070	-0,021
-264,497	-192,287	0,055	0,000
-263,482	432,880	0,061	0,096
-262,467	261,441	0,045	0,057
-261,453	800,000	-0,005	-0,012
-260,438	-158,462	-0,062	-0,003
-259,424	34,183	-0,058	0,037
-258,409	200,345	-0,045	0,050
-257,395	-6,984	0,176	0,086
-256,380	-106,577	0,131	0,021
-255,365	-60,298	0,115	0,035
-254,351	-78,294	0,076	0,019
-253,336	800,000	0,024	-0,059
-252,322	-200,000	0,004	-0,117
-251,307	-116,554	-0,080	0,011
-250,292	800,000	0,041	0,088
-249,278	586,112	0,058	-0,103
-248,263	314,921	-0,071	0,097
-247,249	427,294	0,038	0,059
-246,234	-91,538	0,055	-0,011
-245,219	161,458	-0,095	-0,096
-244,205	-200,000	-0,008	-0,141
-243,190	-112,896	0,039	-0,006
-242,176	800,000	-0,044	-0,124
-241,161	7,063	0,097	0,052
-240,146	73,728	-0,134	-0,101
-239,132	342,282	0,050	0,071
-238,117	-200,000	-0,023	-0,107
-237,103	8,347	-0,039	-0,021
-236,088	800,000	-0,010	0,030
-235,073	-200,000	0,027	0,088
-234,059	49,175	0,059	0,040
-233,044	-200,000	-0,004	0,114
-232,030	-143,007	0,089	-0,006
-231,015	58,457	-0,170	0,120
-230,000	-200,000	0,017	0,077
-228,986	-200,000	0,001	-0,013
-227,971	-53,806	0,055	0,018
-226,957	-70,736	0,068	-0,018
-225,942	-81,053	0,133	0,032
-224,927	800,000	-0,034	-0,071
-223,913	300,271	-0,127	-0,170
-222,898	4,374	-0,031	0,016
-221,884	-66,794	-0,087	0,025
-220,869	41,322	0,085	0,055
-219,855	-200,000	0,067	0,224
-218,840	800,000	-0,017	0,045
-217,825	800,000	0,032	-0,082
-216,811	786,706	-0,043	0,085
-215,796	-67,175	-0,088	-0,025
-214,782	-69,079	0,074	-0,020
-213,767	0,678	0,030	-0,015
-212,752	-200,000	-0,004	-0,058
-211,738	202,835	0,055	-0,062
-210,723	230,642	-0,049	-0,058
-209,709	-200,000	-0,007	-0,169
-208,694	-200,000	-0,003	-0,249
-207,679	-82,414	0,126	0,029
-206,665	204,949	0,106	0,119
-205,650	-64,156	0,098	-0,029
-204,636	193,228	-0,040	0,044
-203,621	277,027	-0,032	0,041
-202,606	25,872	0,089	-0,053
-201,592	-132,077	0,062	0,006
-200,577	82,306	-0,023	-0,018
-199,563	800,000	0,030	0,073
-198,548	-200,000	0,039	0,197
-197,533	14,879	0,093	0,052
-196,519	155,166	-0,041	-0,041
-195,504	633,189	-0,019	-0,035
-194,490	800,000	0,059	-0,142
-193,475	-200,000	0,023	-0,119
-192,460	800,000	0,031	0,084
-191,446	-2,120	0,069	-0,035
-190,431	-10,781	-0,050	0,024
-189,417	800,000	0,012	0,036
-188,402	800,000	0,027	-0,072
-187,387	55,547	-0,014	0,010
-186,373	423,048	-0,055	-0,086
-185,358	-16,700	0,118	-0,054
-184,344	184,598	-0,035	-0,037
-183,329	800,000	0,028	0,058
-182,315	800,000	0,024	0,060
-181,300	178,655	-0,029	-0,031
-180,285	-128,776	0,041	0,004
-179,271	-50,918	0,045	0,015
-178,256	4,832	0,052	0,027
-177,242	800,000	-0,034	-0,107
-176,227	800,000	0,095	0,246
-175,212	-200,000	0,004	0,077
-174,198	-195,012	0,050	0,000
-173,183	-200,000	0,024	-0,101
-172,169	359,597	0,019	0,028
-171,154	383,949	0,065	-0,097
-170,139	556,694	-0,055	0,095
-169,125	278,741	-0,056	0,073
-168,110	-200,000	-0,006	0,097
-167,096	-200,000	-0,013	-0,145
-166,081	-200,000	-0,012	0,141
-165,066	-140,594	-0,054	-0,004
-164,052	32,228	0,184	-0,114
-163,037	-200,000	-0,179	0,000
-162,023	-3,496	0,082	-0,041
-161,008	-102,199	0,087	-0,015
-159,993	228,855	-0,036	0,042
-158,979	-77,481	-0,100	0,025
-157,964	-54,694	-0,051	0,016
-156,950	-200,000	-0,013	-0,044
-155,935	742,000	0,014	0,027
-154,920	800,000	-0,028	0,076
-153,906	-34,748	0,042	0,017
-152,891	-200,000	-0,010	0,135
-151,877	-76,249	-0,094	0,024
-150,862	-200,000	0,020	-0,104
-149,847	-8,497	-0,082	-0,039
-148,833	-200,000	0,032	0,144
-147,818	70,082	0,072	-0,054
-146,804	42,540	0,098	0,064
-145,789	-200,000	0,003	0,105
-144,775	-117,107	-0,045	-0,006
-143,760	-200,000	0,044	-0,142
-142,745	-200,000	-0,020	-0,198
-141,731	91,288	0,026	-0,021
-140,716	530,839	0,028	-0,047
-139,702	-200,000	0,018	-0,064
-138,687	-200,000	-0,012	-0,119
-137,672	263,436	-0,041	-0,052
-136,658	330,118	-0,072	-0,100
-135,643	53,383	0,167	-0,115
-134,629	-120,250	-0,247	-0,030
-133,614	233,702	0,062	0,073
-132,599	663,375	0,066	-0,124
-131,585	108,724	0,024	-0,021
-130,570	-143,399	-0,109	-0,007
-129,556	411,162	-0,021	0,032
-128,541	-55,424	0,094	0,030
-127,526	95,043	-0,080	-0,065
-126,512	-200,000	-0,002	-0,015
-125,497	-166,349	-0,031	-0,001
-124,483	-200,000	0,022	-0,182
-123,468	202,402	0,074	0,082
-122,453	123,569	0,017	-0,015
-121,439	800,000	0,024	-0,072
-120,424	-200,000	0,007	-0,067
-119,410	-200,000	0,012	-0,107
-118,395	-148,948	-0,022	0,001
-117,380	-82,256	0,148	-0,034
-116,366	122,014	-0,012	0,011
-115,351	372,657	-0,090	-0,132
-114,337	-104,020	0,179	0,030
-113,322	-49,892	-0,026	0,009
-112,307	212,962	0,026	0,030
-111,293	39,981	0,082	0,053
-110,278	800,000	0,024	-0,070
-109,264	-126,158	0,053	-0,006
-108,249	354,544	-0,084	-0,121
-107,234	14,095	-0,056	-0,031
-106,220	800,000	-0,045	-0,122
-105,205	-200,000	0,024	-0,084
-104,191	800,000	-0,023	-0,062
-103,176	105,962	0,047	0,040
-102,162	471,158	-0,059	0,095
-101,147	250,638	-0,105	0,128
-100,132	800,000	-0,015	-0,041
-99,118	-125,518	-0,010	-0,001
-98,103	89,437	-0,033	0,026
-97,089	800,000	0,048	0,111
-96,074	-52,144	0,035	0,011
-95,059	360,872	-0,038	-0,055
-94,045	170,967	-0,027	-0,027
-93,030	-19,689	0,017	-0,007
-92,016	417,136	0,046	-0,070
-91,001	-200,000	0,007	0,054
-89,986	800,000	-0,056	-0,117
-88,972	-123,859	0,218	0,024
-87,957	-43,301	-0,046	0,017
-86,943	-19,125	-0,047	-0,021
-85,928	-115,075	-0,063	-0,008
-84,913	-200,000	0,028	-0,128
-83,899	-200,000	-0,003	-0,010
-82,884	-200,000	0,009	0,110
-81,870	-200,000	0,014	0,133
-80,855	57,673	-0,033	0,023
-79,840	-200,000	-0,016	-0,086
-78,826	42,010	0,091	0,059
-77,811	-14,791	-0,187	-0,086
-76,797	-32,059	0,105	-0,042
-75,782	-11,378	0,132	0,062
-74,767	-200,000	0,004	0,080
-73,753	477,436	0,064	-0,104
-72,738	509,668	0,011	-0,018
-71,724	-77,806	-0,060	-0,015
-70,709	37,646	0,095	0,060
-69,694	108,918	0,064	0,055
-68,680	800,000	-0,029	-0,068
-67,665	118,775	0,109	0,097
-66,651	109,775	-0,029	0,025
-65,636	-200,000	-0,020	-0,090
-64,622	-200,000	0,003	-0,028
-63,607	800,000	-0,027	-0,066
-62,592	-24,997	-0,097	-0,041
-61,578	-60,334	0,056	-0,017
-60,563	189,364	-0,057	0,061
-59,549	-200,000	-0,003	0,092
-58,534	41,482	-1,980	-1,283
-57,519	-200,000	-0,074	-0,839
-56,505	-200,000	-1,360	-5,003
-55,490	115,210	0,970	0,849
-54,476	800,000	5,083	11,531
-53,461	-200,000	17,937	290,765
-52,446	800,000	728,591	2225,096
-51,432	531,744	1640,840	2794,747
-50,417	108,661	1629,541	1395,924
-49,403	72,575	1282,980	958,810
-48,388	31,171	1025,669	629,776
-47,373	19,893	988,014	569,518
-46,359	18,271	975,936	557,225
-45,344	15,405	971,946	545,565
-44,330	15,607	970,725	545,518
-43,315	15,180	968,741	542,990
-42,300	15,072	967,664	542,012
-41,286	15,053	966,825	541,458
-40,271	15,124	965,344	540,837
-39,257	15,089	964,647	540,312
-38,242	15,158	963,784	540,030
-37,227	15,030	963,196	539,265
-36,213	15,085	962,186	538,856
-35,198	15,071	961,455	538,382
-34,184	15,152	960,501	538,086
-33,169	15,039	959,676	537,240
-32,154	15,092	958,857	536,931
-31,140	15,080	957,844	536,302
-30,125	15,140	957,181	536,103
-29,111	15,109	956,327	535,505
-28,096	15,098	955,619	535,050
-27,082	15,150	954,895	534,792
-26,067	15,157	954,105	534,351
-25,052	15,057	953,530	533,688
-24,038	15,107	952,811	533,424
-23,023	15,045	952,139	532,826
-22,009	15,110	951,650	532,739
-20,994	15,105	950,820	532,238
-19,979	15,129	950,215	531,956
-18,965	15,097	949,597	531,487
-17,950	15,046	949,133	531,044
-16,936	15,027	948,268	530,477
-15,921	15,036	947,693	530,164
-14,906	14,996	946,801	529,515
-13,892	15,022	946,255	529,272
-12,877	14,978	945,608	528,749
-11,863	14,921	945,107	528,266
-10,848	14,979	944,346	528,004
-9,833	15,095	944,016	528,166
-8,819	15,053	943,458	527,701
-7,804	14,987	942,831	527,119
-6,790	15,010	942,184	526,812
-5,775	15,018	941,860	526,633
-4,760	15,026	941,134	526,233
-3,746	15,025	940,211	525,692
-2,731	14,807	939,940	524,832
-1,717	14,846	939,003	524,409
-0,702	14,820	938,345	523,938
0,313	14,614	937,844	523,800
1,327	18,151	935,808	533,743
2,342	27,568	788,976	474,762
3,356	24,010	443,925	261,848
4,371	-5,850	295,273	144,353
5,386	-9,753	277,018	131,721
6,400	-10,845	271,286	127,970
7,415	-11,167	269,040	126,603
8,429	-11,187	267,560	125,877
9,444	-11,160	266,682	125,477
10,459	-11,288	266,018	125,037
11,473	-11,397	265,547	124,706
12,488	-11,395	264,882	124,384
13,502	-11,445	264,371	124,087
14,517	-11,518	264,060	123,865
15,531	-11,029	263,360	123,966
16,546	-11,140	263,246	123,801
17,561	-11,421	262,889	123,370
18,575	-11,202	262,526	123,385
19,590	-11,184	262,092	123,186
20,604	-11,322	261,932	122,976
21,619	-11,396	261,533	122,712
22,634	-11,275	261,245	122,674
23,648	-11,560	260,963	122,277
24,663	-11,292	260,523	122,298
25,677	-11,331	260,333	122,164
26,692	-11,426	260,135	121,975
27,707	-11,250	259,843	121,983
28,721	-11,354	259,427	121,685
29,736	-11,403	259,221	121,534
30,750	-11,398	258,985	121,417
31,765	-11,355	258,909	121,408
32,780	-11,647	258,583	120,987
33,794	-11,347	258,347	121,131
34,809	-11,546	258,102	120,830
35,823	-11,443	257,740	120,740
36,838	-11,442	257,530	120,632
37,853	-11,545	257,430	120,483
38,867	-11,352	256,983	120,433
39,882	-11,422	256,805	120,277
40,896	-11,316	256,696	120,308
41,911	-11,576	256,415	119,938
42,926	-11,410	256,237	119,989
43,940	-11,545	255,877	119,692
44,955	-11,596	255,720	119,564
45,969	-11,596	255,489	119,445
46,984	-11,842	255,289	119,126
47,999	-12,078	254,889	118,725
49,013	-12,244	254,631	118,450
50,028	-12,227	254,351	118,323
51,042	-12,500	254,180	117,996
52,057	-12,369	253,816	117,931
53,071	-12,263	253,792	118,001
54,086	-12,310	253,633	117,876
55,101	-12,189	253,400	117,861
56,115	-11,915	253,252	118,018
57,130	-11,348	253,104	118,428
58,144	-11,341	253,067	118,407
59,159	-11,233	252,808	118,367
60,174	-11,156	252,591	118,322
61,188	-11,327	252,392	118,070
62,203	-11,346	252,231	117,968
63,217	-11,130	251,821	117,952
64,232	-11,329	251,670	117,699
65,247	-11,475	251,435	117,454
66,261	-11,388	251,353	117,480
67,276	-11,568	250,990	117,146
68,290	-11,924	250,815	116,750
69,305	-11,720	250,579	116,804
70,320	-11,791	250,396	116,648
71,334	-11,341	250,256	116,956
72,349	-11,364	250,009	116,810
73,363	-11,076	249,839	116,965
74,378	-11,341	249,509	116,575
75,393	-11,316	249,368	116,520
76,407	-11,379	249,260	116,405
77,422	-11,270	249,100	116,413
78,436	-11,315	248,787	116,218
79,451	-11,278	248,561	116,134
80,466	-11,575	248,394	115,794
81,480	-11,586	248,105	115,640
82,495	-11,529	247,834	115,551
83,509	-11,522	247,744	115,504
84,524	-11,720	247,470	115,200
85,539	-11,644	247,354	115,200
86,553	-11,677	247,100	115,044
87,568	-11,644	246,831	114,936
88,582	-11,688	246,750	114,851
89,597	-11,787	246,693	114,731
90,611	-11,523	246,317	114,767
91,626	-11,481	246,292	114,780
92,641	-11,305	246,083	114,820
93,655	-11,427	245,877	114,612
94,670	-11,568	245,530	114,322
95,684	-11,522	245,403	114,291
96,699	-11,526	245,308	114,234
97,714	-11,595	245,223	114,126
98,728	-11,849	244,962	113,782
99,743	-11,725	244,529	113,674
100,757	-11,678	244,385	113,636
101,772	-11,730	244,187	113,491
102,787	-11,566	244,109	113,581
103,801	-11,582	243,887	113,454
104,816	-11,492	243,814	113,485
105,830	-11,220	243,536	113,569
106,845	-11,282	243,444	113,466
107,860	-11,474	243,205	113,186
108,874	-11,669	243,119	112,975
109,889	-11,485	242,808	112,971
110,903	-11,647	242,711	112,783
111,918	-11,680	242,367	112,586
112,933	-11,604	242,323	112,618
113,947	-11,587	242,189	112,560
114,962	-11,422	241,833	112,520
115,976	-11,481	241,775	112,434
116,991	-11,473	241,558	112,330
118,006	-11,280	241,310	112,362
119,020	-11,511	241,215	112,119
120,035	-11,274	241,199	112,295
121,049	-11,224	240,963	112,216
122,064	-11,386	240,820	112,007
123,079	-11,584	240,552	111,712
124,093	-11,614	240,277	111,549
125,108	-11,776	240,239	111,390
126,122	-11,795	239,850	111,185
127,137	-11,920	239,726	111,015
128,151	-11,964	239,526	110,877
129,166	-11,787	239,284	110,899
130,181	-11,778	239,128	110,824
131,195	-11,829	238,933	110,682
132,210	-11,745	238,824	110,690
133,224	-11,566	238,679	110,757
134,239	-11,474	238,586	110,779
135,254	-11,548	238,443	110,643
136,268	-11,530	238,119	110,497
137,283	-11,850	237,797	110,080
138,297	-11,936	237,491	109,860
139,312	-11,996	237,440	109,778
140,327	-11,692	237,507	110,043
141,341	-11,252	237,341	110,309
142,356	-11,262	237,179	110,217
143,370	-11,180	236,929	110,157
144,385	-11,203	236,806	110,071
145,400	-10,951	236,698	110,213
146,414	-11,105	236,443	109,961
147,429	-11,188	236,369	109,850
148,443	-11,298	236,234	109,690
149,458	-11,262	236,087	109,641
150,473	-11,383	236,024	109,505
151,487	-11,298	235,696	109,411
152,502	-11,347	235,619	109,327
153,516	-11,251	235,321	109,255
154,531	-11,269	235,148	109,151
155,546	-11,333	234,849	108,951
156,560	-11,418	234,862	108,880
157,575	-11,263	234,472	108,812
158,589	-11,393	234,378	108,656
159,604	-11,061	234,211	108,831
160,619	-10,929	234,182	108,913
161,633	-10,950	234,079	108,839
162,648	-11,135	234,019	108,654
163,662	-11,097	233,739	108,545
164,677	-11,133	233,473	108,384
165,692	-11,162	233,386	108,311
166,706	-11,000	233,359	108,416
167,721	-11,008	233,005	108,235
168,735	-10,795	232,827	108,311
169,750	-11,038	232,930	108,158
170,764	-11,235	232,652	107,864
171,779	-11,154	232,510	107,853
172,794	-10,880	232,466	108,037
173,808	-11,282	232,113	107,549
174,823	-11,856	231,792	106,942
175,837	-12,005	231,621	106,737
176,852	-11,301	231,596	107,266
177,867	-11,113	231,407	107,316
178,881	-11,123	231,414	107,301
179,896	-11,188	231,236	107,159
180,910	-10,963	231,059	107,242
181,925	-11,080	230,845	107,042
182,940	-11,294	230,759	106,827
183,954	-11,119	230,554	106,858
184,969	-11,042	230,554	106,908
185,983	-10,887	230,413	106,953
186,998	-10,957	230,269	106,823
188,013	-10,992	229,949	106,638
189,027	-10,710	229,755	106,757
190,042	-11,081	229,656	106,414
191,056	-10,858	229,447	106,480
192,071	-10,967	229,461	106,393
193,086	-10,896	229,159	106,299
194,100	-11,141	229,079	106,063
195,115	-11,556	228,719	105,568
196,129	-11,543	228,771	105,591
197,144	-6,434	230,309	110,249
198,159	-0,622	231,941	115,541
199,173	2,784	232,804	118,613
200,188	3,118	232,970	118,946
201,202	3,310	232,669	118,931
202,217	3,546	232,504	119,020
203,232	3,537	232,604	119,053
204,246	3,677	232,418	119,056
205,261	3,745	232,231	119,002
206,275	3,942	232,156	119,105
207,290	3,911	232,057	119,020
208,304	3,781	231,766	118,760
209,319	3,919	231,585	118,763
210,334	3,581	231,501	118,448
211,348	3,506	231,243	118,248
212,363	3,129	230,899	117,771
213,377	3,024	230,690	117,573
214,392	2,960	230,646	117,492
215,407	3,071	230,577	117,531
216,421	3,483	230,265	117,678
217,436	3,229	230,236	117,457
218,450	2,922	229,942	117,062
219,465	2,841	229,802	116,918
220,480	2,661	229,721	116,728
221,494	3,015	229,588	116,921
222,509	3,211	229,540	117,037
223,523	3,208	229,408	116,957
224,538	2,770	229,163	116,487
225,553	2,868	229,081	116,509
226,567	3,090	228,900	116,576
227,582	3,340	228,821	116,716
228,596	3,293	228,733	116,625
229,611	2,987	228,582	116,304
230,626	2,869	228,206	116,013
231,640	3,053	228,091	116,085
232,655	3,072	228,088	116,087
233,669	3,403	227,977	116,271
234,684	3,550	227,810	116,287
235,699	3,419	227,690	116,116
236,713	3,039	227,368	115,654
237,728	3,240	227,157	115,689
238,742	2,903	226,941	115,313
239,757	2,942	226,925	115,325
240,772	2,815	226,740	115,125
241,786	3,034	226,622	115,219
242,801	3,217	226,463	115,266
243,815	3,508	226,431	115,459
244,830	3,557	226,271	115,404
245,844	3,143	225,941	114,914
246,859	2,906	225,912	114,711
247,874	3,392	225,792	115,005
248,888	3,568	225,611	115,034
249,903	3,134	225,510	114,647
250,917	3,029	225,329	114,467
251,932	3,054	225,157	114,387
252,947	2,965	224,844	114,152
253,961	3,041	224,726	114,138
254,976	3,129	224,701	114,181
255,990	3,338	224,628	114,290
257,005	3,358	224,475	114,217
258,020	3,281	224,360	114,091
259,034	3,547	224,193	114,194
260,049	3,237	224,207	113,960
261,063	3,171	224,016	113,804
262,078	3,369	223,831	113,846
263,093	3,252	223,785	113,726
264,107	3,299	223,503	113,607
265,122	3,176	223,321	113,414
266,136	3,568	223,367	113,718
267,151	3,416	223,065	113,441
268,166	3,258	222,819	113,189
269,180	2,964	222,671	112,886
270,195	2,999	222,544	112,838
271,209	3,006	222,444	112,782
272,224	2,964	222,291	112,664
273,239	3,229	222,162	112,783
274,253	2,900	221,947	112,422
275,268	2,709	221,829	112,212
276,282	2,962	221,596	112,270
277,297	2,814	221,318	112,010
278,312	2,846	221,378	112,054
279,326	2,893	221,384	112,081
280,341	3,269	221,104	112,206
281,355	3,048	221,036	111,999
282,370	3,080	220,831	111,908
283,384	2,627	220,625	111,463
284,399	2,704	220,448	111,420
285,414	2,572	220,433	111,306
286,428	3,017	220,330	111,569
287,443	3,044	220,224	111,525
288,457	3,132	220,110	111,521
289,472	3,202	219,823	111,418
290,487	2,642	219,526	110,849
291,501	2,601	219,432	110,762
292,516	2,873	219,330	110,898
293,530	2,734	219,217	110,730
294,545	2,746	219,029	110,634
295,560	2,804	219,013	110,659
296,574	3,261	218,898	110,922
297,589	3,160	218,613	110,695
298,603	3,337	218,517	110,764
299,618	3,123	218,418	110,549
300,633	2,981	218,462	110,459
301,647	3,272	218,277	110,566
302,662	3,300	218,181	110,527
303,676	3,291	217,913	110,375
304,691	3,078	218,067	110,290
305,706	3,257	217,686	110,216
306,720	3,048	217,605	110,015
307,735	3,141	217,273	109,905
308,749	3,010	217,163	109,744
309,764	2,909	217,170	109,666
310,779	3,199	217,009	109,783
311,793	3,277	216,887	109,767
312,808	3,002	216,763	109,498
313,822	2,923	216,601	109,349
314,837	3,193	216,332	109,397
315,852	2,880	216,197	109,096
316,866	3,043	216,157	109,182
317,881	3,016	216,038	109,093
318,895	3,263	215,870	109,174
319,910	3,153	215,704	109,002
320,925	2,820	215,466	108,635
321,939	2,356	215,369	108,246
322,954	2,729	215,219	108,427
323,968	3,251	215,083	108,720
324,983	3,248	215,042	108,687
325,997	3,198	215,030	108,636
327,012	2,973	214,845	108,373
328,027	3,029	214,732	108,345
329,041	3,424	214,638	108,568
330,056	3,478	214,457	108,505
331,070	3,004	214,181	108,021
332,085	2,709	213,846	107,635
333,100	2,565	213,804	107,501
334,114	2,956	213,701	107,716
335,129	3,170	213,634	107,824
336,143	3,100	213,521	107,708
337,158	3,081	213,283	107,564
338,173	2,830	213,172	107,323
339,187	2,951	213,069	107,347
340,202	2,749	212,805	107,062
341,216	2,925	212,692	107,119
342,231	2,950	212,693	107,128
343,246	2,911	212,556	107,022
344,260	3,095	212,359	107,042
345,275	2,979	212,448	106,996
346,289	3,513	212,152	107,211
347,304	3,342	212,034	107,022
348,319	3,109	211,756	106,709
349,333	2,886	211,719	106,526
350,348	3,120	211,646	106,642
351,362	3,431	211,599	106,826
352,377	3,381	211,372	106,667
353,392	3,038	211,280	106,373
354,406	3,094	211,098	106,310
355,421	194,499	1339,885	1413,619
356,435	155,312	1477,375	1413,569
