DTS Sentinel unit serial number:	SN410029Multiplexer serial number:	ORYXHardware model number:	OX2-SRSoftware version number:	ORYX F/W v4,00 Oryx Data Collector v3.7.2.0data status	okinstallation	B6 Nyhavnadifferential loss correction	single-endedforward channel	channel 2reverse channel	N/Adate	2023/12/09time	14:55:08forward acquisition time	300,00reverse acquisition time	0,00gamma	499,1914k internal	0,3133k external	0,3133temperature offset calibration	1,0000default loss term (dB/km)	0,3820temperature slope calibration	1,0000multiplexer offset coefficient	1,0000multiplexer slope coefficient	1,0000fibre end	0,00T internal ref (°C)	20,56T ext. ref 1 (°C)	4,30T ext. ref 2 (°C)	4,31length (m)	temperature (°C)	Stokes	anti-Stokes-744,400	5,052	0,043	-0,023
-743,385	-17,169	-0,187	0,087
-742,371	600,414	0,061	0,114
-741,356	85,122	-0,112	0,091
-740,342	-147,163	0,058	-0,004
-739,327	-47,946	-0,234	0,084
-738,312	800,000	-0,069	-0,157
-737,298	-114,288	-0,287	-0,041
-736,283	416,260	0,082	0,130
-735,269	43,225	-0,236	0,160
-734,254	87,685	0,010	-0,008
-733,239	-116,503	-0,310	-0,042
-732,225	41,994	0,149	0,100
-731,210	-25,856	-0,140	0,061
-730,196	187,751	0,062	-0,069
-729,181	800,000	0,044	-0,099
-728,167	57,591	0,047	0,034
-727,152	625,815	0,085	-0,159
-726,137	800,000	-0,035	-0,103
-725,123	-200,000	-0,004	-0,044
-724,108	-200,000	-0,011	-0,049
-723,094	-200,000	0,011	0,040
-722,079	800,000	0,066	-0,161
-721,064	85,420	-0,186	-0,152
-720,050	-36,133	-0,147	-0,059
-719,035	-48,809	-0,111	-0,039
-718,021	129,727	-0,081	-0,077
-717,006	172,075	0,003	0,003
-715,991	57,718	-0,012	0,009
-714,977	-200,000	0,022	-0,181
-713,962	259,737	-0,044	-0,057
-712,948	-165,420	-0,038	-0,001
-711,933	-200,000	-0,025	0,157
-710,918	479,600	0,022	-0,038
-709,904	17,857	0,089	-0,052
-708,889	41,809	-0,108	-0,073
-707,875	-174,415	-0,060	0,001
-706,860	-200,000	-0,006	-0,216
-705,845	-109,225	0,028	0,004
-704,831	267,193	0,062	0,081
-703,816	-200,000	-0,026	-0,098
-702,802	-200,000	-0,023	-0,129
-701,787	-200,000	-0,015	-0,093
-700,772	800,000	0,027	-0,061
-699,758	-200,000	0,013	-0,057
-698,743	800,000	-0,044	0,115
-697,729	-20,205	0,059	-0,027
-696,714	55,503	0,151	0,108
-695,699	517,366	0,007	-0,012
-694,685	800,000	0,022	-0,069
-693,670	723,257	-0,058	-0,114
-692,656	-10,281	0,079	-0,039
-691,641	800,000	0,048	-0,120
-690,627	-200,000	0,003	0,067
-689,612	-200,000	-0,009	-0,056
-688,597	-22,667	-0,083	0,037
-687,583	74,049	0,029	0,023
-686,568	711,842	0,053	-0,105
-685,554	791,731	0,025	-0,050
-684,539	-200,000	0,014	-0,045
-683,524	250,353	0,096	-0,122
-682,510	154,878	0,075	-0,076
-681,495	-48,967	-0,163	-0,058
-680,481	-200,000	-0,009	-0,057
-679,466	33,757	-0,031	0,020
-678,451	-77,771	0,126	-0,032
-677,437	800,000	-0,017	-0,056
-676,422	66,247	0,141	0,106
-675,408	800,000	-0,038	-0,085
-674,393	-200,000	0,004	-0,104
-673,378	-200,000	-0,008	0,070
-672,364	-109,445	0,023	0,004
-671,349	106,433	-0,034	0,030
-670,335	-200,000	-0,006	-0,093
-669,320	-200,000	0,009	-0,150
-668,305	-168,623	0,031	0,001
-667,291	-188,470	-0,016	-0,000
-666,276	381,132	-0,017	0,025
-665,262	-200,000	-0,006	-0,083
-664,247	255,162	0,076	-0,096
-663,232	-200,000	0,035	-0,116
-662,218	42,842	-0,152	0,102
-661,203	-200,000	-0,004	0,035
-660,189	56,468	0,061	0,044
-659,174	-151,469	0,033	-0,002
-658,159	231,300	-0,053	-0,064
-657,145	164,001	-0,091	-0,095
-656,130	800,000	0,140	-0,296
-655,116	84,885	-0,067	-0,055
-654,101	-200,000	0,001	0,027
-653,086	-200,000	-0,020	-0,072
-652,072	-200,000	0,037	-0,200
-651,057	-200,000	-0,012	-0,049
-650,043	603,872	0,029	-0,054
-649,028	577,816	0,072	-0,131
-648,014	-84,379	-0,039	0,009
-646,999	0,064	0,114	0,060
-645,984	-151,879	0,148	0,008
-644,970	255,631	-0,010	0,012
-643,955	800,000	-0,037	-0,085
-642,941	-101,501	0,115	-0,020
-641,926	800,000	-0,015	-0,045
-640,911	-51,873	0,136	0,046
-639,897	-18,255	-0,016	0,008
-638,882	197,230	0,071	0,080
-637,868	156,525	0,090	-0,092
-636,853	-64,508	-0,170	-0,051
-635,838	-10,713	-0,104	0,051
-634,824	-200,000	-0,017	-0,139
-633,809	112,443	0,041	-0,037
-632,795	-54,370	0,036	0,012
-631,780	213,151	-0,033	0,039
-630,765	-87,339	0,097	0,022
-629,751	-200,000	0,009	-0,166
-628,736	-200,000	-0,010	-0,116
-627,722	178,908	-0,080	-0,087
-626,707	-120,614	-0,151	0,019
-625,692	-161,608	0,070	-0,003
-624,678	55,934	-0,059	0,043
-623,663	800,000	0,043	-0,102
-622,649	324,329	-0,081	-0,115
-621,634	60,722	-0,136	-0,100
-620,619	34,612	-0,033	-0,021
-619,605	2,492	-0,079	-0,042
-618,590	27,441	-0,056	-0,035
-617,576	800,000	0,030	0,068
-616,561	220,026	-0,085	0,101
-615,546	764,253	0,026	0,052
-614,532	75,229	-0,093	-0,073
-613,517	-53,662	0,042	-0,014
-612,503	800,000	-0,029	-0,077
-611,488	-114,363	0,072	-0,010
-610,474	41,057	0,044	-0,029
-609,459	413,583	-0,046	-0,072
-608,444	357,504	-0,020	0,030
-607,430	100,942	0,030	0,026
-606,415	62,032	-0,059	-0,044
-605,401	83,441	-0,100	-0,081
-604,386	-200,000	0,035	0,173
-603,371	78,080	-0,073	0,057
-602,357	-99,500	-0,035	-0,006
-601,342	-200,000	0,012	0,075
-600,328	469,277	0,011	0,019
-599,313	-30,088	0,141	-0,059
-598,298	-200,000	-0,101	-0,000
-597,284	800,000	0,030	-0,086
-596,269	500,152	-0,021	0,036
-595,255	-72,910	-0,135	0,036
-594,240	444,372	0,018	-0,030
-593,225	-127,996	-0,009	-0,001
-592,211	-200,000	0,011	-0,037
-591,196	-70,383	0,229	0,064
-590,182	407,161	0,015	-0,024
-589,167	-113,201	0,122	0,018
-588,152	-39,019	0,062	0,024
-587,138	-168,527	0,051	-0,001
-586,123	194,551	-0,049	-0,055
-585,109	415,305	0,029	0,046
-584,094	-42,574	-0,154	-0,058
-583,079	-82,570	0,039	-0,009
-582,065	202,320	0,086	-0,098
-581,050	5,248	0,150	-0,082
-580,036	35,915	-0,050	-0,033
-579,021	139,608	-0,018	-0,018
-578,006	-164,086	-0,046	-0,002
-576,992	606,613	0,060	-0,110
-575,977	187,212	-0,027	-0,030
-574,963	-77,625	0,180	-0,046
-573,948	-200,000	-0,007	-0,066
-572,934	327,712	-0,041	0,058
-571,919	99,019	-0,021	-0,018
-570,904	800,000	0,041	-0,132
-569,890	-200,000	0,018	-0,079
-568,875	60,274	0,096	-0,070
-567,861	-158,502	0,115	0,005
-566,846	-69,945	-0,019	-0,005
-565,831	353,768	-0,028	0,041
-564,817	407,025	0,045	-0,070
-563,802	-200,000	0,020	-0,095
-562,788	-200,000	-0,006	0,035
-561,773	-160,046	-0,076	0,003
-560,758	-200,000	-0,000	-0,067
-559,744	294,403	0,041	0,056
-558,729	800,000	0,016	-0,049
-557,715	20,121	0,058	0,035
-556,700	479,442	-0,039	0,066
-555,685	800,000	-0,016	-0,047
-554,671	-42,741	0,129	-0,048
-553,656	693,348	-0,023	-0,046
-552,642	19,147	-0,124	0,073
-551,627	-129,789	0,062	0,006
-550,612	-200,000	0,024	-0,103
-549,598	85,939	-0,115	-0,093
-548,583	97,883	0,023	-0,019
-547,569	60,318	-0,040	-0,029
-546,554	-97,484	0,026	-0,005
-545,539	-200,000	-0,039	0,139
-544,525	429,954	-0,038	0,061
-543,510	-108,872	0,020	0,003
-542,496	800,000	0,015	-0,048
-541,481	21,282	-0,061	-0,037
-540,466	452,979	0,031	-0,050
-539,452	123,341	-0,021	0,019
-538,437	109,926	-0,114	0,101
-537,423	39,852	0,061	0,040
-536,408	-86,821	0,031	-0,007
-535,393	258,383	0,034	-0,043
-534,379	800,000	-0,028	-0,089
-533,364	-200,000	0,011	0,224
-532,350	-186,381	-0,032	-0,000
-531,335	4,414	0,055	0,030
-530,321	-44,154	-0,024	-0,009
-529,306	297,530	-0,061	-0,083
-528,291	-136,226	-0,053	0,005
-527,277	800,000	0,048	-0,103
-526,262	-200,000	-0,002	0,042
-525,248	-200,000	0,013	0,057
-524,233	85,429	0,132	0,106
-523,218	-200,000	-0,010	0,041
-522,204	592,093	0,062	0,114
-521,189	-200,000	-0,043	-0,152
-520,175	-79,929	0,111	-0,027
-519,160	215,161	0,039	-0,046
-518,145	20,074	-0,093	0,055
-517,131	411,198	0,056	0,087
-516,116	29,593	0,036	0,022
-515,102	257,216	-0,033	0,041
-514,087	800,000	-0,096	-0,224
-513,072	185,894	0,112	-0,123
-512,058	800,000	-0,064	-0,195
-511,043	-200,000	-0,025	-0,183
-510,029	-57,122	0,044	-0,014
-509,014	-47,517	-0,063	0,023
-507,999	100,807	0,047	0,041
-506,985	34,003	-0,023	0,015
-505,970	800,000	0,049	-0,155
-504,956	-200,000	-0,005	-0,087
-503,941	584,463	0,010	-0,018
-502,926	632,036	0,020	0,038
-501,912	45,651	0,085	0,057
-500,897	-200,000	-0,019	0,104
-499,883	235,257	-0,054	0,065
-498,868	331,790	0,057	-0,081
-497,853	-200,000	0,002	0,030
-496,839	-200,000	-0,028	0,259
-495,824	-88,307	0,157	-0,034
-494,810	216,866	-0,117	-0,137
-493,795	257,562	-0,060	-0,076
-492,781	800,000	-0,042	0,124
-491,766	-127,359	0,075	0,008
-490,751	85,022	-0,077	-0,062
-489,737	93,914	0,121	-0,101
-488,722	-87,507	-0,150	-0,033
-487,708	-2,240	0,080	0,041
-486,693	-48,943	0,053	0,019
-485,678	118,134	-0,055	-0,050
-484,664	78,791	0,090	-0,071
-483,649	660,844	-0,075	-0,143
-482,635	-200,000	-0,006	-0,053
-481,620	-200,000	-0,018	0,060
-480,605	-200,000	0,030	-0,100
-479,591	98,274	-0,048	0,040
-478,576	-69,340	-0,185	0,052
-477,562	-95,368	-0,039	-0,008
-476,547	-200,000	0,029	-0,098
-475,532	-82,741	0,125	-0,030
-474,518	158,609	0,104	0,106
-473,503	402,813	0,016	0,024
-472,489	-170,151	0,037	0,001
-471,474	244,373	-0,109	-0,135
-470,459	-200,000	-0,050	0,191
-469,445	45,845	-0,050	-0,034
-468,430	-53,243	-0,119	-0,040
-467,416	500,881	0,027	-0,046
-466,401	-45,682	0,105	-0,038
-465,386	800,000	0,072	0,149
-464,372	299,033	-0,054	-0,073
-463,357	-200,000	-0,034	-0,124
-462,343	105,983	0,025	-0,022
-461,328	-200,000	0,029	-0,133
-460,313	-103,135	0,050	-0,009
-459,299	-119,089	-0,052	-0,007
-458,284	-68,240	0,092	-0,026
-457,270	-200,000	0,001	0,150
-456,255	-39,034	0,042	-0,016
-455,241	-39,706	-0,130	-0,050
-454,226	183,486	-0,017	-0,019
-453,211	36,072	0,052	-0,034
-452,197	-46,490	0,110	-0,040
-451,182	-66,061	0,070	0,020
-450,168	63,866	-0,133	0,098
-449,153	-200,000	0,009	-0,102
-448,138	106,550	-0,032	0,028
-447,124	187,460	-0,010	-0,011
-446,109	218,551	0,103	0,121
-445,095	31,141	0,138	0,087
-444,080	800,000	-0,022	0,064
-443,065	31,195	0,112	0,071
-442,051	-54,922	0,040	-0,013
-441,036	-200,000	-0,011	0,074
-440,022	-105,182	-0,129	0,021
-439,007	532,728	-0,051	0,088
-437,992	140,650	0,066	0,064
-436,978	-200,000	0,015	-0,049
-435,963	-189,946	-0,045	-0,000
-434,949	226,778	-0,071	0,084
-433,934	86,522	0,097	-0,079
-432,919	196,022	-0,153	-0,171
-431,905	800,000	0,062	-0,194
-430,890	174,824	0,055	0,059
-429,876	649,261	0,038	0,071
-428,861	-200,000	0,002	0,048
-427,846	800,000	0,031	-0,098
-426,832	800,000	-0,031	-0,083
-425,817	63,870	0,081	-0,060
-424,803	267,245	0,008	0,010
-423,788	800,000	-0,025	-0,075
-422,773	-200,000	0,008	0,092
-421,759	536,360	0,023	0,040
-420,744	13,195	0,073	0,041
-419,730	-200,000	0,010	0,046
-418,715	-23,323	0,083	-0,036
-417,701	83,933	-0,071	0,057
-416,686	153,352	-0,070	0,070
-415,671	-137,661	0,254	0,021
-414,657	-84,139	0,115	0,027
-413,642	727,411	0,026	-0,051
-412,628	107,400	-0,033	0,029
-411,613	-200,000	-0,032	-0,131
-410,598	284,084	-0,086	-0,114
-409,584	316,819	0,028	-0,040
-408,569	-165,920	0,211	-0,006
-407,555	-38,386	0,087	0,033
-406,540	-65,582	-0,080	0,023
-405,525	-200,000	0,002	-0,066
-404,511	131,743	-0,016	-0,016
-403,496	-200,000	0,019	-0,120
-402,482	107,421	-0,010	-0,009
-401,467	800,000	0,030	-0,069
-400,452	-200,000	-0,007	0,065
-399,438	666,230	-0,025	0,047
-398,423	800,000	-0,052	0,131
-397,409	-200,000	-0,009	0,105
-396,394	-108,422	-0,119	-0,019
-395,379	26,948	-0,050	-0,030
-394,365	800,000	0,048	0,134
-393,350	-97,130	0,152	0,029
-392,336	317,014	0,041	0,057
-391,321	493,928	-0,050	0,085
-390,306	-37,811	-0,151	-0,059
-389,292	-200,000	0,024	-0,102
-388,277	239,194	0,089	-0,109
-387,263	-200,000	0,027	0,128
-386,248	-44,604	0,122	-0,044
-385,233	800,000	0,016	0,043
-384,219	276,660	-0,089	0,116
-383,204	1,382	-0,030	0,016
-382,190	800,000	-0,064	-0,134
-381,175	253,683	-0,011	0,014
-380,160	800,000	0,072	0,190
-379,146	800,000	0,055	0,137
-378,131	159,828	0,028	0,029
-377,117	198,548	-0,079	-0,089
-376,102	550,558	-0,028	0,050
-375,088	87,125	-0,105	-0,085
-374,073	800,000	-0,056	-0,150
-373,058	-93,053	0,062	0,012
-372,044	-87,141	-0,089	-0,020
-371,029	-34,054	0,099	0,040
-370,015	-143,625	0,102	0,007
-369,000	-200,000	0,027	-0,121
-367,985	-35,865	-0,086	-0,034
-366,971	-200,000	-0,007	-0,061
-365,956	800,000	0,046	0,099
-364,942	-200,000	0,001	0,070
-363,927	-200,000	-0,014	0,106
-362,912	-118,637	-0,105	0,013
-361,898	375,873	-0,051	-0,076
-360,883	135,568	-0,097	-0,092
-359,869	-70,664	-0,056	0,015
-358,854	-200,000	-0,032	0,203
-357,839	-99,395	-0,082	-0,015
-356,825	170,652	-0,092	0,097
-355,810	-116,314	0,076	0,010
-354,796	-200,000	-0,007	0,115
-353,781	151,651	0,064	-0,064
-352,766	-30,910	0,042	-0,017
-351,752	7,633	-0,094	0,051
-350,737	800,000	0,012	0,024
-349,723	126,900	-0,128	0,119
-348,708	-125,336	-0,070	0,008
-347,693	-126,328	0,079	-0,009
-346,679	-99,080	-0,090	-0,017
-345,664	453,985	-0,062	0,100
-344,650	-77,860	0,113	0,028
-343,635	181,517	0,019	0,020
-342,620	-77,116	-0,054	0,014
-341,606	531,263	0,038	0,065
-340,591	-200,000	0,004	-0,033
-339,577	592,064	0,036	-0,066
-338,562	-26,073	-0,079	-0,034
-337,548	101,918	0,091	-0,078
-336,533	273,619	0,104	0,135
-335,518	569,497	0,060	0,107
-334,504	137,666	-0,036	-0,034
-333,489	86,572	0,074	-0,060
-332,475	800,000	0,063	-0,168
-331,460	-175,079	-0,109	-0,002
-330,445	-74,750	-0,033	0,009
-329,431	-75,054	0,135	-0,035
-328,416	10,411	0,114	0,063
-327,402	-107,279	0,202	0,032
-326,387	-200,000	-0,013	-0,056
-325,372	120,605	-0,027	0,024
-324,358	-3,023	-0,094	0,048
-323,343	59,222	-0,075	-0,054
-322,329	241,534	-0,085	-0,105
-321,314	7,566	0,034	0,019
-320,299	800,000	-0,024	0,064
-319,285	800,000	-0,049	-0,135
-318,270	-200,000	0,036	-0,178
-317,256	-39,674	-0,036	0,014
-316,241	263,408	-0,038	0,048
-315,226	-200,000	-0,001	0,028
-314,212	60,298	-0,092	0,067
-313,197	800,000	0,018	0,051
-312,183	3,788	-0,044	0,023
-311,168	-200,000	0,022	0,082
-310,153	800,000	-0,012	0,025
-309,139	441,641	-0,039	0,063
-308,124	-45,713	0,017	0,006
-307,110	-200,000	-0,004	-0,102
-306,095	751,941	-0,067	0,132
-305,080	249,897	-0,096	0,119
-304,066	-190,868	0,139	0,001
-303,051	-130,314	-0,089	0,009
-302,037	12,900	0,064	0,036
-301,022	60,675	0,139	0,100
-300,008	-86,661	0,030	-0,007
-298,993	260,205	-0,040	-0,051
-297,978	598,643	-0,012	-0,022
-296,964	-200,000	0,011	-0,115
-295,949	-50,172	0,036	0,012
-294,935	-200,000	-0,039	0,125
-293,920	800,000	0,012	-0,030
-292,905	800,000	0,005	-0,015
-291,891	-63,227	0,069	0,021
-290,876	-200,000	-0,001	-0,073
-289,862	442,919	-0,033	0,054
-288,847	-200,000	-0,047	-0,171
-287,832	800,000	-0,033	-0,096
-286,818	241,826	0,019	0,023
-285,803	460,303	-0,036	-0,059
-284,789	-200,000	-0,013	-0,075
-283,774	-0,679	0,075	-0,039
-282,759	-200,000	-0,008	0,041
-281,745	-200,000	-0,001	-0,053
-280,730	-200,000	-0,034	-0,118
-279,716	-200,000	-0,012	0,102
-278,701	486,382	0,028	-0,046
-277,686	-200,000	0,014	-0,073
-276,672	-200,000	0,045	0,178
-275,657	168,219	-0,033	0,035
-274,643	-200,000	0,014	-0,132
-273,628	28,949	-0,084	0,052
-272,613	326,208	-0,024	-0,033
-271,599	684,693	0,043	0,082
-270,584	201,419	0,078	0,088
-269,570	793,599	-0,017	-0,033
-268,555	453,016	-0,058	-0,094
-267,540	70,229	-0,045	-0,034
-266,526	-200,000	-0,006	-0,130
-265,511	-200,000	0,025	0,119
-264,497	800,000	0,019	-0,044
-263,482	800,000	0,094	0,191
-262,467	800,000	-0,036	0,100
-261,453	-107,166	-0,129	-0,021
-260,438	137,290	0,062	0,059
-259,424	80,213	0,049	0,038
-258,409	10,770	-0,129	0,072
-257,395	752,555	-0,052	0,102
-256,380	304,365	-0,055	0,074
-255,365	-97,693	0,038	-0,007
-254,351	-98,966	-0,107	0,020
-253,336	101,239	0,024	-0,020
-252,322	-200,000	0,011	-0,060
-251,307	121,525	-0,073	0,066
-250,292	-94,430	-0,105	-0,021
-249,278	450,890	-0,010	0,017
-248,263	23,394	-0,053	0,031
-247,249	237,941	0,095	-0,115
-246,234	-74,781	-0,092	-0,024
-245,219	-18,822	-0,046	-0,021
-244,205	-86,404	-0,109	-0,024
-243,190	-149,865	0,085	-0,005
-242,176	48,151	0,076	0,052
-241,161	-72,186	-0,077	0,021
-240,146	800,000	-0,020	0,056
-239,132	794,647	0,071	0,143
-238,117	182,784	0,055	-0,059
-237,103	-65,019	-0,173	0,051
-236,088	243,659	0,053	0,065
-235,073	-150,216	-0,050	0,003
-234,059	28,299	0,110	0,068
-233,044	617,492	0,058	0,107
-232,030	320,675	-0,028	0,039
-231,015	-200,000	-0,036	-0,132
-230,000	45,264	0,120	0,081
-228,986	800,000	0,057	0,133
-227,971	254,340	-0,031	-0,038
-226,957	106,848	-0,037	-0,032
-225,942	55,524	-0,053	-0,037
-224,927	-1,070	-0,026	-0,013
-223,913	-4,422	-0,037	0,019
-222,898	134,748	-0,081	0,076
-221,884	-200,000	-0,013	0,095
-220,869	234,535	0,065	-0,079
-219,855	-32,434	0,084	0,034
-218,840	17,495	-0,104	0,060
-217,825	800,000	-0,002	-0,004
-216,811	102,143	-0,159	-0,135
-215,796	800,000	-0,043	0,134
-214,782	25,023	0,054	0,032
-213,767	3,009	-0,111	0,059
-212,752	-121,421	0,155	-0,019
-211,738	-200,000	0,001	0,051
-210,723	-84,525	0,084	0,019
-209,709	800,000	-0,071	-0,147
-208,694	-200,000	0,010	-0,035
-207,679	19,702	-0,085	-0,050
-206,665	-21,026	0,073	0,032
-205,650	108,058	0,153	0,133
-204,636	-200,000	0,053	0,185
-203,621	320,327	0,087	0,120
-202,606	-200,000	0,023	-0,112
-201,592	800,000	-0,025	0,065
-200,577	800,000	-0,052	-0,155
-199,563	669,635	-0,017	0,033
-198,548	-152,855	0,171	-0,009
-197,533	210,098	-0,124	0,142
-196,519	-147,528	0,049	0,003
-195,504	393,608	-0,005	0,008
-194,490	269,845	-0,058	-0,074
-193,475	378,186	0,076	-0,113
-192,460	112,431	0,104	-0,091
-191,446	-200,000	0,008	0,056
-190,431	249,674	0,036	0,044
-189,417	800,000	0,014	0,043
-188,402	31,306	-0,082	0,051
-187,387	-200,000	0,003	-0,036
-186,373	-43,706	-0,075	0,027
-185,358	501,891	0,056	0,095
-184,344	24,420	0,070	0,042
-183,329	-158,782	-0,018	0,001
-182,315	382,167	0,025	0,037
-181,300	-115,717	-0,112	0,015
-180,285	278,420	-0,062	-0,081
-179,271	-78,647	0,109	-0,027
-178,256	150,127	0,041	0,041
-177,242	304,837	0,060	-0,081
-176,227	800,000	-0,038	0,080
-175,212	118,299	-0,106	-0,095
-174,198	461,433	0,099	-0,160
-173,183	414,769	-0,062	-0,097
-172,169	369,814	-0,040	0,060
-171,154	-63,819	-0,089	0,026
-170,139	527,142	0,023	0,039
-169,125	125,441	-0,073	0,067
-168,110	83,598	-0,053	0,042
-167,096	100,894	-0,007	0,006
-166,081	225,652	-0,071	0,083
-165,066	-10,436	-0,161	-0,077
-164,052	-18,988	0,095	0,043
-163,037	45,048	-0,110	0,074
-162,023	147,669	0,089	0,088
-161,008	-200,000	-0,008	0,134
-159,993	-200,000	0,004	-0,030
-158,979	-89,966	-0,090	-0,019
-157,964	-150,026	-0,096	-0,005
-156,950	220,538	-0,083	0,097
-155,935	-66,527	0,057	0,016
-154,920	-200,000	0,003	0,172
-153,906	800,000	-0,020	0,048
-152,891	-200,000	-0,020	0,080
-151,877	14,448	-0,110	-0,062
-150,862	-200,000	-0,042	-0,168
-149,847	20,678	0,106	-0,062
-148,833	-200,000	-0,003	-0,183
-147,818	-8,350	0,076	-0,037
-146,804	305,605	-0,028	0,037
-145,789	730,345	0,033	0,065
-144,775	344,279	-0,092	0,132
-143,760	-68,086	-0,156	-0,044
-142,745	423,662	-0,056	-0,088
-141,731	-66,456	0,053	-0,015
-140,716	110,708	0,155	0,135
-139,702	142,312	0,037	-0,035
-138,687	800,000	-0,006	-0,014
-137,672	-106,302	-0,112	-0,018
-136,658	-200,000	0,009	-0,050
-135,643	-153,937	-0,061	-0,003
-134,629	94,430	-0,067	0,055
-133,614	-200,000	-0,025	0,145
-132,599	-5,894	-0,050	0,025
-131,585	189,941	-0,110	-0,120
-130,570	-20,706	-0,064	0,028
-129,556	-200,000	-0,020	-0,205
-128,541	800,000	-0,088	-0,200
-127,526	-0,940	0,050	-0,026
-126,512	59,740	-0,134	0,096
-125,497	74,566	0,021	0,016
-124,483	266,030	0,027	0,034
-123,468	576,471	0,096	-0,170
-122,453	-200,000	0,003	0,040
-121,439	72,569	-0,072	-0,054
-120,424	23,174	0,053	-0,032
-119,410	123,551	0,051	-0,046
-118,395	-2,218	0,140	-0,071
-117,380	-75,470	0,085	-0,022
-116,366	92,040	-0,162	0,133
-115,351	-180,080	-0,204	-0,003
-114,337	800,000	0,031	-0,082
-113,322	63,672	0,046	0,033
-112,307	-116,664	0,046	0,006
-111,293	74,235	-0,087	-0,066
-110,278	44,815	-0,029	0,019
-109,264	-93,157	-0,109	-0,022
-108,249	-200,000	0,017	0,107
-107,234	-57,553	-0,050	-0,016
-106,220	203,864	-0,068	0,077
-105,205	129,056	-0,041	0,038
-104,191	15,947	-0,057	-0,032
-103,176	-200,000	0,003	-0,029
-102,162	-54,322	0,087	0,028
-101,147	-200,000	-0,021	-0,119
-100,132	27,330	-0,024	-0,014
-99,118	800,000	-0,040	0,108
-98,103	-200,000	0,009	-0,063
-97,089	107,239	0,052	-0,044
-96,074	-137,778	0,109	-0,009
-95,059	-200,000	0,012	-0,099
-94,045	800,000	0,030	-0,095
-93,030	-64,574	0,080	-0,023
-92,016	-200,000	-0,024	-0,110
-91,001	276,801	0,054	0,070
-89,986	800,000	0,108	0,237
-88,972	177,434	-0,048	-0,051
-87,957	206,136	-0,079	-0,089
-86,943	-200,000	-0,018	0,170
-85,928	10,201	0,029	0,016
-84,913	-200,000	-0,005	-0,130
-83,899	800,000	0,051	-0,107
-82,884	800,000	-0,030	0,080
-81,870	-47,257	-0,086	-0,030
-80,855	12,622	-0,076	-0,042
-79,840	-200,000	-0,021	0,136
-78,826	-200,000	0,005	-0,108
-77,811	61,486	-0,078	0,056
-76,797	510,994	-0,037	-0,062
-75,782	183,937	0,151	0,162
-74,767	68,027	-0,066	0,049
-73,753	-112,835	-0,040	-0,006
-72,738	276,013	0,034	0,043
-71,724	-200,000	-0,020	-0,076
-70,709	800,000	0,025	0,056
-69,694	-200,000	0,012	0,093
-68,680	-200,000	-0,016	0,074
-67,665	800,000	0,013	0,032
-66,651	-200,000	0,063	0,218
-65,636	-0,941	-0,037	0,019
-64,622	-200,000	-0,006	-0,067
-63,607	176,421	0,041	-0,043
-62,592	-200,000	-0,019	0,062
-61,578	234,972	0,032	-0,038
-60,563	-103,582	0,140	0,023
-59,549	717,785	0,038	0,074
-58,534	-90,539	-1,575	-0,327
-57,519	725,070	-0,703	-1,363
-56,505	-200,000	-0,929	-4,561
-55,490	-75,310	0,524	-0,134
-54,476	800,000	5,050	11,856
-53,461	-200,000	14,572	262,394
-52,446	-200,000	697,152	2238,575
-51,432	565,772	1621,858	2856,746
-50,417	118,920	1629,095	1456,324
-49,403	76,396	1282,923	982,257
-48,388	37,451	1022,069	654,214
-47,373	22,929	981,853	580,811
-46,359	22,058	970,962	571,496
-45,344	20,804	966,802	564,935
-44,330	20,853	965,422	564,266
-43,315	20,671	964,020	562,831
-42,300	20,674	962,778	562,094
-41,286	20,611	962,056	561,446
-40,271	20,592	960,944	560,711
-39,257	20,597	959,976	560,140
-38,242	20,594	959,149	559,627
-37,227	20,602	958,307	559,139
-36,213	20,572	957,402	558,493
-35,198	20,543	956,398	557,792
-34,184	20,667	955,707	557,766
-33,169	20,541	954,914	556,875
-32,154	20,564	953,990	556,388
-31,140	20,638	953,012	556,032
-30,125	20,666	952,282	555,677
-29,111	20,623	951,456	555,034
-28,096	20,634	950,737	554,629
-27,082	20,602	950,083	554,120
-26,067	20,589	949,306	553,603
-25,052	20,608	948,584	553,222
-24,038	20,503	948,069	552,562
-23,023	20,537	947,421	552,273
-22,009	20,542	946,734	551,865
-20,994	20,645	946,035	551,766
-19,979	20,674	945,462	551,502
-18,965	20,562	944,969	550,837
-17,950	20,626	944,197	550,567
-16,936	20,572	943,552	549,999
-15,921	20,579	942,866	549,597
-14,906	20,504	942,172	548,933
-13,892	20,506	941,444	548,493
-12,877	20,444	940,916	547,968
-11,863	20,434	940,380	547,601
-10,848	20,529	939,794	547,542
-9,833	20,553	939,391	547,361
-8,819	20,511	938,878	546,907
-7,804	20,516	937,973	546,373
-6,790	20,485	937,644	546,063
-5,775	20,513	936,864	545,675
-4,760	20,491	936,299	545,254
-3,746	20,443	935,732	544,750
-2,731	20,330	935,006	543,951
-1,717	20,333	934,224	543,484
-0,702	20,311	933,693	543,083
0,313	20,059	933,061	542,742
1,327	23,132	931,141	551,225
2,342	32,288	793,237	493,870
3,356	29,466	451,259	276,681
4,371	-0,358	296,310	151,683
5,386	-4,644	277,522	137,963
6,400	-5,935	271,895	133,945
7,415	-6,329	269,478	132,376
8,429	-6,189	268,259	131,895
9,444	-5,991	267,259	131,575
10,459	-6,051	266,746	131,255
11,473	-6,293	266,214	130,760
12,488	-6,265	265,688	130,515
13,502	-6,277	264,949	130,130
14,517	-6,413	264,675	129,860
15,531	-6,327	264,229	129,708
16,546	-6,293	263,818	129,526
17,561	-6,458	263,687	129,300
18,575	-6,395	263,230	129,121
19,590	-6,387	262,828	128,919
20,604	-6,115	262,479	128,983
21,619	-6,350	262,151	128,598
22,634	-6,245	261,860	128,538
23,648	-6,483	261,739	128,254
24,663	-6,352	261,282	128,135
25,677	-6,174	261,041	128,166
26,692	-6,404	260,880	127,869
27,707	-6,198	260,571	127,891
28,721	-6,424	260,355	127,571
29,736	-6,461	259,993	127,348
30,750	-6,479	259,798	127,226
31,765	-6,426	259,494	127,113
32,780	-6,606	259,507	126,948
33,794	-6,605	259,137	126,756
34,809	-6,437	258,817	126,738
35,823	-6,491	258,667	126,605
36,838	-6,552	258,407	126,413
37,853	-6,566	258,049	126,214
38,867	-6,559	257,884	126,127
39,882	-6,520	257,759	126,090
40,896	-6,436	257,385	125,970
41,911	-6,672	257,220	125,669
42,926	-6,551	257,012	125,663
43,940	-6,607	256,701	125,450
44,955	-6,676	256,489	125,275
45,969	-6,759	256,309	125,103
46,984	-6,791	255,977	124,901
47,999	-6,901	255,700	124,659
49,013	-7,047	255,402	124,375
50,028	-7,409	255,248	123,971
51,042	-7,331	254,883	123,851
52,057	-7,291	254,723	123,798
53,071	-7,228	254,603	123,783
54,086	-7,263	254,350	123,619
55,101	-6,973	254,122	123,749
56,115	-6,779	254,169	123,931
57,130	-6,477	253,860	124,031
58,144	-6,218	253,825	124,229
59,159	-6,158	253,586	124,153
60,174	-6,187	253,449	124,050
61,188	-6,187	253,095	123,866
62,203	-6,093	252,768	123,776
63,217	-6,292	252,772	123,594
64,232	-6,386	252,580	123,408
65,247	-6,262	252,297	123,366
66,261	-6,336	252,184	123,235
67,276	-6,630	251,950	122,857
68,290	-6,759	251,437	122,484
69,305	-6,741	251,292	122,418
70,320	-6,919	251,137	122,179
71,334	-6,548	251,073	122,456
72,349	-6,352	250,974	122,565
73,363	-6,425	250,748	122,381
74,378	-6,406	250,556	122,292
75,393	-6,357	250,230	122,165
76,407	-6,353	249,986	122,038
77,422	-6,346	249,887	121,985
78,436	-6,431	249,730	121,825
79,451	-6,246	249,528	121,873
80,466	-6,404	249,162	121,549
81,480	-6,695	248,989	121,206
82,495	-6,786	248,775	121,014
83,509	-6,410	248,583	121,229
84,524	-6,566	248,454	121,022
85,539	-6,793	248,144	120,668
86,553	-6,860	248,002	120,531
87,568	-6,779	247,830	120,506
88,582	-6,624	247,596	120,512
89,597	-6,823	247,427	120,251
90,611	-6,571	247,343	120,413
91,626	-6,441	247,076	120,382
92,641	-6,508	246,995	120,275
93,655	-6,636	246,927	120,123
94,670	-6,653	246,710	119,992
95,684	-6,823	246,433	119,704
96,699	-6,608	246,272	119,796
97,714	-6,879	245,973	119,412
98,728	-6,740	245,722	119,396
99,743	-6,778	245,563	119,277
100,757	-6,874	245,269	119,042
101,772	-6,904	245,133	118,941
102,787	-6,720	245,076	119,057
103,801	-6,824	244,853	118,851
104,816	-6,636	244,735	118,940
105,830	-6,651	244,702	118,901
106,845	-6,457	244,394	118,903
107,860	-6,619	244,218	118,671
108,874	-6,627	243,990	118,543
109,889	-6,655	243,819	118,426
110,903	-6,423	243,445	118,427
111,918	-6,791	243,394	118,085
112,933	-6,461	243,329	118,318
113,947	-6,559	243,020	118,076
114,962	-6,449	243,057	118,174
115,976	-6,489	242,796	118,004
116,991	-6,404	242,400	117,871
118,006	-6,515	242,352	117,745
119,020	-6,247	242,185	117,875
120,035	-6,314	242,016	117,727
121,049	-6,263	241,950	117,727
122,064	-6,502	241,865	117,478
123,079	-6,586	241,524	117,232
124,093	-6,650	241,336	117,078
125,108	-6,698	241,154	116,940
126,122	-6,899	240,975	116,677
127,137	-6,951	240,753	116,517
128,151	-6,688	240,545	116,621
129,166	-6,728	240,432	116,524
130,181	-6,818	240,095	116,276
131,195	-6,654	239,918	116,314
132,210	-6,774	239,909	116,201
133,224	-6,747	239,813	116,166
134,239	-6,646	239,604	116,137
135,254	-6,620	239,504	116,099
136,268	-6,689	239,080	115,827
137,283	-7,009	239,015	115,525
138,297	-6,986	238,796	115,428
139,312	-6,861	238,574	115,412
140,327	-6,500	238,483	115,650
141,341	-6,444	238,558	115,722
142,356	-6,086	238,342	115,897
143,370	-6,085	238,169	115,804
144,385	-6,035	237,843	115,675
145,400	-5,928	237,823	115,743
146,414	-6,048	237,596	115,524
147,429	-6,369	237,590	115,251
148,443	-6,252	237,369	115,228
149,458	-6,256	237,190	115,128
150,473	-6,223	236,971	115,038
151,487	-6,214	236,728	114,917
152,502	-6,203	236,541	114,825
153,516	-6,096	236,405	114,835
154,531	-6,083	236,219	114,744
155,546	-6,424	236,143	114,424
156,560	-6,377	235,914	114,340
157,575	-6,417	235,624	114,158
158,589	-6,272	235,491	114,199
159,604	-6,193	235,376	114,196
160,619	-5,983	235,270	114,302
161,633	-6,195	235,199	114,088
162,648	-6,041	234,937	114,074
163,662	-5,921	234,776	114,081
164,677	-6,382	234,680	113,657
165,692	-6,238	234,547	113,697
166,706	-6,083	234,393	113,736
167,721	-5,873	234,180	113,789
168,735	-6,048	234,128	113,615
169,750	-6,172	233,855	113,374
170,764	-6,303	233,776	113,221
171,779	-6,112	233,735	113,342
172,794	-6,100	233,432	113,195
173,808	-6,186	233,142	112,977
174,823	-6,540	232,898	112,568
175,837	-6,780	232,729	112,287
176,852	-6,454	232,678	112,509
177,867	-6,344	232,698	112,597
178,881	-6,088	232,534	112,709
179,896	-6,113	232,329	112,580
180,910	-6,009	232,218	112,598
181,925	-6,189	232,113	112,395
182,940	-6,152	231,940	112,331
183,954	-6,085	231,810	112,310
184,969	-6,008	231,572	112,245
185,983	-5,980	231,621	112,281
186,998	-5,882	231,410	112,245
188,013	-5,918	231,094	112,054
189,027	-6,030	231,005	111,913
190,042	-5,843	230,835	111,967
191,056	-5,864	230,678	111,864
192,071	-5,891	230,357	111,678
193,086	-5,948	230,380	111,635
194,100	-5,909	230,156	111,547
195,115	-6,275	229,841	111,099
196,129	-6,628	229,644	110,720
197,144	-3,071	230,827	114,059
198,159	1,154	232,079	117,978
199,173	3,531	232,617	120,105
200,188	3,884	232,394	120,255
201,202	3,715	232,358	120,094
202,217	3,900	232,324	120,209
203,232	3,989	232,253	120,232
204,246	4,186	232,109	120,301
205,261	4,366	231,817	120,279
206,275	4,394	231,861	120,313
207,290	4,325	231,776	120,204
208,304	4,605	231,477	120,257
209,319	4,388	231,307	119,989
210,334	4,351	231,140	119,862
211,348	4,286	230,778	119,613
212,363	3,746	230,739	119,164
213,377	3,444	230,468	118,780
214,392	3,466	230,215	118,655
215,407	3,554	230,129	118,668
216,421	3,730	229,987	118,721
217,436	3,625	229,754	118,508
218,450	3,566	229,508	118,326
219,465	3,290	229,384	118,039
220,480	3,453	229,222	118,070
221,494	3,439	229,141	118,007
222,509	3,528	229,078	118,033
223,523	3,457	228,956	117,904
224,538	3,380	228,625	117,665
225,553	3,717	228,448	117,821
226,567	3,757	228,528	117,883
227,582	3,845	228,474	117,912
228,596	3,952	228,452	117,972
229,611	3,686	228,089	117,571
230,626	3,592	227,736	117,306
231,640	3,441	227,476	117,047
232,655	3,483	227,686	117,176
233,669	4,314	227,624	117,769
234,684	4,204	227,430	117,574
235,699	3,984	227,304	117,331
236,713	3,870	226,959	117,056
237,728	3,558	226,820	116,735
238,742	3,416	226,709	116,560
239,757	3,462	226,543	116,500
240,772	3,492	226,357	116,416
241,786	3,330	226,153	116,178
242,801	3,784	226,147	116,509
243,815	3,741	226,151	116,467
244,830	4,089	225,957	116,621
245,844	3,858	225,536	116,219
246,859	3,796	225,403	116,093
247,874	3,764	225,491	116,104
248,888	3,848	225,418	116,119
249,903	3,923	225,109	116,007
250,917	3,727	224,898	115,739
251,932	3,489	224,785	115,492
252,947	3,424	224,633	115,355
253,961	3,433	224,510	115,288
254,976	3,311	224,502	115,182
255,990	3,675	224,287	115,335
257,005	3,876	224,059	115,357
258,020	3,767	224,001	115,236
259,034	3,952	224,021	115,375
260,049	3,887	223,770	115,187
261,063	3,884	223,667	115,121
262,078	3,869	223,412	114,968
263,093	3,994	223,378	115,034
264,107	3,987	223,130	114,891
265,122	3,872	223,071	114,764
266,136	4,150	222,868	114,857
267,151	4,333	222,616	114,853
268,166	3,755	222,467	114,336
269,180	3,201	222,405	113,882
270,195	3,654	221,987	113,994
271,209	3,554	221,989	113,911
272,224	3,323	221,885	113,676
273,239	3,368	221,816	113,663
274,253	3,624	221,626	113,746
275,268	3,354	221,520	113,481
276,282	3,204	221,266	113,230
277,297	3,209	221,140	113,159
278,312	3,365	221,035	113,210
279,326	3,659	220,848	113,321
280,341	3,608	220,793	113,246
281,355	3,718	220,599	113,217
282,370	3,609	220,407	113,028
283,384	3,180	220,268	112,631
284,399	3,280	219,987	112,551
285,414	3,463	219,825	112,593
286,428	3,403	219,982	112,618
287,443	3,522	219,792	112,599
288,457	3,615	219,512	112,513
289,472	3,565	219,420	112,420
290,487	3,355	219,108	112,096
291,501	3,251	219,039	111,975
292,516	3,373	218,982	112,025
293,530	3,266	218,867	111,878
294,545	3,378	218,707	111,868
295,560	3,433	218,500	111,792
296,574	3,463	218,550	111,829
297,589	3,911	218,326	112,031
298,603	3,830	218,277	111,937
299,618	3,562	218,148	111,666
300,633	3,704	217,840	111,601
301,647	3,876	218,012	111,805
302,662	3,898	217,745	111,674
303,676	3,594	217,704	111,422
304,691	3,921	217,329	111,457
305,706	3,660	217,270	111,228
306,720	3,551	217,040	111,022
307,735	3,338	216,973	110,823
308,749	3,651	216,953	111,030
309,764	3,939	216,650	111,073
310,779	3,971	216,549	111,034
311,793	3,764	216,451	110,824
312,808	3,832	216,300	110,786
313,822	4,005	216,150	110,824
314,837	3,683	215,867	110,438
315,852	3,310	215,885	110,168
316,866	3,462	215,745	110,196
317,881	3,925	215,632	110,462
318,895	3,695	215,591	110,266
319,910	3,565	215,336	110,032
320,925	3,457	215,017	109,782
321,939	3,023	214,852	109,377
322,954	3,235	214,763	109,474
323,968	3,557	214,856	109,742
324,983	3,711	214,664	109,744
325,997	3,635	214,682	109,689
327,012	3,545	214,444	109,494
328,027	3,813	214,255	109,579
329,041	4,167	214,171	109,778
330,056	4,030	214,039	109,603
331,070	3,436	213,884	109,091
332,085	3,455	213,567	108,933
333,100	3,318	213,472	108,778
334,114	3,601	213,406	108,935
335,129	3,451	213,213	108,720
336,143	3,470	213,154	108,694
337,158	3,568	213,072	108,712
338,173	3,561	212,829	108,574
339,187	3,276	212,607	108,249
340,202	3,283	212,365	108,122
341,216	3,357	212,415	108,190
342,231	3,438	212,127	108,090
343,246	3,307	212,007	107,927
344,260	3,518	211,899	108,011
345,275	3,461	211,950	107,987
346,289	3,616	211,878	108,050
347,304	3,784	211,718	108,077
348,319	3,498	211,612	107,812
349,333	3,651	211,392	107,798
350,348	3,818	211,210	107,813
351,362	3,684	211,098	107,652
352,377	3,722	210,943	107,590
353,392	3,711	210,811	107,506
354,406	3,719	210,729	107,460
355,421	195,508	1343,861	1433,095
356,435	156,135	1481,990	1433,178
