DTS Sentinel unit serial number:	SN410029Multiplexer serial number:	ORYXHardware model number:	OX2-SRSoftware version number:	ORYX F/W v4,00 Oryx Data Collector v3.7.2.0data status	okinstallation	B6 Nyhavnadifferential loss correction	single-endedforward channel	channel 2reverse channel	N/Adate	2023/12/10time	23:15:08forward acquisition time	300,00reverse acquisition time	0,00gamma	499,1914k internal	0,3122k external	0,3122temperature offset calibration	1,0000default loss term (dB/km)	0,3820temperature slope calibration	1,0000multiplexer offset coefficient	1,0000multiplexer slope coefficient	1,0000fibre end	0,00T internal ref (°C)	22,39T ext. ref 1 (°C)	6,09T ext. ref 2 (°C)	6,10length (m)	temperature (°C)	Stokes	anti-Stokes-744,400	-200,000	-0,044	-0,149
-743,385	59,033	-0,153	0,112
-742,371	-200,000	0,042	-0,230
-741,356	-27,458	-0,218	0,094
-740,342	306,189	0,052	0,073
-739,327	109,811	-0,156	0,139
-738,312	-200,000	0,001	0,017
-737,298	-121,031	-0,113	0,014
-736,283	-200,000	-0,008	-0,032
-735,269	-65,966	-0,250	0,074
-734,254	800,000	0,026	-0,078
-733,239	52,224	-0,418	-0,297
-732,225	199,868	-0,020	0,023
-731,210	-49,863	0,158	0,055
-730,196	1,042	0,085	0,045
-729,181	244,455	-0,037	-0,046
-728,167	-148,083	-0,066	-0,004
-727,152	14,401	-0,086	-0,050
-726,137	303,370	-0,100	-0,139
-725,123	-200,000	-0,037	-0,154
-724,108	-96,879	-0,089	-0,017
-723,094	800,000	-0,051	-0,143
-722,079	-31,847	-0,133	-0,055
-721,064	800,000	-0,037	0,090
-720,050	-99,212	-0,108	0,020
-719,035	-200,000	0,002	0,125
-718,021	261,414	0,096	-0,124
-717,006	-117,405	-0,114	-0,015
-715,991	3,705	-0,154	-0,083
-714,977	161,395	0,030	-0,032
-713,962	-22,827	-0,029	-0,013
-712,948	-200,000	0,004	-0,075
-711,933	3,946	0,161	0,088
-710,918	28,833	-0,083	-0,052
-709,904	-200,000	-0,007	-0,093
-708,889	10,859	-0,067	-0,038
-707,875	-146,088	-0,072	-0,005
-706,860	203,622	-0,049	-0,057
-705,845	-200,000	-0,008	0,086
-704,831	-7,365	-0,011	-0,006
-703,816	-200,000	0,032	-0,116
-702,802	-119,149	-0,040	-0,005
-701,787	212,058	-0,045	-0,052
-700,772	-200,000	-0,006	-0,114
-699,758	-57,446	-0,133	-0,043
-698,743	-62,878	0,067	-0,021
-697,729	230,673	-0,084	0,103
-696,714	62,290	0,046	0,034
-695,699	28,052	-0,103	-0,064
-694,685	-38,819	0,089	-0,035
-693,670	-129,667	-0,193	-0,020
-692,656	-72,075	0,064	0,017
-691,641	800,000	-0,023	-0,070
-690,627	800,000	0,023	0,076
-689,612	-147,178	0,059	-0,004
-688,597	-36,852	0,106	0,042
-687,583	-25,912	-0,082	-0,036
-686,568	-200,000	-0,006	-0,115
-685,554	330,530	0,008	0,012
-684,539	800,000	0,011	-0,034
-683,524	28,340	0,038	0,024
-682,510	-200,000	-0,012	0,076
-681,495	-184,511	-0,140	-0,002
-680,481	213,564	0,073	-0,086
-679,466	50,095	-0,114	-0,080
-678,451	56,015	-0,122	0,088
-677,437	148,544	0,062	0,062
-676,422	-200,000	-0,000	0,028
-675,408	-107,008	0,070	0,011
-674,393	649,482	-0,038	0,073
-673,378	224,947	-0,111	0,134
-672,364	381,293	0,086	0,131
-671,349	152,482	-0,048	-0,048
-670,335	800,000	-0,048	0,113
-669,320	167,625	0,097	0,103
-668,305	-200,000	-0,003	0,047
-667,291	-128,927	0,021	-0,002
-666,276	-5,047	-0,079	-0,040
-665,262	138,436	-0,054	-0,052
-664,247	124,352	0,104	-0,098
-663,232	-8,807	-0,074	-0,037
-662,218	-200,000	0,002	-0,134
-661,203	-200,000	0,026	-0,091
-660,189	100,892	-0,082	0,071
-659,174	107,791	0,088	-0,078
-658,159	-200,000	0,021	0,105
-657,145	-126,953	-0,093	0,010
-656,130	92,785	-0,037	0,031
-655,116	65,974	-0,100	-0,075
-654,101	-82,196	-0,145	-0,035
-653,086	-162,382	-0,127	0,005
-652,072	504,536	-0,023	-0,040
-651,057	-200,000	-0,021	-0,135
-650,043	-200,000	0,051	-0,231
-649,028	52,021	-0,130	-0,092
-648,014	800,000	-0,005	0,013
-646,999	695,508	-0,058	-0,114
-645,984	-23,968	0,126	-0,056
-644,970	89,710	-0,149	-0,124
-643,955	572,342	-0,115	-0,208
-642,941	178,914	0,074	-0,080
-641,926	-22,433	-0,126	0,057
-640,911	-200,000	0,006	0,098
-639,897	-76,679	-0,083	0,021
-638,882	244,164	-0,065	-0,081
-637,868	299,795	-0,078	0,108
-636,853	-64,291	0,175	0,053
-635,838	-144,557	-0,090	0,006
-634,824	-200,000	-0,002	0,021
-633,809	-200,000	-0,034	0,119
-632,795	-200,000	-0,003	0,052
-631,780	449,889	-0,080	0,131
-630,765	-200,000	0,021	0,097
-629,751	125,749	-0,147	0,138
-628,736	-200,000	-0,010	-0,052
-627,722	-37,626	-0,155	0,061
-626,707	119,998	-0,014	0,013
-625,692	-200,000	0,004	0,055
-624,678	-200,000	0,027	0,159
-623,663	506,356	0,048	0,083
-622,649	539,550	0,009	-0,016
-621,634	-200,000	0,020	-0,129
-620,619	197,747	-0,070	-0,080
-619,605	77,666	-0,040	-0,032
-618,590	-200,000	-0,019	0,085
-617,576	112,965	0,104	0,093
-616,561	-77,127	-0,116	0,030
-615,546	-63,012	0,054	0,016
-614,532	-200,000	0,013	-0,055
-613,517	298,953	-0,054	-0,073
-612,503	-200,000	0,009	-0,055
-611,488	23,140	-0,131	0,080
-610,474	10,283	0,075	0,042
-609,459	-111,440	0,044	0,007
-608,444	-106,471	0,052	-0,009
-607,430	81,198	0,103	-0,083
-606,415	800,000	-0,029	-0,065
-605,401	-58,090	0,061	-0,019
-604,386	-200,000	0,026	0,179
-603,371	123,953	-0,069	0,064
-602,357	-5,748	0,094	-0,048
-601,342	-95,436	0,033	-0,007
-600,328	-200,000	0,036	-0,144
-599,313	691,327	-0,060	0,117
-598,298	305,925	-0,109	0,150
-597,284	520,721	-0,060	-0,104
-596,269	157,906	0,038	0,039
-595,255	-200,000	-0,001	0,082
-594,240	21,436	-0,160	-0,096
-593,225	-81,316	0,125	-0,030
-592,211	-200,000	-0,015	-0,102
-591,196	-81,933	-0,135	-0,032
-590,182	-165,007	-0,008	-0,000
-589,167	569,491	0,053	-0,096
-588,152	450,590	0,012	-0,019
-587,138	269,528	-0,042	-0,055
-586,123	-200,000	-0,012	-0,199
-585,109	383,443	-0,074	-0,113
-584,094	-139,071	0,129	-0,010
-583,079	49,642	-0,044	0,031
-582,065	151,172	0,085	0,086
-581,050	365,172	-0,036	-0,054
-580,036	-108,558	-0,156	-0,025
-579,021	58,622	-0,200	-0,145
-578,006	800,000	-0,059	0,126
-576,992	800,000	-0,078	0,190
-575,977	-200,000	-0,027	0,165
-574,963	54,025	0,081	-0,058
-573,948	161,143	0,033	0,034
-572,934	-200,000	-0,011	-0,037
-571,919	163,534	-0,034	0,036
-570,904	800,000	-0,026	-0,053
-569,890	-200,000	-0,006	0,049
-568,875	-200,000	0,000	0,054
-567,861	-2,827	0,064	-0,033
-566,846	-152,357	0,040	-0,002
-565,831	-72,568	-0,094	0,026
-564,817	-38,586	0,063	0,025
-563,802	71,232	-0,064	-0,049
-562,788	-200,000	0,013	-0,185
-561,773	-12,266	0,044	0,021
-560,758	-42,259	-0,088	0,033
-559,744	-46,412	0,086	0,031
-558,729	657,298	-0,041	-0,078
-557,715	121,804	0,058	-0,054
-556,700	800,000	-0,054	-0,151
-555,685	-144,810	-0,036	-0,002
-554,671	800,000	0,025	0,070
-553,656	398,807	-0,081	0,126
-552,642	800,000	0,026	0,072
-551,627	-129,474	0,057	0,006
-550,612	53,091	-0,044	0,031
-549,598	175,757	-0,104	-0,112
-548,583	-18,768	0,077	0,035
-547,569	118,136	0,058	-0,053
-546,554	-200,000	-0,004	0,107
-545,539	443,203	-0,081	0,132
-544,525	8,318	0,015	-0,008
-543,510	563,599	-0,026	0,046
-542,496	-18,772	-0,143	0,065
-541,481	356,075	-0,096	0,142
-540,466	-200,000	-0,002	0,078
-539,452	71,865	0,080	0,061
-538,437	611,322	0,020	-0,037
-537,423	-200,000	0,006	0,029
-536,408	-200,000	0,025	0,128
-535,393	186,108	-0,024	0,026
-534,379	-200,000	-0,019	-0,136
-533,364	-200,000	0,033	-0,156
-532,350	800,000	0,025	-0,066
-531,335	-18,247	-0,027	0,012
-530,321	449,404	-0,054	-0,088
-529,306	-27,596	0,092	-0,040
-528,291	496,773	-0,101	-0,173
-527,277	722,969	-0,062	0,122
-526,262	-24,621	0,137	-0,060
-525,248	664,127	0,008	-0,015
-524,233	-200,000	-0,014	-0,121
-523,218	-200,000	-0,000	0,068
-522,204	159,109	-0,053	-0,055
-521,189	-200,000	-0,045	-0,249
-520,175	-9,608	-0,068	-0,034
-519,160	-19,913	-0,061	-0,028
-518,145	-200,000	-0,007	-0,130
-517,131	100,422	-0,084	-0,072
-516,116	408,223	0,067	0,105
-515,102	47,943	-0,027	0,018
-514,087	-83,139	-0,030	-0,007
-513,072	800,000	-0,015	0,037
-512,058	-200,000	-0,007	0,034
-511,043	341,889	0,037	-0,053
-510,029	42,499	0,114	0,076
-509,014	800,000	0,044	-0,100
-507,999	112,430	0,007	-0,006
-506,985	-89,640	0,057	0,012
-505,970	256,037	-0,054	-0,069
-504,956	23,539	-0,057	-0,035
-503,941	88,496	0,055	-0,045
-502,926	-200,000	0,023	0,100
-501,912	287,727	0,076	0,102
-500,897	-16,271	-0,041	0,019
-499,883	4,113	-0,084	-0,045
-498,868	108,789	0,055	0,049
-497,853	-200,000	0,021	-0,070
-496,839	38,433	-0,021	-0,014
-495,824	800,000	-0,051	0,122
-494,810	-200,000	0,007	0,092
-493,795	267,289	-0,033	-0,042
-492,781	-77,979	-0,061	-0,015
-491,766	-200,000	-0,012	-0,115
-490,751	800,000	0,005	0,010
-489,737	-140,229	0,063	-0,005
-488,722	-200,000	0,002	-0,093
-487,708	23,344	0,127	-0,077
-486,693	-101,047	0,044	0,008
-485,678	21,761	-0,062	0,037
-484,664	91,641	0,053	0,044
-483,649	164,185	-0,119	-0,124
-482,635	800,000	-0,018	0,058
-481,620	528,154	0,023	-0,040
-480,605	-63,403	0,089	0,027
-479,591	202,813	-0,034	0,039
-478,576	-19,416	0,128	-0,058
-477,562	18,597	-0,076	-0,045
-476,547	-144,122	0,022	0,001
-475,532	-200,000	0,001	-0,049
-474,518	-61,301	0,143	0,044
-473,503	-200,000	-0,013	0,060
-472,489	42,585	-0,048	0,032
-471,474	-92,185	-0,144	0,030
-470,459	-200,000	-0,008	0,053
-469,445	-200,000	-0,000	0,014
-468,430	55,750	-0,083	0,059
-467,416	-107,568	-0,053	0,008
-466,401	587,409	-0,073	0,133
-465,386	-16,181	0,037	-0,017
-464,372	800,000	-0,015	0,044
-463,357	156,435	-0,029	0,030
-462,343	-200,000	0,017	0,056
-461,328	-105,968	-0,099	-0,016
-460,313	319,969	0,013	-0,019
-459,299	-200,000	0,169	0,001
-458,284	-176,063	0,081	-0,002
-457,270	47,315	0,018	0,012
-456,255	-46,067	0,017	0,006
-455,241	-69,255	-0,119	-0,034
-454,226	-35,842	0,168	0,067
-453,211	-200,000	-0,005	-0,128
-452,197	52,907	0,055	0,039
-451,182	61,906	0,072	0,053
-450,168	18,720	0,157	-0,092
-449,153	-200,000	-0,004	-0,027
-448,138	488,229	0,059	-0,099
-447,124	800,000	-0,012	-0,033
-446,109	-49,583	0,112	0,039
-445,095	800,000	-0,014	-0,039
-444,080	-135,512	-0,136	0,012
-443,065	-128,627	-0,066	-0,007
-442,051	800,000	0,020	-0,051
-441,036	-58,837	-0,067	-0,021
-440,022	-200,000	-0,026	0,114
-439,007	-163,767	0,107	-0,004
-437,992	-9,710	0,095	-0,046
-436,978	-121,487	-0,075	0,009
-435,963	-200,000	-0,014	-0,134
-434,949	-141,937	-0,113	0,008
-433,934	569,919	0,078	0,141
-432,919	25,930	0,109	-0,067
-431,905	-98,695	0,034	0,006
-430,890	532,109	-0,063	0,110
-429,876	116,569	0,066	0,060
-428,861	800,000	0,033	0,096
-427,846	165,948	-0,110	-0,115
-426,832	-200,000	-0,003	-0,084
-425,817	-76,197	-0,034	-0,009
-424,803	800,000	-0,033	0,104
-423,788	414,723	-0,064	0,100
-422,773	124,047	0,105	0,097
-421,759	-76,194	-0,093	-0,024
-420,744	58,276	0,051	-0,037
-419,730	-45,451	-0,099	-0,036
-418,715	361,700	-0,051	-0,076
-417,701	74,825	0,069	-0,053
-416,686	-200,000	0,004	0,044
-415,671	54,299	0,063	-0,044
-414,657	-200,000	0,003	0,013
-413,642	-153,877	-0,017	0,001
-412,628	109,610	0,049	-0,043
-411,613	117,317	0,060	0,054
-410,598	-200,000	-0,006	-0,048
-409,584	96,744	-0,083	0,070
-408,569	-200,000	0,009	0,075
-407,555	302,227	0,064	0,087
-406,540	375,388	0,084	0,126
-405,525	24,991	-0,103	-0,063
-404,511	-36,368	-0,049	0,019
-403,496	184,844	0,028	-0,030
-402,482	90,271	0,104	0,086
-401,467	16,734	0,210	0,122
-400,452	-200,000	-0,016	0,081
-399,438	800,000	0,021	-0,052
-398,423	680,521	-0,025	0,048
-397,409	375,210	-0,068	-0,102
-396,394	-96,225	0,100	0,019
-395,379	373,907	0,047	-0,071
-394,365	-200,000	-0,006	-0,051
-393,350	177,437	0,051	0,054
-392,336	800,000	0,018	0,042
-391,321	-5,322	0,041	0,021
-390,306	327,558	-0,007	-0,009
-389,292	305,193	-0,103	-0,141
-388,277	800,000	0,034	0,077
-387,263	-200,000	0,019	0,067
-386,248	225,375	0,026	-0,031
-385,233	-89,665	0,020	-0,004
-384,219	-4,108	0,060	0,030
-383,204	800,000	-0,021	-0,052
-382,190	-129,394	-0,035	-0,004
-381,175	158,947	0,061	-0,062
-380,160	800,000	0,055	-0,127
-379,146	-83,318	-0,028	0,006
-378,131	-4,521	0,164	-0,083
-377,117	800,000	-0,022	-0,045
-376,102	64,745	-0,076	-0,056
-375,088	-179,506	-0,067	0,001
-374,073	800,000	-0,021	0,044
-373,058	-101,817	0,160	-0,028
-372,044	95,831	-0,077	0,065
-371,029	150,582	0,141	-0,140
-370,015	-200,000	-0,004	0,013
-369,000	-200,000	0,009	-0,133
-367,985	118,319	0,015	-0,014
-366,971	20,537	-0,045	0,027
-365,956	800,000	-0,083	0,177
-364,942	-200,000	0,000	0,092
-363,927	-200,000	-0,014	0,081
-362,912	264,682	-0,064	-0,082
-361,898	800,000	0,026	0,077
-360,883	-200,000	0,029	-0,103
-359,869	800,000	-0,043	-0,087
-358,854	800,000	0,065	0,137
-357,839	-60,298	0,067	0,021
-356,825	800,000	-0,049	0,124
-355,810	367,428	-0,036	-0,053
-354,796	-19,042	0,012	0,006
-353,781	-187,188	-0,183	0,002
-352,766	-200,000	-0,106	-0,000
-351,752	565,405	-0,037	0,067
-350,737	9,453	0,021	-0,011
-349,723	800,000	0,053	0,130
-348,708	-136,917	0,016	-0,001
-347,693	-200,000	0,006	0,089
-346,679	-200,000	-0,007	0,053
-345,664	104,975	-0,106	-0,092
-344,650	108,185	0,060	0,052
-343,635	-200,000	-0,014	0,048
-342,620	800,000	0,036	0,089
-341,606	160,261	0,071	0,073
-340,591	800,000	-0,011	-0,024
-339,577	-125,842	-0,033	0,004
-338,562	-101,489	0,049	0,009
-337,548	376,726	-0,030	0,046
-336,533	6,420	0,054	0,030
-335,518	-89,542	0,109	0,023
-334,504	-92,792	0,068	0,014
-333,489	-102,273	0,024	-0,004
-332,475	-112,356	-0,119	-0,017
-331,460	94,405	0,144	-0,120
-330,445	-120,008	-0,045	-0,006
-329,431	-141,308	0,067	0,005
-328,416	62,736	0,055	-0,040
-327,402	800,000	0,021	-0,058
-326,387	22,782	-0,014	-0,009
-325,372	-165,123	0,124	-0,004
-324,358	-200,000	-0,024	-0,135
-323,343	800,000	-0,026	-0,057
-322,329	-161,679	-0,071	-0,003
-321,314	-200,000	0,002	0,097
-320,299	95,570	0,060	0,050
-319,285	800,000	-0,044	0,096
-318,270	414,658	-0,029	0,045
-317,256	359,676	-0,060	0,089
-316,241	-100,663	-0,125	0,022
-315,226	-200,000	0,009	-0,110
-314,212	-22,869	0,057	0,025
-313,197	-75,002	0,072	0,019
-312,183	-200,000	-0,006	0,113
-311,168	-16,593	-0,041	-0,019
-310,153	338,020	-0,055	-0,079
-309,139	355,540	0,074	0,108
-308,124	233,211	-0,069	0,083
-307,110	-62,128	0,056	-0,017
-306,095	-200,000	-0,003	0,049
-305,080	295,173	-0,064	0,086
-304,066	188,855	0,064	-0,071
-303,051	147,151	-0,024	0,023
-302,037	-90,580	0,099	-0,021
-301,022	429,009	0,042	0,067
-300,008	114,323	0,080	-0,071
-298,993	-170,349	0,182	0,005
-297,978	-200,000	0,021	0,105
-296,964	18,119	-0,036	0,021
-295,949	-200,000	0,007	0,098
-294,935	108,259	-0,096	-0,084
-293,920	-200,000	0,005	0,019
-292,905	7,976	0,058	-0,032
-291,891	800,000	0,010	-0,028
-290,876	-129,041	-0,082	-0,008
-289,862	-105,196	-0,014	0,002
-288,847	-193,883	0,045	-0,000
-287,832	-200,000	0,004	-0,029
-286,818	143,936	0,071	0,069
-285,803	-200,000	-0,004	-0,060
-284,789	-15,144	0,058	-0,027
-283,774	-200,000	-0,000	0,022
-282,759	101,815	-0,065	-0,056
-281,745	-7,770	0,130	-0,064
-280,730	-30,277	0,050	-0,021
-279,716	800,000	0,028	-0,084
-278,701	66,053	0,033	0,024
-277,686	226,631	-0,078	-0,093
-276,672	800,000	0,036	0,105
-275,657	-113,009	-0,094	-0,014
-274,643	221,513	0,089	0,105
-273,628	-174,303	-0,095	-0,002
-272,613	255,942	0,034	-0,043
-271,599	800,000	0,040	-0,130
-270,584	65,206	0,036	-0,027
-269,570	-200,000	0,006	-0,186
-268,555	-200,000	0,017	-0,169
-267,540	45,219	-0,055	0,037
-266,526	-200,000	-0,033	-0,127
-265,511	-26,540	-0,130	-0,055
-264,497	96,698	0,053	-0,044
-263,482	-200,000	-0,027	0,210
-262,467	198,988	-0,110	0,123
-261,453	-200,000	0,029	0,130
-260,438	-127,293	-0,164	-0,017
-259,424	249,621	-0,071	-0,089
-258,409	-17,419	0,052	-0,024
-257,395	34,513	-0,042	0,027
-256,380	-81,388	0,111	-0,027
-255,365	-46,559	-0,084	0,030
-254,351	-200,000	0,004	0,036
-253,336	656,021	-0,017	0,032
-252,322	-200,000	-0,028	-0,091
-251,307	220,297	0,039	-0,045
-250,292	539,172	0,023	0,040
-249,278	-200,000	0,028	0,268
-248,263	-191,170	0,037	-0,000
-247,249	-200,000	0,022	-0,110
-246,234	800,000	0,028	0,082
-245,219	-158,660	-0,052	0,002
-244,205	24,299	0,116	-0,070
-243,190	-166,338	0,058	-0,002
-242,176	800,000	-0,075	-0,154
-241,161	60,115	-0,068	0,049
-240,146	239,797	0,099	0,120
-239,132	193,692	0,080	-0,088
-238,117	-144,802	-0,087	0,006
-237,103	-38,982	-0,088	-0,034
-236,088	446,650	0,023	-0,037
-235,073	-200,000	0,022	0,157
-234,059	-23,547	0,034	0,015
-233,044	44,915	-0,045	-0,030
-232,030	-200,000	-0,006	0,097
-231,015	27,915	0,177	0,109
-230,000	90,697	0,071	0,058
-228,986	-200,000	-0,003	-0,030
-227,971	190,515	-0,045	0,049
-226,957	800,000	0,029	0,077
-225,942	-56,829	-0,099	0,032
-224,927	64,303	-0,106	-0,078
-223,913	-88,660	0,028	0,006
-222,898	563,222	-0,039	-0,069
-221,884	29,453	0,037	0,023
-220,869	-64,352	0,084	-0,025
-219,855	800,000	-0,015	-0,043
-218,840	114,680	0,070	0,062
-217,825	-44,583	0,035	-0,013
-216,811	22,908	-0,093	-0,055
-215,796	-200,000	0,007	0,068
-214,782	-50,226	-0,013	-0,004
-213,767	468,962	0,019	-0,032
-212,752	-200,000	0,006	0,038
-211,738	800,000	0,022	-0,060
-210,723	300,121	-0,033	-0,044
-209,709	-200,000	0,027	-0,098
-208,694	-165,384	-0,027	0,001
-207,679	108,376	-0,085	0,074
-206,665	-200,000	-0,004	-0,121
-205,650	-16,536	-0,025	-0,012
-204,636	344,198	0,053	-0,076
-203,621	-200,000	0,007	-0,072
-202,606	3,025	-0,055	-0,029
-201,592	23,943	-0,045	-0,027
-200,577	-200,000	-0,040	-0,154
-199,563	800,000	0,019	-0,057
-198,548	119,914	-0,061	0,055
-197,533	-111,572	0,128	0,019
-196,519	24,633	-0,117	0,071
-195,504	208,464	0,047	0,053
-194,490	74,536	0,087	-0,067
-193,475	-81,471	-0,017	0,004
-192,460	-136,911	0,064	-0,005
-191,446	143,715	0,068	-0,066
-190,431	-200,000	0,010	0,044
-189,417	-200,000	0,022	0,094
-188,402	-200,000	0,007	0,108
-187,387	-200,000	-0,043	0,139
-186,373	27,396	-0,138	-0,084
-185,358	-200,000	-0,005	0,074
-184,344	800,000	0,015	0,046
-183,329	-82,773	0,082	-0,019
-182,315	310,532	0,034	-0,046
-181,300	-88,112	-0,023	0,005
-180,285	-200,000	-0,016	-0,087
-179,271	-25,846	0,125	-0,054
-178,256	366,234	0,058	0,085
-177,242	384,963	0,042	0,064
-176,227	115,093	0,034	-0,030
-175,212	92,786	0,027	-0,023
-174,198	-200,000	0,001	0,041
-173,183	-200,000	0,031	-0,155
-172,169	-12,274	-0,049	0,023
-171,154	-200,000	-0,014	-0,121
-170,139	-33,758	0,047	0,019
-169,125	247,601	0,147	0,181
-168,110	-40,988	0,011	-0,004
-167,096	-61,227	-0,076	0,023
-166,081	-141,977	-0,073	-0,005
-165,066	-200,000	-0,005	-0,180
-164,052	-119,288	0,085	0,011
-163,037	-29,865	0,060	-0,025
-162,023	800,000	-0,034	-0,104
-161,008	-8,078	0,115	0,056
-159,993	-116,940	0,065	-0,009
-158,979	156,303	-0,035	-0,035
-157,964	-47,682	-0,062	-0,022
-156,950	-200,000	0,005	-0,047
-155,935	-69,655	-0,108	0,030
-154,920	-200,000	0,011	-0,104
-153,906	232,524	0,038	-0,045
-152,891	-41,722	-0,071	0,026
-151,877	-53,168	-0,098	0,032
-150,862	37,639	-0,048	-0,031
-149,847	-41,771	0,018	-0,007
-148,833	-197,865	0,064	0,000
-147,818	-200,000	-0,007	0,203
-146,804	-200,000	-0,003	0,050
-145,789	146,059	-0,144	-0,141
-144,775	-200,000	0,039	-0,135
-143,760	-76,528	-0,172	-0,044
-142,745	-200,000	-0,005	-0,034
-141,731	-200,000	0,001	0,118
-140,716	-200,000	-0,003	-0,069
-139,702	800,000	0,027	0,068
-138,687	281,849	-0,040	-0,052
-137,672	800,000	0,021	-0,050
-136,658	119,718	-0,030	0,027
-135,643	-72,073	0,082	-0,022
-134,629	-108,195	-0,054	-0,008
-133,614	-200,000	-0,003	0,022
-132,599	34,611	0,123	0,078
-131,585	406,822	-0,087	0,135
-130,570	197,820	0,058	0,065
-129,556	-101,540	-0,092	0,016
-128,541	89,683	-0,040	0,032
-127,526	-170,916	-0,083	0,002
-126,512	150,636	-0,040	0,040
-125,497	101,544	0,070	0,059
-124,483	334,609	-0,038	0,054
-123,468	-28,222	-0,057	-0,024
-122,453	123,504	-0,142	-0,130
-121,439	301,795	0,089	0,119
-120,424	-114,281	0,098	-0,014
-119,410	118,306	-0,132	-0,118
-118,395	224,575	-0,015	-0,018
-117,380	-200,000	0,006	0,187
-116,366	-200,000	-0,023	0,105
-115,351	-200,000	0,018	-0,060
-114,337	-200,000	-0,028	0,134
-113,322	59,449	-0,044	0,031
-112,307	23,677	0,010	0,006
-111,293	114,348	0,068	-0,061
-110,278	390,349	0,094	0,142
-109,264	-114,068	-0,135	-0,019
-108,249	-200,000	-0,019	-0,100
-107,234	411,325	-0,058	-0,089
-106,220	162,045	-0,028	0,028
-105,205	6,388	0,062	-0,033
-104,191	64,373	-0,034	0,025
-103,176	263,783	0,070	0,088
-102,162	263,413	0,050	0,064
-101,147	800,000	-0,037	-0,100
-100,132	-89,579	-0,097	-0,020
-99,118	4,200	-0,092	-0,049
-98,103	-24,228	0,113	-0,049
-97,089	-67,729	0,018	-0,005
-96,074	-141,578	0,069	-0,005
-95,059	800,000	0,034	0,081
-94,045	-200,000	0,006	-0,132
-93,030	-200,000	0,001	0,029
-92,016	13,197	0,151	-0,085
-91,001	-48,981	0,063	0,022
-89,986	-108,719	0,016	0,003
-88,972	326,569	0,088	0,122
-87,957	234,775	0,055	0,066
-86,943	155,053	-0,134	-0,134
-85,928	23,290	-0,117	0,069
-84,913	-200,000	0,020	-0,071
-83,899	-200,000	-0,021	-0,080
-82,884	-89,542	0,106	0,022
-81,870	800,000	-0,030	-0,067
-80,855	405,135	-0,084	-0,129
-79,840	-200,000	-0,009	0,075
-78,826	-200,000	0,005	-0,068
-77,811	800,000	-0,021	0,054
-76,797	158,532	-0,101	0,102
-75,782	-57,067	0,084	-0,027
-74,767	-200,000	0,005	-0,073
-73,753	-200,000	-0,005	0,078
-72,738	18,241	-0,121	-0,070
-71,724	-200,000	-0,023	-0,080
-70,709	220,624	0,073	-0,086
-69,694	-200,000	0,028	0,150
-68,680	-55,689	0,145	-0,047
-67,665	800,000	-0,053	0,149
-66,651	-88,603	0,061	0,013
-65,636	-44,790	-0,059	-0,021
-64,622	112,050	-0,052	-0,045
-63,607	-200,000	-0,044	-0,141
-62,592	-200,000	-0,038	-0,141
-61,578	497,527	0,050	-0,084
-60,563	-165,684	0,041	0,001
-59,549	473,492	-0,050	0,082
-58,534	-150,369	-1,350	-0,074
-57,519	675,821	-0,821	-1,556
-56,505	-200,000	-0,807	-4,471
-55,490	98,524	0,565	-0,473
-54,476	800,000	4,982	11,956
-53,461	-200,000	13,581	252,866
-52,446	-200,000	689,147	2260,682
-51,432	592,713	1622,234	2920,353
-50,417	119,502	1635,568	1469,675
-49,403	73,406	1289,023	978,040
-48,388	38,148	1024,117	660,047
-47,373	24,387	981,940	587,602
-46,359	23,617	971,496	578,803
-45,344	22,635	967,195	573,009
-44,330	22,550	965,671	571,807
-43,315	22,476	964,292	570,726
-42,300	22,397	963,393	569,914
-41,286	22,421	962,302	569,323
-40,271	22,403	961,326	568,667
-39,257	22,369	960,509	568,050
-38,242	22,438	959,472	567,636
-37,227	22,375	958,879	567,062
-36,213	22,377	957,688	566,341
-35,198	22,355	956,950	565,809
-34,184	22,467	956,297	565,762
-33,169	22,363	955,421	564,886
-32,154	22,420	954,606	564,565
-31,140	22,445	953,653	564,062
-30,125	22,438	952,914	563,578
-29,111	22,432	951,962	562,975
-28,096	22,472	951,300	562,690
-27,082	22,415	950,684	562,119
-26,067	22,477	949,835	561,794
-25,052	22,462	949,212	561,355
-24,038	22,400	948,595	560,770
-23,023	22,384	948,018	560,355
-22,009	22,478	947,227	560,166
-20,994	22,471	946,532	559,710
-19,979	22,446	946,037	559,314
-18,965	22,376	945,452	558,724
-17,950	22,423	944,886	558,516
-16,936	22,438	943,999	558,017
-15,921	22,343	943,400	557,339
-14,906	22,368	942,711	556,989
-13,892	22,323	942,014	556,412
-12,877	22,311	941,372	555,973
-11,863	22,287	940,898	555,595
-10,848	22,285	940,244	555,181
-9,833	22,428	939,813	555,357
-8,819	22,409	939,193	554,908
-7,804	22,352	938,461	554,275
-6,790	22,284	938,135	553,845
-5,775	22,335	937,452	553,580
-4,760	22,362	936,652	553,171
-3,746	22,311	936,112	552,669
-2,731	22,214	935,367	551,901
-1,717	22,107	934,740	551,172
-0,702	22,144	933,859	550,748
0,313	22,044	933,188	550,868
1,327	25,031	931,423	559,169
2,342	34,636	796,182	503,570
3,356	32,690	451,390	282,539
4,371	1,719	293,533	152,853
5,386	-2,662	274,234	138,652
6,400	-4,232	268,565	134,318
7,415	-4,753	266,224	132,657
8,429	-4,506	264,909	132,215
9,444	-4,550	264,138	131,779
10,459	-4,490	263,381	131,444
11,473	-4,689	262,899	131,011
12,488	-4,624	262,314	130,767
13,502	-4,820	261,846	130,344
14,517	-4,856	261,340	130,049
15,531	-4,722	261,002	129,990
16,546	-4,833	260,691	129,723
17,561	-4,620	260,330	129,723
18,575	-4,473	259,931	129,645
19,590	-4,651	259,566	129,292
20,604	-4,538	259,249	129,224
21,619	-4,733	258,952	128,890
22,634	-4,587	258,545	128,806
23,648	-4,715	258,251	128,534
24,663	-4,710	258,035	128,419
25,677	-4,649	257,898	128,394
26,692	-4,578	257,477	128,236
27,707	-4,622	257,248	128,071
28,721	-4,925	257,164	127,750
29,736	-4,813	256,901	127,707
30,750	-4,851	256,672	127,548
31,765	-4,851	256,440	127,421
32,780	-4,530	256,082	127,515
33,794	-4,657	255,868	127,285
34,809	-4,759	255,721	127,111
35,823	-4,670	255,324	126,980
36,838	-4,664	255,115	126,871
37,853	-4,774	254,845	126,629
38,867	-5,071	254,628	126,249
39,882	-4,703	254,460	126,477
40,896	-4,775	254,247	126,297
41,911	-4,820	254,108	126,177
42,926	-4,779	253,753	126,026
43,940	-5,008	253,644	125,760
44,955	-4,923	253,322	125,663
45,969	-5,121	253,278	125,458
46,984	-5,376	252,951	125,062
47,999	-5,320	252,476	124,865
49,013	-5,447	252,331	124,672
50,028	-5,703	252,245	124,396
51,042	-5,523	251,838	124,341
52,057	-5,725	251,629	124,051
53,071	-5,453	251,279	124,103
54,086	-5,585	251,319	123,997
55,101	-5,469	251,039	123,948
56,115	-5,350	251,014	124,027
57,130	-4,787	250,929	124,460
58,144	-4,560	250,807	124,585
59,159	-4,559	250,553	124,448
60,174	-4,676	250,381	124,251
61,188	-4,715	250,128	124,081
62,203	-4,576	250,039	124,145
63,217	-4,619	249,807	123,981
64,232	-4,693	249,638	123,823
65,247	-4,678	249,232	123,624
66,261	-4,568	249,054	123,618
67,276	-5,056	248,863	123,096
68,290	-4,813	248,381	123,053
69,305	-5,427	248,483	122,569
70,320	-5,132	248,214	122,677
71,334	-4,861	247,993	122,787
72,349	-4,545	247,917	123,008
73,363	-4,606	247,628	122,801
74,378	-4,673	247,496	122,668
75,393	-4,642	247,121	122,498
76,407	-4,782	247,113	122,364
77,422	-4,700	246,930	122,332
78,436	-4,613	246,597	122,230
79,451	-4,807	246,460	121,987
80,466	-4,850	246,286	121,854
81,480	-4,992	245,915	121,539
82,495	-5,149	245,872	121,375
83,509	-5,038	245,709	121,377
84,524	-4,895	245,414	121,341
85,539	-5,104	245,221	121,059
86,553	-5,001	245,038	121,045
87,568	-4,855	244,748	121,012
88,582	-4,940	244,736	120,925
89,597	-4,978	244,379	120,706
90,611	-4,956	244,601	120,823
91,626	-4,912	244,281	120,691
92,641	-4,790	244,028	120,657
93,655	-4,880	243,895	120,506
94,670	-4,926	243,659	120,339
95,684	-4,911	243,499	120,263
96,699	-4,844	243,347	120,233
97,714	-4,984	242,995	119,932
98,728	-5,156	242,821	119,692
99,743	-5,176	242,658	119,585
100,757	-5,166	242,395	119,452
101,772	-5,241	242,327	119,346
102,787	-5,020	242,060	119,386
103,801	-5,005	241,995	119,356
104,816	-4,976	241,942	119,344
105,830	-4,820	241,512	119,250
106,845	-4,739	241,552	119,327
107,860	-4,759	241,365	119,207
108,874	-4,908	241,042	118,914
109,889	-5,058	241,007	118,762
110,903	-5,022	240,704	118,632
111,918	-5,008	240,636	118,599
112,933	-4,893	240,463	118,598
113,947	-4,944	240,251	118,441
114,962	-4,995	240,237	118,381
115,976	-4,834	240,003	118,388
116,991	-4,805	239,770	118,286
118,006	-4,909	239,590	118,102
119,020	-4,858	239,477	118,077
120,035	-4,508	239,315	118,273
121,049	-4,786	239,179	117,968
122,064	-4,735	238,929	117,876
123,079	-4,963	238,805	117,618
124,093	-5,087	238,651	117,431
125,108	-4,953	238,264	117,338
126,122	-5,210	238,049	117,013
127,137	-5,312	237,843	116,819
128,151	-5,239	237,848	116,870
129,166	-5,042	237,569	116,882
130,181	-4,937	237,347	116,848
131,195	-5,125	237,212	116,619
132,210	-5,002	237,206	116,705
133,224	-4,925	236,960	116,636
134,239	-4,890	236,846	116,598
135,254	-4,818	236,779	116,612
136,268	-5,117	236,533	116,239
137,283	-5,396	236,241	115,860
138,297	-5,234	235,826	115,777
139,312	-5,339	235,812	115,675
140,327	-4,923	235,625	115,908
141,341	-4,626	235,833	116,239
142,356	-4,506	235,632	116,226
143,370	-4,500	235,456	116,133
144,385	-4,253	235,291	116,240
145,400	-4,386	235,061	116,010
146,414	-4,357	234,893	115,940
147,429	-4,374	234,575	115,759
148,443	-4,665	234,583	115,519
149,458	-4,559	234,357	115,483
150,473	-4,474	234,160	115,443
151,487	-4,749	234,021	115,145
152,502	-4,513	233,901	115,264
153,516	-4,456	233,792	115,245
154,531	-4,407	233,506	115,133
155,546	-4,528	233,346	114,948
156,560	-4,649	233,126	114,732
157,575	-4,814	232,921	114,491
158,589	-4,597	232,776	114,582
159,604	-4,570	232,776	114,593
160,619	-4,358	232,533	114,630
161,633	-4,428	232,546	114,572
162,648	-4,486	232,401	114,444
163,662	-4,556	232,029	114,195
164,677	-4,541	231,878	114,123
165,692	-4,374	231,886	114,248
166,706	-4,384	231,772	114,174
167,721	-4,147	231,574	114,252
168,735	-4,215	231,360	114,084
169,750	-4,420	231,219	113,843
170,764	-4,508	231,045	113,678
171,779	-4,565	231,096	113,647
172,794	-4,557	230,964	113,579
173,808	-4,588	230,665	113,398
174,823	-5,105	230,254	112,780
175,837	-5,102	230,083	112,688
176,852	-4,734	230,069	112,960
177,867	-4,494	230,026	113,116
178,881	-4,317	229,771	113,119
179,896	-4,554	229,691	112,885
180,910	-4,559	229,500	112,777
181,925	-4,390	229,496	112,897
182,940	-4,554	229,258	112,642
183,954	-4,454	229,019	112,592
184,969	-4,327	228,949	112,646
185,983	-4,255	228,835	112,636
186,998	-4,224	228,682	112,575
188,013	-4,378	228,551	112,381
189,027	-4,078	228,214	112,438
190,042	-4,368	228,241	112,216
191,056	-4,140	227,992	112,261
192,071	-4,360	227,794	111,983
193,086	-4,420	227,698	111,879
194,100	-4,187	227,547	111,975
195,115	-4,523	227,170	111,520
196,129	-5,309	226,955	110,799
197,144	-2,523	227,986	113,448
198,159	2,160	229,057	117,603
199,173	4,272	229,522	119,470
200,188	4,261	229,501	119,440
201,202	4,178	229,379	119,301
202,217	4,543	229,246	119,503
203,232	4,667	229,160	119,544
204,246	5,050	229,027	119,760
205,261	4,866	228,789	119,483
206,275	5,030	228,785	119,597
207,290	5,087	228,634	119,551
208,304	5,048	228,478	119,429
209,319	4,896	228,296	119,206
210,334	4,982	227,971	119,092
211,348	4,762	227,902	118,876
212,363	4,510	227,461	118,442
213,377	3,982	227,374	117,981
214,392	4,127	227,193	117,988
215,407	4,291	227,123	118,067
216,421	4,111	226,957	117,832
217,436	4,114	226,849	117,768
218,450	3,783	226,591	117,371
219,465	3,843	226,393	117,303
220,480	3,714	226,412	117,204
221,494	3,933	226,108	117,203
222,509	4,193	225,974	117,322
223,523	3,864	225,921	117,033
224,538	3,954	225,725	116,990
225,553	3,888	225,688	116,910
226,567	4,201	225,399	116,988
227,582	4,369	225,558	117,187
228,596	4,272	225,363	117,001
229,611	4,459	224,918	116,902
230,626	3,963	224,779	116,444
231,640	4,053	224,708	116,465
232,655	4,307	224,737	116,661
233,669	4,715	224,459	116,814
234,684	4,802	224,438	116,859
235,699	4,510	224,341	116,578
236,713	4,179	224,036	116,160
237,728	4,187	223,801	116,033
238,742	4,123	223,690	115,917
239,757	4,199	223,505	115,868
240,772	4,036	223,337	115,648
241,786	4,030	223,226	115,576
242,801	4,145	223,233	115,655
243,815	4,521	223,052	115,834
244,830	4,426	223,030	115,741
245,844	4,158	222,814	115,418
246,859	4,401	222,595	115,476
247,874	4,231	222,573	115,327
248,888	4,424	222,391	115,366
249,903	4,302	222,260	115,197
250,917	4,249	222,026	115,026
251,932	4,145	221,843	114,843
252,947	4,151	221,730	114,779
253,961	4,228	221,314	114,611
254,976	4,158	221,358	114,571
255,990	4,364	221,310	114,689
257,005	4,370	221,149	114,600
258,020	4,327	221,031	114,497
259,034	4,581	220,967	114,642
260,049	4,580	220,735	114,511
261,063	4,261	220,585	114,186
262,078	4,510	220,537	114,336
263,093	4,395	220,366	114,152
264,107	4,528	220,142	114,124
265,122	4,544	220,109	114,108
266,136	4,768	219,994	114,204
267,151	4,608	219,889	114,021
268,166	4,266	219,503	113,559
269,180	4,096	219,222	113,278
270,195	3,912	219,192	113,117
271,209	4,228	219,052	113,268
272,224	4,087	219,034	113,144
273,239	4,035	218,874	113,014
274,253	4,164	218,708	113,012
275,268	4,016	218,495	112,784
276,282	3,923	218,275	112,592
277,297	3,815	218,227	112,479
278,312	4,033	218,113	112,569
279,326	4,096	217,970	112,531
280,341	4,221	217,903	112,578
281,355	4,097	217,762	112,404
282,370	4,241	217,491	112,359
283,384	4,132	217,315	112,179
284,399	3,885	217,310	111,986
285,414	3,785	217,132	111,812
286,428	3,827	217,101	111,817
287,443	4,156	216,986	111,987
288,457	4,178	216,821	111,907
289,472	4,104	216,655	111,759
290,487	3,881	216,458	111,484
291,501	3,782	216,265	111,304
292,516	3,691	216,099	111,142
293,530	3,873	216,077	111,253
294,545	3,959	215,753	111,138
295,560	3,865	215,868	111,120
296,574	4,060	215,618	111,122
297,589	3,942	215,583	111,009
298,603	4,173	215,497	111,121
299,618	4,179	215,236	110,982
300,633	4,113	215,075	110,841
301,647	4,409	215,046	111,029
302,662	4,388	214,926	110,942
303,676	4,623	214,731	111,000
304,691	4,344	214,617	110,731
305,706	4,253	214,625	110,660
306,720	4,298	214,416	110,575
307,735	4,214	214,217	110,402
308,749	4,012	213,998	110,135
309,764	4,098	214,048	110,212
310,779	4,404	213,785	110,286
311,793	4,453	213,495	110,162
312,808	4,204	213,498	109,975
313,822	4,128	213,346	109,833
314,837	4,302	213,180	109,861
315,852	4,093	212,979	109,599
316,866	3,950	212,941	109,468
317,881	4,247	212,863	109,630
318,895	4,494	212,602	109,661
319,910	4,187	212,540	109,401
320,925	4,013	212,204	109,095
321,939	3,718	212,044	108,794
322,954	3,633	212,009	108,706
323,968	4,108	211,907	108,981
324,983	4,292	211,871	109,082
325,997	4,177	211,748	108,928
327,012	4,099	211,608	108,792
328,027	4,262	211,378	108,779
329,041	4,260	211,466	108,813
330,056	4,720	211,276	109,030
331,070	4,083	210,968	108,412
332,085	3,847	210,904	108,204
333,100	3,972	210,741	108,199
334,114	4,199	210,621	108,287
335,129	4,167	210,435	108,159
336,143	3,621	210,372	107,734
337,158	3,973	210,111	107,837
338,173	4,042	210,021	107,830
339,187	3,684	209,919	107,517
340,202	3,807	209,717	107,490
341,216	3,817	209,606	107,430
342,231	3,946	209,532	107,473
343,246	3,907	209,214	107,273
344,260	4,090	209,192	107,380
345,275	4,188	209,164	107,424
346,289	3,953	209,080	107,208
347,304	3,983	208,952	107,154
348,319	4,210	208,842	107,245
349,333	3,963	208,537	106,907
350,348	4,378	208,379	107,106
351,362	4,416	208,307	107,085
352,377	4,407	208,265	107,047
353,392	3,977	208,140	106,676
354,406	4,091	208,074	106,711
355,421	194,545	1345,082	1435,950
356,435	155,244	1483,722	1436,079
