DTS Sentinel unit serial number:	SN410029Multiplexer serial number:	ORYXHardware model number:	OX2-SRSoftware version number:	ORYX F/W v4,00 Oryx Data Collector v3.7.2.0data status	okinstallation	B6 Nyhavnadifferential loss correction	single-endedforward channel	channel 2reverse channel	N/Adate	2023/12/08time	04:50:08forward acquisition time	300,00reverse acquisition time	0,00gamma	499,1914k internal	0,3165k external	0,3165temperature offset calibration	1,0000default loss term (dB/km)	0,3820temperature slope calibration	1,0000multiplexer offset coefficient	1,0000multiplexer slope coefficient	1,0000fibre end	0,00T internal ref (°C)	13,04T ext. ref 1 (°C)	-3,79T ext. ref 2 (°C)	-3,77length (m)	temperature (°C)	Stokes	anti-Stokes-744,400	164,347	0,045	0,047
-743,385	-99,499	-0,242	-0,044
-742,371	-162,645	0,108	-0,004
-741,356	-99,433	-0,411	-0,075
-740,342	-22,680	0,160	0,071
-739,327	-70,837	-0,380	-0,105
-738,312	144,526	-0,078	0,077
-737,298	-115,464	-0,227	-0,031
-736,283	27,574	0,120	0,074
-735,269	-170,623	-0,254	0,006
-734,254	7,649	0,103	-0,057
-733,239	37,599	-0,547	-0,356
-732,225	-48,726	0,146	0,051
-731,210	800,000	0,049	0,133
-730,196	-200,000	-0,020	0,074
-729,181	-83,683	-0,061	0,014
-728,167	60,674	0,078	-0,057
-727,152	347,122	0,011	0,015
-726,137	-200,000	0,003	-0,098
-725,123	-55,054	-0,054	-0,018
-724,108	-90,963	-0,090	-0,019
-723,094	54,142	-0,148	-0,104
-722,079	-200,000	0,008	-0,033
-721,064	-85,740	0,135	-0,031
-720,050	-152,406	-0,051	0,003
-719,035	-138,235	0,102	-0,008
-718,021	253,932	-0,087	-0,109
-717,006	800,000	-0,040	-0,090
-715,991	-200,000	0,004	-0,106
-714,977	-71,147	-0,083	-0,023
-713,962	-85,074	0,069	0,016
-712,948	-77,709	-0,108	-0,027
-711,933	-60,402	-0,147	0,046
-710,918	388,048	0,016	-0,024
-709,904	-200,000	-0,001	-0,030
-708,889	-43,334	0,079	0,029
-707,875	-77,616	-0,125	-0,032
-706,860	59,353	-0,114	-0,083
-705,845	-69,790	-0,103	0,029
-704,831	-21,825	0,126	0,056
-703,816	105,020	-0,045	0,039
-702,802	-95,112	0,019	-0,004
-701,787	-99,756	-0,034	-0,006
-700,772	-2,602	-0,111	0,057
-699,758	-165,072	-0,076	0,002
-698,743	760,709	0,027	0,054
-697,729	185,018	-0,070	0,076
-696,714	83,706	-0,056	0,045
-695,699	800,000	-0,029	0,065
-694,685	-181,139	-0,163	0,002
-693,670	22,055	0,048	-0,029
-692,656	-15,662	-0,079	-0,037
-691,641	166,032	-0,087	-0,091
-690,627	55,162	0,027	-0,019
-689,612	-38,657	0,034	-0,013
-688,597	446,000	0,041	-0,066
-687,583	186,169	-0,079	-0,087
-686,568	-200,000	0,007	-0,099
-685,554	-25,620	0,093	-0,040
-684,539	59,589	-0,096	0,070
-683,524	242,159	-0,040	-0,049
-682,510	45,248	0,068	-0,046
-681,495	-124,663	-0,046	-0,005
-680,481	-100,988	0,184	0,033
-679,466	4,915	0,078	-0,042
-678,451	-57,545	-0,017	-0,006
-677,437	768,759	0,011	-0,023
-676,422	7,479	0,156	0,086
-675,408	85,981	-0,174	0,140
-674,393	-23,726	0,115	-0,050
-673,378	-9,632	-0,237	-0,115
-672,364	604,337	-0,009	-0,016
-671,349	-167,277	-0,051	0,001
-670,335	-82,514	0,093	0,022
-669,320	-200,000	-0,028	0,150
-668,305	-200,000	0,028	-0,202
-667,291	-148,943	-0,131	-0,008
-666,276	-200,000	0,010	0,050
-665,262	800,000	0,048	-0,098
-664,247	800,000	0,031	0,080
-663,232	-200,000	0,031	-0,180
-662,218	6,271	-0,110	0,060
-661,203	8,938	-0,035	0,019
-660,189	-135,849	-0,055	-0,005
-659,174	152,138	-0,057	0,057
-658,159	-78,567	-0,035	0,009
-657,145	197,968	0,041	-0,046
-656,130	-96,282	0,133	0,026
-655,116	184,919	0,040	0,043
-654,101	-200,000	0,002	-0,082
-653,086	322,879	0,109	-0,152
-652,072	114,662	-0,151	-0,135
-651,057	-113,214	-0,118	0,017
-650,043	-200,000	-0,001	-0,054
-649,028	486,507	-0,036	-0,061
-648,014	210,976	0,037	0,042
-646,999	75,113	0,125	-0,096
-645,984	253,138	-0,039	0,049
-644,970	52,578	0,029	0,020
-643,955	-200,000	0,012	-0,063
-642,941	0,371	-0,037	-0,019
-641,926	25,311	-0,058	-0,035
-640,911	-75,974	0,022	-0,006
-639,897	-23,511	0,118	-0,052
-638,882	800,000	-0,030	-0,077
-637,868	-57,399	0,011	-0,003
-636,853	800,000	-0,018	0,038
-635,838	189,930	-0,083	-0,092
-634,824	-38,725	-0,100	0,038
-633,809	-60,722	-0,051	0,016
-632,795	97,012	0,146	-0,123
-631,780	-200,000	-0,004	-0,051
-630,765	800,000	-0,017	0,036
-629,751	151,194	-0,050	-0,050
-628,736	-107,000	-0,153	-0,025
-627,722	795,931	-0,064	-0,130
-626,707	-48,687	0,102	-0,036
-625,692	800,000	0,033	-0,083
-624,678	605,391	-0,055	0,100
-623,663	800,000	-0,037	0,077
-622,649	795,820	0,064	-0,130
-621,634	180,624	-0,078	-0,084
-620,619	-200,000	0,030	-0,141
-619,605	61,797	-0,048	0,035
-618,590	-128,523	-0,167	0,017
-617,576	-12,889	0,026	-0,013
-616,561	322,943	-0,079	-0,111
-615,546	-200,000	-0,015	-0,123
-614,532	-85,669	-0,084	-0,019
-613,517	-200,000	0,002	-0,053
-612,503	-200,000	0,021	-0,124
-611,488	-200,000	0,000	0,009
-610,474	800,000	-0,006	-0,011
-609,459	-200,000	-0,034	-0,171
-608,444	240,297	0,018	0,022
-607,430	-20,537	-0,071	-0,032
-606,415	464,989	0,051	-0,084
-605,401	-200,000	0,012	0,048
-604,386	53,425	0,116	0,081
-603,371	63,038	0,092	0,067
-602,357	800,000	0,052	0,110
-601,342	372,337	-0,018	0,026
-600,328	-60,431	-0,132	-0,041
-599,313	148,389	-0,122	-0,120
-598,298	800,000	0,021	-0,050
-597,284	-200,000	0,018	-0,062
-596,269	-200,000	0,015	0,093
-595,255	229,426	0,054	-0,065
-594,240	291,559	-0,017	0,022
-593,225	-200,000	0,028	-0,115
-592,211	-200,000	-0,025	-0,109
-591,196	-200,000	-0,015	-0,066
-590,182	-175,564	-0,186	-0,004
-589,167	20,588	0,037	0,022
-588,152	-123,346	0,134	0,015
-587,138	-87,101	-0,085	0,019
-586,123	120,797	-0,129	-0,117
-585,109	-69,032	-0,102	0,029
-584,094	782,055	0,026	-0,052
-583,079	-185,441	0,024	-0,000
-582,065	394,213	-0,079	-0,121
-581,050	121,212	0,162	-0,147
-580,036	-75,648	-0,114	-0,029
-579,021	35,242	-0,074	0,047
-578,006	-132,089	-0,005	-0,000
-576,992	-200,000	0,000	-0,073
-575,977	-174,806	0,115	-0,002
-574,963	800,000	0,065	0,174
-573,948	-192,148	0,120	0,001
-572,934	84,889	-0,124	0,099
-571,919	-200,000	0,012	-0,044
-570,904	116,004	0,113	0,101
-569,890	800,000	-0,045	-0,095
-568,875	38,991	0,020	-0,013
-567,861	123,657	0,042	-0,039
-566,846	165,632	-0,078	-0,081
-565,831	-27,367	0,138	0,058
-564,817	-15,623	0,056	-0,026
-563,802	-140,622	-0,230	0,017
-562,788	-55,658	-0,083	-0,027
-561,773	-200,000	-0,122	0,000
-560,758	-200,000	-0,002	0,027
-559,744	121,875	-0,024	0,022
-558,729	30,606	0,063	-0,039
-557,715	156,662	0,018	-0,018
-556,700	77,015	0,033	-0,026
-555,685	295,573	0,082	-0,110
-554,671	281,284	0,038	0,049
-553,656	90,985	-0,102	-0,083
-552,642	28,515	0,097	0,060
-551,627	-200,000	0,017	-0,101
-550,612	-109,232	-0,068	0,010
-549,598	130,802	-0,059	-0,055
-548,583	-42,715	0,050	0,019
-547,569	136,492	0,133	0,127
-546,554	-155,938	-0,044	0,002
-545,539	800,000	0,044	-0,097
-544,525	137,164	-0,117	0,112
-543,510	26,581	0,100	-0,061
-542,496	344,929	0,057	-0,082
-541,481	800,000	-0,009	0,024
-540,466	91,318	-0,041	0,033
-539,452	-200,000	-0,014	0,092
-538,437	-110,954	-0,070	0,010
-537,423	-138,585	-0,069	-0,005
-536,408	800,000	0,047	-0,116
-535,393	800,000	0,059	-0,120
-534,379	289,473	-0,030	-0,040
-533,364	800,000	-0,064	-0,186
-532,350	-73,403	0,034	-0,009
-531,335	-200,000	0,028	0,133
-530,321	-200,000	0,000	-0,120
-529,306	-200,000	-0,005	0,101
-528,291	284,538	-0,026	-0,034
-527,277	194,970	-0,089	-0,098
-526,262	22,442	-0,133	0,079
-525,248	-200,000	0,004	0,041
-524,233	163,408	0,083	-0,085
-523,218	-92,158	0,058	-0,012
-522,204	-200,000	0,026	0,110
-521,189	190,974	-0,098	-0,108
-520,175	234,397	0,067	0,081
-519,160	-24,538	-0,124	-0,053
-518,145	433,898	0,053	0,084
-517,131	-25,230	0,081	0,035
-516,116	-20,676	-0,040	0,018
-515,102	-12,025	0,074	-0,035
-514,087	426,129	0,055	0,086
-513,072	-80,711	0,134	-0,032
-512,058	36,438	-0,047	0,030
-511,043	132,391	0,038	0,036
-510,029	-200,000	-0,016	0,063
-509,014	70,819	-0,034	0,026
-507,999	218,482	-0,036	0,042
-506,985	189,445	0,059	-0,065
-505,970	-200,000	-0,023	-0,098
-504,956	97,410	0,017	-0,015
-503,941	800,000	0,041	-0,117
-502,926	-200,000	0,006	0,065
-501,912	350,844	0,040	-0,057
-500,897	-77,286	-0,057	0,014
-499,883	-175,138	0,079	-0,002
-498,868	368,231	-0,026	0,039
-497,853	-29,075	0,063	-0,026
-496,839	800,000	0,019	-0,040
-495,824	223,305	0,026	0,031
-494,810	-200,000	0,006	-0,034
-493,795	25,105	-0,072	0,043
-492,781	229,559	0,081	-0,096
-491,766	-0,460	-0,097	-0,050
-490,751	772,254	0,066	0,132
-489,737	317,751	-0,033	0,046
-488,722	-200,000	0,019	0,110
-487,708	-138,209	0,115	-0,009
-486,693	147,790	-0,065	-0,064
-485,678	336,949	-0,033	-0,047
-484,664	-1,462	-0,068	0,035
-483,649	79,786	0,064	0,050
-482,635	74,601	0,119	0,091
-481,620	494,425	0,079	-0,133
-480,605	-88,764	0,024	0,005
-479,591	-200,000	-0,007	-0,034
-478,576	-200,000	0,000	-0,114
-477,562	-54,052	-0,102	-0,034
-476,547	8,928	-0,077	-0,042
-475,532	460,012	-0,021	0,034
-474,518	-200,000	0,001	0,034
-473,503	251,720	-0,081	0,100
-472,489	-177,911	-0,042	0,001
-471,474	150,096	-0,073	0,072
-470,459	12,293	-0,058	0,032
-469,445	800,000	0,013	-0,026
-468,430	-200,000	0,014	0,070
-467,416	186,027	0,026	0,029
-466,401	-38,537	0,153	-0,058
-465,386	800,000	-0,028	-0,073
-464,372	194,328	-0,015	-0,016
-463,357	164,645	-0,051	0,052
-462,343	-27,478	0,079	0,033
-461,328	-48,287	0,049	-0,017
-460,313	-200,000	0,009	0,077
-459,299	-9,968	0,115	-0,055
-458,284	800,000	-0,023	-0,056
-457,270	485,585	0,042	-0,070
-456,255	-123,725	-0,033	0,004
-455,241	363,604	0,009	0,013
-454,226	331,254	-0,106	0,149
-453,211	-54,312	0,099	0,033
-452,197	-6,353	-0,051	-0,025
-451,182	239,434	-0,016	0,020
-450,168	800,000	-0,074	-0,162
-449,153	-200,000	-0,021	-0,113
-448,138	26,533	-0,061	-0,037
-447,124	281,877	-0,080	-0,104
-446,109	0,102	0,141	0,073
-445,095	-23,943	0,121	0,052
-444,080	-9,831	0,026	0,013
-443,065	-200,000	-0,016	0,091
-442,051	800,000	-0,049	0,153
-441,036	-200,000	0,039	0,134
-440,022	330,316	-0,060	-0,084
-439,007	284,104	0,037	-0,048
-437,992	-200,000	-0,009	0,039
-436,978	-135,283	0,038	-0,003
-435,963	800,000	0,005	-0,014
-434,949	8,385	0,079	-0,043
-433,934	195,848	0,032	0,035
-432,919	800,000	-0,091	-0,189
-431,905	-19,394	0,108	-0,049
-430,890	-34,144	-0,118	-0,047
-429,876	800,000	0,032	-0,076
-428,861	21,018	0,055	0,032
-427,846	125,830	-0,087	-0,079
-426,832	-91,169	-0,097	0,020
-425,817	-200,000	-0,005	-0,052
-424,803	800,000	0,022	0,067
-423,788	-33,751	0,011	-0,004
-422,773	800,000	0,087	0,186
-421,759	10,734	-0,141	0,078
-420,744	47,942	0,044	0,030
-419,730	-200,000	-0,011	-0,067
-418,715	-136,111	-0,032	0,003
-417,701	-200,000	-0,000	0,026
-416,686	-200,000	-0,018	0,083
-415,671	233,240	0,147	0,176
-414,657	-200,000	-0,023	0,086
-413,642	-200,000	-0,006	0,067
-412,628	800,000	0,009	0,027
-411,613	-200,000	-0,018	-0,104
-410,598	-166,103	-0,152	0,005
-409,584	800,000	0,034	-0,069
-408,569	64,576	0,022	0,016
-407,555	98,302	-0,033	-0,027
-406,540	800,000	0,054	-0,118
-405,525	-200,000	0,003	-0,101
-404,511	20,104	0,047	-0,028
-403,496	311,672	-0,077	-0,106
-402,482	-200,000	-0,001	0,045
-401,467	-200,000	0,064	0,207
-400,452	-200,000	0,027	0,141
-399,438	800,000	-0,035	0,111
-398,423	-155,767	-0,115	0,005
-397,409	-200,000	-0,016	-0,131
-396,394	-144,437	-0,148	0,010
-395,379	339,027	0,022	0,031
-394,365	223,266	-0,044	0,052
-393,350	-23,176	0,035	0,015
-392,336	478,465	0,019	0,031
-391,321	111,849	0,087	-0,076
-390,306	-30,204	0,068	-0,028
-389,292	-136,243	0,043	-0,004
-388,277	-200,000	0,011	-0,057
-387,263	611,748	-0,034	0,063
-386,248	800,000	0,035	0,097
-385,233	460,945	0,083	0,134
-384,219	-200,000	0,029	-0,098
-383,204	377,362	-0,070	-0,105
-382,190	-200,000	0,014	-0,087
-381,175	491,564	0,045	0,075
-380,160	-200,000	0,024	-0,133
-379,146	-200,000	-0,016	-0,110
-378,131	105,390	0,087	-0,075
-377,117	-73,229	-0,043	-0,011
-376,102	-59,775	-0,073	-0,023
-375,088	335,270	-0,035	0,050
-374,073	-200,000	0,013	0,069
-373,058	-200,000	-0,033	0,142
-372,044	-200,000	-0,009	0,079
-371,029	82,802	0,014	-0,011
-370,015	800,000	-0,044	-0,095
-369,000	800,000	0,015	-0,037
-367,985	145,588	-0,168	-0,163
-366,971	635,091	-0,033	-0,061
-365,956	-200,000	-0,012	0,079
-364,942	6,779	0,053	-0,028
-363,927	800,000	0,040	0,082
-362,912	375,880	0,146	0,216
-361,898	208,369	-0,009	0,011
-360,883	-200,000	-0,045	-0,189
-359,869	800,000	-0,081	-0,172
-358,854	624,627	-0,016	0,030
-357,839	-70,366	0,134	0,036
-356,825	-147,544	0,094	-0,006
-355,810	-30,692	0,133	0,054
-354,796	-200,000	-0,015	-0,060
-353,781	115,383	-0,032	-0,029
-352,766	221,903	-0,070	0,081
-351,752	209,895	-0,066	0,075
-350,737	-49,527	0,047	0,016
-349,723	-200,000	0,012	0,082
-348,708	-82,689	-0,119	-0,028
-347,693	337,594	0,058	-0,081
-346,679	-200,000	-0,008	-0,106
-345,664	-200,000	0,017	-0,162
-344,650	180,781	0,058	0,062
-343,635	31,724	0,092	0,057
-342,620	-57,207	-0,078	-0,025
-341,606	-84,123	0,080	-0,018
-340,591	-200,000	0,011	0,072
-339,577	605,900	0,035	-0,063
-338,562	222,068	-0,072	0,084
-337,548	-200,000	-0,009	0,042
-336,533	191,284	-0,060	-0,065
-335,518	-200,000	0,025	0,123
-334,504	-200,000	-0,017	0,059
-333,489	-111,866	-0,036	0,005
-332,475	343,376	-0,056	0,079
-331,460	68,523	-0,030	-0,022
-330,445	-82,243	-0,094	-0,022
-329,431	800,000	0,032	0,096
-328,416	469,201	0,027	0,044
-327,402	-142,479	0,030	-0,002
-326,387	24,359	-0,128	-0,076
-325,372	-200,000	0,009	-0,060
-324,358	-200,000	0,047	0,000
-323,343	-200,000	0,015	-0,090
-322,329	17,533	0,111	0,064
-321,314	800,000	-0,090	0,184
-320,299	119,864	-0,057	0,051
-319,285	-176,465	0,056	-0,001
-318,270	115,727	-0,042	-0,037
-317,256	171,548	0,022	-0,023
-316,241	-142,704	0,139	0,010
-315,226	64,683	0,058	-0,043
-314,212	104,451	0,101	-0,086
-313,197	71,973	-0,061	0,046
-312,183	412,963	-0,030	0,046
-311,168	-69,048	-0,081	0,023
-310,153	178,416	0,065	-0,069
-309,139	325,315	0,120	0,167
-308,124	800,000	0,036	-0,077
-307,110	800,000	-0,035	-0,110
-306,095	-200,000	-0,005	0,118
-305,080	800,000	-0,047	0,125
-304,066	55,386	-0,054	0,037
-303,051	800,000	0,018	-0,055
-302,037	78,304	0,051	-0,039
-301,022	800,000	0,022	-0,048
-300,008	236,323	0,037	-0,045
-298,993	-86,751	-0,108	-0,024
-297,978	338,599	0,017	0,024
-296,964	242,562	-0,085	-0,103
-295,949	250,262	-0,069	-0,085
-294,935	-200,000	0,035	-0,164
-293,920	800,000	0,044	0,126
-292,905	800,000	-0,029	-0,074
-291,891	35,261	0,063	0,040
-290,876	189,616	-0,079	0,085
-289,862	-156,268	-0,096	0,004
-288,847	-141,239	0,033	-0,002
-287,832	800,000	0,049	0,122
-286,818	159,683	0,101	0,102
-285,803	-200,000	-0,010	-0,097
-284,789	111,319	0,089	0,078
-283,774	376,364	0,104	0,154
-282,759	32,966	0,042	0,026
-281,745	-200,000	0,008	0,116
-280,730	-163,596	-0,117	-0,004
-279,716	-200,000	0,008	0,144
-278,701	-200,000	0,003	0,184
-277,686	-200,000	0,007	0,064
-276,672	-200,000	0,015	0,191
-275,657	-105,982	-0,062	-0,010
-274,643	-128,027	0,024	-0,002
-273,628	800,000	0,048	-0,139
-272,613	-200,000	-0,007	0,063
-271,599	-200,000	0,001	0,030
-270,584	-200,000	0,053	0,193
-269,570	122,209	0,074	-0,067
-268,555	-20,728	-0,090	-0,040
-267,540	-69,458	-0,087	-0,024
-266,526	709,863	-0,019	-0,036
-265,511	-10,170	0,052	0,025
-264,497	-75,526	0,095	-0,024
-263,482	-155,914	0,066	-0,003
-262,467	-131,956	-0,112	0,010
-261,453	148,814	0,152	0,148
-260,438	327,940	-0,100	-0,139
-259,424	-71,042	0,081	-0,022
-258,409	-200,000	-0,013	0,145
-257,395	315,053	0,087	0,118
-256,380	130,671	-0,086	0,080
-255,365	69,166	-0,003	0,002
-254,351	-200,000	0,023	0,074
-253,336	141,738	0,036	-0,034
-252,322	-70,668	-0,082	-0,022
-251,307	-134,872	-0,215	0,019
-250,292	-150,352	-0,062	-0,003
-249,278	-112,111	0,024	-0,003
-248,263	-54,997	0,175	0,056
-247,249	-200,000	0,003	0,065
-246,234	239,652	-0,068	0,082
-245,219	-200,000	0,005	-0,126
-244,205	-72,421	-0,063	-0,017
-243,190	97,312	0,032	-0,026
-242,176	24,681	0,128	-0,076
-241,161	419,225	-0,059	0,091
-240,146	-200,000	0,010	0,062
-239,132	-200,000	-0,017	0,070
-238,117	-200,000	0,002	-0,064
-237,103	-173,030	0,122	0,003
-236,088	-200,000	-0,024	-0,098
-235,073	179,614	0,058	0,061
-234,059	372,339	0,013	0,019
-233,044	-77,215	-0,118	0,029
-232,030	402,088	0,071	-0,108
-231,015	-197,051	-0,062	0,000
-230,000	-61,133	0,066	-0,020
-228,986	261,978	0,050	-0,063
-227,971	63,226	-0,063	-0,046
-226,957	458,256	0,062	0,099
-225,942	-200,000	-0,005	-0,022
-224,927	-200,000	0,013	-0,105
-223,913	-200,000	0,038	-0,187
-222,898	216,268	0,033	-0,037
-221,884	-183,897	0,106	0,001
-220,869	-3,231	0,083	-0,042
-219,855	800,000	0,046	0,116
-218,840	-200,000	0,000	-0,074
-217,825	129,008	-0,090	0,083
-216,811	-131,804	-0,274	-0,026
-215,796	-46,423	0,088	0,031
-214,782	124,226	-0,094	-0,085
-213,767	-200,000	-0,021	0,066
-212,752	800,000	0,075	0,231
-211,738	0,494	-0,047	0,024
-210,723	27,347	-0,025	-0,015
-209,709	107,204	0,022	-0,019
-208,694	83,718	0,008	0,006
-207,679	-200,000	-0,028	-0,135
-206,665	800,000	0,046	0,100
-205,650	184,811	0,029	0,031
-204,636	69,086	-0,041	0,031
-203,621	-39,884	0,143	-0,053
-202,606	-200,000	0,016	0,075
-201,592	195,362	-0,043	0,047
-200,577	800,000	-0,039	0,096
-199,563	110,199	0,109	-0,094
-198,548	800,000	0,023	0,059
-197,533	-94,164	0,129	-0,025
-196,519	-161,265	-0,057	-0,002
-195,504	-200,000	0,004	0,071
-194,490	322,228	-0,044	-0,061
-193,475	51,865	-0,070	0,048
-192,460	64,737	0,130	-0,094
-191,446	-200,000	-0,001	0,036
-190,431	116,031	-0,046	-0,041
-189,417	478,080	0,098	-0,161
-188,402	232,285	-0,054	0,064
-187,387	-200,000	0,018	-0,062
-186,373	-63,008	-0,065	0,019
-185,358	-70,818	-0,122	0,033
-184,344	2,319	0,066	-0,034
-183,329	790,768	-0,009	-0,019
-182,315	-78,065	-0,108	-0,027
-181,300	244,850	-0,080	0,097
-180,285	-200,000	-0,000	-0,052
-179,271	789,133	-0,061	-0,121
-178,256	-26,465	-0,088	-0,037
-177,242	633,523	0,087	0,158
-176,227	428,544	0,070	0,110
-175,212	131,768	-0,050	-0,046
-174,198	235,218	-0,046	0,054
-173,183	-59,020	-0,093	-0,029
-172,169	276,992	0,011	0,014
-171,154	-200,000	0,004	-0,050
-170,139	-9,050	0,066	0,031
-169,125	800,000	0,022	0,050
-168,110	800,000	0,024	0,059
-167,096	-200,000	-0,021	-0,119
-166,081	-164,106	-0,131	0,004
-165,066	-200,000	-0,017	0,146
-164,052	-37,641	-0,118	0,045
-163,037	117,301	0,074	-0,066
-162,023	46,088	0,125	0,083
-161,008	800,000	-0,045	0,096
-159,993	-99,448	0,106	0,019
-158,979	-43,481	0,129	0,046
-157,964	34,826	-0,061	-0,038
-156,950	558,734	-0,086	0,149
-155,935	-200,000	-0,002	0,053
-154,920	-200,000	0,025	0,126
-153,906	127,158	0,114	0,104
-152,891	800,000	-0,041	0,083
-151,877	-66,946	-0,111	0,031
-150,862	800,000	-0,054	-0,129
-149,847	-59,404	0,041	-0,012
-148,833	587,292	0,072	-0,128
-147,818	177,444	0,062	-0,065
-146,804	-200,000	0,008	-0,038
-145,789	99,454	0,022	-0,018
-144,775	-200,000	-0,005	-0,053
-143,760	800,000	0,046	-0,119
-142,745	800,000	-0,021	0,051
-141,731	-136,029	0,080	-0,007
-140,716	457,364	0,053	0,085
-139,702	-200,000	0,001	0,024
-138,687	286,054	0,046	0,060
-137,672	-163,487	-0,076	-0,003
-136,658	800,000	0,050	-0,113
-135,643	55,697	-0,146	-0,102
-134,629	-95,502	0,091	-0,017
-133,614	800,000	-0,022	-0,060
-132,599	-200,000	0,033	0,167
-131,585	170,422	0,107	0,110
-130,570	166,198	-0,035	0,036
-129,556	800,000	0,033	0,068
-128,541	-200,000	-0,025	0,128
-127,526	-104,839	0,056	-0,009
-126,512	329,795	0,055	-0,076
-125,497	384,886	0,034	-0,051
-124,483	800,000	0,043	-0,103
-123,468	-41,061	-0,115	-0,043
-122,453	-112,127	0,034	0,005
-121,439	-54,940	0,048	-0,016
-120,424	744,380	-0,082	-0,159
-119,410	-54,028	0,070	-0,023
-118,395	468,445	-0,102	0,165
-117,380	334,291	-0,045	0,062
-116,366	624,371	0,053	-0,097
-115,351	-0,454	-0,186	-0,095
-114,337	-200,000	0,003	0,044
-113,322	-200,000	0,001	0,081
-112,307	800,000	0,032	-0,097
-111,293	313,643	0,039	-0,053
-110,278	23,501	0,067	0,040
-109,264	-200,000	-0,031	-0,118
-108,249	402,518	0,034	0,052
-107,234	403,173	-0,081	-0,123
-106,220	-200,000	-0,001	-0,142
-105,205	800,000	0,035	0,079
-104,191	320,615	0,052	0,071
-103,176	-200,000	0,025	0,081
-102,162	94,300	-0,025	-0,020
-101,147	800,000	0,065	-0,143
-100,132	48,418	-0,126	-0,084
-99,118	800,000	0,064	-0,141
-98,103	152,639	0,037	0,036
-97,089	10,158	0,167	0,091
-96,074	-1,577	0,070	0,035
-95,059	610,797	0,032	-0,058
-94,045	718,335	0,047	0,091
-93,030	26,211	-0,081	0,048
-92,016	-17,338	-0,040	-0,018
-91,001	-200,000	-0,012	0,061
-89,986	-200,000	0,039	0,132
-88,972	260,993	0,096	-0,119
-87,957	-200,000	0,008	0,065
-86,943	165,618	-0,040	0,041
-85,928	800,000	-0,017	-0,049
-84,913	-113,804	-0,159	0,022
-83,899	-46,396	-0,070	0,025
-82,884	-129,207	-0,149	0,015
-81,870	289,547	0,045	0,058
-80,855	-1,251	-0,020	-0,010
-79,840	-200,000	0,001	-0,033
-78,826	-200,000	-0,035	-0,118
-77,811	-170,256	0,112	0,003
-76,797	587,908	0,063	-0,112
-75,782	262,597	0,055	0,069
-74,767	-200,000	-0,033	0,134
-73,753	800,000	-0,024	-0,056
-72,738	-178,616	-0,083	-0,001
-71,724	23,234	-0,057	-0,034
-70,709	-200,000	-0,035	-0,144
-69,694	-51,677	0,085	-0,028
-68,680	800,000	-0,037	-0,099
-67,665	-200,000	-0,014	0,142
-66,651	-73,134	0,059	0,015
-65,636	-8,125	0,082	0,039
-64,622	-34,006	-0,125	0,049
-63,607	95,745	-0,125	0,102
-62,592	303,230	-0,052	0,069
-61,578	356,959	-0,088	-0,127
-60,563	349,892	-0,064	0,090
-59,549	-52,352	-0,098	0,032
-58,534	37,640	-2,236	-1,419
-57,519	-200,000	-0,097	-0,638
-56,505	-200,000	-1,360	-5,173
-55,490	90,133	0,940	0,752
-54,476	800,000	5,408	12,060
-53,461	-200,000	18,935	320,573
-52,446	800,000	741,729	2324,846
-51,432	548,522	1654,762	2849,062
-50,417	109,645	1637,376	1404,734
-49,403	73,248	1287,858	963,361
-48,388	29,340	1029,544	624,743
-47,373	19,544	992,613	569,943
-46,359	16,854	980,137	553,925
-45,344	13,431	976,582	540,665
-44,330	13,796	974,726	540,813
-43,315	13,131	972,923	537,613
-42,300	13,067	972,015	536,880
-41,286	13,054	970,873	536,186
-40,271	13,046	969,886	535,594
-39,257	13,078	969,080	535,233
-38,242	13,096	968,416	534,902
-37,227	13,084	967,421	534,291
-36,213	13,061	966,616	533,752
-35,198	13,021	965,555	533,015
-34,184	13,115	964,923	532,951
-33,169	13,036	963,930	532,123
-32,154	13,079	963,110	531,789
-31,140	13,094	962,013	531,213
-30,125	13,098	961,296	530,808
-29,111	13,036	960,750	530,284
-28,096	13,134	959,851	530,085
-27,082	13,053	959,229	529,458
-26,067	13,100	958,506	529,191
-25,052	13,075	957,948	528,780
-24,038	13,029	957,176	528,184
-23,023	13,093	956,382	527,931
-22,009	13,077	955,909	527,598
-20,994	13,128	955,149	527,320
-19,979	13,106	954,658	526,958
-18,965	13,057	954,029	526,433
-17,950	13,092	953,504	526,234
-16,936	13,013	952,730	525,533
-15,921	13,054	952,081	525,286
-14,906	12,932	951,272	524,430
-13,892	12,982	950,745	524,277
-12,877	12,962	950,138	523,858
-11,863	12,945	949,371	523,361
-10,848	12,924	948,841	522,979
-9,833	13,067	948,186	523,054
-8,819	13,031	947,610	522,600
-7,804	12,975	947,015	522,073
-6,790	12,993	946,415	521,778
-5,775	13,015	945,835	521,508
-4,760	12,935	945,423	521,006
-3,746	13,016	944,617	520,799
-2,731	12,831	944,004	519,855
-1,717	12,777	943,623	519,451
-0,702	12,819	942,578	518,989
0,313	12,590	942,030	518,745
1,327	16,118	939,840	528,639
2,342	25,377	790,220	468,876
3,356	21,393	445,149	258,198
4,371	-7,922	298,813	143,700
5,386	-11,595	280,523	131,373
6,400	-12,907	274,982	127,535
7,415	-12,931	272,595	126,393
8,429	-13,090	271,154	125,567
9,444	-13,193	270,287	125,059
10,459	-13,390	269,694	124,592
11,473	-13,133	268,916	124,457
12,488	-13,193	268,404	124,154
13,502	-13,448	267,959	123,704
14,517	-13,453	267,541	123,495
15,531	-13,415	267,094	123,313
16,546	-13,419	266,639	123,088
17,561	-13,342	266,149	122,921
18,575	-13,307	266,040	122,892
19,590	-13,590	265,504	122,376
20,604	-13,182	265,269	122,627
21,619	-13,388	264,891	122,254
22,634	-13,507	264,744	122,069
23,648	-13,393	264,239	121,927
24,663	-13,466	264,003	121,742
25,677	-13,473	263,679	121,576
26,692	-13,107	263,343	121,739
27,707	-13,429	263,080	121,317
28,721	-13,425	262,986	121,267
29,736	-13,533	262,708	121,031
30,750	-13,498	262,341	120,882
31,765	-13,276	262,041	120,932
32,780	-13,472	261,913	120,686
33,794	-13,627	261,755	120,465
34,809	-13,590	261,506	120,372
35,823	-13,468	261,095	120,281
36,838	-13,498	260,906	120,157
37,853	-13,706	260,788	119,906
38,867	-13,408	260,259	119,917
39,882	-13,464	259,980	119,728
40,896	-13,490	259,906	119,660
41,911	-13,448	259,670	119,579
42,926	-13,502	259,501	119,442
43,940	-13,691	259,200	119,126
44,955	-13,691	259,106	119,072
45,969	-13,786	258,722	118,802
46,984	-13,825	258,544	118,674
47,999	-14,202	258,215	118,181
49,013	-14,242	257,961	118,019
50,028	-14,427	257,632	117,696
51,042	-14,585	257,332	117,410
52,057	-14,567	257,239	117,373
53,071	-14,387	256,998	117,410
54,086	-14,563	256,910	117,205
55,101	-14,392	256,711	117,253
56,115	-13,947	256,565	117,565
57,130	-13,501	256,486	117,908
58,144	-13,043	256,078	118,109
59,159	-13,449	256,051	117,732
60,174	-13,348	255,814	117,701
61,188	-13,380	255,572	117,550
62,203	-13,550	255,406	117,316
63,217	-13,414	255,111	117,288
64,232	-13,512	254,891	117,092
65,247	-13,257	254,734	117,230
66,261	-13,714	254,540	116,735
67,276	-13,780	254,180	116,502
68,290	-13,863	253,882	116,283
69,305	-13,963	253,659	116,085
70,320	-13,916	253,521	116,052
71,334	-13,594	253,298	116,217
72,349	-13,418	253,218	116,321
73,363	-13,332	253,007	116,288
74,378	-13,266	252,874	116,274
75,393	-13,470	252,709	116,011
76,407	-13,486	252,333	115,815
77,422	-13,442	252,144	115,755
78,436	-13,452	251,930	115,638
79,451	-13,533	251,802	115,500
80,466	-13,585	251,514	115,313
81,480	-13,693	251,251	115,090
82,495	-13,734	251,044	114,950
83,509	-13,646	250,874	114,937
84,524	-13,952	250,691	114,583
85,539	-13,909	250,342	114,449
86,553	-13,807	250,222	114,471
87,568	-13,844	249,974	114,315
88,582	-13,816	249,867	114,281
89,597	-13,903	249,720	114,129
90,611	-13,741	249,582	114,193
91,626	-13,468	249,304	114,287
92,641	-13,437	249,064	114,193
93,655	-13,560	248,959	114,031
94,670	-13,578	248,670	113,873
95,684	-13,780	248,653	113,684
96,699	-13,673	248,273	113,591
97,714	-13,764	248,114	113,432
98,728	-13,810	247,916	113,292
99,743	-13,771	247,636	113,187
100,757	-14,002	247,383	112,867
101,772	-13,696	247,219	113,039
102,787	-13,923	247,226	112,842
103,801	-13,639	246,967	112,951
104,816	-13,791	246,956	112,809
105,830	-13,321	246,601	113,029
106,845	-13,444	246,554	112,895
107,860	-13,596	246,376	112,677
108,874	-13,563	246,089	112,563
109,889	-13,872	245,743	112,137
110,903	-13,811	245,686	112,152
111,918	-13,791	245,409	112,032
112,933	-13,776	245,379	112,021
113,947	-13,479	245,246	112,197
114,962	-13,649	245,071	111,966
115,976	-13,561	244,905	111,953
116,991	-13,435	244,475	111,851
118,006	-13,613	244,445	111,680
119,020	-13,589	244,389	111,664
120,035	-13,276	244,130	111,794
121,049	-13,380	244,077	111,674
122,064	-13,324	243,729	111,551
123,079	-13,675	243,592	111,190
124,093	-13,571	243,238	111,103
125,108	-13,742	243,034	110,860
126,122	-13,977	242,792	110,546
127,137	-14,111	242,645	110,360
128,151	-14,004	242,459	110,353
129,166	-13,889	242,363	110,394
130,181	-14,015	242,159	110,188
131,195	-14,171	242,001	109,978
132,210	-13,627	241,753	110,300
133,224	-13,650	241,681	110,239
134,239	-13,558	241,566	110,252
135,254	-13,585	241,304	110,101
136,268	-13,761	241,064	109,838
137,283	-13,949	240,815	109,562
138,297	-14,136	240,552	109,280
139,312	-14,181	240,481	109,201
140,327	-13,883	240,523	109,453
141,341	-13,350	240,420	109,829
142,356	-13,240	240,156	109,788
143,370	-13,179	239,968	109,741
144,385	-13,325	239,992	109,624
145,400	-13,148	239,540	109,552
146,414	-13,156	239,496	109,515
147,429	-13,184	239,396	109,437
148,443	-13,420	239,131	109,116
149,458	-13,349	238,921	109,067
150,473	-13,304	238,632	108,962
151,487	-13,498	238,617	108,789
152,502	-13,411	238,481	108,788
153,516	-13,047	238,190	108,937
154,531	-13,039	238,104	108,895
155,546	-13,481	237,932	108,452
156,560	-13,275	237,685	108,495
157,575	-13,445	237,413	108,225
158,589	-13,482	237,265	108,118
159,604	-13,079	237,115	108,362
160,619	-13,045	237,109	108,377
161,633	-13,025	236,825	108,253
162,648	-13,085	236,770	108,171
163,662	-13,248	236,620	107,963
164,677	-13,169	236,344	107,890
165,692	-13,142	236,259	107,863
166,706	-13,026	236,047	107,849
167,721	-13,022	235,877	107,765
168,735	-13,171	235,823	107,612
169,750	-13,131	235,653	107,557
170,764	-13,143	235,379	107,413
171,779	-13,142	235,344	107,388
172,794	-13,077	235,264	107,393
173,808	-13,388	234,983	107,009
174,823	-13,703	234,598	106,576
175,837	-13,869	234,340	106,318
176,852	-13,543	234,444	106,612
177,867	-13,207	234,444	106,869
178,881	-13,205	234,232	106,764
179,896	-12,896	233,976	106,881
180,910	-13,001	233,848	106,731
181,925	-13,086	233,730	106,600
182,940	-13,004	233,458	106,531
183,954	-13,066	233,452	106,471
184,969	-13,040	233,294	106,409
185,983	-12,975	233,184	106,401
186,998	-12,931	233,054	106,366
188,013	-12,934	232,757	106,219
189,027	-13,040	232,654	106,079
190,042	-13,059	232,442	105,958
191,056	-12,774	232,270	106,093
192,071	-12,935	232,074	105,868
193,086	-13,024	231,867	105,695
194,100	-12,869	231,821	105,786
195,115	-13,367	231,394	105,194
196,129	-13,581	231,579	105,102
197,144	-7,742	233,402	110,498
198,159	-1,744	235,168	116,048
199,173	2,119	236,471	119,732
200,188	2,912	236,358	120,289
201,202	2,821	236,164	120,108
202,217	3,079	236,095	120,266
203,232	3,274	235,972	120,345
204,246	3,233	235,755	120,192
205,261	3,352	235,721	120,257
206,275	3,656	235,507	120,375
207,290	3,664	235,195	120,212
208,304	3,594	235,231	120,164
209,319	3,824	235,044	120,238
210,334	3,289	234,803	119,686
211,348	3,162	234,602	119,473
212,363	2,693	234,368	118,977
213,377	2,613	234,123	118,780
214,392	2,755	233,967	118,801
215,407	2,713	233,892	118,720
216,421	2,837	233,797	118,758
217,436	2,656	233,579	118,496
218,450	2,481	233,303	118,209
219,465	2,457	233,073	118,063
220,480	2,413	233,132	118,049
221,494	2,400	233,082	118,003
222,509	2,845	232,891	118,240
223,523	2,937	232,763	118,236
224,538	2,684	232,451	117,871
225,553	2,846	232,218	117,867
226,567	2,979	232,054	117,877
227,582	2,747	232,177	117,750
228,596	3,016	231,967	117,840
229,611	2,756	231,749	117,518
230,626	2,654	231,558	117,332
231,640	2,679	231,303	117,211
232,655	3,204	231,363	117,635
233,669	3,018	231,202	117,400
234,684	3,393	231,080	117,616
235,699	3,137	230,940	117,337
236,713	2,751	230,674	116,896
237,728	2,526	230,710	116,732
238,742	2,723	230,261	116,645
239,757	2,594	230,428	116,620
240,772	2,812	230,106	116,613
241,786	2,578	229,983	116,362
242,801	3,019	229,825	116,608
243,815	2,997	229,913	116,626
244,830	3,421	229,589	116,774
245,844	2,876	229,250	116,177
246,859	2,914	229,119	116,129
247,874	2,973	229,093	116,150
248,888	2,977	228,859	116,024
249,903	3,051	228,689	115,983
250,917	2,828	228,518	115,718
251,932	2,866	228,402	115,677
252,947	2,376	228,323	115,255
253,961	2,800	228,010	115,408
254,976	2,581	228,084	115,269
255,990	3,016	227,930	115,510
257,005	2,725	227,824	115,227
258,020	2,821	227,792	115,272
259,034	2,900	227,462	115,155
260,049	2,821	227,382	115,045
261,063	2,926	227,209	115,026
262,078	3,180	227,027	115,114
263,093	3,211	227,025	115,127
264,107	2,943	226,797	114,800
265,122	2,964	226,745	114,778
266,136	3,226	226,689	114,937
267,151	3,391	226,342	114,874
268,166	2,846	226,135	114,350
269,180	2,532	225,908	113,990
270,195	2,642	225,712	113,964
271,209	2,516	225,538	113,772
272,224	2,666	225,694	113,952
273,239	2,649	225,444	113,803
274,253	2,764	225,281	113,797
275,268	2,542	225,043	113,501
276,282	2,633	224,792	113,432
277,297	2,385	224,739	113,211
278,312	2,652	224,641	113,350
279,326	2,733	224,560	113,359
280,341	2,791	224,539	113,381
281,355	2,803	224,367	113,294
282,370	2,717	224,158	113,114
283,384	2,420	223,845	112,726
284,399	2,340	223,688	112,578
285,414	2,422	223,678	112,623
286,428	2,459	223,572	112,587
287,443	2,922	223,376	112,821
288,457	2,874	223,315	112,744
289,472	2,602	223,051	112,400
290,487	2,339	222,700	112,019
291,501	2,376	222,603	111,988
292,516	2,314	222,509	111,885
293,530	2,372	222,425	111,876
294,545	2,470	222,251	111,850
295,560	2,626	222,274	111,966
296,574	2,881	221,993	112,002
297,589	2,696	221,861	111,790
298,603	2,906	221,863	111,935
299,618	2,912	221,666	111,830
300,633	2,600	221,620	111,568
301,647	3,129	221,540	111,905
302,662	3,030	221,287	111,695
303,676	2,889	221,229	111,552
304,691	3,167	220,984	111,622
305,706	3,017	220,883	111,452
306,720	2,947	220,854	111,376
307,735	2,607	220,528	110,954
308,749	2,573	220,499	110,905
309,764	2,924	220,320	111,060
310,779	3,086	220,122	111,068
311,793	2,783	219,918	110,735
312,808	3,027	219,794	110,840
313,822	2,943	219,671	110,707
314,837	2,744	219,510	110,472
315,852	2,457	219,354	110,175
316,866	2,685	219,390	110,349
317,881	3,092	219,107	110,492
318,895	2,737	219,079	110,211
319,910	2,633	218,714	109,942
320,925	2,334	218,595	109,657
321,939	2,099	218,506	109,433
322,954	2,359	218,451	109,583
323,968	2,807	218,382	109,861
324,983	3,083	218,252	109,985
325,997	3,084	218,048	109,873
327,012	2,807	217,925	109,602
328,027	2,931	217,781	109,609
329,041	2,977	217,856	109,670
330,056	2,985	217,600	109,537
331,070	3,007	217,262	109,373
332,085	2,762	217,199	109,156
333,100	2,705	217,121	109,066
334,114	2,815	216,880	109,014
335,129	2,566	216,661	108,717
336,143	2,300	216,479	108,426
337,158	2,823	216,530	108,815
338,173	3,007	216,448	108,895
339,187	2,807	216,380	108,709
340,202	2,732	216,130	108,520
341,216	2,450	215,922	108,206
342,231	2,503	215,866	108,205
343,246	2,621	215,753	108,223
344,260	2,648	215,539	108,125
345,275	2,614	215,573	108,108
346,289	2,944	215,294	108,193
347,304	2,927	215,247	108,147
348,319	2,694	215,084	107,891
349,333	2,934	214,895	107,956
350,348	2,942	214,789	107,899
351,362	2,956	214,697	107,853
352,377	2,795	214,703	107,732
353,392	2,717	214,498	107,565
354,406	2,792	214,201	107,460
355,421	197,209	1314,457	1392,747
356,435	157,809	1448,451	1392,683
