DTS Sentinel unit serial number:	SN410029Multiplexer serial number:	ORYXHardware model number:	OX2-SRSoftware version number:	ORYX F/W v4,00 Oryx Data Collector v3.7.2.0data status	okinstallation	B6 Nyhavnadifferential loss correction	single-endedforward channel	channel 2reverse channel	N/Adate	2023/12/07time	18:05:08forward acquisition time	300,00reverse acquisition time	0,00gamma	499,1914k internal	0,3164k external	0,3164temperature offset calibration	1,0000default loss term (dB/km)	0,3820temperature slope calibration	1,0000multiplexer offset coefficient	1,0000multiplexer slope coefficient	1,0000fibre end	0,00T internal ref (°C)	14,33T ext. ref 1 (°C)	-2,64T ext. ref 2 (°C)	-2,65length (m)	temperature (°C)	Stokes	anti-Stokes-744,400	147,634	0,076	0,076
-743,385	-52,489	-0,327	-0,111
-742,371	-200,000	0,043	0,230
-741,356	-116,346	-0,321	0,043
-740,342	-42,359	0,019	-0,007
-739,327	-91,694	-0,197	-0,041
-738,312	-60,392	0,168	0,052
-737,298	6,344	-0,184	0,100
-736,283	47,448	0,114	0,078
-735,269	0,997	-0,205	-0,108
-734,254	270,195	-0,022	0,029
-733,239	-64,017	-0,434	-0,130
-732,225	164,853	0,070	0,073
-731,210	-200,000	-0,003	0,159
-730,196	37,476	-0,088	0,057
-729,181	800,000	-0,046	-0,120
-728,167	-145,559	-0,068	-0,004
-727,152	-200,000	-0,029	0,154
-726,137	800,000	0,034	0,109
-725,123	485,771	-0,019	0,032
-724,108	-200,000	-0,008	-0,065
-723,094	800,000	0,059	-0,142
-722,079	-6,383	-0,076	-0,038
-721,064	-68,484	0,041	-0,012
-720,050	-8,220	-0,051	-0,025
-719,035	-115,895	-0,065	0,009
-718,021	-200,000	-0,004	0,088
-717,006	119,990	-0,018	0,016
-715,991	-123,763	-0,129	0,015
-714,977	-65,449	0,099	-0,029
-713,962	329,325	-0,052	-0,074
-712,948	-200,000	-0,001	-0,180
-711,933	-200,000	-0,008	-0,074
-710,918	-200,000	-0,007	0,069
-709,904	-200,000	0,003	-0,070
-708,889	-128,356	0,137	-0,014
-707,875	21,496	-0,081	-0,048
-706,860	-26,281	-0,138	0,059
-705,845	-200,000	0,008	-0,092
-704,831	800,000	-0,067	-0,181
-703,816	800,000	-0,033	-0,092
-702,802	166,321	-0,121	-0,126
-701,787	132,038	-0,067	-0,064
-700,772	-59,508	-0,090	0,028
-699,758	-48,102	-0,025	-0,009
-698,743	800,000	-0,023	0,072
-697,729	800,000	0,044	-0,129
-696,714	-48,228	0,024	0,009
-695,699	-42,228	0,132	-0,049
-694,685	-124,644	-0,154	-0,017
-693,670	43,419	-0,066	-0,044
-692,656	-114,099	-0,031	-0,004
-691,641	749,322	0,021	-0,041
-690,627	-200,000	0,011	0,054
-689,612	239,619	0,019	0,023
-688,597	520,905	-0,023	-0,040
-687,583	128,485	-0,049	-0,046
-686,568	-126,394	-0,130	-0,014
-685,554	-200,000	-0,027	-0,131
-684,539	-144,403	-0,129	0,009
-683,524	204,875	-0,005	-0,006
-682,510	-66,676	-0,110	0,032
-681,495	323,234	0,074	-0,104
-680,481	407,613	-0,043	-0,067
-679,466	-200,000	-0,010	-0,066
-678,451	800,000	0,016	-0,045
-677,437	31,315	0,045	0,028
-676,422	-74,273	-0,130	-0,034
-675,408	-1,686	0,031	-0,016
-674,393	-200,000	-0,038	0,152
-673,378	-51,086	0,124	-0,043
-672,364	-68,924	-0,099	-0,028
-671,349	-200,000	-0,009	0,064
-670,335	-94,194	0,101	0,020
-669,320	221,026	0,042	-0,050
-668,305	-200,000	-0,004	0,083
-667,291	-14,394	-0,063	-0,030
-666,276	800,000	0,016	0,034
-665,262	193,261	-0,055	-0,061
-664,247	-72,742	-0,040	0,011
-663,232	-200,000	0,021	-0,090
-662,218	-200,000	0,000	-0,018
-661,203	45,491	-0,062	-0,042
-660,189	-200,000	-0,054	0,000
-659,174	-200,000	0,006	0,067
-658,159	239,482	-0,027	0,033
-657,145	800,000	0,049	-0,125
-656,130	335,935	0,044	-0,063
-655,116	2,445	0,014	0,007
-654,101	20,565	-0,074	0,044
-653,086	17,676	0,066	0,039
-652,072	-132,138	-0,025	-0,002
-651,057	584,372	0,047	0,086
-650,043	7,719	-0,065	0,036
-649,028	-51,288	-0,095	-0,032
-648,014	-68,444	0,047	-0,013
-646,999	-62,064	0,071	-0,021
-645,984	344,492	0,036	0,052
-644,970	529,597	-0,070	-0,122
-643,955	800,000	-0,065	-0,195
-642,941	-200,000	-0,009	-0,137
-641,926	47,758	0,096	-0,066
-640,911	800,000	0,042	-0,091
-639,897	800,000	0,046	0,139
-638,882	-141,429	0,069	-0,005
-637,868	467,868	0,034	-0,057
-636,853	324,384	0,022	0,030
-635,838	307,403	-0,073	-0,100
-634,824	-121,109	0,174	-0,021
-633,809	683,434	0,092	0,177
-632,795	-73,376	-0,175	-0,046
-631,780	152,675	-0,049	-0,049
-630,765	-10,721	0,099	0,048
-629,751	800,000	0,050	0,135
-628,736	-35,846	-0,192	0,076
-627,722	390,246	-0,018	0,027
-626,707	-200,000	-0,023	-0,114
-625,692	-110,425	0,088	0,013
-624,678	800,000	0,036	-0,075
-623,663	-200,000	0,019	-0,140
-622,649	-83,751	-0,163	0,038
-621,634	119,927	-0,085	-0,077
-620,619	82,062	0,077	0,061
-619,605	800,000	-0,022	-0,048
-618,590	657,242	-0,070	-0,133
-617,576	764,492	-0,052	0,103
-616,561	-92,990	0,114	-0,023
-615,546	-200,000	-0,007	-0,101
-614,532	216,748	-0,053	-0,062
-613,517	-24,413	-0,134	0,058
-612,503	-31,134	-0,094	0,039
-611,488	-134,240	0,173	-0,015
-610,474	112,950	-0,151	-0,134
-609,459	-200,000	0,064	0,232
-608,444	800,000	-0,038	-0,089
-607,430	73,400	-0,073	-0,056
-606,415	-200,000	-0,013	-0,060
-605,401	-200,000	-0,018	0,059
-604,386	52,133	0,114	0,080
-603,371	260,346	-0,066	0,083
-602,357	62,973	-0,072	0,053
-601,342	-200,000	0,034	-0,111
-600,328	-200,000	0,002	-0,048
-599,313	396,884	-0,039	-0,060
-598,298	800,000	-0,021	0,049
-597,284	-200,000	-0,027	-0,110
-596,269	534,004	-0,041	-0,071
-595,255	247,078	-0,056	0,069
-594,240	126,380	-0,034	0,032
-593,225	-200,000	0,014	0,063
-592,211	800,000	-0,017	0,044
-591,196	800,000	0,035	0,102
-590,182	-163,010	0,084	0,003
-589,167	-200,000	0,021	0,075
-588,152	-111,694	0,121	-0,018
-587,138	140,968	0,055	-0,053
-586,123	-200,000	0,000	0,143
-585,109	287,568	0,026	-0,034
-584,094	59,869	0,074	0,053
-583,079	-62,778	0,089	0,027
-582,065	129,118	-0,045	-0,042
-581,050	192,478	-0,067	-0,074
-580,036	-95,581	-0,073	0,014
-579,021	-200,000	0,021	0,072
-578,006	130,178	-0,057	0,053
-576,992	-200,000	0,023	0,133
-575,977	-200,000	-0,019	0,089
-574,963	301,056	0,054	-0,073
-573,948	101,716	0,114	0,098
-572,934	-124,942	-0,086	-0,010
-571,919	202,167	-0,071	0,081
-570,904	-200,000	0,016	-0,187
-569,890	-200,000	0,027	-0,198
-568,875	-200,000	0,011	-0,045
-567,861	276,035	0,044	0,057
-566,846	378,569	0,080	-0,120
-565,831	-196,923	-0,092	0,000
-564,817	84,150	0,045	-0,036
-563,802	-200,000	-0,030	0,194
-562,788	66,968	-0,035	0,026
-561,773	-200,000	0,010	-0,134
-560,758	57,496	0,066	0,047
-559,744	-200,000	0,012	0,098
-558,729	-200,000	0,018	-0,094
-557,715	-200,000	0,026	-0,093
-556,700	-114,609	0,112	0,016
-555,685	131,806	-0,125	-0,118
-554,671	800,000	-0,004	0,011
-553,656	15,613	0,123	-0,070
-552,642	-12,972	0,051	0,024
-551,627	-123,691	0,057	0,006
-550,612	-200,000	-0,012	-0,055
-549,598	-132,431	0,021	-0,002
-548,583	424,351	-0,055	-0,086
-547,569	800,000	0,046	0,129
-546,554	-31,140	0,132	-0,054
-545,539	332,046	-0,027	0,037
-544,525	800,000	-0,030	0,071
-543,510	-200,000	0,002	-0,032
-542,496	-200,000	0,001	0,010
-541,481	-200,000	0,019	-0,077
-540,466	-3,848	-0,059	0,030
-539,452	216,572	0,086	-0,100
-538,437	800,000	0,053	0,151
-537,423	768,287	-0,053	0,105
-536,408	282,191	-0,018	-0,024
-535,393	707,828	0,042	0,080
-534,379	-72,804	-0,024	-0,006
-533,364	-38,896	0,062	0,024
-532,350	315,664	-0,016	-0,022
-531,335	248,483	-0,114	0,141
-530,321	800,000	-0,027	-0,082
-529,306	-200,000	-0,018	0,113
-528,291	243,696	0,115	0,140
-527,277	101,574	0,062	-0,052
-526,262	711,719	-0,057	-0,111
-525,248	15,320	-0,097	-0,056
-524,233	-95,182	0,090	0,018
-523,218	271,584	-0,074	-0,096
-522,204	800,000	0,052	0,109
-521,189	-27,650	-0,069	0,029
-520,175	-85,790	-0,031	0,007
-519,160	280,329	-0,085	0,111
-518,145	-18,452	-0,119	-0,054
-517,131	176,154	0,085	0,090
-516,116	-200,000	0,005	0,056
-515,102	-200,000	-0,044	0,190
-514,087	327,756	-0,079	0,110
-513,072	-89,114	-0,101	0,022
-512,058	-50,815	0,087	-0,030
-511,043	8,261	-0,073	0,040
-510,029	189,685	0,031	-0,034
-509,014	254,323	-0,093	-0,117
-507,999	65,493	0,037	-0,027
-506,985	-9,912	0,037	-0,018
-505,970	-128,599	-0,086	-0,009
-504,956	-63,636	0,132	-0,039
-503,941	-200,000	-0,011	-0,061
-502,926	-200,000	-0,003	-0,029
-501,912	-7,902	-0,077	-0,038
-500,897	368,989	-0,069	-0,102
-499,883	-22,060	0,062	-0,027
-498,868	367,047	-0,032	-0,047
-497,853	-11,733	-0,084	-0,040
-496,839	-29,289	-0,079	0,033
-495,824	21,982	0,172	-0,102
-494,810	2,075	0,111	0,058
-493,795	-150,125	-0,229	0,013
-492,781	-200,000	0,021	-0,072
-491,766	19,975	0,081	0,048
-490,751	800,000	-0,035	0,108
-489,737	-5,771	0,099	0,049
-488,722	516,776	0,034	-0,058
-487,708	800,000	0,080	0,186
-486,693	800,000	-0,040	0,100
-485,678	-9,732	0,100	-0,048
-484,664	396,769	-0,005	-0,008
-483,649	183,244	-0,096	0,103
-482,635	-200,000	-0,016	-0,096
-481,620	280,856	0,103	0,135
-480,605	-88,886	-0,108	-0,023
-479,591	-196,760	-0,021	0,000
-478,576	-11,951	-0,089	-0,043
-477,562	180,716	0,016	-0,017
-476,547	215,524	-0,059	-0,068
-475,532	318,968	0,032	-0,045
-474,518	247,447	-0,068	-0,084
-473,503	-200,000	0,005	0,045
-472,489	800,000	0,063	0,176
-471,474	800,000	0,006	0,016
-470,459	69,071	0,046	-0,035
-469,445	719,226	0,022	-0,042
-468,430	-80,157	-0,058	-0,014
-467,416	-200,000	-0,005	0,018
-466,401	-82,156	0,033	0,008
-465,386	189,570	0,126	0,138
-464,372	-113,327	-0,108	0,015
-463,357	640,186	0,038	0,070
-462,343	-76,795	0,219	0,055
-461,328	-18,677	-0,006	0,003
-460,313	-200,000	-0,025	-0,150
-459,299	-105,747	0,067	-0,011
-458,284	800,000	0,026	0,075
-457,270	-200,000	-0,031	0,150
-456,255	30,041	-0,112	-0,069
-455,241	-200,000	0,013	-0,063
-454,226	9,069	-0,072	-0,039
-453,211	-22,799	-0,155	-0,068
-452,197	-78,214	0,213	0,053
-451,182	234,516	-0,036	-0,043
-450,168	-24,647	0,054	0,023
-449,153	481,692	0,058	-0,096
-448,138	-32,465	-0,063	0,025
-447,124	87,169	-0,150	-0,121
-446,109	178,769	0,082	0,087
-445,095	-129,816	0,038	0,004
-444,080	800,000	0,041	-0,113
-443,065	-9,036	0,076	0,037
-442,051	-103,825	-0,156	-0,026
-441,036	800,000	0,028	-0,089
-440,022	445,947	0,060	-0,097
-439,007	-88,079	-0,036	0,008
-437,992	92,608	-0,066	0,054
-436,978	83,948	0,114	0,091
-435,963	-200,000	-0,041	0,181
-434,949	800,000	-0,010	0,026
-433,934	-42,673	0,145	-0,053
-432,919	343,338	-0,025	-0,036
-431,905	800,000	-0,032	0,090
-430,890	-200,000	-0,018	0,080
-429,876	-87,858	-0,091	0,020
-428,861	78,026	0,120	0,093
-427,846	800,000	0,023	-0,050
-426,832	327,238	-0,022	0,030
-425,817	178,081	-0,085	0,090
-424,803	-200,000	-0,006	0,061
-423,788	27,042	0,059	-0,036
-422,773	-200,000	0,027	-0,146
-421,759	-200,000	-0,009	0,129
-420,744	187,379	-0,083	0,090
-419,730	379,829	-0,072	-0,107
-418,715	90,346	-0,123	0,100
-417,701	800,000	-0,039	0,083
-416,686	388,789	-0,043	-0,066
-415,671	-200,000	0,009	-0,100
-414,657	800,000	0,047	0,106
-413,642	-12,650	-0,059	-0,028
-412,628	-200,000	0,005	-0,094
-411,613	0,501	-0,033	-0,017
-410,598	27,330	0,073	-0,045
-409,584	626,736	0,033	0,062
-408,569	59,821	0,087	-0,062
-407,555	19,613	0,093	0,054
-406,540	89,923	-0,120	0,097
-405,525	-25,202	0,090	-0,038
-404,511	-200,000	-0,004	-0,071
-403,496	-60,912	0,128	-0,039
-402,482	-94,147	0,055	-0,011
-401,467	800,000	0,043	-0,110
-400,452	800,000	-0,051	0,122
-399,438	151,078	-0,087	-0,086
-398,423	800,000	0,025	-0,052
-397,409	9,361	0,030	-0,017
-396,394	-55,414	-0,124	-0,040
-395,379	113,390	-0,018	0,016
-394,365	-200,000	-0,009	0,077
-393,350	633,100	0,056	0,103
-392,336	110,108	-0,023	-0,020
-391,321	-47,762	0,068	0,024
-390,306	-57,614	-0,090	-0,029
-389,292	223,236	0,104	-0,122
-388,277	800,000	-0,022	0,047
-387,263	397,244	-0,041	0,062
-386,248	-108,565	0,123	0,019
-385,233	111,742	0,050	-0,044
-384,219	800,000	0,030	0,074
-383,204	191,636	-0,070	-0,077
-382,190	-132,689	-0,060	0,005
-381,175	-18,652	0,109	0,049
-380,160	800,000	0,021	-0,054
-379,146	85,562	0,010	-0,008
-378,131	168,758	0,065	0,068
-377,117	0,896	-0,073	0,038
-376,102	-103,287	-0,052	-0,009
-375,088	-96,622	-0,076	-0,014
-374,073	3,267	0,147	-0,077
-373,058	208,620	0,073	0,083
-372,044	118,588	0,131	-0,117
-371,029	22,324	-0,110	0,065
-370,015	194,720	-0,023	0,025
-369,000	490,009	-0,043	-0,071
-367,985	800,000	-0,064	-0,141
-366,971	-75,466	0,083	0,021
-365,956	-47,168	-0,044	0,016
-364,942	-112,875	-0,084	0,012
-363,927	-200,000	0,009	0,067
-362,912	267,401	-0,046	0,058
-361,898	-200,000	0,006	0,021
-360,883	253,728	0,094	-0,117
-359,869	1,019	-0,055	0,028
-358,854	-84,009	0,103	0,024
-357,839	-36,445	0,160	-0,062
-356,825	352,586	0,052	0,075
-355,810	-125,219	0,177	-0,019
-354,796	-44,607	-0,196	-0,071
-353,781	-66,755	-0,038	-0,011
-352,766	-47,227	0,086	-0,030
-351,752	-52,512	0,133	0,044
-350,737	9,166	0,032	-0,018
-349,723	-63,611	0,038	0,011
-348,708	322,412	-0,063	0,088
-347,693	-154,177	-0,116	0,006
-346,679	-200,000	-0,044	0,162
-345,664	-64,916	0,116	0,034
-344,650	800,000	-0,025	0,062
-343,635	671,809	0,036	0,069
-342,620	800,000	0,037	0,082
-341,606	-200,000	0,036	-0,174
-340,591	-200,000	0,004	-0,015
-339,577	8,394	-0,146	0,079
-338,562	-18,980	-0,067	-0,030
-337,548	454,254	0,116	-0,187
-336,533	800,000	0,012	0,029
-335,518	262,894	0,016	-0,020
-334,504	-158,505	0,016	-0,001
-333,489	-32,671	-0,017	-0,007
-332,475	144,732	0,042	-0,041
-331,460	-96,383	-0,057	0,011
-330,445	-200,000	-0,014	-0,148
-329,431	-200,000	0,008	0,189
-328,416	800,000	0,101	0,220
-327,402	30,976	0,082	0,051
-326,387	-57,526	-0,099	-0,031
-325,372	-91,398	-0,082	0,017
-324,358	-30,154	-0,033	0,013
-323,343	-200,000	-0,015	-0,104
-322,329	152,726	0,026	-0,025
-321,314	800,000	0,004	0,013
-320,299	-96,650	-0,121	-0,023
-319,285	90,304	-0,043	0,035
-318,270	-16,828	0,146	-0,066
-317,256	39,595	-0,127	-0,082
-316,241	89,539	0,077	-0,062
-315,226	-63,047	-0,179	0,053
-314,212	378,528	0,056	-0,083
-313,197	-166,053	0,047	-0,001
-312,183	-200,000	-0,008	0,158
-311,168	311,423	-0,054	0,074
-310,153	21,946	-0,047	-0,028
-309,139	338,675	-0,006	0,008
-308,124	800,000	-0,027	-0,080
-307,110	-200,000	-0,002	0,017
-306,095	800,000	0,016	0,049
-305,080	800,000	-0,023	-0,049
-304,066	79,696	0,027	-0,021
-303,051	-142,185	0,069	-0,005
-302,037	-152,936	0,043	-0,002
-301,022	787,812	0,052	0,104
-300,008	222,320	-0,073	0,085
-298,993	16,337	-0,035	0,020
-297,978	800,000	-0,014	0,041
-296,964	-141,595	-0,065	0,005
-295,949	13,129	-0,104	0,058
-294,935	-200,000	0,007	0,050
-293,920	-200,000	-0,008	-0,153
-292,905	-200,000	-0,031	0,146
-291,891	-200,000	-0,001	-0,005
-290,876	607,604	0,012	0,022
-289,862	250,095	0,040	-0,049
-288,847	135,969	-0,141	0,133
-287,832	-200,000	0,015	0,050
-286,818	61,505	-0,023	0,017
-285,803	391,125	0,017	-0,025
-284,789	278,828	-0,093	-0,120
-283,774	-106,863	-0,062	0,010
-282,759	78,853	-0,123	-0,095
-281,745	-200,000	-0,009	0,068
-280,730	800,000	-0,031	0,063
-279,716	55,385	0,110	0,077
-278,701	133,623	-0,089	0,083
-277,686	656,496	-0,010	-0,018
-276,672	164,386	0,051	0,052
-275,657	114,520	0,073	0,064
-274,643	41,278	-0,075	-0,049
-273,628	-200,000	0,005	-0,019
-272,613	-34,545	0,229	-0,090
-271,599	-200,000	0,002	-0,083
-270,584	251,324	0,078	-0,096
-269,570	-200,000	0,015	-0,122
-268,555	-78,986	-0,139	0,034
-267,540	-34,876	0,104	0,041
-266,526	95,849	-0,105	-0,086
-265,511	-200,000	0,033	-0,227
-264,497	-63,008	0,055	-0,016
-263,482	237,456	-0,019	0,022
-262,467	103,937	0,121	-0,103
-261,453	-94,801	0,121	-0,024
-260,438	52,077	0,110	-0,075
-259,424	-13,474	-0,030	0,014
-258,409	525,501	-0,016	0,028
-257,395	800,000	0,050	0,136
-256,380	-158,999	-0,129	0,005
-255,365	131,552	-0,054	0,050
-254,351	785,325	-0,025	-0,049
-253,336	85,144	0,011	0,008
-252,322	89,473	-0,039	0,031
-251,307	31,174	0,101	0,062
-250,292	79,049	0,073	0,056
-249,278	27,520	0,060	0,037
-248,263	277,283	0,046	0,060
-247,249	-200,000	0,000	-0,029
-246,234	800,000	-0,063	-0,147
-245,219	491,136	-0,019	-0,031
-244,205	800,000	-0,050	-0,113
-243,190	800,000	0,037	-0,092
-242,176	-156,508	0,088	0,004
-241,161	-200,000	0,011	-0,038
-240,146	143,823	-0,033	0,031
-239,132	-200,000	-0,043	-0,163
-238,117	735,263	-0,060	-0,117
-237,103	776,169	0,042	-0,083
-236,088	259,761	0,063	0,078
-235,073	9,535	0,109	0,059
-234,059	-64,876	-0,127	-0,037
-233,044	-200,000	0,019	0,107
-232,030	71,993	0,064	0,048
-231,015	-200,000	0,002	-0,070
-230,000	365,079	0,018	0,026
-228,986	28,691	-0,046	-0,028
-227,971	-200,000	-0,012	-0,092
-226,957	-42,449	0,060	0,022
-225,942	-85,907	0,035	-0,008
-224,927	800,000	-0,025	0,057
-223,913	-51,133	-0,026	-0,009
-222,898	-200,000	-0,016	-0,128
-221,884	-200,000	-0,015	-0,113
-220,869	-12,859	0,106	0,050
-219,855	-200,000	0,015	0,075
-218,840	463,051	-0,079	0,128
-217,825	511,969	-0,029	0,049
-216,811	146,923	0,084	0,082
-215,796	596,654	-0,056	0,100
-214,782	334,758	0,058	0,081
-213,767	-200,000	0,022	-0,202
-212,752	-200,000	0,020	0,071
-211,738	-200,000	0,009	0,073
-210,723	85,442	-0,118	0,093
-209,709	800,000	-0,019	-0,060
-208,694	17,508	-0,034	0,020
-207,679	212,990	0,065	0,074
-206,665	-76,921	0,110	-0,027
-205,650	800,000	0,059	0,183
-204,636	-68,734	-0,027	0,007
-203,621	58,401	-0,085	0,060
-202,606	119,084	0,056	-0,050
-201,592	261,775	-0,022	-0,027
-200,577	83,338	0,096	-0,075
-199,563	-21,240	-0,089	-0,039
-198,548	-3,085	-0,096	-0,048
-197,533	-49,963	-0,135	-0,046
-196,519	-200,000	0,013	0,083
-195,504	-18,246	-0,070	-0,031
-194,490	800,000	-0,018	0,038
-193,475	800,000	0,043	0,086
-192,460	-200,000	0,000	-0,018
-191,446	800,000	0,032	-0,071
-190,431	-100,156	0,122	0,022
-189,417	-200,000	0,016	0,061
-188,402	-173,217	-0,080	0,002
-187,387	449,758	-0,083	-0,132
-186,373	157,472	0,018	-0,018
-185,358	140,948	-0,039	-0,037
-184,344	800,000	-0,047	-0,108
-183,329	-200,000	-0,002	-0,080
-182,315	-200,000	-0,003	-0,010
-181,300	-8,934	-0,084	0,041
-180,285	-32,750	-0,066	-0,026
-179,271	-9,104	-0,108	-0,052
-178,256	20,717	0,156	-0,091
-177,242	800,000	0,038	0,089
-176,227	800,000	0,006	-0,016
-175,212	31,140	0,033	-0,020
-174,198	-90,566	0,047	-0,010
-173,183	-200,000	0,007	-0,125
-172,169	-40,149	0,045	-0,017
-171,154	800,000	-0,018	-0,055
-170,139	-73,341	-0,098	-0,026
-169,125	-40,412	-0,032	-0,012
-168,110	-200,000	0,011	-0,058
-167,096	-90,250	-0,018	-0,004
-166,081	140,723	0,030	-0,028
-165,066	290,490	-0,028	-0,036
-164,052	387,628	-0,060	0,090
-163,037	-93,338	0,070	-0,014
-162,023	-88,947	-0,027	0,006
-161,008	527,501	-0,075	0,128
-159,993	-46,666	0,100	0,035
-158,979	163,664	0,035	0,036
-157,964	-111,544	-0,164	0,024
-156,950	132,298	0,078	-0,072
-155,935	-59,541	-0,111	0,034
-154,920	-8,316	-0,061	-0,029
-153,906	800,000	-0,032	0,092
-152,891	-200,000	0,005	0,112
-151,877	800,000	-0,020	-0,045
-150,862	-200,000	0,013	-0,101
-149,847	-28,486	-0,089	-0,037
-148,833	730,810	-0,029	0,056
-147,818	154,598	0,049	-0,049
-146,804	-200,000	0,022	0,092
-145,789	-67,068	-0,024	0,007
-144,775	-80,472	-0,125	-0,030
-143,760	-50,468	0,088	-0,030
-142,745	800,000	0,013	0,040
-141,731	-200,000	-0,019	-0,109
-140,716	-5,845	0,144	0,071
-139,702	-200,000	0,004	0,013
-138,687	337,841	0,083	0,117
-137,672	277,570	-0,020	0,025
-136,658	-117,390	-0,196	0,025
-135,643	-26,339	-0,142	0,060
-134,629	-29,521	0,139	-0,057
-133,614	-45,124	0,087	0,031
-132,599	800,000	-0,058	0,172
-131,585	374,536	0,063	0,092
-130,570	462,342	0,031	-0,049
-129,556	-106,616	-0,153	0,024
-128,541	-74,351	0,071	-0,018
-127,526	-200,000	-0,014	0,051
-126,512	372,482	0,045	0,066
-125,497	282,188	0,099	0,128
-124,483	-59,551	0,174	0,053
-123,468	529,905	-0,064	-0,108
-122,453	800,000	0,037	-0,095
-121,439	-196,490	0,044	0,000
-120,424	22,775	-0,062	0,036
-119,410	-14,735	0,058	0,027
-118,395	-200,000	-0,020	0,075
-117,380	-200,000	-0,005	-0,071
-116,366	800,000	0,061	-0,123
-115,351	326,406	-0,099	-0,137
-114,337	213,988	-0,040	0,045
-113,322	-75,992	-0,189	0,048
-112,307	-200,000	-0,013	0,076
-111,293	62,366	-0,018	-0,013
-110,278	-43,316	0,088	0,032
-109,264	395,680	0,055	-0,082
-108,249	294,855	-0,058	0,076
-107,234	363,014	-0,045	0,065
-106,220	-19,836	0,129	-0,057
-105,205	151,194	-0,088	-0,086
-104,191	-29,347	0,145	-0,059
-103,176	-65,734	-0,127	0,036
-102,162	-200,000	0,007	-0,065
-101,147	47,285	-0,134	-0,090
-100,132	800,000	0,039	-0,096
-99,118	800,000	0,030	-0,087
-98,103	17,043	-0,094	0,054
-97,089	322,281	-0,029	0,040
-96,074	-200,000	-0,011	-0,040
-95,059	108,839	0,025	-0,022
-94,045	28,092	0,035	-0,021
-93,030	54,494	-0,102	-0,071
-92,016	-110,552	-0,168	-0,025
-91,001	622,626	0,008	-0,014
-89,986	574,802	0,047	0,083
-88,972	-200,000	0,008	0,078
-87,957	-200,000	0,017	0,122
-86,943	800,000	0,005	-0,014
-85,928	-78,247	-0,048	0,012
-84,913	543,009	0,016	-0,028
-83,899	800,000	-0,022	0,060
-82,884	-153,466	0,093	-0,005
-81,870	-200,000	-0,000	-0,042
-80,855	-85,576	0,096	-0,021
-79,840	541,771	-0,042	-0,071
-78,826	388,381	-0,101	-0,150
-77,811	-77,338	-0,109	0,027
-76,797	-122,505	0,077	0,009
-75,782	565,679	0,034	-0,060
-74,767	-138,023	0,176	0,014
-73,753	-107,909	0,041	0,006
-72,738	-200,000	-0,007	-0,037
-71,724	-21,918	0,031	-0,013
-70,709	-200,000	-0,010	-0,075
-69,694	-33,701	0,059	0,023
-68,680	-37,902	0,086	0,033
-67,665	-200,000	0,007	0,034
-66,651	-89,560	0,045	-0,009
-65,636	800,000	0,031	-0,073
-64,622	-200,000	-0,009	-0,070
-63,607	-200,000	0,030	-0,120
-62,592	405,751	-0,015	-0,023
-61,578	31,631	-0,017	0,010
-60,563	-200,000	-0,005	-0,052
-59,549	-200,000	-0,003	-0,037
-58,534	21,910	-1,982	-1,155
-57,519	-200,000	-0,136	-0,745
-56,505	-200,000	-1,267	-5,081
-55,490	84,398	0,944	0,739
-54,476	800,000	5,280	12,071
-53,461	-200,000	18,271	294,599
-52,446	800,000	730,732	2229,877
-51,432	526,961	1643,906	2785,657
-50,417	107,297	1632,540	1389,982
-49,403	71,551	1283,768	953,938
-48,388	30,369	1024,665	625,551
-47,373	19,798	986,756	567,674
-46,359	17,821	974,380	554,081
-45,344	14,670	970,545	541,607
-44,330	14,933	969,057	541,613
-43,315	14,374	967,166	538,717
-42,300	14,339	965,946	537,904
-41,286	14,413	964,975	537,581
-40,271	14,341	964,138	536,861
-39,257	14,301	963,323	536,254
-38,242	14,359	962,358	535,885
-37,227	14,309	961,597	535,276
-36,213	14,336	960,704	534,845
-35,198	14,329	959,867	534,335
-34,184	14,385	958,926	533,973
-33,169	14,337	958,039	533,302
-32,154	14,355	957,100	532,816
-31,140	14,409	956,174	532,454
-30,125	14,365	955,541	531,938
-29,111	14,361	954,598	531,380
-28,096	14,388	954,092	531,165
-27,082	14,366	953,437	530,708
-26,067	14,370	952,688	530,284
-25,052	14,376	951,738	529,752
-24,038	14,307	951,384	529,312
-23,023	14,340	950,639	528,981
-22,009	14,348	949,871	528,561
-20,994	14,365	949,353	528,303
-19,979	14,404	948,549	527,960
-18,965	14,377	947,958	527,526
-17,950	14,352	947,353	527,088
-16,936	14,310	946,821	526,635
-15,921	14,340	946,204	526,369
-14,906	14,325	945,232	525,758
-13,892	14,252	944,872	525,306
-12,877	14,249	944,006	524,793
-11,863	14,252	943,442	524,469
-10,848	14,290	943,063	524,360
-9,833	14,345	942,384	524,135
-8,819	14,263	941,908	523,590
-7,804	14,257	941,239	523,179
-6,790	14,282	940,586	522,872
-5,775	14,301	940,125	522,655
-4,760	14,249	939,467	522,106
-3,746	14,290	938,733	521,805
-2,731	14,138	938,230	521,027
-1,717	14,025	937,401	520,191
-0,702	14,080	936,842	520,032
0,313	13,880	936,326	519,901
1,327	17,401	933,779	529,484
2,342	26,566	786,171	469,790
3,356	22,870	441,445	258,341
4,371	-6,759	293,966	142,600
5,386	-10,771	275,776	129,986
6,400	-12,126	270,187	126,088
7,415	-12,253	267,767	124,831
8,429	-12,275	266,480	124,201
9,444	-12,357	265,357	123,591
10,459	-12,336	264,939	123,405
11,473	-12,262	264,096	123,068
12,488	-12,409	263,703	122,741
13,502	-12,753	263,067	122,125
14,517	-12,718	262,804	122,023
15,531	-12,519	262,252	121,935
16,546	-12,377	261,715	121,801
17,561	-12,649	261,540	121,466
18,575	-12,380	261,179	121,527
19,590	-12,665	260,931	121,147
20,604	-12,473	260,603	121,155
21,619	-12,466	260,197	120,962
22,634	-12,539	259,817	120,709
23,648	-12,509	259,482	120,570
24,663	-12,429	259,408	120,595
25,677	-12,496	259,026	120,348
26,692	-12,487	258,777	120,229
27,707	-12,552	258,501	120,033
28,721	-12,439	258,230	119,996
29,736	-12,573	257,949	119,737
30,750	-12,409	257,739	119,773
31,765	-12,400	257,343	119,586
32,780	-12,559	257,215	119,376
33,794	-12,496	256,960	119,302
34,809	-12,472	256,698	119,192
35,823	-12,530	256,451	119,015
36,838	-12,633	256,181	118,790
37,853	-12,721	255,929	118,585
38,867	-12,394	255,755	118,779
39,882	-12,711	255,685	118,460
40,896	-12,548	255,210	118,371
41,911	-12,720	255,120	118,169
42,926	-12,800	254,815	117,947
43,940	-12,771	254,702	117,910
44,955	-12,746	254,493	117,825
45,969	-12,723	254,181	117,690
46,984	-12,690	253,845	117,552
47,999	-12,952	253,562	117,184
49,013	-13,170	253,422	116,921
50,028	-13,354	253,139	116,620
51,042	-13,100	252,789	116,668
52,057	-13,314	252,612	116,392
53,071	-13,128	252,380	116,434
54,086	-13,108	252,291	116,400
55,101	-12,927	251,995	116,408
56,115	-12,846	251,917	116,432
57,130	-12,521	251,799	116,645
58,144	-12,357	251,591	116,679
59,159	-12,428	251,400	116,519
60,174	-12,233	251,141	116,555
61,188	-12,494	250,830	116,178
62,203	-12,652	250,901	116,065
63,217	-12,367	250,528	116,126
64,232	-12,429	250,339	115,975
65,247	-12,596	250,009	115,670
66,261	-12,393	249,880	115,772
67,276	-12,609	249,642	115,468
68,290	-12,827	249,348	115,136
69,305	-12,894	249,186	114,995
70,320	-12,966	249,052	114,862
71,334	-12,489	248,714	115,100
72,349	-12,315	248,650	115,206
73,363	-12,231	248,273	115,092
74,378	-12,282	248,217	115,013
75,393	-12,572	248,024	114,669
76,407	-12,531	247,829	114,603
77,422	-12,547	247,686	114,514
78,436	-12,545	247,449	114,395
79,451	-12,384	247,063	114,342
80,466	-12,524	246,884	114,131
81,480	-12,546	246,605	113,974
82,495	-12,685	246,356	113,732
83,509	-12,501	246,268	113,836
84,524	-12,497	246,167	113,782
85,539	-12,671	245,806	113,460
86,553	-12,894	245,664	113,198
87,568	-12,704	245,606	113,320
88,582	-12,783	245,520	113,204
89,597	-12,868	245,167	112,960
90,611	-12,573	245,021	113,128
91,626	-12,457	244,849	113,135
92,641	-12,579	244,684	112,948
93,655	-12,571	244,428	112,826
94,670	-12,611	244,299	112,723
95,684	-12,786	243,957	112,410
96,699	-12,742	243,852	112,389
97,714	-12,610	243,692	112,414
98,728	-12,736	243,616	112,265
99,743	-12,669	243,216	112,126
100,757	-12,979	243,056	111,786
101,772	-12,708	242,889	111,923
102,787	-12,758	242,708	111,788
103,801	-12,683	242,485	111,737
104,816	-12,424	242,369	111,886
105,830	-12,595	242,285	111,697
106,845	-12,510	242,034	111,641
107,860	-12,507	241,923	111,583
108,874	-12,364	241,406	111,452
109,889	-12,904	241,529	111,056
110,903	-12,690	241,215	111,077
111,918	-12,765	241,138	110,970
112,933	-12,541	240,848	111,010
113,947	-12,568	240,758	110,936
114,962	-12,665	240,679	110,811
115,976	-12,594	240,396	110,729
116,991	-12,437	240,148	110,733
118,006	-12,671	240,047	110,485
119,020	-12,594	239,874	110,458
120,035	-12,641	239,882	110,414
121,049	-12,521	239,694	110,415
122,064	-12,620	239,435	110,206
123,079	-12,606	239,194	110,097
124,093	-12,616	239,001	109,990
125,108	-12,785	238,722	109,714
126,122	-12,775	238,434	109,581
127,137	-12,852	238,253	109,426
128,151	-12,820	238,028	109,338
129,166	-12,779	237,997	109,347
130,181	-12,845	237,711	109,154
131,195	-12,690	237,586	109,210
132,210	-12,723	237,475	109,124
133,224	-12,576	237,386	109,190
134,239	-12,505	237,027	109,073
135,254	-12,724	236,950	108,852
136,268	-12,790	236,690	108,670
137,283	-12,773	236,369	108,527
138,297	-12,898	236,238	108,357
139,312	-12,917	236,040	108,241
140,327	-12,571	235,945	108,464
141,341	-12,401	236,006	108,618
142,356	-12,371	235,762	108,520
143,370	-12,430	235,727	108,447
144,385	-12,251	235,417	108,437
145,400	-12,311	235,348	108,348
146,414	-12,357	235,004	108,143
147,429	-12,202	234,794	108,160
148,443	-12,512	234,578	107,805
149,458	-12,254	234,586	108,004
150,473	-12,472	234,437	107,753
151,487	-12,486	234,155	107,603
152,502	-12,216	233,936	107,706
153,516	-12,206	233,849	107,664
154,531	-12,392	233,735	107,455
155,546	-12,408	233,607	107,374
156,560	-12,324	233,317	107,297
157,575	-12,539	233,216	107,072
158,589	-12,451	233,106	107,082
159,604	-12,415	232,852	106,984
160,619	-11,994	232,784	107,273
161,633	-12,227	232,678	107,032
162,648	-12,328	232,358	106,796
163,662	-12,402	232,269	106,687
164,677	-12,537	232,193	106,537
165,692	-12,388	231,858	106,491
166,706	-12,237	231,858	106,600
167,721	-12,037	231,594	106,625
168,735	-12,236	231,526	106,428
169,750	-12,204	231,292	106,336
170,764	-12,459	231,196	106,084
171,779	-12,385	231,033	106,058
172,794	-12,238	230,988	106,142
173,808	-12,533	230,752	105,795
174,823	-12,884	230,374	105,339
175,837	-12,884	230,250	105,273
176,852	-12,433	230,103	105,547
177,867	-12,467	230,004	105,465
178,881	-12,181	229,773	105,571
179,896	-12,073	229,737	105,628
180,910	-12,305	229,625	105,388
181,925	-12,438	229,477	105,208
182,940	-12,387	229,367	105,187
183,954	-11,991	229,113	105,367
184,969	-12,037	228,964	105,254
185,983	-12,202	228,856	105,068
186,998	-12,185	228,764	105,029
188,013	-12,142	228,498	104,931
189,027	-12,187	228,438	104,859
190,042	-12,049	228,137	104,818
191,056	-12,036	228,072	104,789
192,071	-12,202	227,981	104,610
193,086	-12,246	227,705	104,441
194,100	-12,038	227,623	104,553
195,115	-12,614	227,349	103,977
196,129	-12,452	227,237	104,041
197,144	-7,437	228,892	108,645
198,159	-2,339	230,625	113,398
199,173	1,404	231,485	116,707
200,188	1,990	231,467	117,141
201,202	1,579	231,371	116,765
202,217	1,868	231,128	116,854
203,232	2,071	231,021	116,946
204,246	1,966	230,952	116,820
205,261	2,473	230,625	117,034
206,275	2,476	230,527	116,976
207,290	2,384	230,388	116,824
208,304	2,430	230,346	116,828
209,319	2,358	230,205	116,691
210,334	2,271	229,955	116,487
211,348	2,135	229,791	116,290
212,363	1,819	229,397	115,838
213,377	1,690	229,317	115,689
214,392	1,943	229,118	115,771
215,407	1,873	229,087	115,692
216,421	2,092	228,996	115,803
217,436	1,665	228,757	115,346
218,450	1,641	228,382	115,128
219,465	1,697	228,267	115,102
220,480	1,467	228,226	114,897
221,494	1,320	228,231	114,778
222,509	1,773	228,143	115,067
223,523	1,939	227,863	115,042
224,538	1,538	227,632	114,611
225,553	1,727	227,489	114,671
226,567	1,825	227,391	114,686
227,582	1,953	227,403	114,779
228,596	1,966	227,301	114,727
229,611	1,842	227,030	114,486
230,626	1,317	226,909	114,018
231,640	1,643	226,571	114,084
232,655	1,931	226,414	114,212
233,669	2,012	226,565	114,339
234,684	2,321	226,353	114,455
235,699	1,978	226,115	114,066
236,713	1,863	225,940	113,881
237,728	1,752	225,798	113,717
238,742	1,676	225,505	113,502
239,757	1,844	225,542	113,636
240,772	1,790	225,271	113,449
241,786	1,794	225,170	113,391
242,801	1,848	225,103	113,388
243,815	2,295	225,000	113,660
244,830	2,257	224,799	113,520
245,844	1,823	224,544	113,057
246,859	1,698	224,398	112,881
247,874	1,965	224,371	113,056
248,888	2,139	224,214	113,096
249,903	2,055	224,069	112,951
250,917	1,779	223,849	112,623
251,932	1,758	223,646	112,496
252,947	1,785	223,416	112,391
253,961	1,532	223,339	112,154
254,976	1,627	223,287	112,189
255,990	1,915	223,188	112,343
257,005	2,031	223,140	112,394
258,020	2,044	223,084	112,365
259,034	2,191	222,713	112,277
260,049	1,914	222,621	112,016
261,063	1,912	222,437	111,912
262,078	2,040	222,323	111,939
263,093	2,191	222,213	111,985
264,107	2,198	222,106	111,926
265,122	2,137	221,976	111,806
266,136	2,067	221,998	111,756
267,151	2,447	221,622	111,835
268,166	1,891	221,337	111,273
269,180	1,425	221,227	110,866
270,195	1,697	221,066	110,975
271,209	1,782	220,885	110,937
272,224	1,995	220,853	111,067
273,239	1,793	220,699	110,832
274,253	1,663	220,529	110,642
275,268	1,691	220,231	110,502
276,282	1,322	220,169	110,192
277,297	1,564	220,062	110,305
278,312	1,506	219,902	110,173
279,326	1,962	219,871	110,480
280,341	1,778	219,721	110,260
281,355	1,755	219,695	110,221
282,370	1,974	219,524	110,285
283,384	1,596	219,188	109,831
284,399	1,469	219,052	109,662
285,414	1,565	218,892	109,641
286,428	1,837	218,937	109,851
287,443	2,178	218,890	110,065
288,457	2,063	218,627	109,840
289,472	1,830	218,442	109,568
290,487	1,255	218,217	109,031
291,501	1,445	217,959	109,029
292,516	1,335	217,871	108,895
293,530	1,505	217,724	108,935
294,545	1,700	217,641	109,024
295,560	1,610	217,571	108,915
296,574	1,865	217,398	109,002
297,589	1,536	217,365	108,739
298,603	1,916	217,096	108,867
299,618	1,775	216,951	108,684
300,633	2,058	216,950	108,877
301,647	1,904	216,831	108,697
302,662	2,154	216,633	108,768
303,676	2,058	216,576	108,660
304,691	2,194	216,342	108,630
305,706	2,137	216,207	108,512
306,720	2,142	216,162	108,483
307,735	1,639	215,948	108,007
308,749	1,927	215,780	108,119
309,764	2,019	215,806	108,188
310,779	2,106	215,527	108,101
311,793	2,145	215,287	107,999
312,808	2,026	215,308	107,915
313,822	2,034	215,171	107,842
314,837	1,638	215,034	107,482
315,852	1,776	214,789	107,448
316,866	1,959	214,809	107,579
317,881	2,065	214,753	107,616
318,895	1,988	214,472	107,411
319,910	1,814	214,162	107,123
320,925	1,323	214,135	106,753
321,939	1,259	213,791	106,527
322,954	1,396	213,745	106,591
323,968	2,033	213,868	107,093
324,983	1,814	213,778	106,883
325,997	2,240	213,547	107,058
327,012	2,062	213,315	106,807
328,027	1,720	213,303	106,552
329,041	1,876	213,296	106,648
330,056	2,378	212,911	106,798
331,070	1,939	212,836	106,443
332,085	1,718	212,599	106,160
333,100	1,842	212,484	106,180
334,114	2,178	212,293	106,311
335,129	1,965	212,269	106,140
336,143	1,985	212,039	106,029
337,158	2,193	211,909	106,101
338,173	2,021	211,768	105,900
339,187	1,947	211,500	105,705
340,202	1,583	211,487	105,435
341,216	1,494	211,414	105,328
342,231	1,606	211,079	105,229
343,246	1,580	211,051	105,188
344,260	1,931	211,050	105,422
345,275	2,330	211,024	105,677
346,289	2,311	210,865	105,575
347,304	2,358	210,668	105,500
348,319	1,873	210,588	105,114
349,333	2,122	210,259	105,112
350,348	1,968	210,316	105,025
351,362	2,399	210,163	105,237
352,377	2,308	210,042	105,104
353,392	2,090	209,828	104,837
354,406	2,092	209,764	104,798
355,421	196,767	1315,417	1392,998
356,435	157,297	1450,088	1392,963
