DTS Sentinel unit serial number:	SN410029Multiplexer serial number:	ORYXHardware model number:	OX2-SRSoftware version number:	ORYX F/W v4,00 Oryx Data Collector v3.7.2.0data status	okinstallation	B6 Nyhavnadifferential loss correction	single-endedforward channel	channel 2reverse channel	N/Adate	2023/12/10time	06:20:08forward acquisition time	300,00reverse acquisition time	0,00gamma	499,1914k internal	0,3123k external	0,3123temperature offset calibration	1,0000default loss term (dB/km)	0,3820temperature slope calibration	1,0000multiplexer offset coefficient	1,0000multiplexer slope coefficient	1,0000fibre end	0,00T internal ref (°C)	22,57T ext. ref 1 (°C)	6,47T ext. ref 2 (°C)	6,46length (m)	temperature (°C)	Stokes	anti-Stokes-744,400	-200,000	0,001	-0,045
-743,385	-166,617	-0,151	-0,005
-742,371	-3,270	-0,174	0,090
-741,356	74,824	-0,189	0,149
-740,342	380,675	0,067	-0,102
-739,327	51,026	-0,286	0,202
-738,312	135,610	-0,008	0,008
-737,298	93,327	-0,202	0,170
-736,283	400,260	0,030	-0,047
-735,269	-53,098	-0,101	0,035
-734,254	448,222	-0,034	0,056
-733,239	-40,403	-0,292	-0,112
-732,225	28,399	0,104	-0,065
-731,210	438,392	-0,061	0,100
-730,196	220,655	-0,077	0,092
-729,181	-43,270	0,047	-0,018
-728,167	-200,000	-0,008	-0,075
-727,152	153,273	0,049	-0,050
-726,137	-109,097	-0,017	0,003
-725,123	167,865	-0,073	-0,077
-724,108	155,974	-0,156	-0,160
-723,094	800,000	-0,033	-0,068
-722,079	800,000	-0,030	-0,087
-721,064	291,202	-0,041	0,056
-720,050	-200,000	-0,000	0,002
-719,035	-103,795	-0,084	-0,014
-718,021	599,700	-0,082	-0,152
-717,006	146,529	0,030	-0,030
-715,991	255,835	0,078	-0,099
-714,977	-200,000	-0,022	0,116
-713,962	170,343	-0,086	-0,091
-712,948	18,947	0,068	-0,041
-711,933	-42,694	-0,075	0,028
-710,918	-133,737	0,024	0,002
-709,904	188,696	-0,028	0,031
-708,889	-11,664	0,076	0,037
-707,875	-139,793	-0,079	-0,006
-706,860	800,000	0,096	0,202
-705,845	60,609	0,013	0,009
-704,831	254,158	0,110	0,140
-703,816	48,299	0,024	0,017
-702,802	800,000	-0,120	-0,258
-701,787	5,812	-0,244	-0,134
-700,772	-200,000	-0,000	0,112
-699,758	800,000	-0,057	0,156
-698,743	-200,000	-0,002	0,163
-697,729	800,000	-0,056	0,133
-696,714	-125,510	0,137	-0,015
-695,699	152,607	-0,145	0,148
-694,685	-5,313	0,073	0,037
-693,670	-27,108	-0,020	-0,009
-692,656	-129,642	0,124	-0,013
-691,641	-21,925	0,023	0,010
-690,627	-147,030	-0,140	-0,009
-689,612	-7,757	0,096	-0,048
-688,597	223,553	-0,099	0,119
-687,583	800,000	0,028	-0,086
-686,568	-200,000	0,003	-0,058
-685,554	-45,253	0,120	0,044
-684,539	500,488	0,012	0,021
-683,524	346,756	-0,056	0,082
-682,510	-64,886	-0,031	-0,009
-681,495	-60,155	-0,205	0,065
-680,481	-200,000	0,023	-0,084
-679,466	139,405	-0,057	-0,056
-678,451	343,192	0,024	0,035
-677,437	44,483	-0,059	0,040
-676,422	-125,309	0,018	0,002
-675,408	-200,000	0,067	0,269
-674,393	114,467	-0,032	-0,029
-673,378	213,248	-0,058	0,068
-672,364	52,864	-0,092	0,065
-671,349	316,059	-0,127	-0,179
-670,335	-96,892	-0,131	0,025
-669,320	80,320	0,069	0,055
-668,305	41,128	0,019	-0,012
-667,291	37,569	-0,069	-0,046
-666,276	-86,069	-0,129	-0,029
-665,262	-24,069	-0,101	-0,045
-664,247	8,958	-0,070	-0,039
-663,232	-200,000	0,003	0,063
-662,218	-177,881	0,096	0,002
-661,203	653,039	-0,032	0,061
-660,189	-39,309	0,061	0,024
-659,174	800,000	0,046	0,140
-658,159	597,030	0,031	0,057
-657,145	-200,000	-0,015	-0,227
-656,130	800,000	0,076	-0,160
-655,116	-130,472	0,169	-0,017
-654,101	-200,000	0,015	0,051
-653,086	800,000	0,013	-0,028
-652,072	-200,000	0,041	0,138
-651,057	-16,725	-0,095	-0,044
-650,043	-200,000	0,003	-0,059
-649,028	800,000	-0,015	-0,046
-648,014	399,246	0,036	0,056
-646,999	-3,622	0,132	0,068
-645,984	-200,000	0,018	-0,105
-644,970	-200,000	-0,024	-0,165
-643,955	-200,000	0,044	-0,231
-642,941	49,269	-0,082	0,057
-641,926	-200,000	0,015	-0,085
-640,911	169,440	0,087	-0,092
-639,897	-200,000	0,004	0,098
-638,882	-84,000	0,062	0,015
-637,868	-200,000	0,035	-0,135
-636,853	-200,000	0,010	-0,144
-635,838	-131,065	-0,124	-0,012
-634,824	800,000	0,037	0,097
-633,809	-200,000	0,026	-0,093
-632,795	133,836	0,113	0,109
-631,780	-60,421	-0,179	-0,056
-630,765	524,227	-0,012	0,021
-629,751	-89,586	-0,131	0,028
-628,736	-200,000	0,002	-0,124
-627,722	-200,000	0,006	0,090
-626,707	-50,038	0,082	0,029
-625,692	99,862	-0,032	0,028
-624,678	384,062	0,064	0,098
-623,663	155,417	-0,078	-0,079
-622,649	-190,169	-0,068	0,001
-621,634	800,000	-0,032	-0,088
-620,619	-200,000	0,013	-0,196
-619,605	-74,853	0,035	-0,009
-618,590	375,938	-0,081	0,122
-617,576	145,137	0,072	0,071
-616,561	495,692	-0,028	-0,048
-615,546	22,877	-0,124	-0,075
-614,532	197,999	0,047	-0,053
-613,517	63,943	-0,083	-0,062
-612,503	49,659	-0,097	0,067
-611,488	242,887	0,036	-0,045
-610,474	-200,000	0,004	0,116
-609,459	-40,673	-0,050	-0,019
-608,444	299,397	0,083	-0,113
-607,430	800,000	-0,028	0,067
-606,415	800,000	0,032	-0,098
-605,401	800,000	-0,037	-0,077
-604,386	-200,000	0,014	0,086
-603,371	800,000	-0,023	0,055
-602,357	105,117	0,016	0,014
-601,342	17,852	0,004	0,002
-600,328	-91,488	-0,060	-0,013
-599,313	298,361	-0,095	-0,129
-598,298	49,097	-0,142	-0,099
-597,284	-42,305	0,233	-0,088
-596,269	-118,335	-0,100	0,013
-595,255	-200,000	-0,023	0,203
-594,240	-32,075	0,061	0,025
-593,225	800,000	0,026	-0,065
-592,211	171,649	-0,045	-0,047
-591,196	87,923	0,066	-0,054
-590,182	800,000	0,014	0,046
-589,167	800,000	0,052	0,151
-588,152	-44,662	-0,038	-0,014
-587,138	20,710	-0,032	0,019
-586,123	-200,000	-0,010	-0,051
-585,109	-26,497	0,138	-0,060
-584,094	800,000	0,023	0,049
-583,079	-83,118	-0,066	-0,015
-582,065	800,000	0,015	0,032
-581,050	129,943	0,097	-0,092
-580,036	260,675	-0,083	0,106
-579,021	800,000	-0,020	-0,050
-578,006	182,136	0,025	0,027
-576,992	-200,000	-0,007	-0,100
-575,977	-80,695	0,065	0,016
-574,963	800,000	0,019	0,051
-573,948	-98,036	-0,046	-0,009
-572,934	503,352	-0,021	0,036
-571,919	192,738	-0,081	0,091
-570,904	-200,000	0,002	0,063
-569,890	-23,825	-0,073	0,032
-568,875	-102,901	0,049	-0,009
-567,861	800,000	-0,032	0,102
-566,846	108,035	0,061	-0,054
-565,831	461,464	-0,049	0,081
-564,817	-67,851	0,061	0,018
-563,802	46,267	-0,184	-0,126
-562,788	800,000	0,017	0,039
-561,773	106,852	0,068	0,060
-560,758	354,327	-0,032	0,048
-559,744	-200,000	-0,003	0,075
-558,729	216,988	-0,045	0,053
-557,715	79,283	-0,066	-0,052
-556,700	-200,000	-0,001	-0,049
-555,685	-24,419	-0,075	0,033
-554,671	-89,312	0,112	-0,024
-553,656	382,508	-0,005	0,008
-552,642	800,000	0,083	0,204
-551,627	228,075	-0,039	-0,047
-550,612	-124,017	0,103	0,012
-549,598	17,979	-0,102	-0,060
-548,583	380,804	-0,082	-0,125
-547,569	639,003	0,045	-0,084
-546,554	-200,000	0,031	0,105
-545,539	-200,000	0,006	0,180
-544,525	-22,451	-0,017	0,007
-543,510	800,000	-0,048	0,103
-542,496	-200,000	0,008	0,050
-541,481	-28,343	-0,109	-0,046
-540,466	371,292	-0,077	-0,116
-539,452	-200,000	-0,009	0,110
-538,437	-100,675	0,055	-0,010
-537,423	-39,802	-0,078	-0,030
-536,408	182,269	0,038	-0,042
-535,393	-96,582	-0,282	0,054
-534,379	184,745	0,030	0,033
-533,364	304,170	-0,071	-0,097
-532,350	800,000	0,009	-0,025
-531,335	-74,645	-0,121	-0,032
-530,321	88,968	0,049	0,040
-529,306	-200,000	-0,001	-0,063
-528,291	-200,000	0,001	-0,054
-527,277	-170,032	0,042	-0,001
-526,262	88,692	-0,062	-0,051
-525,248	-200,000	-0,005	-0,031
-524,233	-56,049	0,070	0,023
-523,218	530,143	-0,027	-0,047
-522,204	800,000	0,032	0,072
-521,189	800,000	-0,030	-0,080
-520,175	-53,041	-0,007	0,002
-519,160	29,190	0,093	-0,058
-518,145	800,000	0,033	0,107
-517,131	475,921	0,050	-0,084
-516,116	-200,000	0,028	0,168
-515,102	-171,099	0,009	0,000
-514,087	800,000	-0,020	0,043
-513,072	406,624	-0,054	0,084
-512,058	800,000	-0,040	-0,114
-511,043	397,005	-0,079	0,122
-510,029	490,428	-0,051	0,087
-509,014	-126,171	0,112	0,012
-507,999	21,309	-0,151	0,091
-506,985	-200,000	0,000	-0,082
-505,970	29,948	-0,077	0,049
-504,956	517,420	-0,090	-0,156
-503,941	-34,746	-0,054	0,022
-502,926	353,479	0,033	0,048
-501,912	-4,339	-0,055	-0,028
-500,897	-200,000	-0,006	0,091
-499,883	-10,605	-0,163	0,080
-498,868	-200,000	0,006	0,051
-497,853	-200,000	-0,004	-0,026
-496,839	262,067	-0,028	-0,036
-495,824	800,000	-0,031	0,087
-494,810	77,738	0,147	0,115
-493,795	-200,000	-0,007	0,122
-492,781	-200,000	-0,021	-0,134
-491,766	-200,000	-0,019	-0,084
-490,751	25,778	0,099	-0,060
-489,737	-200,000	0,034	-0,137
-488,722	78,690	0,028	0,022
-487,708	451,730	0,019	-0,031
-486,693	800,000	0,032	0,095
-485,678	8,661	-0,024	0,013
-484,664	626,465	0,034	-0,063
-483,649	265,536	0,041	0,053
-482,635	147,710	-0,067	-0,067
-481,620	-64,568	-0,032	-0,010
-480,605	-44,528	-0,072	-0,026
-479,591	-38,599	-0,059	0,023
-478,576	174,321	-0,056	-0,059
-477,562	53,103	-0,097	-0,069
-476,547	-200,000	-0,045	-0,152
-475,532	281,966	0,077	-0,102
-474,518	599,581	0,046	-0,084
-473,503	-40,551	-0,017	0,006
-472,489	23,936	-0,069	-0,042
-471,474	-200,000	-0,011	-0,068
-470,459	140,323	-0,050	0,048
-469,445	-200,000	-0,008	-0,110
-468,430	800,000	-0,034	0,073
-467,416	-65,214	0,123	0,036
-466,401	-51,371	0,100	0,034
-465,386	-3,103	0,128	0,065
-464,372	356,016	0,081	0,119
-463,357	-67,475	-0,090	-0,026
-462,343	-200,000	0,004	-0,066
-461,328	84,888	-0,117	-0,095
-460,313	-200,000	-0,001	-0,097
-459,299	800,000	-0,072	0,149
-458,284	-64,521	0,063	0,019
-457,270	35,437	0,058	0,037
-456,255	-10,866	0,065	0,031
-455,241	-76,942	-0,167	0,043
-454,226	-0,368	0,010	-0,005
-453,211	-64,323	-0,102	0,030
-452,197	-200,000	0,012	-0,192
-451,182	-84,779	0,081	0,019
-450,168	114,858	0,046	-0,041
-449,153	56,739	-0,056	-0,040
-448,138	128,691	-0,015	-0,014
-447,124	490,821	-0,011	-0,018
-446,109	800,000	0,024	-0,076
-445,095	-166,141	0,101	0,003
-444,080	560,249	0,071	0,127
-443,065	-200,000	0,039	0,145
-442,051	-111,534	0,145	-0,021
-441,036	86,221	0,048	-0,039
-440,022	233,324	-0,060	-0,072
-439,007	477,376	0,078	-0,131
-437,992	143,488	0,045	-0,044
-436,978	346,321	0,068	0,099
-435,963	515,639	0,064	-0,110
-434,949	-195,781	-0,073	-0,000
-433,934	210,027	-0,061	-0,071
-432,919	45,622	-0,037	-0,025
-431,905	-121,690	0,168	-0,020
-430,890	-11,207	-0,055	-0,027
-429,876	79,463	0,068	0,054
-428,861	-200,000	0,008	0,044
-427,846	-200,000	-0,006	-0,021
-426,832	-82,888	-0,095	-0,022
-425,817	800,000	-0,045	-0,117
-424,803	800,000	0,005	0,014
-423,788	689,213	0,077	0,149
-422,773	115,382	0,177	0,159
-421,759	239,829	0,015	0,018
-420,744	-112,795	0,028	-0,004
-419,730	39,223	0,065	-0,042
-418,715	248,859	0,012	-0,015
-417,701	29,036	-0,124	-0,077
-416,686	-200,000	-0,003	0,110
-415,671	-159,778	0,057	0,002
-414,657	-116,462	0,033	-0,004
-413,642	490,194	0,043	-0,072
-412,628	58,868	-0,057	-0,041
-411,613	-8,204	-0,121	-0,060
-410,598	576,639	0,009	0,016
-409,584	-200,000	-0,031	0,105
-408,569	-91,299	-0,074	-0,015
-407,555	221,486	0,055	0,065
-406,540	-45,355	-0,086	-0,031
-405,525	-200,000	-0,012	-0,041
-404,511	261,588	-0,121	0,155
-403,496	219,177	-0,076	-0,090
-402,482	10,427	0,122	-0,068
-401,467	-68,411	0,067	0,019
-400,452	800,000	0,073	0,158
-399,438	800,000	-0,031	0,079
-398,423	102,376	0,033	-0,028
-397,409	-92,579	-0,090	0,018
-396,394	-200,000	0,019	-0,074
-395,379	-101,365	0,063	0,011
-394,365	226,241	0,063	-0,075
-393,350	-9,808	0,144	-0,070
-392,336	-200,000	0,022	-0,152
-391,321	202,613	-0,056	0,064
-390,306	430,462	-0,026	0,042
-389,292	-64,494	0,090	-0,027
-388,277	265,641	0,017	0,022
-387,263	682,245	-0,075	-0,144
-386,248	800,000	0,089	-0,185
-385,233	622,074	-0,047	0,088
-384,219	24,882	-0,081	0,049
-383,204	-56,229	-0,082	-0,027
-382,190	800,000	-0,062	-0,143
-381,175	-200,000	-0,014	-0,046
-380,160	-200,000	0,031	0,131
-379,146	-146,318	-0,097	-0,006
-378,131	473,400	-0,025	0,041
-377,117	-200,000	-0,007	-0,063
-376,102	134,621	0,030	0,028
-375,088	88,387	0,050	-0,040
-374,073	170,627	-0,091	-0,096
-373,058	489,392	-0,044	-0,074
-372,044	100,865	0,090	-0,077
-371,029	-58,178	-0,104	0,033
-370,015	271,101	0,064	0,083
-369,000	62,556	0,108	-0,079
-367,985	74,231	-0,040	-0,031
-366,971	371,722	-0,042	-0,062
-365,956	234,919	-0,041	0,050
-364,942	-200,000	0,021	0,084
-363,927	-200,000	0,004	-0,017
-362,912	373,565	0,047	0,071
-361,898	221,801	-0,153	0,181
-360,883	189,784	0,009	0,010
-359,869	5,383	0,067	0,036
-358,854	800,000	0,033	0,091
-357,839	-200,000	-0,022	0,101
-356,825	-38,773	0,083	-0,032
-355,810	-200,000	0,006	0,053
-354,796	-200,000	0,022	-0,114
-353,781	-116,097	-0,128	-0,017
-352,766	-200,000	0,029	-0,126
-351,752	-200,000	-0,008	0,033
-350,737	106,302	0,143	0,124
-349,723	288,740	0,058	-0,078
-348,708	800,000	0,048	0,142
-347,693	800,000	-0,027	-0,081
-346,679	0,658	-0,095	0,049
-345,664	-200,000	-0,015	0,067
-344,650	-6,185	0,082	-0,041
-343,635	-199,890	0,047	0,000
-342,620	279,146	-0,023	0,030
-341,606	74,497	0,058	0,045
-340,591	-78,963	-0,100	-0,025
-339,577	29,920	-0,061	-0,038
-338,562	-200,000	-0,009	-0,110
-337,548	77,918	0,037	-0,029
-336,533	394,774	0,040	-0,062
-335,518	-187,134	-0,039	0,000
-334,504	404,256	-0,102	0,158
-333,489	609,150	-0,048	-0,089
-332,475	-114,912	-0,047	-0,006
-331,460	297,689	-0,016	-0,021
-330,445	-152,594	0,140	-0,007
-329,431	228,108	0,050	0,060
-328,416	-148,502	0,086	0,005
-327,402	230,458	0,067	0,081
-326,387	311,214	-0,106	0,146
-325,372	555,674	-0,027	-0,048
-324,358	800,000	-0,047	-0,104
-323,343	41,182	-0,088	0,058
-322,329	-59,157	-0,049	0,015
-321,314	97,138	0,028	-0,023
-320,299	800,000	-0,058	-0,138
-319,285	203,991	-0,067	-0,076
-318,270	169,422	0,080	-0,083
-317,256	-200,000	0,035	0,126
-316,241	-41,372	0,078	-0,029
-315,226	-91,188	0,035	0,007
-314,212	-200,000	0,034	0,134
-313,197	200,164	-0,043	0,049
-312,183	-31,498	-0,014	-0,006
-311,168	-200,000	-0,001	-0,033
-310,153	-41,193	0,070	0,026
-309,139	693,554	-0,051	0,099
-308,124	248,028	0,048	-0,060
-307,110	102,681	0,078	0,067
-306,095	581,899	-0,071	0,128
-305,080	-200,000	0,001	0,083
-304,066	-200,000	0,017	-0,062
-303,051	-200,000	-0,047	-0,176
-302,037	230,612	0,053	-0,064
-301,022	51,354	0,042	-0,029
-300,008	-200,000	-0,002	0,034
-298,993	800,000	0,061	-0,140
-297,978	-143,686	0,101	0,007
-296,964	127,018	0,114	0,105
-295,949	800,000	0,027	0,075
-294,935	-127,087	-0,042	0,004
-293,920	800,000	0,031	0,092
-292,905	-107,330	0,084	-0,013
-291,891	-164,078	-0,072	0,002
-290,876	-200,000	0,025	0,133
-289,862	148,679	0,042	-0,041
-288,847	-200,000	0,012	0,120
-287,832	-132,935	0,038	-0,003
-286,818	-132,671	-0,025	0,002
-285,803	-200,000	0,009	0,081
-284,789	-70,458	-0,080	0,022
-283,774	-200,000	-0,010	0,120
-282,759	800,000	0,015	-0,044
-281,745	-200,000	0,011	0,039
-280,730	290,758	0,052	-0,069
-279,716	-28,182	0,055	0,023
-278,701	800,000	-0,038	-0,111
-277,686	-200,000	0,023	-0,088
-276,672	446,980	-0,029	0,047
-275,657	55,304	-0,055	0,039
-274,643	58,863	-0,127	0,092
-273,628	-200,000	0,031	0,112
-272,613	-7,566	-0,100	0,050
-271,599	253,995	0,067	0,083
-270,584	-18,118	-0,093	0,043
-269,570	-74,551	-0,049	0,013
-268,555	-200,000	0,008	0,160
-267,540	800,000	0,005	0,013
-266,526	-200,000	0,005	-0,132
-265,511	51,409	-0,157	-0,109
-264,497	-30,745	0,112	-0,046
-263,482	800,000	-0,047	0,124
-262,467	510,155	0,049	0,085
-261,453	-77,923	0,071	-0,018
-260,438	-130,552	0,076	0,007
-259,424	800,000	0,006	-0,013
-258,409	-200,000	-0,013	-0,043
-257,395	-183,226	-0,095	-0,001
-256,380	-144,392	0,025	0,002
-255,365	-200,000	-0,005	0,072
-254,351	295,599	0,071	0,095
-253,336	62,429	0,059	0,043
-252,322	-200,000	0,023	-0,093
-251,307	-200,000	-0,001	-0,047
-250,292	-67,805	-0,027	-0,008
-249,278	800,000	0,077	0,172
-248,263	61,252	-0,116	0,085
-247,249	-200,000	-0,023	-0,209
-246,234	56,361	0,146	0,104
-245,219	-200,000	-0,007	-0,037
-244,205	178,090	-0,076	-0,081
-243,190	97,059	-0,152	-0,127
-242,176	168,284	0,032	-0,033
-241,161	19,232	0,070	0,041
-240,146	349,249	-0,021	0,031
-239,132	228,246	-0,053	0,063
-238,117	144,617	0,036	0,035
-237,103	-10,292	0,066	0,032
-236,088	798,662	-0,030	-0,061
-235,073	200,768	-0,083	-0,093
-234,059	-200,000	-0,005	-0,119
-233,044	800,000	0,022	0,068
-232,030	-200,000	-0,009	-0,156
-231,015	-200,000	-0,009	0,067
-230,000	-120,526	0,157	0,019
-228,986	-77,799	0,113	-0,028
-227,971	532,960	0,053	-0,092
-226,957	717,711	0,060	0,117
-225,942	800,000	0,028	0,081
-224,927	-200,000	0,012	0,046
-223,913	800,000	-0,052	0,110
-222,898	5,973	-0,026	-0,014
-221,884	800,000	-0,054	-0,126
-220,869	-200,000	0,016	0,139
-219,855	76,259	0,099	-0,077
-218,840	-200,000	0,017	-0,100
-217,825	-139,879	-0,062	0,005
-216,811	56,967	-0,055	-0,039
-215,796	-200,000	0,020	-0,109
-214,782	131,020	-0,104	-0,097
-213,767	-96,982	0,032	0,006
-212,752	20,814	0,098	-0,058
-211,738	800,000	0,010	0,022
-210,723	-141,702	0,099	-0,007
-209,709	51,742	0,020	-0,014
-208,694	-200,000	-0,020	-0,166
-207,679	-54,881	0,077	-0,025
-206,665	406,470	0,064	0,099
-205,650	-102,763	0,145	0,025
-204,636	421,682	0,066	-0,103
-203,621	176,517	0,074	-0,078
-202,606	612,039	-0,022	-0,041
-201,592	200,388	0,011	-0,012
-200,577	-200,000	0,004	0,015
-199,563	-200,000	-0,017	0,000
-198,548	-38,052	0,035	0,013
-197,533	-41,672	-0,048	0,018
-196,519	234,636	0,095	0,115
-195,504	-200,000	0,001	-0,032
-194,490	-120,216	0,139	-0,017
-193,475	-106,885	-0,048	-0,008
-192,460	725,963	-0,029	0,057
-191,446	144,828	0,074	-0,073
-190,431	-183,192	-0,069	-0,001
-189,417	27,817	0,113	0,069
-188,402	467,419	-0,066	0,108
-187,387	-128,090	-0,064	0,007
-186,373	800,000	-0,005	0,012
-185,358	118,806	-0,100	-0,090
-184,344	-200,000	0,006	0,101
-183,329	-200,000	0,003	-0,049
-182,315	261,823	-0,017	-0,021
-181,300	191,757	0,049	-0,054
-180,285	-200,000	-0,021	-0,163
-179,271	-200,000	-0,016	0,194
-178,256	800,000	-0,041	0,093
-177,242	45,438	-0,070	-0,047
-176,227	-133,367	0,163	0,015
-175,212	156,737	0,087	0,088
-174,198	-200,000	-0,028	0,119
-173,183	-200,000	0,012	0,049
-172,169	-48,468	-0,092	0,032
-171,154	800,000	-0,028	-0,059
-170,139	-59,543	-0,053	0,017
-169,125	-121,748	-0,017	0,002
-168,110	127,793	0,088	-0,081
-167,096	315,665	-0,055	0,076
-166,081	273,565	-0,056	0,072
-165,066	141,762	-0,109	-0,105
-164,052	161,374	0,055	-0,056
-163,037	-44,076	-0,090	0,033
-162,023	800,000	0,015	0,043
-161,008	12,947	0,143	0,080
-159,993	-200,000	-0,029	0,124
-158,979	-59,700	-0,039	0,012
-157,964	-99,241	-0,174	-0,032
-156,950	-200,000	-0,026	-0,115
-155,935	-72,589	0,008	-0,002
-154,920	-10,319	0,134	0,064
-153,906	-200,000	0,001	0,180
-152,891	180,801	0,032	-0,035
-151,877	391,986	-0,132	-0,200
-150,862	420,018	0,055	0,086
-149,847	24,806	0,025	-0,015
-148,833	800,000	0,039	0,113
-147,818	650,804	0,050	0,093
-146,804	800,000	0,026	-0,055
-145,789	68,717	-0,057	0,042
-144,775	43,945	0,100	0,067
-143,760	-94,201	-0,108	-0,021
-142,745	36,068	0,030	-0,019
-141,731	67,899	0,059	-0,044
-140,716	-200,000	-0,056	0,192
-139,702	-41,185	-0,053	0,020
-138,687	-27,924	0,009	0,004
-137,672	90,784	-0,015	0,012
-136,658	-157,205	-0,131	-0,006
-135,643	800,000	-0,012	-0,033
-134,629	12,069	0,129	0,072
-133,614	-35,188	0,094	0,037
-132,599	142,527	0,130	0,125
-131,585	63,951	-0,039	0,028
-130,570	51,533	0,017	0,012
-129,556	-200,000	-0,007	-0,039
-128,541	-200,000	0,020	0,075
-127,526	-200,000	-0,020	-0,076
-126,512	-200,000	-0,017	0,086
-125,497	-12,757	0,029	-0,014
-124,483	800,000	-0,062	-0,127
-123,468	800,000	-0,005	-0,015
-122,453	-200,000	-0,002	-0,072
-121,439	-118,569	0,148	0,019
-120,424	46,513	-0,056	0,038
-119,410	71,243	0,113	0,086
-118,395	54,051	0,016	-0,011
-117,380	-200,000	0,012	-0,108
-116,366	-84,976	-0,125	-0,028
-115,351	-163,330	-0,152	0,005
-114,337	-54,781	-0,011	0,004
-113,322	800,000	0,016	0,048
-112,307	305,663	0,029	0,039
-111,293	-10,826	0,106	0,051
-110,278	800,000	-0,010	0,027
-109,264	33,352	0,017	0,011
-108,249	800,000	0,008	-0,018
-107,234	-200,000	-0,012	-0,065
-106,220	129,217	-0,082	-0,076
-105,205	-55,518	-0,053	0,017
-104,191	265,158	0,055	-0,070
-103,176	-62,549	-0,039	0,012
-102,162	5,697	-0,031	0,016
-101,147	-200,000	0,014	0,069
-100,132	-200,000	-0,021	-0,073
-99,118	-25,446	-0,067	-0,029
-98,103	192,597	-0,062	0,068
-97,089	-200,000	-0,010	0,122
-96,074	-20,288	0,028	0,012
-95,059	170,039	-0,059	0,061
-94,045	800,000	0,011	0,029
-93,030	-62,863	0,062	0,019
-92,016	-31,548	0,037	-0,015
-91,001	-200,000	0,003	0,044
-89,986	-5,571	0,083	0,041
-88,972	-30,501	-0,140	-0,057
-87,957	-200,000	0,014	-0,079
-86,943	-37,491	0,116	-0,045
-85,928	323,483	0,092	-0,127
-84,913	800,000	-0,045	-0,108
-83,899	-92,064	-0,186	-0,038
-82,884	220,997	0,113	-0,132
-81,870	800,000	0,022	-0,068
-80,855	800,000	0,015	-0,035
-79,840	-61,294	0,044	-0,013
-78,826	-171,493	-0,174	-0,004
-77,811	800,000	0,022	0,045
-76,797	169,231	-0,049	0,051
-75,782	-200,000	0,030	0,123
-74,767	-200,000	-0,001	0,106
-73,753	800,000	-0,042	0,133
-72,738	681,576	0,019	0,036
-71,724	598,507	-0,019	-0,034
-70,709	563,067	0,040	0,070
-69,694	561,259	0,029	-0,050
-68,680	63,383	0,029	0,021
-67,665	-200,000	-0,036	0,128
-66,651	-200,000	0,017	0,098
-65,636	131,092	-0,075	0,070
-64,622	800,000	0,047	-0,124
-63,607	-200,000	0,029	-0,098
-62,592	800,000	0,052	-0,152
-61,578	800,000	0,065	0,151
-60,563	14,106	-0,029	0,016
-59,549	32,028	-0,103	0,064
-58,534	-115,841	-1,240	-0,166
-57,519	433,178	-0,872	-1,379
-56,505	-200,000	-0,990	-4,455
-55,490	-14,180	0,662	-0,308
-54,476	800,000	5,038	11,920
-53,461	-200,000	13,384	252,792
-52,446	-200,000	689,011	2268,377
-51,432	595,374	1623,083	2926,070
-50,417	120,850	1636,083	1476,053
-49,403	73,503	1290,376	979,134
-48,388	38,457	1024,933	661,404
-47,373	24,466	982,438	587,965
-46,359	23,733	972,154	579,385
-45,344	22,805	968,044	573,877
-44,330	22,738	966,443	572,687
-43,315	22,645	964,995	571,505
-42,300	22,596	964,000	570,731
-41,286	22,577	963,148	570,142
-40,271	22,654	962,141	569,774
-39,257	22,582	961,367	569,059
-38,242	22,602	960,412	568,536
-37,227	22,588	959,514	567,938
-36,213	22,532	958,714	567,258
-35,198	22,543	957,793	566,727
-34,184	22,594	957,199	566,518
-33,169	22,565	956,270	565,852
-32,154	22,605	955,216	565,337
-31,140	22,561	954,513	564,755
-30,125	22,571	953,741	564,310
-29,111	22,656	952,613	563,893
-28,096	22,626	952,050	563,441
-27,082	22,596	951,531	563,013
-26,067	22,580	950,807	562,512
-25,052	22,573	950,128	562,066
-24,038	22,567	949,268	561,516
-23,023	22,628	948,690	561,346
-22,009	22,597	948,022	560,830
-20,994	22,597	947,465	560,477
-19,979	22,683	946,659	560,253
-18,965	22,633	946,273	559,844
-17,950	22,618	945,481	559,306
-16,936	22,598	944,769	558,799
-15,921	22,531	944,341	558,308
-14,906	22,509	943,573	557,762
-13,892	22,476	942,763	557,157
-12,877	22,488	942,271	556,881
-11,863	22,436	941,664	556,334
-10,848	22,468	941,122	556,094
-9,833	22,555	940,593	556,036
-8,819	22,507	940,075	555,554
-7,804	22,559	939,118	555,134
-6,790	22,578	938,611	554,871
-5,775	22,583	938,070	554,546
-4,760	22,493	937,612	553,966
-3,746	22,509	936,905	553,577
-2,731	22,371	936,306	552,767
-1,717	22,311	935,371	552,002
-0,702	22,330	934,791	551,700
0,313	22,080	934,191	551,390
1,327	25,111	931,995	559,576
2,342	34,779	796,587	504,035
3,356	32,670	451,865	282,711
4,371	1,868	293,578	152,976
5,386	-2,703	274,339	138,619
6,400	-4,066	268,660	134,475
7,415	-4,409	266,213	132,923
8,429	-4,249	265,144	132,524
9,444	-4,300	264,319	132,053
10,459	-4,218	263,661	131,787
11,473	-4,299	263,045	131,394
12,488	-4,257	262,495	131,146
13,502	-4,317	261,906	130,786
14,517	-4,304	261,504	130,585
15,531	-4,531	261,256	130,245
16,546	-4,493	260,815	130,047
17,561	-4,403	260,420	129,920
18,575	-4,176	260,113	129,958
19,590	-4,478	259,794	129,517
20,604	-4,306	259,417	129,471
21,619	-4,527	259,128	129,119
22,634	-4,331	258,628	129,032
23,648	-4,374	258,508	128,923
24,663	-4,377	258,147	128,728
25,677	-4,359	258,036	128,677
26,692	-4,374	257,674	128,473
27,707	-4,370	257,488	128,372
28,721	-4,496	257,181	128,095
29,736	-4,513	257,053	128,006
30,750	-4,389	256,776	127,966
31,765	-4,511	256,503	127,710
32,780	-4,439	256,316	127,669
33,794	-4,529	256,020	127,432
34,809	-4,534	255,804	127,308
35,823	-4,377	255,597	127,332
36,838	-4,426	255,116	127,038
37,853	-4,608	255,010	126,814
38,867	-4,522	254,804	126,776
39,882	-4,492	254,581	126,679
40,896	-4,429	254,365	126,616
41,911	-4,583	254,280	126,428
42,926	-4,790	253,959	126,076
43,940	-4,413	253,632	126,231
44,955	-4,449	253,435	126,091
45,969	-4,633	253,269	125,837
46,984	-4,629	252,888	125,639
47,999	-4,982	252,811	125,283
49,013	-5,089	252,528	125,039
50,028	-5,235	252,193	124,735
51,042	-5,301	252,072	124,607
52,057	-5,424	251,761	124,336
53,071	-5,220	251,512	124,377
54,086	-5,246	251,362	124,270
55,101	-5,142	251,250	124,293
56,115	-4,537	251,030	124,695
57,130	-4,502	251,013	124,707
58,144	-4,111	250,924	124,988
59,159	-4,354	250,650	124,631
60,174	-4,244	250,415	124,598
61,188	-4,401	250,260	124,375
62,203	-4,222	250,038	124,407
63,217	-4,294	249,814	124,223
64,232	-4,293	249,592	124,102
65,247	-4,288	249,467	124,034
66,261	-4,218	249,112	123,905
67,276	-4,614	248,869	123,436
68,290	-4,745	248,596	123,177
69,305	-4,774	248,371	123,030
70,320	-4,718	248,307	123,034
71,334	-4,687	248,238	123,016
72,349	-4,514	248,119	123,093
73,363	-4,232	247,640	123,084
74,378	-4,323	247,603	122,977
75,393	-4,367	247,531	122,893
76,407	-4,354	247,219	122,739
77,422	-4,361	246,980	122,604
78,436	-4,393	246,870	122,510
79,451	-4,294	246,528	122,414
80,466	-4,488	246,405	122,178
81,480	-4,490	246,095	122,011
82,495	-4,556	245,886	121,842
83,509	-4,718	245,832	121,667
84,524	-4,598	245,524	121,605
85,539	-4,851	245,237	121,239
86,553	-4,685	245,165	121,332
87,568	-4,466	244,897	121,372
88,582	-4,459	244,700	121,271
89,597	-4,829	244,589	120,894
90,611	-4,861	244,530	120,827
91,626	-4,458	244,287	121,034
92,641	-4,388	243,991	120,935
93,655	-4,580	243,965	120,751
94,670	-4,580	243,729	120,623
95,684	-4,543	243,494	120,527
96,699	-4,652	243,213	120,286
97,714	-4,742	243,059	120,125
98,728	-4,636	242,800	120,074
99,743	-4,798	242,675	119,867
100,757	-4,767	242,587	119,839
101,772	-4,697	242,246	119,717
102,787	-4,616	242,165	119,734
103,801	-4,475	242,035	119,776
104,816	-4,440	241,932	119,743
105,830	-4,349	241,729	119,707
106,845	-4,276	241,652	119,719
107,860	-4,517	241,403	119,385
108,874	-4,425	240,944	119,224
109,889	-4,529	240,861	119,086
110,903	-4,500	240,748	119,044
111,918	-4,581	240,700	118,943
112,933	-4,635	240,507	118,793
113,947	-4,456	240,454	118,903
114,962	-4,656	240,310	118,656
115,976	-4,403	239,940	118,671
116,991	-4,417	239,736	118,547
118,006	-4,625	239,662	118,330
119,020	-4,492	239,465	118,332
120,035	-4,501	239,357	118,260
121,049	-4,221	239,186	118,394
122,064	-4,496	239,090	118,111
123,079	-4,513	238,916	118,001
124,093	-4,478	238,507	117,817
125,108	-4,666	238,355	117,578
126,122	-4,734	238,169	117,421
127,137	-4,854	237,951	117,205
128,151	-4,965	237,864	117,062
129,166	-4,666	237,580	117,155
130,181	-4,776	237,395	116,963
131,195	-4,776	237,173	116,843
132,210	-4,489	237,203	117,080
133,224	-4,593	237,015	116,893
134,239	-4,610	236,987	116,855
135,254	-4,431	236,717	116,856
136,268	-4,573	236,456	116,602
137,283	-4,643	236,255	116,436
138,297	-4,927	235,905	116,024
139,312	-4,846	235,833	116,044
140,327	-4,671	235,833	116,174
141,341	-4,252	235,829	116,499
142,356	-4,040	235,610	116,550
143,370	-4,015	235,351	116,432
144,385	-4,174	235,289	116,264
145,400	-4,157	235,056	116,152
146,414	-4,214	235,001	116,069
147,429	-4,204	234,625	115,881
148,443	-4,095	234,395	115,844
149,458	-4,188	234,387	115,755
150,473	-4,000	234,106	115,756
151,487	-4,076	234,047	115,656
152,502	-4,245	234,040	115,507
153,516	-4,020	233,721	115,519
154,531	-4,370	233,561	115,151
155,546	-4,157	233,379	115,221
156,560	-4,199	233,283	115,130
157,575	-4,178	233,000	114,996
158,589	-4,302	232,853	114,815
159,604	-4,057	232,770	114,958
160,619	-3,877	232,542	114,978
161,633	-4,074	232,400	114,741
162,648	-3,912	232,402	114,860
163,662	-4,064	232,147	114,604
164,677	-4,351	231,978	114,284
165,692	-4,335	231,917	114,256
166,706	-3,914	231,619	114,431
167,721	-4,216	231,600	114,173
168,735	-3,994	231,389	114,234
169,750	-4,019	231,174	114,098
170,764	-3,990	230,994	114,021
171,779	-4,117	230,990	113,910
172,794	-4,176	230,852	113,786
173,808	-4,095	230,578	113,704
174,823	-4,590	230,279	113,158
175,837	-4,829	230,158	112,902
176,852	-4,635	230,049	112,990
177,867	-4,151	230,029	113,349
178,881	-4,261	229,888	113,183
179,896	-4,192	229,727	113,148
180,910	-4,013	229,546	113,188
181,925	-3,951	229,366	113,137
182,940	-4,054	229,278	113,004
183,954	-3,962	228,924	112,891
184,969	-3,823	228,878	112,966
185,983	-3,928	228,839	112,855
186,998	-4,112	228,581	112,575
188,013	-4,192	228,584	112,504
189,027	-4,106	228,261	112,402
190,042	-4,032	228,187	112,412
191,056	-3,883	228,031	112,441
192,071	-3,990	227,825	112,247
193,086	-3,866	227,617	112,230
194,100	-3,847	227,458	112,157
195,115	-4,249	227,232	111,725
196,129	-4,558	227,019	111,372
197,144	-2,237	227,686	113,482
198,159	1,213	228,702	116,650
199,173	3,900	229,381	119,068
200,188	4,369	229,255	119,355
201,202	4,134	229,189	119,128
202,217	4,418	229,067	119,274
203,232	4,536	228,927	119,281
204,246	4,663	228,689	119,245
205,261	4,807	228,526	119,261
206,275	4,910	228,362	119,243
207,290	4,898	228,367	119,226
208,304	4,853	228,186	119,086
209,319	4,873	227,973	118,980
210,334	4,757	227,821	118,801
211,348	4,407	227,625	118,420
212,363	4,063	227,395	118,026
213,377	3,723	227,157	117,631
214,392	3,880	227,072	117,697
215,407	3,913	226,955	117,651
216,421	4,031	226,729	117,613
217,436	3,898	226,411	117,336
218,450	3,719	226,314	117,140
219,465	3,741	226,084	117,027
220,480	3,739	225,996	116,969
221,494	3,660	225,929	116,864
222,509	4,000	225,860	117,077
223,523	3,823	225,617	116,805
224,538	3,679	225,583	116,668
225,553	4,089	225,290	116,817
226,567	4,058	225,264	116,770
227,582	4,152	225,193	116,793
228,596	4,148	225,112	116,738
229,611	4,054	224,810	116,501
230,626	3,809	224,587	116,190
231,640	3,774	224,530	116,123
232,655	4,084	224,453	116,307
233,669	4,216	224,507	116,424
234,684	4,398	224,299	116,443
235,699	4,235	224,021	116,165
236,713	4,018	223,842	115,899
237,728	3,942	223,612	115,713
238,742	3,646	223,575	115,460
239,757	3,772	223,280	115,393
240,772	3,812	223,043	115,289
241,786	3,853	222,988	115,282
242,801	4,134	222,883	115,428
243,815	4,281	222,832	115,501
244,830	4,345	222,800	115,522
245,844	3,968	222,548	115,100
246,859	3,826	222,381	114,897
247,874	4,102	222,307	115,054
248,888	4,141	222,179	115,007
249,903	4,034	221,917	114,781
250,917	4,025	221,803	114,705
251,932	4,008	221,631	114,593
252,947	3,900	221,381	114,374
253,961	4,016	221,297	114,406
254,976	3,853	221,178	114,213
255,990	4,295	221,097	114,490
257,005	4,135	220,966	114,293
258,020	4,068	220,861	114,179
259,034	4,420	220,721	114,357
260,049	3,887	220,606	113,893
261,063	4,069	220,351	113,885
262,078	4,188	220,261	113,916
263,093	4,221	220,249	113,925
264,107	4,285	220,004	113,835
265,122	4,093	219,722	113,538
266,136	4,363	219,775	113,754
267,151	4,376	219,623	113,675
268,166	4,006	219,337	113,244
269,180	3,775	219,087	112,935
270,195	3,776	219,002	112,882
271,209	3,916	218,911	112,928
272,224	3,879	218,814	112,840
273,239	4,213	218,682	113,007
274,253	3,684	218,491	112,511
275,268	3,653	218,198	112,327
276,282	3,724	218,083	112,310
277,297	3,775	217,971	112,280
278,312	3,766	217,909	112,231
279,326	3,775	217,740	112,141
280,341	3,991	217,655	112,244
281,355	3,903	217,562	112,122
282,370	3,676	217,474	111,902
283,384	3,610	217,175	111,689
284,399	3,587	216,996	111,571
285,414	3,629	216,858	111,521
286,428	3,889	216,802	111,670
287,443	4,035	216,717	111,723
288,457	4,088	216,621	111,702
289,472	3,893	216,288	111,379
290,487	3,336	216,144	110,892
291,501	3,383	215,845	110,762
292,516	3,836	215,657	110,983
293,530	3,885	215,654	111,007
294,545	3,645	215,529	110,759
295,560	3,818	215,477	110,848
296,574	3,936	215,272	110,817
297,589	3,783	215,328	110,726
298,603	3,789	215,204	110,657
299,618	4,137	214,961	110,773
300,633	3,723	215,005	110,487
301,647	4,131	214,831	110,681
302,662	4,297	214,731	110,739
303,676	4,061	214,553	110,468
304,691	4,120	214,407	110,426
305,706	4,311	214,152	110,421
306,720	4,237	214,105	110,334
307,735	3,946	213,942	110,032
308,749	3,886	213,756	109,884
309,764	4,006	213,709	109,935
310,779	4,245	213,491	109,984
311,793	3,853	213,389	109,642
312,808	3,984	213,220	109,639
313,822	4,163	213,072	109,680
314,837	3,926	212,906	109,416
315,852	3,834	212,787	109,280
316,866	4,007	212,658	109,326
317,881	4,009	212,629	109,304
318,895	4,050	212,437	109,225
319,910	4,191	212,130	109,157
320,925	3,625	212,092	108,726
321,939	3,427	211,927	108,492
322,954	3,683	211,763	108,580
323,968	4,242	211,578	108,869
324,983	4,338	211,728	109,005
325,997	4,099	211,422	108,669
327,012	3,854	211,376	108,463
328,027	3,929	211,233	108,433
329,041	4,235	211,199	108,621
330,056	4,526	211,050	108,740
331,070	4,004	210,777	108,222
332,085	3,537	210,635	107,812
333,100	3,975	210,488	108,035
334,114	4,014	210,381	107,998
335,129	4,144	210,286	108,030
336,143	3,717	210,190	107,672
337,158	3,582	210,092	107,517
338,173	3,653	209,831	107,424
339,187	3,809	209,657	107,435
340,202	3,429	209,549	107,104
341,216	3,379	209,358	106,962
342,231	3,712	209,307	107,159
343,246	3,713	209,152	107,071
344,260	3,939	208,993	107,137
345,275	3,461	208,969	106,782
346,289	3,937	208,842	107,039
347,304	4,087	208,690	107,056
348,319	3,748	208,615	106,772
349,333	3,964	208,436	106,821
350,348	3,844	208,259	106,637
351,362	4,349	208,287	106,993
352,377	3,977	208,055	106,606
353,392	3,994	207,775	106,465
354,406	3,974	207,583	106,343
355,421	193,871	1346,459	1434,729
356,435	154,655	1485,328	1434,850
