DTS Sentinel unit serial number:	SN410029Multiplexer serial number:	ORYXHardware model number:	OX2-SRSoftware version number:	ORYX F/W v4,00 Oryx Data Collector v3.7.2.0data status	okinstallation	B6 Nyhavnadifferential loss correction	single-endedforward channel	channel 2reverse channel	N/Adate	2023/12/09time	03:40:08forward acquisition time	300,00reverse acquisition time	0,00gamma	499,1914k internal	0,3153k external	0,3153temperature offset calibration	1,0000default loss term (dB/km)	0,3820temperature slope calibration	1,0000multiplexer offset coefficient	1,0000multiplexer slope coefficient	1,0000fibre end	0,00T internal ref (°C)	16,44T ext. ref 1 (°C)	0,63T ext. ref 2 (°C)	0,62length (m)	temperature (°C)	Stokes	anti-Stokes-744,400	343,905	0,093	-0,135
-743,385	-192,878	-0,251	-0,002
-742,371	-76,239	0,151	-0,039
-741,356	-51,635	-0,346	-0,118
-740,342	-13,485	0,132	-0,063
-739,327	-106,676	-0,310	-0,050
-738,312	73,158	0,085	-0,065
-737,298	-157,071	-0,239	0,011
-736,283	-116,344	0,235	0,032
-735,269	-85,930	-0,293	0,066
-734,254	800,000	0,023	0,052
-733,239	-1,867	-0,492	-0,255
-732,225	-61,804	0,156	-0,048
-731,210	800,000	-0,029	0,090
-730,196	-4,290	0,110	-0,056
-729,181	341,698	-0,034	0,049
-728,167	-41,218	0,158	0,060
-727,152	59,979	0,058	-0,042
-726,137	-138,553	0,033	-0,003
-725,123	800,000	0,049	-0,119
-724,108	329,621	0,074	-0,105
-723,094	-28,317	-0,066	-0,028
-722,079	137,249	-0,077	0,074
-721,064	73,304	-0,100	0,077
-720,050	434,317	0,030	0,048
-719,035	800,000	-0,025	0,071
-718,021	51,027	-0,103	-0,072
-717,006	-200,000	0,034	-0,118
-715,991	-85,323	-0,163	-0,037
-714,977	-6,548	0,088	-0,044
-713,962	-200,000	0,004	-0,068
-712,948	189,967	0,086	0,095
-711,933	-3,687	0,007	-0,004
-710,918	-34,824	-0,056	0,022
-709,904	800,000	-0,024	-0,070
-708,889	25,906	-0,057	-0,035
-707,875	800,000	0,108	-0,247
-706,860	66,996	0,028	-0,021
-705,845	306,640	-0,134	0,185
-704,831	800,000	-0,030	-0,069
-703,816	-40,479	0,036	-0,014
-702,802	-200,000	-0,011	0,092
-701,787	141,997	0,046	-0,045
-700,772	800,000	0,027	-0,069
-699,758	43,201	0,052	0,035
-698,743	101,372	-0,066	0,056
-697,729	710,462	-0,021	-0,041
-696,714	-200,000	-0,007	-0,095
-695,699	37,579	-0,065	0,042
-694,685	-200,000	-0,029	-0,123
-693,670	-16,168	-0,126	0,059
-692,656	-39,537	-0,114	-0,044
-691,641	70,536	-0,079	0,060
-690,627	317,120	0,043	-0,060
-689,612	800,000	0,026	0,078
-688,597	305,608	-0,080	-0,110
-687,583	365,648	-0,075	-0,112
-686,568	-157,041	0,056	0,002
-685,554	453,074	0,065	-0,107
-684,539	-95,680	-0,117	-0,023
-683,524	-200,000	-0,005	-0,056
-682,510	-200,000	0,031	0,154
-681,495	375,960	-0,021	0,032
-680,481	21,753	-0,093	-0,056
-679,466	-200,000	-0,002	-0,105
-678,451	-200,000	-0,006	-0,107
-677,437	356,352	-0,070	0,104
-676,422	800,000	0,040	0,105
-675,408	-200,000	0,013	-0,055
-674,393	379,450	0,025	-0,038
-673,378	-65,294	-0,161	-0,047
-672,364	-200,000	0,001	-0,018
-671,349	-200,000	0,006	-0,164
-670,335	476,314	-0,127	0,212
-669,320	279,316	0,007	-0,010
-668,305	-0,904	0,024	0,013
-667,291	176,917	0,068	-0,073
-666,276	800,000	0,040	-0,094
-665,262	-62,928	0,049	-0,015
-664,247	55,103	-0,127	-0,090
-663,232	800,000	-0,052	0,140
-662,218	34,488	-0,106	0,068
-661,203	-90,588	0,074	0,016
-660,189	123,564	-0,015	-0,014
-659,174	-116,366	-0,038	-0,005
-658,159	265,366	-0,083	-0,106
-657,145	45,214	-0,079	-0,054
-656,130	187,559	0,081	-0,090
-655,116	-127,100	-0,086	-0,009
-654,101	-50,033	0,062	-0,022
-653,086	-200,000	0,007	-0,078
-652,072	-61,031	-0,093	-0,029
-651,057	-200,000	0,017	-0,088
-650,043	-60,864	-0,108	-0,033
-649,028	-200,000	-0,004	0,062
-648,014	112,843	0,080	0,071
-646,999	103,585	-0,058	-0,050
-645,984	108,865	-0,041	0,036
-644,970	-113,433	-0,087	0,012
-643,955	-54,332	0,131	-0,043
-642,941	-200,000	0,014	0,140
-641,926	92,344	0,073	0,061
-640,911	800,000	-0,053	0,121
-639,897	800,000	0,058	-0,121
-638,882	800,000	0,012	-0,031
-637,868	800,000	-0,051	-0,134
-636,853	-68,300	-0,043	0,012
-635,838	-200,000	0,025	-0,100
-634,824	117,537	-0,036	-0,033
-633,809	149,679	0,041	0,041
-632,795	-200,000	-0,002	-0,063
-631,780	-93,317	-0,043	0,009
-630,765	800,000	-0,021	0,061
-629,751	-48,046	-0,028	0,010
-628,736	800,000	0,058	-0,164
-627,722	311,448	0,017	0,024
-626,707	-200,000	-0,008	0,031
-625,692	-39,870	0,008	-0,003
-624,678	-0,943	0,114	-0,059
-623,663	-103,275	-0,163	-0,028
-622,649	448,458	-0,065	-0,106
-621,634	800,000	-0,021	-0,046
-620,619	46,698	-0,110	0,075
-619,605	800,000	-0,061	-0,135
-618,590	184,658	0,033	-0,036
-617,576	180,041	0,030	0,032
-616,561	-52,540	0,060	-0,020
-615,546	415,783	0,082	-0,129
-614,532	-60,635	0,030	-0,009
-613,517	-59,109	0,038	-0,012
-612,503	15,071	0,096	-0,055
-611,488	-71,104	0,132	0,036
-610,474	-200,000	-0,008	0,106
-609,459	800,000	0,043	0,129
-608,444	-39,633	-0,024	0,009
-607,430	-200,000	0,048	-0,166
-606,415	-174,371	-0,142	0,003
-605,401	213,346	0,127	0,148
-604,386	261,870	-0,023	0,029
-603,371	537,222	-0,050	0,087
-602,357	117,465	-0,155	-0,140
-601,342	490,064	-0,028	0,046
-600,328	21,471	-0,059	-0,035
-599,313	89,984	-0,082	-0,067
-598,298	-134,175	0,028	0,003
-597,284	-200,000	-0,030	-0,100
-596,269	-75,684	-0,037	0,010
-595,255	172,087	0,025	0,026
-594,240	100,598	0,004	0,004
-593,225	800,000	-0,044	0,133
-592,211	334,706	-0,074	-0,105
-591,196	800,000	0,064	0,162
-590,182	417,862	-0,093	0,146
-589,167	-200,000	0,007	0,171
-588,152	111,628	-0,050	-0,044
-587,138	800,000	-0,010	0,022
-586,123	111,209	-0,061	0,054
-585,109	-126,937	0,070	0,007
-584,094	800,000	0,020	-0,053
-583,079	-123,869	0,081	-0,009
-582,065	-200,000	-0,002	0,061
-581,050	300,329	0,048	-0,065
-580,036	40,984	0,157	0,104
-579,021	743,688	0,050	-0,099
-578,006	344,567	0,022	-0,032
-576,992	-200,000	-0,014	-0,095
-575,977	-200,000	-0,026	0,135
-574,963	270,918	-0,115	0,149
-573,948	634,738	0,019	-0,035
-572,934	732,966	-0,073	-0,144
-571,919	75,526	-0,102	-0,079
-570,904	-77,748	-0,040	-0,010
-569,890	0,376	-0,033	-0,017
-568,875	-80,626	-0,200	-0,048
-567,861	75,734	-0,111	-0,086
-566,846	-75,723	-0,031	0,008
-565,831	150,916	0,045	0,045
-564,817	800,000	0,058	-0,181
-563,802	-200,000	0,025	-0,083
-562,788	-27,125	-0,088	0,037
-561,773	-200,000	-0,017	-0,145
-560,758	-200,000	-0,010	-0,098
-559,744	87,078	-0,043	-0,035
-558,729	-200,000	-0,004	-0,014
-557,715	29,821	0,014	0,009
-556,700	-25,761	-0,132	-0,057
-555,685	-200,000	0,003	0,010
-554,671	-9,727	0,061	0,030
-553,656	-15,708	-0,073	0,034
-552,642	-200,000	0,040	0,150
-551,627	231,331	-0,033	-0,040
-550,612	-116,773	-0,087	0,012
-549,598	298,298	-0,036	0,048
-548,583	-200,000	-0,015	-0,102
-547,569	518,529	0,047	-0,081
-546,554	-200,000	-0,016	0,103
-545,539	-200,000	0,022	0,114
-544,525	-59,944	0,074	0,023
-543,510	298,192	0,038	0,052
-542,496	108,951	0,121	-0,106
-541,481	-10,181	0,076	-0,037
-540,466	-200,000	-0,001	0,080
-539,452	800,000	-0,019	-0,044
-538,437	93,496	-0,030	-0,025
-537,423	659,925	-0,013	0,024
-536,408	-95,637	-0,077	-0,015
-535,393	-200,000	0,006	-0,054
-534,379	-200,000	0,006	-0,108
-533,364	-200,000	0,013	-0,056
-532,350	-125,694	-0,030	0,003
-531,335	747,070	0,068	0,135
-530,321	-200,000	0,030	0,121
-529,306	507,775	0,116	-0,198
-528,291	800,000	-0,033	-0,090
-527,277	-77,601	0,107	-0,027
-526,262	136,606	-0,138	0,132
-525,248	-200,000	0,034	0,125
-524,233	-200,000	-0,005	-0,048
-523,218	98,621	0,048	-0,041
-522,204	-200,000	0,012	0,145
-521,189	-115,770	-0,118	0,016
-520,175	-200,000	0,018	-0,089
-519,160	222,716	-0,060	-0,070
-518,145	-129,917	0,048	0,005
-517,131	-200,000	-0,011	0,071
-516,116	-170,307	0,172	-0,004
-515,102	-167,840	-0,043	0,001
-514,087	800,000	0,050	-0,119
-513,072	-200,000	-0,040	-0,153
-512,058	41,689	0,027	-0,018
-511,043	64,457	-0,079	0,058
-510,029	95,375	0,092	0,077
-509,014	800,000	-0,067	-0,144
-507,999	800,000	0,015	0,037
-506,985	243,194	-0,075	-0,092
-505,970	-104,201	-0,103	0,017
-504,956	-52,354	-0,151	-0,051
-503,941	-15,656	0,158	0,074
-502,926	135,005	0,095	-0,090
-501,912	800,000	-0,063	0,179
-500,897	33,308	-0,108	-0,068
-499,883	-134,607	0,036	-0,003
-498,868	94,609	-0,139	-0,116
-497,853	235,585	-0,073	0,088
-496,839	800,000	-0,067	0,161
-495,824	-31,947	0,012	0,005
-494,810	-26,926	-0,013	0,006
-493,795	800,000	-0,035	0,075
-492,781	112,893	-0,134	-0,118
-491,766	-68,770	0,078	-0,022
-490,751	-42,204	-0,065	0,024
-489,737	-75,459	0,117	0,030
-488,722	-158,378	0,081	0,003
-487,708	-200,000	-0,018	0,062
-486,693	-200,000	-0,048	0,157
-485,678	254,282	0,014	0,018
-484,664	-2,287	-0,212	-0,109
-483,649	72,258	-0,036	-0,028
-482,635	-200,000	0,018	-0,069
-481,620	800,000	-0,052	0,141
-480,605	480,143	-0,011	-0,018
-479,591	-107,144	0,037	0,006
-478,576	406,027	0,041	0,064
-477,562	-133,847	0,036	-0,003
-476,547	607,888	-0,059	-0,109
-475,532	110,378	-0,110	-0,096
-474,518	181,224	-0,061	-0,066
-473,503	23,549	0,069	0,041
-472,489	426,266	0,075	-0,118
-471,474	34,806	0,111	-0,071
-470,459	29,403	-0,018	0,011
-469,445	-200,000	0,032	-0,116
-468,430	392,572	-0,081	0,124
-467,416	800,000	-0,033	0,076
-466,401	-110,647	-0,135	0,020
-465,386	92,910	0,067	0,055
-464,372	97,182	0,032	-0,026
-463,357	-200,000	-0,005	0,087
-462,343	800,000	-0,027	0,069
-461,328	800,000	-0,025	0,071
-460,313	-200,000	0,052	-0,236
-459,299	6,649	-0,039	-0,021
-458,284	-26,830	-0,105	0,045
-457,270	-37,243	0,176	0,069
-456,255	-112,547	-0,058	-0,008
-455,241	-200,000	-0,031	0,100
-454,226	-24,082	-0,128	-0,056
-453,211	-73,661	0,072	0,019
-452,197	-200,000	-0,013	0,112
-451,182	219,586	-0,066	-0,077
-450,168	800,000	-0,015	-0,040
-449,153	-69,311	0,017	0,005
-448,138	104,950	-0,078	-0,067
-447,124	24,489	-0,078	-0,047
-446,109	128,415	-0,137	-0,127
-445,095	108,727	0,058	0,051
-444,080	800,000	-0,048	0,131
-443,065	-69,581	0,056	-0,016
-442,051	233,809	0,030	0,036
-441,036	397,803	0,066	-0,101
-440,022	800,000	-0,010	0,026
-439,007	227,649	0,025	0,030
-437,992	800,000	0,001	-0,003
-436,978	-200,000	0,013	0,083
-435,963	-139,895	0,107	0,008
-434,949	-200,000	0,021	-0,068
-433,934	-21,461	0,048	-0,021
-432,919	-108,069	0,129	-0,020
-431,905	126,558	0,085	0,079
-430,890	179,014	-0,038	0,041
-429,876	-200,000	-0,008	0,076
-428,861	-200,000	-0,014	0,055
-427,846	206,614	0,029	0,033
-426,832	-200,000	-0,011	-0,048
-425,817	9,805	-0,060	-0,033
-424,803	800,000	-0,028	0,089
-423,788	83,609	0,099	0,079
-422,773	-83,634	0,097	0,022
-421,759	-200,000	-0,002	0,098
-420,744	-92,778	0,112	-0,023
-419,730	-85,436	0,030	0,007
-418,715	484,456	-0,013	0,021
-417,701	-194,968	0,115	-0,001
-416,686	-200,000	0,033	0,240
-415,671	-200,000	0,021	0,098
-414,657	-200,000	-0,003	0,054
-413,642	582,219	-0,049	-0,088
-412,628	-47,873	-0,098	-0,035
-411,613	-189,532	-0,063	-0,001
-410,598	-200,000	0,004	0,033
-409,584	-200,000	0,023	0,088
-408,569	800,000	0,046	-0,094
-407,555	-2,747	0,111	0,056
-406,540	337,133	-0,040	-0,057
-405,525	800,000	-0,052	-0,145
-404,511	-200,000	-0,004	0,022
-403,496	-131,965	-0,137	-0,013
-402,482	-131,549	-0,065	-0,006
-401,467	800,000	0,028	0,073
-400,452	3,229	0,091	-0,048
-399,438	148,910	-0,008	-0,008
-398,423	-86,524	-0,047	0,010
-397,409	-136,200	-0,070	-0,006
-396,394	725,737	-0,029	-0,056
-395,379	148,474	0,034	0,034
-394,365	-200,000	-0,009	-0,062
-393,350	-148,348	0,055	0,003
-392,336	-167,311	-0,079	-0,002
-391,321	384,504	-0,059	0,089
-390,306	-133,590	-0,053	0,005
-389,292	63,571	-0,063	0,046
-388,277	257,887	0,060	-0,075
-387,263	278,920	0,122	0,159
-386,248	81,009	0,087	0,068
-385,233	0,138	0,069	-0,036
-384,219	-160,521	0,141	0,005
-383,204	-150,042	-0,164	-0,009
-382,190	-171,098	0,116	0,003
-381,175	88,139	-0,125	0,101
-380,160	228,434	-0,085	-0,101
-379,146	-200,000	-0,009	0,062
-378,131	800,000	0,012	-0,037
-377,117	306,753	0,082	-0,112
-376,102	537,570	0,059	-0,102
-375,088	-69,923	-0,041	0,011
-374,073	629,927	-0,019	-0,036
-373,058	71,608	0,063	-0,048
-372,044	-200,000	-0,043	0,145
-371,029	-126,558	0,041	0,004
-370,015	-200,000	0,035	-0,138
-369,000	278,535	-0,082	0,106
-367,985	-96,753	0,105	0,020
-366,971	-198,766	-0,049	-0,000
-365,956	264,475	-0,082	0,105
-364,942	702,544	0,045	0,087
-363,927	-200,000	0,006	-0,055
-362,912	-101,119	0,135	0,024
-361,898	-200,000	-0,023	-0,122
-360,883	-131,840	0,123	0,012
-359,869	516,596	0,071	-0,122
-358,854	3,251	-0,073	-0,039
-357,839	-87,718	0,111	0,024
-356,825	-200,000	0,018	0,075
-355,810	5,178	-0,029	-0,015
-354,796	-41,984	0,113	-0,042
-353,781	48,129	0,036	-0,024
-352,766	63,085	0,071	-0,052
-351,752	-21,003	0,133	0,059
-350,737	-96,767	0,048	-0,009
-349,723	-44,562	0,130	0,047
-348,708	-34,272	0,017	0,007
-347,693	800,000	-0,055	0,122
-346,679	85,119	-0,096	-0,076
-345,664	97,933	0,046	0,038
-344,650	-160,089	0,034	0,001
-343,635	-151,901	-0,097	-0,005
-342,620	800,000	0,035	0,072
-341,606	37,130	-0,177	-0,114
-340,591	196,564	0,102	-0,113
-339,577	219,777	0,076	0,089
-338,562	-200,000	-0,002	-0,073
-337,548	-133,062	-0,157	0,014
-336,533	392,428	0,065	-0,099
-335,518	-200,000	-0,008	-0,068
-334,504	-28,910	-0,096	-0,040
-333,489	213,276	0,026	-0,030
-332,475	317,565	-0,007	0,009
-331,460	-200,000	-0,030	-0,146
-330,445	-114,055	0,128	0,018
-329,431	265,726	0,020	-0,026
-328,416	57,199	0,045	-0,032
-327,402	76,513	-0,171	0,132
-326,387	800,000	-0,030	0,074
-325,372	-101,742	0,036	0,006
-324,358	800,000	-0,035	-0,077
-323,343	-8,394	-0,040	-0,019
-322,329	92,630	0,150	-0,123
-321,314	673,098	-0,055	0,105
-320,299	-200,000	0,006	0,040
-319,285	-200,000	-0,021	-0,188
-318,270	800,000	0,012	0,030
-317,256	-142,559	-0,081	0,006
-316,241	-94,753	0,162	0,032
-315,226	-200,000	-0,001	0,079
-314,212	-200,000	0,016	0,121
-313,197	172,808	0,129	0,135
-312,183	-200,000	0,001	-0,113
-311,168	-179,500	-0,076	0,001
-310,153	-129,954	-0,083	-0,008
-309,139	-89,976	-0,115	0,024
-308,124	-200,000	-0,037	-0,127
-307,110	138,592	-0,051	0,049
-306,095	701,002	0,035	0,068
-305,080	692,902	0,060	-0,114
-304,066	460,543	0,020	-0,033
-303,051	800,000	-0,030	-0,074
-302,037	-62,717	-0,069	-0,020
-301,022	99,193	-0,023	-0,020
-300,008	-200,000	0,004	-0,015
-298,993	800,000	-0,001	0,002
-297,978	-200,000	-0,001	0,065
-296,964	-108,353	-0,171	-0,026
-295,949	-200,000	0,013	-0,212
-294,935	800,000	-0,042	-0,089
-293,920	-131,289	0,037	-0,004
-292,905	63,708	0,152	-0,111
-291,891	108,798	0,078	0,068
-290,876	190,959	-0,044	0,048
-289,862	-16,986	-0,046	0,021
-288,847	179,832	0,059	-0,063
-287,832	-83,520	-0,063	-0,014
-286,818	408,956	0,005	0,008
-285,803	-86,375	0,108	0,024
-284,789	-27,088	0,011	-0,005
-283,774	307,481	0,093	0,126
-282,759	39,298	-0,111	0,072
-281,745	447,852	-0,050	0,079
-280,730	3,791	-0,030	0,016
-279,716	-64,922	0,126	-0,037
-278,701	-71,378	0,057	0,015
-277,686	800,000	-0,033	0,098
-276,672	-60,601	-0,071	0,022
-275,657	112,357	0,056	-0,049
-274,643	800,000	-0,034	-0,075
-273,628	-96,691	-0,122	0,023
-272,613	30,475	0,076	-0,047
-271,599	-40,225	0,206	0,077
-270,584	22,454	-0,134	0,079
-269,570	437,169	0,091	0,144
-268,555	167,382	-0,035	0,036
-267,540	352,937	0,029	-0,041
-266,526	62,653	-0,012	0,009
-265,511	253,691	-0,059	0,073
-264,497	-42,910	0,080	0,029
-263,482	-6,963	-0,099	0,049
-262,467	-58,103	0,087	-0,027
-261,453	800,000	-0,042	0,131
-260,438	-200,000	0,016	-0,163
-259,424	-200,000	0,007	-0,071
-258,409	148,144	-0,070	0,069
-257,395	67,992	0,101	0,075
-256,380	800,000	-0,088	-0,229
-255,365	-200,000	0,023	-0,103
-254,351	800,000	0,055	0,120
-253,336	-78,915	-0,191	-0,047
-252,322	-200,000	0,021	0,069
-251,307	148,639	0,107	-0,104
-250,292	-200,000	0,007	-0,078
-249,278	800,000	0,054	0,119
-248,263	-200,000	-0,012	-0,053
-247,249	691,877	0,057	0,108
-246,234	86,150	-0,082	-0,065
-245,219	0,850	-0,112	-0,058
-244,205	265,357	-0,040	-0,050
-243,190	101,323	-0,011	0,010
-242,176	-79,815	-0,126	0,031
-241,161	-180,071	0,092	-0,001
-240,146	292,638	-0,127	0,168
-239,132	148,357	-0,097	0,095
-238,117	-200,000	0,013	-0,120
-237,103	-103,366	0,011	-0,002
-236,088	-200,000	0,020	0,081
-235,073	800,000	0,058	0,123
-234,059	384,607	0,078	0,117
-233,044	37,865	-0,074	-0,047
-232,030	195,903	-0,014	-0,015
-231,015	560,697	-0,027	-0,047
-230,000	800,000	0,058	-0,173
-228,986	154,409	0,036	0,036
-227,971	-51,017	0,068	-0,023
-226,957	-80,648	0,032	-0,008
-225,942	368,952	0,030	-0,045
-224,927	-200,000	-0,009	0,041
-223,913	-24,065	-0,137	0,059
-222,898	117,717	0,079	-0,070
-221,884	375,666	-0,013	-0,019
-220,869	-160,443	0,127	-0,005
-219,855	-200,000	-0,014	0,179
-218,840	800,000	-0,032	0,068
-217,825	84,939	-0,069	-0,055
-216,811	-200,000	0,002	-0,136
-215,796	-200,000	-0,031	-0,157
-214,782	133,480	-0,092	0,086
-213,767	88,756	0,052	-0,042
-212,752	-103,879	0,120	0,020
-211,738	205,554	-0,047	-0,053
-210,723	-6,957	0,210	0,103
-209,709	-68,180	-0,063	-0,018
-208,694	-44,601	0,195	-0,070
-207,679	142,402	0,036	0,034
-206,665	-200,000	-0,013	0,045
-205,650	20,068	-0,110	-0,064
-204,636	800,000	0,024	-0,054
-203,621	-200,000	0,007	0,077
-202,606	338,906	0,034	0,048
-201,592	-5,388	-0,065	0,032
-200,577	-132,798	0,076	-0,007
-199,563	-200,000	0,004	-0,066
-198,548	123,305	0,063	0,057
-197,533	800,000	-0,034	0,103
-196,519	296,018	-0,043	0,057
-195,504	497,586	-0,038	-0,063
-194,490	295,343	0,025	0,033
-193,475	800,000	-0,013	0,028
-192,460	103,828	0,077	-0,066
-191,446	-4,874	0,152	0,076
-190,431	117,699	0,014	0,012
-189,417	-14,741	0,049	0,023
-188,402	800,000	-0,027	0,064
-187,387	800,000	-0,080	-0,177
-186,373	180,305	-0,115	-0,122
-185,358	532,840	0,072	-0,124
-184,344	-116,237	0,108	-0,014
-183,329	5,738	0,139	0,074
-182,315	-200,000	0,001	-0,010
-181,300	481,684	0,067	-0,110
-180,285	221,279	-0,034	0,039
-179,271	-200,000	-0,021	0,084
-178,256	308,490	0,028	-0,038
-177,242	-200,000	0,005	-0,157
-176,227	-200,000	-0,014	0,044
-175,212	-200,000	0,057	0,204
-174,198	107,993	0,052	0,045
-173,183	-66,746	-0,194	-0,055
-172,169	800,000	0,025	-0,057
-171,154	800,000	0,017	0,049
-170,139	800,000	-0,005	0,015
-169,125	34,325	-0,048	0,030
-168,110	-200,000	0,003	-0,058
-167,096	-57,692	0,027	0,009
-166,081	-200,000	0,009	0,060
-165,066	0,215	-0,036	0,018
-164,052	154,744	0,057	0,057
-163,037	417,323	-0,031	-0,049
-162,023	75,450	0,056	0,043
-161,008	117,385	-0,061	0,054
-159,993	-128,438	0,075	-0,008
-158,979	800,000	-0,052	0,157
-157,964	133,118	-0,159	-0,148
-156,950	-167,460	-0,035	-0,001
-155,935	-103,529	0,006	-0,001
-154,920	800,000	0,035	0,079
-153,906	-170,113	0,094	-0,002
-152,891	-200,000	-0,000	0,073
-151,877	-8,117	0,103	0,050
-150,862	64,257	-0,079	-0,057
-149,847	39,423	-0,052	-0,034
-148,833	-51,401	0,082	0,028
-147,818	12,420	0,125	0,069
-146,804	-29,503	-0,046	-0,019
-145,789	-70,234	0,108	0,030
-144,775	97,298	-0,044	0,036
-143,760	-200,000	-0,008	0,031
-142,745	800,000	-0,022	-0,056
-141,731	-189,432	-0,063	-0,001
-140,716	554,072	-0,018	0,031
-139,702	289,132	0,104	0,137
-138,687	28,529	-0,113	0,069
-137,672	95,282	0,094	-0,077
-136,658	225,178	0,069	0,081
-135,643	6,494	-0,031	0,017
-134,629	-105,569	0,088	-0,014
-133,614	800,000	-0,007	-0,019
-132,599	-17,286	-0,030	0,013
-131,585	567,115	-0,091	0,159
-130,570	-200,000	0,037	-0,176
-129,556	-200,000	0,007	-0,136
-128,541	-0,309	0,116	-0,059
-127,526	-200,000	-0,029	-0,104
-126,512	-150,308	0,083	-0,005
-125,497	329,848	-0,060	0,084
-124,483	800,000	-0,010	0,028
-123,468	51,699	-0,011	-0,008
-122,453	259,116	-0,054	0,067
-121,439	-200,000	-0,036	-0,162
-120,424	-35,238	-0,077	0,030
-119,410	-133,885	0,021	0,002
-118,395	-31,392	-0,136	0,055
-117,380	-51,785	0,017	-0,006
-116,366	-36,660	-0,122	0,047
-115,351	-97,133	0,127	0,024
-114,337	-89,557	-0,069	0,015
-113,322	-56,745	-0,099	-0,031
-112,307	800,000	0,050	0,131
-111,293	238,834	0,079	0,095
-110,278	-110,486	-0,133	-0,020
-109,264	72,654	-0,076	-0,057
-108,249	800,000	-0,020	0,040
-107,234	-200,000	0,009	-0,155
-106,220	270,615	-0,070	0,089
-105,205	157,480	-0,029	0,029
-104,191	46,126	0,031	-0,020
-103,176	-155,181	0,157	0,007
-102,162	800,000	-0,010	0,025
-101,147	-200,000	0,009	0,056
-100,132	376,605	-0,076	-0,112
-99,118	46,147	0,086	-0,057
-98,103	174,359	0,038	0,040
-97,089	130,890	0,095	0,088
-96,074	527,864	-0,030	0,051
-95,059	80,575	0,050	0,039
-94,045	78,773	0,126	-0,097
-93,030	-165,816	-0,143	0,004
-92,016	-200,000	-0,003	-0,145
-91,001	414,407	0,120	0,185
-89,986	124,297	-0,064	-0,058
-88,972	-200,000	-0,050	-0,185
-87,957	-200,000	-0,011	-0,043
-86,943	164,711	0,020	0,021
-85,928	-184,496	0,134	-0,002
-84,913	-74,037	-0,094	-0,024
-83,899	56,765	-0,053	0,037
-82,884	800,000	-0,052	-0,127
-81,870	-24,666	-0,142	-0,060
-80,855	576,424	0,056	0,098
-79,840	224,897	0,053	0,061
-78,826	119,201	-0,090	-0,081
-77,811	300,321	-0,078	-0,103
-76,797	800,000	0,030	0,064
-75,782	-200,000	-0,010	0,088
-74,767	-48,266	0,043	-0,015
-73,753	-91,497	0,128	0,026
-72,738	-41,679	-0,137	0,050
-71,724	55,986	-0,087	-0,061
-70,709	75,120	0,017	-0,013
-69,694	-140,414	-0,121	-0,009
-68,680	419,807	-0,029	-0,044
-67,665	-200,000	-0,018	-0,098
-66,651	-200,000	-0,014	0,080
-65,636	224,209	-0,061	0,070
-64,622	-5,979	-0,008	0,004
-63,607	-200,000	0,013	-0,063
-62,592	201,298	0,041	-0,046
-61,578	250,615	0,054	-0,066
-60,563	-111,134	0,045	0,007
-59,549	-6,547	-0,042	0,020
-58,534	7,384	-1,838	-0,985
-57,519	-200,000	-0,248	-0,946
-56,505	-200,000	-1,373	-4,979
-55,490	-70,873	0,915	0,246
-54,476	800,000	5,136	12,178
-53,461	-200,000	17,168	273,425
-52,446	800,000	718,181	2182,894
-51,432	528,258	1631,545	2777,225
-50,417	112,292	1625,998	1413,099
-49,403	75,988	1286,609	977,229
-48,388	33,269	1032,340	642,372
-47,373	20,234	994,790	575,763
-46,359	18,899	983,071	564,550
-45,344	16,729	979,027	555,055
-44,330	16,877	977,479	554,645
-43,315	16,516	975,853	552,512
-42,300	16,474	974,631	551,661
-41,286	16,474	973,734	551,130
-40,271	16,519	972,738	550,695
-39,257	16,482	971,959	550,110
-38,242	16,478	971,065	549,570
-37,227	16,455	970,387	549,088
-36,213	16,482	969,573	548,694
-35,198	16,418	968,735	547,988
-34,184	16,498	967,914	547,762
-33,169	16,487	966,704	547,023
-32,154	16,499	965,761	546,504
-31,140	16,537	964,972	546,161
-30,125	16,504	964,261	545,629
-29,111	16,513	963,371	545,132
-28,096	16,466	962,954	544,723
-27,082	16,519	962,207	544,450
-26,067	16,463	961,359	543,768
-25,052	16,461	960,429	543,213
-24,038	16,423	959,983	542,816
-23,023	16,460	959,258	542,505
-22,009	16,501	958,610	542,249
-20,994	16,447	957,953	541,682
-19,979	16,463	957,373	541,384
-18,965	16,495	956,707	541,090
-17,950	16,515	956,116	540,797
-16,936	16,443	955,373	540,126
-15,921	16,416	954,737	539,657
-14,906	16,335	953,883	538,894
-13,892	16,350	953,274	538,576
-12,877	16,343	952,756	538,238
-11,863	16,379	952,106	537,965
-10,848	16,353	951,631	537,594
-9,833	16,462	951,094	537,617
-8,819	16,419	950,446	537,090
-7,804	16,410	949,653	536,592
-6,790	16,368	949,218	536,191
-5,775	16,392	948,571	535,881
-4,760	16,394	947,959	535,520
-3,746	16,346	947,239	534,940
-2,731	16,245	946,594	534,234
-1,717	16,137	946,013	533,540
-0,702	16,196	945,271	533,289
0,313	15,999	944,765	533,181
1,327	19,377	942,716	542,691
2,342	28,797	797,291	484,027
3,356	25,770	449,469	268,315
4,371	-3,758	297,442	147,847
5,386	-7,891	278,944	134,694
6,400	-8,955	273,217	130,921
7,415	-9,182	270,865	129,571
8,429	-9,268	269,450	128,804
9,444	-9,393	268,630	128,285
10,459	-9,304	267,674	127,899
11,473	-9,533	267,221	127,461
12,488	-9,556	266,756	127,208
13,502	-9,849	266,188	126,658
14,517	-9,856	265,748	126,430
15,531	-9,860	265,188	126,150
16,546	-9,951	264,808	125,875
17,561	-10,037	264,614	125,693
18,575	-9,962	264,247	125,576
19,590	-10,077	263,913	125,301
20,604	-9,887	263,472	125,253
21,619	-10,069	263,060	124,882
22,634	-10,039	262,787	124,768
23,648	-9,982	262,437	124,642
24,663	-10,011	262,230	124,506
25,677	-10,130	261,935	124,249
26,692	-10,188	261,723	124,085
27,707	-9,929	261,436	124,170
28,721	-10,137	261,191	123,856
29,736	-10,146	260,936	123,716
30,750	-10,291	260,802	123,512
31,765	-10,231	260,496	123,410
32,780	-10,178	260,137	123,277
33,794	-10,131	259,933	123,210
34,809	-10,151	259,724	123,082
35,823	-10,175	259,412	122,902
36,838	-10,408	259,196	122,582
37,853	-10,256	258,872	122,553
38,867	-10,182	258,762	122,556
39,882	-10,270	258,483	122,335
40,896	-10,314	258,331	122,213
41,911	-10,443	257,963	121,914
42,926	-10,402	257,894	121,907
43,940	-10,566	257,491	121,561
44,955	-10,512	257,282	121,499
45,969	-10,479	257,075	121,419
46,984	-10,746	256,746	121,018
47,999	-10,916	256,563	120,773
49,013	-11,070	256,300	120,503
50,028	-10,983	255,833	120,349
51,042	-11,230	255,782	120,098
52,057	-11,199	255,321	119,899
53,071	-11,105	255,227	119,925
54,086	-11,001	255,128	119,959
55,101	-11,000	255,138	119,954
56,115	-10,687	254,774	120,044
57,130	-10,203	254,719	120,429
58,144	-9,815	254,569	120,684
59,159	-9,986	254,578	120,529
60,174	-9,965	254,235	120,374
61,188	-9,925	254,048	120,310
62,203	-9,891	253,761	120,192
63,217	-9,927	253,451	120,003
64,232	-10,166	253,500	119,810
65,247	-10,022	253,237	119,798
66,261	-9,823	252,764	119,736
67,276	-10,536	252,629	119,047
68,290	-10,551	252,375	118,903
69,305	-10,726	252,159	118,641
70,320	-10,742	251,924	118,506
71,334	-10,249	251,660	118,794
72,349	-9,905	251,554	119,028
73,363	-9,932	251,521	118,979
74,378	-9,653	251,161	119,037
75,393	-10,104	251,075	118,600
76,407	-10,072	250,804	118,489
77,422	-10,183	250,625	118,298
78,436	-9,726	250,437	118,589
79,451	-10,080	250,202	118,166
80,466	-10,229	249,969	117,918
81,480	-10,166	249,547	117,763
82,495	-10,385	249,381	117,488
83,509	-10,566	249,416	117,340
84,524	-10,346	249,024	117,332
85,539	-10,502	248,808	117,087
86,553	-10,552	248,595	116,934
87,568	-10,489	248,472	116,919
88,582	-10,499	248,309	116,823
89,597	-10,355	248,142	116,856
90,611	-10,176	247,943	116,903
91,626	-10,160	247,808	116,843
92,641	-10,120	247,530	116,735
93,655	-10,173	247,421	116,628
94,670	-10,419	247,199	116,306
95,684	-10,380	246,997	116,234
96,699	-10,061	246,691	116,347
97,714	-10,370	246,574	116,022
98,728	-10,603	246,330	115,702
99,743	-10,594	246,192	115,634
100,757	-10,465	245,963	115,624
101,772	-10,700	245,766	115,325
102,787	-10,398	245,472	115,429
103,801	-10,445	245,627	115,452
104,816	-10,408	245,405	115,369
105,830	-10,279	245,324	115,427
106,845	-9,959	245,051	115,556
107,860	-10,156	244,858	115,290
108,874	-10,385	244,620	114,977
109,889	-10,238	244,397	114,984
110,903	-10,311	244,258	114,848
111,918	-10,446	244,057	114,632
112,933	-10,447	243,915	114,554
113,947	-10,342	243,686	114,523
114,962	-10,247	243,619	114,560
115,976	-10,254	243,366	114,425
116,991	-10,115	243,135	114,421
118,006	-10,206	243,113	114,325
119,020	-10,133	242,965	114,306
120,035	-9,873	242,697	114,383
121,049	-10,041	242,724	114,248
122,064	-10,112	242,501	114,074
123,079	-10,073	242,139	113,926
124,093	-10,301	241,921	113,625
125,108	-10,424	241,649	113,387
126,122	-10,539	241,405	113,168
127,137	-10,807	241,208	112,847
128,151	-10,723	241,132	112,869
129,166	-10,505	240,941	112,948
130,181	-10,724	240,791	112,689
131,195	-10,726	240,564	112,571
132,210	-10,453	240,433	112,722
133,224	-10,225	240,358	112,863
134,239	-10,155	240,118	112,798
135,254	-10,405	240,005	112,531
136,268	-10,371	239,709	112,409
137,283	-10,659	239,448	112,043
138,297	-10,702	239,205	111,884
139,312	-11,022	239,168	111,598
140,327	-10,449	238,990	111,969
141,341	-9,764	239,037	112,536
142,356	-9,699	238,865	112,497
143,370	-9,790	238,540	112,261
144,385	-9,748	238,629	112,326
145,400	-9,554	238,287	112,312
146,414	-9,847	238,183	112,017
147,429	-9,758	237,949	111,968
148,443	-9,682	237,714	111,909
149,458	-9,676	237,669	111,883
150,473	-9,744	237,498	111,738
151,487	-9,781	237,242	111,577
152,502	-9,815	237,124	111,485
153,516	-9,738	236,846	111,406
154,531	-9,902	236,727	111,208
155,546	-9,855	236,595	111,175
156,560	-9,885	236,333	111,017
157,575	-10,031	236,241	110,847
158,589	-10,062	236,090	110,742
159,604	-9,685	235,938	110,962
160,619	-9,788	235,863	110,834
161,633	-9,726	235,718	110,806
162,648	-9,687	235,625	110,783
163,662	-9,794	235,214	110,495
164,677	-9,870	235,062	110,353
165,692	-9,784	234,969	110,368
166,706	-9,651	234,961	110,460
167,721	-9,678	234,787	110,347
168,735	-9,512	234,659	110,409
169,750	-9,547	234,351	110,226
170,764	-9,664	234,259	110,081
171,779	-9,748	234,143	109,950
172,794	-9,583	234,046	110,025
173,808	-9,731	233,599	109,688
174,823	-10,474	233,350	108,976
175,837	-10,509	233,262	108,897
176,852	-10,037	233,130	109,197
177,867	-9,820	233,068	109,330
178,881	-9,558	232,902	109,448
179,896	-9,548	232,726	109,363
180,910	-9,542	232,602	109,300
181,925	-9,683	232,488	109,126
182,940	-9,577	232,316	109,119
183,954	-9,553	232,279	109,111
184,969	-9,579	232,060	108,977
185,983	-9,352	231,955	109,096
186,998	-9,594	231,902	108,872
188,013	-9,559	231,675	108,783
189,027	-9,616	231,471	108,634
190,042	-9,548	231,279	108,587
191,056	-9,395	231,192	108,656
192,071	-9,495	231,056	108,504
193,086	-9,516	230,814	108,365
194,100	-9,164	230,829	108,635
195,115	-9,164	230,688	108,560
196,129	-8,956	230,692	108,713
197,144	-4,258	232,044	113,011
198,159	0,474	233,479	117,409
199,173	3,373	234,223	120,047
200,188	3,668	234,336	120,325
201,202	3,601	234,186	120,185
202,217	3,578	234,027	120,074
203,232	3,911	233,898	120,259
204,246	3,962	233,625	120,147
205,261	3,801	233,756	120,078
206,275	4,413	233,455	120,390
207,290	4,249	233,451	120,249
208,304	4,341	233,185	120,173
209,319	4,374	232,969	120,077
210,334	4,087	232,739	119,724
211,348	3,773	232,389	119,290
212,363	3,608	232,274	119,092
213,377	3,179	232,048	118,633
214,392	3,371	231,916	118,704
215,407	3,280	231,883	118,606
216,421	3,365	231,733	118,584
217,436	3,176	231,464	118,289
218,450	3,223	231,140	118,150
219,465	3,165	231,050	118,049
220,480	3,077	231,009	117,949
221,494	3,204	230,747	117,903
222,509	3,162	230,796	117,885
223,523	3,377	230,622	117,951
224,538	3,465	230,356	117,873
225,553	3,216	230,259	117,621
226,567	3,222	230,349	117,661
227,582	3,567	230,031	117,752
228,596	3,781	230,084	117,934
229,611	3,436	229,673	117,448
230,626	3,328	229,453	117,243
231,640	3,265	229,332	117,123
232,655	3,526	229,224	117,256
233,669	4,030	229,236	117,637
234,684	3,884	229,192	117,492
235,699	3,732	228,899	117,216
236,713	3,298	228,845	116,846
237,728	3,184	228,523	116,585
238,742	2,935	228,326	116,284
239,757	3,417	228,120	116,535
240,772	3,172	228,050	116,303
241,786	3,149	227,912	116,205
242,801	3,369	227,835	116,323
243,815	3,611	227,883	116,521
244,830	3,795	227,731	116,572
245,844	3,507	227,436	116,192
246,859	3,536	227,111	116,038
247,874	3,705	227,033	116,115
248,888	3,628	227,017	116,039
249,903	3,552	226,870	115,895
250,917	3,255	226,617	115,532
251,932	3,061	226,454	115,292
252,947	3,237	226,221	115,296
253,961	2,993	226,057	115,018
254,976	3,165	225,924	115,070
255,990	3,474	225,862	115,260
257,005	3,509	225,809	115,250
258,020	3,557	225,628	115,182
259,034	3,808	225,506	115,299
260,049	3,773	225,406	115,210
261,063	3,602	225,145	114,939
262,078	3,793	225,044	115,020
263,093	3,652	225,099	114,933
264,107	3,854	224,793	114,917
265,122	3,614	224,632	114,645
266,136	3,905	224,552	114,811
267,151	3,721	224,372	114,572
268,166	3,332	224,114	114,140
269,180	3,179	223,940	113,927
270,195	3,169	223,801	113,839
271,209	3,252	223,683	113,831
272,224	3,315	223,593	113,822
273,239	3,512	223,439	113,879
274,253	3,257	223,126	113,520
275,268	2,899	223,032	113,197
276,282	3,057	222,840	113,207
277,297	3,175	222,630	113,177
278,312	3,286	222,643	113,255
279,326	2,970	222,661	113,021
280,341	3,182	222,440	113,055
281,355	3,430	222,226	113,120
282,370	3,270	222,144	112,950
283,384	3,284	221,863	112,807
284,399	3,308	221,793	112,779
285,414	3,026	221,652	112,490
286,428	3,474	221,548	112,756
287,443	3,340	221,561	112,655
288,457	3,310	221,343	112,512
289,472	3,202	221,133	112,316
290,487	3,060	220,810	112,037
291,501	2,741	220,714	111,745
292,516	2,976	220,615	111,857
293,530	2,966	220,451	111,756
294,545	3,229	220,332	111,879
295,560	3,145	220,255	111,768
296,574	3,647	220,042	112,016
297,589	3,405	220,025	111,821
298,603	3,395	219,855	111,717
299,618	3,346	219,737	111,612
300,633	3,394	219,626	111,580
301,647	3,762	219,419	111,733
302,662	3,656	219,367	111,620
303,676	3,614	219,265	111,527
304,691	3,486	219,091	111,336
305,706	3,598	218,961	111,341
306,720	3,547	218,718	111,171
307,735	3,247	218,615	110,890
308,749	3,247	218,421	110,783
309,764	3,461	218,400	110,917
310,779	3,670	218,219	110,966
311,793	3,377	218,059	110,663
312,808	3,549	217,852	110,673
313,822	3,519	217,807	110,618
314,837	3,407	217,562	110,404
315,852	3,160	217,378	110,123
316,866	3,367	217,323	110,234
317,881	3,403	217,281	110,228
318,895	3,617	217,007	110,233
319,910	3,340	216,914	109,977
320,925	3,278	216,551	109,739
321,939	3,325	216,516	109,745
322,954	3,176	216,583	109,662
323,968	3,345	216,476	109,720
324,983	3,542	216,423	109,824
325,997	3,955	216,062	109,926
327,012	3,419	215,984	109,494
328,027	3,312	215,927	109,378
329,041	3,737	215,710	109,562
330,056	3,687	215,793	109,559
331,070	3,660	215,459	109,361
332,085	3,137	215,143	108,818
333,100	3,066	215,189	108,781
334,114	3,297	215,014	108,847
335,129	3,440	214,860	108,861
336,143	3,282	214,684	108,650
337,158	3,430	214,433	108,619
338,173	3,232	214,520	108,513
339,187	3,184	214,295	108,355
340,202	3,083	214,056	108,153
341,216	3,055	213,911	108,050
342,231	3,173	213,809	108,073
343,246	3,156	213,674	107,983
344,260	3,085	213,681	107,926
345,275	3,282	213,573	108,001
346,289	3,599	213,428	108,141
347,304	3,553	213,374	108,072
348,319	3,417	213,133	107,845
349,333	3,243	212,951	107,621
350,348	3,495	212,891	107,758
351,362	3,455	212,800	107,674
352,377	3,710	212,598	107,741
353,392	3,332	212,484	107,409
354,406	3,509	212,380	107,470
355,421	195,586	1341,642	1421,949
356,435	156,261	1479,223	1421,953
