DTS Sentinel unit serial number:	SN410029Multiplexer serial number:	ORYXHardware model number:	OX2-SRSoftware version number:	ORYX F/W v4,00 Oryx Data Collector v3.7.2.0data status	okinstallation	B6 Nyhavnadifferential loss correction	single-endedforward channel	channel 2reverse channel	N/Adate	2023/12/10time	00:35:08forward acquisition time	300,00reverse acquisition time	0,00gamma	499,1914k internal	0,3126k external	0,3126temperature offset calibration	1,0000default loss term (dB/km)	0,3820temperature slope calibration	1,0000multiplexer offset coefficient	1,0000multiplexer slope coefficient	1,0000fibre end	0,00T internal ref (°C)	21,83T ext. ref 1 (°C)	5,70T ext. ref 2 (°C)	5,70length (m)	temperature (°C)	Stokes	anti-Stokes-744,400	769,782	0,018	-0,036
-743,385	-40,922	-0,231	0,089
-742,371	800,000	0,002	-0,004
-741,356	30,663	-0,176	0,112
-740,342	-84,372	0,116	-0,027
-739,327	-66,771	-0,224	0,066
-738,312	306,421	-0,038	-0,053
-737,298	-64,697	-0,238	0,071
-736,283	-49,450	0,176	0,062
-735,269	-71,936	-0,154	0,042
-734,254	-150,972	0,053	-0,003
-733,239	-76,032	-0,337	-0,088
-732,225	-112,898	0,167	-0,024
-731,210	-200,000	0,029	0,162
-730,196	800,000	-0,037	0,080
-729,181	93,286	0,105	-0,088
-728,167	-200,000	-0,016	-0,149
-727,152	800,000	-0,042	0,123
-726,137	14,228	0,139	0,081
-725,123	-103,466	-0,033	0,006
-724,108	134,631	0,020	-0,020
-723,094	-151,383	-0,098	-0,005
-722,079	-111,420	-0,094	-0,014
-721,064	800,000	-0,014	0,041
-720,050	435,230	0,059	-0,095
-719,035	229,741	-0,087	-0,106
-718,021	-75,837	-0,077	-0,020
-717,006	178,010	-0,079	0,085
-715,991	-145,284	-0,060	-0,004
-714,977	22,430	-0,068	0,041
-713,962	-95,516	-0,042	0,008
-712,948	-72,344	0,051	0,014
-711,933	-50,659	-0,071	0,025
-710,918	-39,594	0,076	0,029
-709,904	-200,000	0,056	-0,208
-708,889	43,950	0,052	-0,035
-707,875	-200,000	-0,031	-0,108
-706,860	11,579	0,055	-0,031
-705,845	-106,240	-0,028	-0,005
-704,831	-200,000	-0,006	0,112
-703,816	800,000	0,024	0,061
-702,802	800,000	0,021	0,051
-701,787	-110,932	-0,175	0,026
-700,772	93,164	0,065	0,054
-699,758	53,979	-0,142	-0,101
-698,743	-63,196	-0,030	0,009
-697,729	-200,000	-0,006	-0,106
-696,714	427,190	0,050	0,081
-695,699	-181,862	0,086	0,001
-694,685	-31,206	-0,118	-0,049
-693,670	45,896	0,049	-0,034
-692,656	-200,000	0,008	0,144
-691,641	778,444	-0,018	0,037
-690,627	-200,000	0,007	-0,036
-689,612	800,000	-0,012	0,038
-688,597	800,000	-0,023	-0,074
-687,583	317,414	-0,099	-0,139
-686,568	81,138	-0,089	0,071
-685,554	500,851	-0,023	0,039
-684,539	167,892	-0,043	0,045
-683,524	-200,000	-0,012	0,058
-682,510	800,000	-0,037	0,084
-681,495	-65,640	-0,112	0,033
-680,481	-200,000	0,013	-0,052
-679,466	-200,000	0,002	-0,048
-678,451	63,214	-0,025	-0,018
-677,437	-200,000	0,019	0,069
-676,422	252,280	-0,032	-0,041
-675,408	800,000	-0,008	0,016
-674,393	-135,723	-0,125	-0,011
-673,378	81,529	-0,146	-0,117
-672,364	135,998	-0,078	0,075
-671,349	800,000	-0,010	0,020
-670,335	342,156	-0,025	0,036
-669,320	-200,000	-0,002	-0,049
-668,305	-99,992	-0,109	0,020
-667,291	-29,366	-0,105	-0,044
-666,276	-200,000	0,028	-0,156
-665,262	-57,045	-0,075	0,024
-664,247	800,000	0,018	0,038
-663,232	-70,982	-0,021	-0,006
-662,218	-200,000	0,006	0,087
-661,203	209,199	0,062	0,072
-660,189	-103,235	-0,052	-0,009
-659,174	271,677	-0,018	-0,024
-658,159	800,000	-0,014	0,033
-657,145	-89,440	-0,096	-0,021
-656,130	93,718	0,065	-0,055
-655,116	228,818	0,022	0,027
-654,101	110,084	-0,140	0,125
-653,086	-200,000	0,011	0,039
-652,072	-76,046	-0,235	0,061
-651,057	130,396	-0,105	-0,100
-650,043	120,610	0,106	0,098
-649,028	267,660	0,022	-0,029
-648,014	-28,372	0,119	0,051
-646,999	-187,458	-0,100	-0,001
-645,984	239,508	0,035	0,043
-644,970	10,041	-0,082	-0,046
-643,955	392,493	-0,004	0,005
-642,941	-121,882	0,065	0,008
-641,926	263,974	0,064	0,083
-640,911	800,000	0,036	-0,111
-639,897	-200,000	0,011	0,060
-638,882	-200,000	-0,000	0,037
-637,868	-114,916	-0,108	-0,015
-636,853	301,556	0,030	-0,042
-635,838	800,000	-0,039	-0,105
-634,824	-200,000	-0,029	-0,179
-633,809	800,000	0,056	-0,134
-632,795	56,993	-0,067	0,048
-631,780	-200,000	0,026	-0,087
-630,765	-116,549	-0,029	0,004
-629,751	-91,515	0,072	0,015
-628,736	55,635	-0,157	-0,112
-627,722	125,348	-0,143	-0,133
-626,707	-200,000	-0,020	-0,100
-625,692	-8,413	-0,023	0,011
-624,678	-200,000	0,004	0,074
-623,663	-200,000	0,005	-0,050
-622,649	-200,000	0,015	0,127
-621,634	-200,000	0,028	-0,112
-620,619	-200,000	0,020	-0,172
-619,605	-200,000	-0,010	-0,120
-618,590	800,000	0,032	0,067
-617,576	-200,000	0,003	0,041
-616,561	155,600	0,115	-0,117
-615,546	-200,000	0,001	-0,038
-614,532	76,655	-0,053	-0,042
-613,517	243,444	0,090	0,112
-612,503	118,115	0,075	-0,069
-611,488	-79,367	0,210	-0,052
-610,474	-142,865	0,126	-0,009
-609,459	175,958	0,044	-0,047
-608,444	-61,002	-0,067	-0,021
-607,430	800,000	-0,009	-0,026
-606,415	350,053	0,019	0,028
-605,401	56,024	-0,132	0,095
-604,386	-87,275	-0,029	-0,006
-603,371	-114,401	-0,072	0,010
-602,357	13,374	0,027	-0,016
-601,342	640,288	-0,052	-0,098
-600,328	180,269	0,056	-0,061
-599,313	29,835	0,071	-0,045
-598,298	103,000	-0,073	-0,063
-597,284	775,676	0,059	0,120
-596,269	-156,971	-0,100	0,004
-595,255	-200,000	-0,004	0,070
-594,240	-152,755	-0,058	0,003
-593,225	102,719	0,077	-0,066
-592,211	18,248	0,070	-0,041
-591,196	58,285	-0,088	0,063
-590,182	383,976	-0,017	-0,026
-589,167	-29,109	-0,103	0,043
-588,152	71,146	0,046	0,036
-587,138	800,000	0,077	0,192
-586,123	92,029	-0,082	-0,068
-585,109	-26,450	-0,145	-0,063
-584,094	493,579	-0,030	-0,051
-583,079	186,760	0,073	0,081
-582,065	-200,000	0,009	0,168
-581,050	82,214	0,008	-0,006
-580,036	13,408	0,093	-0,053
-579,021	2,311	0,042	0,022
-578,006	800,000	0,027	0,062
-576,992	193,707	-0,079	0,089
-575,977	800,000	-0,023	0,052
-574,963	-3,375	-0,016	-0,008
-573,948	-9,788	0,061	-0,030
-572,934	107,167	-0,049	-0,043
-571,919	-106,290	-0,084	-0,014
-570,904	111,918	-0,109	-0,097
-569,890	379,405	0,035	0,053
-568,875	-42,892	0,030	-0,011
-567,861	-115,701	0,073	0,010
-566,846	17,360	-0,078	0,046
-565,831	254,982	-0,095	0,120
-564,817	555,164	0,074	-0,132
-563,802	-200,000	0,012	-0,097
-562,788	-200,000	0,030	-0,102
-561,773	800,000	0,047	0,126
-560,758	48,108	0,092	-0,064
-559,744	-20,223	-0,020	-0,009
-558,729	-200,000	-0,023	0,127
-557,715	-56,321	-0,056	-0,018
-556,700	-179,730	-0,095	0,001
-555,685	-126,073	0,043	-0,005
-554,671	784,671	-0,080	-0,164
-553,656	54,061	0,088	-0,062
-552,642	418,372	-0,039	-0,062
-551,627	193,241	-0,084	0,094
-550,612	800,000	0,005	0,015
-549,598	800,000	-0,058	-0,154
-548,583	101,020	-0,068	0,058
-547,569	-200,000	-0,012	0,151
-546,554	-47,881	-0,023	-0,008
-545,539	104,927	0,094	0,082
-544,525	-170,843	0,025	0,001
-543,510	355,506	-0,046	-0,068
-542,496	512,330	0,058	-0,100
-541,481	193,511	0,023	0,026
-540,466	-200,000	-0,011	0,086
-539,452	752,694	0,045	0,091
-538,437	800,000	-0,038	0,098
-537,423	134,473	-0,121	0,116
-536,408	-200,000	-0,015	-0,080
-535,393	695,155	-0,033	-0,065
-534,379	273,718	-0,108	-0,142
-533,364	-200,000	0,002	-0,010
-532,350	503,206	0,045	-0,077
-531,335	-35,233	0,083	0,033
-530,321	517,259	-0,043	-0,075
-529,306	-82,913	0,023	-0,005
-528,291	82,797	0,111	-0,089
-527,277	142,138	-0,090	-0,088
-526,262	-14,222	-0,084	-0,040
-525,248	-12,679	0,046	0,022
-524,233	-46,449	0,062	0,022
-523,218	52,498	-0,051	0,036
-522,204	157,454	-0,127	-0,130
-521,189	157,054	0,088	-0,090
-520,175	-35,087	0,044	0,018
-519,160	341,301	0,026	-0,037
-518,145	-53,868	0,112	-0,037
-517,131	800,000	-0,055	-0,118
-516,116	-200,000	-0,018	0,111
-515,102	409,034	0,028	0,043
-514,087	-109,662	-0,200	0,031
-513,072	-200,000	-0,021	0,088
-512,058	800,000	-0,015	-0,042
-511,043	0,140	0,103	-0,054
-510,029	78,464	0,048	-0,038
-509,014	446,118	0,039	0,063
-507,999	800,000	0,016	0,037
-506,985	-55,671	-0,122	-0,040
-505,970	-49,724	0,181	-0,063
-504,956	239,031	-0,063	-0,078
-503,941	-200,000	0,017	-0,062
-502,926	260,082	0,069	0,088
-501,912	-200,000	-0,027	-0,105
-500,897	117,202	0,078	-0,071
-499,883	-1,732	-0,097	0,050
-498,868	403,724	0,022	0,035
-497,853	-40,955	-0,029	-0,011
-496,839	800,000	0,026	-0,064
-495,824	175,517	0,045	-0,048
-494,810	-147,226	-0,082	0,005
-493,795	221,709	-0,045	0,053
-492,781	-167,834	0,049	-0,001
-491,766	-130,186	-0,067	-0,007
-490,751	-200,000	-0,015	-0,176
-489,737	-124,311	-0,073	-0,008
-488,722	-82,198	-0,134	0,032
-487,708	-5,944	-0,142	-0,071
-486,693	19,594	-0,050	0,030
-485,678	-200,000	0,008	0,104
-484,664	-200,000	0,040	-0,154
-483,649	23,755	-0,143	-0,087
-482,635	-85,956	0,077	0,017
-481,620	-200,000	0,005	-0,071
-480,605	-115,562	-0,178	0,024
-479,591	243,239	-0,060	-0,075
-478,576	224,005	-0,096	0,114
-477,562	-62,885	-0,048	-0,015
-476,547	389,046	-0,040	-0,062
-475,532	101,158	-0,063	0,054
-474,518	16,276	0,031	-0,018
-473,503	35,192	-0,053	0,034
-472,489	800,000	0,043	0,102
-471,474	-200,000	-0,001	-0,018
-470,459	-119,730	0,131	-0,017
-469,445	-128,938	0,208	-0,021
-468,430	676,218	-0,023	0,043
-467,416	800,000	0,034	0,086
-466,401	-54,971	0,114	0,038
-465,386	418,496	0,031	0,048
-464,372	-143,872	-0,128	-0,009
-463,357	-179,192	-0,063	-0,001
-462,343	-200,000	0,005	0,053
-461,328	-200,000	0,018	-0,194
-460,313	175,788	0,083	-0,089
-459,299	-200,000	-0,014	0,157
-458,284	-200,000	0,002	0,068
-457,270	-200,000	-0,008	0,100
-456,255	112,902	-0,038	0,034
-455,241	-200,000	0,001	0,072
-454,226	85,661	-0,081	-0,065
-453,211	29,702	0,081	-0,050
-452,197	-50,678	0,033	-0,011
-451,182	189,027	0,019	0,021
-450,168	-200,000	0,022	0,146
-449,153	212,469	-0,052	-0,061
-448,138	-200,000	0,005	-0,044
-447,124	85,406	-0,108	-0,087
-446,109	324,841	-0,087	0,123
-445,095	753,726	0,072	0,143
-444,080	-118,164	-0,127	-0,016
-443,065	-54,574	0,086	0,028
-442,051	210,107	-0,054	-0,063
-441,036	54,358	0,065	-0,046
-440,022	12,162	0,130	0,074
-439,007	-84,360	-0,139	-0,032
-437,992	-92,171	0,016	-0,003
-436,978	-200,000	-0,016	0,099
-435,963	381,614	0,030	-0,045
-434,949	-21,746	0,083	0,037
-433,934	8,210	-0,086	0,048
-432,919	14,272	-0,066	-0,038
-431,905	184,958	-0,064	-0,069
-430,890	73,264	-0,019	-0,015
-429,876	46,407	-0,025	-0,017
-428,861	-182,516	0,112	0,001
-427,846	-87,451	0,095	0,021
-426,832	-166,454	-0,024	0,001
-425,817	155,187	-0,038	-0,039
-424,803	800,000	-0,038	-0,114
-423,788	-200,000	-0,016	-0,074
-422,773	-107,423	0,068	0,011
-421,759	182,845	-0,075	0,082
-420,744	-200,000	0,008	-0,061
-419,730	-200,000	0,002	0,012
-418,715	-64,758	0,027	-0,008
-417,701	424,453	-0,009	-0,015
-416,686	-200,000	0,049	0,169
-415,671	-200,000	0,033	0,107
-414,657	201,339	0,076	0,086
-413,642	-86,582	-0,109	-0,024
-412,628	-200,000	-0,006	-0,031
-411,613	800,000	-0,077	-0,215
-410,598	-200,000	0,001	-0,018
-409,584	367,670	-0,018	0,027
-408,569	800,000	0,080	0,198
-407,555	577,463	0,072	0,130
-406,540	-200,000	0,008	0,070
-405,525	-200,000	0,001	-0,025
-404,511	800,000	0,027	-0,064
-403,496	-6,886	-0,107	-0,053
-402,482	6,954	0,138	-0,075
-401,467	-137,711	-0,039	0,003
-400,452	800,000	0,029	0,091
-399,438	-200,000	-0,018	-0,087
-398,423	346,965	-0,050	-0,072
-397,409	65,215	-0,042	-0,032
-396,394	-28,350	-0,083	0,035
-395,379	800,000	0,057	-0,125
-394,365	-63,941	-0,091	-0,027
-393,350	46,136	0,144	0,098
-392,336	-200,000	0,023	0,119
-391,321	-200,000	-0,019	0,070
-390,306	-200,000	0,002	-0,075
-389,292	800,000	-0,044	0,119
-388,277	-162,045	0,111	-0,004
-387,263	-200,000	0,006	0,150
-386,248	800,000	-0,012	0,025
-385,233	-0,000	-0,102	0,053
-384,219	-78,254	-0,080	0,020
-383,204	58,258	-0,094	-0,068
-382,190	24,456	-0,087	-0,053
-381,175	800,000	0,028	-0,057
-380,160	800,000	0,104	0,226
-379,146	156,914	0,046	0,047
-378,131	-164,287	0,045	0,001
-377,117	800,000	0,030	-0,067
-376,102	77,456	0,041	-0,032
-375,088	-200,000	0,009	0,065
-374,073	83,185	0,076	-0,060
-373,058	-24,602	-0,059	0,026
-372,044	-109,931	0,115	0,017
-371,029	800,000	-0,025	-0,070
-370,015	-103,533	0,056	-0,010
-369,000	-200,000	0,004	-0,157
-367,985	-40,107	-0,070	0,027
-366,971	-200,000	-0,019	-0,086
-365,956	86,976	0,088	0,072
-364,942	800,000	-0,030	0,067
-363,927	-200,000	-0,003	0,068
-362,912	55,194	-0,030	0,021
-361,898	800,000	0,010	0,029
-360,883	350,507	-0,025	-0,036
-359,869	-79,015	-0,015	-0,004
-358,854	-128,606	-0,098	-0,010
-357,839	142,382	0,162	0,158
-356,825	-200,000	0,007	0,084
-355,810	23,562	0,066	0,040
-354,796	490,715	-0,030	-0,051
-353,781	-153,385	-0,180	0,009
-352,766	-34,371	-0,062	-0,025
-351,752	-59,974	0,109	-0,034
-350,737	72,668	0,065	0,050
-349,723	-200,000	0,003	0,050
-348,708	-200,000	0,026	0,106
-347,693	-151,832	-0,064	-0,003
-346,679	1,390	-0,088	0,046
-345,664	-200,000	-0,035	0,117
-344,650	-200,000	0,006	-0,043
-343,635	484,252	-0,042	-0,071
-342,620	92,773	0,063	-0,052
-341,606	-147,500	0,109	0,007
-340,591	-200,000	0,017	0,068
-339,577	-200,000	0,004	0,067
-338,562	800,000	0,034	-0,076
-337,548	-200,000	-0,009	-0,032
-336,533	-41,463	0,153	-0,057
-335,518	555,796	0,040	0,071
-334,504	156,491	0,065	0,066
-333,489	-159,538	-0,034	0,001
-332,475	269,993	-0,074	-0,096
-331,460	254,049	-0,062	0,077
-330,445	257,902	-0,186	0,235
-329,431	220,098	0,028	-0,033
-328,416	-13,994	0,106	0,050
-327,402	800,000	0,022	-0,048
-326,387	-200,000	0,030	0,127
-325,372	104,646	-0,077	0,067
-324,358	-200,000	0,012	-0,097
-323,343	371,277	-0,040	0,060
-322,329	-143,084	0,133	-0,009
-321,314	50,979	0,113	0,078
-320,299	800,000	0,064	0,146
-319,285	-200,000	-0,012	0,079
-318,270	32,578	-0,044	-0,028
-317,256	-200,000	0,012	-0,086
-316,241	-200,000	0,019	0,074
-315,226	214,131	0,054	-0,063
-314,212	63,541	0,163	-0,120
-313,197	-126,071	0,090	-0,010
-312,183	-200,000	-0,025	-0,116
-311,168	800,000	0,057	-0,142
-310,153	-6,037	0,065	0,032
-309,139	800,000	-0,011	-0,036
-308,124	14,343	0,098	0,056
-307,110	-200,000	0,042	0,150
-306,095	800,000	-0,051	0,112
-305,080	23,654	0,113	0,068
-304,066	-54,162	-0,188	0,062
-303,051	-200,000	0,009	-0,037
-302,037	-200,000	0,020	-0,132
-301,022	-200,000	0,004	-0,024
-300,008	-99,498	0,271	0,049
-298,993	-200,000	0,005	-0,060
-297,978	-200,000	0,039	0,178
-296,964	30,876	0,072	0,045
-295,949	-200,000	-0,015	0,164
-294,935	800,000	-0,036	-0,105
-293,920	513,768	-0,054	-0,093
-292,905	-200,000	-0,015	-0,086
-291,891	362,009	0,014	0,021
-290,876	-97,390	-0,058	0,011
-289,862	78,122	-0,051	0,040
-288,847	760,757	-0,060	0,119
-287,832	-200,000	0,003	-0,082
-286,818	499,936	0,070	0,118
-285,803	-70,907	0,143	-0,039
-284,789	-52,479	-0,089	-0,030
-283,774	-94,814	-0,103	0,020
-282,759	45,297	-0,045	-0,030
-281,745	637,552	-0,073	-0,136
-280,730	800,000	-0,023	-0,058
-279,716	-150,517	0,043	0,002
-278,701	-107,178	0,104	0,017
-277,686	-80,273	0,241	0,058
-276,672	-79,380	0,083	0,020
-275,657	0,226	-0,088	0,046
-274,643	-102,563	-0,143	-0,025
-273,628	800,000	-0,016	0,042
-272,613	107,745	0,091	0,080
-271,599	501,894	-0,034	0,058
-270,584	-200,000	-0,027	0,122
-269,570	-200,000	0,005	-0,064
-268,555	427,080	-0,034	0,053
-267,540	36,102	-0,094	-0,060
-266,526	152,058	-0,004	0,004
-265,511	-200,000	-0,005	0,042
-264,497	438,801	-0,046	0,074
-263,482	-64,133	0,080	0,024
-262,467	-200,000	-0,006	-0,049
-261,453	-122,756	0,040	0,005
-260,438	79,926	-0,019	-0,015
-259,424	272,478	0,093	-0,120
-258,409	26,985	-0,033	-0,020
-257,395	-68,735	-0,040	-0,011
-256,380	-7,576	0,071	0,035
-255,365	-200,000	0,022	0,145
-254,351	-67,879	-0,060	0,017
-253,336	-190,070	0,177	0,001
-252,322	800,000	-0,064	-0,139
-251,307	-200,000	-0,018	0,079
-250,292	42,897	0,063	0,042
-249,278	207,105	0,030	0,034
-248,263	800,000	0,098	0,255
-247,249	174,984	-0,087	0,093
-246,234	202,167	0,027	-0,030
-245,219	343,205	-0,085	-0,122
-244,205	222,172	0,131	-0,154
-243,190	418,676	0,024	-0,037
-242,176	263,186	0,053	0,067
-241,161	363,328	-0,051	0,075
-240,146	-122,732	0,083	0,010
-239,132	-36,387	0,023	-0,009
-238,117	659,502	-0,033	0,063
-237,103	75,111	0,071	-0,055
-236,088	-142,332	0,101	0,007
-235,073	-38,736	-0,048	-0,018
-234,059	-57,838	0,027	0,009
-233,044	-200,000	0,023	-0,142
-232,030	-200,000	-0,003	0,044
-231,015	-80,436	0,031	-0,007
-230,000	-95,089	-0,046	-0,009
-228,986	800,000	-0,048	-0,121
-227,971	-61,841	-0,035	0,011
-226,957	128,829	0,071	-0,066
-225,942	-18,595	-0,029	0,013
-224,927	800,000	0,015	-0,045
-223,913	-2,457	-0,105	0,053
-222,898	163,280	-0,136	-0,140
-221,884	3,994	0,065	-0,035
-220,869	-52,390	-0,022	0,007
-219,855	43,611	-0,123	-0,082
-218,840	130,289	0,141	0,132
-217,825	-105,022	-0,081	-0,013
-216,811	-110,344	0,108	0,016
-215,796	148,010	-0,079	-0,078
-214,782	64,414	0,041	-0,030
-213,767	-200,000	0,033	-0,107
-212,752	439,029	0,042	0,068
-211,738	384,592	0,006	-0,010
-210,723	-26,613	0,065	-0,027
-209,709	-200,000	-0,007	-0,072
-208,694	-16,921	-0,112	0,052
-207,679	-29,364	-0,104	0,043
-206,665	-16,465	0,077	-0,036
-205,650	-76,804	-0,095	-0,024
-204,636	800,000	0,082	0,169
-203,621	-39,462	0,066	0,025
-202,606	-11,268	-0,087	0,042
-201,592	-188,222	-0,112	-0,001
-200,577	-200,000	0,009	-0,038
-199,563	800,000	0,037	-0,105
-198,548	206,979	0,103	0,117
-197,533	201,749	-0,052	-0,059
-196,519	281,024	0,022	-0,029
-195,504	-200,000	0,002	-0,019
-194,490	119,792	-0,082	0,074
-193,475	-200,000	0,015	0,069
-192,460	139,822	-0,029	-0,028
-191,446	-2,637	0,078	0,040
-190,431	90,037	-0,054	0,044
-189,417	266,802	0,032	-0,040
-188,402	-200,000	0,000	0,068
-187,387	24,582	-0,146	0,088
-186,373	-200,000	0,007	0,040
-185,358	425,307	-0,101	-0,159
-184,344	800,000	0,026	-0,068
-183,329	-200,000	0,001	0,094
-182,315	617,068	-0,038	-0,070
-181,300	-23,228	-0,088	-0,039
-180,285	-200,000	-0,043	-0,149
-179,271	800,000	0,034	-0,095
-178,256	-59,928	0,064	0,020
-177,242	95,726	0,133	0,111
-176,227	-17,917	-0,059	-0,027
-175,212	-1,630	-0,066	-0,034
-174,198	-41,771	-0,079	-0,029
-173,183	-63,876	-0,113	0,033
-172,169	-200,000	0,001	-0,060
-171,154	51,648	0,027	-0,019
-170,139	682,729	0,114	0,217
-169,125	800,000	0,034	-0,079
-168,110	-24,669	0,039	-0,017
-167,096	800,000	-0,012	-0,026
-166,081	419,072	-0,031	0,049
-165,066	220,268	0,036	-0,042
-164,052	219,161	-0,090	0,105
-163,037	141,949	-0,121	-0,116
-162,023	264,309	0,052	-0,066
-161,008	-200,000	0,020	0,098
-159,993	213,873	0,043	-0,049
-158,979	-86,675	0,114	0,025
-157,964	342,503	-0,055	0,078
-156,950	-32,150	-0,069	0,028
-155,935	-200,000	-0,019	-0,151
-154,920	72,939	0,071	0,054
-153,906	-200,000	0,004	0,022
-152,891	-200,000	0,002	0,008
-151,877	-123,686	0,046	-0,005
-150,862	-200,000	0,002	-0,029
-149,847	419,238	-0,032	-0,051
-148,833	-179,195	0,059	0,001
-147,818	-19,374	-0,095	-0,043
-146,804	-145,427	0,179	0,012
-145,789	119,426	-0,069	0,062
-144,775	50,298	0,107	-0,074
-143,760	16,466	-0,027	0,015
-142,745	-200,000	-0,025	-0,189
-141,731	-173,620	0,076	-0,002
-140,716	800,000	0,042	0,121
-139,702	800,000	-0,053	0,143
-138,687	800,000	-0,012	0,038
-137,672	-165,203	-0,120	0,004
-136,658	-200,000	0,011	0,106
-135,643	140,124	-0,177	-0,170
-134,629	-200,000	-0,007	-0,054
-133,614	-50,494	0,049	0,017
-132,599	764,173	-0,042	-0,083
-131,585	453,725	-0,058	0,094
-130,570	-125,075	-0,110	0,012
-129,556	-200,000	-0,017	0,144
-128,541	-200,000	-0,007	0,039
-127,526	800,000	-0,054	0,145
-126,512	-51,303	0,064	-0,022
-125,497	0,233	0,155	0,080
-124,483	-200,000	0,014	-0,044
-123,468	-200,000	0,002	-0,043
-122,453	158,707	-0,106	0,107
-121,439	57,695	-0,010	-0,007
-120,424	178,487	0,071	-0,075
-119,410	-129,681	-0,133	0,013
-118,395	45,275	0,156	0,104
-117,380	278,934	0,030	-0,039
-116,366	124,276	-0,096	0,088
-115,351	-200,000	-0,039	0,198
-114,337	-33,961	-0,009	-0,003
-113,322	156,961	0,055	-0,055
-112,307	29,360	-0,066	0,041
-111,293	-42,913	0,054	-0,020
-110,278	-200,000	-0,014	-0,106
-109,264	402,847	-0,113	0,173
-108,249	185,135	-0,075	0,081
-107,234	-88,481	-0,082	-0,018
-106,220	273,287	-0,063	-0,081
-105,205	308,696	0,124	-0,168
-104,191	157,068	0,067	-0,067
-103,176	29,920	0,090	-0,056
-102,162	122,540	0,101	-0,092
-101,147	-27,813	0,036	0,015
-100,132	8,191	-0,083	0,045
-99,118	105,126	-0,065	-0,056
-98,103	-105,977	0,087	0,014
-97,089	-82,955	-0,088	0,020
-96,074	1,548	0,061	-0,032
-95,059	-48,190	-0,084	-0,029
-94,045	-127,471	0,088	-0,009
-93,030	326,590	0,035	0,049
-92,016	196,246	0,050	0,055
-91,001	76,280	0,083	0,064
-89,986	-96,459	0,098	0,019
-88,972	800,000	-0,051	0,156
-87,957	97,005	-0,063	0,052
-86,943	800,000	0,080	-0,201
-85,928	615,229	-0,046	-0,083
-84,913	-200,000	0,017	-0,056
-83,899	-60,260	0,039	0,012
-82,884	172,622	0,079	-0,083
-81,870	-162,605	0,107	0,004
-80,855	-1,301	-0,098	0,050
-79,840	-27,559	-0,130	-0,054
-78,826	-200,000	-0,007	-0,044
-77,811	800,000	0,063	-0,159
-76,797	800,000	0,031	-0,069
-75,782	-21,230	0,051	0,022
-74,767	157,680	0,031	0,031
-73,753	-200,000	0,038	0,137
-72,738	166,066	-0,040	0,042
-71,724	800,000	-0,006	-0,015
-70,709	800,000	-0,034	-0,105
-69,694	7,377	0,100	-0,054
-68,680	800,000	0,022	0,045
-67,665	6,574	-0,051	0,027
-66,651	-200,000	-0,017	0,076
-65,636	190,304	-0,043	0,047
-64,622	-135,935	-0,056	0,005
-63,607	58,318	0,152	-0,108
-62,592	-200,000	0,026	0,097
-61,578	-142,088	-0,070	-0,005
-60,563	-154,681	0,023	0,001
-59,549	455,756	-0,064	0,103
-58,534	-103,169	-1,400	-0,238
-57,519	655,349	-0,763	-1,427
-56,505	-200,000	-1,006	-4,535
-55,490	-28,676	0,584	-0,242
-54,476	800,000	4,964	11,789
-53,461	-200,000	13,951	252,827
-52,446	-200,000	694,177	2236,855
-51,432	572,136	1624,616	2880,413
-50,417	117,321	1632,649	1454,921
-49,403	72,499	1286,369	971,175
-48,388	37,463	1023,078	656,258
-47,373	23,875	981,159	584,736
-46,359	23,073	970,807	575,916
-45,344	22,048	966,568	570,032
-44,330	22,055	964,966	569,089
-43,315	21,891	963,466	567,647
-42,300	21,912	962,498	567,125
-41,286	21,895	961,594	566,514
-40,271	21,905	960,516	565,887
-39,257	21,863	959,761	565,283
-38,242	21,813	958,839	564,558
-37,227	21,835	957,882	564,042
-36,213	21,847	956,927	563,495
-35,198	21,764	956,228	562,793
-34,184	21,839	955,482	562,576
-33,169	21,834	954,556	561,992
-32,154	21,953	953,589	561,783
-31,140	21,860	952,729	560,954
-30,125	21,896	952,200	560,738
-29,111	21,881	951,272	560,120
-28,096	21,900	950,491	559,699
-27,082	21,896	949,920	559,329
-26,067	21,916	949,146	558,914
-25,052	21,872	948,377	558,297
-24,038	21,880	947,764	557,941
-23,023	21,888	947,044	557,520
-22,009	21,879	946,425	557,106
-20,994	21,941	945,693	556,851
-19,979	21,942	945,065	556,461
-18,965	21,835	944,636	555,844
-17,950	21,893	943,990	555,628
-16,936	21,838	943,244	554,993
-15,921	21,838	942,608	554,594
-14,906	21,798	941,704	553,913
-13,892	21,679	941,280	553,264
-12,877	21,759	940,509	553,045
-11,863	21,746	939,970	552,662
-10,848	21,777	939,397	552,404
-9,833	21,856	939,036	552,418
-8,819	21,782	938,434	551,810
-7,804	21,718	937,730	551,171
-6,790	21,732	937,020	550,777
-5,775	21,776	936,363	550,506
-4,760	21,737	935,796	550,027
-3,746	21,786	935,086	549,743
-2,731	21,598	934,552	548,815
-1,717	21,543	933,993	548,291
-0,702	21,577	933,178	547,899
0,313	21,428	932,417	547,811
1,327	24,557	930,568	556,498
2,342	34,229	794,373	500,745
3,356	32,136	449,838	280,397
4,371	1,201	292,645	151,686
5,386	-3,593	273,574	137,274
6,400	-4,574	267,895	133,506
7,415	-5,017	265,638	131,964
8,429	-4,970	264,463	131,411
9,444	-4,994	263,598	130,948
10,459	-4,779	262,784	130,727
11,473	-4,990	262,232	130,249
12,488	-4,940	261,795	130,066
13,502	-5,181	261,503	129,692
14,517	-5,187	260,984	129,418
15,531	-4,966	260,423	129,326
16,546	-5,071	260,102	129,061
17,561	-5,012	259,802	128,954
18,575	-4,801	259,579	129,020
19,590	-5,009	259,262	128,665
20,604	-4,952	258,891	128,520
21,619	-5,088	258,679	128,283
22,634	-4,940	258,162	128,146
23,648	-4,863	257,762	128,005
24,663	-5,222	257,655	127,622
25,677	-4,914	257,343	127,729
26,692	-5,020	257,085	127,495
27,707	-5,012	256,953	127,425
28,721	-4,998	256,518	127,211
29,736	-5,043	256,277	127,041
30,750	-5,010	256,074	126,957
31,765	-4,963	255,900	126,901
32,780	-4,918	255,600	126,781
33,794	-4,991	255,344	126,579
34,809	-5,053	255,092	126,388
35,823	-5,076	254,927	126,274
36,838	-5,175	254,650	126,040
37,853	-5,193	254,532	125,954
38,867	-5,248	254,277	125,769
39,882	-5,107	254,034	125,760
40,896	-5,083	253,751	125,630
41,911	-5,182	253,561	125,438
42,926	-5,257	253,338	125,252
43,940	-5,221	253,116	125,162
44,955	-5,198	252,850	125,039
45,969	-5,329	252,737	124,859
46,984	-5,273	252,481	124,769
47,999	-5,570	252,216	124,370
49,013	-5,684	251,966	124,137
50,028	-5,839	251,732	123,876
51,042	-5,760	251,443	123,791
52,057	-5,956	251,272	123,527
53,071	-5,862	251,033	123,480
54,086	-5,675	250,888	123,559
55,101	-5,499	250,687	123,600
56,115	-5,278	250,541	123,707
57,130	-5,023	250,435	123,863
58,144	-4,956	250,391	123,888
59,159	-4,928	250,074	123,744
60,174	-5,098	249,917	123,510
61,188	-5,122	249,687	123,364
62,203	-4,856	249,389	123,434
63,217	-4,995	249,318	123,268
64,232	-4,944	249,005	123,146
65,247	-5,016	248,790	122,968
66,261	-5,099	248,575	122,780
67,276	-5,240	248,315	122,520
68,290	-5,468	248,229	122,272
69,305	-5,493	247,917	122,087
70,320	-5,301	247,529	122,047
71,334	-5,249	247,708	122,169
72,349	-5,051	247,439	122,193
73,363	-5,099	247,274	122,061
74,378	-4,844	246,924	122,092
75,393	-5,003	246,786	121,879
76,407	-5,322	246,649	121,531
77,422	-5,084	246,372	121,585
78,436	-4,969	246,158	121,565
79,451	-4,943	245,936	121,467
80,466	-5,189	245,678	121,121
81,480	-5,180	245,440	121,001
82,495	-5,377	245,387	120,798
83,509	-5,102	245,146	120,900
84,524	-5,294	245,044	120,677
85,539	-5,282	244,601	120,459
86,553	-5,305	244,537	120,397
87,568	-5,076	244,296	120,460
88,582	-5,353	244,234	120,186
89,597	-5,451	244,131	120,042
90,611	-5,176	243,970	120,183
91,626	-5,197	243,754	120,048
92,641	-5,090	243,570	120,036
93,655	-5,054	243,241	119,893
94,670	-5,119	243,114	119,766
95,684	-5,245	242,889	119,539
96,699	-5,137	242,792	119,571
97,714	-5,217	242,593	119,396
98,728	-5,141	242,308	119,308
99,743	-5,164	242,124	119,188
100,757	-5,430	242,018	118,905
101,772	-5,573	241,856	118,696
102,787	-5,292	241,517	118,751
103,801	-5,098	241,527	118,905
104,816	-5,096	241,308	118,789
105,830	-5,048	241,229	118,779
106,845	-5,010	240,972	118,673
107,860	-4,985	240,844	118,620
108,874	-5,083	240,659	118,438
109,889	-5,098	240,347	118,261
110,903	-5,173	240,121	118,078
111,918	-5,214	239,948	117,949
112,933	-5,256	239,933	117,896
113,947	-5,031	239,759	117,985
114,962	-5,060	239,509	117,828
115,976	-5,215	239,315	117,595
116,991	-5,095	239,262	117,657
118,006	-5,032	238,980	117,559
119,020	-5,052	238,911	117,498
120,035	-5,157	238,909	117,401
121,049	-5,140	238,710	117,307
122,064	-4,860	238,345	117,344
123,079	-5,102	238,195	117,064
124,093	-5,212	238,074	116,904
125,108	-5,117	237,723	116,798
126,122	-5,375	237,456	116,448
127,137	-5,516	237,418	116,304
128,151	-5,336	237,225	116,345
129,166	-5,275	237,151	116,348
130,181	-5,341	236,862	116,142
131,195	-5,314	236,711	116,080
132,210	-5,410	236,613	115,944
133,224	-5,195	236,468	116,036
134,239	-5,014	236,230	116,055
135,254	-4,971	236,060	115,995
136,268	-5,063	235,922	115,843
137,283	-5,312	235,691	115,519
138,297	-5,495	235,526	115,281
139,312	-5,431	235,242	115,183
140,327	-5,121	235,162	115,382
141,341	-4,853	235,196	115,604
142,356	-4,648	235,048	115,685
143,370	-4,713	234,784	115,493
144,385	-4,739	234,600	115,371
145,400	-4,726	234,346	115,246
146,414	-4,751	234,307	115,197
147,429	-4,903	234,230	115,027
148,443	-5,003	234,002	114,826
149,458	-5,001	233,810	114,722
150,473	-4,868	233,708	114,768
151,487	-4,831	233,540	114,705
152,502	-4,883	233,382	114,576
153,516	-4,892	233,298	114,517
154,531	-4,774	232,894	114,402
155,546	-4,866	232,863	114,304
156,560	-4,890	232,615	114,153
157,575	-5,039	232,463	113,950
158,589	-4,869	232,284	113,986
159,604	-4,678	232,149	114,061
160,619	-4,861	232,059	113,862
161,633	-4,761	231,949	113,877
162,648	-4,629	231,704	113,851
163,662	-4,755	231,565	113,673
164,677	-4,837	231,381	113,508
165,692	-4,987	231,281	113,330
166,706	-4,718	231,072	113,430
167,721	-4,624	230,892	113,405
168,735	-4,632	230,783	113,335
169,750	-4,654	230,618	113,226
170,764	-4,776	230,433	113,030
171,779	-4,749	230,333	112,993
172,794	-4,702	230,205	112,956
173,808	-4,902	229,972	112,676
174,823	-5,145	229,585	112,286
175,837	-5,208	229,620	112,244
176,852	-5,183	229,516	112,203
177,867	-4,906	229,438	112,370
178,881	-4,762	229,270	112,390
179,896	-4,761	229,093	112,294
180,910	-4,605	228,977	112,349
181,925	-4,563	228,807	112,287
182,940	-4,705	228,636	112,084
183,954	-4,530	228,399	112,094
184,969	-4,703	228,357	111,929
185,983	-4,649	228,244	111,905
186,998	-4,767	228,056	111,712
188,013	-4,607	227,949	111,773
189,027	-4,543	227,751	111,715
190,042	-4,615	227,545	111,549
191,056	-4,378	227,326	111,615
192,071	-4,760	227,344	111,319
193,086	-4,706	227,175	111,267
194,100	-4,543	226,960	111,278
195,115	-4,928	226,704	110,846
196,129	-5,329	226,478	110,417
197,144	-2,356	227,382	113,140
198,159	1,532	228,497	116,690
199,173	3,788	228,916	118,638
200,188	4,040	228,798	118,760
201,202	3,953	228,786	118,677
202,217	4,238	228,503	118,739
203,232	4,426	228,513	118,877
204,246	4,399	228,476	118,827
205,261	4,618	228,392	118,942
206,275	4,588	228,260	118,839
207,290	4,592	228,035	118,714
208,304	4,556	227,909	118,611
209,319	4,744	227,609	118,588
210,334	4,613	227,488	118,414
211,348	4,283	227,196	117,999
212,363	4,030	226,958	117,671
213,377	3,639	226,794	117,277
214,392	3,559	226,800	117,208
215,407	3,701	226,661	117,235
216,421	3,959	226,372	117,272
217,436	3,685	226,433	117,084
218,450	3,668	225,966	116,819
219,465	3,568	225,816	116,655
220,480	3,728	225,635	116,673
221,494	3,493	225,677	116,505
222,509	3,856	225,582	116,722
223,523	3,814	225,299	116,533
224,538	3,578	225,110	116,246
225,553	3,716	225,101	116,335
226,567	3,987	224,915	116,434
227,582	3,996	224,849	116,397
228,596	4,287	224,774	116,567
229,611	3,781	224,610	116,089
230,626	3,631	224,353	115,833
231,640	3,634	224,188	115,740
232,655	3,828	224,223	115,893
233,669	4,431	224,011	116,228
234,684	4,473	223,902	116,192
235,699	4,209	223,775	115,918
236,713	3,967	223,543	115,605
237,728	3,978	223,212	115,432
238,742	3,575	223,118	115,071
239,757	3,674	223,014	115,082
240,772	3,762	222,736	114,994
241,786	3,597	222,720	114,852
242,801	3,800	222,681	114,973
243,815	4,239	222,536	115,216
244,830	4,222	222,515	115,182
245,844	3,865	222,147	114,715
246,859	3,717	222,053	114,546
247,874	3,994	221,881	114,653
248,888	4,149	221,642	114,635
249,903	4,027	221,619	114,522
250,917	3,817	221,345	114,214
251,932	3,916	221,236	114,221
252,947	4,012	221,078	114,201
253,961	3,775	220,981	113,965
254,976	3,868	220,750	113,905
255,990	3,903	220,860	113,977
257,005	4,066	220,576	113,941
258,020	4,123	220,594	113,982
259,034	4,157	220,489	113,943
260,049	4,196	220,249	113,838
261,063	4,036	220,064	113,614
262,078	4,014	219,945	113,526
263,093	4,271	219,777	113,618
264,107	3,943	219,764	113,360
265,122	3,912	219,584	113,234
266,136	4,279	219,481	113,441
267,151	3,971	219,338	113,131
268,166	3,910	219,094	112,950
269,180	3,688	218,721	112,585
270,195	3,836	218,610	112,626
271,209	3,890	218,501	112,599
272,224	3,797	218,369	112,453
273,239	3,954	218,247	112,495
274,253	3,674	218,098	112,204
275,268	3,804	217,944	112,209
276,282	3,601	217,821	111,988
277,297	3,459	217,713	111,818
278,312	3,495	217,572	111,763
279,326	3,652	217,468	111,813
280,341	3,851	217,230	111,826
281,355	3,848	217,144	111,770
282,370	3,896	217,075	111,759
283,384	3,595	216,794	111,386
284,399	3,410	216,621	111,153
285,414	3,302	216,556	111,031
286,428	3,740	216,572	111,347
287,443	3,733	216,436	111,262
288,457	3,892	216,285	111,290
289,472	3,801	216,061	111,099
290,487	3,226	215,914	110,598
291,501	3,353	215,582	110,510
292,516	3,350	215,587	110,500
293,530	3,619	215,505	110,642
294,545	3,345	215,338	110,349
295,560	3,730	215,208	110,549
296,574	4,067	215,122	110,738
297,589	3,959	214,946	110,560
298,603	3,921	214,840	110,469
299,618	3,933	214,815	110,454
300,633	3,707	214,583	110,163
301,647	4,010	214,551	110,354
302,662	4,077	214,325	110,276
303,676	4,137	214,220	110,255
304,691	4,006	214,169	110,126
305,706	3,946	213,968	109,969
306,720	4,118	213,796	109,993
307,735	3,984	213,557	109,766
308,749	3,548	213,483	109,407
309,764	3,770	213,448	109,537
310,779	4,169	213,189	109,679
311,793	3,981	213,059	109,468
312,808	3,968	212,936	109,386
313,822	3,910	212,838	109,285
314,837	3,964	212,596	109,189
315,852	3,558	212,575	108,881
316,866	3,778	212,359	108,916
317,881	3,879	212,309	108,952
318,895	4,087	212,163	109,015
319,910	3,902	212,034	108,808
320,925	3,727	211,639	108,472
321,939	3,174	211,567	108,035
322,954	3,225	211,492	108,024
323,968	3,777	211,480	108,397
324,983	3,935	211,393	108,454
325,997	4,185	211,285	108,565
327,012	3,973	211,002	108,261
328,027	3,825	210,998	108,145
329,041	4,353	210,802	108,406
330,056	4,229	210,638	108,225
331,070	3,945	210,494	107,942
332,085	3,649	210,309	107,630
333,100	3,435	210,227	107,428
334,114	3,783	210,118	107,607
335,129	3,935	209,930	107,607
336,143	3,502	209,748	107,202
337,158	3,501	209,640	107,136
338,173	3,689	209,483	107,178
339,187	3,646	209,365	107,078
340,202	3,529	209,104	106,853
341,216	3,352	209,070	106,702
342,231	3,665	208,952	106,851
343,246	3,568	208,848	106,721
344,260	3,730	208,689	106,743
345,275	3,778	208,670	106,757
346,289	3,836	208,541	106,722
347,304	3,770	208,379	106,584
348,319	3,816	208,328	106,580
349,333	3,908	208,088	106,511
350,348	3,678	208,002	106,298
351,362	3,856	207,955	106,388
352,377	3,767	207,924	106,301
353,392	3,894	207,529	106,177
354,406	3,743	207,480	106,038
355,421	194,565	1344,391	1433,552
356,435	155,243	1483,007	1433,657
