DTS Sentinel unit serial number:	SN410029Multiplexer serial number:	ORYXHardware model number:	OX2-SRSoftware version number:	ORYX F/W v4,00 Oryx Data Collector v3.7.2.0data status	okinstallation	B6 Nyhavnadifferential loss correction	single-endedforward channel	channel 2reverse channel	N/Adate	2023/12/08time	05:45:08forward acquisition time	300,00reverse acquisition time	0,00gamma	499,1914k internal	0,3165k external	0,3165temperature offset calibration	1,0000default loss term (dB/km)	0,3820temperature slope calibration	1,0000multiplexer offset coefficient	1,0000multiplexer slope coefficient	1,0000fibre end	0,00T internal ref (°C)	13,00T ext. ref 1 (°C)	-3,89T ext. ref 2 (°C)	-3,87length (m)	temperature (°C)	Stokes	anti-Stokes-744,400	-80,422	0,167	-0,041
-743,385	-101,942	-0,430	0,076
-742,371	-63,946	0,230	0,069
-741,356	-44,792	-0,276	0,101
-740,342	263,426	0,144	0,184
-739,327	-60,193	-0,312	-0,097
-738,312	-111,521	0,121	0,018
-737,298	-132,477	-0,393	0,037
-736,283	-87,790	0,105	0,023
-735,269	-173,851	-0,313	-0,007
-734,254	247,645	0,104	0,130
-733,239	-67,231	-0,562	-0,162
-732,225	-64,043	0,158	-0,047
-731,210	-112,354	0,104	0,015
-730,196	86,287	-0,022	0,018
-729,181	578,796	-0,038	-0,069
-728,167	-117,853	-0,028	-0,004
-727,152	-78,490	-0,054	-0,014
-726,137	-200,000	-0,001	-0,034
-725,123	-200,000	-0,038	-0,156
-724,108	-34,000	-0,225	-0,090
-723,094	-200,000	-0,009	-0,195
-722,079	800,000	-0,054	-0,128
-721,064	-90,196	0,094	-0,020
-720,050	-200,000	-0,033	0,114
-719,035	-149,126	0,133	0,008
-718,021	248,217	0,026	-0,032
-717,006	-64,741	-0,110	-0,033
-715,991	800,000	0,043	-0,126
-714,977	-133,843	-0,050	0,004
-713,962	524,157	-0,027	-0,047
-712,948	800,000	-0,052	0,107
-711,933	2,481	-0,109	-0,058
-710,918	-22,521	0,057	-0,025
-709,904	-3,579	-0,096	0,049
-708,889	-200,000	0,030	-0,128
-707,875	-23,989	-0,134	-0,059
-706,860	-0,904	0,136	-0,070
-705,845	485,043	0,030	-0,050
-704,831	62,502	-0,010	-0,007
-703,816	204,627	0,082	0,094
-702,802	177,717	-0,035	0,038
-701,787	-130,643	-0,104	-0,010
-700,772	800,000	-0,032	-0,070
-699,758	-111,872	-0,189	0,028
-698,743	-132,227	0,036	-0,003
-697,729	25,647	0,091	-0,055
-696,714	-23,284	-0,063	-0,028
-695,699	39,578	-0,149	-0,098
-694,685	-200,000	0,012	-0,126
-693,670	-200,000	0,020	-0,079
-692,656	-200,000	-0,020	-0,070
-691,641	-200,000	0,015	0,061
-690,627	-75,199	0,059	-0,015
-689,612	-108,447	-0,091	-0,014
-688,597	800,000	-0,053	-0,155
-687,583	52,134	-0,054	-0,038
-686,568	-34,590	-0,083	-0,033
-685,554	-200,000	0,020	0,077
-684,539	31,937	-0,064	-0,041
-683,524	-11,911	0,106	0,051
-682,510	433,124	0,033	0,053
-681,495	-156,276	0,156	-0,007
-680,481	602,193	-0,038	-0,070
-679,466	800,000	-0,047	-0,122
-678,451	92,217	0,086	-0,071
-677,437	-29,384	0,055	0,023
-676,422	56,717	0,013	0,009
-675,408	579,434	-0,010	0,019
-674,393	-125,765	-0,080	0,009
-673,378	-103,192	0,098	-0,017
-672,364	-68,135	-0,097	-0,028
-671,349	-16,491	-0,077	-0,036
-670,335	144,518	-0,156	0,152
-669,320	19,127	0,093	0,055
-668,305	-67,070	0,101	0,029
-667,291	121,481	-0,058	0,053
-666,276	156,093	0,038	0,039
-665,262	800,000	0,058	-0,165
-664,247	-56,368	-0,038	-0,012
-663,232	322,398	0,049	-0,069
-662,218	-200,000	0,008	0,076
-661,203	-8,605	0,110	0,054
-660,189	-200,000	-0,044	0,185
-659,174	-136,564	-0,164	0,014
-658,159	-200,000	-0,031	-0,174
-657,145	-17,597	0,164	-0,075
-656,130	800,000	-0,051	-0,132
-655,116	-101,003	0,120	-0,021
-654,101	-147,880	-0,060	-0,004
-653,086	281,173	-0,058	-0,077
-652,072	-200,000	-0,003	-0,082
-651,057	-126,525	0,030	-0,003
-650,043	-98,011	0,096	-0,018
-649,028	800,000	-0,010	-0,021
-648,014	800,000	-0,039	-0,108
-646,999	193,739	-0,043	-0,047
-645,984	444,715	-0,039	0,063
-644,970	219,861	-0,076	0,089
-643,955	-200,000	-0,014	-0,074
-642,941	106,799	0,045	-0,039
-641,926	800,000	0,020	-0,057
-640,911	-45,519	0,119	0,043
-639,897	-200,000	-0,012	0,296
-638,882	-116,872	0,078	0,010
-637,868	-168,122	-0,052	0,001
-636,853	-26,314	-0,115	-0,049
-635,838	546,408	-0,073	-0,128
-634,824	800,000	0,041	-0,101
-633,809	-64,214	0,066	-0,020
-632,795	-121,058	0,046	0,006
-631,780	-200,000	-0,005	0,096
-630,765	-200,000	0,014	0,059
-629,751	316,976	-0,034	-0,047
-628,736	-69,875	-0,059	0,016
-627,722	-200,000	0,011	0,038
-626,707	-91,388	0,018	-0,004
-625,692	173,449	0,085	0,090
-624,678	176,353	-0,093	0,099
-623,663	800,000	-0,027	0,083
-622,649	-200,000	-0,004	-0,060
-621,634	-4,196	-0,076	-0,039
-620,619	385,113	-0,056	-0,085
-619,605	43,169	0,077	-0,051
-618,590	115,993	-0,115	-0,103
-617,576	417,773	-0,047	0,073
-616,561	-27,196	-0,081	0,034
-615,546	-200,000	0,024	-0,102
-614,532	-7,158	-0,121	-0,060
-613,517	115,586	0,101	0,091
-612,503	-200,000	0,006	0,163
-611,488	20,011	0,015	-0,009
-610,474	-7,937	0,015	-0,008
-609,459	-112,416	0,045	0,007
-608,444	-45,730	-0,108	-0,039
-607,430	-63,445	-0,040	0,012
-606,415	359,549	0,070	-0,102
-605,401	140,642	-0,106	0,102
-604,386	155,317	-0,111	0,112
-603,371	-200,000	0,005	-0,071
-602,357	22,976	-0,087	-0,052
-601,342	224,366	0,101	0,120
-600,328	139,898	0,014	-0,014
-599,313	90,476	-0,036	-0,029
-598,298	800,000	0,026	-0,080
-597,284	13,602	-0,098	-0,055
-596,269	183,878	0,020	0,021
-595,255	326,303	-0,055	-0,077
-594,240	-200,000	0,037	-0,122
-593,225	800,000	0,040	-0,103
-592,211	175,970	-0,032	-0,034
-591,196	208,034	-0,122	-0,139
-590,182	-26,374	0,114	0,049
-589,167	-188,846	0,045	-0,000
-588,152	13,667	0,059	0,034
-587,138	246,125	-0,037	0,045
-586,123	-85,339	0,056	-0,013
-585,109	-200,000	0,009	-0,217
-584,094	57,836	0,048	-0,034
-583,079	760,390	0,035	0,069
-582,065	-176,727	-0,139	0,003
-581,050	-101,231	0,095	0,017
-580,036	528,304	-0,029	0,050
-579,021	-142,544	0,172	-0,012
-578,006	800,000	-0,034	0,099
-576,992	-38,766	-0,034	-0,013
-575,977	-64,134	0,124	-0,037
-574,963	-48,779	0,219	-0,076
-573,948	5,624	0,070	0,038
-572,934	-127,483	-0,100	0,011
-571,919	800,000	0,030	-0,088
-570,904	473,160	-0,007	-0,011
-569,890	-200,000	0,012	-0,055
-568,875	-186,543	-0,049	-0,001
-567,861	-59,212	0,112	0,035
-566,846	37,830	-0,038	-0,025
-565,831	-130,691	0,141	0,014
-564,817	-200,000	0,016	-0,142
-563,802	800,000	-0,019	0,049
-562,788	250,538	-0,033	0,041
-561,773	-89,681	0,052	0,011
-560,758	-133,594	-0,091	0,008
-559,744	461,008	0,019	-0,032
-558,729	-200,000	0,009	0,046
-557,715	-131,366	-0,149	-0,014
-556,700	-200,000	-0,019	-0,202
-555,685	-92,987	0,061	0,012
-554,671	663,759	-0,031	-0,059
-553,656	-200,000	0,004	0,082
-552,642	-200,000	0,006	0,049
-551,627	297,118	-0,024	0,032
-550,612	-9,172	0,033	0,016
-549,598	-200,000	-0,009	0,072
-548,583	-63,616	-0,137	-0,041
-547,569	-200,000	0,008	-0,036
-546,554	243,832	0,014	-0,017
-545,539	-200,000	-0,005	-0,137
-544,525	-200,000	0,029	0,133
-543,510	82,266	0,009	-0,007
-542,496	-72,998	-0,091	0,024
-541,481	-139,706	-0,046	-0,004
-540,466	3,378	0,075	0,040
-539,452	-200,000	0,017	-0,094
-538,437	-200,000	0,002	-0,015
-537,423	800,000	-0,031	0,092
-536,408	27,333	0,049	-0,030
-535,393	64,980	0,005	0,004
-534,379	800,000	0,036	-0,100
-533,364	-15,273	0,099	-0,046
-532,350	-71,847	-0,029	-0,008
-531,335	473,221	0,052	0,086
-530,321	748,220	0,106	0,209
-529,306	290,685	-0,036	-0,048
-528,291	-100,043	0,042	0,007
-527,277	-49,580	-0,122	-0,042
-526,262	800,000	0,012	-0,034
-525,248	-24,364	-0,164	-0,071
-524,233	-97,731	-0,056	-0,011
-523,218	-136,303	0,131	0,011
-522,204	112,102	-0,100	-0,088
-521,189	353,410	0,087	-0,126
-520,175	-150,820	-0,064	0,003
-519,160	800,000	0,018	-0,050
-518,145	-3,109	0,091	0,046
-517,131	-200,000	-0,005	-0,082
-516,116	-11,224	0,105	0,050
-515,102	255,562	-0,026	-0,033
-514,087	-86,940	-0,103	0,023
-513,072	800,000	-0,022	-0,070
-512,058	800,000	-0,030	-0,064
-511,043	-200,000	0,015	0,102
-510,029	779,796	-0,026	-0,052
-509,014	-200,000	-0,007	-0,094
-507,999	-32,368	0,036	-0,015
-506,985	-200,000	-0,021	-0,072
-505,970	334,138	-0,085	-0,120
-504,956	-58,963	-0,036	-0,011
-503,941	800,000	0,029	-0,089
-502,926	800,000	-0,026	0,060
-501,912	163,008	-0,046	0,047
-500,897	-91,060	0,140	0,029
-499,883	-92,641	-0,120	0,024
-498,868	-200,000	0,017	-0,161
-497,853	800,000	-0,053	-0,151
-496,839	-153,793	0,045	-0,002
-495,824	-200,000	0,013	-0,110
-494,810	306,570	0,042	0,057
-493,795	583,869	0,027	-0,049
-492,781	23,690	-0,091	0,055
-491,766	330,539	0,012	-0,016
-490,751	56,832	-0,051	0,036
-489,737	-200,000	-0,002	0,084
-488,722	280,185	-0,057	0,074
-487,708	86,858	-0,056	-0,045
-486,693	-128,567	0,147	-0,015
-485,678	-53,092	-0,057	-0,019
-484,664	277,826	-0,068	-0,089
-483,649	800,000	-0,083	-0,175
-482,635	800,000	0,019	-0,055
-481,620	-199,919	0,134	0,000
-480,605	106,406	-0,064	-0,055
-479,591	26,417	0,175	0,106
-478,576	-154,319	-0,142	0,007
-477,562	-200,000	-0,008	0,151
-476,547	279,552	-0,106	-0,138
-475,532	-200,000	-0,039	-0,186
-474,518	87,454	0,049	-0,039
-473,503	392,887	0,039	0,059
-472,489	-30,442	-0,050	0,020
-471,474	-200,000	-0,001	0,058
-470,459	800,000	0,033	-0,075
-469,445	19,065	-0,031	0,018
-468,430	-95,391	0,093	0,018
-467,416	-4,966	-0,070	-0,035
-466,401	-79,509	-0,066	0,016
-465,386	-200,000	0,005	0,080
-464,372	349,855	-0,033	-0,047
-463,357	800,000	-0,033	0,092
-462,343	-139,250	-0,026	0,002
-461,328	92,312	0,119	-0,097
-460,313	-200,000	0,001	0,063
-459,299	-33,585	-0,102	0,041
-458,284	47,401	0,071	0,048
-457,270	-200,000	-0,013	0,077
-456,255	-103,478	0,056	-0,010
-455,241	-200,000	0,006	-0,138
-454,226	-105,577	-0,115	0,019
-453,211	262,777	0,087	-0,111
-452,197	8,537	0,112	-0,061
-451,182	361,846	0,022	-0,032
-450,168	153,260	0,019	0,019
-449,153	341,983	0,041	-0,058
-448,138	4,964	-0,104	-0,055
-447,124	800,000	-0,066	0,154
-446,109	142,467	-0,020	-0,019
-445,095	401,342	0,057	-0,087
-444,080	130,703	-0,048	0,045
-443,065	-116,773	0,077	-0,010
-442,051	130,224	-0,021	-0,019
-441,036	165,928	-0,046	-0,048
-440,022	-107,330	-0,046	-0,007
-439,007	-134,900	-0,104	0,009
-437,992	800,000	0,039	0,101
-436,978	-98,810	-0,109	0,020
-435,963	-36,742	0,230	0,089
-434,949	-40,538	-0,196	0,073
-433,934	176,230	-0,028	0,030
-432,919	145,023	-0,048	-0,047
-431,905	-200,000	-0,003	0,096
-430,890	-32,166	0,197	-0,080
-429,876	74,230	-0,032	-0,024
-428,861	116,844	-0,177	0,157
-427,846	476,591	0,041	-0,068
-426,832	303,526	0,058	-0,078
-425,817	5,730	0,004	-0,002
-424,803	-200,000	0,040	0,136
-423,788	486,683	0,026	0,043
-422,773	-68,334	-0,033	-0,009
-421,759	-145,842	0,057	0,004
-420,744	-158,041	0,137	0,006
-419,730	-200,000	0,005	0,060
-418,715	149,420	-0,099	0,097
-417,701	-200,000	-0,027	-0,141
-416,686	800,000	-0,023	-0,050
-415,671	116,599	0,114	-0,101
-414,657	-200,000	-0,008	0,077
-413,642	83,505	0,127	0,101
-412,628	47,203	-0,071	0,048
-411,613	94,309	-0,189	0,155
-410,598	-47,702	0,181	-0,063
-409,584	-200,000	0,008	0,030
-408,569	-18,045	0,167	0,076
-407,555	59,242	-0,111	-0,079
-406,540	160,884	0,033	-0,034
-405,525	-112,767	-0,191	0,027
-404,511	650,575	0,063	-0,118
-403,496	-200,000	-0,018	-0,094
-402,482	204,468	-0,018	0,021
-401,467	800,000	0,068	0,145
-400,452	-110,437	-0,061	0,009
-399,438	398,507	0,032	-0,049
-398,423	-200,000	0,012	-0,121
-397,409	177,759	-0,042	-0,044
-396,394	41,688	0,123	-0,081
-395,379	-90,930	-0,104	-0,022
-394,365	-128,990	0,033	-0,003
-393,350	90,520	0,025	0,020
-392,336	386,821	0,051	0,077
-391,321	800,000	0,022	-0,060
-390,306	374,543	0,121	-0,179
-389,292	-48,082	0,041	0,014
-388,277	32,344	-0,123	-0,077
-387,263	35,243	0,012	0,008
-386,248	800,000	-0,042	0,090
-385,233	46,518	-0,020	-0,014
-384,219	-1,153	-0,156	0,080
-383,204	-126,033	-0,118	-0,013
-382,190	262,500	-0,024	-0,031
-381,175	481,394	0,037	0,062
-380,160	-200,000	-0,015	0,089
-379,146	800,000	0,032	0,088
-378,131	78,281	0,152	0,118
-377,117	436,432	0,030	0,047
-376,102	505,559	-0,053	-0,090
-375,088	96,169	-0,071	0,059
-374,073	-45,958	-0,047	-0,017
-373,058	272,352	-0,101	0,129
-372,044	-113,962	0,019	-0,003
-371,029	-155,512	0,156	0,007
-370,015	-200,000	-0,002	-0,149
-369,000	-200,000	0,007	-0,064
-367,985	-103,545	-0,108	-0,018
-366,971	-28,647	-0,112	-0,046
-365,956	-200,000	0,029	-0,102
-364,942	112,289	0,022	0,020
-363,927	16,630	0,042	0,024
-362,912	22,067	0,127	0,075
-361,898	-99,631	-0,053	-0,010
-360,883	198,098	-0,060	0,067
-359,869	192,533	0,078	-0,085
-358,854	310,786	0,075	-0,102
-357,839	-34,613	-0,136	-0,054
-356,825	800,000	0,057	-0,118
-355,810	38,935	0,123	-0,080
-354,796	354,533	0,037	-0,053
-353,781	20,166	-0,105	-0,061
-352,766	84,275	0,166	-0,131
-351,752	211,202	0,066	-0,076
-350,737	70,627	-0,066	0,050
-349,723	145,048	0,080	0,078
-348,708	-54,225	-0,099	-0,032
-347,693	86,781	-0,085	0,068
-346,679	238,344	0,047	0,057
-345,664	-132,670	0,030	0,003
-344,650	-30,255	0,068	0,028
-343,635	-9,789	0,062	0,030
-342,620	65,949	0,075	0,055
-341,606	29,447	0,111	-0,068
-340,591	-159,745	-0,103	-0,004
-339,577	101,340	-0,107	0,090
-338,562	-21,291	-0,051	-0,022
-337,548	-200,000	-0,003	0,031
-336,533	-30,215	-0,061	0,025
-335,518	-200,000	0,021	0,070
-334,504	35,573	0,126	0,080
-333,489	-200,000	0,005	-0,035
-332,475	-56,222	0,059	0,019
-331,460	-83,464	0,063	-0,014
-330,445	-21,941	-0,033	0,014
-329,431	98,853	-0,034	0,029
-328,416	800,000	0,037	0,105
-327,402	-55,749	-0,012	-0,004
-326,387	800,000	-0,034	0,089
-325,372	5,997	-0,055	0,029
-324,358	-82,604	-0,009	-0,002
-323,343	188,713	0,072	0,078
-322,329	247,242	-0,045	0,055
-321,314	244,451	0,043	0,052
-320,299	19,308	-0,109	0,063
-319,285	104,258	-0,074	0,063
-318,270	-49,422	-0,091	-0,031
-317,256	-129,164	0,026	-0,003
-316,241	-90,775	-0,078	-0,016
-315,226	30,522	0,049	-0,030
-314,212	-200,000	0,029	0,111
-313,197	181,746	0,027	0,028
-312,183	346,103	0,027	-0,038
-311,168	-200,000	-0,002	-0,105
-310,153	-200,000	0,000	-0,075
-309,139	800,000	-0,039	0,125
-308,124	-200,000	-0,023	0,138
-307,110	-200,000	-0,015	0,155
-306,095	800,000	-0,009	0,024
-305,080	289,938	-0,091	-0,120
-304,066	103,535	0,043	-0,036
-303,051	665,873	-0,079	-0,147
-302,037	239,709	0,032	-0,038
-301,022	-45,126	0,184	0,066
-300,008	49,486	0,031	0,021
-298,993	-200,000	-0,019	0,149
-297,978	-200,000	0,001	0,154
-296,964	-79,922	-0,206	0,050
-295,949	-138,095	0,085	0,007
-294,935	-200,000	0,022	-0,127
-293,920	-200,000	-0,001	0,003
-292,905	-133,690	0,062	0,006
-291,891	-38,259	0,159	0,061
-290,876	-200,000	0,001	-0,012
-289,862	-200,000	-0,006	-0,173
-288,847	776,791	0,036	-0,071
-287,832	800,000	0,031	0,097
-286,818	-34,013	0,103	-0,041
-285,803	255,269	-0,064	-0,080
-284,789	-200,000	-0,003	-0,085
-283,774	-182,583	0,079	-0,001
-282,759	14,502	-0,025	-0,014
-281,745	44,109	-0,162	-0,107
-280,730	-21,601	-0,119	0,052
-279,716	372,588	0,011	-0,017
-278,701	314,040	0,068	0,092
-277,686	253,600	0,048	0,059
-276,672	-200,000	0,025	-0,125
-275,657	121,999	-0,088	-0,079
-274,643	-124,787	-0,101	-0,011
-273,628	229,397	-0,061	-0,072
-272,613	-200,000	-0,023	0,153
-271,599	163,163	0,071	0,072
-270,584	800,000	-0,020	0,049
-269,570	39,265	-0,053	0,034
-268,555	800,000	0,037	0,102
-267,540	338,593	-0,074	-0,104
-266,526	373,845	0,052	0,077
-265,511	58,067	0,042	-0,030
-264,497	-200,000	-0,052	0,255
-263,482	-12,722	0,104	0,049
-262,467	-200,000	0,022	0,079
-261,453	-185,454	0,086	0,001
-260,438	-14,169	-0,042	0,019
-259,424	29,430	-0,036	-0,022
-258,409	100,616	0,094	-0,079
-257,395	204,086	0,069	-0,077
-256,380	-70,221	0,070	0,019
-255,365	44,437	0,153	0,101
-254,351	-168,062	-0,069	-0,002
-253,336	94,642	-0,069	0,056
-252,322	423,721	0,043	-0,067
-251,307	800,000	0,021	-0,056
-250,292	738,196	-0,082	-0,160
-249,278	-200,000	0,001	-0,075
-248,263	-200,000	-0,009	0,093
-247,249	250,343	-0,068	0,084
-246,234	800,000	-0,023	0,066
-245,219	674,850	-0,055	0,104
-244,205	540,225	-0,033	-0,058
-243,190	72,086	0,037	-0,027
-242,176	96,103	0,104	0,085
-241,161	-39,519	0,062	0,023
-240,146	-43,304	-0,136	0,049
-239,132	120,993	-0,058	-0,052
-238,117	95,534	0,059	0,048
-237,103	178,010	0,015	-0,015
-236,088	18,070	0,061	0,035
-235,073	-187,387	0,029	0,000
-234,059	199,233	0,074	0,082
-233,044	86,505	-0,114	-0,091
-232,030	800,000	-0,050	0,126
-231,015	800,000	0,054	0,111
-230,000	-64,345	-0,028	-0,008
-228,986	-35,872	-0,100	-0,039
-227,971	299,478	-0,095	0,127
-226,957	90,777	0,086	0,069
-225,942	76,631	0,059	0,045
-224,927	18,495	-0,097	0,056
-223,913	800,000	0,024	-0,063
-222,898	601,813	-0,097	-0,175
-221,884	-43,115	0,074	-0,027
-220,869	-200,000	-0,058	0,213
-219,855	800,000	0,019	0,055
-218,840	40,162	-0,054	0,035
-217,825	-200,000	0,041	0,132
-216,811	-200,000	0,003	0,080
-215,796	-103,455	-0,047	0,008
-214,782	-92,138	0,016	0,003
-213,767	-200,000	-0,008	-0,056
-212,752	-135,185	0,142	0,012
-211,738	248,414	-0,032	0,040
-210,723	800,000	-0,016	0,042
-209,709	-142,500	0,053	0,004
-208,694	800,000	0,029	-0,063
-207,679	800,000	-0,051	-0,116
-206,665	542,917	0,093	0,161
-205,650	30,863	0,169	0,104
-204,636	245,314	0,159	0,194
-203,621	-28,896	-0,058	0,024
-202,606	800,000	-0,040	-0,100
-201,592	-153,739	-0,130	-0,006
-200,577	-200,000	-0,004	-0,075
-199,563	160,867	-0,077	-0,078
-198,548	431,800	0,044	-0,069
-197,533	-200,000	0,010	0,092
-196,519	-52,553	-0,031	0,010
-195,504	-126,528	-0,034	0,004
-194,490	-200,000	-0,018	0,090
-193,475	-200,000	0,019	0,074
-192,460	167,774	-0,030	0,030
-191,446	-106,477	0,172	0,027
-190,431	800,000	-0,027	0,074
-189,417	800,000	-0,012	0,025
-188,402	91,289	-0,104	0,084
-187,387	473,421	0,032	-0,051
-186,373	-200,000	0,008	-0,038
-185,358	147,804	-0,091	0,088
-184,344	145,789	0,071	-0,068
-183,329	47,220	0,044	-0,029
-182,315	757,567	0,041	-0,080
-181,300	800,000	0,032	0,090
-180,285	662,603	-0,049	-0,092
-179,271	-200,000	-0,018	-0,073
-178,256	11,059	0,118	-0,065
-177,242	800,000	0,019	0,040
-176,227	-46,772	0,116	-0,041
-175,212	65,819	-0,092	-0,067
-174,198	-33,347	-0,034	-0,014
-173,183	190,819	0,081	-0,088
-172,169	27,523	-0,053	-0,032
-171,154	-102,581	0,035	-0,006
-170,139	800,000	0,040	0,099
-169,125	-200,000	0,010	-0,123
-168,110	-200,000	0,008	0,049
-167,096	15,749	-0,098	-0,055
-166,081	-200,000	-0,011	-0,038
-165,066	581,866	-0,017	0,030
-164,052	-200,000	0,014	-0,110
-163,037	-84,638	0,090	0,020
-162,023	599,719	-0,044	0,079
-161,008	800,000	-0,057	0,167
-159,993	-78,018	-0,090	-0,022
-158,979	800,000	0,070	-0,150
-157,964	269,660	-0,025	-0,031
-156,950	88,697	0,050	0,040
-155,935	-200,000	0,023	0,081
-154,920	647,100	0,034	0,063
-153,906	800,000	0,025	-0,068
-152,891	-200,000	-0,012	-0,080
-151,877	-67,679	0,092	0,026
-150,862	3,672	0,082	0,043
-149,847	44,605	0,081	-0,053
-148,833	-49,753	-0,199	-0,068
-147,818	53,745	-0,082	-0,056
-146,804	-200,000	-0,000	0,109
-145,789	-200,000	0,034	0,164
-144,775	-140,185	-0,151	-0,011
-143,760	-30,550	-0,187	-0,076
-142,745	625,739	0,062	0,113
-141,731	363,663	0,067	-0,097
-140,716	543,018	-0,043	-0,075
-139,702	58,925	0,054	0,038
-138,687	800,000	-0,069	0,172
-137,672	-122,180	-0,220	-0,026
-136,658	-124,322	-0,068	0,007
-135,643	111,300	0,059	-0,051
-134,629	-140,707	-0,080	0,006
-133,614	800,000	0,068	0,183
-132,599	800,000	0,076	0,166
-131,585	-200,000	-0,005	0,203
-130,570	339,881	-0,065	-0,091
-129,556	-53,571	-0,127	-0,042
-128,541	106,070	-0,035	0,030
-127,526	-200,000	-0,006	-0,090
-126,512	-200,000	0,005	0,065
-125,497	-200,000	0,023	0,097
-124,483	89,973	0,127	0,102
-123,468	11,508	0,084	0,046
-122,453	-10,347	0,069	-0,033
-121,439	-200,000	-0,003	0,093
-120,424	81,396	-0,093	0,072
-119,410	191,731	0,037	0,040
-118,395	-189,706	-0,113	0,001
-117,380	-32,725	-0,108	0,043
-116,366	-76,048	-0,189	0,048
-115,351	-27,251	0,064	-0,027
-114,337	-200,000	0,019	-0,105
-113,322	383,310	-0,024	-0,035
-112,307	257,626	-0,059	-0,073
-111,293	-200,000	-0,020	0,184
-110,278	84,577	-0,028	0,022
-109,264	-81,685	-0,051	0,012
-108,249	698,785	-0,050	-0,095
-107,234	-78,179	-0,098	-0,024
-106,220	63,460	-0,045	-0,033
-105,205	-200,000	0,015	0,074
-104,191	-200,000	0,008	0,061
-103,176	-200,000	0,016	0,127
-102,162	-6,972	0,013	0,006
-101,147	-200,000	0,008	-0,053
-100,132	-65,344	-0,057	-0,016
-99,118	-98,383	-0,137	0,025
-98,103	216,920	0,084	0,096
-97,089	-135,320	-0,048	-0,004
-96,074	28,743	-0,029	0,018
-95,059	-200,000	-0,002	0,008
-94,045	-27,692	-0,073	-0,030
-93,030	-200,000	-0,018	0,142
-92,016	244,275	-0,052	-0,062
-91,001	-200,000	-0,004	-0,022
-89,986	110,361	-0,054	-0,046
-88,972	800,000	0,011	0,025
-87,957	800,000	-0,027	0,076
-86,943	-97,980	-0,075	0,014
-85,928	-8,948	-0,097	-0,046
-84,913	-139,877	-0,054	0,004
-83,899	-65,191	-0,138	-0,039
-82,884	800,000	0,053	0,105
-81,870	-92,394	-0,102	0,020
-80,855	772,975	0,012	0,023
-79,840	-23,773	-0,065	-0,028
-78,826	-56,174	-0,158	0,050
-77,811	-200,000	0,001	0,035
-76,797	-200,000	0,010	-0,061
-75,782	-76,778	0,073	0,018
-74,767	-9,187	0,005	0,003
-73,753	82,963	-0,112	0,087
-72,738	-151,269	-0,104	-0,005
-71,724	-146,668	0,070	0,004
-70,709	-81,640	-0,094	-0,022
-69,694	47,908	-0,096	-0,064
-68,680	-200,000	0,016	0,054
-67,665	141,603	0,074	0,070
-66,651	-2,463	-0,058	0,029
-65,636	-104,529	-0,100	0,016
-64,622	-43,997	-0,133	0,048
-63,607	9,354	0,041	0,022
-62,592	-88,525	-0,070	0,015
-61,578	-82,578	0,052	0,012
-60,563	49,263	0,070	0,047
-59,549	359,948	-0,082	0,118
-58,534	36,332	-2,233	-1,407
-57,519	-200,000	0,034	-0,677
-56,505	-200,000	-1,344	-5,173
-55,490	154,234	0,912	0,897
-54,476	800,000	5,397	12,131
-53,461	-200,000	19,002	322,019
-52,446	800,000	742,456	2326,171
-51,432	547,631	1655,097	2847,990
-50,417	109,567	1637,761	1404,807
-49,403	73,209	1287,909	963,319
-48,388	29,291	1029,778	624,769
-47,373	19,559	992,558	570,011
-46,359	16,835	980,425	554,071
-45,344	13,408	976,680	540,686
-44,330	13,712	975,187	540,838
-43,315	13,065	973,255	537,624
-42,300	13,029	972,019	536,801
-41,286	13,042	971,043	536,285
-40,271	12,976	970,290	535,633
-39,257	13,020	969,306	535,212
-38,242	13,042	968,333	534,723
-37,227	13,009	967,670	534,229
-36,213	12,974	966,792	533,611
-35,198	12,993	965,868	533,141
-34,184	13,009	965,200	532,803
-33,169	12,974	964,224	532,129
-32,154	13,055	963,082	531,739
-31,140	13,072	962,363	531,376
-30,125	13,048	961,566	530,838
-29,111	12,979	960,929	530,241
-28,096	13,028	960,172	529,962
-27,082	13,030	959,433	529,541
-26,067	13,078	958,634	529,231
-25,052	12,996	958,022	528,608
-24,038	12,996	957,467	528,280
-23,023	13,005	956,603	527,815
-22,009	13,070	955,966	527,649
-20,994	13,030	955,464	527,225
-19,979	13,065	954,837	526,970
-18,965	12,994	954,281	526,412
-17,950	13,064	953,420	526,140
-16,936	12,985	952,979	525,625
-15,921	12,979	952,361	525,243
-14,906	12,954	951,434	524,632
-13,892	12,958	950,898	524,328
-12,877	12,914	950,215	523,788
-11,863	12,941	949,642	523,539
-10,848	12,958	949,115	523,281
-9,833	13,027	948,540	523,164
-8,819	13,008	947,666	522,601
-7,804	12,970	947,141	522,171
-6,790	12,916	946,666	521,715
-5,775	13,020	946,151	521,740
-4,760	12,973	945,577	521,254
-3,746	12,932	944,801	520,677
-2,731	12,798	944,176	519,885
-1,717	12,776	943,550	519,449
-0,702	12,727	942,888	518,912
0,313	12,541	942,274	518,765
1,327	16,060	940,307	528,759
2,342	25,373	790,417	469,021
3,356	21,346	445,152	258,152
4,371	-7,989	298,583	143,533
5,386	-11,826	280,466	131,136
6,400	-13,098	274,779	127,271
7,415	-13,189	272,424	126,085
8,429	-13,227	270,919	125,342
9,444	-13,506	270,073	124,681
10,459	-13,510	269,592	124,444
11,473	-13,419	268,751	124,128
12,488	-13,309	268,067	123,902
13,502	-13,688	267,683	123,368
14,517	-13,648	267,196	123,168
15,531	-13,525	266,874	123,121
16,546	-13,378	266,524	123,083
17,561	-13,413	265,997	122,796
18,575	-13,387	265,826	122,730
19,590	-13,424	265,422	122,499
20,604	-13,286	265,038	122,436
21,619	-13,403	264,680	122,154
22,634	-13,440	264,257	121,914
23,648	-13,684	264,190	121,652
24,663	-13,538	263,813	121,600
25,677	-13,295	263,424	121,628
26,692	-13,396	263,281	121,460
27,707	-13,562	263,006	121,174
28,721	-13,383	262,577	121,125
29,736	-13,501	262,368	120,913
30,750	-13,610	262,156	120,706
31,765	-13,651	262,030	120,601
32,780	-13,501	261,862	120,647
33,794	-13,548	261,428	120,395
34,809	-13,575	261,016	120,170
35,823	-13,593	260,993	120,132
36,838	-13,653	260,732	119,949
37,853	-13,647	260,503	119,837
38,867	-13,582	260,138	119,717
39,882	-13,739	260,154	119,574
40,896	-13,607	259,900	119,564
41,911	-13,564	259,576	119,442
42,926	-13,640	259,186	119,185
43,940	-13,680	259,015	119,060
44,955	-13,576	258,690	118,992
45,969	-13,837	258,519	118,673
46,984	-14,026	258,259	118,376
47,999	-14,287	258,053	118,042
49,013	-14,335	257,759	117,855
50,028	-14,274	257,352	117,712
51,042	-14,364	257,273	117,586
52,057	-14,580	257,076	117,297
53,071	-14,434	256,751	117,266
54,086	-14,303	256,615	117,307
55,101	-14,115	256,412	117,368
56,115	-14,148	256,500	117,370
57,130	-13,613	256,340	117,752
58,144	-13,284	256,102	117,920
59,159	-13,316	255,875	117,777
60,174	-13,190	255,637	117,766
61,188	-13,434	255,456	117,460
62,203	-13,533	255,219	117,255
63,217	-13,420	254,933	117,211
64,232	-13,296	254,602	117,156
65,247	-13,385	254,558	117,047
66,261	-13,383	254,187	116,869
67,276	-13,555	253,964	116,607
68,290	-14,126	253,832	116,043
69,305	-14,140	253,563	115,898
70,320	-13,939	253,281	115,932
71,334	-13,761	253,229	116,051
72,349	-13,391	253,055	116,279
73,363	-13,287	252,891	116,282
74,378	-13,468	252,640	116,002
75,393	-13,419	252,414	115,930
76,407	-13,387	252,145	115,823
77,422	-13,600	252,088	115,604
78,436	-13,402	251,679	115,575
79,451	-13,474	251,503	115,423
80,466	-13,695	251,251	115,108
81,480	-13,860	250,970	114,828
82,495	-13,888	250,797	114,716
83,509	-13,529	250,530	114,888
84,524	-13,779	250,429	114,619
85,539	-13,979	250,195	114,332
86,553	-13,783	250,084	114,437
87,568	-13,888	249,984	114,292
88,582	-13,865	249,518	114,089
89,597	-13,834	249,524	114,107
90,611	-13,705	249,282	114,096
91,626	-13,575	249,130	114,125
92,641	-13,519	248,987	114,097
93,655	-13,687	248,821	113,870
94,670	-13,676	248,615	113,774
95,684	-13,801	248,472	113,594
96,699	-13,813	248,291	113,490
97,714	-13,788	247,730	113,245
98,728	-13,846	247,690	113,168
99,743	-13,862	247,374	113,000
100,757	-13,999	247,309	112,845
101,772	-14,070	247,165	112,710
102,787	-13,802	246,889	112,798
103,801	-13,660	246,834	112,882
104,816	-13,710	246,596	112,721
105,830	-13,387	246,581	112,974
106,845	-13,430	246,260	112,781
107,860	-13,367	246,001	112,705
108,874	-13,562	245,840	112,459
109,889	-13,604	245,609	112,308
110,903	-13,912	245,528	112,005
111,918	-13,808	245,258	111,958
112,933	-13,616	245,185	112,074
113,947	-13,651	244,974	111,938
114,962	-13,625	244,895	111,915
115,976	-13,526	244,551	111,829
116,991	-13,475	244,352	111,770
118,006	-13,634	244,205	111,561
119,020	-13,686	244,176	111,495
120,035	-13,403	243,980	111,630
121,049	-13,548	243,745	111,393
122,064	-13,596	243,749	111,345
123,079	-13,501	243,453	111,278
124,093	-13,631	243,126	111,012
125,108	-13,779	242,867	110,762
126,122	-14,127	242,736	110,406
127,137	-13,946	242,410	110,396
128,151	-13,957	242,182	110,274
129,166	-13,827	242,146	110,355
130,181	-14,120	242,114	110,090
131,195	-13,929	241,710	110,053
132,210	-13,519	241,455	110,262
133,224	-13,641	241,548	110,194
134,239	-13,539	241,275	110,143
135,254	-13,570	241,111	110,034
136,268	-13,774	240,726	109,682
137,283	-14,007	240,477	109,370
138,297	-14,028	240,256	109,242
139,312	-14,075	240,229	109,182
140,327	-13,568	240,014	109,486
141,341	-13,528	240,205	109,595
142,356	-13,326	240,134	109,718
143,370	-13,340	239,857	109,570
144,385	-13,090	239,659	109,672
145,400	-13,092	239,469	109,573
146,414	-13,245	239,342	109,382
147,429	-13,041	239,046	109,402
148,443	-13,386	238,924	109,058
149,458	-13,402	238,838	108,995
150,473	-13,200	238,639	109,057
151,487	-13,378	238,447	108,818
152,502	-13,391	238,327	108,742
153,516	-13,043	238,082	108,900
154,531	-13,268	238,094	108,716
155,546	-13,294	237,761	108,533
156,560	-13,180	237,636	108,557
157,575	-13,490	237,211	108,106
158,589	-13,396	237,070	108,106
159,604	-13,105	236,989	108,293
160,619	-12,969	236,865	108,335
161,633	-13,173	236,835	108,149
162,648	-13,149	236,748	108,119
163,662	-13,184	236,424	107,933
164,677	-13,302	236,206	107,730
165,692	-13,207	236,017	107,710
166,706	-13,134	236,113	107,802
167,721	-13,182	235,715	107,572
168,735	-13,277	235,800	107,527
169,750	-13,120	235,447	107,480
170,764	-13,245	235,415	107,356
171,779	-13,191	235,194	107,290
172,794	-13,112	235,036	107,271
173,808	-13,512	234,723	106,802
174,823	-13,813	234,439	106,425
175,837	-13,937	234,231	106,223
176,852	-13,480	234,199	106,560
177,867	-13,183	234,094	106,736
178,881	-13,139	234,067	106,749
179,896	-13,180	233,909	106,636
180,910	-13,128	233,688	106,566
181,925	-13,126	233,548	106,495
182,940	-13,094	233,426	106,454
183,954	-13,054	233,404	106,467
184,969	-13,074	233,134	106,318
185,983	-13,028	233,168	106,360
186,998	-13,093	232,877	106,167
188,013	-12,978	232,554	106,101
189,027	-13,048	232,471	105,998
190,042	-13,097	232,390	105,913
191,056	-12,778	232,073	106,009
192,071	-13,204	232,011	105,638
193,086	-12,811	231,762	105,822
194,100	-12,979	231,641	105,626
195,115	-13,446	231,291	105,094
196,129	-13,006	231,659	105,595
197,144	-7,100	233,337	110,979
198,159	-1,379	235,206	116,364
199,173	2,390	236,302	119,870
200,188	3,102	236,195	120,366
201,202	3,092	236,088	120,293
202,217	3,158	236,001	120,289
203,232	3,281	235,763	120,254
204,246	3,296	235,602	120,173
205,261	3,340	235,612	120,201
206,275	3,521	235,496	120,274
207,290	3,621	235,295	120,238
208,304	3,641	235,090	120,138
209,319	3,538	234,934	119,968
210,334	3,032	234,719	119,452
211,348	3,076	234,557	119,393
212,363	2,672	234,289	118,931
213,377	2,520	234,023	118,666
214,392	2,543	233,948	118,636
215,407	2,783	233,746	118,710
216,421	2,820	233,641	118,675
217,436	2,702	233,476	118,488
218,450	2,466	233,266	118,188
219,465	2,392	233,099	118,035
220,480	2,396	233,127	118,042
221,494	2,417	232,866	117,916
222,509	2,768	232,752	118,120
223,523	2,835	232,482	118,024
224,538	2,663	232,434	117,856
225,553	2,665	232,365	117,812
226,567	2,816	232,171	117,820
227,582	3,045	232,070	117,935
228,596	3,104	231,838	117,852
229,611	2,892	231,755	117,636
230,626	2,658	231,531	117,331
231,640	2,552	231,342	117,144
232,655	3,213	231,271	117,605
233,669	3,408	231,191	117,704
234,684	3,296	231,093	117,558
235,699	3,103	230,787	117,243
236,713	2,820	230,753	116,999
237,728	2,687	230,459	116,737
238,742	2,551	230,298	116,541
239,757	2,800	230,190	116,667
240,772	2,767	229,903	116,485
241,786	2,493	229,941	116,285
242,801	2,728	229,775	116,370
243,815	3,101	229,882	116,699
244,830	3,143	229,407	116,479
245,844	2,808	229,320	116,170
246,859	2,809	228,993	115,995
247,874	2,756	229,138	116,017
248,888	2,952	228,908	116,040
249,903	2,913	228,599	115,843
250,917	2,729	228,607	115,696
251,932	3,014	228,324	115,759
252,947	2,584	228,204	115,363
253,961	2,695	227,852	115,258
254,976	2,723	227,803	115,244
255,990	2,967	227,810	115,422
257,005	3,059	227,709	115,430
258,020	2,891	227,651	115,263
259,034	2,801	227,702	115,211
260,049	2,864	227,304	115,047
261,063	2,875	227,133	114,958
262,078	3,100	227,214	115,158
263,093	3,099	226,923	115,000
264,107	2,915	226,903	114,841
265,122	2,740	226,709	114,601
266,136	3,257	226,488	114,868
267,151	3,086	226,356	114,662
268,166	2,999	225,979	114,396
269,180	2,713	225,892	114,127
270,195	2,680	225,656	113,973
271,209	2,645	225,595	113,906
272,224	2,708	225,428	113,859
273,239	2,830	225,275	113,863
274,253	2,722	225,064	113,665
275,268	2,573	224,909	113,466
276,282	2,716	224,739	113,477
277,297	2,305	224,709	113,145
278,312	2,840	224,616	113,486
279,326	2,735	224,457	113,317
280,341	2,861	224,409	113,377
281,355	3,012	224,092	113,319
282,370	2,887	224,013	113,176
283,384	2,448	223,804	112,735
284,399	2,536	223,639	112,706
285,414	2,660	223,558	112,748
286,428	2,881	223,438	112,841
287,443	2,840	223,348	112,755
288,457	2,892	223,114	112,665
289,472	2,730	222,828	112,391
290,487	2,380	222,649	112,033
291,501	2,145	222,652	111,851
292,516	2,246	222,436	111,808
293,530	2,586	222,341	112,000
294,545	2,556	222,257	111,926
295,560	2,736	222,151	111,994
296,574	2,767	221,989	111,925
297,589	2,716	221,814	111,789
298,603	2,807	221,767	111,823
299,618	2,851	221,627	111,774
300,633	3,069	221,473	111,846
301,647	3,123	221,230	111,753
302,662	2,758	221,327	111,525
303,676	2,967	221,097	111,552
304,691	3,327	220,889	111,700
305,706	3,208	220,745	111,530
306,720	2,946	220,579	111,245
307,735	2,713	220,359	110,955
308,749	2,545	220,351	110,819
309,764	2,678	220,265	110,863
310,779	3,169	220,091	111,122
311,793	2,992	219,860	110,866
312,808	2,838	219,743	110,686
313,822	2,963	219,583	110,687
314,837	2,620	219,493	110,383
315,852	2,598	219,365	110,292
316,866	2,983	219,127	110,441
317,881	3,180	219,067	110,544
318,895	3,011	218,895	110,325
319,910	2,534	218,826	109,936
320,925	2,457	218,367	109,640
321,939	2,305	218,326	109,500
322,954	2,507	218,332	109,639
323,968	2,862	218,143	109,790
324,983	2,968	218,243	109,907
325,997	2,932	218,211	109,855
327,012	2,941	217,780	109,635
328,027	3,041	217,693	109,652
329,041	3,225	217,724	109,790
330,056	3,203	217,436	109,619
331,070	2,776	217,282	109,227
332,085	2,472	217,084	108,899
333,100	2,871	216,954	109,110
334,114	2,597	216,712	108,783
335,129	2,328	216,590	108,520
336,143	2,619	216,475	108,660
337,158	3,131	216,437	108,996
338,173	3,245	216,290	108,994
339,187	2,823	216,086	108,581
340,202	2,612	215,981	108,369
341,216	2,521	215,709	108,158
342,231	2,657	215,671	108,226
343,246	2,696	215,579	108,198
344,260	2,710	215,491	108,153
345,275	2,849	215,495	108,245
346,289	2,725	215,302	108,050
347,304	2,997	215,132	108,148
348,319	2,808	214,813	107,844
349,333	2,706	214,897	107,804
350,348	2,646	214,713	107,660
351,362	3,076	214,526	107,861
352,377	2,812	214,467	107,635
353,392	3,013	214,273	107,670
354,406	2,999	214,059	107,542
355,421	196,103	1315,423	1390,403
356,435	156,871	1449,548	1390,334
