DTS Sentinel unit serial number:	SN410029Multiplexer serial number:	ORYXHardware model number:	OX2-SRSoftware version number:	ORYX F/W v4,00 Oryx Data Collector v3.7.2.0data status	okinstallation	B6 Nyhavnadifferential loss correction	single-endedforward channel	channel 2reverse channel	N/Adate	2023/12/11time	04:55:08forward acquisition time	300,00reverse acquisition time	0,00gamma	499,1914k internal	0,3127k external	0,3127temperature offset calibration	1,0000default loss term (dB/km)	0,3820temperature slope calibration	1,0000multiplexer offset coefficient	1,0000multiplexer slope coefficient	1,0000fibre end	0,00T internal ref (°C)	20,27T ext. ref 1 (°C)	3,11T ext. ref 2 (°C)	3,10length (m)	temperature (°C)	Stokes	anti-Stokes-744,400	190,065	-0,026	0,029
-743,385	95,418	-0,170	0,145
-742,371	-40,427	0,150	0,058
-741,356	-12,486	-0,271	0,131
-740,342	-107,328	0,228	-0,037
-739,327	-139,460	-0,326	0,026
-738,312	278,702	0,076	-0,101
-737,298	-113,233	-0,331	0,048
-736,283	47,811	0,146	0,102
-735,269	800,000	-0,035	0,112
-734,254	-32,494	0,123	-0,051
-733,239	-131,241	-0,383	-0,037
-732,225	79,748	0,123	0,098
-731,210	583,254	0,055	0,101
-730,196	-200,000	0,000	0,045
-729,181	800,000	-0,011	0,032
-728,167	468,872	-0,069	-0,116
-727,152	-196,353	0,058	-0,000
-726,137	-14,053	-0,162	-0,077
-725,123	-70,011	-0,065	0,018
-724,108	239,325	-0,049	-0,061
-723,094	800,000	-0,046	-0,140
-722,079	-24,528	-0,158	-0,070
-721,064	546,396	-0,021	-0,038
-720,050	-51,486	-0,111	-0,038
-719,035	21,304	-0,044	-0,026
-718,021	-120,098	0,169	0,021
-717,006	111,627	-0,174	-0,156
-715,991	-64,410	-0,051	0,015
-714,977	-200,000	-0,011	-0,108
-713,962	208,600	-0,099	-0,116
-712,948	-12,170	0,036	0,018
-711,933	-200,000	0,021	-0,077
-710,918	205,863	0,008	-0,009
-709,904	-6,619	-0,065	-0,033
-708,889	170,325	-0,060	-0,064
-707,875	-94,932	-0,109	-0,022
-706,860	-194,637	0,145	-0,001
-705,845	671,369	-0,028	-0,054
-704,831	-200,000	0,030	-0,118
-703,816	-14,636	-0,108	0,051
-702,802	800,000	0,048	-0,124
-701,787	800,000	-0,049	-0,157
-700,772	141,733	-0,063	-0,062
-699,758	-200,000	-0,015	0,092
-698,743	19,599	0,066	0,039
-697,729	-58,897	0,090	-0,029
-696,714	121,968	0,037	0,034
-695,699	57,868	-0,072	0,052
-694,685	-173,192	-0,178	-0,004
-693,670	3,131	-0,121	0,065
-692,656	800,000	0,025	0,071
-691,641	-93,137	0,064	0,013
-690,627	349,085	0,069	-0,101
-689,612	-200,000	-0,022	0,128
-688,597	529,186	0,056	-0,099
-687,583	-200,000	-0,010	-0,100
-686,568	-167,860	-0,097	-0,003
-685,554	-44,394	-0,026	-0,010
-684,539	-200,000	-0,011	-0,053
-683,524	275,099	-0,077	-0,101
-682,510	96,109	-0,077	-0,066
-681,495	-118,835	-0,110	0,014
-680,481	124,034	0,057	-0,053
-679,466	708,119	-0,037	-0,073
-678,451	-200,000	-0,002	-0,090
-677,437	-200,000	-0,032	-0,171
-676,422	-13,396	-0,023	0,011
-675,408	151,525	0,048	0,048
-674,393	800,000	-0,010	0,028
-673,378	481,639	-0,053	0,090
-672,364	-43,340	-0,140	-0,052
-671,349	-76,742	-0,110	-0,028
-670,335	-54,911	0,065	-0,022
-669,320	800,000	-0,032	-0,070
-668,305	-100,916	0,059	0,011
-667,291	-200,000	-0,011	0,105
-666,276	-200,000	-0,014	-0,100
-665,262	26,990	-0,058	-0,036
-664,247	-27,950	0,096	-0,041
-663,232	-100,612	-0,087	0,016
-662,218	152,054	0,029	0,029
-661,203	-92,834	0,079	-0,016
-660,189	-141,917	0,118	-0,009
-659,174	183,316	-0,038	-0,042
-658,159	-200,000	0,012	-0,170
-657,145	-200,000	-0,025	0,098
-656,130	800,000	0,024	0,077
-655,116	659,530	0,055	0,105
-654,101	20,611	-0,118	0,071
-653,086	-200,000	-0,022	0,080
-652,072	-51,702	-0,037	0,013
-651,057	182,869	-0,040	-0,044
-650,043	67,751	-0,102	-0,077
-649,028	-65,864	0,130	-0,038
-648,014	-200,000	0,009	-0,041
-646,999	60,536	-0,127	-0,093
-645,984	-200,000	0,006	0,044
-644,970	116,932	0,109	0,099
-643,955	50,882	0,061	0,043
-642,941	-200,000	-0,011	-0,139
-641,926	190,311	-0,046	-0,052
-640,911	-80,308	0,076	0,019
-639,897	68,977	0,172	-0,131
-638,882	-200,000	-0,017	0,094
-637,868	-11,134	0,091	-0,044
-636,853	-6,704	-0,114	0,057
-635,838	169,764	-0,039	0,042
-634,824	-200,000	-0,020	0,091
-633,809	800,000	-0,005	0,017
-632,795	-12,731	0,058	-0,028
-631,780	154,587	0,048	0,049
-630,765	-200,000	-0,011	-0,076
-629,751	188,138	-0,035	-0,039
-628,736	-200,000	0,011	0,069
-627,722	517,445	0,039	0,068
-626,707	19,822	-0,138	-0,082
-625,692	118,689	-0,064	-0,059
-624,678	496,019	0,029	-0,049
-623,663	-200,000	0,019	-0,145
-622,649	-200,000	-0,010	0,064
-621,634	-200,000	0,001	-0,057
-620,619	-200,000	0,007	-0,116
-619,605	302,924	0,059	-0,081
-618,590	-111,106	0,088	-0,013
-617,576	-200,000	0,002	0,066
-616,561	287,512	-0,047	-0,064
-615,546	14,306	0,079	0,045
-614,532	660,051	-0,044	0,085
-613,517	150,425	0,095	-0,096
-612,503	178,683	-0,080	0,087
-611,488	-68,034	0,184	-0,053
-610,474	-119,465	0,119	0,015
-609,459	-200,000	0,002	-0,008
-608,444	-82,564	0,100	0,024
-607,430	135,843	-0,061	0,059
-606,415	63,027	-0,147	-0,109
-605,401	-111,012	-0,066	-0,010
-604,386	-3,839	-0,009	0,004
-603,371	52,092	-0,029	-0,020
-602,357	800,000	0,019	0,054
-601,342	-200,000	-0,015	-0,051
-600,328	448,389	-0,050	-0,082
-599,313	800,000	-0,069	-0,177
-598,298	160,601	-0,176	0,182
-597,284	-20,287	0,051	-0,023
-596,269	-200,000	-0,012	0,082
-595,255	-19,425	-0,037	-0,017
-594,240	186,625	0,028	-0,031
-593,225	-200,000	-0,035	-0,122
-592,211	800,000	-0,030	0,079
-591,196	-200,000	0,001	0,032
-590,182	265,652	-0,070	0,091
-589,167	-200,000	-0,016	0,081
-588,152	437,109	0,047	-0,076
-587,138	800,000	0,033	0,076
-586,123	220,962	0,053	-0,063
-585,109	800,000	0,018	0,048
-584,094	800,000	-0,012	-0,033
-583,079	474,584	-0,063	-0,106
-582,065	488,711	-0,046	-0,078
-581,050	-200,000	-0,012	0,090
-580,036	4,885	-0,030	0,017
-579,021	-0,592	0,020	-0,010
-578,006	-121,891	0,029	-0,003
-576,992	378,469	0,039	0,059
-575,977	-200,000	-0,039	0,146
-574,963	-9,774	-0,079	0,039
-573,948	59,925	0,062	0,045
-572,934	800,000	-0,064	0,143
-571,919	-200,000	0,010	-0,111
-570,904	-61,846	0,060	-0,018
-569,890	759,851	-0,034	-0,068
-568,875	-19,873	0,051	-0,023
-567,861	777,753	-0,062	0,126
-566,846	-200,000	0,033	0,140
-565,831	-200,000	0,013	0,044
-564,817	-200,000	-0,018	-0,068
-563,802	-90,522	-0,064	-0,014
-562,788	-91,143	-0,059	-0,012
-561,773	288,552	-0,070	0,094
-560,758	-50,750	-0,025	-0,009
-559,744	11,127	0,083	-0,047
-558,729	192,354	0,032	-0,036
-557,715	800,000	0,014	-0,034
-556,700	123,313	-0,067	-0,062
-555,685	-200,000	-0,007	-0,109
-554,671	-8,869	-0,041	-0,020
-553,656	355,342	0,097	-0,144
-552,642	-23,781	0,121	-0,053
-551,627	800,000	0,029	-0,059
-550,612	-91,683	-0,054	-0,011
-549,598	800,000	-0,014	-0,043
-548,583	-200,000	0,019	0,126
-547,569	-200,000	0,008	-0,030
-546,554	-88,377	-0,113	-0,025
-545,539	-26,748	0,037	-0,016
-544,525	-200,000	0,012	-0,117
-543,510	-106,442	0,174	-0,028
-542,496	-123,288	0,031	0,004
-541,481	161,420	-0,078	-0,081
-540,466	-48,948	-0,133	-0,047
-539,452	800,000	0,012	-0,030
-538,437	558,228	0,064	-0,115
-537,423	-81,064	0,084	0,020
-536,408	-197,700	0,115	-0,001
-535,393	-68,148	-0,171	0,049
-534,379	-200,000	-0,012	-0,221
-533,364	509,101	-0,054	-0,094
-532,350	25,897	-0,006	-0,004
-531,335	84,528	-0,061	-0,050
-530,321	-145,908	-0,097	-0,006
-529,306	-139,114	0,032	0,002
-528,291	-200,000	0,012	-0,086
-527,277	-0,626	0,067	0,035
-526,262	15,415	-0,049	-0,028
-525,248	800,000	-0,010	-0,030
-524,233	12,676	0,031	0,017
-523,218	-200,000	0,017	-0,114
-522,204	458,378	-0,035	-0,058
-521,189	-200,000	-0,006	-0,059
-520,175	290,738	-0,036	0,048
-519,160	-10,521	-0,027	-0,013
-518,145	-200,000	0,010	-0,043
-517,131	-52,761	0,047	0,016
-516,116	345,521	-0,052	0,075
-515,102	563,017	0,049	-0,088
-514,087	800,000	0,022	-0,054
-513,072	-159,786	-0,111	0,004
-512,058	76,236	0,071	-0,056
-511,043	511,029	0,021	-0,037
-510,029	135,340	-0,018	-0,017
-509,014	-25,549	0,219	-0,095
-507,999	52,871	-0,091	-0,064
-506,985	-133,518	-0,072	-0,007
-505,970	-92,897	-0,156	0,032
-504,956	310,680	-0,102	-0,142
-503,941	-63,401	0,154	0,047
-502,926	800,000	-0,035	0,099
-501,912	-200,000	0,004	0,043
-500,897	-16,030	-0,078	0,036
-499,883	-133,774	-0,032	-0,003
-498,868	262,464	-0,094	-0,120
-497,853	800,000	0,020	-0,044
-496,839	-200,000	-0,007	-0,039
-495,824	-113,138	0,077	-0,011
-494,810	-200,000	0,024	-0,104
-493,795	-74,714	-0,048	0,013
-492,781	-68,259	0,029	0,008
-491,766	114,578	-0,049	0,044
-490,751	-24,466	0,024	0,010
-489,737	205,376	-0,053	0,061
-488,722	-200,000	0,001	0,120
-487,708	-145,041	0,126	0,008
-486,693	39,557	-0,070	-0,046
-485,678	-39,478	-0,138	-0,053
-484,664	763,302	0,055	-0,110
-483,649	-200,000	-0,010	-0,081
-482,635	37,587	0,098	-0,064
-481,620	-131,905	0,052	-0,005
-480,605	800,000	0,058	-0,156
-479,591	21,079	0,038	-0,023
-478,576	-200,000	-0,008	0,072
-477,562	233,628	-0,040	0,048
-476,547	800,000	0,037	-0,119
-475,532	800,000	0,026	-0,076
-474,518	-41,891	-0,063	-0,024
-473,503	119,035	0,105	0,096
-472,489	151,082	-0,106	0,107
-471,474	-200,000	-0,008	-0,066
-470,459	-200,000	0,022	-0,095
-469,445	202,563	-0,115	0,131
-468,430	348,166	0,050	-0,073
-467,416	-58,202	-0,038	0,012
-466,401	-113,102	-0,120	-0,017
-465,386	131,909	0,105	0,100
-464,372	97,799	-0,122	0,103
-463,357	800,000	-0,017	0,047
-462,343	-200,000	-0,011	-0,089
-461,328	441,733	-0,019	0,031
-460,313	800,000	-0,053	-0,162
-459,299	204,187	0,073	0,084
-458,284	800,000	-0,032	-0,068
-457,270	-138,206	0,145	0,012
-456,255	345,193	0,051	0,074
-455,241	800,000	-0,016	0,034
-454,226	-56,606	0,028	-0,009
-453,211	-175,621	-0,041	0,001
-452,197	525,962	0,067	0,117
-451,182	800,000	0,047	0,111
-450,168	580,082	0,008	0,014
-449,153	-191,169	0,108	0,001
-448,138	126,268	0,010	0,010
-447,124	-137,147	0,108	-0,009
-446,109	600,618	0,073	0,134
-445,095	220,255	0,067	0,079
-444,080	245,344	-0,139	0,173
-443,065	-200,000	0,020	-0,089
-442,051	-67,338	-0,101	-0,029
-441,036	47,757	-0,033	0,023
-440,022	-200,000	-0,022	0,086
-439,007	215,471	0,069	0,081
-437,992	128,210	-0,067	0,062
-436,978	88,734	-0,040	0,033
-435,963	67,570	0,009	0,006
-434,949	800,000	0,020	-0,052
-433,934	140,129	-0,085	0,083
-432,919	-200,000	-0,016	-0,124
-431,905	309,805	-0,071	-0,098
-430,890	-200,000	0,041	0,159
-429,876	67,893	-0,070	0,053
-428,861	-129,481	-0,045	-0,004
-427,846	93,271	-0,085	0,071
-426,832	-200,000	0,001	0,009
-425,817	-131,613	-0,093	0,009
-424,803	284,440	-0,045	-0,060
-423,788	-190,949	0,099	-0,001
-422,773	105,321	0,090	0,078
-421,759	800,000	-0,061	0,167
-420,744	-0,583	-0,046	-0,024
-419,730	-63,107	0,109	0,033
-418,715	49,177	-0,168	-0,116
-417,701	-14,716	-0,030	-0,014
-416,686	316,754	-0,037	0,051
-415,671	-200,000	-0,007	0,055
-414,657	559,364	-0,038	0,068
-413,642	464,085	-0,071	0,117
-412,628	800,000	-0,051	-0,120
-411,613	121,610	0,081	-0,074
-410,598	800,000	-0,021	0,049
-409,584	156,838	-0,012	0,013
-408,569	800,000	0,032	0,069
-407,555	-72,646	0,145	-0,039
-406,540	800,000	0,030	-0,086
-405,525	-200,000	-0,005	-0,055
-404,511	-122,804	0,139	-0,016
-403,496	-200,000	-0,005	0,088
-402,482	55,899	-0,061	0,043
-401,467	96,463	0,120	0,101
-400,452	49,841	-0,049	0,034
-399,438	800,000	0,039	-0,087
-398,423	-200,000	-0,005	0,086
-397,409	800,000	-0,038	-0,085
-396,394	-200,000	0,033	-0,164
-395,379	-121,812	-0,042	0,005
-394,365	-14,267	0,040	0,019
-393,350	34,943	0,132	0,085
-392,336	594,889	0,052	0,095
-391,321	-200,000	0,027	-0,097
-390,306	420,947	-0,037	-0,059
-389,292	-169,548	-0,206	-0,005
-388,277	-200,000	0,019	0,138
-387,263	-200,000	0,007	0,095
-386,248	-200,000	-0,035	0,116
-385,233	379,583	0,036	0,054
-384,219	-108,113	0,211	0,033
-383,204	547,620	-0,022	0,038
-382,190	293,458	-0,019	-0,026
-381,175	-53,139	0,049	0,016
-380,160	-45,445	-0,098	0,035
-379,146	1,131	-0,008	-0,004
-378,131	-81,992	0,053	0,013
-377,117	800,000	0,041	0,119
-376,102	187,983	-0,099	-0,108
-375,088	-200,000	-0,003	0,064
-374,073	800,000	-0,028	-0,082
-373,058	800,000	-0,048	0,127
-372,044	26,664	0,075	0,046
-371,029	54,571	-0,050	0,035
-370,015	-200,000	-0,033	-0,198
-369,000	-181,532	0,100	-0,001
-367,985	213,649	-0,031	0,036
-366,971	167,375	-0,040	0,041
-365,956	238,773	-0,075	0,092
-364,942	-117,515	0,241	0,032
-363,927	250,529	-0,010	0,013
-362,912	-200,000	0,001	0,041
-361,898	106,691	-0,081	0,071
-360,883	-170,311	0,192	-0,005
-359,869	272,934	-0,061	-0,080
-358,854	193,284	-0,085	-0,094
-357,839	44,268	0,077	0,052
-356,825	-200,000	0,041	0,149
-355,810	408,535	-0,107	0,167
-354,796	-200,000	0,004	0,125
-353,781	-200,000	0,003	0,025
-352,766	-114,104	0,079	0,011
-351,752	535,337	0,024	0,043
-350,737	-149,358	0,147	0,008
-349,723	-50,696	-0,097	-0,033
-348,708	54,943	0,068	0,048
-347,693	800,000	0,018	-0,042
-346,679	267,616	0,022	-0,028
-345,664	-200,000	-0,002	-0,019
-344,650	213,486	-0,021	-0,025
-343,635	62,924	0,106	0,077
-342,620	-200,000	0,003	0,025
-341,606	-75,103	0,036	-0,009
-340,591	-6,644	0,098	-0,049
-339,577	436,984	0,076	0,121
-338,562	187,299	0,010	-0,011
-337,548	-78,409	0,086	-0,021
-336,533	-200,000	0,029	-0,118
-335,518	274,349	-0,030	-0,039
-334,504	-200,000	-0,000	0,030
-333,489	-19,821	-0,032	-0,014
-332,475	654,185	-0,041	-0,078
-331,460	23,843	-0,121	-0,073
-330,445	-200,000	0,014	-0,141
-329,431	-200,000	0,006	-0,032
-328,416	383,861	0,045	0,068
-327,402	422,941	-0,040	0,063
-326,387	800,000	-0,023	0,048
-325,372	353,016	-0,065	-0,094
-324,358	94,089	-0,101	-0,084
-323,343	-200,000	-0,006	-0,067
-322,329	-37,590	0,145	-0,056
-321,314	-188,624	0,127	0,001
-320,299	-200,000	0,005	0,047
-319,285	472,892	0,021	-0,035
-318,270	-200,000	-0,010	-0,048
-317,256	-56,542	-0,119	-0,038
-316,241	649,674	-0,045	-0,084
-315,226	-70,244	0,052	0,014
-314,212	229,432	-0,067	-0,080
-313,197	-0,583	0,009	0,004
-312,183	117,914	-0,065	0,059
-311,168	-200,000	-0,011	-0,066
-310,153	154,041	0,026	-0,026
-309,139	34,392	0,060	0,038
-308,124	-200,000	-0,014	0,103
-307,110	-110,380	0,045	0,007
-306,095	416,848	-0,058	0,091
-305,080	800,000	0,037	0,106
-304,066	-200,000	-0,017	0,114
-303,051	235,307	0,048	0,058
-302,037	-200,000	0,011	0,060
-301,022	-6,010	0,103	-0,052
-300,008	-57,935	-0,044	0,014
-298,993	-200,000	-0,003	-0,014
-297,978	-109,952	0,118	-0,018
-296,964	33,745	0,037	-0,024
-295,949	276,461	-0,039	-0,051
-294,935	80,143	-0,068	0,054
-293,920	-15,369	0,079	-0,037
-292,905	-200,000	-0,087	0,000
-291,891	710,419	0,075	0,145
-290,876	58,596	0,022	0,015
-289,862	-37,138	-0,054	-0,021
-288,847	255,024	0,017	0,021
-287,832	-92,242	-0,020	-0,004
-286,818	33,389	-0,089	-0,056
-285,803	237,416	0,086	-0,105
-284,789	-62,060	0,044	-0,013
-283,774	-184,690	-0,058	0,001
-282,759	68,676	-0,011	0,008
-281,745	800,000	0,030	-0,083
-280,730	-200,000	0,010	-0,044
-279,716	800,000	0,011	0,026
-278,701	-200,000	0,026	0,140
-277,686	-56,907	0,132	0,042
-276,672	-11,627	-0,143	0,068
-275,657	-5,801	-0,124	-0,062
-274,643	-200,000	0,013	-0,123
-273,628	-138,908	-0,078	-0,006
-272,613	-150,130	-0,123	0,007
-271,599	-45,137	0,076	0,028
-270,584	171,941	0,024	0,025
-269,570	800,000	0,062	0,194
-268,555	564,807	-0,068	0,121
-267,540	74,381	-0,088	0,068
-266,526	-200,000	0,018	-0,104
-265,511	-56,221	0,081	-0,026
-264,497	-130,162	0,073	0,007
-263,482	18,444	-0,091	-0,053
-262,467	-10,189	0,209	-0,101
-261,453	-200,000	-0,008	-0,061
-260,438	330,567	0,063	-0,089
-259,424	-108,866	-0,121	-0,019
-258,409	-58,982	0,124	0,039
-257,395	-200,000	-0,018	0,111
-256,380	-17,288	-0,112	0,052
-255,365	-1,500	0,052	-0,027
-254,351	36,802	0,058	0,037
-253,336	-200,000	-0,022	-0,123
-252,322	-154,967	0,038	-0,002
-251,307	114,595	0,041	-0,037
-250,292	-114,412	0,194	0,027
-249,278	-91,831	-0,017	0,003
-248,263	-200,000	0,010	0,051
-247,249	-200,000	-0,014	0,088
-246,234	-151,920	0,139	-0,007
-245,219	-93,399	0,243	0,049
-244,205	-66,902	-0,075	-0,021
-243,190	-105,319	0,064	0,011
-242,176	532,922	0,072	0,124
-241,161	-200,000	-0,023	0,103
-240,146	-68,817	-0,046	-0,013
-239,132	800,000	0,024	0,060
-238,117	647,768	0,051	0,096
-237,103	-200,000	0,004	-0,014
-236,088	-26,701	0,046	0,020
-235,073	113,326	-0,053	0,047
-234,059	-88,386	0,059	-0,013
-233,044	308,053	0,073	0,099
-232,030	-200,000	-0,002	-0,056
-231,015	800,000	0,021	0,060
-230,000	-13,367	-0,119	0,056
-228,986	-114,679	-0,085	0,012
-227,971	-142,348	-0,028	-0,002
-226,957	-200,000	0,001	0,039
-225,942	-38,603	-0,017	-0,007
-224,927	7,484	-0,122	-0,067
-223,913	5,767	-0,143	0,077
-222,898	-200,000	0,028	0,108
-221,884	-189,012	-0,055	0,000
-220,869	-100,594	-0,070	-0,013
-219,855	103,354	0,041	0,035
-218,840	-63,593	-0,041	0,012
-217,825	451,541	0,068	-0,110
-216,811	-165,613	0,069	-0,002
-215,796	162,006	0,012	0,012
-214,782	400,049	0,051	-0,079
-213,767	-200,000	-0,006	0,058
-212,752	-89,674	-0,111	0,023
-211,738	-45,136	-0,096	-0,035
-210,723	-200,000	-0,052	0,171
-209,709	-16,757	-0,244	-0,112
-208,694	495,060	0,052	-0,087
-207,679	152,257	-0,090	-0,090
-206,665	-73,136	0,110	-0,029
-205,650	98,130	0,086	-0,072
-204,636	240,614	0,032	-0,039
-203,621	-52,837	-0,105	-0,035
-202,606	800,000	-0,030	-0,071
-201,592	-104,387	-0,069	-0,012
-200,577	800,000	-0,046	-0,126
-199,563	-41,801	0,150	-0,056
-198,548	123,826	-0,138	0,126
-197,533	535,031	0,050	0,087
-196,519	416,060	-0,042	0,066
-195,504	-200,000	-0,001	0,090
-194,490	-200,000	0,004	0,016
-193,475	-102,289	-0,076	-0,013
-192,460	442,662	0,090	-0,145
-191,446	-200,000	-0,019	-0,065
-190,431	141,376	0,051	0,049
-189,417	231,131	-0,143	0,170
-188,402	427,522	0,043	-0,068
-187,387	-76,292	-0,052	0,013
-186,373	410,838	0,037	-0,057
-185,358	-76,557	-0,182	0,046
-184,344	-77,337	0,139	-0,035
-183,329	334,604	0,051	-0,072
-182,315	223,964	-0,043	-0,050
-181,300	-200,000	-0,013	0,090
-180,285	122,426	0,023	-0,021
-179,271	144,457	0,069	-0,067
-178,256	-15,520	-0,030	-0,014
-177,242	196,710	0,074	0,082
-176,227	673,503	-0,051	0,097
-175,212	94,895	0,022	-0,018
-174,198	-150,609	-0,087	-0,005
-173,183	545,928	-0,063	0,110
-172,169	800,000	-0,072	-0,185
-171,154	93,923	-0,077	0,064
-170,139	67,594	0,086	0,064
-169,125	-35,175	0,113	-0,045
-168,110	45,213	-0,044	-0,029
-167,096	-200,000	0,002	-0,041
-166,081	-103,214	-0,049	-0,008
-165,066	-200,000	-0,010	-0,040
-164,052	-102,399	0,074	0,013
-163,037	-143,646	-0,055	-0,004
-162,023	601,752	0,047	-0,085
-161,008	14,370	-0,022	0,012
-159,993	-200,000	-0,007	-0,071
-158,979	80,537	-0,063	-0,049
-157,964	-200,000	-0,026	-0,085
-156,950	-161,662	-0,138	-0,005
-155,935	-200,000	0,001	0,116
-154,920	-170,253	0,106	-0,003
-153,906	-24,015	-0,074	0,032
-152,891	339,936	0,011	0,016
-151,877	-200,000	-0,013	-0,074
-150,862	800,000	-0,043	0,122
-149,847	4,752	-0,082	0,044
-148,833	739,474	-0,037	0,072
-147,818	-175,214	0,127	0,002
-146,804	-200,000	0,010	0,150
-145,789	-200,000	0,007	0,030
-144,775	114,015	-0,049	-0,043
-143,760	42,145	-0,181	-0,119
-142,745	38,510	-0,112	-0,072
-141,731	-200,000	-0,006	-0,037
-140,716	4,005	0,173	0,092
-139,702	-200,000	0,011	0,088
-138,687	201,133	-0,082	0,092
-137,672	-200,000	-0,001	0,019
-136,658	380,686	-0,090	-0,134
-135,643	221,967	0,119	-0,139
-134,629	-200,000	0,031	-0,139
-133,614	230,799	-0,022	0,026
-132,599	800,000	0,053	-0,142
-131,585	-200,000	0,002	-0,059
-130,570	-37,408	0,074	-0,029
-129,556	800,000	0,006	-0,016
-128,541	186,219	-0,032	-0,035
-127,526	206,277	0,069	0,079
-126,512	-39,671	0,064	-0,024
-125,497	-200,000	0,011	0,060
-124,483	-200,000	-0,022	0,087
-123,468	-72,834	0,133	0,035
-122,453	-200,000	-0,010	-0,081
-121,439	-169,133	-0,114	-0,003
-120,424	-97,101	-0,177	-0,033
-119,410	-8,911	0,130	-0,063
-118,395	800,000	-0,027	0,058
-117,380	-41,968	0,108	-0,040
-116,366	-200,000	-0,011	-0,041
-115,351	-200,000	0,010	-0,080
-114,337	-15,139	-0,150	0,069
-113,322	-0,280	-0,075	-0,038
-112,307	-57,097	0,090	-0,029
-111,293	239,637	0,024	0,029
-110,278	-83,589	-0,020	-0,005
-109,264	-65,704	-0,067	-0,019
-108,249	-200,000	0,016	-0,201
-107,234	-200,000	0,002	0,066
-106,220	-79,447	-0,135	-0,033
-105,205	54,164	-0,013	0,009
-104,191	-41,332	0,099	-0,037
-103,176	267,849	0,032	-0,041
-102,162	-200,000	0,010	0,040
-101,147	49,538	0,082	-0,056
-100,132	276,514	-0,048	-0,062
-99,118	43,206	0,074	0,049
-98,103	-200,000	-0,025	-0,124
-97,089	-24,106	0,097	-0,042
-96,074	310,337	0,045	-0,062
-95,059	-200,000	-0,028	-0,094
-94,045	-200,000	-0,007	0,030
-93,030	587,556	0,061	0,109
-92,016	-200,000	-0,023	-0,077
-91,001	747,852	0,036	-0,071
-89,986	800,000	0,011	-0,026
-88,972	269,731	0,031	0,039
-87,957	-14,205	0,080	0,037
-86,943	6,711	0,066	-0,036
-85,928	62,483	-0,031	-0,023
-84,913	17,144	-0,105	-0,060
-83,899	800,000	-0,027	0,067
-82,884	-105,433	0,104	-0,017
-81,870	-193,254	-0,076	0,000
-80,855	-94,327	-0,078	0,015
-79,840	-59,332	-0,058	0,018
-78,826	49,278	-0,090	-0,061
-77,811	-58,935	-0,223	-0,070
-76,797	800,000	-0,034	-0,071
-75,782	-200,000	0,020	-0,245
-74,767	-200,000	-0,007	0,069
-73,753	90,557	-0,055	0,045
-72,738	399,377	0,079	0,121
-71,724	240,280	-0,093	-0,112
-70,709	-65,788	0,027	-0,008
-69,694	-132,973	-0,104	0,009
-68,680	-24,965	0,065	0,028
-67,665	-200,000	0,003	-0,158
-66,651	446,127	0,065	0,104
-65,636	147,659	-0,067	0,065
-64,622	6,645	0,029	-0,015
-63,607	-22,520	-0,101	-0,044
-62,592	-33,250	-0,052	0,021
-61,578	98,645	-0,102	-0,086
-60,563	432,871	-0,024	0,039
-59,549	94,204	-0,087	0,072
-58,534	-83,028	-1,641	-0,380
-57,519	561,591	-0,754	-1,327
-56,505	-200,000	-0,855	-4,553
-55,490	-69,303	0,513	-0,142
-54,476	800,000	5,097	11,950
-53,461	-200,000	15,063	263,895
-52,446	-200,000	698,707	2236,536
-51,432	573,997	1621,706	2878,687
-50,417	120,958	1629,754	1469,426
-49,403	80,979	1284,753	1003,980
-48,388	37,970	1023,848	658,406
-47,373	22,797	983,924	582,743
-46,359	21,853	973,022	573,160
-45,344	20,527	968,842	566,332
-44,330	20,542	967,595	565,632
-43,315	20,358	966,030	564,091
-42,300	20,311	964,947	563,283
-41,286	20,391	964,052	563,000
-40,271	20,310	962,990	562,095
-39,257	20,314	962,149	561,593
-38,242	20,337	961,143	561,059
-37,227	20,367	960,395	560,699
-36,213	20,365	959,546	560,174
-35,198	20,264	958,632	559,290
-34,184	20,342	957,851	559,066
-33,169	20,245	957,053	558,263
-32,154	20,262	956,214	557,806
-31,140	20,377	955,031	557,467
-30,125	20,355	954,432	557,023
-29,111	20,298	953,612	556,337
-28,096	20,261	953,125	555,914
-27,082	20,309	952,175	555,492
-26,067	20,227	951,594	554,865
-25,052	20,268	950,816	554,523
-24,038	20,275	950,101	554,105
-23,023	20,237	949,491	553,606
-22,009	20,356	948,779	553,551
-20,994	20,342	948,009	553,036
-19,979	20,325	947,665	552,757
-18,965	20,311	946,896	552,243
-17,950	20,302	946,319	551,856
-16,936	20,236	945,623	551,216
-15,921	20,310	944,878	550,998
-14,906	20,200	944,419	550,357
-13,892	20,171	943,677	549,808
-12,877	20,237	942,945	549,572
-11,863	20,112	942,626	548,964
-10,848	20,155	941,955	548,690
-9,833	20,297	941,437	548,819
-8,819	20,227	940,967	548,300
-7,804	20,186	940,135	547,664
-6,790	20,159	939,495	547,184
-5,775	20,160	939,079	546,920
-4,760	20,178	938,348	546,530
-3,746	20,199	937,664	546,176
-2,731	19,990	937,082	545,156
-1,717	19,994	936,338	544,714
-0,702	19,963	935,751	544,253
0,313	19,821	935,069	544,229
1,327	22,773	933,293	552,456
2,342	31,972	794,683	494,906
3,356	29,233	450,746	276,559
4,371	-1,169	295,524	150,753
5,386	-5,425	276,751	137,105
6,400	-6,887	271,045	132,898
7,415	-7,441	268,791	131,267
8,429	-6,811	267,493	131,204
9,444	-6,966	266,784	130,701
10,459	-6,772	266,047	130,507
11,473	-6,941	265,461	130,053
12,488	-6,781	264,982	129,953
13,502	-6,916	264,132	129,401
14,517	-6,898	264,121	129,401
15,531	-6,572	263,648	129,455
16,546	-6,513	263,239	129,296
17,561	-6,552	262,907	129,086
18,575	-6,401	262,688	129,104
19,590	-6,679	262,339	128,669
20,604	-6,528	262,110	128,682
21,619	-6,774	261,888	128,339
22,634	-6,635	261,292	128,161
23,648	-6,592	260,988	128,038
24,663	-6,710	260,983	127,918
25,677	-6,576	260,651	127,865
26,692	-6,560	260,319	127,705
27,707	-6,733	260,148	127,455
28,721	-6,533	259,842	127,472
29,736	-6,539	259,763	127,417
30,750	-6,770	259,503	127,072
31,765	-6,741	259,196	126,935
32,780	-6,655	258,802	126,809
33,794	-6,715	258,544	126,617
34,809	-6,809	258,545	126,522
35,823	-6,482	258,118	126,593
36,838	-6,646	257,867	126,313
37,853	-6,748	257,759	126,158
38,867	-6,833	257,516	125,953
39,882	-6,640	257,219	125,967
40,896	-6,644	257,004	125,847
41,911	-6,674	256,752	125,686
42,926	-6,882	256,606	125,419
43,940	-6,714	256,254	125,385
44,955	-6,854	256,088	125,169
45,969	-6,974	255,954	124,987
46,984	-7,002	255,682	124,818
47,999	-7,154	255,448	124,559
49,013	-7,088	255,035	124,404
50,028	-7,263	254,848	124,148
51,042	-7,400	254,550	123,873
52,057	-7,411	254,385	123,771
53,071	-7,329	254,224	123,753
54,086	-7,281	254,096	123,722
55,101	-7,276	253,839	123,591
56,115	-6,847	253,729	123,900
57,130	-6,757	253,645	123,927
58,144	-6,548	253,451	124,003
59,159	-6,453	253,075	123,890
60,174	-6,711	252,957	123,597
61,188	-6,680	252,820	123,546
62,203	-6,629	252,642	123,493
63,217	-6,639	252,503	123,404
64,232	-6,744	252,219	123,164
65,247	-6,727	251,932	123,028
66,261	-6,723	251,725	122,920
67,276	-6,866	251,485	122,667
68,290	-6,986	251,320	122,473
69,305	-7,166	250,995	122,148
70,320	-7,049	250,909	122,196
71,334	-6,786	250,728	122,323
72,349	-6,780	250,756	122,332
73,363	-6,421	250,286	122,400
74,378	-6,546	250,069	122,175
75,393	-6,731	249,965	121,955
76,407	-6,782	249,767	121,803
77,422	-6,771	249,568	121,706
78,436	-6,684	249,357	121,666
79,451	-6,546	249,106	121,650
80,466	-6,816	248,786	121,252
81,480	-6,878	248,621	121,109
82,495	-6,936	248,487	120,983
83,509	-6,768	248,266	121,008
84,524	-7,045	248,246	120,751
85,539	-7,037	247,941	120,600
86,553	-7,019	247,634	120,455
87,568	-6,896	247,475	120,471
88,582	-6,737	247,260	120,490
89,597	-6,877	247,150	120,307
90,611	-6,880	247,000	120,220
91,626	-6,642	246,871	120,349
92,641	-6,533	246,597	120,297
93,655	-6,727	246,364	120,008
94,670	-6,699	246,244	119,963
95,684	-6,975	246,072	119,636
96,699	-6,815	245,728	119,592
97,714	-6,944	245,557	119,390
98,728	-6,930	245,354	119,292
99,743	-7,113	245,333	119,118
100,757	-7,195	245,068	118,910
101,772	-6,909	244,687	118,954
102,787	-6,744	244,672	119,074
103,801	-6,866	244,467	118,862
104,816	-6,843	244,340	118,809
105,830	-6,712	244,233	118,855
106,845	-6,692	244,099	118,797
107,860	-6,834	244,012	118,625
108,874	-7,084	243,744	118,276
109,889	-6,953	243,502	118,257
110,903	-7,135	243,369	118,030
111,918	-7,043	243,156	117,993
112,933	-6,865	242,900	118,006
113,947	-6,707	242,769	118,063
114,962	-6,853	242,562	117,831
115,976	-6,770	242,396	117,808
116,991	-6,797	242,175	117,668
118,006	-6,623	241,967	117,701
119,020	-6,783	241,991	117,569
120,035	-6,580	241,732	117,601
121,049	-6,637	241,584	117,471
122,064	-6,606	241,487	117,439
123,079	-6,586	241,101	117,258
124,093	-6,868	241,043	116,987
125,108	-7,029	240,820	116,735
126,122	-6,980	240,546	116,632
127,137	-6,964	240,428	116,578
128,151	-7,054	240,344	116,453
129,166	-7,105	240,160	116,312
130,181	-7,154	239,873	116,122
131,195	-6,918	239,704	116,224
132,210	-7,032	239,606	116,072
133,224	-6,690	239,325	116,204
134,239	-6,832	239,184	116,010
135,254	-6,735	238,936	115,959
136,268	-6,887	238,806	115,761
137,283	-7,143	238,620	115,452
138,297	-7,201	238,375	115,276
139,312	-7,326	238,088	115,025
140,327	-6,984	238,033	115,266
141,341	-6,558	237,984	115,578
142,356	-6,421	237,867	115,622
143,370	-6,604	237,790	115,426
144,385	-6,802	237,635	115,180
145,400	-6,520	237,531	115,348
146,414	-6,688	237,284	115,082
147,429	-6,548	237,241	115,164
148,443	-6,524	236,843	114,980
149,458	-6,415	236,580	114,930
150,473	-6,619	236,638	114,783
151,487	-6,618	236,399	114,658
152,502	-6,433	236,242	114,721
153,516	-6,516	236,007	114,529
154,531	-6,579	235,714	114,327
155,546	-6,675	235,577	114,173
156,560	-6,698	235,441	114,078
157,575	-6,919	235,215	113,782
158,589	-6,644	235,017	113,896
159,604	-6,500	234,938	113,963
160,619	-6,247	234,843	114,108
161,633	-6,299	234,732	114,003
162,648	-6,435	234,598	113,819
163,662	-6,500	234,431	113,675
164,677	-6,723	234,193	113,373
165,692	-6,700	234,130	113,350
166,706	-6,516	234,043	113,445
167,721	-6,383	233,779	113,412
168,735	-6,445	233,554	113,244
169,750	-6,307	233,413	113,275
170,764	-6,480	233,187	113,018
171,779	-6,556	233,133	112,921
172,794	-6,384	233,141	113,052
173,808	-6,786	232,652	112,486
174,823	-6,921	232,440	112,267
175,837	-7,099	232,322	112,059
176,852	-6,837	232,290	112,240
177,867	-6,612	232,233	112,381
178,881	-6,422	232,080	112,447
179,896	-6,364	231,810	112,351
180,910	-6,340	231,800	112,355
181,925	-6,507	231,553	112,095
182,940	-6,570	231,432	111,976
183,954	-6,464	231,309	111,990
184,969	-6,374	231,160	111,979
185,983	-6,414	231,118	111,917
186,998	-6,471	230,887	111,751
188,013	-6,436	230,697	111,677
189,027	-6,370	230,395	111,572
190,042	-6,404	230,334	111,506
191,056	-6,251	230,100	111,502
192,071	-6,429	230,020	111,314
193,086	-6,563	229,916	111,149
194,100	-6,806	229,799	110,893
195,115	-7,005	229,365	110,519
196,129	-7,407	228,969	110,005
197,144	-3,819	230,430	113,503
198,159	1,200	231,825	118,117
199,173	4,236	232,521	120,844
200,188	4,445	232,468	120,970
201,202	4,659	232,267	121,022
202,217	4,671	232,275	121,025
203,232	4,934	232,216	121,189
204,246	4,838	231,935	120,956
205,261	4,930	231,850	120,973
206,275	5,114	231,774	121,066
207,290	4,986	231,658	120,896
208,304	5,140	231,362	120,850
209,319	5,249	231,092	120,783
210,334	5,024	230,980	120,539
211,348	4,862	230,645	120,227
212,363	4,289	230,443	119,667
213,377	4,216	230,272	119,511
214,392	4,212	230,173	119,446
215,407	4,299	230,043	119,435
216,421	4,185	229,974	119,300
217,436	4,431	229,563	119,266
218,450	3,984	229,540	118,899
219,465	4,014	229,334	118,804
220,480	4,124	229,216	118,817
221,494	4,067	228,980	118,640
222,509	4,269	228,836	118,710
223,523	4,227	228,758	118,627
224,538	4,034	228,661	118,418
225,553	4,181	228,597	118,488
226,567	4,227	228,451	118,436
227,582	4,605	228,279	118,627
228,596	4,775	228,263	118,738
229,611	4,305	228,039	118,252
230,626	4,189	227,736	117,995
231,640	4,025	227,671	117,825
232,655	4,204	227,579	117,904
233,669	4,641	227,656	118,268
234,684	4,822	227,467	118,297
235,699	4,483	227,080	117,827
236,713	4,426	226,922	117,691
237,728	3,932	226,821	117,251
238,742	4,216	226,500	117,291
239,757	4,241	226,403	117,250
240,772	4,138	226,203	117,057
241,786	4,431	226,022	117,175
242,801	4,305	226,134	117,127
243,815	4,781	225,954	117,385
244,830	4,718	225,792	117,243
245,844	4,561	225,537	116,981
246,859	4,482	225,476	116,879
247,874	4,525	225,408	116,866
248,888	4,465	225,107	116,654
249,903	4,442	224,916	116,527
250,917	4,360	224,824	116,407
251,932	4,351	224,547	116,246
252,947	4,271	224,499	116,151
253,961	4,099	224,444	115,983
254,976	4,191	224,178	115,904
255,990	4,413	224,104	116,023
257,005	4,401	224,112	116,007
258,020	4,575	223,877	116,006
259,034	4,581	223,833	115,977
260,049	4,584	223,576	115,836
261,063	4,285	223,517	115,571
262,078	4,497	223,384	115,650
263,093	4,826	223,285	115,835
264,107	4,648	223,190	115,643
265,122	4,604	222,935	115,468
266,136	4,900	222,839	115,628
267,151	4,997	222,575	115,553
268,166	4,391	222,302	114,950
269,180	4,174	222,157	114,703
270,195	4,056	222,120	114,586
271,209	4,225	221,867	114,571
272,224	4,124	221,893	114,499
273,239	4,318	221,687	114,526
274,253	4,290	221,477	114,387
275,268	4,053	221,355	114,138
276,282	3,988	221,089	113,943
277,297	3,947	220,866	113,787
278,312	3,814	220,880	113,686
279,326	4,024	220,869	113,826
280,341	4,253	220,577	113,835
281,355	4,229	220,581	113,808
282,370	4,349	220,293	113,738
283,384	4,120	220,254	113,539
284,399	4,032	219,955	113,310
285,414	3,863	219,956	113,176
286,428	4,223	219,843	113,373
287,443	4,355	219,654	113,362
288,457	4,358	219,635	113,344
289,472	4,443	219,305	113,226
290,487	3,942	219,109	112,747
291,501	3,862	219,054	112,650
292,516	4,026	218,811	112,636
293,530	4,048	218,797	112,635
294,545	4,027	218,619	112,517
295,560	4,013	218,529	112,451
296,574	4,028	218,418	112,395
297,589	4,134	218,401	112,453
298,603	4,329	218,189	112,476
299,618	4,127	218,053	112,249
300,633	4,429	217,835	112,346
301,647	4,333	217,879	112,289
302,662	4,479	217,733	112,311
303,676	4,538	217,505	112,226
304,691	4,509	217,451	112,166
305,706	4,578	217,300	112,129
306,720	4,382	217,130	111,889
307,735	4,357	216,914	111,749
308,749	4,139	216,878	111,563
309,764	4,389	216,558	111,569
310,779	4,743	216,504	111,788
311,793	4,223	216,450	111,374
312,808	4,557	216,124	111,437
313,822	4,343	216,109	111,265
314,837	4,156	215,969	111,049
315,852	4,136	215,727	110,900
316,866	4,239	215,582	110,889
317,881	4,326	215,498	110,898
318,895	4,112	215,532	110,753
319,910	4,367	215,222	110,766
320,925	4,112	215,015	110,467
321,939	3,906	214,832	110,216
322,954	3,886	214,697	110,123
323,968	4,337	214,693	110,433
324,983	4,208	214,653	110,310
325,997	4,510	214,412	110,393
327,012	4,406	214,380	110,292
328,027	4,489	214,199	110,249
329,041	4,509	214,137	110,221
330,056	4,713	213,981	110,276
331,070	4,362	213,748	109,896
332,085	3,996	213,481	109,489
333,100	3,813	213,385	109,300
334,114	4,203	213,251	109,498
335,129	4,042	213,173	109,335
336,143	4,111	213,001	109,285
337,158	4,118	213,082	109,322
338,173	4,226	212,684	109,185
339,187	4,187	212,600	109,104
340,202	3,727	212,389	108,661
341,216	3,881	212,252	108,690
342,231	4,015	212,204	108,750
343,246	4,121	212,029	108,725
344,260	4,084	211,969	108,659
345,275	4,280	211,815	108,709
346,289	4,246	211,760	108,647
347,304	4,370	211,658	108,672
348,319	4,364	211,331	108,490
349,333	4,495	211,153	108,481
350,348	4,145	211,315	108,309
351,362	4,466	210,955	108,340
352,377	4,531	210,917	108,356
353,392	4,118	210,855	108,025
354,406	4,034	210,796	107,926
355,421	193,364	1343,184	1428,187
356,435	154,342	1481,214	1428,264
