DTS Sentinel unit serial number:	SN410029Multiplexer serial number:	ORYXHardware model number:	OX2-SRSoftware version number:	ORYX F/W v4,00 Oryx Data Collector v3.7.2.0data status	okinstallation	B6 Nyhavnadifferential loss correction	single-endedforward channel	channel 2reverse channel	N/Adate	2023/12/09time	16:40:08forward acquisition time	300,00reverse acquisition time	0,00gamma	499,1914k internal	0,3131k external	0,3131temperature offset calibration	1,0000default loss term (dB/km)	0,3820temperature slope calibration	1,0000multiplexer offset coefficient	1,0000multiplexer slope coefficient	1,0000fibre end	0,00T internal ref (°C)	20,89T ext. ref 1 (°C)	4,69T ext. ref 2 (°C)	4,67length (m)	temperature (°C)	Stokes	anti-Stokes-744,400	139,521	0,056	0,055
-743,385	-139,693	-0,385	0,030
-742,371	-200,000	0,026	0,143
-741,356	382,286	-0,129	0,198
-740,342	649,616	-0,005	0,010
-739,327	130,745	-0,257	0,245
-738,312	483,041	0,032	0,054
-737,298	-66,033	-0,320	-0,094
-736,283	-93,994	0,081	0,016
-735,269	36,682	-0,187	0,122
-734,254	800,000	0,091	0,190
-733,239	-100,239	-0,449	-0,082
-732,225	80,334	0,077	-0,061
-731,210	88,192	-0,032	-0,026
-730,196	169,491	0,073	0,078
-729,181	-121,100	-0,088	0,011
-728,167	-122,700	0,104	-0,012
-727,152	-13,411	0,118	0,057
-726,137	192,725	-0,049	-0,055
-725,123	160,364	-0,152	-0,158
-724,108	-200,000	-0,030	-0,132
-723,094	163,206	-0,108	0,113
-722,079	54,650	-0,068	-0,048
-721,064	198,131	0,082	0,093
-720,050	246,238	0,096	0,121
-719,035	800,000	-0,020	0,052
-718,021	223,070	-0,095	-0,113
-717,006	22,048	-0,079	-0,048
-715,991	-65,587	-0,173	-0,051
-714,977	65,271	-0,050	-0,037
-713,962	-26,791	0,057	-0,025
-712,948	-200,000	-0,004	0,031
-711,933	459,316	-0,111	0,184
-710,918	7,225	0,020	-0,011
-709,904	-119,348	-0,107	0,014
-708,889	800,000	-0,068	-0,206
-707,875	-200,000	0,019	-0,123
-706,860	-131,096	-0,084	-0,008
-705,845	176,352	-0,019	-0,020
-704,831	65,657	0,059	-0,044
-703,816	4,041	-0,042	0,023
-702,802	7,828	-0,104	0,057
-701,787	129,949	-0,057	-0,054
-700,772	-200,000	0,018	-0,097
-699,758	-58,550	-0,196	-0,063
-698,743	800,000	-0,013	0,041
-697,729	1,274	0,036	0,019
-696,714	194,495	-0,088	-0,099
-695,699	-108,740	-0,095	0,015
-694,685	-34,121	-0,041	0,017
-693,670	800,000	-0,028	-0,064
-692,656	234,569	-0,029	-0,036
-691,641	-200,000	-0,016	-0,102
-690,627	189,417	0,060	0,066
-689,612	62,161	0,031	0,023
-688,597	800,000	-0,026	-0,075
-687,583	299,934	-0,017	-0,023
-686,568	-133,551	-0,086	0,008
-685,554	-64,554	-0,135	0,040
-684,539	-25,026	0,031	-0,014
-683,524	279,860	0,017	-0,023
-682,510	-120,513	0,125	-0,016
-681,495	-67,389	-0,034	-0,010
-680,481	53,735	-0,019	-0,013
-679,466	-111,605	-0,051	0,008
-678,451	800,000	0,029	-0,069
-677,437	-25,567	0,134	-0,059
-676,422	91,918	-0,051	0,043
-675,408	293,662	-0,083	0,112
-674,393	20,674	0,060	0,036
-673,378	72,718	-0,079	0,061
-672,364	-200,000	-0,027	-0,094
-671,349	732,991	-0,034	0,068
-670,335	-200,000	-0,013	-0,050
-669,320	800,000	-0,018	-0,043
-668,305	800,000	-0,049	-0,139
-667,291	-54,388	0,087	-0,029
-666,276	-200,000	0,032	-0,124
-665,262	-200,000	-0,006	0,065
-664,247	-200,000	-0,013	-0,082
-663,232	0,337	-0,041	-0,022
-662,218	-133,215	0,068	-0,006
-661,203	317,756	0,053	0,075
-660,189	-118,198	-0,169	0,022
-659,174	423,132	-0,024	0,038
-658,159	-171,052	0,097	-0,002
-657,145	150,162	0,065	-0,065
-656,130	318,020	-0,032	-0,045
-655,116	-133,733	-0,115	0,010
-654,101	-200,000	-0,011	0,041
-653,086	695,233	-0,040	0,078
-652,072	58,101	0,066	0,048
-651,057	439,763	-0,094	-0,152
-650,043	508,529	-0,048	-0,084
-649,028	-200,000	-0,022	-0,096
-648,014	-73,530	0,081	0,022
-646,999	-32,403	0,100	0,041
-645,984	-159,440	0,066	0,003
-644,970	800,000	0,032	0,085
-643,955	-200,000	-0,017	-0,130
-642,941	800,000	0,047	-0,120
-641,926	21,775	-0,041	0,024
-640,911	-200,000	-0,001	0,092
-639,897	-178,704	0,103	0,002
-638,882	319,667	-0,032	0,046
-637,868	-111,015	-0,175	-0,026
-636,853	800,000	0,027	-0,061
-635,838	-45,496	0,097	0,035
-634,824	800,000	0,017	-0,041
-633,809	-63,118	0,079	-0,024
-632,795	800,000	0,057	0,154
-631,780	220,280	-0,071	-0,085
-630,765	147,402	-0,053	-0,053
-629,751	-200,000	-0,004	0,028
-628,736	-25,282	-0,101	-0,044
-627,722	257,851	0,038	-0,048
-626,707	-200,000	-0,049	0,255
-625,692	-200,000	0,026	0,123
-624,678	-200,000	0,002	-0,042
-623,663	14,406	0,077	-0,044
-622,649	-200,000	0,045	-0,216
-621,634	172,688	-0,137	-0,146
-620,619	-62,278	-0,069	0,021
-619,605	-200,000	-0,022	-0,118
-618,590	231,816	0,093	0,113
-617,576	800,000	0,038	0,097
-616,561	-60,936	0,016	-0,005
-615,546	45,002	0,038	-0,026
-614,532	-200,000	-0,002	-0,059
-613,517	161,097	0,109	-0,113
-612,503	-59,794	-0,083	-0,026
-611,488	510,074	-0,046	-0,080
-610,474	221,305	0,054	-0,065
-609,459	39,303	0,043	0,028
-608,444	23,454	-0,103	-0,063
-607,430	-101,145	-0,140	-0,025
-606,415	-59,287	-0,155	0,049
-605,401	-84,810	-0,102	0,024
-604,386	-44,405	-0,042	-0,016
-603,371	-200,000	-0,033	-0,149
-602,357	-83,004	0,052	0,012
-601,342	-200,000	-0,022	-0,112
-600,328	54,392	-0,084	-0,060
-599,313	-85,169	-0,073	0,017
-598,298	-65,159	0,050	0,015
-597,284	-166,112	0,074	-0,002
-596,269	-200,000	0,000	0,015
-595,255	800,000	0,056	0,168
-594,240	228,178	-0,079	0,096
-593,225	-200,000	0,025	-0,087
-592,211	-200,000	0,016	-0,091
-591,196	128,358	0,033	-0,031
-590,182	-6,411	0,044	-0,022
-589,167	-200,000	-0,055	0,183
-588,152	12,830	0,099	0,057
-587,138	-200,000	0,000	0,022
-586,123	202,529	0,105	0,120
-585,109	800,000	-0,035	0,087
-584,094	800,000	-0,048	0,139
-583,079	-171,601	0,123	-0,003
-582,065	502,335	-0,021	-0,037
-581,050	-10,006	-0,098	-0,048
-580,036	94,386	0,079	0,066
-579,021	-135,206	-0,049	0,004
-578,006	-10,790	0,129	-0,063
-576,992	356,231	-0,033	-0,049
-575,977	-200,000	0,011	0,088
-574,963	112,258	0,089	0,080
-573,948	-200,000	-0,020	-0,128
-572,934	-199,038	-0,105	0,000
-571,919	800,000	0,021	0,048
-570,904	-107,745	-0,086	-0,014
-569,890	-60,484	-0,144	-0,045
-568,875	327,217	0,043	-0,061
-567,861	800,000	0,021	-0,052
-566,846	800,000	0,040	0,094
-565,831	-117,819	-0,031	-0,004
-564,817	800,000	-0,025	-0,061
-563,802	561,028	-0,041	-0,074
-562,788	-200,000	-0,009	-0,041
-561,773	47,099	0,076	0,052
-560,758	-30,727	0,112	-0,047
-559,744	-101,549	-0,037	-0,006
-558,729	212,063	0,014	0,016
-557,715	-200,000	-0,024	0,117
-556,700	800,000	0,018	-0,039
-555,685	800,000	-0,015	-0,033
-554,671	-13,046	0,088	0,042
-553,656	800,000	-0,028	0,073
-552,642	800,000	0,014	0,041
-551,627	-200,000	0,005	0,039
-550,612	-46,190	-0,085	-0,031
-549,598	-12,182	-0,040	-0,019
-548,583	-200,000	0,024	0,121
-547,569	623,000	0,023	-0,042
-546,554	-35,714	-0,028	-0,011
-545,539	-200,000	0,019	0,106
-544,525	-200,000	-0,042	0,166
-543,510	-200,000	0,013	-0,133
-542,496	146,993	-0,039	-0,039
-541,481	-31,557	-0,119	-0,049
-540,466	-153,140	0,134	-0,007
-539,452	-5,699	-0,027	-0,013
-538,437	-91,613	0,149	-0,031
-537,423	-128,968	0,045	0,005
-536,408	-50,856	-0,062	0,021
-535,393	2,616	-0,109	0,058
-534,379	-200,000	0,014	-0,051
-533,364	183,221	-0,016	0,017
-532,350	-107,617	0,133	0,021
-531,335	-44,246	0,088	-0,032
-530,321	240,155	0,077	-0,094
-529,306	202,529	0,031	-0,035
-528,291	-200,000	0,021	0,157
-527,277	131,859	-0,018	-0,017
-526,262	72,817	-0,026	-0,020
-525,248	-200,000	0,013	-0,066
-524,233	-200,000	-0,035	0,198
-523,218	-200,000	-0,048	0,184
-522,204	-13,261	-0,170	0,081
-521,189	288,822	-0,017	-0,022
-520,175	-60,411	-0,069	-0,022
-519,160	-46,970	-0,102	-0,037
-518,145	-108,376	-0,070	-0,011
-517,131	-39,308	-0,017	0,006
-516,116	92,212	0,070	-0,058
-515,102	262,050	-0,094	-0,120
-514,087	800,000	0,007	-0,016
-513,072	32,199	-0,045	0,029
-512,058	-30,527	0,029	-0,012
-511,043	-200,000	0,012	0,059
-510,029	-90,260	0,105	0,022
-509,014	87,845	0,059	-0,048
-507,999	82,352	0,133	0,106
-506,985	791,697	-0,025	-0,051
-505,970	668,527	0,039	-0,075
-504,956	-200,000	0,000	-0,180
-503,941	235,868	0,066	-0,080
-502,926	50,925	-0,046	0,032
-501,912	287,169	0,113	0,150
-500,897	-110,571	0,022	-0,003
-499,883	-7,167	-0,083	-0,041
-498,868	-28,885	-0,168	0,071
-497,853	-200,000	0,015	0,053
-496,839	-70,405	-0,095	-0,026
-495,824	46,356	0,141	-0,096
-494,810	800,000	0,052	0,146
-493,795	59,495	0,036	-0,026
-492,781	400,989	0,031	-0,048
-491,766	-75,457	-0,095	-0,025
-490,751	279,735	0,015	0,020
-489,737	161,248	0,051	-0,052
-488,722	59,007	-0,037	0,027
-487,708	-64,993	-0,105	0,031
-486,693	800,000	0,051	0,109
-485,678	-1,976	-0,044	0,023
-484,664	-29,033	-0,133	-0,056
-483,649	383,145	0,072	-0,109
-482,635	-200,000	0,033	-0,148
-481,620	-6,214	0,030	0,015
-480,605	-38,240	-0,110	0,043
-479,591	800,000	-0,032	0,080
-478,576	160,330	0,086	-0,089
-477,562	-200,000	-0,057	-0,193
-476,547	480,428	-0,047	-0,079
-475,532	393,905	-0,055	-0,085
-474,518	117,183	-0,054	-0,049
-473,503	110,869	-0,077	0,068
-472,489	119,386	0,080	-0,073
-471,474	800,000	0,033	-0,080
-470,459	-10,976	-0,121	-0,058
-469,445	-86,534	-0,070	-0,016
-468,430	-126,329	-0,096	0,010
-467,416	66,234	0,104	0,078
-466,401	29,876	0,114	-0,072
-465,386	156,851	-0,063	0,064
-464,372	-10,896	0,097	0,047
-463,357	26,510	0,028	-0,017
-462,343	629,567	-0,068	0,127
-461,328	800,000	0,026	0,065
-460,313	-86,086	0,100	0,023
-459,299	-200,000	-0,007	0,046
-458,284	-71,583	-0,100	0,027
-457,270	104,132	-0,127	0,110
-456,255	-134,861	-0,157	0,014
-455,241	-200,000	-0,049	-0,235
-454,226	-72,314	-0,141	-0,038
-453,211	-145,335	-0,049	0,003
-452,197	51,923	0,065	-0,046
-451,182	298,712	0,021	0,028
-450,168	-11,086	0,114	0,055
-449,153	800,000	-0,048	-0,113
-448,138	373,579	-0,029	-0,043
-447,124	-126,569	0,067	-0,007
-446,109	522,898	-0,072	0,126
-445,095	244,502	0,072	0,089
-444,080	-14,765	-0,047	-0,022
-443,065	241,619	-0,040	0,049
-442,051	449,624	-0,021	-0,035
-441,036	800,000	0,021	0,054
-440,022	35,133	-0,093	0,060
-439,007	-168,351	-0,145	-0,004
-437,992	-123,886	0,137	0,016
-436,978	-81,327	0,070	0,017
-435,963	800,000	-0,054	0,112
-434,949	-99,333	-0,056	0,010
-433,934	182,744	-0,088	0,096
-432,919	-54,774	-0,063	-0,021
-431,905	-29,478	0,105	-0,044
-430,890	-69,214	0,032	-0,009
-429,876	-23,947	0,051	0,022
-428,861	12,796	-0,069	0,039
-427,846	-200,000	-0,005	0,030
-426,832	-41,781	0,061	-0,023
-425,817	-58,869	-0,162	0,051
-424,803	26,204	0,056	0,034
-423,788	-200,000	-0,026	0,128
-422,773	333,938	0,058	0,082
-421,759	165,457	0,055	-0,057
-420,744	188,851	0,058	-0,064
-419,730	127,745	0,025	0,024
-418,715	-74,601	0,121	0,032
-417,701	-200,000	-0,001	-0,036
-416,686	800,000	-0,024	-0,075
-415,671	487,195	0,068	0,114
-414,657	171,397	-0,036	-0,038
-413,642	239,017	0,039	-0,047
-412,628	-200,000	0,012	-0,058
-411,613	13,202	0,061	-0,035
-410,598	525,785	0,069	-0,120
-409,584	378,462	0,060	-0,090
-408,569	11,081	0,110	0,062
-407,555	-200,000	0,000	0,005
-406,540	29,322	-0,027	0,017
-405,525	-0,868	-0,144	-0,075
-404,511	13,541	0,075	-0,043
-403,496	800,000	-0,059	-0,148
-402,482	800,000	-0,044	-0,105
-401,467	-83,464	0,005	0,001
-400,452	46,680	0,097	0,066
-399,438	-200,000	-0,025	0,142
-398,423	149,923	-0,048	0,047
-397,409	800,000	-0,027	0,074
-396,394	800,000	0,018	0,040
-395,379	-60,622	-0,082	0,025
-394,365	800,000	0,031	0,082
-393,350	389,820	0,095	0,145
-392,336	25,379	-0,091	-0,055
-391,321	-200,000	0,047	-0,235
-390,306	-116,682	-0,044	-0,006
-389,292	219,958	-0,041	-0,049
-388,277	-146,200	0,010	0,001
-387,263	-1,768	0,064	0,033
-386,248	-25,960	0,142	-0,061
-385,233	800,000	0,047	-0,117
-384,219	238,746	-0,011	0,014
-383,204	-200,000	-0,001	0,129
-382,190	78,346	0,043	-0,034
-381,175	-200,000	0,024	-0,077
-380,160	167,119	-0,136	-0,142
-379,146	-200,000	0,000	0,096
-378,131	33,371	-0,068	-0,043
-377,117	39,091	-0,056	0,037
-376,102	-74,622	0,101	0,026
-375,088	-163,552	0,073	-0,003
-374,073	-117,034	0,081	0,011
-373,058	-1,350	-0,039	0,020
-372,044	800,000	0,012	0,033
-371,029	6,622	0,080	0,043
-370,015	-156,842	-0,049	-0,002
-369,000	-200,000	-0,010	0,095
-367,985	220,485	-0,073	0,085
-366,971	151,845	0,119	0,119
-365,956	800,000	0,036	-0,089
-364,942	-14,830	0,120	-0,056
-363,927	762,417	0,060	0,121
-362,912	21,967	-0,088	-0,052
-361,898	188,726	-0,032	0,035
-360,883	-30,678	-0,124	-0,051
-359,869	-78,341	-0,075	0,019
-358,854	73,856	-0,148	0,114
-357,839	0,447	0,146	0,076
-356,825	800,000	0,033	0,089
-355,810	433,463	-0,074	0,117
-354,796	800,000	0,045	0,095
-353,781	157,873	0,085	-0,086
-352,766	-200,000	-0,001	-0,105
-351,752	-175,866	-0,067	0,001
-350,737	-200,000	-0,001	-0,030
-349,723	238,614	-0,037	-0,045
-348,708	-200,000	-0,050	0,203
-347,693	-200,000	-0,010	0,033
-346,679	19,702	-0,050	0,029
-345,664	30,110	-0,055	-0,035
-344,650	800,000	0,017	-0,038
-343,635	26,954	-0,062	-0,038
-342,620	14,953	0,084	0,048
-341,606	171,898	0,051	-0,054
-340,591	-36,736	0,049	0,019
-339,577	800,000	0,032	-0,075
-338,562	49,184	-0,008	0,006
-337,548	-200,000	-0,009	-0,078
-336,533	19,827	0,067	0,039
-335,518	-117,419	0,031	-0,004
-334,504	53,720	0,090	0,063
-333,489	580,230	0,029	-0,052
-332,475	317,804	-0,131	-0,182
-331,460	85,916	-0,067	-0,054
-330,445	-200,000	0,013	0,093
-329,431	800,000	-0,038	-0,095
-328,416	-53,511	0,189	0,063
-327,402	-74,503	0,085	0,022
-326,387	-128,392	-0,073	-0,007
-325,372	28,244	-0,068	-0,042
-324,358	-200,000	0,008	-0,028
-323,343	-200,000	0,007	-0,030
-322,329	-200,000	-0,006	-0,122
-321,314	800,000	-0,032	-0,093
-320,299	-77,819	0,081	-0,020
-319,285	28,004	0,040	0,025
-318,270	-100,717	0,013	-0,002
-317,256	-171,071	-0,017	0,000
-316,241	-200,000	0,014	-0,071
-315,226	7,478	0,053	0,029
-314,212	-36,894	0,114	0,045
-313,197	355,601	0,053	0,077
-312,183	-161,076	-0,025	0,001
-311,168	566,255	0,034	0,061
-310,153	294,978	-0,063	0,084
-309,139	157,079	0,034	0,035
-308,124	-73,831	-0,075	-0,020
-307,110	84,193	-0,031	0,025
-306,095	356,341	-0,034	0,049
-305,080	516,973	0,045	-0,077
-304,066	71,726	-0,171	-0,130
-303,051	-83,172	-0,132	0,031
-302,037	198,439	0,048	-0,053
-301,022	45,712	0,135	-0,091
-300,008	-7,814	0,044	0,022
-298,993	-45,488	-0,083	0,030
-297,978	-200,000	-0,025	0,090
-296,964	56,042	0,023	-0,016
-295,949	-67,929	-0,178	-0,050
-294,935	800,000	-0,011	-0,027
-293,920	691,731	0,045	0,086
-292,905	-77,953	0,084	0,021
-291,891	-200,000	-0,003	-0,010
-290,876	-115,243	-0,028	0,004
-289,862	-185,166	0,106	0,001
-288,847	800,000	0,042	0,095
-287,832	-70,180	-0,029	0,008
-286,818	-126,689	-0,087	-0,009
-285,803	-84,046	0,049	0,011
-284,789	97,683	0,102	0,086
-283,774	284,142	0,099	-0,131
-282,759	-87,144	0,152	0,034
-281,745	23,393	-0,107	-0,064
-280,730	-167,094	-0,060	-0,002
-279,716	-200,000	-0,018	0,071
-278,701	-200,000	0,003	0,013
-277,686	-35,758	0,164	-0,064
-276,672	-32,199	0,046	-0,019
-275,657	800,000	0,013	-0,038
-274,643	37,199	0,102	0,066
-273,628	179,835	0,057	-0,062
-272,613	138,578	0,064	0,061
-271,599	800,000	-0,011	0,030
-270,584	-200,000	-0,031	0,099
-269,570	-104,268	0,061	-0,010
-268,555	51,096	-0,020	-0,014
-267,540	112,440	-0,057	0,050
-266,526	-200,000	0,029	-0,104
-265,511	13,126	0,014	0,008
-264,497	-101,732	0,090	-0,016
-263,482	283,973	0,031	0,040
-262,467	114,514	0,043	0,038
-261,453	8,071	-0,127	0,069
-260,438	-46,656	0,117	0,042
-259,424	-71,775	-0,146	-0,039
-258,409	-39,473	-0,040	-0,015
-257,395	343,320	0,070	-0,100
-256,380	-170,297	0,095	-0,002
-255,365	-50,171	0,043	0,015
-254,351	-95,795	0,096	-0,018
-253,336	-200,000	0,000	-0,066
-252,322	321,902	-0,065	-0,091
-251,307	302,790	-0,038	-0,052
-250,292	116,996	-0,086	0,077
-249,278	-142,844	0,011	-0,001
-248,263	123,718	0,079	-0,072
-247,249	-180,732	0,083	-0,001
-246,234	800,000	-0,032	-0,091
-245,219	-200,000	-0,001	0,023
-244,205	-200,000	0,024	0,129
-243,190	-121,059	0,197	-0,024
-242,176	-200,000	0,022	0,098
-241,161	-161,753	0,085	0,003
-240,146	-86,623	-0,030	-0,007
-239,132	59,546	-0,080	-0,058
-238,117	-82,226	-0,157	-0,037
-237,103	-49,304	0,028	0,010
-236,088	178,461	-0,064	0,068
-235,073	800,000	-0,016	0,035
-234,059	449,598	-0,020	0,032
-233,044	70,155	0,059	0,044
-232,030	-200,000	-0,021	0,073
-231,015	-19,661	-0,049	0,022
-230,000	301,786	-0,083	-0,112
-228,986	-200,000	0,008	0,124
-227,971	-146,384	0,111	-0,007
-226,957	800,000	0,080	0,219
-225,942	119,045	0,079	0,071
-224,927	-126,580	0,104	-0,011
-223,913	429,688	-0,056	0,088
-222,898	-34,313	-0,160	-0,064
-221,884	-200,000	-0,019	-0,104
-220,869	28,319	0,136	0,083
-219,855	800,000	0,022	-0,064
-218,840	-149,031	0,042	-0,002
-217,825	-85,995	-0,047	0,011
-216,811	-39,720	0,126	-0,048
-215,796	-134,265	-0,137	-0,012
-214,782	219,678	-0,041	-0,048
-213,767	-31,252	-0,097	-0,040
-212,752	-200,000	0,010	0,038
-211,738	-31,931	-0,226	0,092
-210,723	-200,000	0,022	-0,113
-209,709	-158,891	-0,161	0,007
-208,694	-59,195	-0,067	-0,021
-207,679	800,000	-0,051	-0,157
-206,665	-200,000	0,046	-0,160
-205,650	800,000	-0,028	0,091
-204,636	-200,000	0,000	0,119
-203,621	634,312	-0,009	0,016
-202,606	-200,000	0,000	-0,092
-201,592	-61,766	-0,038	-0,012
-200,577	-69,364	-0,065	-0,018
-199,563	800,000	0,042	-0,118
-198,548	-100,428	-0,022	-0,004
-197,533	137,738	-0,072	0,069
-196,519	33,136	0,064	0,040
-195,504	278,973	-0,040	0,052
-194,490	244,389	0,044	0,054
-193,475	-33,259	0,055	0,022
-192,460	119,571	-0,026	0,023
-191,446	771,669	-0,070	0,139
-190,431	144,199	-0,130	-0,126
-189,417	-16,632	-0,139	0,064
-188,402	-74,250	-0,051	-0,013
-187,387	-200,000	-0,052	-0,214
-186,373	-200,000	-0,009	0,000
-185,358	523,797	-0,007	-0,013
-184,344	-175,557	0,062	-0,001
-183,329	172,764	-0,029	0,030
-182,315	-200,000	0,015	-0,086
-181,300	46,177	-0,094	0,063
-180,285	-200,000	-0,015	-0,246
-179,271	-120,951	-0,065	-0,008
-178,256	520,805	0,033	0,057
-177,242	660,090	0,024	0,045
-176,227	800,000	0,048	-0,096
-175,212	-200,000	0,002	-0,123
-174,198	-111,997	0,134	0,019
-173,183	-117,647	-0,102	0,013
-172,169	613,819	-0,081	-0,148
-171,154	185,680	0,031	-0,033
-170,139	-139,723	0,187	-0,014
-169,125	562,400	0,014	0,024
-168,110	-66,616	0,161	0,046
-167,096	-200,000	0,023	0,145
-166,081	-22,208	-0,105	0,046
-165,066	100,205	0,066	0,056
-164,052	66,518	0,082	0,061
-163,037	90,977	-0,093	0,076
-162,023	-200,000	-0,029	0,150
-161,008	-200,000	0,015	-0,070
-159,993	-100,646	0,101	0,018
-158,979	-48,743	0,089	-0,031
-157,964	-82,982	-0,073	-0,017
-156,950	18,699	0,072	-0,042
-155,935	-200,000	0,032	-0,144
-154,920	498,692	-0,075	0,125
-153,906	-27,276	-0,080	-0,034
-152,891	-200,000	0,010	0,089
-151,877	690,389	-0,049	0,093
-150,862	234,569	-0,080	-0,095
-149,847	800,000	0,036	-0,100
-148,833	46,675	-0,035	0,024
-147,818	-122,452	-0,025	-0,003
-146,804	52,556	-0,058	-0,040
-145,789	-200,000	-0,009	0,034
-144,775	-200,000	0,001	-0,077
-143,760	619,537	0,063	-0,115
-142,745	232,299	-0,039	0,046
-141,731	447,790	-0,070	0,113
-140,716	413,724	-0,038	0,058
-139,702	-109,320	0,118	0,018
-138,687	20,598	-0,068	0,040
-137,672	109,319	-0,091	-0,079
-136,658	-78,679	0,009	-0,002
-135,643	-200,000	-0,038	-0,122
-134,629	-0,428	-0,088	0,045
-133,614	134,265	-0,030	-0,028
-132,599	-200,000	0,023	0,082
-131,585	800,000	-0,041	0,096
-130,570	164,022	-0,132	-0,136
-129,556	-172,378	-0,101	-0,002
-128,541	-200,000	0,021	-0,090
-127,526	534,744	0,054	0,094
-126,512	596,131	0,079	0,143
-125,497	645,095	-0,047	0,088
-124,483	800,000	0,020	-0,054
-123,468	117,287	0,057	0,051
-122,453	-107,596	-0,091	0,014
-121,439	237,356	0,043	0,052
-120,424	-200,000	0,005	-0,071
-119,410	3,694	0,083	-0,044
-118,395	-200,000	-0,025	0,101
-117,380	-120,483	-0,043	-0,005
-116,366	-200,000	0,019	-0,103
-115,351	-200,000	0,023	-0,109
-114,337	423,997	-0,062	0,097
-113,322	-49,478	-0,090	-0,031
-112,307	800,000	-0,019	-0,059
-111,293	-200,000	-0,013	0,164
-110,278	371,848	-0,094	0,138
-109,264	358,012	-0,112	0,163
-108,249	44,844	-0,039	0,026
-107,234	800,000	-0,025	0,063
-106,220	-200,000	0,025	-0,119
-105,205	-102,086	0,152	-0,026
-104,191	16,820	0,090	-0,052
-103,176	257,030	-0,064	0,079
-102,162	-65,727	-0,060	-0,017
-101,147	48,090	0,076	0,052
-100,132	33,969	-0,028	-0,017
-99,118	-200,000	-0,017	0,074
-98,103	-16,823	0,063	0,029
-97,089	-200,000	0,000	0,005
-96,074	150,024	0,029	0,029
-95,059	800,000	0,029	-0,092
-94,045	-29,767	0,011	-0,004
-93,030	-121,246	-0,046	-0,006
-92,016	223,483	-0,072	-0,084
-91,001	442,033	-0,051	-0,081
-89,986	800,000	0,048	0,103
-88,972	657,465	-0,047	0,088
-87,957	800,000	-0,017	0,034
-86,943	-200,000	-0,017	-0,091
-85,928	98,466	0,093	-0,078
-84,913	422,760	0,084	-0,131
-83,899	-3,215	-0,121	-0,061
-82,884	-168,073	0,094	-0,003
-81,870	-200,000	0,008	0,029
-80,855	-200,000	0,035	0,121
-79,840	193,915	0,077	0,085
-78,826	-200,000	-0,006	0,024
-77,811	82,611	-0,038	0,030
-76,797	551,021	-0,046	0,081
-75,782	-127,508	0,104	-0,011
-74,767	146,539	0,087	-0,085
-73,753	147,230	0,015	0,014
-72,738	596,423	0,044	-0,079
-71,724	272,538	-0,137	-0,176
-70,709	97,446	-0,041	0,034
-69,694	800,000	-0,011	0,028
-68,680	27,469	0,093	0,056
-67,665	250,969	-0,085	0,105
-66,651	393,806	0,208	0,315
-65,636	195,859	0,045	-0,050
-64,622	800,000	-0,042	0,088
-63,607	697,063	-0,083	-0,159
-62,592	-160,934	-0,002	0,000
-61,578	-166,128	0,042	0,001
-60,563	-69,490	-0,101	0,028
-59,549	161,383	0,054	0,055
-58,534	-71,824	-1,598	-0,428
-57,519	686,251	-0,714	-1,357
-56,505	-200,000	-0,920	-4,606
-55,490	-9,386	0,595	-0,287
-54,476	800,000	4,992	11,822
-53,461	-200,000	14,685	259,653
-52,446	-200,000	696,289	2234,495
-51,432	565,090	1622,059	2857,060
-50,417	117,883	1629,569	1452,520
-49,403	75,037	1283,773	977,905
-48,388	37,422	1022,354	654,606
-47,373	23,119	981,631	581,580
-46,359	22,330	970,974	572,663
-45,344	21,099	966,744	566,128
-44,330	21,082	965,378	565,252
-43,315	21,005	963,843	564,078
-42,300	20,940	962,844	563,261
-41,286	20,897	961,801	562,489
-40,271	20,926	960,889	562,026
-39,257	20,897	959,876	561,319
-38,242	20,933	958,868	560,824
-37,227	20,925	957,948	560,237
-36,213	20,849	957,345	559,616
-35,198	20,890	956,219	559,068
-34,184	20,908	955,638	558,763
-33,169	20,862	954,808	558,110
-32,154	20,970	953,550	557,699
-31,140	20,986	952,845	557,316
-30,125	20,955	952,270	556,860
-29,111	20,996	951,337	556,421
-28,096	20,972	950,671	555,932
-27,082	20,937	950,106	555,469
-26,067	20,931	949,216	554,907
-25,052	20,890	948,648	554,424
-24,038	20,943	947,739	554,039
-23,023	20,899	947,177	553,548
-22,009	20,974	946,636	553,448
-20,994	20,965	945,941	552,992
-19,979	20,959	945,370	552,615
-18,965	20,941	944,689	552,138
-17,950	20,994	944,039	551,906
-16,936	20,921	943,496	551,335
-15,921	20,849	942,823	550,689
-14,906	20,817	942,193	550,200
-13,892	20,778	941,383	549,580
-12,877	20,801	940,803	549,293
-11,863	20,725	940,292	548,732
-10,848	20,805	939,729	548,634
-9,833	20,893	939,326	548,657
-8,819	20,886	938,625	548,204
-7,804	20,867	937,886	547,690
-6,790	20,809	937,506	547,263
-5,775	20,822	936,880	546,916
-4,760	20,849	936,104	546,526
-3,746	20,791	935,570	546,012
-2,731	20,695	934,934	545,316
-1,717	20,616	934,264	544,652
-0,702	20,668	933,398	544,290
0,313	20,441	932,799	544,048
1,327	23,473	930,989	552,462
2,342	32,632	793,727	495,317
3,356	29,954	450,714	277,212
4,371	-0,055	294,691	151,231
5,386	-4,165	275,545	137,499
6,400	-5,542	269,956	133,418
7,415	-5,846	267,540	131,932
8,429	-5,851	266,541	131,423
9,444	-5,630	265,579	131,140
10,459	-5,632	264,919	130,800
11,473	-5,849	264,408	130,338
12,488	-6,039	263,817	129,862
13,502	-6,220	263,264	129,414
14,517	-6,036	262,902	129,392
15,531	-5,879	262,389	129,269
16,546	-5,677	261,971	129,234
17,561	-5,939	261,711	128,858
18,575	-5,924	261,405	128,710
19,590	-5,955	261,084	128,512
20,604	-5,945	260,824	128,382
21,619	-5,963	260,416	128,154
22,634	-6,061	260,077	127,887
23,648	-5,924	259,725	127,826
24,663	-5,939	259,622	127,750
25,677	-5,889	259,183	127,567
26,692	-6,171	259,190	127,308
27,707	-5,948	258,748	127,278
28,721	-5,969	258,466	127,109
29,736	-6,029	258,083	126,856
30,750	-5,871	257,827	126,860
31,765	-5,949	257,717	126,725
32,780	-6,029	257,669	126,619
33,794	-6,051	257,323	126,418
34,809	-5,971	257,037	126,337
35,823	-5,998	256,746	126,159
36,838	-6,124	256,462	125,897
37,853	-6,081	256,434	125,910
38,867	-6,074	256,053	125,718
39,882	-6,005	255,775	125,631
40,896	-6,261	255,734	125,375
41,911	-6,085	255,291	125,300
42,926	-6,252	255,288	125,141
43,940	-6,255	254,874	124,925
44,955	-6,166	254,695	124,903
45,969	-6,263	254,442	124,683
46,984	-6,384	254,017	124,358
47,999	-6,785	254,018	123,998
49,013	-6,581	253,550	123,936
50,028	-6,699	253,369	123,735
51,042	-6,816	253,141	123,510
52,057	-6,948	252,893	123,264
53,071	-6,862	252,718	123,242
54,086	-6,696	252,524	123,281
55,101	-6,596	252,312	123,252
56,115	-6,587	252,419	123,301
57,130	-6,219	252,330	123,565
58,144	-5,851	252,165	123,792
59,159	-5,786	251,897	123,705
60,174	-5,752	251,449	123,504
61,188	-5,900	251,381	123,331
62,203	-5,943	251,293	123,241
63,217	-5,973	251,129	123,123
64,232	-5,881	250,755	123,009
65,247	-5,883	250,531	122,885
66,261	-6,010	250,457	122,729
67,276	-6,190	250,147	122,411
68,290	-6,181	249,853	122,265
69,305	-6,405	249,692	121,983
70,320	-6,409	249,391	121,822
71,334	-6,096	249,328	122,048
72,349	-5,956	249,062	122,026
73,363	-5,877	248,996	122,050
74,378	-5,772	248,655	121,962
75,393	-5,821	248,445	121,807
76,407	-5,846	248,326	121,716
77,422	-5,806	248,053	121,606
78,436	-6,024	248,075	121,420
79,451	-5,889	247,677	121,329
80,466	-6,263	247,667	120,996
81,480	-6,327	247,173	120,690
82,495	-6,239	246,888	120,614
83,509	-6,234	246,849	120,588
84,524	-6,140	246,656	120,563
85,539	-6,405	246,330	120,170
86,553	-6,424	246,323	120,139
87,568	-6,180	245,947	120,151
88,582	-6,231	245,792	120,021
89,597	-6,325	245,675	119,874
90,611	-6,169	245,562	119,940
91,626	-6,126	245,443	119,907
92,641	-6,238	245,280	119,723
93,655	-6,398	244,998	119,440
94,670	-6,102	244,832	119,597
95,684	-6,167	244,632	119,434
96,699	-6,247	244,473	119,279
97,714	-6,363	244,381	119,126
98,728	-6,310	244,067	119,007
99,743	-6,369	243,900	118,865
100,757	-6,384	243,578	118,685
101,772	-6,234	243,411	118,719
102,787	-6,271	243,220	118,584
103,801	-6,236	243,088	118,538
104,816	-6,107	243,028	118,605
105,830	-5,942	242,693	118,567
106,845	-5,752	242,591	118,665
107,860	-6,238	242,637	118,274
108,874	-6,044	242,193	118,207
109,889	-6,209	242,097	118,014
110,903	-6,190	241,836	117,892
111,918	-6,156	241,564	117,777
112,933	-6,050	241,469	117,807
113,947	-6,088	241,434	117,748
114,962	-6,066	241,124	117,604
115,976	-5,894	240,928	117,639
116,991	-6,065	240,884	117,468
118,006	-6,022	240,581	117,345
119,020	-6,003	240,636	117,377
120,035	-5,976	240,445	117,295
121,049	-6,101	240,241	117,082
122,064	-6,045	240,070	117,035
123,079	-6,153	239,996	116,899
124,093	-6,091	239,521	116,709
125,108	-6,163	239,291	116,527
126,122	-6,536	239,356	116,244
127,137	-6,444	239,055	116,163
128,151	-6,459	238,818	116,025
129,166	-6,379	238,732	116,038
130,181	-6,231	238,348	115,961
131,195	-6,512	238,268	115,684
132,210	-6,220	238,178	115,867
133,224	-6,276	238,138	115,792
134,239	-5,933	237,851	115,920
135,254	-6,066	237,677	115,717
136,268	-6,448	237,635	115,377
137,283	-6,435	237,212	115,172
138,297	-6,339	236,975	115,124
139,312	-6,664	236,867	114,799
140,327	-6,006	236,627	115,202
141,341	-5,879	236,771	115,364
142,356	-5,797	236,735	115,403
143,370	-5,602	236,592	115,480
144,385	-5,751	236,211	115,164
145,400	-5,580	236,097	115,236
146,414	-5,565	235,815	115,100
147,429	-5,738	235,825	114,956
148,443	-5,741	235,486	114,778
149,458	-5,921	235,426	114,594
150,473	-5,886	235,284	114,543
151,487	-5,904	235,058	114,408
152,502	-5,697	234,763	114,419
153,516	-5,758	234,772	114,365
154,531	-5,822	234,518	114,180
155,546	-5,783	234,306	114,097
156,560	-6,006	234,307	113,910
157,575	-6,017	233,993	113,739
158,589	-5,847	233,807	113,773
159,604	-5,789	233,719	113,766
160,619	-5,654	233,561	113,787
161,633	-5,593	233,451	113,771
162,648	-5,546	233,234	113,692
163,662	-5,617	233,091	113,556
164,677	-5,871	232,917	113,260
165,692	-5,984	232,822	113,114
166,706	-5,649	232,695	113,308
167,721	-5,487	232,408	113,286
168,735	-5,523	232,504	113,294
169,750	-5,690	232,305	113,055
170,764	-5,676	232,087	112,950
171,779	-5,579	231,871	112,912
172,794	-5,700	231,687	112,716
173,808	-5,962	231,582	112,449
174,823	-6,205	231,272	112,098
175,837	-6,311	231,092	111,918
176,852	-6,100	230,955	112,007
177,867	-5,662	230,970	112,347
178,881	-5,596	230,857	112,334
179,896	-5,618	230,723	112,242
180,910	-5,566	230,561	112,194
181,925	-5,753	230,495	112,005
182,940	-5,702	230,190	111,887
183,954	-5,597	230,030	111,881
184,969	-5,612	229,933	111,812
185,983	-5,616	229,875	111,770
186,998	-5,846	229,755	111,523
188,013	-5,648	229,622	111,603
189,027	-5,709	229,310	111,394
190,042	-5,553	229,268	111,485
191,056	-5,542	229,128	111,415
192,071	-5,383	228,937	111,436
193,086	-5,547	228,711	111,189
194,100	-5,539	228,506	111,085
195,115	-5,566	228,098	110,857
196,129	-6,419	227,899	110,092
197,144	-3,703	228,855	112,648
198,159	1,050	230,039	116,916
199,173	3,498	230,946	119,273
200,188	3,961	230,855	119,575
201,202	3,750	230,620	119,278
202,217	4,085	230,385	119,406
203,232	4,126	230,366	119,418
204,246	4,194	230,221	119,384
205,261	4,316	229,909	119,306
206,275	4,556	229,990	119,523
207,290	4,509	229,888	119,423
208,304	4,683	229,523	119,358
209,319	4,640	229,459	119,280
210,334	4,404	229,328	119,020
211,348	4,060	229,058	118,604
212,363	3,792	228,827	118,267
213,377	3,534	228,606	117,944
214,392	3,493	228,507	117,851
215,407	3,687	228,313	117,890
216,421	3,664	228,142	117,773
217,436	3,841	227,909	117,778
218,450	3,619	227,747	117,513
219,465	3,111	227,761	117,121
220,480	3,341	227,631	117,220
221,494	3,316	227,424	117,084
222,509	3,693	227,371	117,335
223,523	3,466	227,198	117,061
224,538	3,500	226,963	116,956
225,553	3,560	226,762	116,888
226,567	3,737	226,711	116,985
227,582	3,864	226,802	117,119
228,596	3,981	226,595	117,090
229,611	3,617	226,369	116,686
230,626	3,549	226,052	116,461
231,640	3,369	225,874	116,222
232,655	3,698	225,865	116,457
233,669	4,247	225,800	116,829
234,684	4,230	225,678	116,743
235,699	3,855	225,488	116,350
236,713	3,873	225,174	116,192
237,728	3,792	224,959	116,009
238,742	3,415	224,940	115,704
239,757	3,424	224,735	115,595
240,772	3,636	224,639	115,696
241,786	3,509	224,454	115,494
242,801	3,863	224,331	115,687
243,815	4,216	224,316	115,934
244,830	4,093	224,212	115,778
245,844	3,781	223,808	115,324
246,859	3,642	223,760	115,186
247,874	3,760	223,754	115,261
248,888	4,134	223,408	115,352
249,903	3,741	223,332	115,009
250,917	3,497	223,212	114,754
251,932	3,520	223,056	114,681
252,947	3,352	223,065	114,549
253,961	3,415	222,717	114,408
254,976	3,525	222,668	114,455
255,990	3,902	222,477	114,627
257,005	3,752	222,447	114,490
258,020	3,632	222,311	114,320
259,034	4,106	222,008	114,506
260,049	3,973	221,944	114,364
261,063	3,998	221,685	114,239
262,078	3,748	221,732	114,067
263,093	4,013	221,708	114,241
264,107	3,947	221,269	113,956
265,122	3,926	221,308	113,951
266,136	3,944	221,134	113,864
267,151	4,037	221,063	113,887
268,166	3,979	220,804	113,700
269,180	3,448	220,591	113,188
270,195	3,676	220,406	113,251
271,209	3,614	220,200	113,090
272,224	3,517	220,193	113,005
273,239	3,742	220,120	113,123
274,253	3,560	219,877	112,854
275,268	3,453	219,646	112,647
276,282	3,382	219,444	112,481
277,297	3,290	219,408	112,385
278,312	3,509	219,230	112,444
279,326	3,646	219,159	112,498
280,341	3,663	219,003	112,421
281,355	3,561	218,953	112,310
282,370	3,573	218,714	112,186
283,384	3,412	218,582	111,991
284,399	3,546	218,259	111,913
285,414	3,419	218,137	111,748
286,428	3,421	218,219	111,782
287,443	3,698	218,062	111,893
288,457	3,764	217,987	111,893
289,472	3,738	217,669	111,700
290,487	3,182	217,555	111,228
291,501	3,407	217,305	111,254
292,516	3,349	217,216	111,156
293,530	3,449	217,242	111,232
294,545	3,249	217,192	111,052
295,560	3,405	216,907	111,009
296,574	3,332	216,929	110,957
297,589	3,427	216,745	110,922
298,603	3,776	216,589	111,085
299,618	3,768	216,377	110,960
300,633	3,822	216,215	110,906
301,647	3,868	216,275	110,960
302,662	4,005	216,199	111,010
303,676	3,590	216,034	110,616
304,691	3,915	215,731	110,686
305,706	3,864	215,593	110,568
306,720	4,050	215,589	110,690
307,735	3,989	215,271	110,473
308,749	3,893	215,086	110,300
309,764	3,705	215,101	110,163
310,779	3,822	215,011	110,190
311,793	3,741	214,878	110,054
312,808	3,800	214,537	109,912
313,822	3,584	214,542	109,750
314,837	3,483	214,368	109,579
315,852	3,548	214,127	109,493
316,866	3,677	214,071	109,546
317,881	3,909	213,971	109,651
318,895	3,958	213,795	109,586
319,910	3,889	213,499	109,375
320,925	3,241	213,535	108,922
321,939	3,228	213,312	108,790
322,954	3,495	213,129	108,877
323,968	3,686	213,040	108,957
324,983	3,797	212,973	108,992
325,997	3,717	212,904	108,891
327,012	4,047	212,580	108,948
328,027	3,573	212,536	108,581
329,041	4,086	212,575	108,954
330,056	4,314	212,378	109,004
331,070	3,862	212,077	108,521
332,085	3,337	211,787	107,993
333,100	3,394	211,984	108,124
334,114	3,650	211,898	108,251
335,129	3,789	211,701	108,239
336,143	3,363	211,440	107,796
337,158	3,673	211,264	107,914
338,173	3,515	211,192	107,756
339,187	3,442	210,995	107,596
340,202	3,433	210,792	107,476
341,216	3,544	210,563	107,427
342,231	3,410	210,536	107,310
343,246	3,356	210,402	107,195
344,260	3,507	210,314	107,246
345,275	3,560	210,206	107,219
346,289	3,598	210,137	107,200
347,304	3,828	209,946	107,254
348,319	3,672	209,795	107,058
349,333	3,301	209,858	106,822
350,348	3,594	209,746	106,960
351,362	3,903	209,518	107,049
352,377	3,940	209,431	107,021
353,392	3,779	209,214	106,788
354,406	3,695	209,130	106,678
355,421	195,001	1345,524	1433,887
356,435	155,654	1484,054	1433,972
