DTS Sentinel unit serial number:	SN410029Multiplexer serial number:	ORYXHardware model number:	OX2-SRSoftware version number:	ORYX F/W v4,00 Oryx Data Collector v3.7.2.0data status	okinstallation	B6 Nyhavnadifferential loss correction	single-endedforward channel	channel 2reverse channel	N/Adate	2023/12/11time	01:05:08forward acquisition time	300,00reverse acquisition time	0,00gamma	499,1914k internal	0,3122k external	0,3122temperature offset calibration	1,0000default loss term (dB/km)	0,3820temperature slope calibration	1,0000multiplexer offset coefficient	1,0000multiplexer slope coefficient	1,0000fibre end	0,00T internal ref (°C)	22,21T ext. ref 1 (°C)	5,55T ext. ref 2 (°C)	5,58length (m)	temperature (°C)	Stokes	anti-Stokes-744,400	-103,090	0,040	-0,007
-743,385	-89,289	-0,238	0,052
-742,371	699,236	0,078	-0,155
-741,356	-1,500	-0,158	0,083
-740,342	-200,000	0,019	0,078
-739,327	-34,765	-0,253	0,103
-738,312	-200,000	0,015	-0,182
-737,298	67,864	-0,252	0,192
-736,283	79,329	0,152	-0,121
-735,269	-97,978	-0,172	-0,033
-734,254	-200,000	0,010	-0,063
-733,239	-51,939	-0,412	-0,142
-732,225	-106,669	0,124	-0,020
-731,210	143,415	-0,052	0,052
-730,196	800,000	-0,072	-0,194
-729,181	750,654	0,025	-0,051
-728,167	-171,395	-0,120	-0,003
-727,152	373,472	0,041	-0,062
-726,137	-200,000	-0,016	-0,057
-725,123	178,859	-0,154	-0,168
-724,108	404,875	0,031	-0,049
-723,094	21,856	-0,121	-0,073
-722,079	800,000	0,086	-0,192
-721,064	800,000	-0,024	-0,073
-720,050	38,009	0,046	0,031
-719,035	-70,515	-0,107	-0,030
-718,021	-10,323	-0,059	-0,029
-717,006	31,096	-0,117	-0,075
-715,991	-141,333	0,080	-0,006
-714,977	-51,061	-0,150	-0,052
-713,962	-92,590	-0,093	-0,019
-712,948	44,436	-0,082	0,056
-711,933	-200,000	0,011	-0,103
-710,918	-200,000	-0,028	-0,140
-709,904	288,658	-0,068	-0,091
-708,889	-200,000	-0,007	0,081
-707,875	-70,733	-0,140	0,039
-706,860	-200,000	-0,011	0,039
-705,845	800,000	-0,025	0,056
-704,831	-11,724	-0,036	0,017
-703,816	169,253	-0,069	-0,073
-702,802	-110,943	-0,153	-0,023
-701,787	-80,877	-0,067	-0,016
-700,772	148,121	-0,014	-0,014
-699,758	-200,000	-0,005	0,119
-698,743	800,000	-0,009	-0,021
-697,729	119,147	-0,096	0,089
-696,714	800,000	-0,042	0,102
-695,699	200,508	-0,030	-0,034
-694,685	515,291	-0,018	-0,032
-693,670	301,755	-0,037	-0,052
-692,656	103,518	-0,047	0,041
-691,641	-200,000	-0,007	-0,034
-690,627	-200,000	0,042	0,144
-689,612	210,115	0,103	0,120
-688,597	800,000	0,049	0,103
-687,583	112,322	-0,072	-0,065
-686,568	-200,000	-0,005	-0,113
-685,554	800,000	0,044	-0,102
-684,539	15,519	0,114	0,067
-683,524	308,627	0,076	-0,106
-682,510	-79,766	-0,032	0,008
-681,495	12,075	-0,081	-0,046
-680,481	0,105	-0,150	0,079
-679,466	-200,000	-0,023	-0,148
-678,451	800,000	-0,011	-0,027
-677,437	-128,173	-0,101	0,011
-676,422	-42,993	-0,047	0,017
-675,408	800,000	0,043	0,109
-674,393	800,000	-0,045	0,101
-673,378	-6,302	-0,086	0,044
-672,364	74,586	-0,182	-0,143
-671,349	70,886	0,017	-0,013
-670,335	-200,000	0,011	-0,045
-669,320	0,479	-0,029	0,016
-668,305	800,000	0,055	0,139
-667,291	-64,970	-0,138	-0,041
-666,276	279,938	-0,047	0,063
-665,262	-101,182	-0,117	0,021
-664,247	800,000	-0,013	0,038
-663,232	151,888	-0,102	-0,104
-662,218	-80,620	0,026	-0,006
-661,203	116,961	-0,047	0,043
-660,189	74,311	-0,130	0,102
-659,174	113,222	0,093	-0,084
-658,159	-2,515	-0,128	-0,067
-657,145	-200,000	-0,019	-0,084
-656,130	613,818	-0,015	-0,027
-655,116	331,705	0,055	-0,079
-654,101	-200,000	-0,007	0,077
-653,086	-200,000	0,007	-0,147
-652,072	-200,000	-0,003	-0,129
-651,057	132,568	0,060	-0,058
-650,043	-200,000	-0,014	-0,091
-649,028	167,707	-0,032	0,034
-648,014	800,000	-0,014	-0,040
-646,999	538,057	-0,050	0,088
-645,984	-73,758	-0,065	-0,017
-644,970	-56,945	-0,123	-0,040
-643,955	-104,771	-0,080	-0,014
-642,941	800,000	-0,047	-0,116
-641,926	-200,000	-0,004	-0,083
-640,911	-200,000	-0,012	-0,126
-639,897	697,816	-0,094	0,184
-638,882	-200,000	-0,046	-0,166
-637,868	-124,818	-0,099	0,011
-636,853	44,391	0,150	-0,102
-635,838	254,896	0,105	-0,134
-634,824	-200,000	-0,007	-0,033
-633,809	-18,050	0,036	-0,017
-632,795	390,796	0,029	0,045
-631,780	631,337	0,025	-0,047
-630,765	96,344	0,126	-0,107
-629,751	-200,000	0,019	-0,117
-628,736	47,257	-0,061	-0,042
-627,722	518,124	-0,126	-0,220
-626,707	-16,389	-0,088	-0,041
-625,692	88,033	-0,016	0,013
-624,678	-131,036	-0,079	0,008
-623,663	-200,000	-0,023	-0,094
-622,649	109,216	0,073	-0,064
-621,634	800,000	0,016	-0,048
-620,619	-200,000	0,021	0,110
-619,605	-200,000	0,023	0,130
-618,590	800,000	-0,024	0,057
-617,576	-200,000	-0,020	0,083
-616,561	-200,000	0,010	-0,086
-615,546	800,000	-0,070	-0,173
-614,532	-200,000	0,009	0,054
-613,517	22,578	-0,077	-0,047
-612,503	800,000	-0,048	-0,144
-611,488	-200,000	-0,004	-0,097
-610,474	205,382	0,045	0,052
-609,459	-200,000	0,034	0,126
-608,444	70,538	-0,068	-0,052
-607,430	800,000	-0,025	0,076
-606,415	25,716	-0,126	0,078
-605,401	-200,000	0,007	0,044
-604,386	135,073	-0,083	0,080
-603,371	21,579	0,131	0,079
-602,357	-200,000	-0,009	0,034
-601,342	-4,498	0,027	0,014
-600,328	-95,757	-0,136	0,027
-599,313	410,209	-0,034	-0,053
-598,298	104,417	0,119	-0,104
-597,284	61,359	0,113	0,083
-596,269	373,743	-0,042	-0,063
-595,255	78,670	-0,080	-0,063
-594,240	-200,000	-0,035	0,117
-593,225	-200,000	-0,041	-0,145
-592,211	261,990	-0,038	0,049
-591,196	752,548	0,027	-0,053
-590,182	-70,326	-0,039	0,011
-589,167	430,780	0,021	0,033
-588,152	37,194	-0,077	0,050
-587,138	-200,000	-0,011	-0,167
-586,123	108,912	0,092	-0,082
-585,109	-200,000	-0,002	0,237
-584,094	800,000	0,069	0,181
-583,079	96,946	0,031	0,027
-582,065	800,000	0,024	-0,068
-581,050	-200,000	0,000	0,013
-580,036	225,016	-0,069	0,083
-579,021	-46,528	-0,181	-0,066
-578,006	43,848	-0,057	-0,039
-576,992	-80,343	0,080	0,020
-575,977	10,151	-0,075	0,042
-574,963	302,903	-0,072	-0,099
-573,948	-200,000	-0,021	-0,104
-572,934	-200,000	0,000	0,005
-571,919	800,000	-0,024	-0,067
-570,904	48,124	0,035	-0,024
-569,890	-53,024	0,102	-0,035
-568,875	-48,206	0,050	-0,018
-567,861	7,769	0,047	-0,026
-566,846	-89,817	0,081	-0,018
-565,831	-200,000	0,025	-0,153
-564,817	195,265	-0,029	0,032
-563,802	-145,947	-0,094	-0,006
-562,788	153,373	0,117	-0,119
-561,773	-41,826	0,127	0,048
-560,758	-172,666	0,023	0,001
-559,744	800,000	0,032	0,084
-558,729	248,766	0,044	0,055
-557,715	396,423	0,062	0,097
-556,700	39,367	-0,148	-0,098
-555,685	800,000	0,072	-0,155
-554,671	-200,000	0,011	-0,129
-553,656	-200,000	0,038	-0,210
-552,642	-64,557	-0,014	0,004
-551,627	800,000	-0,016	0,035
-550,612	-128,072	0,075	0,008
-549,598	800,000	0,075	-0,161
-548,583	800,000	-0,044	-0,094
-547,569	88,225	0,042	-0,034
-546,554	-5,415	0,139	0,070
-545,539	-200,000	0,008	-0,055
-544,525	136,424	0,068	-0,065
-543,510	54,057	-0,139	0,099
-542,496	-16,479	-0,075	0,035
-541,481	132,419	-0,046	-0,044
-540,466	9,929	-0,049	0,027
-539,452	60,492	0,111	-0,081
-538,437	800,000	0,064	0,143
-537,423	93,345	0,091	-0,076
-536,408	-56,590	-0,055	0,018
-535,393	-139,127	-0,066	-0,005
-534,379	165,212	-0,060	0,063
-533,364	399,508	-0,011	-0,017
-532,350	-7,490	0,074	0,037
-531,335	-200,000	-0,031	0,125
-530,321	-200,000	0,018	0,063
-529,306	800,000	-0,029	-0,094
-528,291	800,000	0,029	0,081
-527,277	-200,000	0,012	-0,085
-526,262	77,409	-0,050	-0,039
-525,248	-200,000	0,024	-0,131
-524,233	111,450	-0,086	-0,077
-523,218	-100,536	0,153	0,028
-522,204	161,658	-0,056	0,058
-521,189	800,000	0,043	0,093
-520,175	-101,297	0,049	-0,009
-519,160	-200,000	0,017	0,095
-518,145	60,868	-0,015	-0,011
-517,131	23,834	-0,071	-0,043
-516,116	-59,261	-0,037	0,012
-515,102	-177,451	0,031	-0,001
-514,087	-96,262	0,033	0,006
-513,072	-69,938	-0,105	-0,029
-512,058	181,711	0,059	-0,064
-511,043	800,000	-0,042	-0,106
-510,029	-45,663	0,121	0,044
-509,014	605,325	0,038	0,069
-507,999	800,000	0,059	0,150
-506,985	-200,000	-0,019	-0,075
-505,970	13,497	-0,049	0,028
-504,956	-97,351	0,055	-0,010
-503,941	-32,186	-0,075	0,031
-502,926	-126,936	-0,104	-0,011
-501,912	-200,000	-0,021	0,099
-500,897	800,000	0,033	0,090
-499,883	800,000	-0,053	-0,136
-498,868	-118,082	0,057	0,007
-497,853	266,972	-0,143	-0,186
-496,839	800,000	-0,067	0,162
-495,824	-96,343	-0,041	-0,008
-494,810	154,774	-0,071	0,072
-493,795	343,470	0,046	0,067
-492,781	153,149	-0,111	0,112
-491,766	800,000	-0,026	-0,056
-490,751	245,256	-0,060	-0,075
-489,737	-200,000	-0,025	0,096
-488,722	92,045	0,095	-0,079
-487,708	-38,910	0,221	-0,086
-486,693	800,000	-0,012	0,027
-485,678	20,910	0,133	0,079
-484,664	-78,485	-0,023	-0,006
-483,649	153,645	0,086	-0,087
-482,635	73,233	-0,027	0,021
-481,620	78,935	0,115	-0,090
-480,605	50,605	0,072	-0,051
-479,591	-200,000	-0,030	0,099
-478,576	28,191	0,108	0,067
-477,562	67,102	0,058	0,044
-476,547	62,686	0,081	0,060
-475,532	-117,955	-0,050	0,007
-474,518	-108,916	0,112	0,017
-473,503	800,000	0,019	0,059
-472,489	4,908	-0,070	0,038
-471,474	800,000	-0,020	0,051
-470,459	-108,654	0,041	-0,006
-469,445	-83,471	-0,154	-0,036
-468,430	-200,000	-0,015	-0,117
-467,416	485,830	-0,034	0,058
-466,401	-11,121	0,095	-0,046
-465,386	-102,759	0,029	-0,005
-464,372	235,785	0,040	0,049
-463,357	150,274	-0,104	-0,104
-462,343	-74,058	-0,160	-0,042
-461,328	280,410	0,059	-0,077
-460,313	-144,886	-0,042	0,003
-459,299	-88,751	0,026	0,006
-458,284	-200,000	-0,018	-0,077
-457,270	44,672	-0,053	0,036
-456,255	-200,000	0,024	0,152
-455,241	-200,000	-0,011	-0,085
-454,226	-200,000	0,019	-0,073
-453,211	-43,347	0,102	0,038
-452,197	-200,000	-0,008	-0,050
-451,182	-19,452	0,069	0,032
-450,168	200,586	0,102	-0,116
-449,153	-18,944	-0,079	-0,036
-448,138	800,000	-0,028	-0,079
-447,124	17,729	-0,082	0,048
-446,109	719,947	-0,033	0,064
-445,095	800,000	-0,025	0,077
-444,080	800,000	-0,050	0,153
-443,065	-6,918	-0,138	0,069
-442,051	300,506	-0,018	-0,024
-441,036	369,986	-0,060	-0,090
-440,022	-200,000	-0,006	-0,036
-439,007	-200,000	-0,009	-0,033
-437,992	-200,000	0,000	-0,036
-436,978	118,629	0,127	0,115
-435,963	-200,000	0,020	0,085
-434,949	-90,879	0,079	-0,017
-433,934	608,040	-0,075	-0,139
-432,919	129,254	0,070	-0,066
-431,905	-60,291	0,119	0,037
-430,890	156,764	-0,073	0,075
-429,876	800,000	0,014	0,028
-428,861	800,000	-0,055	0,130
-427,846	678,186	-0,056	0,108
-426,832	-12,273	-0,082	0,039
-425,817	162,466	-0,039	0,040
-424,803	-88,295	-0,080	-0,017
-423,788	-200,000	0,012	-0,076
-422,773	20,582	0,232	-0,138
-421,759	-13,889	-0,055	-0,026
-420,744	222,429	0,050	-0,059
-419,730	-30,070	0,046	-0,019
-418,715	114,994	-0,106	-0,095
-417,701	0,523	0,069	0,036
-416,686	-117,814	0,203	-0,027
-415,671	463,556	0,058	0,096
-414,657	-54,007	0,075	-0,025
-413,642	800,000	-0,026	0,056
-412,628	800,000	0,030	-0,091
-411,613	-139,693	-0,101	0,008
-410,598	-106,269	-0,036	0,006
-409,584	153,686	-0,038	0,038
-408,569	-200,000	-0,034	0,170
-407,555	113,046	-0,104	-0,093
-406,540	-200,000	0,012	-0,058
-405,525	-200,000	-0,007	-0,033
-404,511	-111,894	0,029	-0,004
-403,496	800,000	-0,037	-0,088
-402,482	-154,932	-0,034	0,002
-401,467	800,000	0,043	-0,098
-400,452	337,314	0,052	0,075
-399,438	-200,000	0,035	0,116
-398,423	-200,000	-0,006	-0,021
-397,409	-72,110	0,204	0,055
-396,394	-122,411	-0,207	0,025
-395,379	535,840	0,049	-0,086
-394,365	-49,035	0,087	-0,030
-393,350	800,000	-0,035	0,075
-392,336	-0,110	-0,105	0,055
-391,321	267,746	-0,021	-0,028
-390,306	216,932	-0,123	-0,144
-389,292	-3,673	0,144	-0,073
-388,277	-52,189	0,097	-0,033
-387,263	800,000	-0,053	0,123
-386,248	800,000	0,018	0,048
-385,233	-61,287	0,143	0,044
-384,219	754,390	-0,029	-0,057
-383,204	409,100	-0,087	-0,135
-382,190	-80,548	-0,075	-0,018
-381,175	-108,304	-0,059	0,009
-380,160	-200,000	-0,005	-0,035
-379,146	-200,000	-0,035	0,000
-378,131	800,000	0,032	-0,103
-377,117	-200,000	0,004	0,016
-376,102	-159,998	-0,044	0,002
-375,088	64,656	0,055	-0,041
-374,073	-200,000	0,002	0,028
-373,058	449,780	-0,031	0,050
-372,044	533,679	0,019	0,032
-371,029	56,040	0,103	-0,074
-370,015	634,996	-0,032	0,060
-369,000	800,000	-0,055	0,120
-367,985	-200,000	0,008	-0,084
-366,971	800,000	0,017	0,044
-365,956	10,545	0,110	-0,061
-364,942	-38,791	-0,067	0,026
-363,927	-92,362	-0,099	0,020
-362,912	727,696	0,028	0,055
-361,898	-133,437	0,107	0,010
-360,883	-200,000	-0,016	-0,062
-359,869	676,140	-0,015	-0,029
-358,854	800,000	0,024	0,059
-357,839	-72,943	0,107	0,029
-356,825	10,943	-0,020	-0,011
-355,810	-190,763	0,072	-0,001
-354,796	-200,000	0,029	-0,112
-353,781	328,982	0,013	0,019
-352,766	-42,741	-0,070	-0,026
-351,752	51,648	0,094	0,065
-350,737	17,742	0,027	0,016
-349,723	23,378	0,068	0,041
-348,708	-39,182	0,059	-0,023
-347,693	160,245	-0,033	0,034
-346,679	313,543	-0,031	0,043
-345,664	800,000	-0,058	0,186
-344,650	378,656	0,075	0,113
-343,635	359,993	0,005	-0,008
-342,620	-200,000	0,004	0,093
-341,606	-126,993	0,120	-0,013
-340,591	-70,968	-0,047	-0,013
-339,577	-200,000	0,013	0,153
-338,562	-65,754	0,084	-0,025
-337,548	-33,908	-0,123	-0,050
-336,533	800,000	0,061	0,162
-335,518	-11,720	-0,115	0,055
-334,504	-38,433	-0,055	0,021
-333,489	-39,934	-0,148	0,056
-332,475	-25,446	-0,088	-0,038
-331,460	-200,000	0,013	0,105
-330,445	-15,524	-0,091	-0,043
-329,431	-0,570	-0,021	0,011
-328,416	-20,671	0,084	0,038
-327,402	-6,875	0,025	-0,013
-326,387	-143,459	0,066	-0,005
-325,372	184,447	-0,089	-0,097
-324,358	374,989	-0,074	-0,111
-323,343	-188,980	0,062	0,001
-322,329	-86,952	-0,104	0,023
-321,314	-1,152	0,069	-0,036
-320,299	71,256	0,119	-0,091
-319,285	421,442	-0,014	0,021
-318,270	693,468	0,052	0,100
-317,256	-200,000	0,016	-0,079
-316,241	-200,000	-0,024	-0,101
-315,226	122,259	-0,023	0,021
-314,212	-200,000	0,009	-0,067
-313,197	147,076	-0,036	-0,035
-312,183	-171,385	0,154	-0,004
-311,168	800,000	0,037	0,076
-310,153	-200,000	-0,000	0,040
-309,139	-120,602	0,054	-0,007
-308,124	-7,064	0,059	0,029
-307,110	-200,000	0,009	0,094
-306,095	109,099	0,058	0,051
-305,080	29,041	0,119	0,074
-304,066	-200,000	-0,020	-0,107
-303,051	800,000	-0,023	-0,067
-302,037	-200,000	0,028	-0,133
-301,022	-9,578	0,036	0,018
-300,008	800,000	-0,054	0,170
-298,993	-0,864	0,044	0,023
-297,978	-200,000	-0,050	0,168
-296,964	-9,255	-0,056	0,028
-295,949	-200,000	0,014	0,143
-294,935	185,093	-0,062	0,067
-293,920	800,000	0,048	0,130
-292,905	-32,264	0,069	-0,028
-291,891	78,074	0,065	0,051
-290,876	167,433	-0,115	0,120
-289,862	-200,000	-0,026	-0,099
-288,847	-134,795	0,030	-0,003
-287,832	-200,000	-0,004	0,059
-286,818	-103,219	-0,138	0,024
-285,803	491,676	0,063	0,107
-284,789	800,000	0,058	0,132
-283,774	283,042	0,067	0,088
-282,759	-157,678	-0,055	0,002
-281,745	-200,000	0,002	0,012
-280,730	-75,882	-0,157	0,040
-279,716	-200,000	-0,000	-0,065
-278,701	-191,290	-0,031	-0,000
-277,686	-200,000	0,029	0,160
-276,672	-52,241	0,058	-0,020
-275,657	-200,000	0,027	-0,101
-274,643	69,642	-0,065	0,049
-273,628	174,975	-0,063	-0,066
-272,613	43,756	0,031	-0,021
-271,599	318,214	0,035	-0,048
-270,584	-200,000	0,008	-0,065
-269,570	-141,219	0,012	-0,001
-268,555	800,000	0,066	0,159
-267,540	424,766	-0,008	0,012
-266,526	-63,795	0,082	-0,025
-265,511	800,000	0,017	0,041
-264,497	134,395	-0,076	0,072
-263,482	359,713	0,040	-0,059
-262,467	1,602	-0,096	-0,050
-261,453	-172,453	-0,095	0,002
-260,438	458,854	-0,019	-0,032
-259,424	33,187	0,156	-0,098
-258,409	-200,000	-0,053	-0,243
-257,395	53,539	0,011	-0,008
-256,380	149,374	-0,030	0,030
-255,365	-71,779	-0,052	0,014
-254,351	128,717	0,036	-0,034
-253,336	-59,286	-0,137	-0,043
-252,322	-101,444	0,083	-0,015
-251,307	132,694	-0,077	0,072
-250,292	-200,000	-0,018	-0,102
-249,278	-200,000	-0,009	0,091
-248,263	45,269	0,116	0,078
-247,249	-89,937	0,098	-0,021
-246,234	497,789	0,076	-0,129
-245,219	20,545	0,053	0,031
-244,205	300,045	0,041	-0,056
-243,190	5,289	0,014	0,007
-242,176	470,679	0,095	0,156
-241,161	-5,680	0,046	0,023
-240,146	-200,000	-0,003	-0,132
-239,132	60,815	-0,183	-0,133
-238,117	-50,275	-0,134	-0,046
-237,103	-200,000	0,026	-0,100
-236,088	43,739	0,099	0,066
-235,073	-200,000	0,008	0,078
-234,059	800,000	-0,032	-0,099
-233,044	-69,556	0,012	-0,003
-232,030	-200,000	-0,009	-0,090
-231,015	800,000	-0,024	-0,054
-230,000	246,887	-0,045	-0,055
-228,986	-200,000	0,007	-0,039
-227,971	-78,942	0,145	0,036
-226,957	-42,759	-0,015	0,005
-225,942	-93,873	-0,090	-0,018
-224,927	-200,000	-0,023	0,086
-223,913	-200,000	0,008	0,068
-222,898	800,000	-0,022	0,063
-221,884	420,915	-0,060	-0,094
-220,869	60,095	-0,049	-0,036
-219,855	-94,626	0,014	0,003
-218,840	7,469	-0,124	0,067
-217,825	629,324	-0,050	-0,094
-216,811	167,781	0,021	0,021
-215,796	800,000	-0,032	0,101
-214,782	268,614	-0,067	0,086
-213,767	367,433	0,042	0,062
-212,752	-200,000	-0,003	0,106
-211,738	-74,667	0,086	0,022
-210,723	-200,000	-0,014	0,081
-209,709	-200,000	-0,016	-0,076
-208,694	59,371	-0,039	0,028
-207,679	588,392	-0,041	-0,073
-206,665	-200,000	0,013	0,057
-205,650	-200,000	0,013	-0,071
-204,636	-90,041	0,192	0,040
-203,621	800,000	-0,045	-0,140
-202,606	95,881	-0,044	-0,037
-201,592	-43,847	-0,083	0,030
-200,577	601,856	0,050	-0,091
-199,563	-200,000	0,001	0,121
-198,548	150,311	-0,048	0,048
-197,533	116,440	0,091	0,082
-196,519	299,214	-0,125	-0,169
-195,504	800,000	0,018	0,041
-194,490	-200,000	-0,031	-0,212
-193,475	8,651	0,057	-0,031
-192,460	29,204	0,047	-0,029
-191,446	-103,856	-0,075	0,013
-190,431	-200,000	0,034	0,145
-189,417	159,417	0,103	0,105
-188,402	-200,000	-0,028	0,097
-187,387	-167,839	-0,042	-0,001
-186,373	800,000	-0,027	0,068
-185,358	-36,811	-0,170	0,066
-184,344	-200,000	-0,003	-0,012
-183,329	-200,000	-0,004	0,081
-182,315	314,592	0,081	-0,111
-181,300	-152,304	0,052	0,003
-180,285	81,801	-0,064	0,051
-179,271	-42,853	-0,176	-0,065
-178,256	208,766	0,029	-0,033
-177,242	102,503	-0,072	-0,061
-176,227	-71,793	0,087	0,024
-175,212	-200,000	0,016	0,074
-174,198	800,000	-0,045	0,116
-173,183	51,744	-0,133	-0,092
-172,169	323,492	-0,037	-0,052
-171,154	112,129	-0,070	0,062
-170,139	-200,000	0,000	-0,025
-169,125	-200,000	-0,026	0,147
-168,110	-136,529	-0,018	0,002
-167,096	-45,910	-0,034	-0,012
-166,081	-64,421	0,145	-0,043
-165,066	431,976	0,051	-0,080
-164,052	-62,579	-0,108	0,032
-163,037	-88,998	0,020	-0,004
-162,023	-200,000	-0,001	-0,052
-161,008	40,299	0,165	0,108
-159,993	800,000	-0,040	0,096
-158,979	41,020	0,127	0,084
-157,964	-200,000	0,017	0,121
-156,950	171,024	0,086	0,090
-155,935	-94,564	-0,097	0,019
-154,920	720,586	0,023	-0,044
-153,906	800,000	0,011	-0,030
-152,891	-150,323	0,190	-0,010
-151,877	-65,134	-0,102	0,030
-150,862	-23,275	0,029	-0,013
-149,847	-108,722	0,136	-0,021
-148,833	49,739	0,049	0,034
-147,818	-81,195	0,089	-0,021
-146,804	-40,546	0,031	0,012
-145,789	-76,995	0,035	-0,009
-144,775	-126,740	-0,155	0,017
-143,760	77,673	0,054	0,042
-142,745	-136,018	-0,079	-0,007
-141,731	-200,000	-0,000	-0,007
-140,716	116,497	-0,124	0,110
-139,702	-200,000	0,037	0,167
-138,687	-196,904	0,069	0,000
-137,672	102,431	-0,043	0,037
-136,658	-188,140	-0,239	-0,002
-135,643	149,381	0,034	-0,033
-134,629	800,000	0,047	0,102
-133,614	800,000	0,103	0,260
-132,599	192,690	-0,051	-0,056
-131,585	-200,000	0,003	-0,034
-130,570	-34,963	-0,107	-0,042
-129,556	-200,000	-0,015	0,085
-128,541	-200,000	0,013	-0,087
-127,526	-131,543	0,214	0,020
-126,512	800,000	0,023	0,056
-125,497	800,000	0,003	0,010
-124,483	-171,461	-0,064	-0,002
-123,468	-200,000	0,000	0,067
-122,453	598,466	0,044	-0,079
-121,439	-200,000	0,026	-0,168
-120,424	-99,697	0,091	0,016
-119,410	800,000	0,068	0,142
-118,395	16,447	0,151	0,087
-117,380	-200,000	0,002	-0,076
-116,366	-104,694	-0,072	-0,012
-115,351	-93,898	0,076	0,015
-114,337	800,000	-0,004	0,013
-113,322	-200,000	0,005	0,019
-112,307	73,626	-0,041	0,032
-111,293	266,835	-0,049	0,062
-110,278	-196,305	-0,043	0,000
-109,264	-166,634	-0,076	0,002
-108,249	800,000	0,056	-0,119
-107,234	151,569	-0,035	0,035
-106,220	-200,000	0,017	-0,114
-105,205	6,816	0,072	0,039
-104,191	-15,796	0,081	0,037
-103,176	39,416	-0,054	0,035
-102,162	509,273	0,048	0,082
-101,147	-200,000	-0,010	0,154
-100,132	800,000	-0,026	-0,075
-99,118	9,417	-0,078	0,043
-98,103	288,146	0,069	-0,091
-97,089	-61,485	0,142	-0,043
-96,074	672,680	0,021	0,039
-95,059	-200,000	-0,008	0,109
-94,045	-17,315	-0,105	-0,048
-93,030	439,238	-0,086	-0,137
-92,016	-200,000	-0,026	-0,096
-91,001	-75,274	0,127	0,033
-89,986	224,796	0,038	-0,045
-88,972	800,000	-0,087	0,210
-87,957	800,000	-0,030	0,086
-86,943	-200,000	-0,012	0,060
-85,928	-200,000	-0,022	-0,143
-84,913	94,619	-0,048	0,039
-83,899	-139,482	-0,068	0,005
-82,884	-200,000	0,046	0,170
-81,870	10,367	0,174	0,096
-80,855	352,043	0,120	0,173
-79,840	0,013	-0,091	-0,047
-78,826	-200,000	0,007	-0,062
-77,811	800,000	-0,054	-0,160
-76,797	-200,000	-0,011	-0,052
-75,782	-198,402	-0,136	-0,001
-74,767	-200,000	0,016	-0,078
-73,753	-24,898	0,051	0,022
-72,738	-102,809	-0,040	-0,007
-71,724	67,418	-0,054	-0,040
-70,709	197,494	-0,045	-0,050
-69,694	257,548	0,062	-0,078
-68,680	-0,279	-0,081	0,042
-67,665	-200,000	-0,002	0,052
-66,651	800,000	-0,038	-0,108
-65,636	-126,798	-0,045	-0,005
-64,622	-100,925	-0,052	-0,009
-63,607	250,117	-0,043	-0,053
-62,592	800,000	0,020	-0,060
-61,578	180,365	0,036	0,039
-60,563	-50,634	0,021	-0,007
-59,549	-200,000	-0,013	0,150
-58,534	-113,610	-1,406	-0,197
-57,519	545,908	-0,805	-1,402
-56,505	-200,000	-0,891	-4,422
-55,490	25,865	0,493	-0,298
-54,476	800,000	5,014	11,941
-53,461	-200,000	13,764	253,616
-52,446	-200,000	691,729	2254,638
-51,432	586,746	1623,079	2910,580
-50,417	118,472	1634,361	1463,878
-49,403	73,005	1287,895	975,678
-48,388	37,860	1023,929	659,030
-47,373	24,214	981,956	587,114
-46,359	23,400	971,429	578,128
-45,344	22,395	967,243	572,327
-44,330	22,376	965,655	571,302
-43,315	22,240	964,326	570,049
-42,300	22,274	963,120	569,425
-41,286	22,287	962,269	568,940
-40,271	22,218	961,412	568,187
-39,257	22,265	960,381	567,711
-38,242	22,202	959,444	566,929
-37,227	22,198	958,477	566,321
-36,213	22,200	957,502	565,728
-35,198	22,212	956,856	565,364
-34,184	22,260	956,118	565,062
-33,169	22,235	955,215	564,426
-32,154	22,260	954,329	563,957
-31,140	22,188	953,585	563,264
-30,125	22,221	952,892	562,940
-29,111	22,239	951,803	562,332
-28,096	22,243	951,174	561,949
-27,082	22,242	950,655	561,618
-26,067	22,226	949,799	561,038
-25,052	22,256	948,972	560,624
-24,038	22,210	948,435	560,138
-23,023	22,208	947,843	559,759
-22,009	22,300	947,063	559,570
-20,994	22,341	946,386	559,278
-19,979	22,240	946,009	558,710
-18,965	22,327	945,180	558,479
-17,950	22,287	944,545	557,952
-16,936	22,120	944,061	557,113
-15,921	22,199	943,298	556,891
-14,906	22,154	942,508	556,260
-13,892	22,128	941,958	555,830
-12,877	22,185	941,232	555,560
-11,863	22,126	940,660	555,014
-10,848	22,119	940,173	554,684
-9,833	22,206	939,612	554,607
-8,819	22,206	938,917	554,174
-7,804	22,180	938,324	553,719
-6,790	22,181	937,854	553,423
-5,775	22,113	937,190	552,794
-4,760	22,101	936,647	552,413
-3,746	22,089	936,016	551,981
-2,731	21,970	935,239	551,126
-1,717	21,905	934,515	550,470
-0,702	22,001	933,845	550,358
0,313	21,795	933,186	550,152
1,327	24,884	931,238	558,669
2,342	34,396	795,563	502,605
3,356	32,349	451,147	281,909
4,371	1,191	293,807	152,481
5,386	-3,200	274,688	138,389
6,400	-4,896	268,882	133,877
7,415	-5,445	266,397	132,123
8,429	-4,940	265,246	132,003
9,444	-4,824	264,391	131,672
10,459	-4,874	263,719	131,280
11,473	-4,947	263,206	130,947
12,488	-5,085	262,775	130,595
13,502	-5,281	262,293	130,166
14,517	-5,066	261,825	130,117
15,531	-4,798	261,406	130,139
16,546	-4,815	261,124	129,972
17,561	-4,871	260,699	129,698
18,575	-4,714	260,420	129,688
19,590	-4,943	259,962	129,244
20,604	-4,755	259,788	129,314
21,619	-4,847	259,507	129,081
22,634	-4,948	259,177	128,815
23,648	-4,933	258,800	128,629
24,663	-4,905	258,588	128,537
25,677	-4,844	258,408	128,490
26,692	-4,793	258,067	128,355
27,707	-4,912	257,925	128,167
28,721	-4,867	257,426	127,947
29,736	-5,091	257,294	127,672
30,750	-4,898	256,948	127,660
31,765	-5,088	256,797	127,405
32,780	-4,849	256,419	127,418
33,794	-5,060	256,300	127,161
34,809	-5,105	256,144	127,032
35,823	-5,007	255,896	126,985
36,838	-4,994	255,556	126,816
37,853	-5,035	255,321	126,652
38,867	-5,183	255,220	126,460
39,882	-5,034	255,051	126,496
40,896	-4,991	254,747	126,372
41,911	-4,887	254,341	126,250
42,926	-5,122	254,212	125,969
43,940	-5,079	254,110	125,945
44,955	-4,987	253,784	125,852
45,969	-5,168	253,618	125,601
46,984	-5,384	253,391	125,289
47,999	-5,460	252,907	124,973
49,013	-5,673	252,834	124,739
50,028	-5,867	252,687	124,488
51,042	-5,726	252,271	124,394
52,057	-5,755	252,067	124,257
53,071	-5,677	251,803	124,183
54,086	-5,473	251,700	124,298
55,101	-5,607	251,471	124,058
56,115	-5,391	251,604	124,300
57,130	-4,928	251,306	124,541
58,144	-4,890	251,115	124,468
59,159	-4,834	250,943	124,421
60,174	-4,689	250,759	124,443
61,188	-5,075	250,666	124,053
62,203	-4,802	250,458	124,174
63,217	-5,054	250,215	123,826
64,232	-5,044	249,992	123,713
65,247	-4,956	249,752	123,659
66,261	-5,112	249,457	123,368
67,276	-5,210	249,210	123,151
68,290	-5,321	249,051	122,966
69,305	-5,493	248,841	122,705
70,320	-5,466	248,650	122,622
71,334	-5,348	248,650	122,712
72,349	-4,890	248,355	122,946
73,363	-4,886	248,134	122,829
74,378	-4,837	247,865	122,728
75,393	-4,752	247,659	122,687
76,407	-4,937	247,554	122,466
77,422	-4,790	247,240	122,425
78,436	-4,852	247,088	122,287
79,451	-4,965	246,813	122,044
80,466	-4,958	246,599	121,933
81,480	-5,085	246,500	121,765
82,495	-5,261	246,354	121,534
83,509	-5,235	246,152	121,445
84,524	-5,345	245,922	121,229
85,539	-5,264	245,695	121,173
86,553	-5,419	245,521	120,946
87,568	-5,518	245,363	120,775
88,582	-5,189	245,135	120,928
89,597	-5,385	244,929	120,651
90,611	-5,019	244,816	120,892
91,626	-4,948	244,578	120,823
92,641	-4,964	244,528	120,774
93,655	-5,089	244,285	120,539
94,670	-5,078	244,067	120,430
95,684	-5,116	243,905	120,307
96,699	-5,027	243,750	120,294
97,714	-5,067	243,503	120,129
98,728	-5,320	243,332	119,822
99,743	-5,419	243,113	119,622
100,757	-5,403	242,962	119,550
101,772	-5,300	242,761	119,526
102,787	-5,248	242,602	119,480
103,801	-5,212	242,444	119,421
104,816	-5,050	242,313	119,481
105,830	-5,008	242,132	119,415
106,845	-4,926	241,935	119,376
107,860	-4,957	241,648	119,198
108,874	-5,293	241,677	118,924
109,889	-5,240	241,294	118,769
110,903	-5,266	241,149	118,665
111,918	-5,066	240,927	118,710
112,933	-5,229	240,865	118,535
113,947	-5,084	240,630	118,527
114,962	-5,155	240,641	118,464
115,976	-5,068	240,328	118,371
116,991	-4,827	240,191	118,492
118,006	-4,935	240,001	118,298
119,020	-5,076	239,910	118,127
120,035	-4,965	239,698	118,103
121,049	-4,859	239,530	118,097
122,064	-5,042	239,519	117,931
123,079	-4,950	239,154	117,816
124,093	-5,145	238,920	117,531
125,108	-5,379	238,826	117,282
126,122	-5,332	238,484	117,143
127,137	-5,328	238,186	116,989
128,151	-5,352	238,187	116,959
129,166	-5,370	238,086	116,885
130,181	-5,378	237,938	116,796
131,195	-5,310	237,524	116,637
132,210	-5,102	237,439	116,754
133,224	-5,111	237,428	116,730
134,239	-5,062	237,058	116,578
135,254	-4,853	236,995	116,706
136,268	-5,054	236,758	116,416
137,283	-5,546	236,631	115,946
138,297	-5,524	236,370	115,825
139,312	-5,643	236,221	115,646
140,327	-5,370	236,127	115,809
141,341	-4,884	236,141	116,198
142,356	-4,775	235,863	116,138
143,370	-4,793	235,963	116,163
144,385	-4,747	235,592	116,007
145,400	-4,770	235,429	115,898
146,414	-4,770	235,240	115,794
147,429	-4,788	235,141	115,721
148,443	-4,792	234,909	115,594
149,458	-4,779	234,757	115,518
150,473	-4,844	234,494	115,327
151,487	-4,724	234,354	115,343
152,502	-4,718	234,176	115,251
153,516	-4,890	234,094	115,063
154,531	-4,988	233,820	114,840
155,546	-4,903	233,895	114,934
156,560	-4,823	233,459	114,773
157,575	-5,164	233,405	114,465
158,589	-5,064	233,207	114,437
159,604	-4,760	233,019	114,576
160,619	-4,610	232,864	114,609
161,633	-4,662	232,839	114,545
162,648	-4,679	232,591	114,400
163,662	-4,823	232,578	114,269
164,677	-4,775	232,262	114,141
165,692	-4,954	232,337	114,026
166,706	-4,679	232,124	114,129
167,721	-4,767	231,895	113,936
168,735	-4,723	231,840	113,934
169,750	-4,760	231,614	113,784
170,764	-4,715	231,434	113,721
171,779	-4,685	231,257	113,647
172,794	-4,736	231,182	113,560
173,808	-4,912	231,019	113,331
174,823	-5,210	230,626	112,895
175,837	-5,442	230,499	112,640
176,852	-5,177	230,444	112,811
177,867	-4,951	230,262	112,889
178,881	-4,711	230,107	112,991
179,896	-4,652	230,046	112,997
180,910	-4,711	229,908	112,873
181,925	-4,575	229,674	112,855
182,940	-4,608	229,500	112,733
183,954	-4,489	229,448	112,791
184,969	-4,447	229,145	112,664
185,983	-4,630	229,205	112,541
186,998	-4,500	228,948	112,505
188,013	-4,651	228,735	112,273
189,027	-4,595	228,744	112,312
190,042	-4,504	228,421	112,213
191,056	-4,484	228,271	112,146
192,071	-4,545	228,239	112,072
193,086	-4,638	228,002	111,874
194,100	-4,789	227,858	111,677
195,115	-5,099	227,394	111,200
196,129	-6,016	227,189	110,381
197,144	-2,125	228,375	113,965
198,159	2,631	229,546	118,236
199,173	4,301	229,998	119,755
200,188	4,138	229,927	119,581
201,202	4,295	229,706	119,577
202,217	4,625	229,756	119,849
203,232	4,694	229,658	119,840
204,246	4,477	229,577	119,620
205,261	4,726	229,286	119,649
206,275	5,157	229,263	119,960
207,290	4,993	229,172	119,775
208,304	4,897	228,837	119,516
209,319	4,988	228,659	119,482
210,334	4,956	228,500	119,363
211,348	4,704	228,213	119,009
212,363	4,335	227,947	118,576
213,377	3,948	227,887	118,237
214,392	3,948	227,754	118,157
215,407	4,069	227,607	118,163
216,421	4,223	227,363	118,144
217,436	4,177	227,256	118,043
218,450	4,024	227,020	117,792
219,465	3,973	226,880	117,670
220,480	3,997	226,618	117,543
221,494	3,969	226,564	117,482
222,509	4,106	226,488	117,538
223,523	4,093	226,287	117,413
224,538	4,038	226,152	117,290
225,553	4,150	225,980	117,276
226,567	4,173	225,868	117,225
227,582	4,286	225,992	117,364
228,596	4,670	225,698	117,493
229,611	4,261	225,585	117,114
230,626	3,978	225,214	116,696
231,640	4,020	225,069	116,642
232,655	4,243	225,048	116,789
233,669	4,560	225,041	117,016
234,684	4,772	224,932	117,109
235,699	4,527	224,680	116,782
236,713	4,121	224,639	116,444
237,728	4,068	224,218	116,175
238,742	4,092	224,065	116,103
239,757	3,970	224,012	115,974
240,772	4,040	223,798	115,905
241,786	3,940	223,623	115,729
242,801	4,201	223,620	115,914
243,815	4,197	223,518	115,847
244,830	4,615	223,400	116,090
245,844	4,173	223,232	115,660
246,859	4,207	222,975	115,543
247,874	4,427	222,918	115,667
248,888	4,450	222,839	115,633
249,903	4,164	222,642	115,307
250,917	4,142	222,507	115,210
251,932	4,129	222,294	115,080
252,947	4,196	221,931	114,932
253,961	4,226	221,908	114,932
254,976	4,155	221,796	114,811
255,990	4,168	221,777	114,800
257,005	4,380	221,666	114,890
258,020	4,179	221,493	114,641
259,034	4,332	221,395	114,693
260,049	4,310	221,123	114,526
261,063	4,072	221,087	114,321
262,078	4,445	220,880	114,480
263,093	4,519	220,861	114,515
264,107	4,443	220,613	114,320
265,122	4,430	220,583	114,285
266,136	4,374	220,517	114,199
267,151	4,576	220,192	114,170
268,166	4,136	219,908	113,687
269,180	4,093	219,778	113,579
270,195	3,913	219,617	113,352
271,209	4,032	219,506	113,372
272,224	4,045	219,462	113,349
273,239	4,327	219,233	113,428
274,253	4,089	219,139	113,195
275,268	4,008	218,968	113,037
276,282	3,978	218,661	112,846
277,297	3,927	218,554	112,743
278,312	3,856	218,566	112,688
279,326	3,924	218,410	112,646
280,341	4,155	218,284	112,741
281,355	4,088	218,037	112,554
282,370	4,117	218,022	112,558
283,384	3,888	217,820	112,276
284,399	3,803	217,549	112,064
285,414	3,791	217,549	112,046
286,428	4,105	217,503	112,241
287,443	4,367	217,197	112,263
288,457	4,374	217,094	112,205
289,472	4,220	217,055	112,063
290,487	3,805	216,654	111,545
291,501	3,560	216,577	111,318
292,516	3,863	216,580	111,529
293,530	3,714	216,430	111,334
294,545	4,009	216,107	111,371
295,560	4,004	216,106	111,357
296,574	3,905	215,993	111,217
297,589	3,955	215,845	111,168
298,603	4,165	215,744	111,257
299,618	4,188	215,596	111,187
300,633	4,186	215,418	111,084
301,647	4,430	215,510	111,298
302,662	4,271	215,371	111,102
303,676	4,329	215,178	111,034
304,691	4,198	215,130	110,905
305,706	4,386	214,904	110,914
306,720	4,235	214,782	110,733
307,735	4,108	214,590	110,533
308,749	4,041	214,430	110,392
309,764	4,248	214,305	110,466
310,779	4,572	214,089	110,577
311,793	4,388	213,962	110,370
312,808	4,004	213,909	110,058
313,822	4,291	213,669	110,130
314,837	4,272	213,531	110,035
315,852	4,091	213,323	109,790
316,866	3,935	213,291	109,652
317,881	4,344	213,237	109,906
318,895	4,452	213,011	109,856
319,910	4,003	212,886	109,463
320,925	3,714	212,684	109,143
321,939	3,879	212,439	109,125
322,954	3,806	212,349	109,018
323,968	4,048	212,530	109,273
324,983	4,302	212,348	109,349
325,997	4,482	212,119	109,349
327,012	4,184	212,072	109,104
328,027	4,287	211,856	109,056
329,041	4,338	211,744	109,025
330,056	4,698	211,707	109,250
331,070	4,024	211,390	108,602
332,085	3,878	211,251	108,418
333,100	3,934	211,128	108,385
334,114	3,904	210,945	108,260
335,129	4,122	210,702	108,278
336,143	3,847	210,676	108,062
337,158	3,844	210,539	107,980
338,173	3,985	210,244	107,918
339,187	3,757	210,160	107,706
340,202	3,836	210,075	107,708
341,216	3,628	210,014	107,521
342,231	4,062	209,793	107,702
343,246	3,685	209,773	107,418
344,260	3,981	209,574	107,514
345,275	3,989	209,572	107,509
346,289	4,268	209,326	107,568
347,304	4,231	209,299	107,518
348,319	4,201	209,095	107,383
349,333	3,876	209,048	107,123
350,348	4,172	208,938	107,263
351,362	4,291	208,836	107,284
352,377	4,305	208,636	107,181
353,392	4,163	208,502	107,005
354,406	4,104	208,395	106,899
355,421	194,148	1345,571	1435,351
356,435	154,919	1484,221	1435,477
