DTS Sentinel unit serial number:	SN410029Multiplexer serial number:	ORYXHardware model number:	OX2-SRSoftware version number:	ORYX F/W v4,00 Oryx Data Collector v3.7.2.0data status	okinstallation	B6 Nyhavnadifferential loss correction	single-endedforward channel	channel 2reverse channel	N/Adate	2023/12/09time	01:15:08forward acquisition time	300,00reverse acquisition time	0,00gamma	499,1914k internal	0,3157k external	0,3157temperature offset calibration	1,0000default loss term (dB/km)	0,3820temperature slope calibration	1,0000multiplexer offset coefficient	1,0000multiplexer slope coefficient	1,0000fibre end	0,00T internal ref (°C)	15,74T ext. ref 1 (°C)	-0,60T ext. ref 2 (°C)	-0,61length (m)	temperature (°C)	Stokes	anti-Stokes-744,400	-20,145	0,071	0,032
-743,385	-112,301	-0,215	0,031
-742,371	-56,091	0,160	-0,052
-741,356	-157,337	-0,300	-0,013
-740,342	-74,277	0,185	0,049
-739,327	-89,184	-0,402	-0,087
-738,312	-180,685	0,181	-0,003
-737,298	-155,558	-0,318	0,015
-736,283	-23,491	0,198	-0,087
-735,269	-170,714	-0,371	0,009
-734,254	-93,570	0,151	0,031
-733,239	-62,767	-0,555	-0,168
-732,225	-99,725	0,101	-0,019
-731,210	-55,581	0,143	0,047
-730,196	-16,905	-0,116	-0,054
-729,181	44,447	-0,064	0,043
-728,167	88,937	-0,082	0,068
-727,152	-14,481	0,096	0,045
-726,137	36,178	-0,021	-0,014
-725,123	13,550	0,112	0,064
-724,108	724,173	-0,089	-0,175
-723,094	334,749	-0,064	-0,091
-722,079	16,601	0,112	0,065
-721,064	-89,791	-0,059	-0,013
-720,050	41,089	-0,034	-0,022
-719,035	-200,000	-0,000	0,041
-718,021	92,436	-0,067	-0,056
-717,006	160,621	-0,091	-0,093
-715,991	534,239	0,022	-0,039
-714,977	-72,325	-0,035	0,009
-713,962	800,000	-0,042	-0,112
-712,948	606,184	0,016	-0,029
-711,933	-200,000	-0,015	0,097
-710,918	-22,930	-0,101	0,045
-709,904	141,998	-0,056	-0,055
-708,889	69,043	-0,128	-0,097
-707,875	-40,238	-0,153	-0,058
-706,860	-110,671	0,111	-0,017
-705,845	-200,000	-0,012	0,137
-704,831	-44,232	-0,009	0,003
-703,816	800,000	0,022	-0,061
-702,802	-200,000	-0,001	0,077
-701,787	800,000	-0,049	-0,138
-700,772	7,489	-0,158	-0,087
-699,758	-198,958	0,187	-0,001
-698,743	-200,000	-0,023	0,085
-697,729	58,686	-0,045	-0,032
-696,714	-65,509	0,117	-0,034
-695,699	-0,915	-0,149	0,078
-694,685	800,000	-0,037	-0,083
-693,670	-200,000	-0,019	-0,103
-692,656	22,857	0,100	-0,060
-691,641	800,000	-0,038	-0,110
-690,627	-200,000	-0,001	0,167
-689,612	-200,000	-0,004	-0,186
-688,597	107,979	0,055	-0,048
-687,583	341,259	-0,080	-0,116
-686,568	800,000	-0,070	-0,160
-685,554	-200,000	-0,029	-0,165
-684,539	178,679	0,006	-0,007
-683,524	-200,000	-0,015	-0,082
-682,510	22,526	0,063	0,038
-681,495	-30,996	-0,114	0,047
-680,481	800,000	0,024	0,063
-679,466	268,281	-0,102	-0,132
-678,451	-200,000	-0,018	-0,076
-677,437	198,133	0,102	0,115
-676,422	10,704	0,091	0,051
-675,408	800,000	-0,050	0,104
-674,393	800,000	0,017	-0,052
-673,378	80,494	-0,081	0,064
-672,364	-73,756	0,064	-0,017
-671,349	800,000	-0,067	-0,180
-670,335	569,882	0,021	0,038
-669,320	-200,000	0,044	-0,159
-668,305	175,746	0,066	0,070
-667,291	48,549	-0,052	0,036
-666,276	64,170	-0,044	-0,033
-665,262	-64,543	0,037	-0,011
-664,247	-24,987	-0,029	-0,012
-663,232	43,283	0,114	-0,077
-662,218	800,000	-0,021	0,065
-661,203	-200,000	0,003	0,022
-660,189	152,798	0,069	-0,070
-659,174	-113,691	-0,083	-0,012
-658,159	184,450	0,038	-0,041
-657,145	349,687	-0,041	-0,060
-656,130	-200,000	0,055	-0,193
-655,116	-183,399	0,128	-0,002
-654,101	-200,000	-0,031	0,153
-653,086	370,107	0,029	0,043
-652,072	92,803	0,078	-0,065
-651,057	-200,000	0,006	-0,076
-650,043	800,000	0,065	-0,174
-649,028	-56,782	-0,090	0,029
-648,014	-200,000	0,014	0,078
-646,999	-200,000	-0,015	0,061
-645,984	-200,000	-0,013	-0,069
-644,970	417,100	-0,055	-0,087
-643,955	-200,000	0,001	-0,143
-642,941	94,536	-0,116	0,097
-641,926	800,000	0,009	-0,023
-640,911	800,000	-0,043	0,090
-639,897	29,332	-0,064	0,040
-638,882	-153,697	0,111	0,006
-637,868	155,848	0,037	-0,038
-636,853	-200,000	-0,001	-0,008
-635,838	41,302	-0,062	-0,041
-634,824	-98,613	-0,083	-0,015
-633,809	-141,828	-0,059	0,004
-632,795	-101,955	0,048	-0,009
-631,780	-126,511	-0,099	0,011
-630,765	270,710	0,051	-0,066
-629,751	81,385	-0,120	-0,095
-628,736	-114,406	-0,091	0,013
-627,722	-50,002	-0,069	0,024
-626,707	469,857	0,092	0,152
-625,692	29,495	0,033	0,021
-624,678	-90,791	-0,039	-0,008
-623,663	-154,137	-0,229	-0,011
-622,649	242,761	-0,090	-0,111
-621,634	-152,139	-0,086	0,004
-620,619	800,000	-0,025	0,052
-619,605	374,088	0,042	0,063
-618,590	800,000	0,047	-0,118
-617,576	800,000	-0,029	0,087
-616,561	508,391	-0,039	0,066
-615,546	-71,673	-0,122	-0,033
-614,532	-172,973	0,086	-0,002
-613,517	153,672	-0,063	-0,064
-612,503	297,083	0,086	-0,116
-611,488	800,000	0,053	0,153
-610,474	455,837	0,021	-0,035
-609,459	-200,000	0,006	0,054
-608,444	-36,889	-0,143	-0,056
-607,430	800,000	0,022	-0,046
-606,415	-200,000	0,010	-0,036
-605,401	-18,983	0,025	-0,011
-604,386	-200,000	-0,001	-0,123
-603,371	0,555	-0,104	0,055
-602,357	261,047	-0,030	0,039
-601,342	280,630	-0,032	-0,042
-600,328	-83,131	0,096	-0,022
-599,313	-23,808	-0,008	0,003
-598,298	-63,637	-0,124	-0,037
-597,284	276,061	0,056	0,073
-596,269	-9,567	0,037	0,018
-595,255	-98,786	-0,140	-0,026
-594,240	278,986	-0,074	-0,097
-593,225	-200,000	-0,013	-0,086
-592,211	40,992	-0,056	-0,037
-591,196	161,563	0,063	0,064
-590,182	26,307	0,013	-0,008
-589,167	141,590	0,040	-0,038
-588,152	800,000	-0,037	-0,090
-587,138	126,032	-0,125	-0,115
-586,123	23,740	-0,043	-0,026
-585,109	-38,520	0,078	-0,030
-584,094	-56,062	0,083	-0,027
-583,079	800,000	-0,014	0,041
-582,065	785,510	0,025	0,051
-581,050	8,429	0,039	-0,022
-580,036	-171,244	-0,055	0,001
-579,021	-200,000	-0,037	0,140
-578,006	1,850	-0,135	0,071
-576,992	197,646	-0,011	-0,013
-575,977	25,105	0,065	0,039
-574,963	732,248	-0,092	0,182
-573,948	137,236	-0,074	0,071
-572,934	-200,000	-0,002	-0,081
-571,919	-200,000	-0,049	0,000
-570,904	800,000	-0,030	-0,062
-569,890	110,677	0,105	0,093
-568,875	-49,926	0,043	-0,015
-567,861	268,073	0,074	0,095
-566,846	-47,239	-0,151	0,054
-565,831	-33,530	-0,083	-0,033
-564,817	99,865	-0,168	-0,143
-563,802	40,032	0,036	0,024
-562,788	-125,444	0,127	-0,014
-561,773	121,810	0,071	-0,065
-560,758	-118,262	0,173	0,022
-559,744	114,072	0,050	-0,045
-558,729	-200,000	-0,014	-0,148
-557,715	231,266	0,134	-0,161
-556,700	-200,000	0,001	-0,032
-555,685	-37,904	-0,090	0,035
-554,671	800,000	0,011	0,028
-553,656	656,227	0,027	0,050
-552,642	800,000	-0,046	0,097
-551,627	353,660	-0,022	0,032
-550,612	57,811	-0,029	-0,021
-549,598	360,924	0,055	-0,080
-548,583	321,111	-0,081	-0,113
-547,569	-65,861	-0,075	0,022
-546,554	800,000	-0,023	0,050
-545,539	-200,000	0,003	0,014
-544,525	277,001	0,109	-0,142
-543,510	-38,870	-0,131	0,050
-542,496	181,922	-0,034	0,036
-541,481	-188,821	-0,121	-0,001
-540,466	-49,272	-0,105	0,037
-539,452	-167,829	-0,160	-0,005
-538,437	244,707	0,020	0,024
-537,423	-0,236	-0,043	0,022
-536,408	-200,000	-0,029	0,168
-535,393	800,000	-0,021	0,047
-534,379	25,491	-0,084	0,051
-533,364	-28,557	-0,077	0,032
-532,350	15,348	0,169	-0,097
-531,335	-1,494	-0,049	-0,025
-530,321	-104,008	-0,092	0,015
-529,306	-200,000	-0,028	-0,239
-528,291	-4,191	0,103	0,052
-527,277	251,073	0,026	-0,032
-526,262	-66,289	-0,121	0,035
-525,248	800,000	0,093	0,215
-524,233	-200,000	-0,002	-0,047
-523,218	328,206	0,054	-0,076
-522,204	-200,000	-0,002	0,104
-521,189	378,686	-0,083	-0,125
-520,175	800,000	-0,045	-0,135
-519,160	60,202	0,149	0,107
-518,145	-200,000	0,065	0,000
-517,131	-200,000	-0,020	-0,104
-516,116	101,640	0,046	-0,039
-515,102	-70,972	0,111	-0,030
-514,087	800,000	0,021	0,053
-513,072	70,859	0,070	0,053
-512,058	-3,989	-0,075	-0,038
-511,043	-9,653	0,154	0,075
-510,029	-69,370	0,126	-0,035
-509,014	593,645	-0,064	0,116
-507,999	15,134	0,083	0,047
-506,985	-45,684	0,031	-0,011
-505,970	800,000	-0,017	-0,047
-504,956	800,000	0,010	-0,026
-503,941	-30,985	-0,011	-0,005
-502,926	-200,000	0,004	-0,017
-501,912	-4,564	0,057	-0,028
-500,897	-70,757	0,189	0,052
-499,883	-115,834	0,070	-0,009
-498,868	13,634	-0,080	-0,045
-497,853	-200,000	0,001	-0,042
-496,839	-135,800	-0,088	0,007
-495,824	-200,000	0,022	0,123
-494,810	-16,173	0,038	-0,018
-493,795	302,867	0,070	-0,095
-492,781	111,993	-0,077	-0,068
-491,766	119,588	-0,113	0,102
-490,751	4,655	0,061	-0,033
-489,737	344,913	0,046	0,066
-488,722	26,953	-0,046	0,028
-487,708	800,000	-0,025	0,059
-486,693	-139,637	0,026	0,002
-485,678	196,000	-0,082	-0,091
-484,664	-200,000	-0,004	-0,033
-483,649	286,852	-0,042	0,056
-482,635	798,773	-0,028	0,056
-481,620	147,818	0,067	0,066
-480,605	-17,824	0,159	0,072
-479,591	-200,000	0,003	-0,012
-478,576	-200,000	-0,016	0,148
-477,562	57,297	-0,074	0,053
-476,547	-8,400	0,058	0,028
-475,532	189,503	-0,033	0,037
-474,518	276,249	0,066	0,086
-473,503	-36,069	0,155	0,061
-472,489	-135,241	0,022	-0,002
-471,474	22,761	-0,115	0,069
-470,459	800,000	-0,061	-0,131
-469,445	26,945	-0,067	0,041
-468,430	-91,981	0,122	-0,025
-467,416	-200,000	0,014	-0,099
-466,401	458,481	-0,031	-0,050
-465,386	92,436	0,125	0,103
-464,372	124,663	0,041	-0,037
-463,357	13,587	0,050	-0,028
-462,343	-200,000	0,006	-0,050
-461,328	64,452	-0,056	0,041
-460,313	501,896	0,043	-0,073
-459,299	-200,000	0,003	0,128
-458,284	-200,000	-0,047	-0,190
-457,270	-198,114	-0,142	0,001
-456,255	-59,463	-0,152	0,047
-455,241	-153,104	0,117	-0,006
-454,226	797,918	-0,011	0,021
-453,211	-200,000	0,000	-0,121
-452,197	-123,289	-0,044	0,005
-451,182	231,733	-0,034	0,041
-450,168	15,926	0,077	0,044
-449,153	800,000	-0,040	0,086
-448,138	-73,096	-0,187	-0,050
-447,124	34,219	0,017	-0,011
-446,109	128,731	0,090	-0,083
-445,095	-200,000	-0,015	0,095
-444,080	34,600	0,073	0,046
-443,065	-200,000	0,010	-0,036
-442,051	-32,196	0,079	0,032
-441,036	164,997	0,049	0,050
-440,022	-146,821	-0,056	0,003
-439,007	73,641	-0,053	0,040
-437,992	494,036	-0,072	-0,120
-436,978	-14,205	0,098	0,046
-435,963	-108,939	-0,144	0,022
-434,949	-108,780	0,100	0,015
-433,934	-106,789	-0,151	-0,024
-432,919	800,000	0,012	0,025
-431,905	18,944	0,022	0,013
-430,890	66,028	0,084	0,062
-429,876	-200,000	0,018	0,148
-428,861	26,389	-0,095	0,058
-427,846	-71,355	0,024	-0,006
-426,832	800,000	-0,030	-0,092
-425,817	348,861	-0,044	-0,063
-424,803	199,592	0,117	-0,131
-423,788	-35,803	-0,086	-0,034
-422,773	67,380	0,090	0,066
-421,759	-200,000	0,035	0,128
-420,744	-29,372	0,020	-0,008
-419,730	105,536	-0,078	0,068
-418,715	61,632	-0,101	-0,073
-417,701	214,635	-0,137	-0,158
-416,686	219,868	-0,120	-0,141
-415,671	-101,281	0,199	0,035
-414,657	-147,986	-0,066	-0,004
-413,642	-39,950	0,037	0,014
-412,628	75,670	-0,059	0,045
-411,613	-200,000	0,003	-0,223
-410,598	5,395	-0,064	0,034
-409,584	-56,688	0,092	0,030
-408,569	-76,542	0,014	0,004
-407,555	611,692	-0,041	-0,075
-406,540	-200,000	0,009	0,033
-405,525	800,000	-0,032	-0,096
-404,511	-156,131	-0,035	0,002
-403,496	106,048	0,031	0,027
-402,482	-200,000	0,045	-0,164
-401,467	-200,000	-0,004	0,075
-400,452	67,278	0,088	-0,065
-399,438	707,175	-0,023	-0,044
-398,423	705,700	0,045	0,087
-397,409	-110,454	0,077	0,011
-396,394	800,000	-0,028	-0,065
-395,379	800,000	-0,043	-0,104
-394,365	-200,000	-0,018	0,073
-393,350	-200,000	0,014	0,094
-392,336	203,326	-0,017	0,019
-391,321	-131,865	0,033	0,003
-390,306	800,000	0,028	-0,081
-389,292	210,262	0,050	-0,057
-388,277	-7,933	0,039	0,019
-387,263	180,982	-0,036	-0,038
-386,248	-200,000	-0,008	0,049
-385,233	-200,000	-0,013	0,077
-384,219	-75,373	0,103	-0,027
-383,204	26,735	-0,122	0,074
-382,190	85,479	-0,030	0,024
-381,175	373,050	0,030	0,044
-380,160	507,953	-0,036	-0,061
-379,146	800,000	-0,031	-0,066
-378,131	381,561	-0,045	0,068
-377,117	153,902	0,045	0,045
-376,102	-89,310	-0,143	0,030
-375,088	21,595	0,130	-0,077
-374,073	-200,000	0,008	0,079
-373,058	515,282	0,013	0,021
-372,044	39,689	0,072	0,047
-371,029	114,185	0,042	0,037
-370,015	149,818	-0,096	-0,094
-369,000	-200,000	0,030	0,108
-367,985	-200,000	-0,011	-0,037
-366,971	-33,702	-0,141	-0,056
-365,956	800,000	-0,020	0,051
-364,942	-91,328	0,083	-0,017
-363,927	195,243	-0,052	0,057
-362,912	27,109	0,050	-0,030
-361,898	-151,803	0,184	-0,010
-360,883	709,310	-0,039	-0,076
-359,869	367,971	0,094	-0,139
-358,854	-93,220	0,046	-0,009
-357,839	-148,184	0,109	0,006
-356,825	-200,000	-0,026	0,094
-355,810	800,000	-0,039	0,112
-354,796	800,000	0,028	0,064
-353,781	-52,274	0,015	-0,005
-352,766	118,419	0,074	0,066
-351,752	800,000	-0,034	0,072
-350,737	800,000	-0,077	-0,171
-349,723	336,031	0,047	0,066
-348,708	-200,000	-0,031	0,129
-347,693	800,000	0,038	-0,082
-346,679	87,803	0,134	-0,108
-345,664	239,125	0,016	-0,020
-344,650	429,451	0,070	-0,110
-343,635	129,803	-0,030	0,027
-342,620	366,397	0,046	0,067
-341,606	417,392	0,089	0,138
-340,591	42,722	-0,046	0,030
-339,577	30,041	0,103	-0,063
-338,562	800,000	-0,031	-0,068
-337,548	223,323	0,066	-0,077
-336,533	58,575	0,052	-0,037
-335,518	800,000	0,062	0,146
-334,504	-200,000	0,006	0,125
-333,489	-152,177	-0,018	0,001
-332,475	190,012	-0,064	-0,070
-331,460	800,000	-0,049	-0,116
-330,445	-12,680	0,081	-0,038
-329,431	800,000	0,019	-0,040
-328,416	-15,411	-0,085	0,039
-327,402	-65,722	0,064	-0,019
-326,387	800,000	0,014	0,040
-325,372	-200,000	-0,046	0,153
-324,358	17,995	-0,160	0,092
-323,343	-22,523	0,066	-0,029
-322,329	-102,036	0,069	0,012
-321,314	416,568	0,078	0,121
-320,299	-52,487	-0,041	0,014
-319,285	-176,955	0,033	-0,001
-318,270	218,724	0,068	-0,079
-317,256	-200,000	-0,006	0,096
-316,241	144,802	-0,025	-0,024
-315,226	407,570	0,119	0,183
-314,212	-45,259	-0,091	0,033
-313,197	385,948	0,037	-0,056
-312,183	800,000	-0,036	0,096
-311,168	-200,000	-0,009	-0,073
-310,153	-61,790	-0,109	0,033
-309,139	800,000	0,023	-0,055
-308,124	-109,186	0,067	-0,010
-307,110	-10,107	0,209	-0,100
-306,095	95,869	0,126	0,104
-305,080	116,804	0,014	0,013
-304,066	-200,000	-0,002	-0,050
-303,051	-200,000	-0,009	-0,084
-302,037	-200,000	0,051	-0,189
-301,022	46,672	0,037	-0,025
-300,008	800,000	-0,025	-0,057
-298,993	-97,538	-0,025	-0,005
-297,978	-2,048	-0,006	0,003
-296,964	-200,000	-0,017	-0,058
-295,949	144,099	-0,113	0,110
-294,935	800,000	-0,032	-0,089
-293,920	-15,841	-0,035	-0,016
-292,905	-100,793	0,057	0,010
-291,891	301,994	0,100	0,135
-290,876	22,361	0,023	0,013
-289,862	166,053	-0,122	-0,125
-288,847	800,000	-0,070	-0,145
-287,832	229,834	-0,097	-0,115
-286,818	680,405	0,058	0,110
-285,803	-80,586	-0,108	0,026
-284,789	-200,000	-0,017	0,055
-283,774	544,788	-0,065	-0,113
-282,759	-200,000	-0,010	0,063
-281,745	-24,500	-0,130	-0,056
-280,730	-49,894	-0,096	-0,033
-279,716	800,000	-0,045	-0,112
-278,701	-49,372	-0,159	0,055
-277,686	-181,418	0,064	0,001
-276,672	-200,000	0,003	-0,017
-275,657	-200,000	0,127	0,000
-274,643	800,000	0,002	-0,004
-273,628	62,508	-0,065	-0,047
-272,613	99,359	0,102	-0,085
-271,599	178,948	0,035	-0,037
-270,584	0,363	-0,003	0,002
-269,570	296,464	0,077	0,103
-268,555	-200,000	0,020	0,069
-267,540	175,524	0,049	0,051
-266,526	-98,742	-0,056	-0,010
-265,511	513,492	-0,063	-0,108
-264,497	-200,000	0,007	-0,124
-263,482	800,000	-0,038	0,105
-262,467	382,441	-0,078	0,116
-261,453	550,508	0,046	-0,080
-260,438	322,856	-0,067	-0,093
-259,424	-200,000	-0,012	-0,047
-258,409	800,000	0,072	-0,147
-257,395	-100,397	-0,015	0,003
-256,380	63,194	0,191	-0,138
-255,365	183,164	-0,020	0,021
-254,351	39,920	0,071	-0,046
-253,336	-200,000	0,030	0,097
-252,322	-58,665	-0,071	0,022
-251,307	-200,000	0,016	-0,129
-250,292	-200,000	-0,040	-0,182
-249,278	-200,000	0,014	-0,089
-248,263	143,561	0,092	0,088
-247,249	-92,721	0,136	0,027
-246,234	627,553	-0,051	-0,094
-245,219	800,000	-0,014	0,033
-244,205	-7,790	-0,032	-0,016
-243,190	-21,577	0,071	0,031
-242,176	-9,231	-0,059	0,028
-241,161	614,610	-0,097	0,177
-240,146	800,000	0,012	-0,030
-239,132	-200,000	-0,016	0,083
-238,117	-50,614	0,082	0,028
-237,103	-106,243	0,060	-0,010
-236,088	800,000	0,012	-0,038
-235,073	139,665	0,085	0,081
-234,059	-13,819	0,129	-0,060
-233,044	91,252	0,033	0,026
-232,030	-96,683	-0,029	0,006
-231,015	-200,000	-0,012	-0,108
-230,000	-49,919	-0,114	0,039
-228,986	-200,000	0,017	0,092
-227,971	-27,455	-0,110	-0,046
-226,957	800,000	0,015	0,033
-225,942	-200,000	-0,023	-0,084
-224,927	800,000	0,053	0,107
-223,913	800,000	0,026	0,079
-222,898	209,956	-0,056	-0,063
-221,884	-118,453	0,049	0,006
-220,869	-200,000	-0,015	0,084
-219,855	800,000	-0,048	-0,134
-218,840	-61,908	-0,126	-0,038
-217,825	243,716	0,027	0,033
-216,811	-46,541	-0,097	-0,034
-215,796	21,865	-0,081	-0,048
-214,782	-200,000	-0,004	0,037
-213,767	-200,000	0,038	-0,139
-212,752	-200,000	-0,006	0,099
-211,738	373,380	0,053	-0,078
-210,723	232,721	0,024	-0,029
-209,709	-2,206	0,072	-0,036
-208,694	-136,871	0,075	-0,006
-207,679	7,445	0,085	0,046
-206,665	256,291	0,129	-0,160
-205,650	144,889	-0,065	0,063
-204,636	-200,000	-0,011	-0,089
-203,621	-40,415	0,128	0,048
-202,606	-200,000	-0,026	0,148
-201,592	18,726	0,078	0,045
-200,577	-68,631	0,175	0,049
-199,563	32,925	0,098	0,061
-198,548	-96,687	0,157	0,030
-197,533	-157,849	0,117	0,005
-196,519	-5,812	0,035	0,017
-195,504	800,000	0,013	-0,028
-194,490	399,140	0,033	-0,051
-193,475	800,000	-0,035	-0,103
-192,460	-14,482	-0,080	0,037
-191,446	-200,000	0,006	-0,059
-190,431	20,731	0,104	0,060
-189,417	-200,000	-0,002	-0,123
-188,402	800,000	0,043	0,130
-187,387	-72,157	-0,124	0,033
-186,373	-200,000	-0,028	-0,112
-185,358	-200,000	0,010	0,066
-184,344	117,416	-0,083	0,074
-183,329	751,945	0,068	0,133
-182,315	-46,603	-0,077	0,027
-181,300	-200,000	-0,008	0,054
-180,285	173,223	0,010	0,011
-179,271	373,738	-0,068	-0,100
-178,256	715,701	0,063	0,122
-177,242	-200,000	0,007	0,121
-176,227	-38,255	-0,036	0,014
-175,212	-200,000	-0,024	0,155
-174,198	129,605	-0,045	0,041
-173,183	120,247	-0,073	-0,065
-172,169	-200,000	0,017	-0,159
-171,154	-84,642	-0,033	-0,007
-170,139	-200,000	-0,020	0,082
-169,125	-200,000	0,005	0,019
-168,110	-39,524	-0,030	-0,011
-167,096	-200,000	-0,028	0,171
-166,081	263,005	-0,078	0,098
-165,066	57,549	0,017	0,012
-164,052	231,940	0,062	-0,074
-163,037	-19,685	-0,071	0,031
-162,023	-56,839	0,083	0,026
-161,008	-13,618	0,121	0,056
-159,993	-200,000	0,012	0,040
-158,979	800,000	-0,057	-0,153
-157,964	-200,000	0,023	0,000
-156,950	372,624	-0,091	-0,133
-155,935	236,821	0,065	0,078
-154,920	453,489	-0,099	0,159
-153,906	464,853	0,072	0,116
-152,891	-94,429	0,086	0,017
-151,877	-13,296	-0,059	0,027
-150,862	800,000	0,039	0,112
-149,847	120,667	-0,055	0,049
-148,833	-200,000	-0,004	-0,063
-147,818	-200,000	-0,003	0,052
-146,804	259,476	0,029	0,036
-145,789	-43,622	-0,102	-0,037
-144,775	280,889	-0,065	0,084
-143,760	415,929	0,059	0,091
-142,745	-21,572	0,065	-0,028
-141,731	800,000	0,013	0,042
-140,716	72,765	0,041	0,031
-139,702	-96,584	0,108	0,020
-138,687	800,000	-0,015	-0,038
-137,672	-200,000	-0,046	0,173
-136,658	92,371	0,042	-0,034
-135,643	800,000	-0,091	-0,221
-134,629	800,000	-0,033	-0,076
-133,614	-198,294	0,034	0,000
-132,599	-200,000	0,021	-0,133
-131,585	380,230	0,058	0,086
-130,570	142,764	-0,070	0,067
-129,556	58,810	-0,169	-0,119
-128,541	45,521	-0,066	-0,044
-127,526	-92,163	0,128	-0,026
-126,512	392,653	-0,059	-0,089
-125,497	-200,000	0,048	0,163
-124,483	800,000	0,055	0,115
-123,468	800,000	0,033	-0,070
-122,453	-12,328	-0,045	0,021
-121,439	-126,368	-0,152	0,016
-120,424	348,252	0,025	-0,035
-119,410	-192,488	-0,078	-0,001
-118,395	-200,000	0,001	-0,010
-117,380	261,040	0,071	-0,088
-116,366	-200,000	-0,020	-0,113
-115,351	-11,744	0,182	-0,086
-114,337	557,902	0,047	-0,082
-113,322	-136,341	-0,019	0,002
-112,307	136,148	-0,067	0,063
-111,293	-200,000	-0,019	-0,156
-110,278	20,882	-0,070	0,041
-109,264	-60,130	-0,021	0,007
-108,249	-99,389	-0,104	0,019
-107,234	800,000	-0,041	-0,084
-106,220	82,937	-0,043	0,034
-105,205	800,000	0,006	-0,014
-104,191	800,000	0,035	0,075
-103,176	-67,503	-0,118	-0,033
-102,162	381,670	0,038	-0,057
-101,147	-200,000	-0,004	0,026
-100,132	114,746	-0,084	-0,073
-99,118	800,000	0,003	0,007
-98,103	63,992	0,081	0,059
-97,089	800,000	0,033	0,074
-96,074	38,090	0,057	-0,036
-95,059	-133,971	-0,091	-0,008
-94,045	383,301	-0,085	0,126
-93,030	637,188	0,053	0,098
-92,016	19,837	-0,040	0,023
-91,001	-9,619	-0,073	-0,035
-89,986	214,621	0,013	0,014
-88,972	-200,000	0,005	0,057
-87,957	-160,934	-0,138	-0,005
-86,943	171,652	-0,051	0,053
-85,928	-127,693	-0,170	0,017
-84,913	-200,000	-0,012	-0,092
-83,899	-35,096	0,090	0,035
-82,884	-104,781	-0,089	0,015
-81,870	-200,000	0,013	-0,067
-80,855	138,502	-0,049	0,046
-79,840	92,428	-0,173	0,140
-78,826	-70,834	-0,091	0,025
-77,811	205,915	0,095	-0,106
-76,797	800,000	0,045	0,112
-75,782	-36,588	0,100	0,038
-74,767	-200,000	-0,034	0,162
-73,753	427,292	0,082	0,127
-72,738	-128,861	-0,096	-0,010
-71,724	559,841	0,031	-0,054
-70,709	-65,596	-0,100	0,029
-69,694	205,119	-0,101	0,113
-68,680	800,000	0,027	-0,063
-67,665	-200,000	0,005	0,111
-66,651	-200,000	-0,032	0,287
-65,636	-200,000	-0,002	-0,026
-64,622	800,000	-0,019	0,039
-63,607	23,781	-0,059	-0,035
-62,592	-200,000	0,012	-0,040
-61,578	800,000	0,088	0,175
-60,563	-108,806	0,057	-0,009
-59,549	212,728	-0,041	0,047
-58,534	8,647	-2,057	-1,109
-57,519	-200,000	-0,193	-0,843
-56,505	-200,000	-1,250	-4,930
-55,490	-15,727	0,797	0,363
-54,476	800,000	5,244	12,320
-53,461	-200,000	17,531	286,149
-52,446	800,000	722,986	2224,323
-51,432	538,588	1636,108	2803,614
-50,417	111,145	1627,875	1407,496
-49,403	74,424	1284,497	968,145
-48,388	32,387	1028,170	635,972
-47,373	20,046	990,235	571,778
-46,359	18,565	978,543	560,142
-45,344	16,075	974,538	549,670
-44,330	16,237	973,021	549,324
-43,315	15,747	971,312	546,733
-42,300	15,751	970,340	546,177
-41,286	15,822	969,103	545,691
-40,271	15,760	968,271	544,999
-39,257	15,746	967,480	544,488
-38,242	15,750	966,479	543,915
-37,227	15,823	965,574	543,623
-36,213	15,809	964,829	543,136
-35,198	15,737	963,882	542,347
-34,184	15,787	963,249	542,133
-33,169	15,714	962,395	541,394
-32,154	15,768	961,291	540,927
-31,140	15,805	960,399	540,522
-30,125	15,846	959,668	540,220
-29,111	15,814	958,860	539,643
-28,096	15,812	958,249	539,270
-27,082	15,815	957,570	538,877
-26,067	15,810	956,878	538,450
-25,052	15,733	956,239	537,822
-24,038	15,722	955,482	537,337
-23,023	15,758	954,628	536,951
-22,009	15,785	953,985	536,655
-20,994	15,784	953,476	536,344
-19,979	15,783	952,918	536,005
-18,965	15,727	952,343	535,483
-17,950	15,751	951,680	535,165
-16,936	15,671	951,219	534,628
-15,921	15,690	950,225	534,109
-14,906	15,689	949,652	533,764
-13,892	15,588	949,054	533,084
-12,877	15,681	948,333	532,955
-11,863	15,641	947,713	532,456
-10,848	15,667	947,267	532,268
-9,833	15,718	946,869	532,187
-8,819	15,770	946,009	531,847
-7,804	15,723	945,225	531,235
-6,790	15,610	944,802	530,618
-5,775	15,705	944,243	530,584
-4,760	15,695	943,689	530,220
-3,746	15,664	942,957	529,690
-2,731	15,597	942,259	529,064
-1,717	15,469	941,809	528,385
-0,702	15,470	941,056	527,944
0,313	15,248	940,310	527,621
1,327	18,660	938,432	537,285
2,342	27,841	792,530	478,014
3,356	24,551	446,418	264,343
4,371	-4,812	296,005	145,881
5,386	-8,794	277,591	133,014
6,400	-10,244	271,987	128,967
7,415	-10,068	269,554	127,964
8,429	-10,240	268,108	127,108
9,444	-10,355	267,292	126,605
10,459	-10,300	266,696	126,362
11,473	-10,357	266,051	125,993
12,488	-10,463	265,620	125,681
13,502	-10,851	265,090	125,067
14,517	-10,687	264,700	125,021
15,531	-10,747	264,274	124,754
16,546	-10,643	263,772	124,600
17,561	-10,618	263,308	124,392
18,575	-10,631	263,216	124,325
19,590	-10,781	262,749	123,959
20,604	-10,637	262,461	123,942
21,619	-10,865	262,192	123,599
22,634	-10,661	261,737	123,556
23,648	-10,755	261,440	123,321
24,663	-10,622	261,202	123,316
25,677	-10,581	260,999	123,246
26,692	-10,725	260,641	122,938
27,707	-10,648	260,447	122,904
28,721	-10,740	260,180	122,685
29,736	-10,643	259,938	122,646
30,750	-10,895	259,636	122,269
31,765	-10,777	259,271	122,191
32,780	-10,795	259,023	122,047
33,794	-10,871	259,050	121,982
34,809	-10,999	258,605	121,648
35,823	-10,866	258,445	121,680
36,838	-10,996	258,364	121,516
37,853	-10,900	257,898	121,370
38,867	-10,921	257,660	121,229
39,882	-10,914	257,480	121,140
40,896	-10,953	257,135	120,932
41,911	-11,151	257,056	120,711
42,926	-10,977	256,698	120,685
43,940	-10,870	256,506	120,678
44,955	-11,217	256,296	120,264
45,969	-10,933	256,043	120,383
46,984	-11,227	255,686	119,947
47,999	-11,421	255,477	119,670
49,013	-11,441	255,178	119,502
50,028	-11,772	255,028	119,133
51,042	-11,919	254,730	118,855
52,057	-11,914	254,592	118,784
53,071	-11,605	254,340	118,924
54,086	-11,542	254,077	118,845
55,101	-11,463	253,934	118,836
56,115	-11,374	253,873	118,874
57,130	-10,623	253,688	119,427
58,144	-10,467	253,570	119,495
59,159	-10,504	253,389	119,367
60,174	-10,790	253,254	119,047
61,188	-10,532	252,989	119,134
62,203	-10,859	252,798	118,752
63,217	-10,650	252,607	118,831
64,232	-10,625	252,414	118,751
65,247	-10,839	252,064	118,392
66,261	-10,892	251,943	118,279
67,276	-11,138	251,601	117,897
68,290	-11,216	251,253	117,656
69,305	-11,370	251,175	117,478
70,320	-11,283	250,906	117,415
71,334	-11,114	250,887	117,541
72,349	-10,689	250,694	117,802
73,363	-10,643	250,381	117,685
74,378	-10,435	250,192	117,763
75,393	-10,607	249,891	117,464
76,407	-10,925	249,798	117,139
77,422	-10,737	249,565	117,180
78,436	-10,714	249,341	117,083
79,451	-10,698	249,005	116,928
80,466	-10,748	248,814	116,786
81,480	-11,089	248,591	116,383
82,495	-11,153	248,393	116,225
83,509	-11,014	248,276	116,277
84,524	-10,952	248,081	116,229
85,539	-11,240	247,797	115,842
86,553	-10,999	247,617	115,951
87,568	-11,155	247,477	115,744
88,582	-11,137	247,345	115,687
89,597	-11,092	247,120	115,609
90,611	-10,992	247,017	115,634
91,626	-10,972	246,826	115,551
92,641	-11,124	246,610	115,313
93,655	-11,028	246,328	115,251
94,670	-10,877	246,144	115,281
95,684	-11,037	245,847	114,997
96,699	-10,820	245,810	115,151
97,714	-11,114	245,626	114,809
98,728	-11,306	245,469	114,566
99,743	-11,259	245,129	114,436
100,757	-11,290	244,859	114,274
101,772	-11,173	244,795	114,331
102,787	-11,209	244,643	114,221
103,801	-11,250	244,506	114,111
104,816	-10,978	244,405	114,280
105,830	-10,730	244,097	114,332
106,845	-10,618	244,136	114,432
107,860	-10,828	243,876	114,127
108,874	-10,912	243,666	113,949
109,889	-10,918	243,307	113,766
110,903	-11,068	243,193	113,578
111,918	-10,938	242,892	113,535
112,933	-11,006	242,879	113,463
113,947	-10,752	242,722	113,588
114,962	-10,756	242,450	113,448
115,976	-10,831	242,465	113,383
116,991	-11,035	242,192	113,078
118,006	-10,885	241,898	113,053
119,020	-10,754	241,931	113,166
120,035	-11,047	241,702	112,809
121,049	-10,738	241,582	112,996
122,064	-10,781	241,333	112,834
123,079	-10,770	241,168	112,756
124,093	-11,076	240,880	112,361
125,108	-11,192	240,621	112,136
126,122	-11,492	240,440	111,797
127,137	-11,455	240,308	111,756
128,151	-11,340	240,002	111,697
129,166	-11,310	239,926	111,676
130,181	-11,306	239,701	111,564
131,195	-11,288	239,538	111,493
132,210	-11,003	239,471	111,683
133,224	-10,947	239,447	111,707
134,239	-10,869	239,095	111,596
135,254	-10,799	238,914	111,559
136,268	-11,169	238,677	111,139
137,283	-11,276	238,414	110,921
138,297	-11,370	238,214	110,741
139,312	-11,466	238,118	110,610
140,327	-10,943	238,082	111,005
141,341	-10,690	238,010	111,165
142,356	-10,528	237,820	111,197
143,370	-10,464	237,734	111,199
144,385	-10,344	237,467	111,160
145,400	-10,328	237,232	111,053
146,414	-10,320	237,144	111,008
147,429	-10,591	236,983	110,705
148,443	-10,709	236,851	110,539
149,458	-10,695	236,708	110,474
150,473	-10,415	236,425	110,556
151,487	-10,751	236,309	110,223
152,502	-10,667	236,166	110,214
153,516	-10,495	236,074	110,299
154,531	-10,436	235,623	110,125
155,546	-10,455	235,556	110,069
156,560	-10,589	235,358	109,859
157,575	-10,800	235,155	109,588
158,589	-10,741	234,977	109,542
159,604	-10,576	234,865	109,611
160,619	-10,476	234,813	109,656
161,633	-10,288	234,676	109,731
162,648	-10,531	234,494	109,444
163,662	-10,659	234,353	109,267
164,677	-10,607	234,033	109,149
165,692	-10,669	233,948	109,051
166,706	-10,422	233,920	109,223
167,721	-10,276	233,735	109,242
168,735	-10,094	233,616	109,320
169,750	-10,534	233,497	108,908
170,764	-10,578	233,288	108,766
171,779	-10,608	233,170	108,678
172,794	-10,416	232,967	108,724
173,808	-10,715	232,645	108,330
174,823	-11,125	232,458	107,912
175,837	-11,242	232,229	107,704
176,852	-10,754	232,200	108,063
177,867	-10,617	232,230	108,175
178,881	-10,584	231,977	108,073
179,896	-10,228	231,870	108,292
180,910	-10,470	231,723	108,024
181,925	-10,668	231,639	107,821
182,940	-10,486	231,346	107,817
183,954	-10,248	231,269	107,957
184,969	-10,245	231,060	107,852
185,983	-10,179	230,969	107,851
186,998	-10,262	230,798	107,698
188,013	-10,245	230,687	107,649
189,027	-10,198	230,426	107,555
190,042	-10,324	230,195	107,340
191,056	-10,188	230,058	107,372
192,071	-10,070	229,889	107,374
193,086	-10,400	229,852	107,092
194,100	-10,181	229,706	107,184
195,115	-10,632	229,217	106,598
196,129	-11,037	229,393	106,358
197,144	-5,389	231,016	111,491
198,159	0,411	232,738	116,840
199,173	3,160	233,511	119,365
200,188	3,718	233,284	119,673
201,202	3,722	233,187	119,615
202,217	3,838	233,121	119,662
203,232	4,123	232,964	119,792
204,246	3,965	232,934	119,642
205,261	4,090	232,902	119,713
206,275	4,216	232,632	119,661
207,290	4,035	232,592	119,489
208,304	4,061	232,427	119,414
209,319	4,151	232,288	119,402
210,334	4,159	231,933	119,215
211,348	3,935	231,700	118,911
212,363	3,786	231,326	118,594
213,377	3,324	231,184	118,155
214,392	3,445	231,132	118,210
215,407	3,429	231,011	118,125
216,421	3,594	230,854	118,162
217,436	3,449	230,723	117,972
218,450	3,143	230,412	117,568
219,465	2,978	230,304	117,376
220,480	3,294	230,206	117,558
221,494	3,046	230,078	117,291
222,509	3,366	230,039	117,507
223,523	3,370	229,753	117,353
224,538	3,169	229,644	117,133
225,553	3,512	229,433	117,278
226,567	3,469	229,449	117,242
227,582	3,546	229,475	117,304
228,596	3,759	229,289	117,361
229,611	3,468	229,058	117,010
230,626	3,122	228,792	116,601
231,640	3,211	228,621	116,570
232,655	3,525	228,717	116,848
233,669	4,068	228,506	117,143
234,684	3,814	228,409	116,890
235,699	3,801	228,221	116,774
236,713	3,472	228,129	116,466
237,728	3,494	227,817	116,313
238,742	3,289	227,554	116,013
239,757	3,424	227,421	116,038
240,772	3,478	227,182	115,946
241,786	3,588	227,112	115,983
242,801	3,602	226,855	115,851
243,815	3,649	227,101	116,002
244,830	3,742	226,903	115,961
245,844	3,495	226,727	115,675
246,859	3,476	226,368	115,467
247,874	3,443	226,414	115,455
248,888	3,625	226,288	115,518
249,903	3,556	225,960	115,288
250,917	3,269	225,819	114,990
251,932	3,105	225,731	114,812
252,947	3,251	225,576	114,832
253,961	3,293	225,317	114,722
254,976	3,211	225,245	114,614
255,990	3,493	225,284	114,835
257,005	3,763	224,994	114,878
258,020	3,663	225,007	114,800
259,034	3,810	224,870	114,830
260,049	3,778	224,618	114,667
261,063	3,668	224,433	114,481
262,078	3,678	224,283	114,401
263,093	3,752	224,090	114,347
264,107	3,750	224,037	114,309
265,122	3,833	223,942	114,311
266,136	3,889	223,928	114,336
267,151	3,900	223,547	114,139
268,166	3,469	223,349	113,709
269,180	3,136	223,144	113,348
270,195	3,405	222,912	113,418
271,209	3,294	222,866	113,303
272,224	3,483	222,749	113,373
273,239	3,496	222,633	113,313
274,253	3,300	222,572	113,127
275,268	3,109	222,381	112,880
276,282	3,103	222,233	112,790
277,297	3,058	221,993	112,625
278,312	3,231	221,758	112,623
279,326	3,198	221,866	112,644
280,341	3,314	221,699	112,634
281,355	3,286	221,692	112,599
282,370	3,315	221,434	112,479
283,384	3,125	221,153	112,188
284,399	3,118	220,936	112,062
285,414	3,101	220,929	112,036
286,428	3,347	220,837	112,160
287,443	3,526	220,677	112,200
288,457	3,430	220,697	112,129
289,472	3,318	220,493	111,934
290,487	2,855	220,172	111,423
291,501	2,943	219,908	111,344
292,516	3,108	219,805	111,402
293,530	3,037	219,786	111,331
294,545	3,303	219,537	111,388
295,560	3,312	219,451	111,341
296,574	3,554	219,368	111,465
297,589	3,450	219,180	111,284
298,603	3,390	218,959	111,118
299,618	3,299	219,062	111,095
300,633	3,289	218,835	110,962
301,647	3,636	218,862	111,218
302,662	3,659	218,594	111,088
303,676	3,677	218,454	111,020
304,691	3,562	218,311	110,854
305,706	3,456	218,252	110,738
306,720	3,578	218,044	110,711
307,735	3,261	217,823	110,360
308,749	3,363	217,675	110,348
309,764	3,353	217,631	110,309
310,779	3,385	217,729	110,373
311,793	3,680	217,304	110,359
312,808	3,680	217,182	110,287
313,822	3,657	216,888	110,112
314,837	3,435	216,814	109,905
315,852	3,236	216,709	109,699
316,866	3,580	216,492	109,826
317,881	3,440	216,527	109,734
318,895	3,635	216,277	109,736
319,910	3,256	216,110	109,372
320,925	3,058	215,958	109,143
321,939	2,901	215,732	108,907
322,954	2,998	215,737	108,969
323,968	3,475	215,764	109,314
324,983	3,510	215,632	109,262
325,997	3,742	215,646	109,424
327,012	3,438	215,192	108,968
328,027	3,356	215,131	108,869
329,041	3,563	215,218	109,050
330,056	3,839	214,962	109,107
331,070	3,463	214,685	108,690
332,085	3,189	214,511	108,398
333,100	3,078	214,461	108,285
334,114	3,475	214,251	108,450
335,129	3,466	214,176	108,396
336,143	3,370	214,042	108,251
337,158	3,349	213,733	108,070
338,173	3,768	213,663	108,320
339,187	3,120	213,606	107,825
340,202	3,126	213,399	107,715
341,216	2,939	213,246	107,496
342,231	3,418	213,003	107,701
343,246	3,112	213,012	107,481
344,260	2,975	212,926	107,332
345,275	3,182	212,823	107,416
346,289	3,436	212,721	107,533
347,304	3,550	212,490	107,487
348,319	3,232	212,463	107,241
349,333	3,484	212,265	107,307
350,348	3,640	212,131	107,339
351,362	3,613	212,117	107,303
352,377	3,694	211,969	107,276
353,392	3,325	211,710	106,878
354,406	3,400	211,679	106,904
355,421	195,412	1340,167	1418,033
356,435	156,100	1477,640	1418,023
