DTS Sentinel unit serial number:	SN410029Multiplexer serial number:	ORYXHardware model number:	OX2-SRSoftware version number:	ORYX F/W v4,00 Oryx Data Collector v3.7.2.0data status	okinstallation	B6 Nyhavnadifferential loss correction	single-endedforward channel	channel 2reverse channel	N/Adate	2023/12/07time	16:35:08forward acquisition time	300,00reverse acquisition time	0,00gamma	499,1914k internal	0,3164k external	0,3164temperature offset calibration	1,0000default loss term (dB/km)	0,3820temperature slope calibration	1,0000multiplexer offset coefficient	1,0000multiplexer slope coefficient	1,0000fibre end	0,00T internal ref (°C)	14,52T ext. ref 1 (°C)	-2,19T ext. ref 2 (°C)	-2,19length (m)	temperature (°C)	Stokes	anti-Stokes-744,400	-173,569	0,087	0,002
-743,385	-34,516	-0,147	-0,059
-742,371	-27,692	0,184	0,078
-741,356	-141,671	-0,216	0,016
-740,342	142,145	0,138	0,135
-739,327	-143,827	-0,392	0,027
-738,312	111,061	0,050	-0,045
-737,298	-88,682	-0,337	-0,073
-736,283	-96,564	0,183	-0,035
-735,269	-51,283	-0,306	0,105
-734,254	40,762	0,147	-0,097
-733,239	-119,044	-0,477	-0,061
-732,225	253,073	0,188	0,236
-731,210	-59,641	-0,146	0,046
-730,196	-129,010	0,195	-0,020
-729,181	-172,992	-0,055	-0,001
-728,167	28,839	-0,034	-0,021
-727,152	-200,000	0,005	-0,051
-726,137	-200,000	-0,003	0,032
-725,123	-36,901	-0,164	-0,064
-724,108	505,828	-0,096	-0,164
-723,094	-200,000	-0,036	-0,160
-722,079	11,953	-0,082	-0,046
-721,064	800,000	-0,056	-0,149
-720,050	-200,000	0,003	0,120
-719,035	126,049	-0,047	-0,043
-718,021	767,488	0,050	-0,101
-717,006	221,810	-0,161	-0,191
-715,991	371,082	-0,095	-0,142
-714,977	27,545	0,024	0,015
-713,962	-200,000	-0,023	0,098
-712,948	800,000	0,041	0,089
-711,933	-16,300	-0,077	0,036
-710,918	-172,179	-0,104	-0,002
-709,904	-75,167	0,038	0,010
-708,889	367,485	0,069	0,103
-707,875	-173,380	0,018	-0,000
-706,860	-200,000	0,010	0,065
-705,845	800,000	-0,005	0,012
-704,831	-91,252	0,068	-0,014
-703,816	91,197	0,055	-0,046
-702,802	76,903	-0,056	0,044
-701,787	-200,000	0,044	-0,199
-700,772	470,357	0,048	-0,079
-699,758	9,032	-0,140	-0,077
-698,743	-200,000	-0,012	-0,089
-697,729	293,425	-0,070	-0,094
-696,714	-162,696	-0,048	0,002
-695,699	178,796	-0,035	-0,038
-694,685	87,609	-0,120	-0,098
-693,670	60,865	-0,133	-0,097
-692,656	80,383	-0,074	-0,059
-691,641	198,319	-0,015	0,017
-690,627	131,194	0,066	0,062
-689,612	-111,604	-0,136	-0,020
-688,597	127,160	-0,042	-0,039
-687,583	-88,915	0,040	0,009
-686,568	253,852	-0,051	-0,064
-685,554	152,402	-0,046	0,046
-684,539	-103,741	-0,037	-0,006
-683,524	-110,767	-0,059	0,009
-682,510	800,000	0,041	-0,102
-681,495	-200,000	0,041	-0,136
-680,481	273,821	-0,051	-0,067
-679,466	221,654	-0,115	-0,136
-678,451	-24,078	-0,044	-0,019
-677,437	-134,978	-0,070	-0,006
-676,422	-95,385	-0,111	0,022
-675,408	-200,000	0,030	-0,142
-674,393	-200,000	-0,006	-0,084
-673,378	127,129	-0,131	-0,122
-672,364	468,249	-0,102	-0,169
-671,349	-14,209	-0,121	0,057
-670,335	-96,382	-0,087	-0,017
-669,320	43,307	0,035	-0,024
-668,305	-123,984	0,120	-0,014
-667,291	145,727	0,009	0,009
-666,276	-200,000	-0,016	-0,091
-665,262	379,751	-0,103	-0,155
-664,247	-70,426	0,089	-0,024
-663,232	-200,000	0,013	-0,123
-662,218	112,618	-0,073	-0,065
-661,203	443,471	0,011	0,018
-660,189	-78,327	-0,144	-0,036
-659,174	-200,000	0,009	-0,180
-658,159	-34,501	-0,084	-0,033
-657,145	-200,000	-0,016	-0,166
-656,130	-9,232	0,053	-0,026
-655,116	-184,599	0,052	-0,001
-654,101	209,601	-0,011	0,012
-653,086	-200,000	-0,012	-0,065
-652,072	-10,739	0,060	0,029
-651,057	252,770	0,043	-0,053
-650,043	16,226	-0,018	0,010
-649,028	-200,000	0,009	0,058
-648,014	101,215	0,020	-0,017
-646,999	95,794	0,073	-0,061
-645,984	-200,000	0,022	0,085
-644,970	2,480	-0,055	0,029
-643,955	-62,729	-0,103	0,031
-642,941	-128,323	0,138	-0,014
-641,926	800,000	0,008	0,019
-640,911	-200,000	-0,003	-0,054
-639,897	110,964	-0,112	-0,099
-638,882	-200,000	-0,003	-0,158
-637,868	513,001	-0,010	-0,016
-636,853	400,334	-0,059	-0,091
-635,838	215,570	-0,085	-0,099
-634,824	-128,394	-0,080	0,008
-633,809	-200,000	-0,003	-0,020
-632,795	-49,983	-0,091	-0,031
-631,780	151,994	-0,064	0,064
-630,765	638,311	0,046	0,086
-629,751	570,528	-0,067	-0,120
-628,736	-129,260	-0,094	0,009
-627,722	26,021	0,031	0,019
-626,707	151,044	-0,094	0,094
-625,692	800,000	-0,055	-0,115
-624,678	-200,000	-0,001	-0,190
-623,663	447,136	-0,007	0,011
-622,649	-110,193	-0,133	-0,020
-621,634	-181,149	-0,126	0,002
-620,619	800,000	0,022	0,056
-619,605	-112,262	0,067	0,010
-618,590	-200,000	0,023	-0,105
-617,576	457,019	0,036	0,058
-616,561	-200,000	0,007	0,106
-615,546	151,151	-0,081	-0,081
-614,532	-200,000	0,010	-0,113
-613,517	-185,417	-0,083	-0,001
-612,503	800,000	0,072	-0,203
-611,488	72,617	-0,032	0,024
-610,474	293,746	0,070	0,094
-609,459	-17,121	0,144	-0,066
-608,444	111,430	-0,093	-0,082
-607,430	-200,000	0,010	-0,044
-606,415	-200,000	-0,032	-0,116
-605,401	-92,803	0,068	0,014
-604,386	119,348	-0,068	-0,062
-603,371	244,513	0,059	0,073
-602,357	244,402	-0,072	0,088
-601,342	429,561	-0,073	-0,117
-600,328	-200,000	0,018	0,069
-599,313	211,019	-0,074	-0,085
-598,298	-75,357	0,064	0,016
-597,284	800,000	0,037	0,077
-596,269	74,512	0,061	0,047
-595,255	341,778	-0,110	0,158
-594,240	105,943	0,040	0,034
-593,225	-79,789	0,055	0,013
-592,211	668,993	-0,036	-0,068
-591,196	-123,738	-0,125	-0,014
-590,182	-200,000	0,021	0,098
-589,167	-37,831	-0,096	0,037
-588,152	-200,000	0,010	-0,087
-587,138	800,000	-0,052	-0,124
-586,123	800,000	-0,039	-0,082
-585,109	-200,000	-0,021	-0,152
-584,094	-200,000	-0,015	-0,057
-583,079	800,000	0,061	0,146
-582,065	-200,000	0,020	0,072
-581,050	-168,138	-0,154	0,004
-580,036	-98,336	-0,054	0,010
-579,021	210,249	0,094	0,108
-578,006	-141,267	0,126	0,009
-576,992	-125,439	-0,133	0,015
-575,977	106,182	-0,016	0,014
-574,963	146,275	0,102	0,100
-573,948	-33,710	0,113	-0,046
-572,934	29,317	-0,066	0,041
-571,919	-200,000	0,008	0,077
-570,904	-200,000	0,032	0,226
-569,890	-200,000	0,026	-0,089
-568,875	54,097	-0,093	-0,065
-567,861	-49,367	-0,063	-0,022
-566,846	418,579	-0,041	0,065
-565,831	-49,169	-0,101	0,035
-564,817	800,000	0,044	-0,092
-563,802	318,613	-0,057	-0,079
-562,788	-37,092	-0,060	-0,023
-561,773	-200,000	-0,004	-0,115
-560,758	70,610	0,066	-0,050
-559,744	-200,000	-0,011	0,193
-558,729	-45,291	0,038	-0,014
-557,715	72,772	-0,067	0,051
-556,700	70,986	0,068	-0,051
-555,685	-200,000	-0,005	0,027
-554,671	-115,760	-0,096	0,013
-553,656	-164,804	0,095	0,003
-552,642	393,868	0,054	-0,082
-551,627	556,302	-0,059	0,104
-550,612	-16,812	0,096	-0,044
-549,598	-17,578	0,118	0,054
-548,583	133,496	-0,036	-0,034
-547,569	800,000	0,042	0,121
-546,554	-58,507	-0,071	0,022
-545,539	-200,000	0,021	-0,190
-544,525	800,000	-0,036	0,086
-543,510	433,931	0,029	0,046
-542,496	800,000	-0,035	0,072
-541,481	-200,000	-0,031	0,113
-540,466	-200,000	-0,003	-0,059
-539,452	-27,680	0,043	0,018
-538,437	-108,907	-0,081	-0,012
-537,423	-69,295	0,098	-0,027
-536,408	-200,000	-0,009	0,044
-535,393	800,000	-0,021	-0,063
-534,379	-128,802	-0,139	0,014
-533,364	-62,995	0,092	-0,027
-532,350	-138,355	0,085	0,007
-531,335	-149,324	-0,033	-0,002
-530,321	-200,000	0,005	0,059
-529,306	-84,441	-0,083	0,019
-528,291	800,000	0,024	-0,056
-527,277	360,550	0,041	-0,059
-526,262	-200,000	-0,007	-0,065
-525,248	-200,000	-0,029	0,104
-524,233	287,988	0,153	0,203
-523,218	800,000	-0,044	0,110
-522,204	-129,477	0,071	-0,007
-521,189	800,000	-0,018	-0,052
-520,175	425,422	0,011	0,017
-519,160	-200,000	0,006	-0,057
-518,145	22,042	0,050	0,030
-517,131	-200,000	0,006	-0,033
-516,116	-135,876	0,082	0,007
-515,102	-200,000	-0,008	-0,055
-514,087	134,474	0,061	0,058
-513,072	205,733	-0,063	-0,072
-512,058	-36,356	-0,106	-0,041
-511,043	-48,205	-0,121	-0,042
-510,029	-200,000	0,016	-0,075
-509,014	-58,893	0,096	0,030
-507,999	-119,378	-0,067	0,008
-506,985	-200,000	0,007	0,080
-505,970	800,000	-0,018	-0,044
-504,956	226,424	0,082	-0,097
-503,941	356,636	0,059	-0,087
-502,926	94,959	0,083	0,069
-501,912	800,000	0,046	0,108
-500,897	158,099	0,006	0,006
-499,883	-200,000	-0,003	0,119
-498,868	227,892	0,057	-0,068
-497,853	-6,075	0,094	-0,047
-496,839	-200,000	0,004	-0,087
-495,824	-200,000	-0,022	0,081
-494,810	-111,443	0,028	0,004
-493,795	23,308	-0,065	0,039
-492,781	-200,000	0,025	-0,101
-491,766	-181,442	-0,160	0,002
-490,751	800,000	-0,060	-0,123
-489,737	-44,129	0,065	-0,024
-488,722	54,210	0,044	0,031
-487,708	-185,108	0,113	0,001
-486,693	800,000	-0,050	0,114
-485,678	-200,000	0,008	-0,027
-484,664	-49,206	0,047	0,016
-483,649	337,320	-0,060	-0,085
-482,635	172,366	0,066	-0,069
-481,620	329,553	0,040	0,056
-480,605	236,821	0,050	0,060
-479,591	-134,759	-0,037	0,003
-478,576	255,579	0,059	-0,073
-477,562	800,000	-0,032	-0,095
-476,547	-200,000	0,010	-0,060
-475,532	800,000	0,039	-0,103
-474,518	154,478	-0,079	0,079
-473,503	184,123	0,080	-0,086
-472,489	261,134	-0,043	-0,054
-471,474	53,721	0,079	-0,055
-470,459	-114,393	-0,128	-0,018
-469,445	-107,603	0,137	0,022
-468,430	-200,000	-0,016	0,144
-467,416	-200,000	-0,016	0,079
-466,401	-200,000	-0,007	0,260
-465,386	49,771	-0,092	0,063
-464,372	-15,887	-0,016	-0,007
-463,357	-200,000	0,003	-0,027
-462,343	33,320	-0,094	0,059
-461,328	-200,000	-0,003	-0,010
-460,313	484,070	0,048	0,079
-459,299	-104,798	0,051	-0,008
-458,284	800,000	-0,049	0,100
-457,270	-163,929	0,069	-0,002
-456,255	-148,186	-0,127	-0,008
-455,241	-84,736	0,123	0,028
-454,226	20,817	-0,081	0,048
-453,211	-164,182	0,048	0,002
-452,197	630,678	0,029	-0,054
-451,182	264,709	-0,025	-0,032
-450,168	198,362	0,013	0,014
-449,153	-200,000	0,017	-0,095
-448,138	-47,978	-0,097	-0,034
-447,124	199,919	0,027	-0,030
-446,109	-200,000	-0,016	0,076
-445,095	-52,841	0,027	0,009
-444,080	-38,548	0,061	-0,023
-443,065	94,621	0,067	0,056
-442,051	27,203	0,041	-0,025
-441,036	398,144	-0,081	-0,124
-440,022	-200,000	-0,003	-0,036
-439,007	363,246	-0,063	-0,092
-437,992	800,000	-0,017	0,038
-436,978	800,000	-0,015	0,039
-435,963	230,536	-0,003	0,004
-434,949	800,000	0,023	0,059
-433,934	-200,000	-0,013	0,113
-432,919	-81,883	-0,086	-0,020
-431,905	569,966	0,029	-0,051
-430,890	-140,101	-0,089	-0,007
-429,876	84,088	0,068	0,054
-428,861	282,596	0,047	0,061
-427,846	-200,000	-0,001	-0,008
-426,832	-46,740	-0,088	-0,031
-425,817	-126,174	-0,080	0,009
-424,803	68,837	-0,047	-0,035
-423,788	-81,064	0,145	-0,035
-422,773	90,212	0,148	-0,120
-421,759	105,863	-0,018	0,016
-420,744	-200,000	-0,013	-0,163
-419,730	800,000	0,026	-0,069
-418,715	47,339	-0,025	-0,017
-417,701	-62,249	-0,103	-0,031
-416,686	707,678	0,028	0,054
-415,671	-200,000	-0,011	-0,047
-414,657	378,487	0,045	-0,066
-413,642	-29,553	-0,080	-0,033
-412,628	248,200	0,027	0,033
-411,613	-121,827	0,142	0,017
-410,598	-0,250	0,101	-0,052
-409,584	322,902	0,027	0,037
-408,569	-131,026	0,162	-0,015
-407,555	169,704	0,021	0,022
-406,540	-200,000	0,008	-0,042
-405,525	-200,000	-0,008	0,038
-404,511	-200,000	-0,016	0,108
-403,496	-35,143	-0,031	0,012
-402,482	-200,000	-0,003	-0,023
-401,467	397,007	0,076	0,115
-400,452	68,129	-0,018	-0,014
-399,438	-128,962	0,074	0,007
-398,423	28,693	-0,138	-0,085
-397,409	575,410	-0,024	-0,043
-396,394	-200,000	0,002	-0,032
-395,379	160,815	0,021	-0,021
-394,365	-150,084	-0,173	0,010
-393,350	-200,000	0,018	0,101
-392,336	128,338	-0,075	-0,069
-391,321	-4,911	-0,065	-0,032
-390,306	-200,000	-0,008	-0,123
-389,292	-43,701	-0,125	-0,045
-388,277	40,347	0,013	0,008
-387,263	22,838	0,095	0,056
-386,248	12,269	0,076	-0,042
-385,233	800,000	0,044	-0,129
-384,219	23,211	-0,148	-0,088
-383,204	221,113	-0,042	-0,049
-382,190	-10,461	-0,032	0,015
-381,175	-68,011	-0,168	0,047
-380,160	279,982	0,038	-0,049
-379,146	-123,901	0,061	-0,007
-378,131	800,000	0,023	-0,055
-377,117	86,450	0,087	0,070
-376,102	16,898	0,046	0,026
-375,088	67,303	0,033	0,025
-374,073	-200,000	0,014	0,063
-373,058	-200,000	-0,006	-0,040
-372,044	-200,000	0,009	0,166
-371,029	262,804	0,065	-0,082
-370,015	266,034	0,031	0,039
-369,000	199,712	0,045	-0,050
-367,985	800,000	-0,007	-0,020
-366,971	-48,853	-0,077	-0,027
-365,956	-200,000	-0,016	0,081
-364,942	132,237	-0,060	-0,056
-363,927	153,954	0,094	-0,094
-362,912	30,237	0,053	-0,032
-361,898	-59,265	0,075	-0,023
-360,883	-73,402	-0,031	-0,008
-359,869	-114,044	0,037	0,005
-358,854	671,049	0,046	0,086
-357,839	241,601	-0,057	0,069
-356,825	-61,958	0,152	0,046
-355,810	800,000	-0,027	-0,082
-354,796	-76,604	0,045	0,011
-353,781	33,792	-0,175	-0,110
-352,766	-61,485	0,027	-0,008
-351,752	225,516	0,048	0,057
-350,737	-200,000	-0,034	0,116
-349,723	-22,514	0,127	0,055
-348,708	26,366	-0,105	-0,064
-347,693	46,173	0,064	-0,043
-346,679	-132,247	-0,094	0,009
-345,664	33,139	0,117	-0,074
-344,650	31,929	-0,085	-0,053
-343,635	-200,000	-0,014	0,104
-342,620	94,243	0,035	0,029
-341,606	-200,000	-0,029	0,111
-340,591	11,954	0,052	-0,029
-339,577	-144,298	-0,246	-0,016
-338,562	119,305	-0,121	-0,109
-337,548	-200,000	0,003	0,082
-336,533	-45,098	0,104	-0,037
-335,518	-91,321	0,100	-0,021
-334,504	-37,353	0,087	-0,033
-333,489	-171,438	-0,131	0,003
-332,475	-55,531	-0,207	-0,067
-331,460	800,000	-0,024	-0,076
-330,445	-200,000	-0,013	-0,074
-329,431	800,000	0,043	-0,133
-328,416	14,640	0,044	0,025
-327,402	-78,964	-0,108	0,026
-326,387	-10,686	0,085	0,040
-325,372	-200,000	-0,008	-0,118
-324,358	-200,000	0,049	-0,280
-323,343	-74,023	0,099	0,026
-322,329	800,000	0,017	-0,038
-321,314	-200,000	0,014	0,166
-320,299	800,000	0,020	0,059
-319,285	419,126	-0,040	-0,061
-318,270	-34,880	-0,124	0,049
-317,256	-200,000	-0,015	-0,093
-316,241	-200,000	-0,026	-0,128
-315,226	62,665	0,045	-0,033
-314,212	-92,929	-0,072	-0,014
-313,197	-76,189	0,118	0,030
-312,183	368,034	-0,065	0,096
-311,168	-54,860	0,138	-0,045
-310,153	-200,000	0,016	-0,067
-309,139	23,807	0,114	-0,068
-308,124	-136,519	0,123	0,010
-307,110	-200,000	-0,001	0,020
-306,095	119,491	0,039	-0,035
-305,080	-35,318	0,058	0,023
-304,066	-200,000	-0,029	-0,183
-303,051	146,084	-0,024	-0,023
-302,037	44,221	0,057	-0,038
-301,022	-85,094	0,147	0,033
-300,008	321,439	0,116	0,159
-298,993	-200,000	0,006	0,157
-297,978	48,946	0,046	-0,031
-296,964	-200,000	-0,082	0,000
-295,949	-200,000	0,016	-0,156
-294,935	800,000	-0,046	-0,130
-293,920	414,105	-0,055	-0,085
-292,905	-152,755	-0,056	-0,003
-291,891	378,004	0,157	0,233
-290,876	61,364	-0,089	0,064
-289,862	48,257	0,089	-0,060
-288,847	21,270	-0,081	-0,047
-287,832	306,260	-0,038	-0,052
-286,818	800,000	0,044	-0,107
-285,803	59,430	-0,021	0,015
-284,789	-200,000	0,060	0,000
-283,774	-104,797	0,100	0,016
-282,759	-141,079	-0,056	0,004
-281,745	-103,218	-0,101	0,017
-280,730	800,000	0,018	-0,046
-279,716	449,023	0,081	-0,129
-278,701	-74,631	0,012	0,003
-277,686	582,806	-0,086	-0,154
-276,672	25,256	0,094	-0,057
-275,657	47,739	-0,152	-0,102
-274,643	800,000	-0,037	0,100
-273,628	-38,215	-0,034	-0,013
-272,613	452,522	0,031	0,050
-271,599	269,328	0,005	0,006
-270,584	577,092	0,017	0,031
-269,570	75,542	0,033	0,025
-268,555	467,068	0,040	0,065
-267,540	800,000	0,027	-0,085
-266,526	-200,000	0,002	0,035
-265,511	306,039	-0,037	-0,050
-264,497	14,884	0,139	-0,078
-263,482	800,000	0,047	0,112
-262,467	-200,000	-0,033	0,223
-261,453	-200,000	-0,003	0,020
-260,438	-184,393	-0,147	0,002
-259,424	149,794	-0,081	-0,079
-258,409	-122,779	0,089	0,010
-257,395	800,000	-0,050	0,154
-256,380	-200,000	-0,013	0,148
-255,365	-200,000	-0,016	0,056
-254,351	-200,000	0,037	0,144
-253,336	169,705	-0,048	0,049
-252,322	49,702	-0,071	-0,049
-251,307	415,181	0,013	0,020
-250,292	4,872	-0,088	0,047
-249,278	-200,000	-0,008	0,077
-248,263	-200,000	-0,153	0,000
-247,249	782,993	-0,023	0,046
-246,234	-158,035	0,123	0,005
-245,219	-200,000	0,016	-0,075
-244,205	-200,000	-0,008	0,135
-243,190	-200,000	0,014	0,071
-242,176	268,137	0,057	0,072
-241,161	800,000	0,044	0,125
-240,146	-72,824	0,132	0,035
-239,132	270,815	0,126	0,161
-238,117	497,223	0,029	-0,049
-237,103	-117,505	0,034	-0,004
-236,088	598,429	0,064	0,116
-235,073	206,911	-0,047	0,052
-234,059	-200,000	0,008	0,108
-233,044	-81,148	0,048	0,011
-232,030	-73,020	0,062	0,016
-231,015	-200,000	-0,003	-0,112
-230,000	-200,000	0,018	-0,152
-228,986	42,521	-0,125	0,082
-227,971	22,300	0,091	0,054
-226,957	111,412	0,051	0,045
-225,942	21,592	0,013	0,008
-224,927	154,246	-0,062	0,061
-223,913	-3,100	-0,125	-0,063
-222,898	-200,000	-0,004	-0,036
-221,884	800,000	0,030	-0,075
-220,869	756,878	-0,021	-0,042
-219,855	-34,295	0,175	-0,069
-218,840	-200,000	0,002	0,080
-217,825	-200,000	-0,008	0,030
-216,811	800,000	0,041	-0,095
-215,796	20,953	-0,034	-0,020
-214,782	144,459	0,097	0,093
-213,767	-197,981	-0,139	-0,001
-212,752	117,093	0,136	0,120
-211,738	-132,235	0,042	0,004
-210,723	116,523	-0,106	0,094
-209,709	-200,000	0,002	0,114
-208,694	689,376	-0,068	0,129
-207,679	-200,000	0,001	0,024
-206,665	-200,000	0,015	-0,097
-205,650	-62,643	-0,155	0,046
-204,636	800,000	0,074	0,153
-203,621	-8,322	-0,065	0,031
-202,606	-200,000	0,000	-0,017
-201,592	-114,156	-0,097	-0,013
-200,577	68,843	-0,052	-0,038
-199,563	-200,000	-0,018	-0,134
-198,548	25,382	0,049	0,030
-197,533	-118,765	0,155	0,019
-196,519	800,000	-0,030	0,080
-195,504	400,926	0,063	0,096
-194,490	33,672	-0,114	-0,071
-193,475	416,124	-0,074	-0,114
-192,460	800,000	0,030	-0,066
-191,446	92,654	0,081	0,066
-190,431	-200,000	0,034	0,112
-189,417	-114,194	-0,125	0,017
-188,402	81,524	-0,083	-0,065
-187,387	-84,095	-0,107	0,024
-186,373	-200,000	0,025	0,105
-185,358	52,909	-0,051	-0,035
-184,344	115,423	0,114	0,100
-183,329	-159,958	0,079	-0,003
-182,315	-9,248	-0,118	-0,056
-181,300	800,000	0,037	-0,105
-180,285	409,300	0,044	-0,068
-179,271	431,731	-0,031	0,049
-178,256	396,096	0,020	0,029
-177,242	135,057	-0,060	0,057
-176,227	77,967	0,062	-0,047
-175,212	124,377	-0,064	-0,058
-174,198	800,000	0,052	0,152
-173,183	800,000	0,025	0,069
-172,169	23,602	-0,126	-0,074
-171,154	-200,000	0,014	0,101
-170,139	94,112	-0,018	0,015
-169,125	-200,000	0,028	0,134
-168,110	742,353	0,045	0,088
-167,096	800,000	-0,018	0,050
-166,081	564,689	0,034	0,060
-165,066	524,756	0,058	-0,098
-164,052	-200,000	-0,060	-0,193
-163,037	-154,310	0,128	-0,006
-162,023	-200,000	0,009	0,077
-161,008	800,000	-0,049	-0,120
-159,993	120,928	0,048	-0,043
-158,979	231,860	-0,106	0,126
-157,964	-33,838	-0,235	0,093
-156,950	-137,061	0,150	0,012
-155,935	-200,000	-0,003	-0,118
-154,920	403,508	-0,054	-0,082
-153,906	83,968	0,139	0,109
-152,891	355,982	0,020	0,029
-151,877	-200,000	-0,014	0,088
-150,862	3,007	-0,083	-0,043
-149,847	167,517	-0,054	0,055
-148,833	800,000	0,013	-0,033
-147,818	-58,905	-0,034	-0,011
-146,804	12,126	0,107	0,059
-145,789	800,000	-0,010	0,027
-144,775	-64,813	0,053	-0,015
-143,760	-26,140	-0,183	-0,077
-142,745	-10,500	-0,108	0,051
-141,731	454,639	0,014	-0,023
-140,716	800,000	-0,068	0,142
-139,702	-139,431	0,009	0,001
-138,687	100,781	-0,080	-0,067
-137,672	-141,640	0,079	0,006
-136,658	800,000	0,036	-0,082
-135,643	33,954	-0,032	0,020
-134,629	-72,333	-0,076	-0,020
-133,614	-200,000	-0,008	0,151
-132,599	612,070	0,047	0,085
-131,585	-48,832	0,002	0,001
-130,570	89,730	0,060	0,048
-129,556	-104,828	-0,115	-0,019
-128,541	310,616	-0,082	-0,111
-127,526	42,814	0,042	-0,028
-126,512	198,669	-0,028	-0,031
-125,497	-200,000	-0,004	-0,015
-124,483	47,748	-0,045	0,030
-123,468	299,488	0,070	-0,093
-122,453	612,323	-0,098	-0,177
-121,439	-165,437	0,051	0,002
-120,424	470,936	-0,045	0,073
-119,410	-200,000	0,009	0,052
-118,395	-116,138	0,076	-0,010
-117,380	13,732	0,047	0,026
-116,366	-96,604	-0,054	-0,010
-115,351	-200,000	0,033	-0,130
-114,337	397,327	-0,072	-0,109
-113,322	424,952	0,067	-0,105
-112,307	-83,374	0,044	0,010
-111,293	-139,111	0,063	-0,005
-110,278	128,228	0,056	0,051
-109,264	183,782	-0,059	0,063
-108,249	-81,494	0,077	-0,018
-107,234	800,000	-0,029	-0,086
-106,220	272,353	-0,109	0,139
-105,205	800,000	-0,057	-0,115
-104,191	119,103	0,030	-0,027
-103,176	-104,333	0,120	-0,020
-102,162	-200,000	-0,006	0,048
-101,147	800,000	-0,074	-0,183
-100,132	-110,872	-0,101	-0,015
-99,118	-0,566	-0,135	0,069
-98,103	268,784	0,072	-0,090
-97,089	-35,036	0,111	0,043
-96,074	-50,659	-0,056	0,019
-95,059	106,753	-0,072	0,062
-94,045	99,837	0,084	0,070
-93,030	-10,847	0,037	0,017
-92,016	-70,403	-0,112	0,030
-91,001	179,700	-0,082	0,086
-89,986	-200,000	-0,022	0,069
-88,972	800,000	-0,037	0,076
-87,957	-179,958	0,118	-0,002
-86,943	13,607	-0,153	-0,085
-85,928	-91,044	0,032	0,006
-84,913	426,796	-0,051	0,078
-83,899	-10,445	-0,039	-0,018
-82,884	-54,627	-0,185	-0,060
-81,870	-120,480	-0,055	-0,007
-80,855	112,879	0,059	0,051
-79,840	-118,791	-0,140	-0,017
-78,826	-200,000	-0,009	-0,049
-77,811	-25,912	-0,159	-0,067
-76,797	-32,694	0,062	-0,024
-75,782	-200,000	0,005	0,113
-74,767	-153,873	0,086	-0,004
-73,753	-133,098	-0,052	-0,005
-72,738	673,379	0,083	0,155
-71,724	-46,629	0,074	-0,026
-70,709	112,687	-0,077	-0,067
-69,694	353,633	0,056	-0,080
-68,680	133,328	0,030	0,028
-67,665	265,366	-0,030	0,038
-66,651	89,627	-0,039	0,031
-65,636	-114,708	0,045	0,006
-64,622	428,284	0,068	0,106
-63,607	64,942	0,033	0,024
-62,592	-200,000	-0,028	-0,144
-61,578	603,709	-0,090	-0,161
-60,563	9,227	0,123	0,067
-59,549	-5,900	-0,068	0,033
-58,534	50,620	-2,133	-1,443
-57,519	-200,000	-0,081	-0,673
-56,505	-200,000	-1,333	-5,051
-55,490	88,111	0,800	0,635
-54,476	800,000	5,351	12,061
-53,461	-200,000	18,194	291,490
-52,446	800,000	729,366	2215,866
-51,432	523,865	1641,832	2774,746
-50,417	107,768	1630,842	1390,456
-49,403	72,281	1283,269	956,261
-48,388	30,768	1024,633	626,736
-47,373	19,829	986,715	567,617
-46,359	17,915	974,289	554,201
-45,344	14,837	970,525	542,012
-44,330	15,089	969,031	541,978
-43,315	14,623	966,944	539,273
-42,300	14,521	965,979	538,384
-41,286	14,518	965,046	537,832
-40,271	14,542	963,985	537,297
-39,257	14,573	963,181	536,930
-38,242	14,564	962,208	536,335
-37,227	14,539	961,506	535,842
-36,213	14,579	960,493	535,387
-35,198	14,564	959,713	534,882
-34,184	14,561	959,047	534,480
-33,169	14,491	958,070	533,688
-32,154	14,504	957,197	533,223
-31,140	14,519	956,231	532,711
-30,125	14,583	955,633	532,563
-29,111	14,548	954,687	531,901
-28,096	14,521	954,172	531,506
-27,082	14,594	953,309	531,239
-26,067	14,575	952,529	530,721
-25,052	14,524	951,760	530,111
-24,038	14,582	951,171	529,947
-23,023	14,578	950,754	529,679
-22,009	14,615	949,739	529,213
-20,994	14,489	949,464	528,636
-19,979	14,564	948,658	528,405
-18,965	14,520	947,913	527,829
-17,950	14,521	947,389	527,519
-16,936	14,541	946,684	527,169
-15,921	14,557	945,904	526,767
-14,906	14,449	945,355	526,097
-13,892	14,490	944,609	525,791
-12,877	14,433	944,202	525,363
-11,863	14,425	943,357	524,845
-10,848	14,399	943,010	524,548
-9,833	14,546	942,550	524,738
-8,819	14,555	941,642	524,239
-7,804	14,475	941,239	523,742
-6,790	14,461	940,712	523,383
-5,775	14,457	940,035	522,974
-4,760	14,477	939,355	522,636
-3,746	14,454	938,846	522,260
-2,731	14,338	938,115	521,468
-1,717	14,314	937,200	520,863
-0,702	14,296	936,826	520,580
0,313	14,093	936,216	520,387
1,327	17,455	933,911	529,600
2,342	26,297	787,027	469,485
3,356	22,438	442,863	258,470
4,371	-6,576	294,984	143,244
5,386	-10,419	276,881	130,808
6,400	-11,707	271,216	126,927
7,415	-11,851	268,904	125,700
8,429	-11,968	267,488	124,921
9,444	-12,154	266,810	124,423
10,459	-12,250	266,049	123,970
11,473	-12,255	265,368	123,637
12,488	-12,305	264,856	123,342
13,502	-12,563	264,283	122,832
14,517	-12,490	263,958	122,736
15,531	-12,333	263,502	122,654
16,546	-12,502	263,036	122,274
17,561	-12,430	262,659	122,153
18,575	-12,331	262,354	122,088
19,590	-12,498	261,983	121,755
20,604	-12,308	261,724	121,794
21,619	-12,420	261,475	121,568
22,634	-12,351	261,010	121,402
23,648	-12,481	260,640	121,103
24,663	-12,361	260,474	121,122
25,677	-12,609	260,294	120,807
26,692	-12,474	259,968	120,765
27,707	-12,621	259,728	120,512
28,721	-12,494	259,374	120,450
29,736	-12,533	259,104	120,280
30,750	-12,399	258,735	120,215
31,765	-12,583	258,624	119,991
32,780	-12,676	258,369	119,780
33,794	-12,503	258,076	119,786
34,809	-12,463	257,869	119,715
35,823	-12,486	257,679	119,595
36,838	-12,318	257,246	119,531
37,853	-12,634	257,262	119,251
38,867	-12,642	257,081	119,149
39,882	-12,413	256,652	119,140
40,896	-12,492	256,432	118,958
41,911	-12,595	256,244	118,770
42,926	-12,525	255,804	118,617
43,940	-12,552	255,747	118,557
44,955	-12,801	255,594	118,258
45,969	-12,714	255,370	118,219
46,984	-12,878	254,999	117,894
47,999	-13,128	254,737	117,546
49,013	-13,217	254,626	117,407
50,028	-13,178	254,221	117,244
51,042	-13,127	253,855	117,108
52,057	-13,241	253,712	116,934
53,071	-13,259	253,568	116,841
54,086	-13,030	253,357	116,931
55,101	-13,221	253,297	116,728
56,115	-12,857	252,983	116,886
57,130	-12,458	253,003	117,229
58,144	-12,199	252,552	117,232
59,159	-12,275	252,502	117,134
60,174	-12,337	252,299	116,976
61,188	-12,353	252,203	116,907
62,203	-12,250	251,960	116,872
63,217	-12,254	251,576	116,680
64,232	-12,502	251,472	116,409
65,247	-12,450	251,334	116,380
66,261	-12,559	250,922	116,086
67,276	-12,536	250,612	115,951
68,290	-12,800	250,478	115,654
69,305	-12,802	250,321	115,569
70,320	-12,763	249,982	115,436
71,334	-12,533	249,954	115,608
72,349	-12,423	249,831	115,634
73,363	-12,286	249,694	115,677
74,378	-12,387	249,317	115,406
75,393	-12,509	249,169	115,224
76,407	-12,548	248,981	115,094
77,422	-12,494	248,712	115,005
78,436	-12,580	248,634	114,886
79,451	-12,548	248,475	114,830
80,466	-12,609	248,120	114,604
81,480	-12,712	248,042	114,471
82,495	-12,829	247,800	114,250
83,509	-12,616	247,570	114,314
84,524	-12,553	247,212	114,190
85,539	-12,776	247,021	113,905
86,553	-12,684	246,924	113,927
87,568	-12,722	246,730	113,796
88,582	-12,789	246,597	113,668
89,597	-12,676	246,299	113,616
90,611	-12,652	246,205	113,581
91,626	-12,675	246,162	113,533
92,641	-12,530	245,779	113,467
93,655	-12,461	245,657	113,458
94,670	-12,644	245,422	113,187
95,684	-12,375	245,189	113,293
96,699	-12,531	245,133	113,128
97,714	-12,487	244,812	113,006
98,728	-12,693	244,671	112,759
99,743	-12,769	244,346	112,536
100,757	-12,765	244,122	112,427
101,772	-12,825	244,067	112,341
102,787	-12,873	243,911	112,220
103,801	-12,736	243,759	112,254
104,816	-12,416	243,496	112,387
105,830	-12,435	243,482	112,354
106,845	-12,415	243,257	112,257
107,860	-12,664	243,061	111,951
108,874	-12,640	242,892	111,883
109,889	-12,705	242,526	111,651
110,903	-12,722	242,410	111,574
111,918	-12,557	242,204	111,604
112,933	-12,527	241,899	111,479
113,947	-12,516	241,932	111,493
114,962	-12,392	241,643	111,451
115,976	-12,586	241,533	111,233
116,991	-12,528	241,357	111,189
118,006	-12,498	241,220	111,140
119,020	-12,409	241,103	111,149
120,035	-12,476	240,978	111,027
121,049	-12,550	240,769	110,860
122,064	-12,528	240,662	110,819
123,079	-12,678	240,473	110,600
124,093	-12,544	240,121	110,537
125,108	-12,674	239,943	110,340
126,122	-12,832	239,554	110,023
127,137	-12,921	239,289	109,819
128,151	-12,901	239,323	109,841
129,166	-12,789	239,194	109,863
130,181	-13,010	238,998	109,585
131,195	-13,055	238,879	109,484
132,210	-12,593	238,701	109,765
133,224	-12,585	238,526	109,681
134,239	-12,386	238,311	109,733
135,254	-12,504	238,180	109,568
136,268	-12,623	237,922	109,344
137,283	-12,836	237,486	108,963
138,297	-12,843	237,346	108,883
139,312	-12,958	237,239	108,732
140,327	-12,564	237,091	108,971
141,341	-12,309	237,132	109,184
142,356	-12,160	236,900	109,187
143,370	-12,372	236,811	108,966
144,385	-12,231	236,697	109,017
145,400	-12,168	236,472	108,954
146,414	-12,175	236,328	108,872
147,429	-12,342	236,110	108,629
148,443	-12,482	236,019	108,466
149,458	-12,221	235,790	108,558
150,473	-12,296	235,590	108,397
151,487	-12,294	235,443	108,321
152,502	-12,295	235,154	108,178
153,516	-12,292	234,992	108,096
154,531	-12,424	234,933	107,954
155,546	-12,187	234,601	107,980
156,560	-12,281	234,455	107,829
157,575	-12,323	234,294	107,712
158,589	-12,490	234,155	107,507
159,604	-12,321	233,937	107,530
160,619	-12,005	233,935	107,770
161,633	-12,127	233,847	107,622
162,648	-12,172	233,643	107,484
163,662	-12,288	233,364	107,255
164,677	-12,323	233,066	107,081
165,692	-12,387	233,136	107,053
166,706	-12,328	233,012	107,033
167,721	-12,267	232,918	107,028
168,735	-11,941	232,807	107,223
169,750	-12,219	232,645	106,921
170,764	-12,290	232,496	106,788
171,779	-12,090	232,256	106,824
172,794	-12,149	232,059	106,677
173,808	-12,574	231,944	106,284
174,823	-12,814	231,562	105,912
175,837	-12,854	231,547	105,864
176,852	-12,429	231,399	106,118
177,867	-12,338	231,191	106,084
178,881	-12,271	231,125	106,097
179,896	-12,284	230,852	105,952
180,910	-12,474	230,873	105,804
181,925	-12,235	230,588	105,850
182,940	-12,054	230,502	105,941
183,954	-12,221	230,339	105,728
184,969	-12,153	230,221	105,717
185,983	-11,908	230,033	105,811
186,998	-12,078	229,993	105,651
188,013	-12,125	229,689	105,465
189,027	-11,995	229,544	105,490
190,042	-12,162	229,339	105,258
191,056	-12,156	229,084	105,136
192,071	-11,993	229,097	105,258
193,086	-11,974	228,902	105,174
194,100	-11,707	228,799	105,322
195,115	-12,135	228,502	104,847
196,129	-12,144	228,556	104,856
197,144	-7,467	230,007	109,125
198,159	-2,864	231,451	113,371
199,173	0,891	232,521	116,803
200,188	1,589	232,451	117,300
201,202	1,394	232,224	117,023
202,217	1,507	232,092	117,034
203,232	1,639	232,088	117,123
204,246	1,491	231,912	116,910
205,261	1,698	231,775	116,990
206,275	2,140	231,638	117,252
207,290	1,973	231,554	117,070
208,304	1,807	231,405	116,856
209,319	1,891	231,159	116,786
210,334	1,767	230,817	116,508
211,348	1,618	230,734	116,341
212,363	1,192	230,557	115,914
213,377	1,387	230,317	115,932
214,392	1,420	230,241	115,910
215,407	1,629	230,139	116,009
216,421	1,603	230,016	115,916
217,436	1,553	229,817	115,766
218,450	1,483	229,457	115,522
219,465	1,242	229,385	115,291
220,480	1,230	229,253	115,205
221,494	1,098	229,196	115,066
222,509	1,540	229,075	115,332
223,523	1,565	228,927	115,266
224,538	1,456	228,673	115,045
225,553	1,356	228,619	114,931
226,567	1,297	228,445	114,789
227,582	1,318	228,363	114,753
228,596	1,866	228,265	115,110
229,611	1,653	228,018	114,813
230,626	1,128	227,787	114,289
231,640	1,000	227,743	114,160
232,655	1,762	227,386	114,547
233,669	1,865	227,427	114,636
234,684	2,097	227,333	114,754
235,699	1,772	227,312	114,487
236,713	1,533	226,891	114,084
237,728	1,409	226,826	113,948
238,742	1,400	226,580	113,807
239,757	1,435	226,426	113,746
240,772	1,373	226,257	113,605
241,786	1,195	226,162	113,412
242,801	1,521	226,099	113,616
243,815	2,211	225,985	114,067
244,830	1,748	225,851	113,642
245,844	1,336	225,669	113,231
246,859	1,336	225,413	113,093
247,874	1,741	225,500	113,430
248,888	1,719	225,206	113,255
249,903	1,615	225,127	113,128
250,917	1,411	224,840	112,820
251,932	1,479	224,691	112,787
252,947	1,364	224,400	112,544
253,961	1,201	224,335	112,380
254,976	1,498	224,197	112,522
255,990	1,638	224,155	112,596
257,005	1,532	224,151	112,505
258,020	1,667	224,002	112,521
259,034	1,671	223,642	112,333
260,049	1,674	223,678	112,343
261,063	1,876	223,425	112,355
262,078	1,959	223,331	112,360
263,093	1,937	223,157	112,246
264,107	1,902	222,973	112,118
265,122	1,888	222,874	112,048
266,136	1,665	223,014	111,943
267,151	1,673	222,805	111,833
268,166	1,358	222,384	111,380
269,180	1,091	222,128	111,045
270,195	1,372	222,095	111,226
271,209	1,280	221,963	111,082
272,224	1,355	221,745	111,018
273,239	1,629	221,705	111,189
274,253	1,540	221,426	110,975
275,268	1,349	221,344	110,783
276,282	1,129	221,081	110,481
277,297	1,136	221,022	110,447
278,312	1,259	220,894	110,463
279,326	1,658	220,858	110,727
280,341	1,474	220,792	110,549
281,355	1,569	220,676	110,551
282,370	1,502	220,551	110,429
283,384	1,374	220,100	110,101
284,399	1,012	220,118	109,835
285,414	1,169	219,904	109,833
286,428	1,502	219,877	110,052
287,443	1,746	219,762	110,163
288,457	1,514	219,627	109,917
289,472	1,332	219,360	109,641
290,487	1,230	219,067	109,411
291,501	1,326	218,832	109,353
292,516	1,030	218,884	109,155
293,530	1,269	218,719	109,235
294,545	1,150	218,787	109,174
295,560	1,336	218,560	109,185
296,574	1,509	218,418	109,230
297,589	1,570	218,235	109,173
298,603	1,892	217,983	109,269
299,618	1,371	217,996	108,890
300,633	1,541	217,941	108,976
301,647	1,668	217,875	109,024
302,662	1,899	217,720	109,103
303,676	1,782	217,651	108,975
304,691	1,686	217,492	108,816
305,706	1,838	217,296	108,818
306,720	1,787	217,106	108,676
307,735	1,300	216,848	108,189
308,749	1,643	216,804	108,403
309,764	1,572	216,744	108,312
310,779	1,756	216,563	108,344
311,793	1,486	216,373	108,046
312,808	1,544	216,317	108,050
313,822	1,647	216,038	107,974
314,837	1,393	215,953	107,741
315,852	1,409	215,696	107,614
316,866	1,340	215,723	107,569
317,881	1,752	215,518	107,751
318,895	1,791	215,350	107,685
319,910	1,225	215,139	107,167
320,925	1,072	214,957	106,959
321,939	0,839	214,858	106,734
322,954	1,371	214,688	107,018
323,968	1,678	214,756	107,260
324,983	1,758	214,624	107,241
325,997	1,932	214,473	107,279
327,012	1,617	214,259	106,940
328,027	1,659	214,191	106,926
329,041	1,980	214,100	107,098
330,056	1,324	213,884	106,518
331,070	1,204	213,489	106,226
332,085	1,129	213,451	106,145
333,100	1,390	213,564	106,376
334,114	1,918	213,218	106,565
335,129	1,500	213,361	106,333
336,143	1,546	213,027	106,189
337,158	1,505	212,999	106,138
338,173	1,700	212,835	106,183
339,187	1,456	212,474	105,823
340,202	1,458	212,369	105,762
341,216	1,496	212,185	105,688
342,231	1,327	212,237	105,586
343,246	1,236	212,002	105,396
344,260	1,371	211,795	105,378
345,275	1,609	211,900	105,587
346,289	1,870	211,714	105,667
347,304	1,974	211,622	105,684
348,319	1,687	211,572	105,450
349,333	1,774	211,282	105,357
350,348	1,841	211,128	105,317
351,362	2,144	211,159	105,534
352,377	1,985	211,110	105,389
353,392	1,772	210,811	105,083
354,406	1,838	210,608	105,018
355,421	196,217	1315,854	1391,394
356,435	156,860	1450,484	1391,366
