DTS Sentinel unit serial number:	SN410029Multiplexer serial number:	ORYXHardware model number:	OX2-SRSoftware version number:	ORYX F/W v4,00 Oryx Data Collector v3.7.2.0data status	okinstallation	B6 Nyhavnadifferential loss correction	single-endedforward channel	channel 2reverse channel	N/Adate	2023/12/09time	09:25:08forward acquisition time	300,00reverse acquisition time	0,00gamma	499,1914k internal	0,3138k external	0,3138temperature offset calibration	1,0000default loss term (dB/km)	0,3820temperature slope calibration	1,0000multiplexer offset coefficient	1,0000multiplexer slope coefficient	1,0000fibre end	0,00T internal ref (°C)	18,44T ext. ref 1 (°C)	2,03T ext. ref 2 (°C)	2,02length (m)	temperature (°C)	Stokes	anti-Stokes-744,400	-200,000	-0,001	0,036
-743,385	-95,675	-0,296	0,058
-742,371	-135,462	0,069	-0,006
-741,356	76,774	-0,220	0,173
-740,342	27,776	0,085	0,053
-739,327	-1,313	-0,296	0,154
-738,312	-49,888	-0,031	0,011
-737,298	-143,076	-0,335	-0,024
-736,283	139,736	0,044	0,043
-735,269	-153,219	-0,213	-0,011
-734,254	173,450	0,062	0,067
-733,239	-71,172	-0,547	-0,151
-732,225	-56,948	0,057	0,018
-731,210	-120,171	0,142	0,018
-730,196	91,972	0,091	0,076
-729,181	47,137	0,055	0,038
-728,167	-200,000	-0,026	0,130
-727,152	-200,000	0,008	0,055
-726,137	64,815	-0,034	0,025
-725,123	20,351	-0,002	-0,001
-724,108	199,140	-0,049	-0,056
-723,094	-200,000	0,004	0,035
-722,079	274,163	-0,100	-0,131
-721,064	-200,000	0,003	0,023
-720,050	-8,746	-0,071	-0,035
-719,035	-200,000	0,004	-0,024
-718,021	-119,328	-0,196	-0,025
-717,006	-200,000	-0,039	-0,137
-715,991	800,000	-0,041	-0,102
-714,977	40,142	-0,121	-0,080
-713,962	498,915	-0,048	-0,083
-712,948	-31,684	0,059	-0,024
-711,933	10,715	0,039	0,022
-710,918	800,000	-0,006	0,015
-709,904	-53,409	-0,103	-0,035
-708,889	34,243	-0,054	-0,035
-707,875	643,123	0,042	-0,080
-706,860	46,218	0,032	-0,022
-705,845	-200,000	-0,009	-0,048
-704,831	44,221	0,021	0,014
-703,816	87,496	0,072	-0,059
-702,802	386,358	-0,075	-0,115
-701,787	226,288	0,064	-0,077
-700,772	81,655	-0,061	0,049
-699,758	375,082	-0,081	-0,123
-698,743	98,852	0,125	0,106
-697,729	23,621	0,051	-0,031
-696,714	23,480	-0,198	-0,121
-695,699	116,642	-0,042	0,038
-694,685	-85,083	-0,061	0,014
-693,670	-53,481	-0,115	0,039
-692,656	-200,000	-0,035	0,130
-691,641	-31,465	-0,043	0,018
-690,627	-161,475	-0,018	0,001
-689,612	-136,553	-0,030	0,003
-688,597	-87,066	-0,025	-0,006
-687,583	-149,305	-0,169	-0,010
-686,568	105,876	-0,063	-0,055
-685,554	-200,000	-0,021	0,193
-684,539	761,788	-0,023	-0,047
-683,524	-129,752	-0,184	-0,019
-682,510	-200,000	0,009	0,063
-681,495	-200,000	0,013	0,067
-680,481	800,000	-0,068	-0,147
-679,466	76,834	-0,177	-0,139
-678,451	26,304	-0,032	-0,020
-677,437	8,126	-0,104	0,058
-676,422	-200,000	0,008	0,081
-675,408	-200,000	0,005	0,018
-674,393	206,218	-0,035	-0,040
-673,378	-103,339	-0,180	-0,031
-672,364	-200,000	-0,000	0,012
-671,349	-44,154	0,038	0,014
-670,335	264,561	-0,080	-0,103
-669,320	-62,525	0,134	-0,041
-668,305	92,968	-0,096	0,080
-667,291	-1,455	0,043	-0,022
-666,276	-25,802	-0,140	-0,061
-665,262	-43,424	0,078	0,029
-664,247	257,362	0,098	-0,125
-663,232	53,162	-0,103	0,073
-662,218	-62,247	0,096	0,029
-661,203	-17,139	-0,148	0,069
-660,189	-51,273	-0,024	-0,008
-659,174	-200,000	-0,007	-0,081
-658,159	-182,124	-0,054	-0,001
-657,145	120,777	0,117	-0,108
-656,130	-53,617	-0,197	-0,066
-655,116	115,179	-0,076	-0,069
-654,101	62,658	0,041	-0,030
-653,086	-11,958	-0,157	-0,076
-652,072	-96,692	-0,095	0,018
-651,057	-147,029	-0,138	-0,009
-650,043	259,578	-0,093	-0,118
-649,028	-125,710	0,146	0,016
-648,014	205,230	0,056	-0,064
-646,999	-200,000	-0,018	0,085
-645,984	-120,917	0,032	0,004
-644,970	800,000	-0,036	-0,082
-643,955	-1,801	0,102	-0,053
-642,941	-105,559	-0,083	-0,014
-641,926	800,000	-0,047	0,124
-640,911	-157,919	0,112	0,005
-639,897	-200,000	0,022	0,142
-638,882	504,005	-0,022	-0,038
-637,868	-94,796	0,125	-0,025
-636,853	237,630	-0,074	-0,091
-635,838	-64,219	0,052	-0,016
-634,824	-171,458	-0,174	-0,004
-633,809	201,614	-0,026	0,029
-632,795	119,719	0,030	0,027
-631,780	51,060	-0,106	0,074
-630,765	382,785	-0,071	0,109
-629,751	287,930	-0,071	-0,095
-628,736	-176,889	0,067	0,001
-627,722	348,434	-0,013	-0,019
-626,707	800,000	-0,016	0,040
-625,692	-200,000	0,002	0,086
-624,678	-200,000	0,020	-0,134
-623,663	-135,843	0,041	-0,004
-622,649	800,000	-0,037	-0,106
-621,634	7,172	-0,118	-0,065
-620,619	-60,468	0,149	-0,047
-619,605	-200,000	0,021	-0,104
-618,590	100,665	0,076	0,065
-617,576	-125,769	-0,120	-0,013
-616,561	-200,000	-0,039	-0,162
-615,546	800,000	-0,063	-0,203
-614,532	171,627	-0,078	0,082
-613,517	47,145	-0,013	0,009
-612,503	84,721	0,030	0,024
-611,488	197,310	-0,014	-0,016
-610,474	421,938	-0,007	0,012
-609,459	570,576	-0,076	0,136
-608,444	353,946	-0,025	0,037
-607,430	-200,000	0,002	-0,061
-606,415	-32,229	-0,127	-0,052
-605,401	-81,344	0,109	-0,026
-604,386	-92,094	-0,045	0,009
-603,371	10,641	-0,081	-0,045
-602,357	281,525	0,056	0,074
-601,342	30,329	0,018	0,011
-600,328	-200,000	0,015	-0,094
-599,313	12,286	-0,054	-0,031
-598,298	-59,521	0,088	0,028
-597,284	431,074	0,061	0,097
-596,269	92,904	-0,075	-0,063
-595,255	-33,768	-0,103	0,042
-594,240	721,643	-0,073	-0,145
-593,225	307,944	-0,015	0,021
-592,211	-117,954	-0,056	0,007
-591,196	86,206	0,089	0,072
-590,182	152,547	-0,011	0,011
-589,167	-200,000	0,003	0,038
-588,152	338,100	0,042	0,061
-587,138	340,002	0,068	0,098
-586,123	-200,000	-0,010	0,065
-585,109	800,000	0,041	-0,114
-584,094	318,037	0,042	-0,059
-583,079	-200,000	-0,012	0,084
-582,065	-83,981	0,140	-0,033
-581,050	-200,000	-0,022	0,147
-580,036	-93,322	-0,079	0,016
-579,021	133,635	0,033	-0,032
-578,006	-186,407	-0,160	0,002
-576,992	27,306	-0,034	0,021
-575,977	-200,000	-0,002	0,075
-574,963	-69,576	0,190	0,053
-573,948	287,672	-0,053	-0,071
-572,934	-169,226	-0,050	0,001
-571,919	78,227	-0,042	-0,033
-570,904	111,337	-0,030	0,026
-569,890	800,000	-0,028	-0,090
-568,875	-200,000	0,017	-0,065
-567,861	-200,000	-0,004	-0,092
-566,846	-101,452	0,217	-0,039
-565,831	-13,202	-0,084	-0,040
-564,817	104,812	0,046	0,040
-563,802	255,203	-0,075	-0,095
-562,788	-109,136	-0,165	0,026
-561,773	-66,303	0,092	0,027
-560,758	27,404	0,065	-0,040
-559,744	-27,922	-0,054	0,023
-558,729	-38,685	0,053	-0,020
-557,715	-200,000	0,028	0,096
-556,700	-200,000	0,002	-0,017
-555,685	-75,774	0,017	0,004
-554,671	-73,623	-0,071	-0,019
-553,656	739,856	0,002	-0,004
-552,642	43,971	-0,014	0,010
-551,627	-200,000	-0,014	0,097
-550,612	-200,000	-0,009	0,059
-549,598	-200,000	-0,020	-0,074
-548,583	34,995	-0,097	0,063
-547,569	-35,374	-0,094	0,037
-546,554	331,451	-0,078	-0,111
-545,539	271,240	-0,051	-0,066
-544,525	302,636	0,056	0,077
-543,510	-45,387	-0,141	0,051
-542,496	-200,000	0,022	0,137
-541,481	779,839	-0,031	-0,064
-540,466	-10,621	0,061	0,029
-539,452	800,000	0,038	0,108
-538,437	156,363	0,131	-0,133
-537,423	-200,000	0,019	-0,113
-536,408	-164,635	-0,050	0,002
-535,393	374,799	-0,134	0,202
-534,379	800,000	0,023	0,060
-533,364	75,675	-0,014	-0,011
-532,350	172,987	0,143	-0,152
-531,335	54,176	0,040	-0,029
-530,321	36,361	0,101	-0,065
-529,306	-16,456	0,127	-0,059
-528,291	394,171	0,046	-0,070
-527,277	529,992	-0,092	-0,160
-526,262	45,826	0,104	0,071
-525,248	-200,000	0,001	0,149
-524,233	-136,468	-0,030	-0,003
-523,218	159,958	0,071	0,073
-522,204	149,984	-0,125	-0,124
-521,189	285,596	-0,066	0,088
-520,175	800,000	0,015	-0,038
-519,160	-123,887	-0,107	-0,012
-518,145	32,418	-0,110	-0,070
-517,131	143,342	0,074	0,072
-516,116	77,224	0,033	-0,026
-515,102	-200,000	0,016	0,111
-514,087	167,542	-0,073	-0,076
-513,072	-21,092	-0,092	-0,041
-512,058	-129,584	-0,055	0,006
-511,043	800,000	-0,047	0,113
-510,029	-71,830	-0,052	0,014
-509,014	-135,235	0,126	-0,011
-507,999	314,189	0,065	0,091
-506,985	-133,229	-0,040	0,004
-505,970	800,000	-0,035	0,103
-504,956	-200,000	-0,023	-0,104
-503,941	14,626	0,031	-0,018
-502,926	-99,707	0,100	-0,018
-501,912	201,541	-0,074	0,084
-500,897	800,000	-0,013	0,032
-499,883	800,000	0,015	0,041
-498,868	55,734	-0,047	-0,033
-497,853	449,026	-0,074	-0,121
-496,839	45,403	0,035	0,024
-495,824	-200,000	-0,027	0,128
-494,810	398,223	0,046	0,072
-493,795	285,612	-0,014	0,019
-492,781	746,485	0,055	-0,110
-491,766	102,181	-0,028	-0,024
-490,751	-200,000	-0,005	-0,037
-489,737	72,509	0,089	0,068
-488,722	-182,055	0,030	-0,000
-487,708	-138,900	0,138	-0,011
-486,693	-200,000	0,003	0,044
-485,678	-72,215	-0,064	0,017
-484,664	-19,300	-0,038	-0,017
-483,649	-200,000	-0,000	-0,011
-482,635	800,000	-0,035	-0,081
-481,620	36,244	-0,132	0,085
-480,605	-93,179	-0,081	0,016
-479,591	-119,738	-0,065	0,008
-478,576	57,888	0,073	-0,052
-477,562	-43,874	-0,039	-0,014
-476,547	259,894	0,043	0,055
-475,532	79,762	-0,106	0,083
-474,518	800,000	0,025	-0,053
-473,503	43,312	-0,085	-0,057
-472,489	-200,000	0,004	-0,081
-471,474	-200,000	0,007	-0,024
-470,459	-56,486	0,046	0,015
-469,445	105,149	-0,132	-0,115
-468,430	350,256	0,005	-0,007
-467,416	-200,000	0,023	0,078
-466,401	-165,902	0,064	0,002
-465,386	-77,033	-0,162	0,041
-464,372	21,318	-0,106	0,063
-463,357	247,915	-0,057	0,071
-462,343	-200,000	0,000	-0,125
-461,328	-52,716	0,071	-0,024
-460,313	-31,172	-0,043	-0,018
-459,299	358,624	0,083	0,122
-458,284	800,000	-0,027	-0,076
-457,270	256,590	-0,026	-0,033
-456,255	-123,534	0,072	0,008
-455,241	-134,622	-0,085	-0,008
-454,226	-147,119	-0,064	0,004
-453,211	800,000	-0,028	0,090
-452,197	800,000	-0,016	-0,034
-451,182	450,420	0,037	0,060
-450,168	470,898	0,042	-0,070
-449,153	-200,000	-0,029	-0,172
-448,138	2,894	-0,116	-0,061
-447,124	95,558	-0,016	-0,013
-446,109	-200,000	0,013	-0,090
-445,095	-200,000	-0,005	0,046
-444,080	621,317	0,066	0,122
-443,065	-200,000	-0,012	0,094
-442,051	285,731	-0,057	0,076
-441,036	-78,314	-0,090	-0,023
-440,022	-117,087	0,091	0,012
-439,007	75,058	0,047	0,036
-437,992	-200,000	0,027	0,237
-436,978	152,985	0,063	-0,064
-435,963	16,023	-0,027	-0,016
-434,949	-60,731	-0,101	0,031
-433,934	-200,000	-0,018	0,228
-432,919	9,388	0,131	0,072
-431,905	-200,000	0,057	-0,189
-430,890	101,925	0,107	0,091
-429,876	622,870	-0,024	0,045
-428,861	109,145	0,042	0,037
-427,846	66,028	-0,072	-0,053
-426,832	554,330	0,072	0,127
-425,817	800,000	0,029	-0,077
-424,803	79,105	-0,111	0,087
-423,788	-175,069	0,159	0,003
-422,773	800,000	0,054	0,163
-421,759	-200,000	0,017	0,076
-420,744	5,398	0,113	0,061
-419,730	-174,762	0,110	-0,002
-418,715	-200,000	-0,023	-0,113
-417,701	-121,055	-0,223	0,027
-416,686	633,690	0,013	-0,024
-415,671	455,912	-0,026	0,042
-414,657	-33,772	0,057	-0,023
-413,642	-200,000	0,015	0,132
-412,628	-39,791	-0,078	-0,030
-411,613	223,530	0,020	0,024
-410,598	355,843	-0,097	0,142
-409,584	334,751	0,040	0,057
-408,569	464,933	-0,101	0,166
-407,555	-41,987	0,135	0,050
-406,540	-200,000	-0,018	-0,206
-405,525	156,625	-0,044	0,044
-404,511	-118,181	-0,058	-0,007
-403,496	21,074	0,063	0,037
-402,482	190,147	-0,010	-0,012
-401,467	-58,275	-0,053	0,017
-400,452	-65,573	0,156	-0,046
-399,438	-3,976	0,131	0,066
-398,423	-200,000	-0,004	0,031
-397,409	81,952	0,048	0,038
-396,394	34,078	-0,128	-0,082
-395,379	-200,000	0,004	0,044
-394,365	-200,000	0,014	-0,155
-393,350	735,902	0,017	0,033
-392,336	-200,000	0,005	0,136
-391,321	101,221	0,087	0,074
-390,306	-200,000	-0,025	-0,147
-389,292	-91,792	-0,061	-0,013
-388,277	-200,000	0,021	0,093
-387,263	48,633	0,052	-0,036
-386,248	1,720	0,082	-0,043
-385,233	491,106	-0,019	0,031
-384,219	-85,270	0,141	0,032
-383,204	-8,884	-0,094	-0,046
-382,190	19,986	0,155	-0,091
-381,175	-200,000	-0,042	-0,185
-380,160	-163,352	0,129	-0,004
-379,146	-82,249	0,105	0,025
-378,131	118,296	0,062	-0,056
-377,117	28,480	-0,086	-0,053
-376,102	-200,000	0,006	0,044
-375,088	23,068	-0,184	0,110
-374,073	4,967	0,036	-0,020
-373,058	-8,727	0,068	-0,033
-372,044	273,096	0,082	0,106
-371,029	-85,765	0,107	0,024
-370,015	-200,000	-0,000	0,105
-369,000	-200,000	-0,008	0,121
-367,985	-29,542	-0,034	0,014
-366,971	394,737	0,051	-0,078
-365,956	73,305	0,081	-0,062
-364,942	-65,706	0,050	-0,015
-363,927	156,371	0,078	-0,078
-362,912	-200,000	0,009	-0,039
-361,898	69,477	-0,031	-0,024
-360,883	39,413	-0,068	-0,044
-359,869	226,337	0,010	0,012
-358,854	47,317	0,053	0,036
-357,839	36,732	0,014	-0,009
-356,825	800,000	0,009	0,023
-355,810	197,433	0,064	0,072
-354,796	-200,000	0,033	-0,108
-353,781	144,321	-0,023	-0,023
-352,766	-3,608	-0,069	-0,035
-351,752	-200,000	0,038	-0,189
-350,737	-43,188	0,054	-0,020
-349,723	800,000	0,013	-0,034
-348,708	228,742	-0,054	0,064
-347,693	152,867	-0,035	-0,035
-346,679	-47,033	0,096	-0,034
-345,664	-200,000	-0,002	-0,055
-344,650	-200,000	-0,017	-0,073
-343,635	-200,000	-0,005	0,101
-342,620	154,210	0,050	-0,050
-341,606	-200,000	-0,005	-0,033
-340,591	95,958	-0,058	-0,049
-339,577	800,000	0,081	-0,175
-338,562	800,000	0,050	-0,121
-337,548	-45,263	0,064	-0,023
-336,533	-200,000	-0,004	0,059
-335,518	65,666	-0,158	0,117
-334,504	800,000	0,036	0,107
-333,489	-200,000	0,027	-0,102
-332,475	-79,815	-0,161	0,039
-331,460	2,260	0,133	-0,070
-330,445	46,432	-0,051	-0,034
-329,431	322,155	0,063	0,088
-328,416	4,134	0,084	-0,045
-327,402	53,759	-0,056	0,039
-326,387	-145,482	-0,141	0,009
-325,372	-200,000	0,003	-0,025
-324,358	426,544	0,030	0,047
-323,343	-200,000	-0,022	-0,089
-322,329	81,282	0,088	0,069
-321,314	-67,296	-0,054	0,015
-320,299	763,757	-0,043	0,086
-319,285	-200,000	-0,010	-0,070
-318,270	285,856	-0,063	0,083
-317,256	-200,000	-0,002	0,011
-316,241	216,034	0,070	-0,081
-315,226	-82,945	-0,044	0,010
-314,212	5,984	0,078	0,042
-313,197	545,128	-0,028	0,048
-312,183	-3,886	-0,013	0,007
-311,168	-74,693	-0,217	0,057
-310,153	459,000	-0,041	-0,067
-309,139	-77,436	0,169	-0,042
-308,124	-200,000	0,044	0,153
-307,110	14,799	-0,043	0,024
-306,095	151,172	0,057	-0,057
-305,080	800,000	0,018	-0,048
-304,066	72,726	-0,116	-0,088
-303,051	-152,287	0,067	0,003
-302,037	-85,204	-0,008	0,002
-301,022	800,000	-0,026	0,064
-300,008	89,876	-0,096	0,078
-298,993	-38,135	0,084	-0,032
-297,978	-200,000	-0,020	-0,066
-296,964	-52,475	-0,044	-0,015
-295,949	137,668	-0,070	0,067
-294,935	800,000	-0,056	-0,171
-293,920	-62,422	-0,114	0,034
-292,905	800,000	-0,033	0,072
-291,891	503,454	0,060	0,102
-290,876	203,363	0,029	-0,033
-289,862	77,587	0,017	0,013
-288,847	-61,147	-0,058	0,018
-287,832	126,744	-0,072	-0,066
-286,818	-98,258	0,139	-0,026
-285,803	659,172	0,018	0,034
-284,789	-200,000	0,014	0,152
-283,774	-76,170	0,116	-0,030
-282,759	92,722	-0,042	0,035
-281,745	364,189	0,104	-0,152
-280,730	79,397	0,054	-0,042
-279,716	513,455	0,071	-0,121
-278,701	81,691	0,082	-0,064
-277,686	-200,000	-0,028	0,119
-276,672	-31,179	-0,124	-0,051
-275,657	114,437	0,076	-0,068
-274,643	-200,000	-0,001	0,032
-273,628	-32,529	-0,063	-0,025
-272,613	438,299	0,023	-0,036
-271,599	-43,985	0,222	0,081
-270,584	256,318	-0,032	-0,040
-269,570	42,419	0,037	-0,025
-268,555	800,000	-0,024	-0,063
-267,540	217,599	-0,046	-0,053
-266,526	-200,000	0,006	-0,143
-265,511	455,368	0,013	-0,020
-264,497	-74,085	-0,077	-0,020
-263,482	37,025	0,063	-0,041
-262,467	-91,780	-0,191	0,039
-261,453	16,431	0,050	0,029
-260,438	-107,817	-0,138	-0,022
-259,424	-200,000	-0,006	0,093
-258,409	-176,527	-0,137	0,003
-257,395	31,527	-0,044	-0,028
-256,380	-200,000	-0,007	0,131
-255,365	-52,122	0,050	0,017
-254,351	321,867	0,029	-0,040
-253,336	-200,000	0,013	-0,063
-252,322	800,000	0,052	-0,137
-251,307	-200,000	0,013	-0,051
-250,292	81,768	-0,029	-0,023
-249,278	103,774	0,109	-0,093
-248,263	-200,000	-0,020	-0,076
-247,249	-200,000	0,014	0,137
-246,234	-53,516	0,101	-0,033
-245,219	-102,669	-0,168	0,029
-244,205	25,356	-0,051	-0,031
-243,190	-126,439	0,084	-0,009
-242,176	-200,000	0,026	0,105
-241,161	-25,980	0,047	0,020
-240,146	468,890	0,024	0,039
-239,132	-200,000	0,009	-0,029
-238,117	91,108	0,080	-0,065
-237,103	-200,000	-0,029	-0,095
-236,088	4,839	-0,163	0,087
-235,073	23,931	0,145	0,087
-234,059	113,821	-0,026	0,023
-233,044	222,078	0,048	0,057
-232,030	-200,000	0,013	0,069
-231,015	-200,000	-0,005	0,041
-230,000	-26,514	0,037	-0,016
-228,986	-7,985	0,089	0,044
-227,971	286,965	0,015	0,020
-226,957	-64,947	0,132	-0,039
-225,942	-200,000	0,010	0,074
-224,927	545,611	-0,019	-0,033
-223,913	-163,325	-0,080	0,003
-222,898	370,276	0,010	-0,014
-221,884	228,958	-0,106	-0,126
-220,869	-112,434	0,030	0,004
-219,855	111,831	-0,049	-0,043
-218,840	51,125	-0,025	0,017
-217,825	-200,000	-0,014	0,096
-216,811	582,993	-0,020	-0,035
-215,796	-200,000	-0,005	-0,152
-214,782	800,000	-0,046	-0,136
-213,767	30,235	0,170	0,105
-212,752	117,856	0,054	0,048
-211,738	-200,000	0,002	0,038
-210,723	429,999	-0,046	0,073
-209,709	-49,810	0,067	-0,023
-208,694	800,000	-0,021	0,060
-207,679	-52,777	-0,073	-0,024
-206,665	-200,000	0,026	-0,142
-205,650	318,049	-0,064	0,089
-204,636	-200,000	-0,006	0,068
-203,621	-18,978	-0,078	-0,035
-202,606	213,151	-0,095	0,109
-201,592	24,249	0,032	-0,019
-200,577	-93,853	-0,012	0,002
-199,563	153,718	0,069	0,069
-198,548	-122,204	0,135	0,016
-197,533	212,687	0,044	-0,051
-196,519	-0,224	0,081	0,042
-195,504	-200,000	0,005	-0,094
-194,490	283,459	0,037	-0,049
-193,475	291,628	-0,016	-0,021
-192,460	-200,000	0,003	0,084
-191,446	133,878	0,059	0,056
-190,431	-100,313	-0,036	-0,006
-189,417	-88,546	0,052	-0,011
-188,402	-200,000	0,018	-0,085
-187,387	-200,000	-0,017	-0,123
-186,373	589,158	-0,031	-0,056
-185,358	651,204	-0,041	0,077
-184,344	95,968	0,048	-0,040
-183,329	-200,000	0,007	0,038
-182,315	393,387	-0,032	0,049
-181,300	408,229	0,032	-0,049
-180,285	-30,299	-0,088	-0,036
-179,271	-200,000	-0,012	-0,149
-178,256	582,798	-0,058	-0,104
-177,242	14,393	0,064	-0,036
-176,227	800,000	-0,029	0,078
-175,212	-200,000	0,019	0,106
-174,198	274,152	-0,053	0,069
-173,183	19,734	-0,062	0,036
-172,169	-139,269	-0,107	0,008
-171,154	588,472	-0,060	-0,107
-170,139	800,000	0,078	-0,190
-169,125	800,000	0,038	0,115
-168,110	-200,000	-0,009	-0,048
-167,096	800,000	0,035	0,076
-166,081	-200,000	-0,000	0,107
-165,066	-200,000	0,005	0,051
-164,052	800,000	-0,053	0,124
-163,037	-200,000	0,005	0,038
-162,023	238,260	-0,018	0,022
-161,008	504,530	0,036	-0,061
-159,993	-96,824	-0,079	0,015
-158,979	800,000	-0,017	-0,035
-157,964	-200,000	-0,012	-0,098
-156,950	-200,000	0,005	0,018
-155,935	-200,000	-0,002	0,068
-154,920	800,000	0,077	0,171
-153,906	-200,000	-0,007	-0,062
-152,891	-200,000	-0,030	-0,192
-151,877	-200,000	-0,018	-0,078
-150,862	-200,000	0,013	-0,094
-149,847	800,000	-0,032	0,071
-148,833	285,010	-0,040	-0,053
-147,818	64,363	0,119	0,087
-146,804	-109,020	-0,044	-0,007
-145,789	-200,000	-0,023	0,108
-144,775	113,880	0,062	-0,055
-143,760	68,916	-0,041	-0,030
-142,745	-172,477	-0,076	-0,002
-141,731	-40,841	-0,072	0,027
-140,716	82,901	-0,036	-0,028
-139,702	581,678	0,013	-0,023
-138,687	-153,509	-0,071	0,003
-137,672	94,246	-0,081	0,066
-136,658	-38,891	-0,128	0,049
-135,643	81,322	-0,164	-0,128
-134,629	800,000	-0,017	-0,039
-133,614	-200,000	0,000	0,075
-132,599	800,000	-0,063	0,177
-131,585	44,962	0,086	0,057
-130,570	-200,000	0,004	-0,060
-129,556	-200,000	-0,020	-0,073
-128,541	50,399	0,129	-0,088
-127,526	417,413	-0,036	-0,056
-126,512	321,223	0,079	0,109
-125,497	-200,000	0,003	0,037
-124,483	-200,000	-0,006	-0,028
-123,468	-128,511	-0,075	-0,008
-122,453	800,000	-0,017	-0,042
-121,439	-137,253	0,046	-0,004
-120,424	370,228	-0,046	-0,068
-119,410	488,069	-0,045	-0,075
-118,395	101,341	-0,052	0,044
-117,380	-148,153	0,098	-0,006
-116,366	406,411	-0,024	0,036
-115,351	800,000	0,022	-0,064
-114,337	-200,000	0,016	-0,104
-113,322	523,639	-0,086	-0,147
-112,307	-93,245	-0,098	-0,020
-111,293	-91,877	0,062	-0,013
-110,278	-200,000	-0,016	0,062
-109,264	389,235	0,031	0,047
-108,249	-200,000	0,019	-0,124
-107,234	290,427	-0,085	0,112
-106,220	15,781	-0,083	0,047
-105,205	800,000	0,046	-0,102
-104,191	150,465	-0,059	-0,058
-103,176	-200,000	0,001	0,058
-102,162	-200,000	0,041	0,218
-101,147	-65,941	-0,053	-0,015
-100,132	52,421	-0,073	0,050
-99,118	160,641	0,029	0,029
-98,103	218,823	0,047	0,055
-97,089	800,000	-0,064	0,165
-96,074	800,000	0,046	-0,106
-95,059	-200,000	0,009	0,075
-94,045	-124,874	-0,075	0,008
-93,030	-82,541	-0,092	-0,021
-92,016	-200,000	-0,022	-0,097
-91,001	-200,000	-0,008	-0,078
-89,986	-200,000	0,016	-0,085
-88,972	800,000	-0,029	0,061
-87,957	-145,611	-0,133	0,008
-86,943	-80,351	0,113	0,027
-85,928	800,000	0,028	0,072
-84,913	-200,000	-0,019	-0,062
-83,899	218,799	0,108	-0,125
-82,884	-200,000	-0,009	-0,084
-81,870	189,288	-0,063	0,068
-80,855	248,814	-0,022	0,027
-79,840	-200,000	0,008	0,104
-78,826	151,585	-0,057	-0,056
-77,811	-18,723	-0,058	0,026
-76,797	145,240	0,081	0,078
-75,782	17,325	0,065	-0,037
-74,767	-38,152	-0,038	0,014
-73,753	-200,000	-0,006	0,039
-72,738	0,525	-0,163	-0,084
-71,724	800,000	-0,045	-0,095
-70,709	-76,194	-0,057	-0,014
-69,694	-187,413	-0,054	-0,001
-68,680	-48,372	-0,055	-0,019
-67,665	-66,515	0,092	0,026
-66,651	-200,000	-0,001	-0,015
-65,636	-15,082	-0,063	-0,029
-64,622	121,024	-0,108	0,097
-63,607	416,516	-0,091	-0,141
-62,592	-200,000	0,003	-0,050
-61,578	-200,000	0,013	0,107
-60,563	-57,215	-0,074	0,023
-59,549	-133,211	-0,082	0,007
-58,534	-37,862	-1,794	-0,686
-57,519	800,000	-0,580	-1,297
-56,505	-200,000	-1,245	-4,677
-55,490	-188,045	0,612	0,006
-54,476	800,000	5,379	12,290
-53,461	-200,000	15,905	280,116
-52,446	-200,000	703,195	2251,700
-51,432	565,512	1619,162	2846,354
-50,417	122,109	1622,959	1463,189
-49,403	83,070	1283,778	1007,753
-48,388	36,970	1028,378	655,435
-47,373	21,514	990,487	580,151
-46,359	20,482	978,910	569,945
-45,344	18,702	974,905	561,734
-44,330	18,806	973,646	561,329
-43,315	18,564	971,818	559,458
-42,300	18,498	970,678	558,562
-41,286	18,482	969,830	558,002
-40,271	18,551	968,622	557,509
-39,257	18,482	968,067	556,943
-38,242	18,489	967,214	556,451
-37,227	18,417	966,676	555,887
-36,213	18,446	965,611	555,345
-35,198	18,428	964,780	554,787
-34,184	18,478	963,843	554,389
-33,169	18,443	963,023	553,782
-32,154	18,509	962,182	553,490
-31,140	18,547	961,308	553,088
-30,125	18,513	960,733	552,626
-29,111	18,511	959,705	552,006
-28,096	18,514	959,157	551,680
-27,082	18,488	958,421	551,150
-26,067	18,443	957,881	550,671
-25,052	18,489	956,716	550,129
-24,038	18,517	956,117	549,854
-23,023	18,514	955,315	549,358
-22,009	18,475	954,783	548,906
-20,994	18,549	954,055	548,703
-19,979	18,562	953,486	548,399
-18,965	18,489	952,982	547,852
-17,950	18,498	952,478	547,569
-16,936	18,416	951,673	546,821
-15,921	18,428	950,951	546,424
-14,906	18,426	950,139	545,929
-13,892	18,370	949,761	545,509
-12,877	18,334	949,009	544,941
-11,863	18,286	948,482	544,463
-10,848	18,364	947,797	544,297
-9,833	18,423	947,452	544,268
-8,819	18,387	946,874	543,798
-7,804	18,326	946,124	543,152
-6,790	18,326	945,593	542,825
-5,775	18,346	945,046	542,553
-4,760	18,390	944,242	542,209
-3,746	18,427	943,627	541,952
-2,731	18,219	942,916	540,862
-1,717	18,152	942,258	540,249
-0,702	18,119	941,597	539,745
0,313	18,010	940,879	539,801
1,327	21,126	939,107	548,608
2,342	30,154	796,485	489,343
3,356	27,320	449,496	271,883
4,371	-2,586	295,683	148,831
5,386	-6,854	276,948	135,327
6,400	-7,998	271,319	131,496
7,415	-8,187	268,648	130,015
8,429	-8,083	267,491	129,539
9,444	-8,160	266,741	129,095
10,459	-8,120	265,975	128,748
11,473	-8,220	265,489	128,411
12,488	-8,194	264,806	128,092
13,502	-8,377	264,234	127,638
14,517	-8,431	263,931	127,431
15,531	-8,329	263,600	127,353
16,546	-8,245	263,175	127,212
17,561	-8,315	262,765	126,939
18,575	-8,224	262,658	126,958
19,590	-8,417	262,065	126,486
20,604	-8,266	261,675	126,423
21,619	-8,341	261,577	126,296
22,634	-8,281	261,058	126,089
23,648	-8,526	260,834	125,750
24,663	-8,367	260,463	125,702
25,677	-8,497	260,472	125,579
26,692	-8,262	259,988	125,544
27,707	-8,525	259,871	125,241
28,721	-8,434	259,635	125,198
29,736	-8,408	259,281	125,039
30,750	-8,460	258,961	124,827
31,765	-8,677	258,740	124,517
32,780	-8,471	258,517	124,581
33,794	-8,516	258,244	124,399
34,809	-8,455	258,111	124,378
35,823	-8,542	257,783	124,131
36,838	-8,708	257,515	123,845
37,853	-8,555	257,363	123,896
38,867	-8,496	257,252	123,883
39,882	-8,455	256,782	123,682
40,896	-8,532	256,698	123,562
41,911	-8,422	256,576	123,590
42,926	-8,467	255,993	123,258
43,940	-8,656	255,939	123,055
44,955	-8,608	255,634	122,940
45,969	-8,851	255,426	122,616
46,984	-8,925	255,221	122,442
47,999	-9,243	254,969	122,032
49,013	-9,264	254,751	121,899
50,028	-9,398	254,363	121,585
51,042	-9,448	254,187	121,447
52,057	-9,533	253,862	121,206
53,071	-9,390	253,913	121,344
54,086	-9,249	253,649	121,330
55,101	-9,191	253,543	121,319
56,115	-8,916	253,386	121,472
57,130	-8,515	253,228	121,733
58,144	-8,236	253,075	121,891
59,159	-8,298	252,928	121,755
60,174	-8,195	252,585	121,669
61,188	-8,344	252,371	121,425
62,203	-8,430	252,175	121,246
63,217	-8,498	251,981	121,084
64,232	-8,469	251,833	121,027
65,247	-8,531	251,617	120,859
66,261	-8,404	251,240	120,776
67,276	-8,732	251,080	120,407
68,290	-8,821	250,830	120,199
69,305	-8,990	250,543	119,906
70,320	-8,957	250,398	119,854
71,334	-8,617	250,345	120,110
72,349	-8,461	250,199	120,163
73,363	-8,304	249,952	120,167
74,378	-8,403	249,729	119,965
75,393	-8,493	249,538	119,786
76,407	-8,464	249,281	119,677
77,422	-8,449	249,201	119,640
78,436	-8,455	249,091	119,572
79,451	-8,335	248,628	119,440
80,466	-8,717	248,527	119,057
81,480	-8,762	248,261	118,880
82,495	-8,772	248,017	118,744
83,509	-8,582	247,896	118,837
84,524	-8,719	247,726	118,629
85,539	-8,862	247,358	118,322
86,553	-8,991	247,236	118,143
87,568	-8,811	247,166	118,252
88,582	-8,780	246,863	118,122
89,597	-8,949	246,879	117,976
90,611	-8,568	246,585	118,146
91,626	-8,527	246,381	118,073
92,641	-8,668	246,316	117,912
93,655	-8,639	245,989	117,770
94,670	-8,618	245,861	117,715
95,684	-8,689	245,673	117,556
96,699	-8,646	245,450	117,474
97,714	-8,700	245,386	117,389
98,728	-8,947	245,010	116,991
99,743	-9,041	244,792	116,798
100,757	-9,038	244,707	116,750
101,772	-8,979	244,378	116,632
102,787	-8,705	244,249	116,788
103,801	-8,791	244,081	116,626
104,816	-8,633	243,926	116,672
105,830	-8,542	243,832	116,693
106,845	-8,505	243,505	116,557
107,860	-8,534	243,491	116,516
108,874	-8,878	243,306	116,130
109,889	-8,670	243,128	116,208
110,903	-8,803	242,880	115,969
111,918	-8,797	242,631	115,845
112,933	-8,677	242,438	115,842
113,947	-8,535	242,323	115,894
114,962	-8,835	242,304	115,626
115,976	-8,911	242,026	115,421
116,991	-8,612	241,786	115,543
118,006	-8,534	241,613	115,514
119,020	-8,632	241,595	115,414
120,035	-8,452	241,319	115,420
121,049	-8,476	241,422	115,439
122,064	-8,455	241,052	115,269
123,079	-8,380	240,815	115,207
124,093	-8,575	240,632	114,950
125,108	-9,028	240,531	114,520
126,122	-8,991	240,180	114,372
127,137	-9,249	240,069	114,099
128,151	-8,906	239,739	114,212
129,166	-8,750	239,577	114,252
130,181	-8,989	239,460	113,990
131,195	-8,976	239,146	113,842
132,210	-8,903	239,206	113,920
133,224	-8,805	239,103	113,940
134,239	-8,770	238,966	113,893
135,254	-8,799	238,632	113,700
136,268	-8,843	238,526	113,604
137,283	-8,991	238,205	113,321
138,297	-9,176	237,925	113,027
139,312	-9,071	237,785	113,036
140,327	-8,786	237,756	113,243
141,341	-8,192	237,777	113,724
142,356	-8,231	237,705	113,647
143,370	-8,214	237,602	113,601
144,385	-8,098	237,239	113,511
145,400	-8,176	237,068	113,357
146,414	-8,164	236,886	113,269
147,429	-8,152	236,876	113,263
148,443	-8,333	236,536	112,946
149,458	-8,275	236,450	112,941
150,473	-8,474	236,213	112,658
151,487	-8,457	235,958	112,541
152,502	-8,284	235,827	112,606
153,516	-8,028	235,724	112,752
154,531	-8,149	235,493	112,535
155,546	-8,209	235,303	112,386
156,560	-8,343	235,135	112,189
157,575	-8,501	234,990	111,983
158,589	-8,459	234,750	111,892
159,604	-8,136	234,640	112,087
160,619	-8,199	234,637	112,026
161,633	-8,181	234,497	111,964
162,648	-8,228	234,336	111,839
163,662	-8,203	234,128	111,750
164,677	-8,349	233,936	111,532
165,692	-8,161	233,797	111,605
166,706	-8,118	233,677	111,572
167,721	-7,961	233,490	111,597
168,735	-8,001	233,457	111,540
169,750	-8,289	233,374	111,262
170,764	-8,251	232,984	111,096
171,779	-8,380	233,018	111,000
172,794	-8,000	232,637	111,109
173,808	-8,429	232,512	110,701
174,823	-8,775	232,299	110,317
175,837	-8,836	231,941	110,090
176,852	-8,522	231,983	110,347
177,867	-8,199	231,865	110,534
178,881	-8,350	231,903	110,424
179,896	-8,124	231,556	110,426
180,910	-8,070	231,557	110,459
181,925	-8,092	231,271	110,296
182,940	-8,070	231,042	110,194
183,954	-8,061	231,020	110,180
184,969	-7,992	230,834	110,136
185,983	-8,159	230,765	109,963
186,998	-8,130	230,674	109,933
188,013	-8,054	230,294	109,800
189,027	-7,878	230,246	109,905
190,042	-8,065	230,151	109,704
191,056	-8,059	230,055	109,654
192,071	-8,094	229,765	109,478
193,086	-8,169	229,654	109,357
194,100	-8,092	229,562	109,363
195,115	-8,135	228,964	109,036
196,129	-8,535	229,074	108,768
197,144	-3,707	230,684	113,289
198,159	1,585	232,131	118,130
199,173	3,259	232,490	119,611
200,188	3,477	232,405	119,727
201,202	3,472	232,262	119,639
202,217	3,891	232,269	119,959
203,232	3,806	232,246	119,870
204,246	4,180	231,877	119,960
205,261	4,040	231,857	119,830
206,275	4,324	231,717	119,968
207,290	4,290	231,598	119,869
208,304	4,103	231,531	119,678
209,319	4,141	231,178	119,515
210,334	4,131	230,988	119,398
211,348	3,895	230,721	119,067
212,363	3,615	230,513	118,732
213,377	3,278	230,245	118,323
214,392	3,365	230,262	118,388
215,407	3,337	230,013	118,228
216,421	3,569	229,970	118,375
217,436	3,427	229,691	118,111
218,450	3,231	229,550	117,877
219,465	3,370	229,301	117,846
220,480	3,202	229,213	117,660
221,494	3,163	229,185	117,606
222,509	3,448	228,949	117,693
223,523	3,256	228,879	117,499
224,538	3,252	228,644	117,365
225,553	3,381	228,671	117,468
226,567	3,466	228,472	117,420
227,582	3,499	228,449	117,423
228,596	3,841	228,294	117,594
229,611	3,482	228,027	117,172
230,626	3,329	227,738	116,897
231,640	3,309	227,745	116,874
232,655	3,491	227,717	116,988
233,669	4,139	227,632	117,428
234,684	4,067	227,435	117,261
235,699	3,786	227,130	116,880
236,713	3,757	226,965	116,763
237,728	3,384	226,833	116,401
238,742	3,246	226,486	116,107
239,757	3,358	226,479	116,179
240,772	3,352	226,298	116,071
241,786	3,235	226,233	115,938
242,801	3,527	226,018	116,039
243,815	3,797	226,090	116,270
244,830	3,764	225,938	116,156
245,844	3,438	225,612	115,732
246,859	3,428	225,443	115,628
247,874	3,502	225,473	115,689
248,888	3,555	225,359	115,659
249,903	3,607	225,042	115,526
250,917	3,272	224,955	115,219
251,932	3,462	224,700	115,221
252,947	3,408	224,508	115,072
253,961	3,274	224,426	114,919
254,976	3,346	224,308	114,902
255,990	3,580	224,298	115,062
257,005	3,479	224,152	114,902
258,020	3,650	223,977	114,929
259,034	3,707	223,870	114,907
260,049	3,639	223,814	114,816
261,063	3,815	223,413	114,733
262,078	3,824	223,502	114,775
263,093	3,968	223,237	114,736
264,107	3,656	223,073	114,409
265,122	3,812	222,812	114,381
266,136	3,870	222,879	114,448
267,151	3,828	222,725	114,328
268,166	3,633	222,494	114,054
269,180	3,478	222,224	113,790
270,195	3,381	222,128	113,659
271,209	3,360	221,941	113,538
272,224	3,331	222,016	113,545
273,239	3,626	221,756	113,620
274,253	3,236	221,724	113,305
275,268	3,272	221,342	113,126
276,282	3,250	221,122	112,987
277,297	3,091	221,079	112,837
278,312	3,334	220,851	112,890
279,326	3,497	220,928	113,040
280,341	3,463	220,722	112,899
281,355	3,569	220,519	112,864
282,370	3,237	220,504	112,601
283,384	3,136	220,249	112,387
284,399	2,942	220,073	112,145
285,414	3,197	219,905	112,236
286,428	3,395	219,950	112,394
287,443	3,542	219,767	112,398
288,457	3,520	219,568	112,271
289,472	3,280	219,480	112,040
290,487	3,013	219,135	111,659
291,501	2,927	218,948	111,490
292,516	3,094	218,823	111,539
293,530	3,020	218,721	111,423
294,545	2,993	218,596	111,329
295,560	3,378	218,652	111,629
296,574	3,250	218,477	111,436
297,589	3,386	218,315	111,443
298,603	3,322	218,297	111,377
299,618	3,338	218,113	111,285
300,633	3,549	218,014	111,378
301,647	3,727	217,843	111,410
302,662	3,430	217,866	111,196
303,676	3,708	217,593	111,248
304,691	3,552	217,395	111,024
305,706	3,663	217,265	111,028
306,720	3,538	217,231	110,910
307,735	3,385	216,961	110,652
308,749	3,209	216,844	110,455
309,764	3,283	216,726	110,439
310,779	3,464	216,662	110,527
311,793	3,402	216,403	110,340
312,808	3,251	216,356	110,198
313,822	3,677	216,163	110,396
314,837	3,325	215,891	109,994
315,852	3,216	215,815	109,868
316,866	3,471	215,717	109,991
317,881	3,608	215,652	110,046
318,895	3,640	215,415	109,938
319,910	3,522	215,247	109,758
320,925	3,302	215,090	109,512
321,939	2,861	214,883	109,081
322,954	3,083	214,878	109,227
323,968	3,663	214,706	109,544
324,983	3,570	214,689	109,460
325,997	3,563	214,751	109,476
327,012	3,458	214,372	109,199
328,027	3,362	214,288	109,078
329,041	3,722	214,169	109,264
330,056	4,012	214,149	109,450
331,070	3,337	213,836	108,800
332,085	3,054	213,697	108,519
333,100	3,317	213,549	108,621
334,114	3,535	213,377	108,678
335,129	3,521	213,158	108,548
336,143	3,388	212,999	108,362
337,158	3,236	213,073	108,283
338,173	3,477	212,780	108,295
339,187	3,120	212,731	108,008
340,202	3,088	212,643	107,931
341,216	2,759	212,416	107,574
342,231	3,254	212,229	107,819
343,246	3,271	212,069	107,740
344,260	3,388	211,987	107,771
345,275	3,507	211,913	107,807
346,289	3,411	211,846	107,696
347,304	3,302	211,716	107,543
348,319	3,485	211,540	107,573
349,333	3,121	211,399	107,237
350,348	3,340	211,258	107,309
351,362	3,456	211,362	107,434
352,377	3,501	211,115	107,330
353,392	3,669	210,817	107,286
354,406	3,265	210,818	106,995
355,421	195,856	1342,843	1430,569
356,435	156,434	1480,795	1430,606
