DTS Sentinel unit serial number:	SN410029Multiplexer serial number:	ORYXHardware model number:	OX2-SRSoftware version number:	ORYX F/W v4,00 Oryx Data Collector v3.7.2.0data status	okinstallation	B6 Nyhavnadifferential loss correction	single-endedforward channel	channel 2reverse channel	N/Adate	2023/12/09time	03:50:08forward acquisition time	300,00reverse acquisition time	0,00gamma	499,1914k internal	0,3152k external	0,3152temperature offset calibration	1,0000default loss term (dB/km)	0,3820temperature slope calibration	1,0000multiplexer offset coefficient	1,0000multiplexer slope coefficient	1,0000fibre end	0,00T internal ref (°C)	16,56T ext. ref 1 (°C)	0,82T ext. ref 2 (°C)	0,83length (m)	temperature (°C)	Stokes	anti-Stokes-744,400	516,213	0,041	-0,072
-743,385	-107,778	-0,242	-0,039
-742,371	-200,000	0,007	-0,072
-741,356	-72,254	-0,255	0,069
-740,342	194,435	0,102	0,114
-739,327	-145,482	-0,237	0,015
-738,312	-78,450	0,051	-0,013
-737,298	-158,566	-0,409	0,017
-736,283	10,200	0,130	-0,073
-735,269	-168,284	-0,296	0,008
-734,254	800,000	0,023	0,062
-733,239	-77,936	-0,443	-0,112
-732,225	374,852	0,132	0,199
-731,210	-200,000	0,015	0,263
-730,196	119,820	-0,037	0,034
-729,181	363,747	0,089	-0,133
-728,167	-200,000	0,026	-0,110
-727,152	-26,790	-0,091	0,039
-726,137	-48,190	-0,067	-0,024
-725,123	-200,000	-0,005	-0,029
-724,108	-126,356	0,019	0,002
-723,094	-13,108	-0,066	-0,032
-722,079	269,859	0,088	-0,114
-721,064	385,473	0,076	0,116
-720,050	-200,000	-0,003	-0,039
-719,035	112,877	-0,095	0,085
-718,021	-70,701	-0,042	0,012
-717,006	-142,868	-0,114	-0,008
-715,991	800,000	0,044	-0,124
-714,977	21,931	-0,101	-0,061
-713,962	-200,000	-0,009	-0,046
-712,948	-88,085	-0,139	0,031
-711,933	-80,301	0,086	0,021
-710,918	491,353	-0,062	-0,105
-709,904	-11,419	0,024	-0,011
-708,889	-200,000	0,007	0,062
-707,875	282,597	0,051	-0,067
-706,860	610,070	0,031	0,058
-705,845	759,285	-0,042	0,084
-704,831	8,764	-0,034	-0,019
-703,816	-153,189	0,088	0,004
-702,802	-157,459	-0,140	-0,006
-701,787	800,000	-0,036	-0,101
-700,772	-200,000	0,002	-0,094
-699,758	-22,051	-0,008	0,003
-698,743	-69,118	0,111	0,031
-697,729	-182,308	0,108	0,001
-696,714	700,936	-0,025	-0,049
-695,699	-200,000	0,007	-0,039
-694,685	254,040	-0,036	0,045
-693,670	40,853	-0,072	-0,048
-692,656	-200,000	0,002	-0,095
-691,641	-115,374	0,234	0,032
-690,627	67,819	-0,038	0,028
-689,612	173,351	0,008	0,009
-688,597	-130,895	-0,066	-0,006
-687,583	-200,000	-0,008	-0,144
-686,568	360,425	-0,087	-0,128
-685,554	800,000	0,097	-0,199
-684,539	-200,000	0,026	0,117
-683,524	800,000	0,084	0,177
-682,510	-200,000	0,027	-0,115
-681,495	214,689	-0,066	0,077
-680,481	169,128	-0,133	0,140
-679,466	40,544	-0,097	0,064
-678,451	-54,436	-0,065	-0,022
-677,437	35,589	0,088	-0,057
-676,422	79,224	0,081	-0,064
-675,408	-200,000	-0,003	-0,070
-674,393	362,183	-0,022	0,032
-673,378	800,000	-0,043	-0,095
-672,364	-90,081	0,062	-0,013
-671,349	175,121	0,080	-0,085
-670,335	-200,000	0,030	0,119
-669,320	16,708	-0,121	0,070
-668,305	-111,767	-0,065	0,010
-667,291	328,307	-0,014	0,020
-666,276	589,094	-0,019	-0,034
-665,262	-71,233	0,097	-0,027
-664,247	-200,000	-0,001	0,087
-663,232	111,370	0,090	-0,080
-662,218	-200,000	0,028	0,093
-661,203	-200,000	-0,004	0,039
-660,189	-200,000	-0,021	0,078
-659,174	800,000	0,016	-0,034
-658,159	151,155	-0,115	-0,115
-657,145	-22,348	-0,120	-0,053
-656,130	-200,000	-0,001	-0,023
-655,116	441,063	-0,048	-0,078
-654,101	253,957	0,081	0,103
-653,086	105,587	-0,053	0,046
-652,072	-95,517	-0,101	-0,020
-651,057	607,213	0,116	-0,213
-650,043	384,473	0,013	0,020
-649,028	-200,000	-0,012	-0,051
-648,014	-34,171	0,124	-0,050
-646,999	-121,807	0,088	0,011
-645,984	89,531	-0,061	-0,050
-644,970	47,246	0,082	0,056
-643,955	-87,268	-0,010	0,002
-642,941	-200,000	-0,006	-0,041
-641,926	-51,698	0,116	-0,039
-640,911	-143,642	0,183	0,013
-639,897	-200,000	0,025	0,174
-638,882	800,000	0,043	0,116
-637,868	436,433	0,071	-0,113
-636,853	800,000	-0,015	-0,036
-635,838	-0,665	-0,049	-0,025
-634,824	-58,163	0,084	-0,027
-633,809	-152,043	-0,136	-0,007
-632,795	665,413	0,043	0,081
-631,780	800,000	-0,070	0,191
-630,765	49,411	0,104	-0,072
-629,751	129,753	-0,101	-0,095
-628,736	800,000	0,019	-0,047
-627,722	15,045	-0,044	0,025
-626,707	22,621	-0,120	-0,072
-625,692	-76,327	0,197	0,051
-624,678	-200,000	0,005	-0,062
-623,663	55,131	-0,047	0,034
-622,649	191,582	0,027	-0,030
-621,634	-36,235	-0,079	0,031
-620,619	-200,000	0,074	-0,000
-619,605	110,816	-0,088	-0,078
-618,590	17,131	0,046	-0,027
-617,576	18,381	-0,050	0,030
-616,561	248,227	0,060	-0,075
-615,546	-200,000	0,017	-0,108
-614,532	-200,000	0,012	-0,065
-613,517	550,318	0,044	-0,078
-612,503	800,000	-0,027	-0,061
-611,488	800,000	-0,057	0,157
-610,474	-148,337	-0,139	-0,008
-609,459	-62,197	0,069	0,021
-608,444	10,407	-0,099	-0,055
-607,430	-128,755	-0,024	0,002
-606,415	-73,814	0,025	-0,007
-605,401	-200,000	-0,024	0,105
-604,386	-200,000	0,005	-0,033
-603,371	287,811	-0,048	-0,063
-602,357	264,360	0,011	-0,014
-601,342	-125,274	0,141	0,016
-600,328	800,000	-0,021	0,057
-599,313	-200,000	0,002	0,027
-598,298	-57,475	-0,205	0,066
-597,284	-200,000	0,028	0,150
-596,269	15,989	-0,079	0,046
-595,255	133,346	0,010	0,009
-594,240	-130,763	-0,112	-0,011
-593,225	-133,567	0,023	-0,002
-592,211	84,587	-0,044	-0,036
-591,196	-120,496	0,135	0,017
-590,182	356,476	-0,080	-0,117
-589,167	-200,000	0,050	0,197
-588,152	762,322	-0,008	0,017
-587,138	-103,476	-0,087	0,015
-586,123	641,615	-0,062	-0,116
-585,109	-200,000	-0,037	-0,138
-584,094	-200,000	0,012	0,064
-583,079	-21,798	0,088	0,039
-582,065	637,895	0,027	-0,051
-581,050	800,000	-0,025	0,064
-580,036	800,000	-0,025	-0,065
-579,021	217,896	-0,086	-0,101
-578,006	-106,088	-0,086	0,014
-576,992	437,934	0,032	0,052
-575,977	-200,000	0,014	0,046
-574,963	10,729	0,113	-0,063
-573,948	-200,000	-0,005	-0,054
-572,934	30,348	-0,122	-0,076
-571,919	388,243	0,037	0,056
-570,904	83,455	-0,054	0,043
-569,890	-31,879	-0,122	-0,050
-568,875	1,280	0,126	0,066
-567,861	100,689	-0,075	-0,064
-566,846	-93,911	-0,143	-0,029
-565,831	-55,547	0,035	-0,012
-564,817	800,000	-0,077	-0,176
-563,802	555,632	0,020	0,035
-562,788	561,893	0,052	0,093
-561,773	-200,000	0,042	0,138
-560,758	358,013	-0,022	0,033
-559,744	671,696	-0,039	0,075
-558,729	-16,720	0,121	0,056
-557,715	-200,000	-0,024	-0,080
-556,700	74,461	-0,134	0,103
-555,685	11,813	0,116	-0,065
-554,671	-200,000	-0,015	0,052
-553,656	-114,701	0,076	0,011
-552,642	800,000	-0,017	-0,054
-551,627	-160,862	-0,141	-0,005
-550,612	-45,680	-0,093	-0,034
-549,598	487,419	-0,069	-0,116
-548,583	-200,000	-0,011	-0,124
-547,569	-200,000	0,004	-0,157
-546,554	-19,422	0,007	0,003
-545,539	160,447	0,052	-0,053
-544,525	800,000	0,010	-0,026
-543,510	229,961	-0,064	-0,077
-542,496	-200,000	-0,009	-0,201
-541,481	800,000	-0,057	-0,180
-540,466	800,000	0,013	0,034
-539,452	-109,306	0,125	-0,019
-538,437	-200,000	-0,057	0,183
-537,423	349,828	0,066	0,096
-536,408	-158,927	-0,030	0,001
-535,393	-35,819	-0,105	-0,041
-534,379	-92,662	0,131	-0,027
-533,364	-44,073	0,081	-0,030
-532,350	-88,627	-0,095	-0,021
-531,335	18,909	0,055	0,032
-530,321	-26,318	0,125	0,054
-529,306	197,708	-0,143	0,160
-528,291	-200,000	-0,006	-0,060
-527,277	-200,000	0,038	-0,151
-526,262	-106,240	0,095	-0,015
-525,248	-108,920	0,030	-0,005
-524,233	57,141	-0,075	-0,054
-523,218	66,001	0,114	0,084
-522,204	800,000	0,056	0,168
-521,189	209,645	0,049	0,056
-520,175	-200,000	-0,020	-0,113
-519,160	-7,247	0,072	-0,035
-518,145	-91,949	0,163	-0,033
-517,131	217,543	-0,070	-0,081
-516,116	172,463	0,053	0,055
-515,102	-137,518	0,054	-0,004
-514,087	-200,000	0,022	-0,148
-513,072	-200,000	0,024	-0,148
-512,058	-41,636	0,046	-0,017
-511,043	-133,802	0,082	-0,007
-510,029	-10,489	0,019	-0,009
-509,014	187,924	-0,095	0,104
-507,999	-142,548	-0,095	-0,007
-506,985	98,682	-0,023	-0,019
-505,970	-200,000	-0,016	0,072
-504,956	386,321	0,035	-0,053
-503,941	-127,910	0,149	0,015
-502,926	41,247	-0,019	-0,013
-501,912	-200,000	0,013	-0,125
-500,897	197,192	0,030	0,034
-499,883	157,254	0,038	-0,038
-498,868	-138,630	-0,077	-0,006
-497,853	204,992	-0,015	0,017
-496,839	31,331	0,086	-0,054
-495,824	-200,000	0,053	-0,000
-494,810	-153,663	-0,049	-0,002
-493,795	282,522	0,043	0,056
-492,781	-200,000	-0,021	-0,155
-491,766	11,621	0,020	-0,011
-490,751	-50,131	0,207	-0,071
-489,737	800,000	-0,032	0,082
-488,722	-76,966	0,078	0,020
-487,708	358,285	-0,028	-0,040
-486,693	-92,412	0,135	-0,027
-485,678	-200,000	-0,019	-0,100
-484,664	633,168	0,052	0,098
-483,649	29,501	-0,074	0,046
-482,635	117,046	-0,123	0,111
-481,620	67,878	0,077	0,058
-480,605	800,000	0,026	0,065
-479,591	690,570	-0,053	-0,101
-478,576	320,334	0,079	0,110
-477,562	130,724	0,084	0,079
-476,547	-200,000	-0,012	-0,109
-475,532	-87,569	0,040	-0,009
-474,518	-67,458	-0,086	-0,025
-473,503	113,463	-0,049	-0,044
-472,489	-136,756	-0,093	0,008
-471,474	-25,969	-0,078	0,034
-470,459	-200,000	-0,003	-0,144
-469,445	311,394	0,017	0,024
-468,430	-137,706	-0,024	-0,002
-467,416	800,000	-0,028	0,061
-466,401	-104,775	0,131	0,022
-465,386	425,486	-0,072	0,114
-464,372	-200,000	-0,003	-0,051
-463,357	-26,657	0,073	0,031
-462,343	-18,132	-0,117	-0,053
-461,328	-200,000	0,002	0,036
-460,313	-12,462	-0,024	0,011
-459,299	-93,685	0,049	0,010
-458,284	38,926	0,104	-0,068
-457,270	73,705	-0,064	0,049
-456,255	800,000	-0,014	-0,035
-455,241	354,594	-0,064	0,093
-454,226	-127,540	0,063	-0,007
-453,211	161,432	-0,026	-0,027
-452,197	222,882	-0,054	-0,064
-451,182	-139,078	0,074	-0,006
-450,168	3,729	-0,109	0,058
-449,153	-17,189	0,060	-0,027
-448,138	-141,663	-0,138	-0,010
-447,124	183,992	-0,030	-0,032
-446,109	-81,459	0,119	-0,028
-445,095	-126,681	-0,097	-0,010
-444,080	-49,086	0,076	-0,026
-443,065	129,706	-0,064	0,060
-442,051	137,085	0,090	-0,086
-441,036	-146,279	0,169	0,011
-440,022	-83,302	0,069	-0,016
-439,007	407,946	-0,010	0,015
-437,992	315,312	-0,043	0,060
-436,978	-200,000	0,002	0,083
-435,963	103,350	0,096	0,082
-434,949	800,000	0,005	-0,013
-433,934	102,939	-0,029	0,025
-432,919	-83,815	0,078	0,018
-431,905	800,000	0,035	0,102
-430,890	331,962	-0,035	0,049
-429,876	-200,000	-0,016	0,112
-428,861	-32,598	0,175	-0,071
-427,846	165,107	-0,069	-0,071
-426,832	331,608	0,052	-0,074
-425,817	800,000	-0,004	0,013
-424,803	-142,584	0,015	-0,001
-423,788	-81,343	-0,107	-0,026
-422,773	336,531	0,049	-0,069
-421,759	-200,000	-0,013	0,125
-420,744	-52,631	-0,060	0,020
-419,730	-200,000	0,004	-0,038
-418,715	800,000	-0,070	-0,146
-417,701	-119,024	-0,046	-0,006
-416,686	-25,409	0,118	-0,051
-415,671	-200,000	0,010	0,168
-414,657	-83,954	0,081	0,019
-413,642	304,638	0,034	0,047
-412,628	-103,125	-0,184	-0,031
-411,613	-128,103	-0,181	0,019
-410,598	339,698	-0,081	0,116
-409,584	-100,390	0,092	0,016
-408,569	128,375	0,079	0,074
-407,555	800,000	-0,056	0,119
-406,540	800,000	-0,057	0,120
-405,525	-109,533	-0,176	-0,027
-404,511	-200,000	-0,012	-0,084
-403,496	-35,131	-0,086	0,034
-402,482	-200,000	0,003	0,026
-401,467	-0,497	0,125	0,064
-400,452	-200,000	0,005	0,080
-399,438	-4,818	0,102	0,051
-398,423	-93,798	0,072	0,014
-397,409	800,000	-0,043	-0,091
-396,394	-14,781	-0,052	0,024
-395,379	-41,580	0,076	-0,028
-394,365	-70,621	0,151	-0,041
-393,350	-200,000	0,015	0,068
-392,336	157,271	0,069	0,069
-391,321	-100,028	-0,136	0,025
-390,306	12,817	0,005	0,003
-389,292	82,014	0,053	0,042
-388,277	-50,696	-0,054	-0,018
-387,263	800,000	0,024	0,050
-386,248	-200,000	-0,012	-0,040
-385,233	800,000	0,020	-0,040
-384,219	800,000	0,028	-0,057
-383,204	800,000	-0,027	0,072
-382,190	-200,000	-0,012	0,107
-381,175	-24,583	-0,081	0,035
-380,160	-200,000	0,021	-0,067
-379,146	290,734	0,025	-0,033
-378,131	-28,427	-0,110	-0,046
-377,117	87,773	-0,070	0,056
-376,102	-200,000	0,046	-0,181
-375,088	-200,000	-0,004	-0,057
-374,073	705,995	-0,038	-0,074
-373,058	290,139	-0,010	0,014
-372,044	-138,598	0,178	-0,014
-371,029	36,159	0,061	0,039
-370,015	-63,904	-0,044	-0,013
-369,000	-126,747	-0,042	0,004
-367,985	-68,277	0,095	0,027
-366,971	3,261	-0,183	0,097
-365,956	-200,000	0,023	0,091
-364,942	385,033	0,038	0,058
-363,927	351,797	0,111	0,161
-362,912	550,514	-0,020	-0,035
-361,898	-200,000	0,006	-0,031
-360,883	800,000	0,022	-0,049
-359,869	-3,492	-0,154	-0,077
-358,854	-200,000	-0,004	-0,024
-357,839	800,000	0,042	0,127
-356,825	-88,264	0,069	0,015
-355,810	33,340	-0,060	-0,038
-354,796	-200,000	0,000	-0,021
-353,781	800,000	-0,048	-0,113
-352,766	-150,041	0,028	0,002
-351,752	-200,000	0,004	0,056
-350,737	78,851	0,027	-0,021
-349,723	-68,736	-0,076	-0,021
-348,708	61,580	0,105	0,076
-347,693	258,113	0,023	0,028
-346,679	800,000	-0,033	-0,105
-345,664	422,712	0,044	-0,068
-344,650	572,270	-0,042	-0,074
-343,635	-200,000	0,028	0,133
-342,620	-127,153	0,202	0,021
-341,606	-111,962	0,192	-0,028
-340,591	-200,000	-0,003	-0,033
-339,577	-200,000	-0,033	-0,107
-338,562	66,414	-0,091	-0,067
-337,548	800,000	0,075	-0,154
-336,533	55,123	0,050	0,035
-335,518	36,939	0,145	0,093
-334,504	65,035	0,050	-0,037
-333,489	-132,002	-0,053	-0,005
-332,475	-123,366	-0,135	-0,016
-331,460	-200,000	0,018	0,073
-330,445	800,000	-0,013	-0,036
-329,431	642,641	0,044	0,083
-328,416	-200,000	0,015	0,131
-327,402	-200,000	-0,002	0,054
-326,387	9,530	-0,162	0,089
-325,372	75,945	0,002	-0,001
-324,358	103,755	-0,040	0,034
-323,343	-200,000	-0,012	-0,050
-322,329	-68,702	0,122	0,034
-321,314	-7,856	-0,072	-0,035
-320,299	115,598	0,102	0,091
-319,285	475,783	0,015	-0,025
-318,270	204,405	-0,062	0,069
-317,256	-200,000	0,010	0,098
-316,241	-200,000	-0,006	0,040
-315,226	319,467	0,028	0,039
-314,212	-135,588	0,131	0,011
-313,197	139,858	0,062	0,060
-312,183	84,027	0,025	-0,020
-311,168	-97,798	-0,086	0,016
-310,153	-200,000	-0,007	-0,045
-309,139	-200,000	-0,006	0,027
-308,124	-87,433	0,100	0,022
-307,110	-135,769	0,072	0,006
-306,095	233,601	0,086	0,103
-305,080	800,000	-0,031	-0,091
-304,066	-200,000	-0,034	-0,113
-303,051	-31,442	-0,109	-0,044
-302,037	99,181	0,111	0,093
-301,022	165,545	-0,093	-0,095
-300,008	-75,986	-0,111	0,028
-298,993	800,000	0,020	0,057
-297,978	318,910	0,043	-0,060
-296,964	-200,000	-0,016	0,073
-295,949	-6,737	-0,098	-0,048
-294,935	408,279	-0,031	-0,047
-293,920	-13,835	0,039	0,018
-292,905	222,909	-0,041	-0,048
-291,891	-161,184	0,066	-0,002
-290,876	-119,201	-0,082	-0,010
-289,862	-200,000	0,004	0,093
-288,847	800,000	-0,053	-0,115
-287,832	-144,979	-0,163	-0,011
-286,818	-95,478	-0,084	-0,016
-285,803	-200,000	-0,014	0,067
-284,789	-107,685	0,186	-0,029
-283,774	-200,000	-0,006	-0,021
-282,759	-78,992	0,074	-0,018
-281,745	16,479	-0,144	-0,082
-280,730	-18,544	-0,068	-0,031
-279,716	-43,880	0,092	-0,033
-278,701	-200,000	0,010	-0,076
-277,686	-71,503	0,066	-0,018
-276,672	-11,999	-0,051	0,024
-275,657	364,997	0,019	0,028
-274,643	-92,983	-0,106	-0,021
-273,628	-200,000	0,007	-0,109
-272,613	800,000	0,022	-0,048
-271,599	-200,000	-0,003	0,106
-270,584	800,000	0,044	0,114
-269,570	-186,179	-0,078	0,001
-268,555	27,500	0,024	-0,015
-267,540	579,085	-0,015	-0,027
-266,526	146,966	-0,082	-0,080
-265,511	196,105	-0,070	0,077
-264,497	47,191	0,104	0,070
-263,482	-9,116	0,123	-0,059
-262,467	47,163	-0,163	0,110
-261,453	-86,132	-0,052	0,011
-260,438	210,563	0,079	-0,090
-259,424	-200,000	0,052	-0,173
-258,409	-200,000	0,032	-0,153
-257,395	-61,188	-0,022	-0,007
-256,380	205,646	0,142	0,160
-255,365	-200,000	0,018	0,063
-254,351	-200,000	-0,006	0,028
-253,336	-200,000	0,008	-0,032
-252,322	-200,000	-0,002	-0,027
-251,307	-55,363	0,051	0,016
-250,292	-149,317	0,058	0,003
-249,278	-200,000	-0,018	0,124
-248,263	-200,000	0,007	-0,023
-247,249	-200,000	-0,012	0,038
-246,234	-200,000	0,007	-0,064
-245,219	-97,650	-0,196	-0,036
-244,205	455,793	-0,032	-0,051
-243,190	-200,000	-0,018	0,104
-242,176	800,000	-0,002	0,005
-241,161	-60,264	0,054	0,017
-240,146	437,458	-0,021	-0,034
-239,132	-200,000	0,004	0,187
-238,117	-48,499	-0,069	0,024
-237,103	-200,000	0,007	-0,070
-236,088	-200,000	0,008	-0,028
-235,073	132,385	0,050	-0,047
-234,059	-149,056	0,050	-0,003
-233,044	171,147	-0,063	-0,066
-232,030	103,514	-0,182	-0,154
-231,015	-61,734	0,096	-0,029
-230,000	22,467	-0,089	-0,052
-228,986	31,552	-0,060	-0,037
-227,971	-200,000	0,015	0,057
-226,957	334,202	0,027	0,039
-225,942	-200,000	0,003	0,017
-224,927	-107,322	0,117	-0,018
-223,913	-56,606	-0,164	-0,052
-222,898	422,103	-0,007	-0,011
-221,884	-100,873	0,156	0,027
-220,869	-174,198	0,155	-0,003
-219,855	-200,000	0,007	0,025
-218,840	-71,240	-0,049	0,013
-217,825	-48,739	-0,055	-0,019
-216,811	208,286	0,027	-0,031
-215,796	-52,352	-0,075	-0,025
-214,782	61,193	0,105	0,076
-213,767	-55,605	-0,129	0,041
-212,752	391,478	-0,088	0,133
-211,738	116,787	-0,059	-0,053
-210,723	-200,000	-0,053	-0,204
-209,709	-200,000	-0,012	0,050
-208,694	-66,919	-0,190	-0,054
-207,679	67,204	-0,049	-0,036
-206,665	95,709	0,060	-0,049
-205,650	-131,313	0,074	0,007
-204,636	800,000	-0,031	0,093
-203,621	-200,000	-0,002	0,031
-202,606	80,898	0,032	-0,025
-201,592	27,339	-0,025	-0,015
-200,577	-11,228	-0,059	-0,028
-199,563	800,000	-0,014	-0,034
-198,548	458,479	0,024	-0,038
-197,533	109,636	0,047	-0,041
-196,519	209,918	0,045	0,051
-195,504	17,212	-0,058	-0,033
-194,490	-200,000	0,015	0,063
-193,475	-0,931	-0,059	-0,030
-192,460	-200,000	-0,020	-0,066
-191,446	-200,000	-0,015	0,103
-190,431	800,000	0,062	0,133
-189,417	-200,000	-0,028	0,203
-188,402	535,724	-0,058	-0,100
-187,387	100,149	-0,086	-0,072
-186,373	62,530	0,093	0,067
-185,358	-39,650	0,121	0,046
-184,344	-200,000	-0,004	0,027
-183,329	478,599	0,029	-0,047
-182,315	-129,822	-0,144	-0,014
-181,300	-90,748	-0,060	-0,012
-180,285	-41,829	-0,030	-0,011
-179,271	800,000	-0,032	-0,070
-178,256	-200,000	-0,018	-0,147
-177,242	265,143	0,027	-0,035
-176,227	19,662	-0,049	0,029
-175,212	182,405	0,019	-0,020
-174,198	-200,000	0,023	0,128
-173,183	442,955	-0,033	-0,052
-172,169	-77,035	-0,128	-0,032
-171,154	80,170	0,046	-0,036
-170,139	-200,000	0,003	0,096
-169,125	-61,139	0,174	0,053
-168,110	-74,068	-0,140	0,036
-167,096	88,522	-0,058	0,047
-166,081	4,465	0,068	0,036
-165,066	161,325	0,015	0,016
-164,052	800,000	0,029	0,060
-163,037	143,702	0,082	-0,079
-162,023	-106,709	0,027	-0,004
-161,008	800,000	-0,048	0,108
-159,993	-20,759	0,025	-0,011
-158,979	173,250	-0,055	-0,058
-157,964	17,371	-0,035	-0,020
-156,950	-200,000	0,003	-0,023
-155,935	245,727	0,115	0,139
-154,920	68,078	-0,133	0,098
-153,906	365,649	0,040	0,058
-152,891	-23,444	-0,131	0,057
-151,877	-200,000	-0,038	0,208
-150,862	-67,986	-0,086	0,024
-149,847	-200,000	0,003	0,070
-148,833	-200,000	-0,096	-0,000
-147,818	-92,467	0,092	-0,019
-146,804	53,745	-0,059	-0,041
-145,789	-200,000	0,003	-0,025
-144,775	21,683	0,041	-0,024
-143,760	-200,000	-0,001	0,161
-142,745	-22,819	-0,020	-0,008
-141,731	800,000	-0,046	0,117
-140,716	354,189	0,038	0,054
-139,702	-35,508	0,061	-0,024
-138,687	38,440	-0,090	0,058
-137,672	-34,405	-0,031	0,012
-136,658	-38,186	-0,199	-0,076
-135,643	109,666	-0,056	-0,048
-134,629	-200,000	-0,003	-0,082
-133,614	26,709	0,082	-0,049
-132,599	-152,689	-0,108	-0,005
-131,585	800,000	-0,044	-0,119
-130,570	617,746	-0,070	0,128
-129,556	356,566	-0,024	0,034
-128,541	182,622	0,024	-0,026
-127,526	-200,000	0,001	-0,068
-126,512	800,000	0,021	-0,049
-125,497	-162,165	0,102	-0,004
-124,483	-26,926	0,065	0,027
-123,468	110,297	-0,003	0,003
-122,453	800,000	0,015	-0,035
-121,439	622,642	0,030	0,054
-120,424	171,569	-0,029	-0,030
-119,410	-200,000	0,005	0,017
-118,395	-169,933	-0,062	0,002
-117,380	190,036	-0,054	-0,059
-116,366	-200,000	0,006	0,039
-115,351	110,145	-0,046	0,040
-114,337	-200,000	0,017	0,082
-113,322	-173,509	-0,135	-0,003
-112,307	-55,862	0,119	-0,038
-111,293	60,050	0,094	-0,067
-110,278	-122,822	-0,095	0,011
-109,264	242,401	-0,040	0,049
-108,249	-200,000	-0,024	-0,084
-107,234	-94,930	0,062	0,012
-106,220	-53,933	-0,120	-0,039
-105,205	-84,363	-0,082	0,019
-104,191	-145,850	0,078	-0,005
-103,176	-27,029	0,201	-0,084
-102,162	-200,000	-0,005	0,142
-101,147	116,378	0,166	0,147
-100,132	-111,425	0,017	-0,002
-99,118	561,776	0,059	-0,102
-98,103	116,003	-0,120	-0,106
-97,089	800,000	0,045	-0,099
-96,074	319,493	0,064	-0,088
-95,059	103,202	-0,080	-0,068
-94,045	52,702	0,015	0,010
-93,030	-18,732	-0,102	-0,046
-92,016	-200,000	0,028	-0,114
-91,001	-34,533	-0,177	-0,070
-89,986	506,752	-0,013	0,022
-88,972	321,463	-0,012	0,017
-87,957	437,484	0,094	0,148
-86,943	37,825	-0,052	0,033
-85,928	-200,000	-0,009	-0,033
-84,913	800,000	-0,079	-0,189
-83,899	574,875	0,120	-0,212
-82,884	800,000	0,026	-0,065
-81,870	65,423	-0,058	-0,042
-80,855	-200,000	0,007	0,040
-79,840	-85,612	0,119	-0,026
-78,826	48,101	-0,130	-0,087
-77,811	800,000	-0,008	0,025
-76,797	-200,000	0,001	0,075
-75,782	313,549	-0,039	0,053
-74,767	-200,000	0,011	-0,068
-73,753	56,439	0,054	-0,037
-72,738	32,628	0,052	0,032
-71,724	293,802	0,032	0,042
-70,709	789,672	-0,038	0,075
-69,694	-69,566	-0,123	0,034
-68,680	218,996	-0,097	0,111
-67,665	-200,000	-0,017	0,062
-66,651	-200,000	-0,011	0,069
-65,636	-78,062	-0,039	0,010
-64,622	-121,506	-0,062	0,007
-63,607	-169,684	-0,070	0,002
-62,592	-23,948	-0,061	-0,026
-61,578	-63,591	-0,080	0,024
-60,563	41,983	-0,105	-0,068
-59,549	-158,797	-0,079	-0,003
-58,534	7,406	-1,896	-1,016
-57,519	800,000	-0,352	-0,897
-56,505	-200,000	-1,243	-4,951
-55,490	-32,831	0,776	0,308
-54,476	800,000	5,265	12,418
-53,461	-200,000	16,985	272,525
-52,446	800,000	717,027	2182,602
-51,432	530,445	1630,480	2780,820
-50,417	112,833	1625,872	1415,912
-49,403	76,401	1286,604	979,124
-48,388	33,443	1032,907	643,480
-47,373	20,276	994,937	576,133
-46,359	19,076	983,202	565,351
-45,344	16,871	979,298	555,819
-44,330	17,017	977,713	555,378
-43,315	16,699	976,155	553,425
-42,300	16,603	975,080	552,477
-41,286	16,564	974,030	551,733
-40,271	16,616	972,977	551,284
-39,257	16,662	972,070	550,900
-38,242	16,616	971,491	550,401
-37,227	16,645	970,421	549,866
-36,213	16,604	969,660	549,280
-35,198	16,608	968,840	548,806
-34,184	16,607	968,132	548,380
-33,169	16,540	967,099	547,555
-32,154	16,595	966,132	547,165
-31,140	16,638	965,185	546,747
-30,125	16,650	964,447	546,347
-29,111	16,630	963,388	545,658
-28,096	16,599	963,099	545,373
-27,082	16,613	962,299	544,945
-26,067	16,552	961,568	544,310
-25,052	16,634	960,647	544,035
-24,038	16,640	960,082	543,713
-23,023	16,535	959,416	542,974
-22,009	16,560	958,846	542,711
-20,994	16,592	958,082	542,360
-19,979	16,620	957,442	542,065
-18,965	16,561	956,893	541,543
-17,950	16,565	956,363	541,234
-16,936	16,575	955,636	540,835
-15,921	16,519	954,846	540,186
-14,906	16,430	954,099	539,455
-13,892	16,486	953,397	539,216
-12,877	16,413	952,937	538,703
-11,863	16,368	952,471	538,272
-10,848	16,412	951,969	538,109
-9,833	16,561	951,167	538,110
-8,819	16,531	950,633	537,690
-7,804	16,472	950,001	537,124
-6,790	16,468	949,305	536,697
-5,775	16,555	948,865	536,704
-4,760	16,489	948,253	536,127
-3,746	16,491	947,437	535,650
-2,731	16,369	946,662	534,801
-1,717	16,285	946,073	534,181
-0,702	16,265	945,517	533,780
0,313	16,122	944,749	533,697
1,327	19,425	942,721	542,981
2,342	28,603	797,817	483,954
3,356	25,463	449,591	267,993
4,371	-3,643	297,132	147,847
5,386	-7,453	278,357	134,862
6,400	-8,700	272,900	131,040
7,415	-9,147	270,583	129,502
8,429	-9,054	269,078	128,856
9,444	-9,136	268,188	128,342
10,459	-9,304	267,510	127,853
11,473	-9,331	266,864	127,508
12,488	-9,436	266,408	127,183
13,502	-9,553	265,698	126,726
14,517	-9,782	265,345	126,338
15,531	-9,702	264,757	126,120
16,546	-9,696	264,369	125,929
17,561	-9,654	264,118	125,836
18,575	-9,847	263,897	125,545
19,590	-9,820	263,313	125,280
20,604	-9,724	263,136	125,271
21,619	-9,832	262,721	124,966
22,634	-9,976	262,354	124,651
23,648	-10,019	262,213	124,534
24,663	-9,993	261,871	124,384
25,677	-10,022	261,601	124,218
26,692	-9,952	261,320	124,136
27,707	-9,990	261,082	123,979
28,721	-10,070	260,849	123,785
29,736	-10,061	260,465	123,600
30,750	-10,080	260,308	123,497
31,765	-10,024	259,969	123,375
32,780	-10,062	259,799	123,250
33,794	-10,143	259,556	123,052
34,809	-9,983	259,264	123,045
35,823	-10,047	258,990	122,847
36,838	-10,108	258,738	122,662
37,853	-10,216	258,449	122,419
38,867	-10,226	258,395	122,374
39,882	-10,185	258,028	122,225
40,896	-10,086	257,941	122,260
41,911	-10,063	257,608	122,111
42,926	-10,210	257,426	121,885
43,940	-10,206	257,177	121,760
44,955	-10,142	256,873	121,661
45,969	-10,257	256,656	121,447
46,984	-10,571	256,470	121,073
47,999	-10,691	256,180	120,820
49,013	-10,906	255,785	120,435
50,028	-10,816	255,490	120,364
51,042	-10,940	255,231	120,123
52,057	-11,111	254,994	119,852
53,071	-10,997	255,030	119,957
54,086	-10,628	254,737	120,130
55,101	-10,730	254,701	120,014
56,115	-10,530	254,519	120,091
57,130	-9,965	254,383	120,507
58,144	-9,681	254,285	120,696
59,159	-9,769	254,120	120,531
60,174	-9,787	253,894	120,397
61,188	-9,816	253,766	120,300
62,203	-9,900	253,417	120,052
63,217	-10,016	253,288	119,880
64,232	-9,859	253,045	119,890
65,247	-9,870	252,850	119,777
66,261	-9,901	252,538	119,592
67,276	-10,075	252,136	119,241
68,290	-10,693	252,051	118,659
69,305	-10,650	251,871	118,600
70,320	-10,492	251,651	118,622
71,334	-10,274	251,451	118,704
72,349	-9,774	251,349	119,073
73,363	-9,791	251,153	118,955
74,378	-9,704	250,854	118,878
75,393	-9,900	250,731	118,642
76,407	-9,855	250,470	118,546
77,422	-10,052	250,321	118,297
78,436	-9,946	250,055	118,251
79,451	-9,832	249,829	118,231
80,466	-10,216	249,551	117,762
81,480	-10,354	249,396	117,561
82,495	-10,062	249,084	117,651
83,509	-10,214	249,063	117,502
84,524	-10,257	248,750	117,307
85,539	-10,498	248,476	116,964
86,553	-10,564	248,401	116,863
87,568	-10,432	248,166	116,852
88,582	-10,409	247,855	116,715
89,597	-10,586	247,916	116,584
90,611	-10,303	247,793	116,755
91,626	-10,165	247,574	116,757
92,641	-10,036	247,307	116,730
93,655	-10,036	247,096	116,619
94,670	-10,171	246,684	116,301
95,684	-10,073	246,636	116,351
96,699	-10,100	246,423	116,217
97,714	-10,269	246,130	115,927
98,728	-10,425	246,208	115,823
99,743	-10,439	245,804	115,611
100,757	-10,354	245,549	115,552
101,772	-10,364	245,454	115,488
102,787	-10,347	245,276	115,409
103,801	-10,292	245,176	115,397
104,816	-10,199	245,024	115,392
105,830	-10,065	244,873	115,423
106,845	-9,917	244,741	115,473
107,860	-9,996	244,457	115,263
108,874	-10,193	244,332	115,031
109,889	-10,207	244,106	114,902
110,903	-10,205	243,836	114,767
111,918	-10,028	243,603	114,793
112,933	-10,269	243,623	114,593
113,947	-10,147	243,511	114,630
114,962	-10,247	243,217	114,400
115,976	-10,144	243,041	114,391
116,991	-10,142	242,906	114,319
118,006	-9,973	242,716	114,360
119,020	-10,118	242,599	114,174
120,035	-10,022	242,555	114,222
121,049	-9,638	242,294	114,405
122,064	-9,996	242,153	114,034
123,079	-9,987	241,884	113,905
124,093	-10,124	241,722	113,706
125,108	-10,293	241,505	113,455
126,122	-10,532	241,146	113,081
127,137	-10,824	241,004	112,765
128,151	-10,555	240,730	112,847
129,166	-10,221	240,566	113,033
130,181	-10,410	240,474	112,825
131,195	-10,393	240,269	112,733
132,210	-10,270	240,104	112,746
133,224	-9,957	239,897	112,893
134,239	-10,109	240,018	112,816
135,254	-10,058	239,883	112,784
136,268	-10,254	239,469	112,420
137,283	-10,505	239,170	112,066
138,297	-10,488	238,903	111,945
139,312	-10,543	238,663	111,778
140,327	-10,173	238,683	112,077
141,341	-9,838	238,683	112,338
142,356	-9,654	238,606	112,440
143,370	-9,688	238,407	112,308
144,385	-9,752	238,227	112,162
145,400	-9,640	238,127	112,196
146,414	-9,364	237,845	112,275
147,429	-9,623	237,619	111,950
148,443	-9,858	237,556	111,722
149,458	-9,678	237,342	111,755
150,473	-9,711	237,259	111,680
151,487	-9,645	236,958	111,581
152,502	-9,740	236,822	111,431
153,516	-9,683	236,755	111,435
154,531	-9,616	236,470	111,345
155,546	-9,790	236,382	111,154
156,560	-10,002	236,125	110,854
157,575	-9,935	235,872	110,779
158,589	-9,784	235,810	110,860
159,604	-9,584	235,815	111,012
160,619	-9,764	235,680	110,795
161,633	-9,501	235,355	110,842
162,648	-9,502	235,299	110,805
163,662	-9,591	235,009	110,588
164,677	-9,854	234,918	110,326
165,692	-9,608	234,713	110,415
166,706	-9,564	234,545	110,362
167,721	-9,393	234,476	110,455
168,735	-9,299	234,280	110,427
169,750	-9,505	234,073	110,156
170,764	-9,791	234,044	109,906
171,779	-9,592	233,914	109,993
172,794	-9,491	233,849	110,032
173,808	-9,736	233,489	109,661
174,823	-10,133	232,968	109,093
175,837	-10,500	232,810	108,721
176,852	-10,064	232,947	109,118
177,867	-9,765	232,927	109,334
178,881	-9,611	232,778	109,375
179,896	-9,595	232,610	109,299
180,910	-9,443	232,415	109,318
181,925	-9,679	232,321	109,079
182,940	-9,535	232,146	109,099
183,954	-9,309	231,976	109,186
184,969	-9,379	231,859	109,067
185,983	-9,539	231,764	108,887
186,998	-9,496	231,499	108,787
188,013	-9,291	231,301	108,844
189,027	-9,290	231,235	108,804
190,042	-9,241	231,094	108,766
191,056	-9,150	230,896	108,734
192,071	-9,415	230,757	108,453
193,086	-9,341	230,665	108,457
194,100	-9,051	230,516	108,603
195,115	-9,039	230,324	108,513
196,129	-8,582	230,370	108,879
197,144	-4,391	231,920	112,875
198,159	0,369	233,283	117,257
199,173	3,173	233,813	119,710
200,188	3,991	233,859	120,363
201,202	3,815	233,733	120,150
202,217	3,759	233,552	120,003
203,232	3,986	233,477	120,130
204,246	3,990	233,395	120,081
205,261	4,145	233,293	120,138
206,275	4,210	233,185	120,123
207,290	4,289	233,053	120,106
208,304	4,223	232,880	119,955
209,319	4,252	232,671	119,859
210,334	4,096	232,512	119,645
211,348	3,778	232,149	119,201
212,363	3,462	231,953	118,844
213,377	3,471	231,643	118,682
214,392	3,110	231,633	118,387
215,407	3,325	231,555	118,503
216,421	3,446	231,521	118,568
217,436	3,390	231,169	118,335
218,450	3,068	230,995	117,986
219,465	2,833	230,826	117,708
220,480	3,019	230,749	117,801
221,494	3,198	230,643	117,875
222,509	3,327	230,403	117,841
223,523	3,253	230,279	117,710
224,538	3,231	230,159	117,622
225,553	3,388	229,923	117,611
226,567	3,470	229,902	117,652
227,582	3,682	229,843	117,774
228,596	3,765	229,688	117,748
229,611	3,446	229,411	117,352
230,626	3,157	229,220	117,022
231,640	3,092	229,082	116,891
232,655	3,510	228,859	117,086
233,669	3,928	229,006	117,471
234,684	4,120	228,881	117,543
235,699	3,583	228,641	116,999
236,713	3,728	228,327	116,939
237,728	3,281	228,326	116,588
238,742	3,411	227,873	116,444
239,757	3,283	227,798	116,299
240,772	3,133	227,518	116,032
241,786	3,303	227,590	116,187
242,801	3,415	227,508	116,220
243,815	3,787	227,425	116,449
244,830	3,975	227,269	116,501
245,844	3,657	227,007	116,115
246,859	3,403	226,904	115,861
247,874	3,603	226,785	115,941
248,888	3,466	226,565	115,714
249,903	3,632	226,472	115,782
250,917	3,290	226,368	115,460
251,932	3,398	226,116	115,403
252,947	3,291	225,946	115,225
253,961	3,304	225,818	115,159
254,976	3,296	225,594	115,029
255,990	3,524	225,592	115,189
257,005	3,453	225,465	115,060
258,020	3,420	225,439	115,012
259,034	3,718	225,181	115,094
260,049	3,749	225,205	115,119
261,063	3,436	224,977	114,758
262,078	3,646	224,790	114,810
263,093	3,845	224,647	114,875
264,107	3,741	224,492	114,708
265,122	3,654	224,420	114,596
266,136	3,804	224,323	114,648
267,151	3,935	224,117	114,630
268,166	3,523	223,927	114,216
269,180	3,192	223,663	113,825
270,195	3,257	223,442	113,751
271,209	3,325	223,327	113,732
272,224	3,363	223,283	113,728
273,239	3,602	223,002	113,752
274,253	3,354	222,960	113,536
275,268	2,988	222,776	113,161
276,282	3,177	222,493	113,148
277,297	3,031	222,397	112,980
278,312	3,145	222,317	113,014
279,326	3,439	222,253	113,189
280,341	3,411	222,074	113,067
281,355	3,371	222,005	112,992
282,370	3,471	221,760	112,931
283,384	2,973	221,553	112,449
284,399	3,159	221,481	112,539
285,414	3,215	221,374	112,516
286,428	3,331	221,255	112,531
287,443	3,480	221,189	112,596
288,457	3,433	220,950	112,431
289,472	3,337	220,764	112,255
290,487	3,155	220,459	111,957
291,501	2,807	220,401	111,663
292,516	2,966	220,438	111,788
293,530	3,086	220,202	111,746
294,545	2,866	220,119	111,533
295,560	3,360	219,779	111,711
296,574	3,359	219,842	111,732
297,589	3,276	219,734	111,608
298,603	3,540	219,583	111,713
299,618	3,392	219,401	111,503
300,633	3,383	219,339	111,454
301,647	3,505	219,220	111,473
302,662	3,747	219,099	111,577
303,676	3,591	218,869	111,337
304,691	3,734	218,854	111,423
305,706	3,721	218,653	111,302
306,720	3,624	218,448	111,118
307,735	3,229	218,381	110,787
308,749	3,458	218,140	110,821
309,764	3,422	218,068	110,748
310,779	3,748	217,902	110,889
311,793	3,521	217,794	110,661
312,808	3,415	217,666	110,509
313,822	3,653	217,393	110,532
314,837	3,401	217,247	110,267
315,852	2,975	217,093	109,872
316,866	3,342	217,016	110,088
317,881	3,543	216,961	110,194
318,895	3,514	216,772	110,068
319,910	3,315	216,415	109,734
320,925	2,954	216,480	109,498
321,939	3,362	216,352	109,716
322,954	3,186	216,284	109,546
323,968	3,487	216,065	109,641
324,983	3,436	216,080	109,602
325,997	3,553	215,717	109,492
327,012	3,703	215,578	109,518
328,027	3,562	215,518	109,377
329,041	3,726	215,550	109,501
330,056	3,811	215,508	109,530
331,070	3,580	215,113	109,155
332,085	3,297	214,893	108,833
333,100	3,044	214,781	108,586
334,114	3,369	214,780	108,807
335,129	3,601	214,545	108,843
336,143	3,557	214,372	108,715
337,158	3,439	214,442	108,657
338,173	3,261	214,240	108,418
339,187	3,312	214,037	108,342
340,202	3,124	213,658	108,008
341,216	3,066	213,601	107,928
342,231	3,112	213,679	107,991
343,246	3,027	213,542	107,852
344,260	3,128	213,356	107,820
345,275	3,079	213,325	107,760
346,289	3,543	213,179	108,003
347,304	3,600	213,022	107,954
348,319	3,231	212,929	107,638
349,333	3,313	212,774	107,608
350,348	3,248	212,786	107,558
351,362	3,762	212,540	107,785
352,377	3,550	212,383	107,547
353,392	3,252	212,223	107,248
354,406	3,610	211,983	107,367
355,421	195,728	1342,528	1423,705
356,435	156,364	1480,258	1423,705
