DTS Sentinel unit serial number:	SN410029Multiplexer serial number:	ORYXHardware model number:	OX2-SRSoftware version number:	ORYX F/W v4,00 Oryx Data Collector v3.7.2.0data status	okinstallation	B6 Nyhavnadifferential loss correction	single-endedforward channel	channel 2reverse channel	N/Adate	2023/12/09time	16:05:08forward acquisition time	300,00reverse acquisition time	0,00gamma	499,1914k internal	0,3133k external	0,3133temperature offset calibration	1,0000default loss term (dB/km)	0,3820temperature slope calibration	1,0000multiplexer offset coefficient	1,0000multiplexer slope coefficient	1,0000fibre end	0,00T internal ref (°C)	20,81T ext. ref 1 (°C)	4,68T ext. ref 2 (°C)	4,67length (m)	temperature (°C)	Stokes	anti-Stokes-744,400	-121,561	0,049	0,006
-743,385	800,000	-0,037	-0,087
-742,371	181,774	0,137	0,150
-741,356	220,710	-0,174	0,208
-740,342	775,740	-0,013	0,027
-739,327	-70,107	-0,113	0,032
-738,312	16,022	0,160	-0,094
-737,298	143,470	-0,227	-0,225
-736,283	-200,000	-0,008	-0,163
-735,269	404,200	-0,033	0,051
-734,254	800,000	0,030	0,079
-733,239	-191,171	-0,343	0,003
-732,225	-62,923	0,153	0,047
-731,210	-200,000	0,002	-0,007
-730,196	131,117	0,074	0,070
-729,181	62,092	-0,152	-0,113
-728,167	-110,618	-0,098	-0,015
-727,152	-68,912	0,075	-0,021
-726,137	800,000	0,035	-0,101
-725,123	800,000	-0,040	-0,115
-724,108	800,000	-0,030	-0,074
-723,094	-84,477	-0,089	-0,021
-722,079	-40,256	-0,057	-0,022
-721,064	-186,849	0,025	-0,000
-720,050	-200,000	0,033	-0,128
-719,035	0,212	-0,087	-0,046
-718,021	800,000	0,014	-0,034
-717,006	121,117	-0,134	-0,124
-715,991	24,552	-0,103	-0,063
-714,977	-38,535	0,078	0,030
-713,962	33,777	-0,078	0,050
-712,948	127,216	-0,100	0,095
-711,933	214,898	0,094	-0,110
-710,918	800,000	0,037	0,098
-709,904	-28,813	-0,139	0,059
-708,889	-200,000	-0,024	-0,118
-707,875	250,280	-0,055	-0,070
-706,860	-39,725	0,056	-0,022
-705,845	-200,000	-0,020	-0,119
-704,831	13,136	0,060	-0,034
-703,816	-166,557	0,046	0,001
-702,802	788,193	0,043	-0,088
-701,787	-52,274	-0,082	0,028
-700,772	-153,184	0,140	-0,007
-699,758	415,422	-0,034	0,054
-698,743	-188,067	-0,147	0,001
-697,729	334,405	0,072	0,103
-696,714	-0,875	-0,094	-0,049
-695,699	260,636	0,056	-0,072
-694,685	-200,000	-0,022	-0,088
-693,670	318,991	-0,053	-0,075
-692,656	-73,059	0,012	0,003
-691,641	-50,365	0,090	-0,031
-690,627	283,612	-0,120	-0,161
-689,612	390,401	-0,051	-0,079
-688,597	-200,000	0,003	-0,147
-687,583	-89,422	-0,110	0,024
-686,568	-47,727	0,072	0,026
-685,554	-11,459	-0,087	-0,042
-684,539	-200,000	0,015	-0,078
-683,524	-61,407	-0,018	0,006
-682,510	-72,081	-0,161	-0,044
-681,495	800,000	-0,051	-0,164
-680,481	-62,857	-0,041	0,013
-679,466	-85,054	-0,074	0,017
-678,451	-200,000	0,041	0,143
-677,437	-200,000	0,022	0,085
-676,422	-124,124	0,108	-0,012
-675,408	-98,996	0,021	0,004
-674,393	9,976	-0,080	-0,045
-673,378	-80,813	-0,146	0,036
-672,364	19,048	-0,078	-0,046
-671,349	-200,000	0,011	-0,052
-670,335	800,000	0,026	-0,056
-669,320	-14,453	0,111	-0,053
-668,305	282,686	-0,035	0,047
-667,291	-150,498	-0,106	0,006
-666,276	800,000	-0,020	0,064
-665,262	109,952	-0,053	-0,047
-664,247	517,442	-0,047	-0,082
-663,232	24,715	-0,105	0,064
-662,218	-200,000	-0,019	-0,103
-661,203	393,604	-0,033	0,052
-660,189	800,000	0,015	0,034
-659,174	800,000	0,080	-0,180
-658,159	-100,022	-0,015	-0,003
-657,145	-31,753	-0,100	0,041
-656,130	-200,000	0,018	-0,063
-655,116	134,678	0,102	-0,098
-654,101	-20,618	-0,124	-0,056
-653,086	-81,009	-0,087	0,021
-652,072	668,859	-0,123	-0,237
-651,057	456,671	0,019	-0,031
-650,043	-44,758	-0,062	0,023
-649,028	36,741	0,041	0,027
-648,014	241,281	0,076	-0,094
-646,999	145,568	0,161	-0,159
-645,984	200,150	0,006	0,006
-644,970	-99,800	-0,073	0,013
-643,955	65,360	-0,088	-0,066
-642,941	-200,000	-0,037	-0,143
-641,926	573,287	-0,027	-0,049
-640,911	358,672	0,023	-0,034
-639,897	-58,229	-0,041	0,013
-638,882	-115,072	0,096	-0,013
-637,868	-81,887	-0,045	0,011
-636,853	401,333	-0,050	-0,079
-635,838	112,365	0,055	0,050
-634,824	512,060	-0,040	0,069
-633,809	-108,651	-0,058	0,009
-632,795	293,417	0,045	0,061
-631,780	-200,000	0,011	0,054
-630,765	126,215	0,085	0,080
-629,751	-200,000	0,021	0,119
-628,736	52,679	-0,114	-0,081
-627,722	-96,356	0,060	-0,012
-626,707	-188,664	0,085	0,001
-625,692	-4,052	-0,013	0,007
-624,678	404,534	-0,015	0,024
-623,663	-79,144	-0,141	-0,035
-622,649	-68,067	-0,065	-0,019
-621,634	397,836	0,005	0,008
-620,619	141,179	0,048	-0,047
-619,605	-200,000	-0,022	0,146
-618,590	800,000	-0,025	0,058
-617,576	-84,431	0,092	-0,021
-616,561	-30,296	-0,051	-0,021
-615,546	-200,000	-0,020	-0,077
-614,532	800,000	0,027	-0,060
-613,517	2,335	-0,028	-0,015
-612,503	791,635	0,021	-0,042
-611,488	-200,000	0,017	0,116
-610,474	193,955	0,111	-0,125
-609,459	401,795	-0,078	0,121
-608,444	-71,037	0,046	0,013
-607,430	800,000	-0,036	-0,077
-606,415	-200,000	0,003	-0,095
-605,401	32,800	0,116	-0,074
-604,386	-180,958	0,260	0,004
-603,371	541,186	-0,074	0,131
-602,357	-200,000	-0,040	0,162
-601,342	-116,731	-0,089	0,012
-600,328	589,447	-0,050	-0,091
-599,313	220,410	0,040	-0,047
-598,298	572,502	-0,038	0,069
-597,284	-34,236	-0,077	-0,031
-596,269	-8,550	0,063	0,031
-595,255	-112,672	0,145	0,021
-594,240	-153,553	-0,157	-0,008
-593,225	-106,631	-0,128	0,021
-592,211	-56,817	0,117	-0,038
-591,196	-44,518	0,022	0,008
-590,182	-105,318	0,152	-0,025
-589,167	-84,789	-0,137	-0,031
-588,152	-8,996	0,116	0,057
-587,138	-12,833	-0,044	-0,021
-586,123	254,448	-0,053	-0,067
-585,109	156,421	-0,086	0,087
-584,094	-85,695	-0,087	-0,020
-583,079	76,200	0,142	-0,111
-582,065	-2,594	-0,164	-0,085
-581,050	-2,219	0,039	0,020
-580,036	800,000	-0,019	0,042
-579,021	-175,528	0,064	0,001
-578,006	-200,000	0,008	-0,035
-576,992	-76,992	-0,123	-0,032
-575,977	-200,000	-0,039	0,152
-574,963	800,000	0,022	0,062
-573,948	164,942	0,032	0,033
-572,934	800,000	-0,014	0,031
-571,919	88,884	-0,111	-0,091
-570,904	171,614	0,007	-0,007
-569,890	-23,034	-0,035	0,015
-568,875	-138,908	0,099	0,008
-567,861	69,239	0,041	-0,031
-566,846	-200,000	-0,013	0,066
-565,831	600,729	0,030	0,055
-564,817	-200,000	0,014	-0,123
-563,802	-200,000	-0,030	-0,141
-562,788	-74,284	-0,060	-0,016
-561,773	96,519	-0,068	-0,058
-560,758	-84,110	-0,100	-0,023
-559,744	800,000	0,011	-0,026
-558,729	800,000	0,014	-0,042
-557,715	227,153	-0,103	-0,124
-556,700	800,000	-0,042	-0,108
-555,685	-200,000	0,028	-0,105
-554,671	302,474	0,015	-0,020
-553,656	602,689	-0,012	-0,023
-552,642	-200,000	-0,008	-0,088
-551,627	-34,968	-0,036	0,014
-550,612	-155,080	-0,080	-0,004
-549,598	800,000	-0,048	-0,110
-548,583	543,952	-0,066	-0,116
-547,569	-81,471	-0,087	0,021
-546,554	-55,623	0,078	-0,026
-545,539	398,895	0,049	0,076
-544,525	-200,000	0,025	0,129
-543,510	123,922	-0,077	-0,071
-542,496	30,685	-0,132	-0,083
-541,481	19,931	-0,062	0,037
-540,466	-200,000	0,008	0,097
-539,452	277,676	0,023	0,030
-538,437	-200,000	-0,004	0,227
-537,423	-72,937	-0,063	-0,017
-536,408	697,951	-0,032	0,062
-535,393	-200,000	-0,039	-0,153
-534,379	295,226	0,029	0,039
-533,364	-41,862	-0,070	-0,026
-532,350	-6,435	0,024	-0,012
-531,335	-200,000	0,012	0,056
-530,321	433,441	-0,085	-0,137
-529,306	-155,461	0,083	0,004
-528,291	-24,616	-0,047	0,021
-527,277	-111,179	-0,076	0,011
-526,262	-200,000	0,003	-0,025
-525,248	271,682	0,016	0,021
-524,233	-2,463	-0,030	-0,015
-523,218	205,460	0,026	-0,029
-522,204	-13,038	-0,072	0,035
-521,189	-200,000	0,001	0,125
-520,175	254,768	-0,108	-0,137
-519,160	398,363	-0,066	-0,102
-518,145	800,000	0,036	0,084
-517,131	-200,000	-0,014	0,137
-516,116	-95,749	0,097	0,019
-515,102	-200,000	0,005	-0,031
-514,087	-79,016	-0,041	-0,010
-513,072	365,254	-0,039	0,058
-512,058	-44,683	0,090	-0,033
-511,043	-3,103	0,106	0,054
-510,029	73,302	-0,069	0,053
-509,014	-200,000	0,006	0,048
-507,999	-83,082	-0,111	0,026
-506,985	482,309	-0,026	-0,043
-505,970	-86,228	0,013	0,003
-504,956	-64,122	-0,089	-0,027
-503,941	800,000	0,020	-0,048
-502,926	-61,224	0,143	0,044
-501,912	396,783	-0,076	0,117
-500,897	379,283	0,078	-0,118
-499,883	-73,698	0,081	0,022
-498,868	222,437	-0,041	-0,049
-497,853	44,845	-0,082	-0,055
-496,839	94,431	-0,074	0,062
-495,824	82,868	0,044	-0,035
-494,810	59,711	-0,064	0,047
-493,795	-25,420	0,101	0,044
-492,781	314,066	-0,073	0,102
-491,766	585,967	0,042	-0,076
-490,751	-200,000	0,007	-0,084
-489,737	289,162	0,153	-0,205
-488,722	26,143	-0,027	-0,017
-487,708	282,956	-0,021	0,028
-486,693	247,578	0,012	-0,015
-485,678	390,330	-0,014	-0,021
-484,664	-77,755	-0,049	0,012
-483,649	800,000	0,035	0,097
-482,635	56,704	0,152	0,109
-481,620	-106,513	-0,058	0,009
-480,605	-169,509	0,094	-0,002
-479,591	404,839	-0,043	0,067
-478,576	-200,000	-0,004	0,089
-477,562	-42,386	-0,008	-0,003
-476,547	-95,783	-0,127	0,025
-475,532	196,758	0,049	-0,055
-474,518	-74,226	0,042	0,011
-473,503	29,653	0,147	0,092
-472,489	170,811	0,120	0,126
-471,474	83,707	0,075	-0,060
-470,459	-200,000	0,003	0,056
-469,445	-200,000	0,021	-0,137
-468,430	102,127	-0,029	0,025
-467,416	-200,000	-0,024	-0,086
-466,401	-158,740	0,057	0,002
-465,386	-200,000	-0,036	0,193
-464,372	-200,000	0,006	0,050
-463,357	445,996	-0,047	-0,076
-462,343	153,808	-0,111	-0,112
-461,328	-67,853	-0,059	-0,017
-460,313	27,698	-0,031	-0,019
-459,299	304,754	-0,069	0,094
-458,284	357,627	0,061	0,090
-457,270	-200,000	0,032	0,146
-456,255	138,642	0,061	-0,058
-455,241	-200,000	-0,017	-0,098
-454,226	730,904	0,076	-0,151
-453,211	511,170	0,018	0,031
-452,197	-200,000	0,001	-0,019
-451,182	14,560	-0,059	-0,034
-450,168	102,790	0,073	-0,063
-449,153	-200,000	0,020	0,185
-448,138	18,110	-0,055	-0,032
-447,124	-116,639	0,070	-0,009
-446,109	800,000	-0,019	-0,040
-445,095	24,653	0,122	0,074
-444,080	800,000	-0,048	0,108
-443,065	105,786	0,075	0,066
-442,051	145,105	0,092	0,090
-441,036	800,000	-0,035	-0,083
-440,022	-200,000	-0,004	0,057
-439,007	-200,000	0,002	0,095
-437,992	-0,237	0,080	-0,042
-436,978	-200,000	0,002	0,020
-435,963	18,078	0,070	-0,041
-434,949	-68,803	0,060	-0,017
-433,934	289,218	-0,081	-0,109
-432,919	-6,747	0,050	0,025
-431,905	-126,555	0,077	-0,008
-430,890	-51,760	0,057	0,019
-429,876	231,392	0,100	0,120
-428,861	-114,439	0,055	-0,008
-427,846	-4,105	-0,066	-0,033
-426,832	800,000	-0,038	0,097
-425,817	597,205	0,021	-0,038
-424,803	800,000	0,030	-0,089
-423,788	800,000	-0,036	-0,104
-422,773	-200,000	0,009	0,053
-421,759	72,138	0,010	-0,007
-420,744	-2,805	-0,051	0,026
-419,730	800,000	-0,022	-0,061
-418,715	408,485	-0,064	-0,100
-417,701	-137,018	-0,063	-0,005
-416,686	-133,864	0,066	0,006
-415,671	67,379	0,014	0,010
-414,657	43,494	0,187	0,125
-413,642	26,901	-0,090	0,056
-412,628	23,408	0,151	0,091
-411,613	34,456	-0,109	-0,070
-410,598	800,000	-0,005	0,013
-409,584	40,422	0,090	-0,060
-408,569	-200,000	0,003	0,119
-407,555	-200,000	0,000	-0,102
-406,540	443,631	0,076	0,123
-405,525	-200,000	0,020	0,079
-404,511	-94,984	-0,086	-0,017
-403,496	-21,805	-0,056	0,025
-402,482	104,459	0,066	-0,057
-401,467	-137,147	0,056	-0,005
-400,452	-191,846	0,118	0,001
-399,438	800,000	0,024	0,052
-398,423	160,359	0,083	-0,084
-397,409	-69,493	-0,079	-0,022
-396,394	66,379	0,062	0,046
-395,379	-31,386	-0,101	-0,042
-394,365	240,963	-0,096	0,117
-393,350	-200,000	0,020	0,085
-392,336	196,437	0,035	0,039
-391,321	523,644	-0,039	-0,068
-390,306	-200,000	0,005	0,063
-389,292	-200,000	0,029	-0,110
-388,277	-200,000	-0,002	-0,136
-387,263	800,000	0,035	0,082
-386,248	-144,492	0,049	-0,003
-385,233	-140,927	-0,015	-0,001
-384,219	586,235	-0,041	-0,075
-383,204	257,233	0,066	-0,083
-382,190	-150,800	0,062	-0,003
-381,175	-23,788	-0,022	-0,010
-380,160	49,949	-0,152	-0,105
-379,146	-200,000	-0,002	0,034
-378,131	110,234	0,043	-0,038
-377,117	-200,000	-0,002	-0,009
-376,102	-53,372	-0,043	-0,015
-375,088	324,534	-0,111	0,156
-374,073	363,969	-0,059	0,087
-373,058	1,589	0,113	-0,059
-372,044	-80,023	0,114	0,028
-371,029	800,000	-0,017	0,044
-370,015	-200,000	-0,001	-0,020
-369,000	150,703	-0,068	0,068
-367,985	706,000	-0,033	-0,065
-366,971	-41,930	0,111	0,041
-365,956	-200,000	0,013	-0,070
-364,942	-200,000	-0,010	-0,046
-363,927	23,760	0,033	-0,020
-362,912	-200,000	-0,009	0,040
-361,898	-200,000	-0,018	-0,066
-360,883	800,000	-0,015	0,041
-359,869	-115,017	-0,053	-0,007
-358,854	460,898	0,036	-0,058
-357,839	16,594	0,078	0,045
-356,825	-85,533	0,059	-0,013
-355,810	-25,284	0,052	-0,023
-354,796	332,182	0,097	-0,137
-353,781	-74,374	0,077	0,020
-352,766	355,041	-0,028	0,041
-351,752	-165,770	0,019	-0,001
-350,737	-93,865	0,124	0,025
-349,723	483,768	0,060	0,100
-348,708	667,684	-0,048	0,091
-347,693	626,380	-0,053	0,097
-346,679	800,000	0,011	-0,029
-345,664	115,499	-0,072	-0,064
-344,650	-34,024	-0,105	-0,042
-343,635	-200,000	0,010	-0,037
-342,620	618,638	0,108	0,200
-341,606	-200,000	-0,014	0,132
-340,591	151,826	0,070	-0,070
-339,577	-38,594	-0,114	-0,044
-338,562	800,000	0,022	0,052
-337,548	15,209	-0,128	-0,073
-336,533	-109,810	0,102	0,016
-335,518	-200,000	0,028	-0,119
-334,504	-200,000	0,007	0,095
-333,489	469,151	-0,035	-0,058
-332,475	486,795	0,024	-0,041
-331,460	-200,000	-0,005	0,038
-330,445	-200,000	0,002	-0,033
-329,431	271,214	0,036	-0,046
-328,416	800,000	-0,044	0,107
-327,402	-200,000	-0,004	0,026
-326,387	383,903	0,052	-0,079
-325,372	-149,209	0,104	0,006
-324,358	-200,000	-0,004	-0,022
-323,343	-200,000	0,014	0,106
-322,329	408,082	0,058	0,090
-321,314	-200,000	-0,039	0,230
-320,299	800,000	0,047	0,118
-319,285	-170,721	0,117	0,003
-318,270	800,000	-0,039	-0,081
-317,256	-127,418	-0,071	-0,007
-316,241	-141,373	0,035	-0,003
-315,226	-54,597	0,128	0,042
-314,212	-200,000	0,039	0,145
-313,197	-81,600	0,023	0,005
-312,183	-186,336	0,042	-0,000
-311,168	-127,689	-0,103	-0,011
-310,153	800,000	-0,024	-0,063
-309,139	-38,854	-0,050	0,019
-308,124	27,987	-0,069	0,042
-307,110	-71,404	0,103	-0,028
-306,095	23,175	-0,066	0,040
-305,080	-200,000	0,015	0,062
-304,066	-63,394	-0,043	0,013
-303,051	-200,000	0,005	-0,073
-302,037	800,000	0,057	-0,137
-301,022	-200,000	0,026	-0,092
-300,008	222,545	-0,039	0,046
-298,993	77,213	-0,054	-0,042
-297,978	-31,023	-0,083	0,034
-296,964	101,327	0,064	-0,055
-295,949	0,912	-0,150	-0,078
-294,935	-147,015	-0,087	0,005
-293,920	-40,949	0,106	0,040
-292,905	-99,331	-0,058	0,011
-291,891	410,774	-0,033	-0,052
-290,876	-148,135	-0,012	0,001
-289,862	-200,000	0,016	-0,060
-288,847	800,000	0,020	-0,061
-287,832	519,143	-0,016	-0,027
-286,818	-200,000	-0,038	-0,126
-285,803	215,498	-0,068	-0,078
-284,789	-200,000	-0,003	0,021
-283,774	-200,000	-0,016	0,075
-282,759	280,656	-0,087	-0,114
-281,745	-0,323	0,065	0,034
-280,730	-1,015	-0,111	-0,057
-279,716	284,037	0,050	-0,065
-278,701	-93,217	-0,108	-0,022
-277,686	14,685	0,184	-0,105
-276,672	-200,000	-0,004	-0,053
-275,657	-200,000	0,019	0,195
-274,643	597,791	-0,052	-0,095
-273,628	530,107	-0,064	0,111
-272,613	-108,504	0,130	0,020
-271,599	636,714	-0,047	0,087
-270,584	573,707	-0,014	-0,025
-269,570	204,933	-0,034	-0,039
-268,555	800,000	0,061	-0,195
-267,540	800,000	-0,058	-0,151
-266,526	800,000	0,016	-0,042
-265,511	395,816	0,022	-0,033
-264,497	-200,000	0,001	0,041
-263,482	-117,589	-0,091	0,012
-262,467	-200,000	-0,003	-0,053
-261,453	-200,000	0,002	0,074
-260,438	-196,905	-0,132	0,001
-259,424	-200,000	-0,008	0,052
-258,409	-200,000	-0,011	0,076
-257,395	800,000	0,040	-0,091
-256,380	-73,947	0,100	-0,026
-255,365	147,763	0,061	-0,060
-254,351	800,000	0,026	-0,079
-253,336	800,000	0,034	0,099
-252,322	400,639	-0,021	0,032
-251,307	-200,000	-0,013	-0,128
-250,292	-200,000	0,004	-0,079
-249,278	-126,873	0,081	0,009
-248,263	73,894	0,107	0,082
-247,249	-200,000	0,016	-0,095
-246,234	-200,000	0,003	-0,043
-245,219	-200,000	-0,117	0,000
-244,205	30,907	0,043	-0,027
-243,190	-118,732	-0,183	-0,023
-242,176	-13,575	0,116	-0,054
-241,161	-200,000	0,002	0,089
-240,146	800,000	-0,029	0,070
-239,132	-32,803	-0,047	0,019
-238,117	-200,000	-0,007	-0,076
-237,103	-32,903	0,018	0,007
-236,088	-55,597	0,128	-0,042
-235,073	318,826	-0,021	0,029
-234,059	-200,000	-0,036	0,148
-233,044	-200,000	-0,008	0,114
-232,030	-11,843	-0,053	0,025
-231,015	800,000	-0,041	-0,115
-230,000	421,960	-0,016	-0,026
-228,986	-200,000	0,024	0,147
-227,971	800,000	-0,039	0,104
-226,957	31,322	0,100	0,062
-225,942	-111,308	0,076	0,011
-224,927	261,786	0,033	-0,042
-223,913	123,437	-0,071	0,065
-222,898	-200,000	0,005	0,023
-221,884	-200,000	-0,001	-0,187
-220,869	-200,000	0,001	-0,020
-219,855	322,732	-0,008	-0,012
-218,840	115,711	-0,046	0,041
-217,825	-200,000	0,004	0,042
-216,811	294,419	0,087	-0,116
-215,796	-34,332	0,025	-0,010
-214,782	28,148	0,039	0,024
-213,767	-33,327	-0,036	-0,015
-212,752	-200,000	-0,008	0,049
-211,738	4,243	0,098	-0,052
-210,723	605,400	0,041	0,075
-209,709	-158,307	0,055	-0,002
-208,694	87,366	-0,067	-0,054
-207,679	-3,522	0,028	-0,014
-206,665	800,000	0,046	-0,121
-205,650	800,000	-0,011	0,028
-204,636	-200,000	-0,029	0,108
-203,621	800,000	0,047	0,106
-202,606	-200,000	0,009	0,042
-201,592	1,915	-0,083	0,043
-200,577	-139,592	-0,206	-0,016
-199,563	-64,546	-0,060	0,018
-198,548	131,044	0,084	0,079
-197,533	800,000	-0,033	0,077
-196,519	-200,000	0,014	-0,046
-195,504	-56,915	-0,093	-0,030
-194,490	-33,264	-0,068	-0,027
-193,475	-200,000	0,010	-0,106
-192,460	-4,507	0,039	-0,020
-191,446	108,472	0,066	-0,058
-190,431	-200,000	0,038	0,148
-189,417	-200,000	-0,003	0,064
-188,402	91,307	-0,046	0,038
-187,387	135,468	-0,057	-0,054
-186,373	97,429	-0,072	-0,060
-185,358	-152,488	-0,086	0,004
-184,344	-85,244	-0,123	0,028
-183,329	-149,164	-0,139	0,008
-182,315	-200,000	0,002	0,049
-181,300	-53,824	0,092	0,030
-180,285	324,219	0,057	-0,079
-179,271	-200,000	0,015	-0,104
-178,256	800,000	0,015	0,045
-177,242	65,344	0,053	-0,039
-176,227	-200,000	0,007	0,050
-175,212	-123,693	-0,054	-0,006
-174,198	-89,768	-0,058	-0,012
-173,183	-200,000	0,005	0,070
-172,169	-183,035	-0,017	0,000
-171,154	-200,000	-0,021	0,076
-170,139	-140,595	0,095	0,007
-169,125	-200,000	0,001	-0,041
-168,110	204,798	0,029	-0,033
-167,096	425,478	0,046	0,071
-166,081	193,419	-0,050	0,055
-165,066	-44,135	-0,178	-0,065
-164,052	-121,993	0,169	-0,020
-163,037	-58,508	-0,048	-0,015
-162,023	-200,000	-0,008	0,202
-161,008	-200,000	0,016	0,114
-159,993	-27,808	-0,141	-0,059
-158,979	-33,896	0,102	-0,040
-157,964	800,000	-0,051	-0,126
-156,950	800,000	0,047	0,126
-155,935	-200,000	-0,003	0,110
-154,920	364,412	0,060	-0,088
-153,906	800,000	0,005	-0,010
-152,891	-97,345	-0,073	0,014
-151,877	-200,000	-0,003	0,069
-150,862	-200,000	0,010	-0,075
-149,847	800,000	0,053	-0,123
-148,833	1,693	0,116	0,060
-147,818	10,549	0,028	0,015
-146,804	800,000	0,038	0,121
-145,789	-34,754	-0,018	-0,007
-144,775	178,001	0,072	-0,076
-143,760	34,238	-0,095	0,060
-142,745	-200,000	-0,026	-0,162
-141,731	-200,000	0,008	-0,035
-140,716	16,589	0,057	0,032
-139,702	707,007	-0,005	0,009
-138,687	-131,741	0,123	-0,012
-137,672	-53,967	-0,066	-0,022
-136,658	146,386	0,030	-0,030
-135,643	80,315	0,041	-0,032
-134,629	184,929	-0,074	0,080
-133,614	3,636	-0,055	0,029
-132,599	800,000	-0,047	-0,134
-131,585	44,229	-0,004	0,002
-130,570	800,000	0,031	0,064
-129,556	171,819	0,086	-0,090
-128,541	-200,000	0,045	-0,198
-127,526	100,879	0,067	-0,057
-126,512	-200,000	-0,015	0,055
-125,497	233,637	-0,037	0,044
-124,483	-61,203	0,116	-0,035
-123,468	-90,316	-0,104	0,022
-122,453	-171,147	0,110	-0,003
-121,439	-120,360	-0,058	-0,007
-120,424	-200,000	0,004	-0,050
-119,410	-10,643	-0,061	-0,029
-118,395	-156,858	-0,145	0,006
-117,380	-76,413	-0,063	0,016
-116,366	-18,746	0,108	0,049
-115,351	-200,000	0,020	-0,103
-114,337	625,626	0,042	-0,077
-113,322	39,170	0,101	0,065
-112,307	-200,000	0,029	0,137
-111,293	562,396	0,034	0,060
-110,278	168,082	-0,039	-0,040
-109,264	-200,000	-0,006	0,040
-108,249	28,369	-0,087	0,053
-107,234	-200,000	-0,017	0,072
-106,220	278,045	0,038	-0,049
-105,205	62,541	0,127	0,092
-104,191	-200,000	0,013	-0,048
-103,176	14,512	-0,073	0,041
-102,162	-200,000	-0,003	0,032
-101,147	-200,000	0,011	0,154
-100,132	504,385	-0,090	-0,152
-99,118	-97,875	0,069	0,013
-98,103	-200,000	0,013	-0,101
-97,089	86,266	0,054	-0,043
-96,074	-70,975	0,153	-0,041
-95,059	-88,997	0,083	0,018
-94,045	206,167	-0,108	0,122
-93,030	-75,897	-0,101	0,026
-92,016	59,217	0,027	-0,019
-91,001	168,518	-0,047	0,049
-89,986	-63,943	0,139	-0,041
-88,972	85,346	-0,043	-0,034
-87,957	114,856	0,068	-0,060
-86,943	800,000	-0,085	-0,258
-85,928	-200,000	-0,004	-0,071
-84,913	-200,000	-0,005	0,096
-83,899	-200,000	0,028	-0,109
-82,884	800,000	-0,027	0,056
-81,870	35,925	0,096	0,061
-80,855	-200,000	-0,007	-0,085
-79,840	100,528	0,075	-0,063
-78,826	511,993	0,034	-0,058
-77,811	29,534	-0,075	-0,046
-76,797	-200,000	-0,004	-0,170
-75,782	-43,974	0,143	-0,052
-74,767	276,100	0,073	0,094
-73,753	-200,000	0,002	0,134
-72,738	202,868	0,069	-0,077
-71,724	-200,000	-0,009	-0,138
-70,709	-84,544	-0,033	0,007
-69,694	-200,000	-0,004	0,050
-68,680	-8,520	0,120	0,058
-67,665	-200,000	0,013	-0,053
-66,651	800,000	0,042	-0,117
-65,636	-9,932	0,053	0,026
-64,622	24,591	-0,149	0,089
-63,607	-31,094	0,038	-0,015
-62,592	-200,000	0,012	-0,109
-61,578	-104,257	0,195	-0,032
-60,563	-164,848	0,048	0,002
-59,549	800,000	0,039	0,088
-58,534	-96,325	-1,372	-0,260
-57,519	800,000	-0,563	-1,369
-56,505	-200,000	-1,025	-4,514
-55,490	-164,917	0,679	-0,022
-54,476	800,000	4,939	11,807
-53,461	-200,000	14,543	260,566
-52,446	-200,000	696,475	2236,013
-51,432	565,589	1621,642	2856,098
-50,417	118,226	1629,509	1453,459
-49,403	75,488	1283,303	978,937
-48,388	37,429	1022,337	654,336
-47,373	23,099	981,728	581,319
-46,359	22,201	971,184	572,115
-45,344	21,078	966,641	565,756
-44,330	21,118	965,208	565,023
-43,315	20,886	963,783	563,411
-42,300	20,876	962,770	562,766
-41,286	20,864	961,946	562,222
-40,271	20,893	960,844	561,650
-39,257	20,868	959,918	561,007
-38,242	20,833	958,894	560,271
-37,227	20,833	958,096	559,782
-36,213	20,874	957,108	559,315
-35,198	20,784	956,298	558,531
-34,184	20,841	955,710	558,349
-33,169	20,762	954,835	557,562
-32,154	20,851	953,773	557,203
-31,140	20,834	952,919	556,629
-30,125	20,888	952,248	556,388
-29,111	20,812	951,590	555,740
-28,096	20,864	950,732	555,380
-27,082	20,828	950,080	554,864
-26,067	20,883	949,231	554,521
-25,052	20,855	948,501	553,984
-24,038	20,874	947,982	553,720
-23,023	20,780	947,269	552,980
-22,009	20,855	946,636	552,829
-20,994	20,886	945,952	552,506
-19,979	20,817	945,422	551,955
-18,965	20,793	944,981	551,597
-17,950	20,854	944,222	551,328
-16,936	20,831	943,458	550,786
-15,921	20,803	942,689	550,227
-14,906	20,751	941,986	549,631
-13,892	20,762	941,368	549,283
-12,877	20,714	940,693	548,715
-11,863	20,726	940,233	548,463
-10,848	20,723	939,743	548,144
-9,833	20,822	939,347	548,206
-8,819	20,801	938,647	547,709
-7,804	20,736	938,086	547,156
-6,790	20,684	937,366	546,550
-5,775	20,741	936,751	546,347
-4,760	20,731	936,249	546,001
-3,746	20,716	935,599	545,555
-2,731	20,595	934,969	544,783
-1,717	20,529	934,253	544,138
-0,702	20,592	933,412	543,825
0,313	20,402	932,791	543,687
1,327	23,447	931,062	552,185
2,342	32,803	793,679	495,523
3,356	30,282	450,950	277,730
4,371	0,135	295,693	151,872
5,386	-4,223	276,737	137,979
6,400	-5,587	271,128	133,897
7,415	-5,814	268,741	132,496
8,429	-5,640	267,494	132,030
9,444	-5,601	266,535	131,580
10,459	-5,621	265,929	131,252
11,473	-5,515	265,249	131,001
12,488	-5,747	264,965	130,637
13,502	-6,057	264,399	130,064
14,517	-5,928	263,989	129,968
15,531	-5,908	263,491	129,730
16,546	-5,949	263,138	129,507
17,561	-5,966	262,788	129,308
18,575	-6,123	262,629	129,077
19,590	-6,200	262,127	128,749
20,604	-5,967	261,688	128,732
21,619	-5,944	261,470	128,634
22,634	-5,912	261,100	128,469
23,648	-6,083	260,950	128,230
24,663	-6,007	260,565	128,097
25,677	-6,136	260,312	127,846
26,692	-5,993	260,043	127,831
27,707	-6,165	259,923	127,607
28,721	-6,052	259,435	127,456
29,736	-6,075	259,355	127,385
30,750	-6,227	259,000	127,064
31,765	-6,202	258,738	126,947
32,780	-6,256	258,601	126,820
33,794	-6,150	258,307	126,759
34,809	-6,008	258,051	126,747
35,823	-5,881	257,707	126,679
36,838	-6,204	257,608	126,334
37,853	-6,274	257,448	126,182
38,867	-6,222	257,113	126,053
39,882	-6,095	256,957	126,078
40,896	-5,943	256,715	126,081
41,911	-6,277	256,506	125,673
42,926	-6,267	256,232	125,536
43,940	-6,038	255,832	125,530
44,955	-6,395	255,757	125,169
45,969	-6,387	255,454	125,016
46,984	-6,441	255,168	124,818
47,999	-6,732	254,898	124,420
49,013	-6,856	254,809	124,257
50,028	-6,848	254,389	124,049
51,042	-6,917	254,103	123,838
52,057	-6,907	253,934	123,752
53,071	-6,932	253,769	123,640
54,086	-6,775	253,747	123,755
55,101	-6,760	253,429	123,602
56,115	-6,508	253,326	123,760
57,130	-5,996	253,339	124,199
58,144	-5,817	253,065	124,210
59,159	-5,997	252,942	123,982
60,174	-5,885	252,737	123,968
61,188	-6,036	252,503	123,711
62,203	-5,940	252,299	123,683
63,217	-6,030	251,895	123,396
64,232	-5,946	251,757	123,390
65,247	-5,845	251,480	123,330
66,261	-6,010	251,393	123,135
67,276	-6,312	251,113	122,726
68,290	-6,493	250,736	122,376
69,305	-6,649	250,587	122,158
70,320	-6,452	250,421	122,236
71,334	-6,252	250,349	122,361
72,349	-5,957	250,125	122,493
73,363	-5,866	250,012	122,505
74,378	-5,926	249,791	122,334
75,393	-5,985	249,621	122,190
76,407	-6,113	249,340	121,932
77,422	-6,095	249,016	121,778
78,436	-6,124	249,058	121,763
79,451	-5,891	248,653	121,752
80,466	-6,091	248,402	121,449
81,480	-6,445	248,440	121,155
82,495	-6,288	248,014	121,070
83,509	-6,288	247,886	120,996
84,524	-6,344	247,752	120,873
85,539	-6,491	247,517	120,623
86,553	-6,357	247,116	120,531
87,568	-6,254	247,175	120,636
88,582	-6,097	246,810	120,579
89,597	-6,207	246,640	120,393
90,611	-6,174	246,695	120,437
91,626	-6,004	246,306	120,379
92,641	-6,072	246,122	120,221
93,655	-6,132	246,103	120,151
94,670	-6,111	245,835	120,027
95,684	-6,336	245,705	119,763
96,699	-6,283	245,390	119,644
97,714	-6,345	245,499	119,634
98,728	-6,533	245,058	119,252
99,743	-6,501	244,807	119,146
100,757	-6,512	244,712	119,079
101,772	-6,337	244,448	119,086
102,787	-6,381	244,404	119,017
103,801	-6,375	244,233	118,929
104,816	-6,092	244,014	119,047
105,830	-5,955	243,979	119,134
106,845	-6,129	243,839	118,910
107,860	-5,960	243,472	118,861
108,874	-6,022	243,359	118,743
109,889	-6,165	242,955	118,417
110,903	-6,288	242,937	118,295
111,918	-5,917	242,543	118,401
112,933	-6,086	242,468	118,213
113,947	-6,106	242,305	118,107
114,962	-5,884	242,164	118,211
115,976	-6,215	242,042	117,868
116,991	-6,098	241,913	117,891
118,006	-5,943	241,696	117,902
119,020	-6,293	241,580	117,547
120,035	-6,057	241,469	117,677
121,049	-6,096	241,249	117,526
122,064	-5,850	241,170	117,681
123,079	-5,941	240,934	117,480
124,093	-6,192	240,720	117,159
125,108	-6,148	240,285	116,973
126,122	-6,532	240,007	116,513
127,137	-6,451	239,967	116,549
128,151	-6,478	239,776	116,425
129,166	-6,463	239,588	116,335
130,181	-6,384	239,440	116,317
131,195	-6,397	239,244	116,201
132,210	-6,290	239,255	116,283
133,224	-6,134	239,221	116,383
134,239	-6,102	238,973	116,279
135,254	-6,019	238,757	116,230
136,268	-6,223	238,501	115,930
137,283	-6,473	238,262	115,600
138,297	-6,661	238,047	115,333
139,312	-6,482	237,865	115,379
140,327	-6,282	237,814	115,507
141,341	-5,788	237,795	115,887
142,356	-5,744	237,661	115,847
143,370	-5,915	237,459	115,600
144,385	-5,655	237,317	115,731
145,400	-5,616	236,970	115,582
146,414	-5,840	237,057	115,434
147,429	-5,582	236,765	115,489
148,443	-5,637	236,638	115,373
149,458	-5,822	236,276	115,037
150,473	-5,566	236,295	115,242
151,487	-5,880	236,191	114,929
152,502	-5,742	235,896	114,886
153,516	-5,724	235,640	114,765
154,531	-5,616	235,528	114,787
155,546	-5,778	235,385	114,577
156,560	-6,002	235,267	114,330
157,575	-5,942	234,905	114,193
158,589	-5,906	234,824	114,172
159,604	-5,730	234,663	114,223
160,619	-5,543	234,624	114,343
161,633	-5,808	234,446	114,035
162,648	-5,785	234,213	113,930
163,662	-5,885	234,059	113,765
164,677	-5,943	233,926	113,645
165,692	-5,847	233,806	113,652
166,706	-5,648	233,745	113,771
167,721	-5,693	233,656	113,681
168,735	-5,706	233,361	113,518
169,750	-5,661	233,188	113,459
170,764	-5,798	233,103	113,299
171,779	-5,607	232,868	113,325
172,794	-5,705	232,821	113,215
173,808	-5,695	232,527	113,070
174,823	-6,164	232,153	112,509
175,837	-6,370	231,850	112,189
176,852	-5,946	232,005	112,588
177,867	-5,740	231,898	112,689
178,881	-5,674	231,737	112,652
179,896	-5,716	231,708	112,595
180,910	-5,623	231,405	112,511
181,925	-5,547	231,255	112,487
182,940	-5,684	231,070	112,279
183,954	-5,609	231,114	112,350
184,969	-5,631	231,016	112,275
185,983	-5,710	230,777	112,087
186,998	-5,581	230,642	112,113
188,013	-5,484	230,459	112,089
189,027	-5,594	230,361	111,946
190,042	-5,332	230,164	112,044
191,056	-5,488	229,920	111,794
192,071	-5,336	229,732	111,811
193,086	-5,575	229,585	111,544
194,100	-5,288	229,349	111,642
195,115	-5,618	229,310	111,356
196,129	-5,752	229,052	111,117
197,144	-2,757	230,034	113,915
198,159	0,929	231,277	117,400
199,173	3,580	231,842	119,747
200,188	4,031	231,660	119,994
201,202	3,989	231,492	119,864
202,217	4,062	231,535	119,932
203,232	4,239	231,360	119,969
204,246	4,388	231,303	120,044
205,261	4,399	231,044	119,908
206,275	4,530	230,994	119,972
207,290	4,574	230,812	119,902
208,304	4,578	230,802	119,889
209,319	4,506	230,557	119,695
210,334	4,489	230,332	119,554
211,348	4,250	230,195	119,287
212,363	3,933	229,921	118,890
213,377	3,651	229,656	118,524
214,392	3,799	229,542	118,570
215,407	3,918	229,329	118,541
216,421	3,956	229,253	118,520
217,436	3,689	229,048	118,198
218,450	3,553	228,774	117,942
219,465	3,580	228,518	117,820
220,480	3,609	228,480	117,812
221,494	3,351	228,445	117,586
222,509	3,847	228,319	117,890
223,523	3,706	228,145	117,682
224,538	3,378	228,106	117,400
225,553	3,521	227,869	117,377
226,567	3,732	227,598	117,388
227,582	4,006	227,596	117,587
228,596	4,025	227,684	117,636
229,611	3,923	227,289	117,343
230,626	3,641	227,083	117,012
231,640	3,639	226,850	116,880
232,655	4,045	226,787	117,146
233,669	4,268	226,781	117,302
234,684	4,401	226,705	117,353
235,699	4,024	226,542	116,972
236,713	3,897	226,326	116,753
237,728	3,697	226,077	116,463
238,742	3,761	225,868	116,393
239,757	3,809	225,624	116,293
240,772	3,512	225,585	116,038
241,786	3,749	225,381	116,102
242,801	3,936	225,287	116,185
243,815	4,221	225,117	116,302
244,830	4,154	225,144	116,255
245,844	3,851	224,938	115,909
246,859	3,855	224,770	115,816
247,874	4,104	224,564	115,886
248,888	4,291	224,499	115,984
249,903	3,960	224,397	115,671
250,917	3,646	224,130	115,288
251,932	4,050	223,950	115,488
252,947	3,704	223,800	115,141
253,961	3,453	223,867	114,976
254,976	3,690	223,383	114,896
255,990	3,967	223,389	115,096
257,005	3,871	223,384	115,011
258,020	4,004	223,179	114,995
259,034	4,330	223,194	115,235
260,049	3,857	223,012	114,778
261,063	3,876	222,820	114,683
262,078	3,939	222,619	114,617
263,093	4,163	222,685	114,807
264,107	4,063	222,535	114,645
265,122	3,994	222,289	114,457
266,136	4,366	222,140	114,646
267,151	4,237	222,053	114,495
268,166	3,949	221,690	114,084
269,180	3,443	221,509	113,606
270,195	3,573	221,413	113,643
271,209	3,495	221,236	113,484
272,224	3,704	221,265	113,644
273,239	3,870	221,057	113,649
274,253	3,874	220,671	113,444
275,268	3,467	220,594	113,094
276,282	3,753	220,410	113,200
277,297	3,320	220,325	112,828
278,312	3,575	220,251	112,967
279,326	3,849	220,051	113,057
280,341	3,627	219,962	112,837
281,355	3,757	219,799	112,839
282,370	3,745	219,709	112,774
283,384	3,401	219,505	112,407
284,399	3,378	219,176	112,212
285,414	3,513	219,099	112,261
286,428	3,873	219,087	112,509
287,443	3,897	219,077	112,511
288,457	3,852	218,889	112,371
289,472	3,710	218,616	112,118
290,487	3,473	218,424	111,836
291,501	3,379	218,318	111,703
292,516	3,396	218,186	111,638
293,530	3,621	218,086	111,741
294,545	3,217	218,015	111,401
295,560	3,450	217,882	111,492
296,574	3,469	217,755	111,431
297,589	4,022	217,445	111,664
298,603	3,820	217,464	111,517
299,618	3,892	217,330	111,490
300,633	3,676	217,230	111,273
301,647	3,910	217,130	111,381
302,662	4,008	216,968	111,359
303,676	3,852	216,754	111,126
304,691	3,907	216,615	111,085
305,706	3,717	216,483	110,870
306,720	4,116	216,496	111,156
307,735	4,103	216,309	111,040
308,749	3,615	216,125	110,583
309,764	3,768	215,998	110,619
310,779	3,871	215,924	110,645
311,793	3,602	215,730	110,343
312,808	4,031	215,604	110,576
313,822	3,792	215,289	110,234
314,837	3,633	215,304	110,117
315,852	3,553	215,228	110,011
316,866	3,526	215,135	109,935
317,881	4,027	214,865	110,146
318,895	4,253	214,638	110,181
319,910	3,769	214,625	109,819
320,925	3,555	214,384	109,532
321,939	3,243	214,231	109,222
322,954	3,345	214,066	109,201
323,968	3,694	214,083	109,449
324,983	3,980	213,959	109,580
325,997	3,980	213,785	109,480
327,012	3,674	213,644	109,181
328,027	3,886	213,491	109,243
329,041	3,977	213,378	109,241
330,056	4,117	213,376	109,329
331,070	3,812	213,017	108,919
332,085	3,447	212,924	108,603
333,100	3,442	212,761	108,507
334,114	3,715	212,558	108,587
335,129	3,929	212,513	108,706
336,143	3,772	212,305	108,479
337,158	3,371	212,389	108,228
338,173	3,743	212,086	108,327
339,187	3,538	211,977	108,117
340,202	3,226	211,764	107,779
341,216	3,455	211,622	107,858
342,231	3,687	211,394	107,895
343,246	3,486	211,394	107,744
344,260	3,494	211,298	107,692
345,275	3,622	211,184	107,714
346,289	3,700	211,174	107,754
347,304	3,596	210,991	107,578
348,319	3,806	210,833	107,635
349,333	3,878	210,590	107,551
350,348	3,815	210,518	107,461
351,362	4,016	210,362	107,513
352,377	3,853	210,313	107,364
353,392	3,729	210,065	107,141
354,406	3,836	210,020	107,184
355,421	195,412	1342,591	1431,478
356,435	156,037	1480,659	1431,561
