DTS Sentinel unit serial number:	SN410029Multiplexer serial number:	ORYXHardware model number:	OX2-SRSoftware version number:	ORYX F/W v4,00 Oryx Data Collector v3.7.2.0data status	okinstallation	B6 Nyhavnadifferential loss correction	single-endedforward channel	channel 2reverse channel	N/Adate	2023/12/10time	11:40:08forward acquisition time	300,00reverse acquisition time	0,00gamma	499,1914k internal	0,3123k external	0,3123temperature offset calibration	1,0000default loss term (dB/km)	0,3820temperature slope calibration	1,0000multiplexer offset coefficient	1,0000multiplexer slope coefficient	1,0000fibre end	0,00T internal ref (°C)	22,69T ext. ref 1 (°C)	6,61T ext. ref 2 (°C)	6,60length (m)	temperature (°C)	Stokes	anti-Stokes-744,400	7,396	0,054	-0,030
-743,385	49,531	-0,109	0,077
-742,371	-78,198	0,092	0,023
-741,356	-61,830	-0,266	0,083
-740,342	408,553	0,047	0,074
-739,327	15,019	-0,159	0,093
-738,312	-200,000	-0,006	0,031
-737,298	-43,952	-0,258	0,096
-736,283	-200,000	-0,014	-0,092
-735,269	268,504	-0,092	0,120
-734,254	-159,291	0,096	-0,004
-733,239	-97,817	-0,351	-0,067
-732,225	210,848	-0,016	-0,019
-731,210	-19,264	0,030	-0,014
-730,196	-200,000	-0,043	0,221
-729,181	-118,763	0,055	-0,007
-728,167	-115,466	-0,073	-0,010
-727,152	-116,801	0,052	0,007
-726,137	800,000	-0,011	-0,030
-725,123	43,823	-0,067	0,045
-724,108	-200,000	-0,010	-0,070
-723,094	-200,000	0,015	-0,054
-722,079	-200,000	-0,036	-0,129
-721,064	73,308	0,043	0,033
-720,050	192,345	0,074	0,083
-719,035	318,242	0,066	-0,093
-718,021	449,683	0,029	-0,048
-717,006	121,098	0,042	0,039
-715,991	-140,939	-0,130	0,010
-714,977	28,155	-0,111	0,069
-713,962	-200,000	-0,004	-0,024
-712,948	-69,121	0,115	0,033
-711,933	800,000	-0,052	0,140
-710,918	-200,000	-0,024	-0,079
-709,904	585,074	0,029	-0,054
-708,889	800,000	-0,070	-0,173
-707,875	-96,863	-0,328	-0,063
-706,860	40,183	-0,062	0,041
-705,845	126,543	0,072	-0,068
-704,831	-26,134	-0,098	0,043
-703,816	346,174	-0,118	-0,172
-702,802	-200,000	0,002	-0,024
-701,787	-191,451	-0,169	-0,001
-700,772	14,311	-0,115	-0,067
-699,758	-60,394	-0,068	0,021
-698,743	-200,000	0,003	-0,090
-697,729	800,000	-0,054	-0,150
-696,714	-200,000	0,022	0,101
-695,699	-67,024	-0,029	-0,009
-694,685	316,148	0,016	-0,023
-693,670	33,784	-0,074	0,048
-692,656	27,645	-0,088	-0,055
-691,641	209,450	-0,087	-0,102
-690,627	379,392	-0,038	0,058
-689,612	-200,000	0,027	0,113
-688,597	448,951	0,012	0,020
-687,583	723,718	-0,035	-0,070
-686,568	-4,154	0,107	0,055
-685,554	679,622	-0,071	-0,137
-684,539	182,815	0,151	-0,166
-683,524	-97,735	-0,033	0,006
-682,510	486,307	0,044	0,075
-681,495	-109,466	-0,076	-0,012
-680,481	328,738	0,065	-0,093
-679,466	-81,738	0,028	0,007
-678,451	410,098	-0,034	-0,054
-677,437	-61,319	0,069	-0,021
-676,422	351,369	0,069	0,101
-675,408	-200,000	0,016	0,187
-674,393	490,998	-0,079	0,135
-673,378	112,158	-0,024	-0,022
-672,364	480,608	0,055	-0,093
-671,349	-200,000	-0,013	-0,065
-670,335	-200,000	0,017	0,133
-669,320	800,000	-0,028	0,080
-668,305	-36,619	0,125	0,050
-667,291	88,492	0,102	0,084
-666,276	-108,270	-0,111	-0,018
-665,262	565,952	-0,083	-0,149
-664,247	800,000	-0,041	-0,085
-663,232	-92,502	-0,129	0,027
-662,218	90,312	0,080	-0,067
-661,203	-58,457	-0,103	-0,033
-660,189	-200,000	0,008	0,113
-659,174	271,625	-0,049	-0,065
-658,159	208,705	-0,039	0,045
-657,145	137,716	-0,129	-0,126
-656,130	124,111	-0,040	-0,037
-655,116	-60,729	-0,083	-0,026
-654,101	800,000	0,034	-0,108
-653,086	18,719	-0,204	0,121
-652,072	87,123	0,117	-0,096
-651,057	-155,225	-0,194	0,009
-650,043	136,934	-0,065	-0,063
-649,028	267,818	0,061	-0,080
-648,014	-126,053	0,136	0,015
-646,999	33,774	-0,033	-0,022
-645,984	119,743	0,112	0,103
-644,970	-200,000	-0,003	-0,071
-643,955	37,681	-0,135	-0,089
-642,941	-13,855	-0,041	-0,019
-641,926	153,820	-0,051	0,052
-640,911	265,650	-0,079	0,102
-639,897	-122,292	0,034	0,004
-638,882	229,223	-0,066	0,080
-637,868	-133,620	0,005	0,000
-636,853	-130,859	-0,107	0,011
-635,838	244,733	0,096	-0,120
-634,824	31,562	-0,081	-0,052
-633,809	-200,000	0,005	-0,029
-632,795	-200,000	0,129	0,000
-631,780	800,000	-0,048	-0,107
-630,765	533,606	0,038	-0,067
-629,751	-28,669	-0,036	-0,015
-628,736	-139,775	-0,105	-0,008
-627,722	-200,000	-0,008	-0,070
-626,707	-200,000	0,008	0,044
-625,692	762,488	-0,047	0,096
-624,678	677,782	-0,075	0,145
-623,663	-200,000	0,009	0,030
-622,649	157,493	-0,044	0,045
-621,634	567,017	-0,038	-0,069
-620,619	-200,000	-0,025	0,116
-619,605	-74,636	0,140	-0,037
-618,590	-200,000	0,020	0,112
-617,576	-9,563	-0,014	-0,007
-616,561	59,742	-0,052	-0,038
-615,546	800,000	-0,016	-0,038
-614,532	-200,000	-0,007	-0,030
-613,517	429,377	-0,054	0,087
-612,503	231,864	0,072	0,088
-611,488	-136,371	0,107	0,009
-610,474	800,000	0,023	0,061
-609,459	-179,583	-0,060	-0,001
-608,444	9,440	-0,132	-0,074
-607,430	276,932	-0,064	-0,084
-606,415	-0,756	0,055	0,029
-605,401	-200,000	0,011	-0,167
-604,386	-105,821	0,105	-0,017
-603,371	-59,876	0,071	0,022
-602,357	-16,307	0,088	-0,041
-601,342	-138,866	-0,122	-0,010
-600,328	272,186	-0,039	-0,051
-599,313	-145,483	-0,080	-0,005
-598,298	-131,419	-0,101	0,010
-597,284	160,959	0,073	0,076
-596,269	304,745	0,042	0,058
-595,255	800,000	0,019	-0,039
-594,240	53,583	-0,095	-0,067
-593,225	-61,503	-0,132	0,041
-592,211	62,555	0,099	-0,073
-591,196	800,000	-0,035	-0,101
-590,182	-82,860	0,138	0,033
-589,167	-98,993	0,090	-0,017
-588,152	-88,379	0,018	0,004
-587,138	18,166	0,058	0,034
-586,123	-200,000	0,001	-0,008
-585,109	64,820	0,078	0,058
-584,094	800,000	-0,054	-0,154
-583,079	11,287	0,113	0,064
-582,065	800,000	0,035	0,103
-581,050	46,811	0,097	0,067
-580,036	-120,897	0,068	0,008
-579,021	-200,000	-0,021	-0,085
-578,006	159,083	-0,064	-0,066
-576,992	-75,659	-0,063	-0,016
-575,977	249,616	0,059	0,074
-574,963	-136,438	0,032	-0,003
-573,948	630,949	-0,046	-0,087
-572,934	800,000	-0,033	0,073
-571,919	97,576	-0,056	-0,047
-570,904	800,000	0,035	-0,077
-569,890	-147,567	0,126	-0,008
-568,875	-99,282	0,059	-0,011
-567,861	193,746	0,020	0,023
-566,846	-100,570	-0,066	0,012
-565,831	-200,000	0,023	0,097
-564,817	-200,000	-0,010	-0,108
-563,802	331,915	0,028	-0,041
-562,788	78,988	-0,037	-0,029
-561,773	-43,309	-0,136	-0,051
-560,758	291,172	-0,008	0,011
-559,744	-91,136	0,058	0,012
-558,729	-25,196	0,052	0,023
-557,715	-200,000	-0,030	0,119
-556,700	800,000	0,037	0,112
-555,685	244,708	-0,118	-0,147
-554,671	-145,522	0,187	0,012
-553,656	-8,640	0,054	-0,026
-552,642	443,586	-0,053	0,086
-551,627	82,493	-0,103	-0,083
-550,612	-40,096	0,033	-0,013
-549,598	-29,398	-0,041	-0,017
-548,583	25,473	-0,142	-0,087
-547,569	169,250	-0,099	0,105
-546,554	800,000	0,031	-0,066
-545,539	-200,000	-0,006	-0,151
-544,525	74,937	0,068	-0,053
-543,510	0,730	-0,094	-0,050
-542,496	800,000	-0,020	0,051
-541,481	54,441	-0,036	-0,026
-540,466	-48,539	-0,142	-0,050
-539,452	800,000	0,020	0,046
-538,437	-200,000	0,010	0,082
-537,423	316,472	-0,024	-0,033
-536,408	56,556	-0,119	-0,085
-535,393	310,216	-0,076	0,105
-534,379	-200,000	0,009	-0,058
-533,364	-200,000	-0,014	-0,067
-532,350	800,000	0,045	0,140
-531,335	200,416	-0,085	0,097
-530,321	274,691	-0,059	0,077
-529,306	50,294	-0,112	0,078
-528,291	22,827	-0,083	-0,050
-527,277	800,000	0,024	0,052
-526,262	76,565	-0,069	-0,054
-525,248	103,063	0,046	-0,040
-524,233	53,123	-0,060	-0,042
-523,218	800,000	0,034	0,083
-522,204	43,093	0,069	0,046
-521,189	800,000	0,017	-0,036
-520,175	-200,000	0,005	0,061
-519,160	78,532	-0,081	0,064
-518,145	-35,068	0,170	0,068
-517,131	-200,000	-0,005	0,044
-516,116	74,955	0,098	-0,077
-515,102	140,452	0,063	0,062
-514,087	42,800	0,050	-0,034
-513,072	19,434	-0,094	0,056
-512,058	217,403	-0,092	-0,109
-511,043	800,000	0,038	0,095
-510,029	800,000	-0,025	-0,054
-509,014	-58,448	-0,040	-0,013
-507,999	-84,190	-0,100	0,023
-506,985	506,124	-0,054	0,094
-505,970	-89,052	-0,173	-0,038
-504,956	255,144	-0,071	-0,090
-503,941	-73,431	0,089	-0,024
-502,926	-118,774	-0,083	0,011
-501,912	-200,000	0,044	0,145
-500,897	-200,000	0,006	0,030
-499,883	800,000	-0,028	0,078
-498,868	-184,452	0,125	0,001
-497,853	-2,077	-0,041	0,021
-496,839	-66,292	-0,018	-0,005
-495,824	800,000	0,032	-0,083
-494,810	-200,000	0,009	0,104
-493,795	-200,000	0,015	-0,065
-492,781	-200,000	-0,019	0,098
-491,766	800,000	-0,030	-0,096
-490,751	800,000	-0,122	-0,259
-489,737	216,854	-0,075	0,088
-488,722	-102,965	0,084	0,015
-487,708	-200,000	0,034	-0,184
-486,693	450,825	0,005	-0,009
-485,678	-200,000	-0,028	0,133
-484,664	-200,000	0,001	0,095
-483,649	-150,483	-0,126	-0,007
-482,635	239,702	-0,052	-0,064
-481,620	-200,000	-0,059	0,207
-480,605	1,716	0,083	-0,044
-479,591	800,000	0,091	0,195
-478,576	800,000	-0,046	0,138
-477,562	-130,270	-0,119	-0,012
-476,547	-200,000	0,002	-0,144
-475,532	593,446	-0,031	0,057
-474,518	264,761	0,057	0,073
-473,503	2,577	-0,028	0,015
-472,489	-200,000	0,004	-0,036
-471,474	-114,667	0,018	-0,002
-470,459	-160,367	-0,093	-0,004
-469,445	1,217	-0,091	-0,048
-468,430	-200,000	0,010	-0,102
-467,416	-37,355	0,067	-0,026
-466,401	578,077	-0,034	-0,061
-465,386	-43,142	0,154	0,057
-464,372	680,711	0,052	-0,101
-463,357	25,891	0,079	-0,048
-462,343	87,494	-0,065	-0,053
-461,328	-110,336	0,152	0,023
-460,313	185,649	-0,086	-0,095
-459,299	800,000	0,026	0,073
-458,284	72,363	-0,037	0,028
-457,270	96,051	0,077	0,065
-456,255	202,299	0,055	-0,062
-455,241	-76,699	0,064	0,016
-454,226	-22,356	-0,125	-0,056
-453,211	707,567	-0,064	0,124
-452,197	-32,251	0,154	-0,063
-451,182	800,000	-0,032	0,077
-450,168	240,510	0,026	-0,033
-449,153	-160,066	0,041	-0,002
-448,138	16,986	-0,057	0,033
-447,124	-200,000	-0,002	-0,122
-446,109	800,000	-0,016	-0,034
-445,095	492,836	0,068	-0,116
-444,080	310,121	0,072	0,099
-443,065	-51,819	0,065	0,022
-442,051	174,615	0,017	-0,018
-441,036	82,432	-0,039	-0,031
-440,022	142,177	0,050	0,048
-439,007	59,568	0,109	0,079
-437,992	148,658	0,058	0,058
-436,978	4,544	-0,039	0,021
-435,963	87,530	0,169	0,138
-434,949	800,000	0,049	0,140
-433,934	-141,458	-0,151	0,011
-432,919	118,955	0,065	-0,059
-431,905	-200,000	-0,001	0,009
-430,890	215,018	0,045	-0,053
-429,876	5,228	0,079	0,043
-428,861	-200,000	-0,009	0,066
-427,846	165,268	-0,066	0,069
-426,832	11,050	0,066	-0,037
-425,817	23,137	-0,009	-0,006
-424,803	-192,066	-0,081	0,001
-423,788	-168,702	0,089	0,002
-422,773	41,449	0,102	-0,068
-421,759	-37,435	0,119	-0,047
-420,744	-200,000	-0,001	0,116
-419,730	-7,976	-0,076	-0,038
-418,715	800,000	0,026	-0,078
-417,701	-200,000	0,011	0,093
-416,686	-200,000	-0,009	0,051
-415,671	-47,613	0,065	-0,023
-414,657	-59,260	0,135	0,043
-413,642	-133,160	0,102	0,009
-412,628	50,249	-0,047	0,032
-411,613	-91,109	-0,050	-0,011
-410,598	-200,000	-0,019	0,166
-409,584	17,484	0,063	0,037
-408,569	-122,952	0,063	-0,007
-407,555	-12,072	0,048	0,023
-406,540	800,000	-0,016	-0,042
-405,525	-1,266	-0,068	-0,035
-404,511	429,625	-0,023	0,037
-403,496	-200,000	0,020	-0,125
-402,482	-200,000	0,016	-0,055
-401,467	581,116	0,059	0,107
-400,452	800,000	-0,094	0,234
-399,438	-49,699	0,105	-0,037
-398,423	-200,000	0,000	-0,015
-397,409	30,656	-0,246	-0,154
-396,394	323,333	-0,038	-0,053
-395,379	-83,008	0,098	-0,023
-394,365	-139,714	0,081	-0,006
-393,350	-200,000	-0,015	0,056
-392,336	29,461	-0,062	-0,039
-391,321	-115,433	0,102	0,014
-390,306	-200,000	-0,026	-0,086
-389,292	800,000	0,021	-0,046
-388,277	-145,076	0,082	-0,005
-387,263	121,307	0,054	-0,050
-386,248	100,851	-0,034	-0,029
-385,233	13,865	0,022	0,012
-384,219	-137,549	-0,083	-0,007
-383,204	-143,283	0,228	0,016
-382,190	-93,553	-0,006	0,001
-381,175	-200,000	0,014	0,098
-380,160	137,679	-0,082	0,079
-379,146	-135,304	0,158	-0,014
-378,131	-59,163	0,057	-0,018
-377,117	-48,925	-0,006	-0,002
-376,102	249,676	-0,093	-0,117
-375,088	-12,845	0,077	-0,037
-374,073	-200,000	-0,010	-0,079
-373,058	-2,757	0,049	-0,025
-372,044	-200,000	0,044	0,145
-371,029	-200,000	0,036	0,132
-370,015	278,973	-0,055	-0,072
-369,000	382,207	0,088	-0,133
-367,985	800,000	-0,006	0,017
-366,971	-200,000	-0,036	0,128
-365,956	-94,495	0,072	-0,014
-364,942	800,000	-0,023	0,063
-363,927	44,504	0,058	0,039
-362,912	-18,483	-0,037	-0,017
-361,898	105,782	-0,081	-0,070
-360,883	-200,000	0,030	-0,187
-359,869	346,925	-0,141	-0,205
-358,854	-27,336	-0,081	-0,034
-357,839	68,351	0,065	0,049
-356,825	-200,000	-0,010	-0,066
-355,810	540,837	-0,076	0,133
-354,796	-139,402	0,028	-0,002
-353,781	-61,758	0,036	0,011
-352,766	-57,068	-0,094	0,030
-351,752	181,680	0,088	0,095
-350,737	-23,391	0,101	0,044
-349,723	-200,000	0,003	0,074
-348,708	800,000	0,043	0,095
-347,693	-40,266	0,143	0,054
-346,679	-200,000	-0,008	-0,146
-345,664	-166,961	-0,122	0,004
-344,650	606,411	-0,050	-0,093
-343,635	37,592	-0,064	-0,041
-342,620	-52,408	0,109	0,037
-341,606	422,747	-0,079	0,125
-340,591	-200,000	-0,005	-0,042
-339,577	-200,000	-0,226	0,000
-338,562	-200,000	-0,026	0,122
-337,548	-198,029	0,149	-0,001
-336,533	14,791	-0,053	-0,031
-335,518	131,839	0,055	0,052
-334,504	-200,000	-0,008	-0,124
-333,489	169,668	0,034	0,036
-332,475	-200,000	0,012	0,066
-331,460	5,553	-0,063	0,034
-330,445	-3,002	-0,097	-0,049
-329,431	800,000	-0,049	0,108
-328,416	34,743	0,046	0,029
-327,402	800,000	0,081	0,209
-326,387	-200,000	0,002	-0,050
-325,372	-77,860	0,141	-0,035
-324,358	800,000	-0,023	-0,055
-323,343	454,465	-0,089	0,146
-322,329	-117,408	-0,111	-0,015
-321,314	-115,766	0,075	-0,010
-320,299	144,574	0,114	0,112
-319,285	75,052	0,066	0,051
-318,270	-58,302	0,104	0,033
-317,256	800,000	-0,036	-0,092
-316,241	-175,432	-0,068	-0,001
-315,226	-200,000	0,012	0,063
-314,212	-26,708	0,142	-0,061
-313,197	-200,000	-0,003	-0,101
-312,183	115,660	-0,060	-0,054
-311,168	51,825	-0,119	-0,083
-310,153	800,000	0,039	0,091
-309,139	184,193	-0,102	0,111
-308,124	-200,000	-0,009	0,036
-307,110	612,415	0,072	0,133
-306,095	-200,000	0,002	0,075
-305,080	-93,760	0,067	-0,013
-304,066	69,597	-0,084	0,063
-303,051	800,000	-0,050	-0,115
-302,037	-52,856	-0,111	-0,037
-301,022	147,474	0,049	-0,048
-300,008	363,522	0,033	0,049
-298,993	600,975	0,021	-0,039
-297,978	-200,000	0,000	-0,019
-296,964	235,613	0,079	-0,096
-295,949	351,154	-0,138	-0,201
-294,935	-93,126	0,037	-0,008
-293,920	-145,228	0,110	0,007
-292,905	-52,218	-0,075	-0,025
-291,891	-200,000	0,005	-0,026
-290,876	196,740	0,035	0,039
-289,862	-200,000	-0,013	-0,058
-288,847	128,268	-0,047	-0,044
-287,832	800,000	-0,037	0,103
-286,818	800,000	-0,031	-0,066
-285,803	-47,211	0,022	0,008
-284,789	44,978	0,112	0,076
-283,774	44,587	-0,092	0,062
-282,759	59,129	-0,026	0,018
-281,745	345,307	-0,029	0,042
-280,730	678,642	-0,020	-0,038
-279,716	518,949	-0,060	-0,103
-278,701	-65,587	0,234	-0,068
-277,686	112,736	0,059	0,052
-276,672	-41,394	0,028	-0,011
-275,657	-200,000	0,001	-0,071
-274,643	393,133	-0,086	-0,131
-273,628	-122,461	-0,141	0,017
-272,613	-39,450	0,155	-0,059
-271,599	-59,785	0,080	0,025
-270,584	60,974	-0,089	0,065
-269,570	248,169	-0,021	0,026
-268,555	349,678	0,063	-0,092
-267,540	800,000	0,023	-0,058
-266,526	245,892	-0,070	-0,086
-265,511	-200,000	0,009	-0,034
-264,497	-200,000	-0,025	0,086
-263,482	800,000	0,036	-0,107
-262,467	619,284	0,008	0,015
-261,453	-200,000	-0,024	-0,078
-260,438	-43,592	-0,128	-0,047
-259,424	24,259	-0,100	0,060
-258,409	-200,000	-0,009	0,052
-257,395	800,000	-0,022	0,062
-256,380	-200,000	-0,003	0,045
-255,365	-83,016	-0,063	0,015
-254,351	561,911	-0,059	-0,105
-253,336	-101,919	0,008	0,001
-252,322	235,522	-0,054	-0,065
-251,307	355,112	0,037	-0,054
-250,292	113,412	0,090	-0,080
-249,278	-102,194	0,128	0,022
-248,263	314,337	-0,125	0,173
-247,249	800,000	0,041	0,094
-246,234	-200,000	-0,000	-0,043
-245,219	-200,000	0,000	0,081
-244,205	800,000	-0,018	-0,047
-243,190	104,736	0,033	-0,028
-242,176	-104,852	0,024	-0,004
-241,161	-28,471	0,026	0,011
-240,146	-200,000	-0,002	-0,110
-239,132	192,736	0,021	0,024
-238,117	-114,294	-0,095	-0,013
-237,103	45,062	-0,102	-0,068
-236,088	124,120	0,084	0,077
-235,073	-133,753	-0,061	0,005
-234,059	204,949	0,065	-0,073
-233,044	-200,000	-0,014	0,079
-232,030	-70,020	-0,126	0,035
-231,015	-200,000	-0,095	-0,000
-230,000	-118,396	-0,046	0,006
-228,986	-200,000	-0,001	0,111
-227,971	-60,186	-0,084	0,026
-226,957	430,445	0,039	-0,063
-225,942	404,911	0,069	-0,106
-224,927	133,176	0,090	-0,085
-223,913	683,717	-0,025	0,048
-222,898	-11,085	0,113	0,054
-221,884	-200,000	-0,003	-0,074
-220,869	-176,013	-0,076	-0,001
-219,855	-99,851	0,147	0,027
-218,840	-200,000	-0,006	-0,020
-217,825	195,925	-0,068	-0,075
-216,811	-200,000	0,033	-0,131
-215,796	686,802	-0,014	-0,028
-214,782	217,594	0,088	0,102
-213,767	-103,019	-0,051	-0,009
-212,752	207,727	-0,103	0,118
-211,738	369,675	-0,048	0,071
-210,723	-200,000	0,002	0,044
-209,709	-130,530	0,094	-0,009
-208,694	-13,834	-0,025	0,012
-207,679	-6,047	-0,057	-0,028
-206,665	-126,245	0,041	0,004
-205,650	-200,000	0,018	-0,074
-204,636	368,253	0,065	0,096
-203,621	124,246	-0,069	-0,063
-202,606	57,970	0,027	-0,019
-201,592	-73,757	-0,165	-0,043
-200,577	-200,000	-0,010	0,035
-199,563	800,000	0,047	-0,141
-198,548	466,143	0,083	0,136
-197,533	800,000	-0,037	-0,076
-196,519	381,218	0,063	0,094
-195,504	-96,898	-0,081	0,015
-194,490	495,196	0,050	0,085
-193,475	164,402	-0,053	-0,054
-192,460	51,320	-0,103	-0,071
-191,446	800,000	0,050	0,110
-190,431	-200,000	0,007	0,138
-189,417	-20,607	-0,099	0,044
-188,402	-200,000	-0,014	-0,061
-187,387	31,523	0,089	-0,056
-186,373	-200,000	0,043	-0,187
-185,358	-92,836	0,047	-0,009
-184,344	-200,000	0,015	-0,102
-183,329	611,089	0,138	0,253
-182,315	800,000	0,045	0,102
-181,300	800,000	-0,011	-0,026
-180,285	452,653	-0,019	-0,030
-179,271	615,683	-0,019	0,035
-178,256	-86,240	0,040	0,009
-177,242	-6,582	-0,096	0,048
-176,227	-200,000	0,006	0,028
-175,212	-162,181	0,121	0,004
-174,198	800,000	-0,040	0,103
-173,183	198,775	-0,094	0,105
-172,169	-200,000	0,016	-0,063
-171,154	-76,690	-0,046	0,012
-170,139	8,334	0,072	-0,039
-169,125	-200,000	0,023	0,121
-168,110	-21,183	0,091	0,040
-167,096	800,000	-0,051	-0,114
-166,081	532,911	-0,077	-0,133
-165,066	-200,000	-0,035	-0,123
-164,052	337,587	0,041	-0,058
-163,037	-200,000	-0,000	0,058
-162,023	194,901	-0,052	-0,058
-161,008	178,276	0,082	-0,087
-159,993	-200,000	-0,029	0,161
-158,979	16,639	-0,063	-0,036
-157,964	21,101	-0,076	-0,045
-156,950	472,592	-0,018	-0,030
-155,935	503,687	-0,084	-0,143
-154,920	205,521	0,062	-0,070
-153,906	-200,000	0,019	-0,125
-152,891	84,428	0,072	0,058
-151,877	800,000	-0,020	-0,044
-150,862	-97,168	-0,102	-0,019
-149,847	-103,429	0,112	-0,019
-148,833	-200,000	-0,010	-0,081
-147,818	71,998	-0,056	-0,043
-146,804	194,621	-0,147	0,163
-145,789	-1,909	0,046	-0,024
-144,775	-102,922	-0,033	-0,006
-143,760	202,694	-0,146	-0,164
-142,745	194,891	-0,065	0,071
-141,731	-127,350	-0,034	0,004
-140,716	-27,385	-0,092	-0,039
-139,702	237,559	-0,017	0,021
-138,687	-200,000	0,001	0,026
-137,672	90,271	-0,051	0,042
-136,658	-107,912	-0,039	0,006
-135,643	-36,181	-0,088	0,034
-134,629	118,165	-0,050	0,045
-133,614	-161,347	0,153	-0,006
-132,599	441,520	0,033	0,053
-131,585	-133,141	0,121	0,011
-130,570	-77,926	-0,058	0,014
-129,556	-200,000	-0,019	0,068
-128,541	800,000	-0,053	0,118
-127,526	358,720	0,045	0,066
-126,512	-9,352	0,210	0,102
-125,497	207,446	0,032	0,037
-124,483	-200,000	0,001	-0,046
-123,468	4,840	-0,030	-0,016
-122,453	-65,310	-0,074	-0,021
-121,439	-200,000	0,030	-0,099
-120,424	130,333	0,058	0,054
-119,410	-42,489	-0,103	-0,038
-118,395	-99,965	-0,065	-0,012
-117,380	-200,000	0,010	0,078
-116,366	-200,000	-0,013	-0,048
-115,351	-200,000	0,007	-0,037
-114,337	-200,000	0,003	0,079
-113,322	360,337	-0,100	0,146
-112,307	-151,617	0,109	0,006
-111,293	-200,000	0,005	0,115
-110,278	-152,078	-0,164	0,009
-109,264	757,803	0,045	0,089
-108,249	-200,000	0,009	-0,158
-107,234	387,480	-0,027	-0,041
-106,220	246,673	0,031	-0,038
-105,205	-154,261	0,062	0,003
-104,191	117,781	0,071	-0,063
-103,176	33,265	-0,048	-0,030
-102,162	-181,915	-0,073	0,001
-101,147	-60,226	0,049	0,015
-100,132	-97,788	-0,141	-0,026
-99,118	-115,430	0,146	0,020
-98,103	-40,281	0,117	0,044
-97,089	800,000	-0,036	0,113
-96,074	-70,140	0,119	0,033
-95,059	236,711	0,009	0,011
-94,045	210,704	-0,057	-0,065
-93,030	-200,000	-0,006	-0,091
-92,016	464,425	0,035	0,058
-91,001	-130,929	-0,035	-0,003
-89,986	-89,863	0,038	-0,008
-88,972	-95,582	0,091	-0,018
-87,957	169,789	0,103	0,107
-86,943	-67,438	-0,058	-0,016
-85,928	238,841	-0,063	0,076
-84,913	-200,000	0,013	-0,073
-83,899	391,681	-0,077	0,117
-82,884	245,827	-0,020	-0,024
-81,870	193,340	0,034	-0,037
-80,855	9,626	-0,023	-0,012
-79,840	489,678	-0,021	-0,036
-78,826	-200,000	0,013	-0,068
-77,811	551,443	-0,049	-0,086
-76,797	-200,000	-0,022	-0,114
-75,782	79,254	-0,084	-0,066
-74,767	52,733	0,147	0,102
-73,753	-200,000	0,010	0,151
-72,738	-200,000	-0,108	0,000
-71,724	-7,702	-0,097	-0,047
-70,709	76,661	0,092	-0,070
-69,694	242,227	0,031	0,038
-68,680	511,326	0,090	0,153
-67,665	-95,767	0,043	-0,008
-66,651	141,915	0,054	-0,052
-65,636	44,415	-0,148	0,099
-64,622	-200,000	0,010	0,047
-63,607	326,893	-0,056	-0,078
-62,592	-39,251	-0,020	-0,008
-61,578	375,663	0,047	0,070
-60,563	-141,187	-0,052	-0,004
-59,549	182,781	-0,045	-0,049
-58,534	-164,823	-1,323	-0,042
-57,519	800,000	-0,789	-1,610
-56,505	-200,000	-0,863	-4,533
-55,490	-8,302	0,848	-0,413
-54,476	800,000	4,983	11,904
-53,461	-200,000	13,337	253,405
-52,446	-200,000	688,401	2272,906
-51,432	598,346	1623,125	2932,530
-50,417	121,173	1637,049	1478,785
-49,403	73,516	1291,339	980,132
-48,388	38,553	1025,549	662,271
-47,373	24,637	982,836	588,899
-46,359	23,838	972,738	580,206
-45,344	22,935	968,612	574,767
-44,330	22,851	967,226	573,648
-43,315	22,766	965,687	572,432
-42,300	22,716	964,678	571,650
-41,286	22,702	963,807	571,065
-40,271	22,702	962,920	570,516
-39,257	22,724	961,909	569,968
-38,242	22,726	960,832	569,313
-37,227	22,718	960,089	568,825
-36,213	22,693	959,206	568,196
-35,198	22,665	958,477	567,653
-34,184	22,734	957,596	567,330
-33,169	22,628	956,903	566,555
-32,154	22,694	955,864	566,131
-31,140	22,740	954,901	565,686
-30,125	22,720	954,350	565,273
-29,111	22,700	953,428	564,641
-28,096	22,777	952,576	564,362
-27,082	22,699	952,048	563,773
-26,067	22,750	951,304	563,475
-25,052	22,692	950,605	562,851
-24,038	22,702	949,976	562,492
-23,023	22,709	949,311	562,095
-22,009	22,770	948,398	561,731
-20,994	22,745	948,106	561,453
-19,979	22,780	947,328	561,084
-18,965	22,730	946,753	560,561
-17,950	22,735	946,134	560,187
-16,936	22,705	945,356	559,608
-15,921	22,645	944,719	559,020
-14,906	22,663	943,928	558,585
-13,892	22,614	943,367	558,074
-12,877	22,603	942,593	557,561
-11,863	22,588	942,099	557,197
-10,848	22,575	941,732	556,919
-9,833	22,712	941,244	557,041
-8,819	22,656	940,534	556,422
-7,804	22,698	939,735	556,062
-6,790	22,564	939,329	555,374
-5,775	22,672	938,629	555,281
-4,760	22,669	937,866	554,797
-3,746	22,570	937,502	554,246
-2,731	22,474	936,784	553,495
-1,717	22,403	936,195	552,902
-0,702	22,400	935,438	552,423
0,313	22,190	934,742	552,182
1,327	25,453	932,581	561,127
2,342	35,256	797,296	505,863
3,356	33,600	451,841	284,161
4,371	2,179	293,422	153,242
5,386	-2,106	274,286	139,188
6,400	-3,709	268,276	134,643
7,415	-4,290	266,062	132,986
8,429	-4,007	264,697	132,550
9,444	-3,981	263,860	132,143
10,459	-4,125	263,334	131,737
11,473	-3,931	262,585	131,526
12,488	-4,179	262,111	131,053
13,502	-4,250	261,599	130,721
14,517	-4,260	261,110	130,457
15,531	-4,172	260,699	130,318
16,546	-4,206	260,401	130,127
17,561	-4,338	260,083	129,839
18,575	-4,148	259,735	129,823
19,590	-4,108	259,378	129,669
20,604	-4,313	259,119	129,345
21,619	-4,213	258,680	129,204
22,634	-4,380	258,509	128,958
23,648	-4,259	258,055	128,827
24,663	-4,152	257,870	128,818
25,677	-4,212	257,695	128,666
26,692	-4,368	257,391	128,365
27,707	-4,327	257,081	128,235
28,721	-4,287	256,780	128,109
29,736	-4,371	256,672	127,969
30,750	-4,422	256,290	127,722
31,765	-4,393	256,143	127,664
32,780	-4,371	255,898	127,549
33,794	-4,199	255,725	127,603
34,809	-4,460	255,615	127,307
35,823	-4,433	255,355	127,190
36,838	-4,341	254,920	127,043
37,853	-4,381	254,746	126,909
38,867	-4,345	254,485	126,800
39,882	-4,263	254,330	126,783
40,896	-4,296	253,982	126,570
41,911	-4,387	253,845	126,411
42,926	-4,307	253,664	126,379
43,940	-4,550	253,414	126,031
44,955	-4,445	253,252	126,031
45,969	-4,460	252,962	125,862
46,984	-4,834	252,757	125,424
47,999	-4,838	252,312	125,188
49,013	-5,243	252,277	124,808
50,028	-5,220	252,049	124,705
51,042	-5,227	251,622	124,475
52,057	-5,237	251,508	124,400
53,071	-5,182	251,399	124,382
54,086	-4,984	251,133	124,410
55,101	-4,841	251,082	124,497
56,115	-4,552	250,817	124,604
57,130	-4,290	250,884	124,853
58,144	-4,060	250,517	124,856
59,159	-3,941	250,239	124,809
60,174	-4,087	250,167	124,637
61,188	-4,167	249,898	124,423
62,203	-4,067	249,839	124,468
63,217	-4,149	249,611	124,273
64,232	-4,015	249,315	124,229
65,247	-4,226	249,274	124,018
66,261	-4,101	248,984	123,969
67,276	-4,554	248,676	123,418
68,290	-4,474	248,411	123,343
69,305	-4,583	248,110	123,090
70,320	-4,652	248,064	122,997
71,334	-4,269	247,870	123,216
72,349	-4,225	247,786	123,201
73,363	-3,967	247,602	123,317
74,378	-4,054	247,262	123,064
75,393	-4,298	247,202	122,816
76,407	-4,234	246,941	122,730
77,422	-4,383	246,912	122,578
78,436	-4,150	246,480	122,549
79,451	-4,140	246,198	122,406
80,466	-4,126	246,036	122,327
81,480	-4,530	245,865	121,890
82,495	-4,483	245,607	121,791
83,509	-4,395	245,474	121,789
84,524	-4,644	245,300	121,482
85,539	-4,650	245,032	121,333
86,553	-4,574	244,869	121,305
87,568	-4,697	244,639	121,077
88,582	-4,499	244,470	121,149
89,597	-4,522	244,312	121,041
90,611	-4,343	244,158	121,104
91,626	-4,204	244,075	121,168
92,641	-4,363	243,909	120,941
93,655	-4,267	243,624	120,870
94,670	-4,445	243,449	120,623
95,684	-4,373	243,391	120,644
96,699	-4,304	243,116	120,555
97,714	-4,338	242,720	120,319
98,728	-4,486	242,691	120,172
99,743	-4,746	242,532	119,866
100,757	-4,620	242,353	119,872
101,772	-4,329	242,134	119,993
102,787	-4,611	242,018	119,692
103,801	-4,388	241,814	119,764
104,816	-4,453	241,798	119,693
105,830	-4,124	241,441	119,777
106,845	-4,127	241,362	119,724
107,860	-4,334	241,047	119,387
108,874	-4,363	240,793	119,226
109,889	-4,446	240,691	119,096
110,903	-4,668	240,647	118,882
111,918	-4,691	240,278	118,670
112,933	-4,361	240,297	118,940
113,947	-4,376	240,075	118,807
114,962	-4,183	239,870	118,853
115,976	-4,413	239,745	118,592
116,991	-4,127	239,506	118,698
118,006	-4,338	239,437	118,481
119,020	-4,372	239,327	118,387
120,035	-4,468	239,207	118,239
121,049	-4,103	239,113	118,480
122,064	-4,208	238,879	118,268
123,079	-4,415	238,569	117,935
124,093	-4,561	238,448	117,746
125,108	-4,543	238,199	117,627
126,122	-4,758	237,955	117,321
127,137	-4,734	237,722	117,215
128,151	-4,733	237,580	117,136
129,166	-4,780	237,629	117,112
130,181	-4,606	237,249	117,055
131,195	-4,641	237,095	116,940
132,210	-4,445	236,867	116,976
133,224	-4,351	236,803	117,009
134,239	-4,454	236,743	116,886
135,254	-4,111	236,468	117,017
136,268	-4,472	236,146	116,556
137,283	-4,727	236,002	116,269
138,297	-4,710	235,697	116,123
139,312	-4,737	235,481	115,983
140,327	-4,642	235,690	116,153
141,341	-4,120	235,598	116,516
142,356	-4,225	235,451	116,349
143,370	-3,866	235,201	116,503
144,385	-4,015	235,036	116,292
145,400	-3,979	234,900	116,243
146,414	-4,038	234,594	116,033
147,429	-3,976	234,524	116,039
148,443	-3,985	234,342	115,931
149,458	-4,052	234,141	115,768
150,473	-3,978	234,079	115,786
151,487	-4,042	233,929	115,650
152,502	-3,998	233,735	115,580
153,516	-3,879	233,471	115,533
154,531	-3,976	233,368	115,394
155,546	-4,080	233,234	115,235
156,560	-4,070	233,077	115,155
157,575	-4,205	232,900	114,951
158,589	-4,264	232,600	114,746
159,604	-3,928	232,434	114,919
160,619	-3,940	232,227	114,797
161,633	-4,072	232,266	114,702
162,648	-3,900	232,032	114,712
163,662	-4,163	231,972	114,465
164,677	-4,058	231,707	114,406
165,692	-4,190	231,681	114,279
166,706	-3,974	231,488	114,344
167,721	-3,728	231,328	114,448
168,735	-3,895	231,211	114,249
169,750	-3,954	231,072	114,124
170,764	-3,995	230,961	114,026
171,779	-4,054	230,827	113,903
172,794	-3,761	230,484	113,954
173,808	-4,223	230,424	113,552
174,823	-4,370	229,909	113,173
175,837	-4,823	229,930	112,819
176,852	-4,187	229,891	113,288
177,867	-4,062	229,862	113,360
178,881	-3,903	229,663	113,376
179,896	-3,825	229,482	113,338
180,910	-3,884	229,308	113,196
181,925	-3,872	229,179	113,131
182,940	-3,933	229,128	113,049
183,954	-3,815	228,918	113,026
184,969	-3,768	228,662	112,926
185,983	-3,928	228,654	112,789
186,998	-3,662	228,436	112,877
188,013	-3,798	228,238	112,664
189,027	-3,742	227,873	112,517
190,042	-3,914	227,926	112,400
191,056	-3,665	227,868	112,554
192,071	-3,779	227,712	112,379
193,086	-3,901	227,545	112,192
194,100	-3,764	227,363	112,198
195,115	-3,892	227,002	111,912
196,129	-4,525	226,831	111,329
197,144	-0,940	227,841	114,586
198,159	2,942	228,858	118,093
199,173	4,206	229,131	119,201
200,188	4,143	229,099	119,125
201,202	4,177	229,048	119,115
202,217	4,530	228,792	119,243
203,232	4,782	228,684	119,371
204,246	4,759	228,682	119,341
205,261	4,697	228,534	119,206
206,275	5,100	228,413	119,443
207,290	4,786	228,298	119,130
208,304	4,859	228,162	119,105
209,319	4,665	228,008	118,864
210,334	4,841	227,762	118,860
211,348	4,587	227,460	118,498
212,363	4,180	227,295	118,089
213,377	4,010	226,999	117,795
214,392	3,808	226,937	117,598
215,407	4,151	226,675	117,713
216,421	4,409	226,619	117,871
217,436	4,030	226,394	117,454
218,450	3,907	226,126	117,212
219,465	3,948	225,982	117,157
220,480	4,049	225,846	117,153
221,494	3,825	225,753	116,924
222,509	4,064	225,705	117,070
223,523	4,047	225,427	116,903
224,538	4,126	225,363	116,919
225,553	3,942	225,359	116,767
226,567	3,911	225,168	116,634
227,582	4,378	225,127	116,956
228,596	4,334	225,116	116,908
229,611	4,055	224,767	116,505
230,626	3,873	224,425	116,179
231,640	4,026	224,189	116,162
232,655	4,280	224,231	116,366
233,669	4,651	224,160	116,598
234,684	4,624	224,142	116,558
235,699	4,411	223,911	116,266
236,713	4,013	223,785	115,891
237,728	4,018	223,591	115,784
238,742	3,951	223,358	115,603
239,757	3,969	223,261	115,556
240,772	3,968	223,104	115,463
241,786	3,866	222,883	115,263
242,801	4,072	222,749	115,337
243,815	4,398	222,617	115,502
244,830	4,550	222,590	115,592
245,844	4,257	222,333	115,230
246,859	4,139	222,207	115,066
247,874	4,328	222,071	115,126
248,888	4,205	222,031	115,003
249,903	4,396	221,764	114,997
250,917	3,934	221,650	114,584
251,932	4,084	221,442	114,577
252,947	3,952	221,220	114,354
253,961	3,778	221,100	114,152
254,976	4,153	221,066	114,404
255,990	4,131	220,980	114,333
257,005	4,477	220,674	114,420
258,020	4,117	220,771	114,193
259,034	4,427	220,681	114,366
260,049	4,396	220,379	114,177
261,063	4,429	220,131	114,063
262,078	4,295	220,122	113,949
263,093	4,374	220,127	113,999
264,107	4,436	219,956	113,947
265,122	4,353	219,781	113,785
266,136	4,669	219,598	113,912
267,151	4,629	219,455	113,799
268,166	4,222	219,147	113,330
269,180	3,909	219,088	113,059
270,195	3,827	218,811	112,846
271,209	3,888	218,734	112,840
272,224	4,029	218,658	112,895
273,239	4,136	218,586	112,926
274,253	4,054	218,360	112,739
275,268	3,878	218,109	112,471
276,282	3,881	217,850	112,329
277,297	3,713	217,775	112,158
278,312	3,876	217,706	112,231
279,326	3,932	217,678	112,248
280,341	4,080	217,493	112,250
281,355	4,267	217,429	112,344
282,370	4,134	217,182	112,109
283,384	4,030	217,005	111,932
284,399	3,786	216,894	111,687
285,414	3,782	216,796	111,624
286,428	4,121	216,596	111,757
287,443	4,115	216,492	111,689
288,457	4,282	216,423	111,765
289,472	4,103	216,141	111,480
290,487	3,328	215,942	110,806
291,501	3,661	215,756	110,942
292,516	3,769	215,765	111,015
293,530	3,699	215,771	110,957
294,545	3,702	215,634	110,879
295,560	3,816	215,564	110,915
296,574	4,043	215,246	110,906
297,589	3,928	215,174	110,776
298,603	4,019	215,031	110,758
299,618	4,190	214,948	110,828
300,633	4,105	214,913	110,739
301,647	4,170	214,773	110,703
302,662	4,040	214,688	110,556
303,676	4,282	214,401	110,573
304,691	4,263	214,327	110,511
305,706	4,295	214,246	110,482
306,720	4,254	214,022	110,327
307,735	4,143	213,827	110,138
308,749	3,935	213,635	109,880
309,764	4,318	213,477	110,062
310,779	4,414	213,455	110,110
311,793	4,134	213,213	109,776
312,808	4,257	213,186	109,840
313,822	4,205	212,960	109,677
314,837	4,106	212,927	109,579
315,852	3,906	212,764	109,343
316,866	3,784	212,649	109,188
317,881	4,207	212,463	109,383
318,895	4,397	212,199	109,372
319,910	3,920	212,219	109,034
320,925	3,794	211,897	108,770
321,939	3,621	211,867	108,622
322,954	3,415	211,796	108,430
323,968	3,978	211,754	108,797
324,983	4,097	211,628	108,807
325,997	4,180	211,473	108,776
327,012	4,281	211,235	108,716
328,027	4,145	211,242	108,613
329,041	4,383	211,139	108,718
330,056	4,733	210,973	108,870
331,070	4,235	210,761	108,401
332,085	3,726	210,465	107,881
333,100	4,064	210,422	108,087
334,114	3,861	210,404	107,925
335,129	3,925	210,083	107,796
336,143	3,754	209,836	107,540
337,158	3,666	209,888	107,495
338,173	3,838	209,731	107,526
339,187	3,907	209,426	107,408
340,202	3,938	209,362	107,388
341,216	3,609	209,192	107,061
342,231	3,767	209,148	107,139
343,246	3,816	208,972	107,074
344,260	3,840	208,882	107,034
345,275	3,723	208,942	106,975
346,289	3,928	208,854	107,062
347,304	4,177	208,562	107,076
348,319	3,956	208,369	106,814
349,333	4,254	208,204	106,927
350,348	4,408	208,007	106,923
351,362	4,162	208,131	106,806
352,377	4,285	207,964	106,796
353,392	3,823	207,839	106,403
354,406	4,210	207,807	106,645
355,421	193,600	1346,392	1434,080
356,435	154,436	1485,230	1434,212
