DTS Sentinel unit serial number:	SN410029Multiplexer serial number:	ORYXHardware model number:	OX2-SRSoftware version number:	ORYX F/W v4,00 Oryx Data Collector v3.7.2.0data status	okinstallation	B6 Nyhavnadifferential loss correction	single-endedforward channel	channel 2reverse channel	N/Adate	2023/12/09time	05:35:08forward acquisition time	300,00reverse acquisition time	0,00gamma	499,1914k internal	0,3143k external	0,3143temperature offset calibration	1,0000default loss term (dB/km)	0,3820temperature slope calibration	1,0000multiplexer offset coefficient	1,0000multiplexer slope coefficient	1,0000fibre end	0,00T internal ref (°C)	17,99T ext. ref 1 (°C)	2,27T ext. ref 2 (°C)	2,29length (m)	temperature (°C)	Stokes	anti-Stokes-744,400	-145,679	0,055	0,004
-743,385	-123,067	-0,315	0,037
-742,371	241,496	0,092	0,114
-741,356	49,914	-0,163	0,113
-740,342	146,476	0,134	-0,133
-739,327	-31,320	-0,366	0,152
-738,312	-139,025	0,123	0,010
-737,298	-117,812	-0,368	-0,048
-736,283	55,827	0,196	-0,141
-735,269	-39,963	-0,241	0,093
-734,254	50,537	-0,061	0,043
-733,239	-156,379	-0,485	-0,022
-732,225	-172,430	0,202	0,005
-731,210	-18,668	-0,195	0,090
-730,196	-130,274	0,088	-0,009
-729,181	54,598	0,015	-0,011
-728,167	-16,492	-0,036	-0,017
-727,152	221,520	-0,083	0,099
-726,137	800,000	0,011	0,024
-725,123	306,734	0,058	0,080
-724,108	-66,613	-0,239	-0,070
-723,094	-112,078	-0,106	-0,016
-722,079	476,672	-0,051	-0,086
-721,064	534,159	0,064	0,113
-720,050	-49,455	0,023	-0,008
-719,035	27,111	-0,016	-0,010
-718,021	26,960	0,046	0,029
-717,006	-200,000	-0,023	-0,145
-715,991	-200,000	0,001	-0,083
-714,977	-200,000	0,013	-0,095
-713,962	148,435	-0,131	0,131
-712,948	205,870	0,084	0,097
-711,933	-26,896	-0,086	-0,037
-710,918	-99,613	-0,117	0,022
-709,904	-50,630	-0,127	0,044
-708,889	-57,424	-0,033	0,011
-707,875	218,216	-0,024	0,029
-706,860	-200,000	-0,019	-0,090
-705,845	-21,375	0,037	-0,017
-704,831	-200,000	0,011	0,187
-703,816	-200,000	-0,005	-0,035
-702,802	-0,380	0,139	-0,073
-701,787	770,116	0,025	-0,051
-700,772	-187,232	0,109	0,001
-699,758	-200,000	-0,004	0,047
-698,743	-200,000	0,031	-0,157
-697,729	111,814	0,024	-0,021
-696,714	-200,000	-0,007	0,029
-695,699	20,472	0,098	-0,058
-694,685	31,290	-0,052	0,033
-693,670	-139,302	-0,068	0,005
-692,656	-105,670	0,037	-0,006
-691,641	800,000	0,023	0,066
-690,627	109,073	0,110	0,097
-689,612	601,974	-0,063	0,116
-688,597	-33,186	0,080	0,033
-687,583	-200,000	0,016	-0,076
-686,568	568,591	-0,036	-0,065
-685,554	-200,000	-0,013	-0,151
-684,539	489,689	-0,087	0,147
-683,524	407,246	-0,009	0,014
-682,510	125,906	0,047	-0,044
-681,495	166,996	-0,078	0,082
-680,481	56,060	0,058	0,041
-679,466	436,780	0,021	0,034
-678,451	73,653	0,102	0,079
-677,437	800,000	-0,012	-0,030
-676,422	-200,000	0,023	0,187
-675,408	-16,433	-0,127	0,059
-674,393	-200,000	-0,010	0,071
-673,378	-51,727	0,014	0,005
-672,364	-131,783	-0,056	0,005
-671,349	-200,000	0,018	0,124
-670,335	-200,000	-0,048	0,176
-669,320	175,112	0,041	-0,044
-668,305	-200,000	0,016	0,066
-667,291	21,386	-0,042	-0,025
-666,276	-200,000	-0,031	-0,105
-665,262	377,781	-0,049	0,075
-664,247	65,444	-0,038	0,028
-663,232	-200,000	-0,019	0,092
-662,218	-200,000	0,002	-0,012
-661,203	-72,881	-0,076	0,020
-660,189	56,903	-0,076	0,055
-659,174	462,289	-0,039	0,065
-658,159	455,168	-0,064	-0,106
-657,145	-200,000	0,028	-0,179
-656,130	-105,973	-0,200	-0,033
-655,116	-54,215	0,057	-0,019
-654,101	-200,000	0,027	0,153
-653,086	-146,087	-0,094	-0,006
-652,072	57,398	-0,074	-0,053
-651,057	-36,734	-0,048	0,019
-650,043	429,294	-0,020	-0,033
-649,028	-200,000	0,002	-0,013
-648,014	-33,127	0,057	-0,023
-646,999	-139,188	0,131	0,010
-645,984	173,956	-0,045	0,048
-644,970	800,000	-0,029	0,070
-643,955	498,155	-0,059	0,101
-642,941	287,799	-0,073	-0,098
-641,926	800,000	0,023	-0,061
-640,911	-200,000	0,037	-0,158
-639,897	-55,124	0,059	0,019
-638,882	65,466	-0,036	0,027
-637,868	-200,000	0,003	-0,030
-636,853	-26,011	-0,158	-0,068
-635,838	192,712	-0,138	-0,154
-634,824	94,901	-0,063	-0,053
-633,809	-83,571	0,026	0,006
-632,795	329,347	0,069	-0,098
-631,780	-200,000	0,010	-0,052
-630,765	575,000	-0,081	-0,146
-629,751	155,369	-0,062	-0,063
-628,736	-13,568	-0,050	-0,024
-627,722	-200,000	-0,024	0,120
-626,707	-200,000	0,004	-0,080
-625,692	800,000	-0,029	-0,091
-624,678	492,043	0,047	0,080
-623,663	585,294	0,037	0,067
-622,649	800,000	0,057	-0,146
-621,634	-200,000	-0,025	-0,158
-620,619	-200,000	0,014	-0,049
-619,605	516,956	0,019	-0,033
-618,590	800,000	-0,047	0,101
-617,576	-200,000	0,028	0,093
-616,561	243,102	0,072	0,089
-615,546	93,651	-0,055	0,046
-614,532	-19,194	-0,080	0,036
-613,517	58,244	0,063	-0,045
-612,503	536,344	-0,043	0,076
-611,488	-105,458	0,146	-0,024
-610,474	-99,985	-0,104	-0,019
-609,459	-200,000	0,046	0,169
-608,444	-197,720	-0,172	-0,001
-607,430	780,826	-0,029	-0,059
-606,415	346,699	-0,037	0,054
-605,401	800,000	0,034	0,090
-604,386	-57,555	0,094	-0,030
-603,371	-200,000	-0,005	-0,076
-602,357	800,000	0,048	0,144
-601,342	-200,000	-0,003	0,063
-600,328	11,705	-0,079	0,044
-599,313	-9,491	-0,172	-0,084
-598,298	-82,868	0,014	0,003
-597,284	-1,381	-0,152	-0,079
-596,269	-200,000	0,020	-0,095
-595,255	-37,896	-0,135	0,052
-594,240	18,775	-0,021	-0,012
-593,225	147,015	0,058	-0,057
-592,211	181,210	-0,139	0,151
-591,196	-88,085	-0,075	0,016
-590,182	800,000	0,035	0,105
-589,167	-200,000	-0,014	0,128
-588,152	-200,000	-0,001	0,054
-587,138	121,576	0,038	0,035
-586,123	-148,827	-0,136	0,008
-585,109	-72,174	-0,035	-0,010
-584,094	59,338	0,062	0,045
-583,079	-131,485	0,066	0,006
-582,065	-57,550	0,030	0,010
-581,050	-200,000	0,012	0,114
-580,036	76,527	-0,027	-0,021
-579,021	164,122	0,054	0,056
-578,006	121,163	0,016	-0,015
-576,992	91,374	-0,072	-0,060
-575,977	-111,552	0,096	0,014
-574,963	213,643	0,047	-0,054
-573,948	-31,172	0,082	-0,034
-572,934	-97,252	0,168	-0,032
-571,919	-57,377	-0,119	-0,038
-570,904	142,466	0,066	-0,064
-569,890	-153,215	-0,002	0,000
-568,875	270,467	0,029	-0,037
-567,861	217,560	0,038	-0,044
-566,846	141,535	-0,068	-0,066
-565,831	800,000	-0,066	-0,179
-564,817	225,693	-0,048	0,058
-563,802	352,941	0,026	0,039
-562,788	156,674	-0,224	0,228
-561,773	327,302	0,081	0,115
-560,758	-34,301	0,115	-0,046
-559,744	-200,000	-0,009	0,109
-558,729	800,000	0,052	-0,121
-557,715	-108,197	0,049	0,008
-556,700	632,717	-0,020	0,038
-555,685	277,425	-0,057	0,075
-554,671	566,377	0,033	0,059
-553,656	52,642	0,040	-0,028
-552,642	-67,826	0,168	-0,048
-551,627	-53,746	-0,054	-0,018
-550,612	-92,180	-0,094	0,019
-549,598	-200,000	-0,011	-0,099
-548,583	-200,000	0,017	-0,100
-547,569	-30,115	0,066	-0,027
-546,554	73,970	-0,034	0,027
-545,539	1,755	0,136	0,072
-544,525	800,000	0,055	0,112
-543,510	788,821	-0,036	-0,072
-542,496	-178,276	0,091	-0,002
-541,481	398,101	-0,072	-0,111
-540,466	36,576	-0,159	0,103
-539,452	223,183	0,033	0,039
-538,437	-78,044	0,033	0,008
-537,423	120,612	0,049	0,045
-536,408	800,000	-0,096	0,200
-535,393	-106,933	-0,047	-0,008
-534,379	-6,093	-0,083	0,042
-533,364	-159,222	-0,074	-0,003
-532,350	145,126	-0,047	0,047
-531,335	285,838	0,048	-0,064
-530,321	-82,589	-0,060	0,014
-529,306	-48,331	-0,075	0,026
-528,291	94,978	-0,108	0,090
-527,277	446,714	-0,030	-0,048
-526,262	54,601	0,033	-0,024
-525,248	197,421	-0,081	0,091
-524,233	800,000	0,027	0,055
-523,218	-152,839	0,055	0,003
-522,204	-200,000	-0,015	-0,060
-521,189	-22,101	-0,045	-0,020
-520,175	616,640	-0,111	-0,205
-519,160	28,303	-0,101	0,062
-518,145	-200,000	-0,031	0,133
-517,131	9,744	0,078	-0,044
-516,116	-168,129	0,092	0,003
-515,102	-138,366	0,040	-0,003
-514,087	-200,000	-0,014	0,095
-513,072	-200,000	0,007	0,095
-512,058	-200,000	-0,022	-0,081
-511,043	-148,398	0,078	0,005
-510,029	-62,403	0,044	0,013
-509,014	-88,162	0,212	-0,046
-507,999	426,293	-0,079	-0,125
-506,985	291,561	0,078	-0,104
-505,970	60,731	0,075	0,055
-504,956	311,651	0,083	0,114
-503,941	-115,964	0,090	0,012
-502,926	740,155	-0,019	0,037
-501,912	1,035	-0,064	-0,034
-500,897	798,242	-0,034	0,069
-499,883	-4,784	-0,045	0,023
-498,868	25,126	0,035	-0,021
-497,853	-121,931	0,117	0,014
-496,839	800,000	-0,083	0,199
-495,824	-200,000	0,001	0,015
-494,810	-43,067	0,053	-0,020
-493,795	-200,000	0,038	-0,137
-492,781	32,555	-0,058	0,037
-491,766	76,204	-0,124	-0,096
-490,751	-200,000	-0,022	-0,117
-489,737	800,000	0,054	0,128
-488,722	-136,345	0,023	-0,002
-487,708	-113,780	0,086	0,012
-486,693	-55,876	0,087	-0,028
-485,678	8,091	-0,064	0,035
-484,664	-88,203	-0,020	-0,004
-483,649	-200,000	-0,024	-0,094
-482,635	278,528	0,092	-0,121
-481,620	-123,155	0,018	0,002
-480,605	114,238	-0,123	-0,110
-479,591	800,000	0,032	0,091
-478,576	71,410	-0,073	-0,056
-477,562	148,596	-0,047	-0,047
-476,547	561,060	0,020	0,035
-475,532	-39,843	-0,112	0,043
-474,518	33,289	0,100	0,063
-473,503	-77,765	-0,065	-0,016
-472,489	-55,349	0,026	0,008
-471,474	218,770	-0,032	0,038
-470,459	261,792	0,064	-0,082
-469,445	800,000	0,036	0,094
-468,430	-52,160	-0,053	0,018
-467,416	-141,953	0,037	0,003
-466,401	800,000	0,032	0,076
-465,386	800,000	-0,040	0,092
-464,372	515,903	0,036	-0,062
-463,357	-103,254	0,031	0,005
-462,343	-150,963	-0,055	-0,003
-461,328	-200,000	0,002	-0,040
-460,313	296,670	0,085	0,115
-459,299	-33,788	0,102	-0,041
-458,284	157,950	-0,059	0,060
-457,270	310,538	-0,113	0,155
-456,255	800,000	0,044	0,142
-455,241	-200,000	0,000	0,007
-454,226	89,097	-0,036	0,029
-453,211	111,869	0,120	0,106
-452,197	597,214	0,048	-0,087
-451,182	-26,352	0,079	0,034
-450,168	-200,000	0,005	-0,032
-449,153	-200,000	0,047	0,184
-448,138	215,481	-0,031	0,037
-447,124	-200,000	-0,012	-0,048
-446,109	-84,186	-0,198	-0,046
-445,095	623,361	0,057	0,106
-444,080	337,434	0,030	0,042
-443,065	646,524	0,015	0,028
-442,051	-122,366	-0,136	0,016
-441,036	-200,000	0,011	-0,077
-440,022	314,207	0,044	-0,061
-439,007	139,003	0,147	-0,141
-437,992	-77,636	0,035	-0,009
-436,978	-141,321	-0,030	-0,002
-435,963	-46,010	0,108	0,039
-434,949	-200,000	-0,033	0,149
-433,934	-200,000	-0,008	-0,098
-432,919	34,923	-0,047	0,030
-431,905	-200,000	-0,033	-0,197
-430,890	516,772	-0,058	-0,100
-429,876	-171,784	0,023	-0,001
-428,861	23,941	0,120	-0,072
-427,846	800,000	-0,023	0,059
-426,832	273,008	-0,017	-0,022
-425,817	-127,148	-0,166	-0,018
-424,803	542,486	-0,030	0,052
-423,788	167,331	0,085	0,088
-422,773	322,673	0,062	0,087
-421,759	69,664	-0,202	0,152
-420,744	-200,000	0,013	0,166
-419,730	-200,000	0,023	0,087
-418,715	-37,172	-0,113	-0,044
-417,701	-144,776	0,157	-0,010
-416,686	800,000	0,032	0,089
-415,671	340,628	0,036	-0,051
-414,657	800,000	0,030	0,078
-413,642	240,702	-0,045	-0,056
-412,628	800,000	-0,006	0,012
-411,613	54,829	-0,045	0,032
-410,598	118,882	0,084	-0,076
-409,584	-200,000	-0,038	-0,134
-408,569	-3,391	0,131	0,066
-407,555	381,124	0,018	-0,027
-406,540	800,000	0,008	-0,019
-405,525	-98,223	-0,078	-0,015
-404,511	-200,000	0,007	-0,150
-403,496	45,489	-0,041	-0,028
-402,482	-41,126	0,067	0,025
-401,467	583,501	-0,061	-0,111
-400,452	521,557	0,044	-0,076
-399,438	571,820	0,015	0,028
-398,423	10,377	0,053	-0,029
-397,409	296,120	-0,101	0,136
-396,394	129,013	0,069	0,064
-395,379	-60,863	-0,080	0,025
-394,365	-200,000	-0,003	0,069
-393,350	52,539	0,073	0,051
-392,336	-200,000	0,015	-0,110
-391,321	106,829	-0,078	-0,067
-390,306	-200,000	0,006	-0,065
-389,292	-87,025	0,078	0,017
-388,277	-200,000	0,003	-0,039
-387,263	-44,856	0,131	0,048
-386,248	101,606	-0,028	-0,023
-385,233	-200,000	-0,010	0,146
-384,219	50,014	-0,036	-0,025
-383,204	-200,000	-0,008	-0,056
-382,190	-200,000	0,039	-0,159
-381,175	-200,000	-0,007	0,033
-380,160	30,039	0,121	-0,075
-379,146	-200,000	0,013	-0,063
-378,131	-200,000	0,016	0,088
-377,117	-200,000	0,002	0,087
-376,102	-200,000	-0,180	0,000
-375,088	-68,729	0,020	-0,006
-374,073	53,838	0,027	-0,019
-373,058	234,505	-0,068	0,082
-372,044	403,391	-0,018	-0,028
-371,029	-200,000	-0,002	-0,026
-370,015	-200,000	-0,001	0,010
-369,000	-82,629	0,049	-0,012
-367,985	800,000	-0,010	0,029
-366,971	800,000	0,099	-0,202
-365,956	800,000	0,021	-0,066
-364,942	95,259	-0,009	0,008
-363,927	-112,043	0,061	0,009
-362,912	800,000	0,016	0,047
-361,898	107,322	-0,053	0,046
-360,883	-28,322	0,168	-0,071
-359,869	135,189	-0,091	0,087
-358,854	-200,000	-0,025	-0,115
-357,839	165,086	0,058	0,060
-356,825	-200,000	0,022	0,133
-355,810	261,675	-0,101	0,128
-354,796	35,079	0,040	0,026
-353,781	296,014	-0,075	-0,101
-352,766	313,542	0,058	-0,080
-351,752	321,921	0,051	-0,071
-350,737	-7,648	0,098	0,048
-349,723	-22,253	0,097	-0,043
-348,708	-200,000	0,033	-0,169
-347,693	800,000	0,052	-0,128
-346,679	130,889	0,059	-0,055
-345,664	-16,156	-0,111	-0,051
-344,650	-159,119	-0,099	-0,004
-343,635	-200,000	0,014	0,123
-342,620	-54,896	0,071	0,023
-341,606	-60,024	0,105	-0,032
-340,591	110,507	-0,069	0,061
-339,577	271,524	-0,112	-0,144
-338,562	-200,000	-0,009	-0,050
-337,548	138,123	-0,039	-0,038
-336,533	-70,845	-0,091	-0,025
-335,518	-200,000	-0,015	0,049
-334,504	295,009	-0,147	0,197
-333,489	100,673	-0,058	-0,049
-332,475	800,000	-0,062	-0,131
-331,460	-200,000	-0,009	0,108
-330,445	154,164	0,059	0,060
-329,431	-100,853	0,207	0,037
-328,416	-200,000	0,005	0,177
-327,402	8,482	0,069	-0,037
-326,387	-102,018	-0,192	0,033
-325,372	-43,505	0,103	-0,038
-324,358	80,089	-0,167	0,131
-323,343	66,760	-0,120	-0,089
-322,329	800,000	0,040	0,110
-321,314	-150,435	0,045	0,002
-320,299	85,518	-0,136	0,109
-319,285	-200,000	0,017	0,185
-318,270	-82,419	-0,110	0,026
-317,256	215,125	-0,123	0,142
-316,241	80,620	0,074	-0,058
-315,226	-200,000	-0,044	-0,237
-314,212	326,691	0,055	0,077
-313,197	117,067	-0,062	0,055
-312,183	238,102	-0,064	0,077
-311,168	110,618	0,074	0,065
-310,153	-200,000	-0,013	0,102
-309,139	-200,000	0,001	-0,081
-308,124	-119,163	-0,039	-0,005
-307,110	379,221	0,041	0,062
-306,095	-200,000	-0,023	0,173
-305,080	-200,000	-0,016	0,138
-304,066	65,938	0,034	-0,025
-303,051	-64,202	-0,104	-0,031
-302,037	-200,000	0,015	-0,088
-301,022	-200,000	-0,007	-0,038
-300,008	164,597	-0,054	0,055
-298,993	-200,000	0,001	0,049
-297,978	800,000	-0,015	-0,030
-296,964	62,788	0,073	-0,053
-295,949	-200,000	-0,005	0,026
-294,935	29,318	-0,090	-0,055
-293,920	800,000	0,022	0,053
-292,905	-200,000	0,048	-0,198
-291,891	14,553	0,128	0,073
-290,876	-166,812	-0,055	0,002
-289,862	800,000	-0,035	-0,098
-288,847	-200,000	0,008	-0,031
-287,832	-200,000	-0,023	0,142
-286,818	1,559	0,051	0,027
-285,803	-200,000	0,044	0,196
-284,789	250,226	0,034	0,042
-283,774	-144,959	-0,093	0,006
-282,759	-200,000	-0,002	0,028
-281,745	-200,000	-0,006	-0,078
-280,730	-144,401	0,172	-0,011
-279,716	-48,237	-0,104	-0,036
-278,701	343,947	-0,035	0,051
-277,686	800,000	-0,033	0,068
-276,672	800,000	0,010	-0,020
-275,657	26,109	0,062	-0,038
-274,643	190,950	-0,131	-0,144
-273,628	800,000	-0,015	-0,036
-272,613	98,605	-0,019	-0,016
-271,599	-200,000	0,003	-0,073
-270,584	-200,000	0,014	-0,089
-269,570	-25,302	0,068	0,029
-268,555	-155,681	-0,099	-0,005
-267,540	-22,422	0,035	-0,015
-266,526	-85,203	-0,083	0,019
-265,511	124,493	-0,045	-0,041
-264,497	305,753	0,042	-0,057
-263,482	5,886	0,033	0,018
-262,467	137,347	0,057	-0,054
-261,453	72,089	0,066	-0,050
-260,438	-200,000	-0,013	-0,112
-259,424	332,292	0,053	-0,075
-258,409	-200,000	0,004	-0,079
-257,395	-178,307	0,111	0,002
-256,380	-68,345	0,096	0,027
-255,365	800,000	-0,044	-0,106
-254,351	800,000	-0,034	0,079
-253,336	800,000	0,043	0,134
-252,322	-108,267	-0,090	-0,014
-251,307	486,270	-0,043	-0,072
-250,292	-29,951	-0,072	-0,029
-249,278	-55,858	-0,077	0,025
-248,263	141,858	0,017	-0,016
-247,249	76,664	-0,078	0,060
-246,234	-200,000	0,015	0,049
-245,219	205,567	-0,024	0,027
-244,205	-200,000	0,018	-0,129
-243,190	313,154	0,077	-0,105
-242,176	73,000	-0,037	-0,028
-241,161	79,333	0,056	0,043
-240,146	293,257	0,090	0,119
-239,132	-36,226	0,135	-0,053
-238,117	37,747	-0,053	-0,034
-237,103	-54,731	-0,106	0,035
-236,088	493,320	-0,099	0,165
-235,073	-200,000	0,002	0,007
-234,059	-86,141	0,159	-0,035
-233,044	72,694	-0,038	-0,028
-232,030	-99,047	0,094	0,017
-231,015	412,277	-0,013	0,020
-230,000	-200,000	-0,014	0,104
-228,986	-200,000	0,010	-0,075
-227,971	-200,000	-0,007	0,105
-226,957	800,000	0,013	-0,033
-225,942	-200,000	0,012	0,092
-224,927	747,748	-0,115	-0,226
-223,913	-100,512	0,058	0,010
-222,898	-167,529	0,035	0,001
-221,884	81,344	-0,087	0,068
-220,869	-101,526	0,044	-0,008
-219,855	785,727	-0,019	-0,038
-218,840	-200,000	-0,010	0,135
-217,825	34,943	0,098	0,062
-216,811	800,000	0,034	-0,088
-215,796	-200,000	-0,011	-0,062
-214,782	-155,421	0,091	0,004
-213,767	613,590	0,058	0,106
-212,752	-18,383	0,089	-0,040
-211,738	153,532	-0,075	-0,074
-210,723	115,768	0,142	-0,126
-209,709	251,917	-0,154	-0,191
-208,694	-76,285	0,114	0,029
-207,679	-200,000	-0,005	0,094
-206,665	-200,000	0,039	-0,172
-205,650	-200,000	-0,006	0,062
-204,636	53,679	0,085	0,059
-203,621	191,525	-0,018	0,020
-202,606	-107,448	0,082	-0,013
-201,592	258,492	-0,052	-0,065
-200,577	-200,000	-0,001	-0,194
-199,563	-200,000	0,016	-0,096
-198,548	800,000	0,036	-0,089
-197,533	-200,000	0,008	-0,044
-196,519	648,886	-0,045	-0,085
-195,504	-200,000	-0,013	-0,049
-194,490	-140,081	0,070	-0,005
-193,475	-200,000	-0,026	-0,204
-192,460	268,088	0,019	0,024
-191,446	-200,000	-0,028	-0,114
-190,431	246,302	-0,081	0,099
-189,417	800,000	-0,013	-0,028
-188,402	-84,001	-0,053	0,012
-187,387	31,435	0,074	-0,046
-186,373	30,572	0,071	0,044
-185,358	-200,000	0,038	0,152
-184,344	42,388	-0,042	0,028
-183,329	9,923	0,047	-0,026
-182,315	-200,000	0,014	-0,067
-181,300	800,000	-0,046	0,114
-180,285	-200,000	-0,008	-0,127
-179,271	192,278	-0,057	-0,063
-178,256	-200,000	0,025	-0,110
-177,242	-158,237	0,076	-0,003
-176,227	-200,000	0,035	0,126
-175,212	800,000	0,026	0,062
-174,198	800,000	0,035	0,078
-173,183	129,163	-0,137	0,127
-172,169	800,000	0,057	-0,143
-171,154	-39,158	0,094	-0,036
-170,139	800,000	-0,011	-0,033
-169,125	-126,993	0,099	-0,010
-168,110	50,452	0,051	-0,035
-167,096	800,000	0,034	-0,093
-166,081	31,511	-0,103	0,064
-165,066	175,455	-0,134	-0,141
-164,052	-200,000	0,027	0,113
-163,037	549,818	-0,065	0,113
-162,023	19,388	-0,009	-0,005
-161,008	279,644	0,067	0,087
-159,993	34,010	0,107	0,068
-158,979	-55,592	-0,057	-0,018
-157,964	113,248	-0,054	-0,048
-156,950	573,788	-0,020	-0,035
-155,935	-16,069	-0,063	-0,029
-154,920	800,000	0,057	-0,117
-153,906	-200,000	0,022	0,086
-152,891	800,000	0,021	-0,049
-151,877	104,703	-0,115	0,098
-150,862	-200,000	0,014	-0,126
-149,847	-135,100	-0,162	-0,014
-148,833	116,033	0,082	0,072
-147,818	-111,727	-0,058	0,008
-146,804	-200,000	0,002	-0,024
-145,789	26,875	0,067	0,041
-144,775	-200,000	0,004	-0,072
-143,760	-81,535	-0,158	-0,037
-142,745	-3,523	0,079	-0,040
-141,731	800,000	-0,011	0,029
-140,716	535,438	0,060	-0,103
-139,702	-92,193	0,087	-0,018
-138,687	-200,000	-0,007	0,049
-137,672	575,070	-0,019	0,033
-136,658	-144,641	-0,099	-0,006
-135,643	48,218	0,103	0,070
-134,629	69,985	-0,114	-0,085
-133,614	-172,879	0,074	0,002
-132,599	-151,890	-0,050	-0,003
-131,585	208,196	0,083	0,094
-130,570	66,491	-0,063	-0,047
-129,556	193,680	-0,145	-0,159
-128,541	-200,000	-0,012	-0,116
-127,526	483,659	0,025	-0,041
-126,512	435,179	-0,002	0,004
-125,497	37,973	0,123	0,079
-124,483	800,000	-0,009	0,019
-123,468	-101,171	0,044	0,008
-122,453	-200,000	-0,013	0,075
-121,439	361,816	-0,070	-0,101
-120,424	-54,392	0,113	-0,037
-119,410	106,328	0,046	-0,039
-118,395	-139,739	0,134	0,010
-117,380	-200,000	0,006	0,096
-116,366	-70,206	-0,045	0,012
-115,351	254,330	0,106	0,131
-114,337	790,015	-0,024	-0,048
-113,322	192,474	0,073	0,080
-112,307	678,084	0,075	0,142
-111,293	35,878	0,126	0,080
-110,278	-200,000	0,012	0,121
-109,264	-28,618	0,021	0,009
-108,249	528,997	-0,025	0,042
-107,234	15,333	0,116	-0,065
-106,220	351,876	-0,107	-0,153
-105,205	-98,934	0,124	-0,023
-104,191	-200,000	-0,010	0,042
-103,176	-200,000	-0,028	-0,142
-102,162	-51,932	-0,132	0,044
-101,147	-200,000	-0,003	-0,030
-100,132	-58,226	-0,060	-0,019
-99,118	-200,000	0,010	-0,081
-98,103	-73,144	-0,129	-0,034
-97,089	-200,000	0,018	0,087
-96,074	4,777	0,025	0,013
-95,059	-200,000	-0,001	0,194
-94,045	262,998	0,080	-0,100
-93,030	-10,670	0,097	-0,046
-92,016	-108,992	-0,052	-0,008
-91,001	164,005	0,068	-0,069
-89,986	-105,359	0,054	0,009
-88,972	-200,000	0,049	0,218
-87,957	-200,000	-0,015	0,106
-86,943	800,000	-0,037	-0,099
-85,928	-118,662	-0,203	-0,026
-84,913	-25,952	-0,205	-0,087
-83,899	-155,930	0,137	-0,006
-82,884	-116,499	0,075	0,010
-81,870	-25,355	0,079	-0,034
-80,855	292,146	0,106	0,140
-79,840	752,419	-0,043	0,084
-78,826	245,744	0,040	0,049
-77,811	-96,505	-0,078	-0,015
-76,797	-174,827	0,206	-0,004
-75,782	309,311	0,100	-0,135
-74,767	18,343	-0,083	0,048
-73,753	800,000	-0,025	0,077
-72,738	17,870	0,066	-0,038
-71,724	800,000	0,032	0,090
-70,709	-136,198	-0,029	0,002
-69,694	71,850	0,009	-0,006
-68,680	214,275	0,069	0,078
-67,665	-200,000	-0,005	0,070
-66,651	379,598	0,116	-0,172
-65,636	800,000	-0,024	-0,071
-64,622	-23,625	0,092	-0,040
-63,607	800,000	0,069	-0,139
-62,592	188,508	0,031	-0,034
-61,578	114,034	-0,016	-0,014
-60,563	58,599	0,122	0,087
-59,549	-200,000	0,008	0,145
-58,534	-39,007	-1,917	-0,724
-57,519	800,000	-0,512	-1,039
-56,505	-200,000	-1,138	-4,804
-55,490	-176,109	0,594	-0,011
-54,476	800,000	5,377	12,163
-53,461	-200,000	16,212	279,608
-52,446	800,000	706,668	2242,038
-51,432	559,904	1621,460	2835,058
-50,417	122,986	1621,910	1464,301
-49,403	84,425	1283,490	1011,489
-48,388	36,959	1029,171	654,995
-47,373	21,319	991,587	579,340
-46,359	20,151	980,243	568,837
-45,344	18,320	975,983	560,318
-44,330	18,429	974,736	559,938
-43,315	18,122	973,018	557,923
-42,300	18,064	971,925	557,084
-41,286	18,084	970,988	556,590
-40,271	18,091	969,927	555,982
-39,257	18,039	969,248	555,399
-38,242	18,029	968,584	554,966
-37,227	18,021	967,840	554,489
-36,213	18,044	966,767	553,929
-35,198	18,070	965,791	553,432
-34,184	18,057	965,082	552,962
-33,169	18,025	964,220	552,341
-32,154	18,033	963,549	551,961
-31,140	18,118	962,258	551,476
-30,125	18,046	961,907	551,020
-29,111	18,093	960,873	550,558
-28,096	18,093	960,378	550,253
-27,082	18,047	959,678	549,679
-26,067	18,041	958,828	549,152
-25,052	18,015	958,100	548,631
-24,038	18,002	957,493	548,219
-23,023	18,045	956,537	547,787
-22,009	18,086	955,864	547,512
-20,994	18,031	955,433	547,066
-19,979	18,011	954,832	546,636
-18,965	17,952	954,289	546,116
-17,950	17,992	953,453	545,741
-16,936	18,009	952,716	545,353
-15,921	17,928	952,297	544,831
-14,906	17,888	951,498	544,227
-13,892	17,912	950,879	543,927
-12,877	17,883	950,167	543,404
-11,863	17,830	949,619	542,900
-10,848	17,914	949,120	542,862
-9,833	17,970	948,542	542,688
-8,819	17,989	947,941	542,386
-7,804	17,872	947,455	541,711
-6,790	17,916	946,699	541,398
-5,775	17,945	945,967	541,051
-4,760	17,968	945,519	540,846
-3,746	17,912	944,972	540,332
-2,731	17,796	943,956	539,362
-1,717	17,734	943,386	538,819
-0,702	17,768	942,782	538,560
0,313	17,483	942,265	538,170
1,327	20,653	940,390	547,097
2,342	29,835	797,155	488,229
3,356	27,130	449,671	271,325
4,371	-2,607	296,326	148,926
5,386	-6,562	277,490	135,682
6,400	-7,812	271,874	131,756
7,415	-8,082	269,391	130,291
8,429	-7,936	268,162	129,820
9,444	-8,113	267,205	129,182
10,459	-8,084	266,594	128,902
11,473	-8,295	266,083	128,450
12,488	-8,464	265,370	127,941
13,502	-8,603	264,916	127,584
14,517	-8,589	264,467	127,369
15,531	-8,411	263,892	127,242
16,546	-8,608	263,715	126,967
17,561	-8,614	263,210	126,707
18,575	-8,629	262,957	126,561
19,590	-8,611	262,523	126,357
20,604	-8,471	262,276	126,353
21,619	-8,649	262,069	126,082
22,634	-8,564	261,679	125,960
23,648	-8,465	261,284	125,846
24,663	-8,676	261,021	125,520
25,677	-8,690	260,820	125,399
26,692	-8,588	260,450	125,301
27,707	-8,742	260,328	125,094
28,721	-8,510	259,886	125,077
29,736	-8,669	259,849	124,907
30,750	-8,729	259,530	124,689
31,765	-8,873	259,317	124,448
32,780	-8,953	259,103	124,263
33,794	-8,734	258,683	124,244
34,809	-8,591	258,414	124,230
35,823	-8,778	258,359	124,027
36,838	-8,858	258,126	123,833
37,853	-9,034	257,848	123,534
38,867	-8,899	257,635	123,539
39,882	-8,804	257,320	123,462
40,896	-8,883	257,213	123,329
41,911	-8,803	256,798	123,190
42,926	-8,926	256,633	122,991
43,940	-8,855	256,312	122,889
44,955	-8,946	256,133	122,713
45,969	-9,071	256,081	122,567
46,984	-9,196	255,629	122,230
47,999	-9,451	255,405	121,889
49,013	-9,523	255,150	121,693
50,028	-9,571	254,808	121,478
51,042	-9,655	254,595	121,292
52,057	-9,830	254,516	121,092
53,071	-9,667	254,222	121,082
54,086	-9,743	254,110	120,952
55,101	-9,383	253,942	121,175
56,115	-9,160	253,845	121,311
57,130	-8,606	253,690	121,707
58,144	-8,406	253,591	121,823
59,159	-8,421	253,499	121,754
60,174	-8,621	253,369	121,507
61,188	-8,482	253,044	121,462
62,203	-8,638	252,703	121,152
63,217	-8,674	252,623	121,072
64,232	-8,678	252,247	120,877
65,247	-8,649	252,254	120,895
66,261	-8,455	251,705	120,788
67,276	-9,009	251,718	120,306
68,290	-8,993	251,177	120,051
69,305	-9,208	250,955	119,750
70,320	-9,294	250,946	119,661
71,334	-8,872	250,794	119,939
72,349	-8,422	250,704	120,271
73,363	-8,404	250,518	120,187
74,378	-8,471	250,230	119,980
75,393	-8,689	250,028	119,687
76,407	-8,728	249,769	119,519
77,422	-8,778	249,717	119,441
78,436	-8,805	249,636	119,369
79,451	-8,625	249,266	119,334
80,466	-8,670	248,974	119,146
81,480	-8,870	248,736	118,851
82,495	-9,087	248,547	118,566
83,509	-8,990	248,302	118,521
84,524	-8,975	248,184	118,466
85,539	-9,168	247,822	118,120
86,553	-9,143	247,757	118,099
87,568	-9,123	247,450	117,960
88,582	-9,159	247,500	117,942
89,597	-9,269	247,218	117,705
90,611	-8,984	247,055	117,857
91,626	-8,990	247,014	117,822
92,641	-8,823	246,818	117,858
93,655	-8,737	246,495	117,766
94,670	-8,950	246,232	117,451
95,684	-8,966	246,162	117,394
96,699	-8,748	245,978	117,478
97,714	-9,087	245,871	117,133
98,728	-9,168	245,542	116,898
99,743	-9,331	245,377	116,672
100,757	-9,204	245,147	116,658
101,772	-9,090	245,038	116,691
102,787	-9,033	244,724	116,579
103,801	-8,922	244,537	116,572
104,816	-8,911	244,532	116,569
105,830	-8,843	244,372	116,538
106,845	-8,682	244,194	116,577
107,860	-8,688	243,948	116,445
108,874	-8,915	243,800	116,175
109,889	-8,863	243,572	116,099
110,903	-9,014	243,258	115,814
111,918	-8,807	243,092	115,896
112,933	-8,832	243,060	115,849
113,947	-8,842	242,911	115,760
114,962	-8,632	242,712	115,829
115,976	-8,719	242,457	115,624
116,991	-8,891	242,276	115,386
118,006	-8,900	242,226	115,345
119,020	-8,741	242,009	115,362
120,035	-8,664	241,967	115,395
121,049	-8,711	241,717	115,226
122,064	-8,777	241,619	115,115
123,079	-8,698	241,372	115,052
124,093	-9,026	241,064	114,626
125,108	-9,051	240,719	114,432
126,122	-9,429	240,646	114,077
127,137	-9,419	240,465	113,989
128,151	-9,251	240,214	113,997
129,166	-9,146	240,163	114,049
130,181	-8,996	239,978	114,073
131,195	-9,177	239,703	113,785
132,210	-9,118	239,686	113,814
133,224	-8,654	239,388	114,041
134,239	-8,741	239,190	113,865
135,254	-8,667	239,099	113,872
136,268	-8,999	238,858	113,478
137,283	-9,202	238,672	113,215
138,297	-9,169	238,412	113,108
139,312	-9,190	238,202	112,981
140,327	-8,964	238,259	113,181
141,341	-8,464	238,287	113,589
142,356	-8,278	237,995	113,590
143,370	-8,566	238,052	113,374
144,385	-8,264	237,659	113,421
145,400	-8,353	237,634	113,327
146,414	-8,270	237,382	113,263
147,429	-8,403	237,165	113,043
148,443	-8,488	237,135	112,950
149,458	-8,650	236,929	112,712
150,473	-8,355	236,677	112,818
151,487	-8,604	236,574	112,560
152,502	-8,361	236,259	112,595
153,516	-8,373	236,275	112,582
154,531	-8,357	236,024	112,466
155,546	-8,527	235,761	112,195
156,560	-8,518	235,596	112,113
157,575	-8,512	235,310	111,972
158,589	-8,490	235,329	111,988
159,604	-8,273	235,126	112,054
160,619	-8,354	235,009	111,924
161,633	-8,259	234,926	111,950
162,648	-8,145	234,745	111,945
163,662	-8,446	234,526	111,591
164,677	-8,600	234,273	111,339
165,692	-8,500	234,292	111,417
166,706	-8,264	234,238	111,569
167,721	-8,251	233,942	111,428
168,735	-8,239	233,835	111,377
169,750	-8,304	233,566	111,188
170,764	-8,373	233,538	111,109
171,779	-8,310	233,492	111,127
172,794	-8,297	233,316	111,044
173,808	-8,352	232,926	110,805
174,823	-9,173	232,764	110,071
175,837	-9,296	232,534	109,856
176,852	-8,724	232,550	110,304
177,867	-8,348	232,377	110,508
178,881	-8,470	232,330	110,379
179,896	-8,033	232,116	110,611
180,910	-8,243	231,996	110,379
181,925	-8,013	231,725	110,421
182,940	-8,132	231,684	110,299
183,954	-8,212	231,480	110,129
184,969	-8,358	231,521	110,024
185,983	-8,122	231,264	110,077
186,998	-8,013	231,130	110,089
188,013	-7,945	231,068	110,102
189,027	-8,042	230,813	109,895
190,042	-8,117	230,670	109,759
191,056	-7,903	230,379	109,777
192,071	-7,954	230,265	109,674
193,086	-8,121	230,259	109,531
194,100	-7,991	230,018	109,507
195,115	-7,943	229,839	109,450
196,129	-8,241	229,682	109,134
197,144	-4,140	230,968	112,933
198,159	0,333	232,353	117,101
199,173	3,052	233,002	119,546
200,188	3,635	233,016	119,999
201,202	3,540	232,860	119,834
202,217	3,680	232,777	119,889
203,232	3,883	232,675	119,985
204,246	3,904	232,569	119,935
205,261	4,108	232,351	119,971
206,275	4,378	232,313	120,152
207,290	4,180	232,132	119,893
208,304	4,271	232,018	119,895
209,319	4,184	231,819	119,713
210,334	4,130	231,527	119,510
211,348	4,058	231,305	119,329
212,363	3,621	231,038	118,842
213,377	3,330	230,798	118,483
214,392	3,329	230,713	118,428
215,407	3,483	230,729	118,545
216,421	3,560	230,342	118,395
217,436	3,558	230,153	118,285
218,450	3,123	229,924	117,822
219,465	3,014	229,950	117,741
220,480	3,265	229,709	117,801
221,494	3,105	229,730	117,677
222,509	3,244	229,560	117,686
223,523	3,513	229,270	117,735
224,538	3,459	229,137	117,614
225,553	3,120	229,240	117,395
226,567	3,562	228,822	117,510
227,582	3,501	229,006	117,547
228,596	3,831	228,817	117,692
229,611	3,355	228,542	117,176
230,626	3,273	228,259	116,958
231,640	3,286	228,212	116,933
232,655	3,436	228,123	116,992
233,669	4,104	227,991	117,423
234,684	4,019	227,976	117,341
235,699	3,661	227,722	116,927
236,713	3,444	227,520	116,647
237,728	3,374	227,379	116,512
238,742	3,326	227,104	116,324
239,757	3,238	227,001	116,193
240,772	3,372	226,868	116,217
241,786	3,204	226,587	115,935
242,801	3,540	226,640	116,206
243,815	3,650	226,703	116,312
244,830	3,758	226,543	116,302
245,844	3,544	226,063	115,883
246,859	3,523	225,973	115,810
247,874	3,543	225,860	115,757
248,888	3,582	225,761	115,726
249,903	3,500	225,622	115,582
250,917	3,476	225,386	115,433
251,932	3,291	225,241	115,209
252,947	3,372	224,953	115,113
253,961	3,185	224,961	114,966
254,976	3,469	224,906	115,141
255,990	3,419	224,728	115,002
257,005	3,711	224,568	115,129
258,020	3,739	224,439	115,073
259,034	3,641	224,427	114,984
260,049	3,579	224,161	114,791
261,063	3,626	223,888	114,676
262,078	3,680	223,953	114,739
263,093	3,746	223,764	114,682
264,107	3,707	223,668	114,593
265,122	3,725	223,374	114,446
266,136	3,766	223,441	114,500
267,151	3,791	223,208	114,389
268,166	3,473	222,946	114,008
269,180	3,433	222,626	113,805
270,195	3,319	222,657	113,726
271,209	3,325	222,414	113,596
272,224	3,376	222,397	113,615
273,239	3,400	222,388	113,618
274,253	3,345	222,178	113,460
275,268	3,348	221,911	113,316
276,282	3,218	221,559	113,030
277,297	2,931	221,507	112,781
278,312	3,213	221,589	113,021
279,326	3,240	221,354	112,911
280,341	3,380	221,358	113,007
281,355	3,529	221,092	112,970
282,370	3,350	220,966	112,764
283,384	3,268	220,677	112,546
284,399	2,922	220,514	112,199
285,414	3,219	220,378	112,337
286,428	3,545	220,378	112,567
287,443	3,710	220,273	112,624
288,457	3,537	220,203	112,451
289,472	3,251	219,963	112,109
290,487	3,172	219,697	111,906
291,501	2,883	219,491	111,580
292,516	3,065	219,424	111,669
293,530	3,218	219,262	111,689
294,545	2,881	219,181	111,391
295,560	3,058	219,174	111,506
296,574	3,276	219,094	111,616
297,589	3,423	218,865	111,596
298,603	3,550	218,632	111,559
299,618	3,325	218,675	111,407
300,633	3,417	218,487	111,369
301,647	3,672	218,429	111,514
302,662	3,717	218,278	111,460
303,676	3,526	218,187	111,265
304,691	3,740	217,923	111,275
305,706	3,494	217,892	111,072
306,720	3,629	217,677	111,050
307,735	3,417	217,538	110,815
308,749	3,308	217,322	110,617
309,764	3,468	217,198	110,660
310,779	3,672	217,124	110,760
311,793	3,296	216,998	110,414
312,808	3,640	216,786	110,544
313,822	3,591	216,576	110,392
314,837	3,228	216,592	110,128
315,852	3,040	216,309	109,840
316,866	3,071	216,168	109,781
317,881	3,125	216,040	109,745
318,895	3,469	215,934	109,928
319,910	3,666	215,823	110,003
320,925	3,245	215,727	109,643
321,939	2,917	215,479	109,272
322,954	3,106	215,376	109,345
323,968	3,389	215,267	109,483
324,983	3,431	215,230	109,484
325,997	3,589	215,021	109,480
327,012	3,204	215,006	109,188
328,027	3,469	214,721	109,223
329,041	3,712	214,665	109,358
330,056	3,808	214,509	109,337
331,070	3,520	214,238	108,984
332,085	2,955	214,113	108,509
333,100	3,085	214,116	108,594
334,114	3,561	213,783	108,752
335,129	3,562	213,739	108,721
336,143	3,355	213,601	108,494
337,158	3,318	213,528	108,422
338,173	3,567	213,266	108,455
339,187	3,259	213,184	108,186
340,202	3,133	213,024	108,006
341,216	3,143	212,924	107,953
342,231	3,090	212,725	107,805
343,246	3,115	212,549	107,724
344,260	2,989	212,537	107,619
345,275	3,302	212,469	107,796
346,289	3,421	212,372	107,821
347,304	3,721	212,167	107,918
348,319	3,520	212,029	107,696
349,333	3,408	211,692	107,437
350,348	3,378	211,809	107,466
351,362	3,861	211,724	107,752
352,377	3,582	211,597	107,483
353,392	3,278	211,393	107,156
354,406	3,506	211,263	107,241
355,421	195,847	1340,754	1426,334
356,435	156,450	1478,384	1426,360
