DTS Sentinel unit serial number:	SN410029Multiplexer serial number:	ORYXHardware model number:	OX2-SRSoftware version number:	ORYX F/W v4,00 Oryx Data Collector v3.7.2.0data status	okinstallation	B6 Nyhavnadifferential loss correction	single-endedforward channel	channel 2reverse channel	N/Adate	2023/12/09time	04:30:08forward acquisition time	300,00reverse acquisition time	0,00gamma	499,1914k internal	0,3147k external	0,3147temperature offset calibration	1,0000default loss term (dB/km)	0,3820temperature slope calibration	1,0000multiplexer offset coefficient	1,0000multiplexer slope coefficient	1,0000fibre end	0,00T internal ref (°C)	17,08T ext. ref 1 (°C)	1,64T ext. ref 2 (°C)	1,67length (m)	temperature (°C)	Stokes	anti-Stokes-744,400	800,000	0,018	0,037
-743,385	-142,046	-0,395	-0,029
-742,371	800,000	-0,014	0,036
-741,356	14,867	-0,320	-0,185
-740,342	40,616	0,156	0,104
-739,327	-163,271	-0,343	0,012
-738,312	800,000	0,046	-0,129
-737,298	-36,170	-0,193	0,077
-736,283	-126,651	0,089	-0,010
-735,269	89,971	-0,204	0,169
-734,254	-22,632	-0,021	-0,009
-733,239	-36,778	-0,380	-0,150
-732,225	-159,870	0,226	0,009
-731,210	155,794	-0,074	-0,076
-730,196	800,000	-0,024	0,067
-729,181	121,685	-0,081	-0,075
-728,167	147,933	-0,043	-0,042
-727,152	-62,294	-0,121	0,037
-726,137	-147,088	-0,196	0,012
-725,123	-200,000	-0,004	0,047
-724,108	220,752	-0,039	-0,046
-723,094	800,000	-0,078	-0,184
-722,079	-76,270	-0,136	0,035
-721,064	13,320	-0,037	0,021
-720,050	145,534	-0,143	0,141
-719,035	109,399	-0,106	0,094
-718,021	27,089	0,042	-0,026
-717,006	-117,298	0,040	0,005
-715,991	-154,609	-0,114	0,006
-714,977	164,988	0,038	-0,040
-713,962	48,581	0,044	-0,030
-712,948	800,000	-0,035	0,103
-711,933	-118,844	0,061	0,008
-710,918	-200,000	0,012	-0,089
-709,904	800,000	-0,056	-0,125
-708,889	-88,971	0,150	-0,032
-707,875	518,174	0,019	-0,033
-706,860	800,000	-0,047	-0,151
-705,845	-86,252	0,084	-0,019
-704,831	435,411	0,044	0,071
-703,816	-69,714	0,052	0,015
-702,802	-76,623	-0,064	-0,016
-701,787	800,000	0,015	-0,047
-700,772	-129,925	-0,039	-0,004
-699,758	63,140	0,123	-0,091
-698,743	-200,000	0,011	-0,102
-697,729	-93,380	0,184	0,037
-696,714	-14,374	-0,023	-0,011
-695,699	-200,000	0,013	-0,085
-694,685	758,678	0,039	-0,079
-693,670	-200,000	-0,021	-0,098
-692,656	-200,000	-0,005	-0,019
-691,641	-200,000	0,050	0,235
-690,627	-106,887	0,097	0,016
-689,612	18,182	-0,071	0,042
-688,597	346,213	-0,070	-0,101
-687,583	800,000	-0,057	-0,125
-686,568	-134,777	-0,070	0,006
-685,554	-165,622	-0,034	-0,001
-684,539	523,238	0,063	0,109
-683,524	-76,274	-0,058	-0,015
-682,510	-200,000	-0,017	0,062
-681,495	-98,541	-0,091	0,017
-680,481	643,863	-0,042	-0,079
-679,466	-200,000	0,019	-0,072
-678,451	59,594	-0,092	-0,067
-677,437	-70,363	-0,057	-0,016
-676,422	-200,000	0,003	0,068
-675,408	-200,000	0,005	0,170
-674,393	16,287	-0,082	-0,047
-673,378	-124,370	-0,107	0,012
-672,364	-76,168	0,042	-0,011
-671,349	-29,597	0,127	0,053
-670,335	58,074	0,170	0,122
-669,320	104,449	0,107	0,093
-668,305	-140,027	-0,074	-0,006
-667,291	-28,710	0,097	0,041
-666,276	590,421	0,032	0,059
-665,262	800,000	-0,060	-0,167
-664,247	-163,317	-0,023	-0,001
-663,232	370,290	0,042	-0,063
-662,218	262,179	0,034	-0,044
-661,203	-116,383	-0,030	0,004
-660,189	-120,613	-0,057	0,007
-659,174	-133,735	-0,169	-0,015
-658,159	263,405	-0,083	-0,106
-657,145	-22,135	0,039	-0,017
-656,130	145,362	0,099	-0,098
-655,116	787,771	0,018	-0,036
-654,101	430,961	0,016	-0,026
-653,086	-73,359	-0,042	-0,011
-652,072	800,000	0,026	-0,070
-651,057	426,896	0,038	0,060
-650,043	-8,775	-0,253	-0,124
-649,028	192,679	-0,097	-0,108
-648,014	-90,799	-0,052	-0,011
-646,999	220,377	0,003	-0,003
-645,984	800,000	-0,026	0,059
-644,970	-200,000	0,014	0,124
-643,955	98,127	-0,206	-0,175
-642,941	-93,670	-0,098	0,020
-641,926	800,000	-0,044	-0,098
-640,911	80,326	-0,114	-0,091
-639,897	143,768	0,076	0,075
-638,882	471,240	0,016	0,027
-637,868	6,407	-0,073	0,040
-636,853	64,117	0,011	0,008
-635,838	399,780	0,074	-0,114
-634,824	523,803	0,047	-0,081
-633,809	-200,000	0,012	0,114
-632,795	-200,000	0,008	0,036
-631,780	-200,000	0,000	0,102
-630,765	-50,135	-0,093	-0,032
-629,751	148,675	0,090	-0,089
-628,736	-200,000	-0,051	-0,193
-627,722	-200,000	-0,037	-0,173
-626,707	274,594	0,051	-0,066
-625,692	-83,355	0,146	-0,034
-624,678	-49,275	-0,123	0,043
-623,663	274,257	0,089	-0,116
-622,649	-200,000	-0,029	-0,125
-621,634	-200,000	-0,010	0,035
-620,619	129,514	0,048	0,045
-619,605	800,000	0,041	-0,090
-618,590	-46,743	0,028	-0,010
-617,576	-200,000	0,022	0,101
-616,561	495,093	-0,032	0,053
-615,546	58,792	0,030	0,022
-614,532	-57,316	-0,118	-0,038
-613,517	399,775	0,066	-0,102
-612,503	242,482	0,056	-0,069
-611,488	-200,000	0,031	0,128
-610,474	-200,000	-0,024	0,223
-609,459	800,000	0,034	-0,083
-608,444	146,356	-0,112	-0,111
-607,430	173,936	-0,094	0,100
-606,415	-118,690	0,042	0,005
-605,401	-5,407	0,110	0,055
-604,386	478,544	-0,056	-0,094
-603,371	-170,392	0,045	-0,001
-602,357	800,000	-0,063	0,141
-601,342	-82,844	-0,116	-0,027
-600,328	505,666	-0,022	-0,038
-599,313	800,000	-0,047	-0,103
-598,298	-200,000	-0,036	0,117
-597,284	-23,743	0,099	0,043
-596,269	414,440	-0,036	0,057
-595,255	795,433	-0,032	0,065
-594,240	800,000	0,029	0,070
-593,225	-14,152	0,020	-0,009
-592,211	72,245	-0,094	-0,072
-591,196	-70,226	0,099	-0,028
-590,182	-38,421	0,019	-0,007
-589,167	-200,000	-0,015	-0,137
-588,152	-25,337	0,030	0,013
-587,138	-200,000	-0,008	0,108
-586,123	800,000	0,034	0,109
-585,109	523,484	-0,056	-0,098
-584,094	428,858	0,082	-0,130
-583,079	-31,894	0,058	0,024
-582,065	98,954	0,037	-0,031
-581,050	-200,000	0,008	0,179
-580,036	245,555	-0,064	-0,080
-579,021	197,404	-0,027	-0,030
-578,006	-200,000	0,047	-0,234
-576,992	39,797	-0,024	-0,016
-575,977	-31,524	0,062	-0,025
-574,963	514,355	-0,032	0,055
-573,948	-200,000	-0,012	0,138
-572,934	-140,893	0,014	0,001
-571,919	99,720	-0,079	-0,068
-570,904	-200,000	-0,017	-0,123
-569,890	800,000	0,020	-0,042
-568,875	139,720	0,012	0,011
-567,861	246,179	-0,042	-0,052
-566,846	-100,893	0,174	-0,031
-565,831	800,000	-0,061	-0,169
-564,817	-81,929	0,017	-0,004
-563,802	108,137	-0,120	0,106
-562,788	800,000	0,035	-0,072
-561,773	800,000	-0,006	-0,015
-560,758	-200,000	0,004	0,047
-559,744	-13,920	0,067	0,032
-558,729	91,812	0,042	0,035
-557,715	-200,000	-0,006	-0,084
-556,700	39,987	0,108	-0,071
-555,685	-95,060	-0,161	-0,032
-554,671	800,000	-0,031	0,075
-553,656	300,289	-0,027	-0,037
-552,642	-200,000	0,013	-0,129
-551,627	-200,000	-0,001	-0,060
-550,612	-200,000	-0,015	0,099
-549,598	88,641	-0,063	0,051
-548,583	351,826	-0,154	-0,225
-547,569	249,077	-0,110	-0,137
-546,554	-141,413	0,123	-0,009
-545,539	59,436	0,016	0,011
-544,525	800,000	0,030	-0,089
-543,510	-200,000	-0,011	0,094
-542,496	-137,914	-0,138	0,011
-541,481	-200,000	-0,019	-0,119
-540,466	254,455	0,146	0,183
-539,452	800,000	0,076	0,161
-538,437	800,000	0,007	0,018
-537,423	800,000	0,038	0,095
-536,408	-200,000	0,015	0,080
-535,393	-200,000	0,006	-0,079
-534,379	800,000	0,048	0,097
-533,364	-200,000	-0,028	0,139
-532,350	456,322	0,024	-0,039
-531,335	269,437	0,116	0,150
-530,321	-200,000	0,003	0,096
-529,306	-31,433	-0,102	-0,042
-528,291	-200,000	0,003	0,127
-527,277	800,000	-0,020	0,060
-526,262	-200,000	0,020	-0,105
-525,248	-141,542	0,012	-0,001
-524,233	800,000	0,061	0,126
-523,218	-141,349	0,069	0,005
-522,204	-136,025	-0,201	-0,017
-521,189	109,826	0,040	0,035
-520,175	800,000	-0,036	-0,087
-519,160	-54,453	-0,062	0,021
-518,145	253,217	0,013	-0,016
-517,131	800,000	0,037	0,091
-516,116	94,590	0,090	0,075
-515,102	162,485	-0,030	-0,031
-514,087	-200,000	-0,005	-0,035
-513,072	-144,428	-0,186	0,012
-512,058	-77,954	-0,128	0,032
-511,043	77,313	-0,075	0,058
-510,029	-110,758	0,069	-0,010
-509,014	112,535	-0,084	-0,075
-507,999	800,000	0,010	0,029
-506,985	64,244	-0,017	-0,012
-505,970	365,120	-0,082	-0,122
-504,956	800,000	0,024	-0,076
-503,941	45,466	-0,085	0,058
-502,926	24,797	-0,069	0,042
-501,912	291,313	-0,082	-0,110
-500,897	800,000	-0,057	-0,150
-499,883	-11,888	0,043	0,021
-498,868	104,609	-0,043	-0,037
-497,853	-50,361	-0,148	0,051
-496,839	-200,000	0,002	-0,009
-495,824	414,797	-0,035	0,055
-494,810	-8,628	0,133	-0,065
-493,795	-93,404	-0,042	-0,008
-492,781	28,940	-0,142	0,088
-491,766	606,988	0,019	-0,035
-490,751	107,216	0,029	-0,026
-489,737	-57,899	-0,117	0,037
-488,722	-7,468	0,088	0,044
-487,708	71,907	0,057	0,043
-486,693	-200,000	-0,008	0,059
-485,678	-200,000	-0,003	-0,060
-484,664	556,964	0,012	-0,021
-483,649	500,520	-0,032	-0,055
-482,635	-57,283	0,078	0,025
-481,620	-131,272	0,102	-0,010
-480,605	500,573	0,014	0,024
-479,591	800,000	-0,019	-0,049
-478,576	127,671	-0,026	-0,024
-477,562	259,521	-0,068	0,087
-476,547	-7,417	0,067	-0,033
-475,532	69,348	-0,075	-0,056
-474,518	415,731	0,080	0,125
-473,503	224,496	-0,061	-0,072
-472,489	193,916	0,081	-0,090
-471,474	-148,274	-0,025	-0,001
-470,459	800,000	0,048	-0,117
-469,445	-200,000	-0,010	-0,134
-468,430	293,189	0,063	-0,084
-467,416	26,825	-0,105	0,064
-466,401	66,772	0,111	0,083
-465,386	-73,030	0,097	-0,026
-464,372	181,434	-0,090	0,097
-463,357	627,462	-0,058	-0,108
-462,343	-184,344	0,118	-0,001
-461,328	-200,000	0,038	-0,126
-460,313	49,762	-0,023	0,016
-459,299	-133,240	-0,081	0,007
-458,284	270,985	-0,008	-0,011
-457,270	-32,332	-0,028	-0,011
-456,255	800,000	0,022	0,049
-455,241	202,216	-0,123	0,138
-454,226	18,022	-0,017	0,010
-453,211	-110,395	-0,090	0,014
-452,197	-65,515	0,087	0,025
-451,182	-12,164	-0,014	-0,007
-450,168	800,000	0,025	0,052
-449,153	417,748	-0,068	-0,106
-448,138	482,992	-0,072	-0,120
-447,124	137,139	-0,071	-0,067
-446,109	-200,000	0,009	0,047
-445,095	45,971	-0,092	0,062
-444,080	-84,676	-0,053	0,012
-443,065	-200,000	-0,022	-0,106
-442,051	304,584	-0,051	-0,069
-441,036	50,200	-0,061	-0,042
-440,022	70,468	-0,102	-0,077
-439,007	-200,000	-0,011	-0,140
-437,992	-94,251	-0,057	0,011
-436,978	-200,000	-0,009	0,059
-435,963	-200,000	-0,018	0,069
-434,949	800,000	0,023	0,058
-433,934	-61,270	-0,059	0,018
-432,919	-87,604	-0,105	-0,023
-431,905	-200,000	0,007	0,033
-430,890	-141,387	0,085	0,006
-429,876	-27,183	0,094	0,040
-428,861	118,599	0,082	0,074
-427,846	-200,000	-0,042	0,156
-426,832	-14,834	-0,070	0,033
-425,817	-113,849	0,019	0,003
-424,803	22,908	-0,081	0,048
-423,788	81,309	0,080	-0,063
-422,773	800,000	-0,033	-0,099
-421,759	800,000	0,019	0,062
-420,744	-165,094	-0,063	0,002
-419,730	-169,049	0,142	0,004
-418,715	401,120	-0,045	-0,070
-417,701	-200,000	0,018	-0,077
-416,686	800,000	0,076	0,186
-415,671	-117,176	0,113	0,015
-414,657	5,821	-0,120	0,065
-413,642	-200,000	-0,021	-0,086
-412,628	-200,000	0,012	-0,133
-411,613	-200,000	-0,043	-0,221
-410,598	800,000	0,041	0,118
-409,584	606,653	0,030	-0,056
-408,569	57,867	0,045	0,032
-407,555	192,288	0,088	0,097
-406,540	-57,868	0,041	-0,013
-405,525	122,627	0,069	-0,063
-404,511	-129,851	0,166	-0,016
-403,496	11,214	0,110	-0,061
-402,482	291,263	0,078	0,104
-401,467	-133,440	0,048	-0,004
-400,452	-120,155	0,113	0,014
-399,438	-43,537	0,092	0,034
-398,423	-200,000	-0,039	-0,183
-397,409	8,122	-0,141	-0,077
-396,394	-200,000	0,004	-0,035
-395,379	800,000	0,004	0,011
-394,365	257,294	-0,048	-0,061
-393,350	800,000	0,029	-0,062
-392,336	205,989	0,069	0,079
-391,321	772,557	0,017	0,034
-390,306	-94,562	-0,215	-0,042
-389,292	94,888	-0,065	0,054
-388,277	133,106	0,078	0,074
-387,263	800,000	0,056	0,158
-386,248	-12,543	0,118	0,056
-385,233	30,352	0,123	0,077
-384,219	-98,870	-0,071	-0,013
-383,204	27,685	-0,089	-0,055
-382,190	-200,000	-0,012	-0,088
-381,175	303,527	-0,070	-0,095
-380,160	-200,000	-0,017	0,140
-379,146	115,340	0,044	0,039
-378,131	366,240	0,116	0,171
-377,117	201,949	-0,097	0,110
-376,102	246,004	0,032	-0,040
-375,088	-176,660	0,106	-0,002
-374,073	-200,000	-0,003	0,093
-373,058	39,696	-0,055	-0,036
-372,044	-76,411	0,143	0,036
-371,029	800,000	0,020	0,058
-370,015	244,890	-0,113	-0,139
-369,000	178,491	0,169	-0,180
-367,985	-200,000	-0,036	-0,155
-366,971	142,648	-0,064	0,062
-365,956	-200,000	0,016	0,239
-364,942	213,656	0,069	0,080
-363,927	-200,000	0,023	0,077
-362,912	-200,000	0,005	0,057
-361,898	17,454	-0,116	-0,067
-360,883	154,666	0,059	0,059
-359,869	-200,000	0,003	-0,114
-358,854	-200,000	-0,005	0,028
-357,839	57,531	0,067	0,048
-356,825	-102,034	-0,111	-0,019
-355,810	-109,718	0,091	-0,014
-354,796	-139,050	-0,224	0,017
-353,781	-200,000	-0,026	0,089
-352,766	-122,786	0,144	-0,017
-351,752	-131,844	0,067	-0,006
-350,737	109,056	-0,104	-0,091
-349,723	221,126	-0,053	0,062
-348,708	-91,286	0,077	0,016
-347,693	-13,801	0,079	-0,037
-346,679	288,804	-0,071	-0,094
-345,664	-200,000	0,000	0,015
-344,650	-200,000	0,046	0,164
-343,635	-31,019	0,188	0,077
-342,620	-200,000	0,028	0,124
-341,606	568,914	-0,050	0,088
-340,591	42,811	-0,034	-0,022
-339,577	-92,586	-0,207	-0,042
-338,562	-114,748	0,030	-0,004
-337,548	177,143	0,040	-0,042
-336,533	191,621	-0,044	-0,048
-335,518	800,000	0,046	0,099
-334,504	15,515	0,026	-0,015
-333,489	43,517	0,055	0,036
-332,475	-134,967	0,066	0,006
-331,460	-200,000	0,011	-0,073
-330,445	757,036	-0,044	0,088
-329,431	19,038	0,025	-0,015
-328,416	-200,000	0,054	0,253
-327,402	800,000	0,064	0,160
-326,387	-34,927	0,107	0,042
-325,372	800,000	-0,028	-0,075
-324,358	800,000	-0,028	-0,073
-323,343	-200,000	-0,050	-0,180
-322,329	118,037	0,085	-0,076
-321,314	557,645	0,061	0,107
-320,299	224,258	-0,052	-0,061
-319,285	-200,000	-0,000	-0,093
-318,270	161,205	-0,099	0,101
-317,256	-200,000	0,009	-0,115
-316,241	-200,000	-0,023	-0,098
-315,226	122,129	0,031	0,028
-314,212	429,437	0,081	-0,127
-313,197	-117,809	0,157	0,020
-312,183	-24,884	-0,047	-0,020
-311,168	503,207	-0,049	-0,083
-310,153	151,610	0,026	0,025
-309,139	-92,616	-0,092	-0,019
-308,124	800,000	-0,021	-0,045
-307,110	-160,887	0,016	0,001
-306,095	-200,000	-0,007	0,022
-305,080	-103,901	-0,096	-0,016
-304,066	156,701	-0,085	-0,085
-303,051	110,330	-0,052	-0,046
-302,037	-16,314	-0,106	-0,049
-301,022	238,780	0,007	0,009
-300,008	240,849	0,022	0,027
-298,993	-28,619	-0,030	0,013
-297,978	-34,168	0,166	0,066
-296,964	-141,063	-0,183	-0,013
-295,949	746,943	-0,025	0,048
-294,935	-200,000	0,004	0,059
-293,920	800,000	-0,035	-0,077
-292,905	-7,331	-0,070	-0,034
-291,891	63,096	0,158	0,115
-290,876	121,939	0,081	0,073
-289,862	-200,000	0,008	-0,071
-288,847	121,475	0,055	-0,050
-287,832	184,110	0,025	-0,027
-286,818	-200,000	0,022	0,090
-285,803	395,528	-0,039	0,059
-284,789	181,311	-0,075	-0,080
-283,774	86,378	0,103	0,082
-282,759	20,656	-0,046	0,027
-281,745	79,612	0,167	-0,130
-280,730	-200,000	-0,000	-0,223
-279,716	215,026	0,056	0,064
-278,701	-74,272	0,124	-0,032
-277,686	33,799	0,103	0,065
-276,672	52,853	0,047	-0,033
-275,657	-200,000	-0,024	-0,144
-274,643	800,000	-0,042	-0,091
-273,628	252,961	0,089	-0,110
-272,613	-22,600	-0,073	-0,032
-271,599	800,000	-0,057	0,137
-270,584	102,373	0,087	-0,074
-269,570	476,078	-0,026	-0,043
-268,555	-59,283	0,107	-0,033
-267,540	-200,000	0,008	-0,047
-266,526	-41,010	-0,029	0,011
-265,511	-200,000	-0,013	-0,085
-264,497	-94,776	0,106	-0,021
-263,482	-200,000	-0,009	0,102
-262,467	355,198	-0,041	0,059
-261,453	90,236	-0,051	-0,041
-260,438	202,695	-0,029	-0,033
-259,424	800,000	0,022	-0,049
-258,409	379,106	-0,059	-0,088
-257,395	-200,000	-0,003	-0,120
-256,380	49,619	0,026	-0,018
-255,365	-33,451	0,130	-0,052
-254,351	-12,755	0,138	0,065
-253,336	800,000	0,039	0,094
-252,322	-56,423	-0,130	-0,042
-251,307	52,003	0,023	-0,016
-250,292	0,624	-0,097	0,050
-249,278	-35,919	-0,092	0,036
-248,263	-80,213	-0,122	0,029
-247,249	-200,000	0,015	-0,051
-246,234	-200,000	0,005	-0,083
-245,219	-35,941	-0,111	0,043
-244,205	800,000	0,062	0,171
-243,190	-118,032	-0,058	-0,007
-242,176	-42,225	0,060	0,022
-241,161	86,100	0,063	-0,050
-240,146	-200,000	-0,012	0,059
-239,132	800,000	-0,036	-0,098
-238,117	123,017	0,150	-0,136
-237,103	800,000	0,018	0,037
-236,088	800,000	-0,021	-0,052
-235,073	800,000	0,040	-0,114
-234,059	-34,107	0,063	-0,025
-233,044	-200,000	0,029	0,129
-232,030	476,713	-0,021	-0,035
-231,015	800,000	0,031	-0,067
-230,000	358,061	-0,079	-0,115
-228,986	-200,000	-0,000	0,038
-227,971	348,703	0,045	0,065
-226,957	776,890	-0,004	0,009
-225,942	800,000	0,054	0,163
-224,927	237,427	-0,088	0,106
-223,913	88,552	-0,078	-0,063
-222,898	-84,617	-0,095	-0,022
-221,884	-200,000	0,056	-0,000
-220,869	-141,799	-0,165	0,012
-219,855	-70,006	0,148	0,041
-218,840	800,000	0,034	0,095
-217,825	800,000	0,031	0,083
-216,811	-187,124	-0,091	0,001
-215,796	800,000	0,042	0,115
-214,782	-53,955	-0,105	-0,035
-213,767	21,732	0,018	0,010
-212,752	449,708	-0,051	0,082
-211,738	587,800	-0,021	0,038
-210,723	110,030	0,041	0,035
-209,709	-56,091	0,062	-0,020
-208,694	800,000	-0,039	-0,115
-207,679	800,000	-0,023	0,055
-206,665	-56,876	0,124	-0,039
-205,650	44,098	-0,045	-0,030
-204,636	-200,000	0,021	0,124
-203,621	24,714	0,046	0,028
-202,606	800,000	-0,061	-0,173
-201,592	82,038	-0,097	-0,076
-200,577	-96,379	0,064	0,012
-199,563	-200,000	0,007	-0,094
-198,548	-43,855	0,066	-0,024
-197,533	-200,000	0,005	0,088
-196,519	800,000	0,077	0,190
-195,504	12,119	-0,101	-0,056
-194,490	-31,370	-0,096	-0,039
-193,475	-93,469	0,075	-0,015
-192,460	27,261	-0,034	-0,021
-191,446	-200,000	0,017	0,093
-190,431	-197,761	0,081	0,000
-189,417	181,215	0,074	0,078
-188,402	-200,000	0,004	-0,090
-187,387	-200,000	-0,002	0,063
-186,373	25,646	-0,087	-0,052
-185,358	-200,000	0,002	0,055
-184,344	214,810	0,093	0,107
-183,329	-49,851	0,149	0,051
-182,315	-200,000	0,042	0,134
-181,300	800,000	-0,055	0,140
-180,285	90,856	0,117	0,095
-179,271	-200,000	-0,003	0,204
-178,256	-24,241	-0,087	0,037
-177,242	800,000	0,055	0,151
-176,227	-99,669	0,164	-0,030
-175,212	-200,000	-0,075	0,000
-174,198	800,000	0,041	0,112
-173,183	-200,000	0,023	0,104
-172,169	-22,332	-0,083	-0,036
-171,154	32,399	-0,129	-0,081
-170,139	-200,000	-0,029	-0,116
-169,125	233,472	0,070	0,083
-168,110	800,000	-0,052	0,161
-167,096	-200,000	0,001	-0,057
-166,081	-200,000	-0,012	-0,054
-165,066	-200,000	0,013	0,048
-164,052	25,543	0,036	-0,022
-163,037	800,000	-0,022	-0,056
-162,023	32,639	-0,061	0,038
-161,008	-156,829	0,107	-0,005
-159,993	156,121	0,052	0,052
-158,979	102,918	-0,079	-0,067
-157,964	188,846	-0,048	0,052
-156,950	59,356	-0,050	-0,036
-155,935	-200,000	-0,011	0,077
-154,920	13,385	0,018	-0,010
-153,906	-168,373	0,128	0,003
-152,891	28,712	-0,046	0,028
-151,877	-23,726	-0,024	-0,011
-150,862	-23,119	-0,065	-0,028
-149,847	285,575	-0,023	-0,030
-148,833	-200,000	-0,010	0,061
-147,818	180,905	0,118	-0,125
-146,804	800,000	0,020	0,055
-145,789	-116,571	-0,075	0,010
-144,775	-200,000	-0,012	-0,076
-143,760	-165,665	-0,098	-0,003
-142,745	-200,000	-0,015	0,064
-141,731	-200,000	-0,010	0,184
-140,716	150,964	0,105	0,104
-139,702	-200,000	-0,006	0,025
-138,687	599,039	-0,023	0,041
-137,672	-197,411	-0,054	0,000
-136,658	615,079	-0,092	-0,167
-135,643	800,000	-0,028	0,070
-134,629	-53,700	-0,110	-0,036
-133,614	-134,585	0,057	-0,005
-132,599	-200,000	-0,004	0,023
-131,585	34,094	0,042	-0,026
-130,570	54,077	-0,086	-0,060
-129,556	-0,823	-0,070	-0,036
-128,541	-200,000	-0,010	-0,111
-127,526	151,624	-0,111	-0,109
-126,512	-35,034	0,104	0,041
-125,497	-200,000	-0,014	0,063
-124,483	-71,289	-0,099	-0,027
-123,468	489,064	-0,093	0,154
-122,453	-200,000	-0,057	0,198
-121,439	138,612	-0,092	-0,087
-120,424	-200,000	0,011	-0,090
-119,410	-200,000	-0,004	-0,025
-118,395	-67,070	0,077	-0,022
-117,380	256,563	0,122	0,152
-116,366	-12,569	-0,156	0,073
-115,351	27,684	-0,139	-0,084
-114,337	-200,000	-0,038	-0,130
-113,322	299,987	-0,026	-0,035
-112,307	-200,000	-0,013	0,046
-111,293	-200,000	-0,014	0,174
-110,278	-200,000	-0,044	0,155
-109,264	-177,800	0,139	-0,002
-108,249	244,844	0,011	0,013
-107,234	412,792	0,053	-0,082
-106,220	83,614	-0,088	0,069
-105,205	-46,444	-0,144	-0,051
-104,191	-172,483	-0,032	0,001
-103,176	-28,723	0,120	0,050
-102,162	141,279	-0,076	-0,072
-101,147	-6,966	-0,048	0,023
-100,132	140,204	-0,051	-0,048
-99,118	84,070	-0,115	-0,090
-98,103	800,000	-0,037	0,086
-97,089	-79,487	-0,091	-0,022
-96,074	161,617	0,070	0,070
-95,059	-20,018	-0,061	0,027
-94,045	800,000	0,038	-0,101
-93,030	-200,000	0,032	-0,134
-92,016	-200,000	-0,035	-0,187
-91,001	-75,351	-0,067	0,017
-89,986	-113,631	-0,212	0,030
-88,972	-98,489	-0,073	0,013
-87,957	228,405	0,044	0,051
-86,943	457,026	-0,034	-0,055
-85,928	-92,205	-0,109	0,022
-84,913	-155,797	-0,041	0,002
-83,899	-122,686	-0,104	0,012
-82,884	372,988	-0,035	-0,052
-81,870	260,281	0,049	0,062
-80,855	115,375	0,082	0,072
-79,840	-62,114	-0,110	0,033
-78,826	208,703	0,006	-0,006
-77,811	-200,000	-0,004	-0,103
-76,797	104,922	0,076	-0,064
-75,782	-200,000	-0,028	-0,094
-74,767	114,130	-0,045	0,040
-73,753	-104,080	0,132	-0,022
-72,738	-200,000	0,000	-0,045
-71,724	445,537	-0,078	-0,123
-70,709	-200,000	0,022	-0,129
-69,694	147,452	-0,054	-0,052
-68,680	800,000	0,030	-0,081
-67,665	-38,581	0,085	0,032
-66,651	580,184	0,033	-0,058
-65,636	-200,000	0,018	-0,085
-64,622	54,628	0,066	-0,046
-63,607	-33,478	-0,118	-0,047
-62,592	574,885	-0,067	-0,118
-61,578	800,000	0,020	-0,045
-60,563	-200,000	-0,012	-0,065
-59,549	-68,907	0,104	0,029
-58,534	-14,981	-1,772	-0,815
-57,519	800,000	-0,357	-0,996
-56,505	-200,000	-1,196	-4,916
-55,490	-105,320	0,653	0,106
-54,476	800,000	5,280	12,313
-53,461	-200,000	16,755	273,270
-52,446	800,000	713,485	2200,759
-51,432	539,837	1626,508	2798,063
-50,417	114,871	1622,707	1424,845
-49,403	76,848	1283,878	980,248
-48,388	34,191	1031,031	645,795
-47,373	20,540	993,843	577,213
-46,359	19,466	981,998	566,763
-45,344	17,412	977,958	557,644
-44,330	17,572	976,529	557,334
-43,315	17,247	974,824	555,270
-42,300	17,166	973,806	554,404
-41,286	17,140	972,850	553,750
-40,271	17,149	971,890	553,213
-39,257	17,167	971,112	552,807
-38,242	17,150	970,299	552,265
-37,227	17,179	969,346	551,798
-36,213	17,075	968,657	551,045
-35,198	17,088	967,682	550,509
-34,184	17,132	966,865	550,166
-33,169	17,092	965,957	549,497
-32,154	17,192	964,982	549,246
-31,140	17,187	964,209	548,768
-30,125	17,161	963,451	548,232
-29,111	17,183	962,581	547,784
-28,096	17,177	961,934	547,375
-27,082	17,098	961,280	546,727
-26,067	17,100	960,515	546,275
-25,052	17,129	959,572	545,811
-24,038	17,078	959,076	545,341
-23,023	17,152	958,183	545,053
-22,009	17,120	957,883	544,757
-20,994	17,090	957,220	544,259
-19,979	17,099	956,504	543,862
-18,965	17,090	955,841	543,433
-17,950	17,129	955,090	543,110
-16,936	17,010	954,405	542,318
-15,921	17,002	953,963	542,019
-14,906	16,974	953,171	541,458
-13,892	16,995	952,351	541,036
-12,877	16,993	951,717	540,650
-11,863	16,929	951,141	540,095
-10,848	16,988	950,545	539,925
-9,833	17,140	949,955	540,055
-8,819	17,041	949,476	539,445
-7,804	17,021	948,795	538,971
-6,790	16,966	948,429	538,566
-5,775	17,089	947,814	538,588
-4,760	17,035	947,046	537,960
-3,746	17,039	946,360	537,562
-2,731	16,803	945,895	536,522
-1,717	16,827	945,286	536,233
-0,702	16,790	944,489	535,643
0,313	16,655	943,851	535,658
1,327	19,758	942,154	544,494
2,342	28,855	797,573	485,174
3,356	25,981	449,215	268,934
4,371	-2,858	295,915	148,249
5,386	-7,143	277,323	134,850
6,400	-8,116	271,571	131,135
7,415	-8,518	269,313	129,662
8,429	-8,529	267,921	128,970
9,444	-8,730	267,097	128,377
10,459	-8,876	266,329	127,863
11,473	-8,780	265,662	127,619
12,488	-9,040	265,250	127,174
13,502	-9,234	264,533	126,642
14,517	-9,390	264,112	126,288
15,531	-9,302	263,797	126,206
16,546	-9,310	263,316	125,957
17,561	-9,405	262,864	125,644
18,575	-9,461	262,685	125,496
19,590	-9,407	262,116	125,262
20,604	-9,124	261,894	125,399
21,619	-9,599	261,629	124,835
22,634	-9,511	261,092	124,646
23,648	-9,579	260,958	124,511
24,663	-9,524	260,666	124,409
25,677	-9,635	260,316	124,133
26,692	-9,635	260,094	124,015
27,707	-9,404	259,813	124,076
28,721	-9,666	259,646	123,751
29,736	-9,688	259,490	123,647
30,750	-9,529	259,084	123,584
31,765	-9,623	258,832	123,369
32,780	-9,579	258,529	123,252
33,794	-9,598	258,374	123,151
34,809	-9,525	258,052	123,051
35,823	-9,695	257,888	122,812
36,838	-9,580	257,583	122,757
37,853	-9,855	257,401	122,417
38,867	-9,679	257,091	122,414
39,882	-9,760	257,101	122,336
40,896	-9,598	256,654	122,255
41,911	-9,770	256,508	122,023
42,926	-9,818	256,161	121,805
43,940	-9,729	255,891	121,744
44,955	-9,812	255,911	121,669
45,969	-9,762	255,524	121,518
46,984	-10,087	255,351	121,141
47,999	-10,307	255,105	120,822
49,013	-10,378	254,660	120,539
50,028	-10,611	254,372	120,189
51,042	-10,666	254,160	120,030
52,057	-10,687	253,943	119,899
53,071	-10,734	253,923	119,837
54,086	-10,476	253,558	119,879
55,101	-10,289	253,434	119,971
56,115	-10,089	253,405	120,120
57,130	-9,510	253,264	120,544
58,144	-9,253	253,223	120,737
59,159	-9,167	252,788	120,592
60,174	-9,247	252,760	120,499
61,188	-9,393	252,608	120,289
62,203	-9,351	252,335	120,185
63,217	-9,423	252,057	119,980
64,232	-9,555	251,970	119,814
65,247	-9,288	251,728	119,919
66,261	-9,361	251,425	119,701
67,276	-9,704	251,122	119,252
68,290	-9,868	250,840	118,967
69,305	-9,937	250,588	118,777
70,320	-10,057	250,330	118,542
71,334	-9,611	250,339	118,917
72,349	-9,440	250,201	118,986
73,363	-9,285	249,901	118,966
74,378	-9,453	249,964	118,842
75,393	-9,428	249,548	118,654
76,407	-9,308	249,289	118,623
77,422	-9,634	249,243	118,314
78,436	-9,387	249,069	118,430
79,451	-9,451	248,796	118,235
80,466	-9,521	248,444	117,998
81,480	-9,823	248,116	117,576
82,495	-9,774	247,924	117,516
83,509	-9,954	247,955	117,368
84,524	-9,714	247,710	117,445
85,539	-9,874	247,373	117,139
86,553	-9,959	247,129	116,941
87,568	-9,898	246,988	116,916
88,582	-10,011	246,821	116,731
89,597	-10,056	246,577	116,568
90,611	-9,989	246,630	116,638
91,626	-9,692	246,461	116,798
92,641	-9,462	246,139	116,828
93,655	-9,668	245,974	116,567
94,670	-9,736	245,728	116,382
95,684	-9,790	245,589	116,261
96,699	-9,645	245,273	116,223
97,714	-9,836	245,279	116,055
98,728	-9,954	245,022	115,824
99,743	-10,096	244,758	115,571
100,757	-10,106	244,596	115,476
101,772	-10,019	244,408	115,449
102,787	-9,786	244,414	115,635
103,801	-9,717	244,089	115,529
104,816	-9,569	243,831	115,519
105,830	-9,454	243,787	115,583
106,845	-9,537	243,746	115,485
107,860	-9,537	243,522	115,369
108,874	-9,522	243,225	115,230
109,889	-9,730	243,025	114,953
110,903	-9,649	242,806	114,906
111,918	-9,678	242,636	114,791
112,933	-9,702	242,524	114,708
113,947	-9,680	242,259	114,591
114,962	-9,697	242,203	114,540
115,976	-9,523	242,003	114,579
116,991	-9,610	241,828	114,414
118,006	-9,552	241,595	114,341
119,020	-9,483	241,583	114,382
120,035	-9,562	241,618	114,324
121,049	-9,491	241,280	114,212
122,064	-9,405	241,068	114,172
123,079	-9,523	240,889	113,981
124,093	-9,879	240,632	113,557
125,108	-9,880	240,343	113,410
126,122	-10,292	240,262	113,025
127,137	-10,168	239,943	112,966
128,151	-10,100	239,797	112,943
129,166	-9,855	239,725	113,098
130,181	-10,004	239,333	112,782
131,195	-9,977	239,171	112,717
132,210	-9,762	239,284	112,936
133,224	-9,573	238,945	112,919
134,239	-9,647	238,859	112,808
135,254	-9,583	238,669	112,760
136,268	-9,861	238,563	112,475
137,283	-10,062	238,077	112,073
138,297	-10,075	238,051	112,041
139,312	-10,007	237,804	111,970
140,327	-9,654	237,789	112,237
141,341	-9,115	237,738	112,638
142,356	-9,160	237,813	112,627
143,370	-9,136	237,469	112,473
144,385	-9,033	237,272	112,453
145,400	-9,059	237,178	112,377
146,414	-9,010	236,862	112,257
147,429	-9,375	236,805	111,927
148,443	-9,402	236,508	111,755
149,458	-9,117	236,289	111,870
150,473	-9,212	236,285	111,782
151,487	-9,267	235,961	111,575
152,502	-9,270	235,783	111,478
153,516	-9,118	235,676	111,539
154,531	-8,999	235,383	111,485
155,546	-9,285	235,270	111,194
156,560	-9,309	234,999	111,036
157,575	-9,354	234,935	110,961
158,589	-9,456	234,889	110,848
159,604	-9,040	234,740	111,099
160,619	-8,812	234,608	111,207
161,633	-8,975	234,352	110,947
162,648	-8,994	234,280	110,888
163,662	-9,169	234,042	110,627
164,677	-9,280	233,855	110,440
165,692	-9,180	233,776	110,472
166,706	-9,006	233,510	110,474
167,721	-8,943	233,387	110,456
168,735	-8,973	233,301	110,382
169,750	-9,233	233,295	110,164
170,764	-9,057	233,029	110,167
171,779	-9,010	232,882	110,125
172,794	-8,981	232,771	110,085
173,808	-9,383	232,652	109,703
174,823	-9,687	232,166	109,225
175,837	-9,809	231,978	109,031
176,852	-9,483	231,999	109,287
177,867	-9,085	231,863	109,525
178,881	-9,235	231,877	109,405
179,896	-8,940	231,686	109,536
180,910	-9,139	231,493	109,279
181,925	-8,988	231,326	109,309
182,940	-8,967	231,205	109,258
183,954	-8,825	231,084	109,302
184,969	-8,828	230,936	109,220
185,983	-8,901	230,647	109,017
186,998	-8,837	230,566	109,018
188,013	-9,008	230,479	108,835
189,027	-8,781	230,152	108,847
190,042	-8,875	230,125	108,752
191,056	-8,780	230,009	108,760
192,071	-9,029	229,902	108,507
193,086	-8,771	229,740	108,621
194,100	-8,685	229,803	108,707
195,115	-8,285	229,462	108,846
196,129	-8,097	229,584	109,040
197,144	-3,646	230,740	113,042
198,159	0,221	231,991	116,661
199,173	3,000	232,901	119,281
200,188	3,590	232,809	119,683
201,202	3,313	232,736	119,419
202,217	3,672	232,341	119,485
203,232	3,731	232,439	119,571
204,246	3,868	232,134	119,510
205,261	3,843	232,163	119,495
206,275	3,949	231,989	119,477
207,290	4,023	231,900	119,478
208,304	4,122	231,650	119,415
209,319	4,112	231,510	119,324
210,334	4,107	231,283	119,193
211,348	3,787	230,969	118,773
212,363	3,286	230,804	118,291
213,377	3,206	230,625	118,127
214,392	3,098	230,463	117,950
215,407	3,326	230,328	118,046
216,421	3,240	230,230	117,919
217,436	3,256	230,097	117,853
218,450	3,262	229,658	117,622
219,465	2,921	229,600	117,319
220,480	2,921	229,458	117,237
221,494	3,183	229,301	117,347
222,509	3,414	229,144	117,433
223,523	3,296	229,091	117,305
224,538	2,863	228,967	116,899
225,553	3,179	228,718	117,003
226,567	3,332	228,720	117,111
227,582	3,561	228,608	117,219
228,596	3,583	228,510	117,174
229,611	3,237	228,224	116,753
230,626	3,179	227,993	116,581
231,640	3,240	227,869	116,554
232,655	3,343	227,896	116,635
233,669	3,634	227,889	116,842
234,684	3,567	227,740	116,705
235,699	3,586	227,379	116,524
236,713	3,359	227,235	116,268
237,728	3,303	227,099	116,145
238,742	3,185	226,811	115,898
239,757	3,363	226,653	115,942
240,772	3,321	226,472	115,807
241,786	3,427	226,397	115,839
242,801	3,164	226,430	115,646
243,815	3,769	226,441	116,099
244,830	3,520	226,138	115,745
245,844	3,147	225,984	115,375
246,859	3,445	225,745	115,467
247,874	3,597	225,627	115,511
248,888	3,519	225,580	115,417
249,903	3,411	225,277	115,171
250,917	3,215	225,223	114,986
251,932	3,114	225,039	114,806
252,947	3,130	224,908	114,741
253,961	3,339	224,588	114,724
254,976	3,208	224,575	114,609
255,990	3,340	224,459	114,638
257,005	3,863	224,200	114,887
258,020	3,539	224,205	114,637
259,034	3,562	224,198	114,640
260,049	3,564	223,951	114,506
261,063	3,395	223,820	114,302
262,078	3,646	223,660	114,398
263,093	3,878	223,519	114,488
264,107	3,707	223,352	114,265
265,122	3,708	223,287	114,222
266,136	3,984	223,044	114,292
267,151	3,833	223,003	114,150
268,166	3,440	222,726	113,706
269,180	3,066	222,534	113,321
270,195	3,223	222,228	113,271
271,209	2,991	222,294	113,122
272,224	3,208	222,153	113,201
273,239	3,375	222,037	113,255
274,253	3,344	221,733	113,067
275,268	3,201	221,556	112,861
276,282	3,004	221,542	112,699
277,297	3,158	221,187	112,622
278,312	2,856	221,231	112,412
279,326	3,360	221,011	112,660
280,341	3,305	220,841	112,524
281,355	3,407	220,819	112,577
282,370	3,103	220,728	112,297
283,384	2,915	220,408	111,987
284,399	2,948	220,181	111,886
285,414	2,819	220,228	111,805
286,428	3,144	220,195	112,017
287,443	3,157	219,987	111,910
288,457	3,453	219,936	112,091
289,472	3,332	219,615	111,828
290,487	2,947	219,332	111,394
291,501	2,863	219,282	111,297
292,516	2,756	219,232	111,184
293,530	2,934	218,945	111,158
294,545	3,119	218,890	111,255
295,560	3,177	218,833	111,258
296,574	3,194	218,597	111,141
297,589	3,111	218,575	111,059
298,603	3,399	218,498	111,219
299,618	3,283	218,279	111,014
300,633	3,349	218,145	110,983
301,647	3,421	218,095	111,000
302,662	3,668	217,912	111,076
303,676	3,543	217,796	110,917
304,691	3,498	217,706	110,829
305,706	3,612	217,494	110,793
306,720	3,586	217,338	110,685
307,735	3,235	217,197	110,350
308,749	3,229	216,936	110,203
309,764	3,380	216,887	110,278
310,779	3,607	216,868	110,421
311,793	3,390	216,703	110,171
312,808	3,406	216,548	110,095
313,822	3,520	216,374	110,077
314,837	3,343	216,186	109,845
315,852	2,867	216,098	109,449
316,866	3,337	216,090	109,772
317,881	3,301	215,856	109,618
318,895	3,223	215,631	109,438
319,910	3,225	215,547	109,387
320,925	3,510	215,205	109,407
321,939	3,138	215,064	109,061
322,954	2,997	215,174	109,006
323,968	3,342	215,005	109,157
324,983	3,466	214,879	109,171
325,997	3,584	214,690	109,150
327,012	3,199	214,630	108,836
328,027	3,505	214,318	108,885
329,041	3,552	214,381	108,940
330,056	3,672	214,278	108,964
331,070	3,272	214,093	108,576
332,085	3,057	213,887	108,310
333,100	3,084	213,653	108,201
334,114	3,478	213,478	108,381
335,129	3,336	213,440	108,251
336,143	3,382	213,261	108,183
337,158	3,025	213,303	107,943
338,173	3,173	213,154	107,963
339,187	2,979	212,898	107,686
340,202	3,030	212,684	107,604
341,216	2,770	212,616	107,378
342,231	3,044	212,452	107,478
343,246	2,991	212,296	107,352
344,260	2,945	212,259	107,292
345,275	3,167	212,059	107,337
346,289	3,458	212,074	107,539
347,304	3,396	211,915	107,405
348,319	3,321	211,687	107,228
349,333	3,120	211,632	107,049
350,348	3,309	211,527	107,119
351,362	3,619	211,344	107,234
352,377	3,496	211,216	107,073
353,392	3,361	211,039	106,880
354,406	3,471	210,857	106,854
355,421	195,578	1340,669	1423,302
356,435	156,211	1478,330	1423,317
