DTS Sentinel unit serial number:	SN410029Multiplexer serial number:	ORYXHardware model number:	OX2-SRSoftware version number:	ORYX F/W v4,00 Oryx Data Collector v3.7.2.0data status	okinstallation	B6 Nyhavnadifferential loss correction	single-endedforward channel	channel 2reverse channel	N/Adate	2023/12/10time	21:00:08forward acquisition time	300,00reverse acquisition time	0,00gamma	499,1914k internal	0,3122k external	0,3122temperature offset calibration	1,0000default loss term (dB/km)	0,3820temperature slope calibration	1,0000multiplexer offset coefficient	1,0000multiplexer slope coefficient	1,0000fibre end	0,00T internal ref (°C)	22,25T ext. ref 1 (°C)	5,91T ext. ref 2 (°C)	5,92length (m)	temperature (°C)	Stokes	anti-Stokes-744,400	800,000	-0,062	-0,198
-743,385	128,997	-0,085	0,081
-742,371	-20,096	-0,012	-0,006
-741,356	237,337	-0,147	0,182
-740,342	-137,849	0,042	-0,003
-739,327	-60,106	-0,191	0,060
-738,312	-52,596	0,083	0,028
-737,298	-136,468	-0,392	0,033
-736,283	734,066	0,076	-0,152
-735,269	-37,806	-0,195	-0,077
-734,254	-169,512	0,065	0,002
-733,239	-12,759	-0,417	-0,202
-732,225	-130,827	0,019	0,002
-731,210	-102,358	-0,090	-0,016
-730,196	-14,082	0,192	-0,092
-729,181	91,507	-0,108	0,090
-728,167	106,142	-0,039	0,035
-727,152	800,000	-0,049	-0,111
-726,137	-200,000	0,003	0,023
-725,123	-200,000	0,010	-0,068
-724,108	6,780	0,065	-0,036
-723,094	86,169	-0,090	-0,074
-722,079	64,683	-0,033	-0,025
-721,064	117,292	-0,050	-0,045
-720,050	136,094	-0,086	0,083
-719,035	800,000	0,017	0,055
-718,021	458,504	-0,093	-0,154
-717,006	-200,000	-0,016	-0,147
-715,991	43,952	-0,077	0,053
-714,977	-200,000	-0,003	0,138
-713,962	349,791	-0,034	-0,050
-712,948	-200,000	0,025	-0,125
-711,933	231,752	-0,056	-0,068
-710,918	132,328	-0,115	-0,111
-709,904	-200,000	-0,019	-0,087
-708,889	103,887	-0,098	-0,086
-707,875	-56,774	-0,118	-0,039
-706,860	800,000	-0,042	0,124
-705,845	-98,843	0,089	-0,017
-704,831	306,363	0,072	-0,101
-703,816	-105,969	-0,100	0,017
-702,802	800,000	0,008	-0,025
-701,787	-200,000	0,003	-0,153
-700,772	149,401	-0,080	-0,080
-699,758	165,290	-0,132	0,139
-698,743	-200,000	0,026	0,091
-697,729	624,678	0,045	-0,086
-696,714	152,949	0,095	-0,097
-695,699	91,658	-0,072	-0,060
-694,685	93,026	-0,066	-0,056
-693,670	-200,000	-0,059	-0,246
-692,656	660,375	-0,058	-0,112
-691,641	800,000	0,011	0,034
-690,627	28,683	0,029	0,018
-689,612	-10,163	-0,159	-0,078
-688,597	60,562	-0,118	-0,087
-687,583	332,807	-0,097	-0,140
-686,568	53,360	-0,006	-0,004
-685,554	82,449	-0,028	-0,022
-684,539	-102,007	-0,073	0,013
-683,524	180,235	0,018	-0,020
-682,510	-76,307	-0,089	-0,023
-681,495	472,503	-0,037	-0,062
-680,481	-200,000	0,030	-0,146
-679,466	22,283	-0,101	-0,061
-678,451	-9,847	-0,154	-0,076
-677,437	194,846	0,040	-0,045
-676,422	-59,224	0,132	0,042
-675,408	68,863	0,062	-0,047
-674,393	-200,000	0,011	0,068
-673,378	-19,551	-0,117	-0,054
-672,364	-157,793	-0,090	-0,004
-671,349	512,332	-0,023	0,040
-670,335	-135,011	-0,147	0,013
-669,320	-200,000	0,002	0,079
-668,305	250,306	0,079	-0,100
-667,291	129,390	-0,092	-0,087
-666,276	37,330	0,077	-0,051
-665,262	325,760	-0,050	-0,071
-664,247	408,035	0,031	-0,049
-663,232	-74,168	0,072	0,019
-662,218	183,506	-0,042	0,046
-661,203	800,000	-0,006	0,016
-660,189	-200,000	-0,017	0,061
-659,174	-200,000	-0,005	-0,112
-658,159	173,607	-0,164	-0,176
-657,145	-200,000	0,063	-0,260
-656,130	800,000	0,057	0,122
-655,116	-148,706	-0,022	0,001
-654,101	90,171	-0,110	-0,091
-653,086	-200,000	-0,003	-0,088
-652,072	-16,191	-0,033	-0,016
-651,057	174,301	-0,077	-0,082
-650,043	164,432	0,038	-0,040
-649,028	2,795	0,076	-0,041
-648,014	163,561	0,112	0,118
-646,999	-200,000	0,001	-0,067
-645,984	-200,000	-0,002	-0,010
-644,970	696,596	0,055	-0,108
-643,955	-98,981	-0,028	0,005
-642,941	70,565	-0,064	0,049
-641,926	-73,630	-0,101	-0,027
-640,911	-200,000	-0,012	-0,060
-639,897	248,142	0,040	0,050
-638,882	-62,185	-0,075	0,023
-637,868	-3,128	-0,069	0,035
-636,853	-4,014	-0,158	-0,081
-635,838	-200,000	-0,015	-0,134
-634,824	350,517	0,023	-0,034
-633,809	-200,000	-0,019	-0,116
-632,795	-21,720	0,130	0,059
-631,780	-200,000	-0,011	-0,151
-630,765	732,930	0,037	0,073
-629,751	287,710	0,063	0,084
-628,736	-200,000	-0,011	0,096
-627,722	259,919	0,088	-0,113
-626,707	-146,939	0,088	0,006
-625,692	-200,000	0,010	0,067
-624,678	380,153	0,032	-0,048
-623,663	270,599	-0,074	0,097
-622,649	-200,000	-0,022	-0,088
-621,634	271,687	-0,100	-0,131
-620,619	-200,000	0,008	-0,033
-619,605	22,135	0,039	0,023
-618,590	800,000	-0,032	0,068
-617,576	765,142	0,051	-0,103
-616,561	-200,000	-0,021	-0,077
-615,546	-200,000	-0,002	-0,101
-614,532	800,000	-0,009	0,023
-613,517	-74,776	0,076	-0,020
-612,503	-111,455	0,048	0,007
-611,488	-200,000	-0,002	-0,018
-610,474	51,323	0,072	-0,051
-609,459	428,310	-0,031	0,049
-608,444	-7,899	-0,075	-0,037
-607,430	518,138	-0,016	0,027
-606,415	-200,000	0,013	0,059
-605,401	-200,000	-0,030	0,149
-604,386	184,144	-0,067	-0,073
-603,371	-71,076	0,093	-0,026
-602,357	18,175	-0,099	0,058
-601,342	504,043	-0,066	0,113
-600,328	45,151	0,031	-0,021
-599,313	385,748	0,066	-0,101
-598,298	-200,000	0,016	0,056
-597,284	80,676	-0,065	-0,052
-596,269	353,130	0,027	-0,040
-595,255	294,311	0,120	0,164
-594,240	-200,000	0,014	-0,092
-593,225	70,754	-0,186	-0,143
-592,211	-200,000	-0,007	0,034
-591,196	-0,461	-0,128	0,067
-590,182	800,000	0,015	0,041
-589,167	-200,000	-0,014	0,075
-588,152	20,334	-0,042	0,025
-587,138	-200,000	0,002	0,011
-586,123	-113,134	0,181	0,026
-585,109	-200,000	-0,000	0,065
-584,094	-200,000	0,020	-0,074
-583,079	-200,000	0,001	-0,089
-582,065	153,228	0,065	-0,066
-581,050	3,804	-0,082	0,044
-580,036	108,970	0,030	-0,027
-579,021	420,110	0,022	0,035
-578,006	-200,000	-0,049	-0,176
-576,992	-200,000	0,040	-0,181
-575,977	277,444	0,061	-0,080
-574,963	-174,663	0,148	-0,003
-573,948	-76,424	0,119	-0,031
-572,934	362,087	0,022	-0,032
-571,919	800,000	-0,057	-0,129
-570,904	-145,820	0,145	-0,009
-569,890	-54,858	-0,058	0,019
-568,875	87,537	-0,021	-0,017
-567,861	127,714	0,107	-0,101
-566,846	-108,848	0,055	-0,009
-565,831	27,562	-0,171	-0,107
-564,817	627,844	-0,005	-0,009
-563,802	-200,000	-0,000	0,056
-562,788	800,000	0,076	-0,228
-561,773	-200,000	0,003	-0,039
-560,758	-140,547	-0,035	0,003
-559,744	298,701	0,064	0,087
-558,729	308,281	-0,029	-0,041
-557,715	478,118	-0,036	-0,061
-556,700	-113,887	-0,033	-0,005
-555,685	223,677	-0,136	-0,163
-554,671	-200,000	0,004	-0,028
-553,656	-200,000	-0,002	0,105
-552,642	800,000	-0,028	0,088
-551,627	231,231	0,032	0,039
-550,612	-77,599	-0,067	-0,017
-549,598	206,126	-0,038	-0,043
-548,583	-200,000	-0,024	0,113
-547,569	-200,000	-0,009	0,050
-546,554	650,662	0,044	0,084
-545,539	-84,221	-0,034	0,008
-544,525	474,499	-0,037	-0,063
-543,510	-48,243	0,098	-0,035
-542,496	-200,000	0,017	-0,083
-541,481	127,210	-0,030	-0,028
-540,466	800,000	-0,052	-0,123
-539,452	283,739	0,104	-0,138
-538,437	286,805	-0,035	0,047
-537,423	-200,000	-0,012	-0,165
-536,408	-200,000	0,009	-0,071
-535,393	-200,000	-0,016	0,059
-534,379	-166,185	-0,138	-0,004
-533,364	-200,000	-0,009	-0,054
-532,350	800,000	-0,018	-0,046
-531,335	-125,225	-0,075	0,008
-530,321	-67,123	-0,040	-0,012
-529,306	-129,760	0,046	-0,005
-528,291	-105,063	-0,121	0,020
-527,277	39,467	-0,115	-0,076
-526,262	736,137	-0,065	-0,128
-525,248	-179,901	0,147	-0,002
-524,233	-133,261	0,047	-0,004
-523,218	766,432	-0,042	-0,084
-522,204	41,858	-0,080	0,054
-521,189	800,000	0,053	0,115
-520,175	-80,344	-0,037	0,009
-519,160	552,968	-0,055	-0,097
-518,145	-76,242	-0,100	-0,026
-517,131	-30,254	-0,102	-0,043
-516,116	-58,921	0,017	-0,005
-515,102	-32,992	0,080	0,033
-514,087	97,434	0,123	0,105
-513,072	-178,011	0,107	0,002
-512,058	43,647	-0,131	-0,088
-511,043	-200,000	0,020	0,090
-510,029	-114,058	0,109	-0,015
-509,014	250,788	-0,067	0,084
-507,999	-200,000	0,002	0,058
-506,985	-200,000	-0,020	-0,070
-505,970	-80,691	-0,078	-0,019
-504,956	60,690	-0,057	0,041
-503,941	-146,141	0,040	0,003
-502,926	800,000	0,015	0,041
-501,912	800,000	0,041	-0,088
-500,897	-45,152	0,046	-0,017
-499,883	-62,018	0,025	0,008
-498,868	-200,000	-0,021	0,118
-497,853	424,327	0,071	-0,113
-496,839	-82,280	0,073	0,017
-495,824	-200,000	-0,013	0,176
-494,810	-76,565	-0,027	-0,007
-493,795	-200,000	-0,022	-0,250
-492,781	125,055	-0,143	-0,133
-491,766	142,448	0,055	-0,054
-490,751	-41,038	0,065	-0,025
-489,737	-34,214	-0,113	-0,046
-488,722	117,347	0,086	0,078
-487,708	-93,161	0,128	-0,026
-486,693	224,248	0,030	0,036
-485,678	-56,682	-0,131	-0,043
-484,664	-180,032	-0,021	-0,000
-483,649	-200,000	-0,007	-0,196
-482,635	-54,379	0,070	-0,023
-481,620	-200,000	-0,011	-0,076
-480,605	430,699	0,053	0,086
-479,591	4,463	0,096	0,052
-478,576	4,663	-0,035	-0,019
-477,562	284,122	-0,070	-0,093
-476,547	-200,000	-0,020	-0,104
-475,532	-200,000	-0,010	0,042
-474,518	-41,634	-0,017	-0,007
-473,503	-143,047	0,073	0,005
-472,489	-20,654	-0,031	-0,014
-471,474	558,271	0,063	0,113
-470,459	800,000	-0,028	0,065
-469,445	-20,085	-0,106	0,048
-468,430	-36,910	0,063	0,025
-467,416	-38,301	0,125	0,049
-466,401	-200,000	-0,031	0,199
-465,386	117,045	-0,047	0,043
-464,372	-65,071	-0,073	-0,022
-463,357	-200,000	-0,006	-0,026
-462,343	-200,000	0,003	-0,086
-461,328	-59,157	-0,045	0,014
-460,313	-200,000	-0,014	-0,054
-459,299	556,939	0,072	-0,128
-458,284	-168,914	-0,128	-0,003
-457,270	-158,818	-0,061	-0,003
-456,255	-200,000	0,008	-0,135
-455,241	-200,000	0,023	-0,118
-454,226	-140,860	0,039	-0,003
-453,211	-200,000	-0,013	-0,122
-452,197	141,690	-0,013	0,013
-451,182	-133,484	0,038	0,003
-450,168	-200,000	0,007	0,100
-449,153	-89,511	0,041	0,009
-448,138	-200,000	0,038	-0,133
-447,124	48,643	0,016	-0,011
-446,109	703,937	-0,015	0,029
-445,095	296,872	0,047	0,064
-444,080	-88,752	-0,126	0,027
-443,065	785,021	-0,057	0,116
-442,051	-13,876	0,125	-0,059
-441,036	-200,000	0,004	0,037
-440,022	81,804	0,091	-0,073
-439,007	800,000	0,008	0,024
-437,992	-200,000	-0,004	0,055
-436,978	133,941	0,043	0,041
-435,963	492,602	0,085	0,144
-434,949	800,000	0,048	0,102
-433,934	-200,000	0,000	-0,105
-432,919	430,411	-0,050	0,079
-431,905	122,829	0,072	0,067
-430,890	800,000	0,037	0,077
-429,876	-25,168	0,080	-0,035
-428,861	-15,353	0,052	0,024
-427,846	32,030	-0,043	0,027
-426,832	-200,000	-0,000	-0,106
-425,817	-101,235	-0,062	0,011
-424,803	59,425	0,056	-0,041
-423,788	205,638	0,019	0,022
-422,773	300,472	0,026	-0,035
-421,759	333,064	0,022	0,031
-420,744	-156,080	0,055	-0,003
-419,730	-166,581	-0,101	0,003
-418,715	-200,000	0,025	-0,169
-417,701	471,453	-0,016	-0,027
-416,686	61,244	0,148	0,108
-415,671	25,356	-0,080	0,049
-414,657	1,193	-0,062	0,032
-413,642	-200,000	-0,040	0,159
-412,628	277,489	0,027	-0,036
-411,613	800,000	0,017	0,054
-410,598	-125,510	-0,158	-0,017
-409,584	-72,103	-0,080	0,022
-408,569	-26,711	0,019	0,008
-407,555	506,055	-0,039	-0,067
-406,540	800,000	0,027	-0,081
-405,525	-200,000	0,013	-0,046
-404,511	239,664	-0,089	-0,109
-403,496	281,546	-0,171	-0,226
-402,482	-200,000	-0,032	-0,147
-401,467	-200,000	0,016	-0,069
-400,452	96,462	0,106	-0,089
-399,438	291,133	-0,060	-0,081
-398,423	24,646	0,138	0,084
-397,409	107,427	-0,047	-0,041
-396,394	400,397	-0,051	-0,078
-395,379	26,616	0,079	-0,049
-394,365	-31,775	0,152	0,063
-393,350	-59,029	-0,032	-0,010
-392,336	38,157	-0,111	-0,072
-391,321	-200,000	-0,002	-0,019
-390,306	-70,200	-0,181	-0,050
-389,292	3,648	-0,047	-0,025
-388,277	-104,548	0,006	0,001
-387,263	-49,499	0,093	-0,032
-386,248	111,670	0,095	0,084
-385,233	5,886	0,083	0,045
-384,219	-43,981	-0,027	-0,010
-383,204	-200,000	-0,024	-0,119
-382,190	-189,723	-0,116	0,001
-381,175	630,524	0,022	-0,042
-380,160	800,000	-0,026	0,081
-379,146	-200,000	0,022	0,085
-378,131	-155,726	-0,119	0,005
-377,117	-56,000	-0,066	0,021
-376,102	346,611	-0,032	-0,046
-375,088	-200,000	0,011	0,055
-374,073	-97,031	-0,150	-0,029
-373,058	206,921	0,048	0,055
-372,044	270,890	0,059	0,077
-371,029	-86,896	0,085	0,019
-370,015	-0,463	-0,117	0,061
-369,000	23,882	-0,149	-0,090
-367,985	-113,212	0,035	-0,005
-366,971	-135,028	0,099	0,009
-365,956	-29,756	0,045	0,019
-364,942	-200,000	0,015	-0,085
-363,927	-200,000	0,006	-0,116
-362,912	-200,000	0,026	-0,159
-361,898	-112,444	-0,051	-0,007
-360,883	-82,555	0,036	0,009
-359,869	196,250	-0,024	-0,027
-358,854	155,158	-0,080	0,081
-357,839	800,000	-0,022	0,053
-356,825	-58,344	-0,054	-0,017
-355,810	362,384	-0,045	0,067
-354,796	0,248	-0,071	0,037
-353,781	800,000	-0,042	0,102
-352,766	-21,893	0,061	0,027
-351,752	36,040	0,073	0,047
-350,737	-22,237	0,077	-0,034
-349,723	-200,000	-0,018	0,085
-348,708	213,898	0,019	0,022
-347,693	-200,000	0,027	0,169
-346,679	-96,191	-0,068	0,013
-345,664	428,667	-0,039	0,063
-344,650	-83,990	0,078	0,018
-343,635	439,204	0,048	-0,077
-342,620	454,566	-0,054	0,088
-341,606	40,077	0,039	0,026
-340,591	-200,000	0,034	0,146
-339,577	-98,198	-0,085	0,016
-338,562	-200,000	-0,001	0,114
-337,548	-200,000	-0,009	-0,092
-336,533	3,859	-0,080	-0,043
-335,518	800,000	0,037	0,090
-334,504	-168,652	0,059	-0,002
-333,489	7,811	0,022	-0,012
-332,475	-167,621	0,045	-0,001
-331,460	-33,390	-0,046	-0,019
-330,445	144,399	0,093	-0,091
-329,431	-200,000	-0,021	0,083
-328,416	32,024	-0,061	-0,039
-327,402	-200,000	-0,020	0,079
-326,387	-33,181	0,126	0,051
-325,372	-103,586	-0,165	-0,028
-324,358	-200,000	-0,001	0,070
-323,343	-23,718	-0,030	0,013
-322,329	29,063	0,069	0,043
-321,314	-12,909	-0,107	0,051
-320,299	256,546	0,145	0,183
-319,285	177,951	0,014	-0,015
-318,270	106,919	0,005	0,005
-317,256	138,579	0,035	-0,033
-316,241	-81,796	-0,069	0,017
-315,226	-200,000	-0,022	0,115
-314,212	800,000	0,070	0,155
-313,197	-21,910	-0,037	0,016
-312,183	-37,650	-0,146	-0,057
-311,168	-99,137	0,077	-0,014
-310,153	273,046	-0,059	-0,076
-309,139	158,173	-0,018	0,018
-308,124	170,202	0,075	0,079
-307,110	22,451	0,118	-0,070
-306,095	398,678	0,062	0,095
-305,080	800,000	0,043	-0,091
-304,066	-200,000	-0,003	-0,036
-303,051	413,394	0,020	-0,031
-302,037	-63,730	-0,170	0,051
-301,022	25,643	-0,062	0,038
-300,008	66,732	-0,055	0,041
-298,993	-47,826	-0,051	-0,018
-297,978	800,000	-0,037	0,099
-296,964	-97,081	-0,044	-0,008
-295,949	-73,815	-0,027	0,007
-294,935	199,896	0,062	-0,070
-293,920	-200,000	-0,051	0,237
-292,905	31,932	0,083	0,052
-291,891	-69,490	-0,028	0,008
-290,876	-200,000	0,006	0,067
-289,862	40,753	-0,092	0,061
-288,847	-137,595	-0,058	0,005
-287,832	265,850	0,064	-0,083
-286,818	-105,298	0,111	-0,018
-285,803	597,770	-0,027	0,050
-284,789	-31,476	-0,145	0,059
-283,774	40,367	0,064	0,042
-282,759	-200,000	-0,043	-0,142
-281,745	-155,506	-0,035	0,002
-280,730	-200,000	-0,014	-0,129
-279,716	-200,000	0,024	-0,142
-278,701	800,000	0,021	0,056
-277,686	-167,168	0,048	0,001
-276,672	-200,000	0,016	0,139
-275,657	392,396	-0,096	0,146
-274,643	-79,050	0,053	0,013
-273,628	84,058	-0,118	-0,094
-272,613	46,811	0,088	-0,060
-271,599	339,390	0,092	0,132
-270,584	-200,000	0,007	0,037
-269,570	-141,874	0,132	0,009
-268,555	800,000	-0,053	0,108
-267,540	297,105	-0,070	-0,095
-266,526	800,000	0,015	-0,033
-265,511	-200,000	-0,012	0,042
-264,497	392,313	0,094	0,143
-263,482	800,000	-0,065	0,148
-262,467	194,772	0,094	0,105
-261,453	216,376	0,033	-0,038
-260,438	-72,868	-0,080	-0,021
-259,424	-118,312	-0,028	-0,004
-258,409	524,270	0,102	-0,176
-257,395	0,076	-0,012	-0,006
-256,380	-200,000	0,034	-0,124
-255,365	119,236	0,087	0,078
-254,351	8,716	-0,059	0,033
-253,336	-35,557	0,041	-0,016
-252,322	18,440	0,012	0,007
-251,307	611,335	-0,041	-0,076
-250,292	-200,000	-0,030	0,150
-249,278	205,713	-0,091	-0,103
-248,263	-200,000	0,020	0,136
-247,249	99,888	0,080	0,068
-246,234	52,989	-0,031	0,022
-245,219	-41,257	-0,092	0,035
-244,205	800,000	0,016	-0,046
-243,190	-200,000	-0,029	0,095
-242,176	-200,000	0,011	0,069
-241,161	-200,000	0,016	0,058
-240,146	319,582	0,090	-0,125
-239,132	550,190	-0,051	0,089
-238,117	781,391	0,051	-0,103
-237,103	-81,048	-0,040	-0,010
-236,088	180,280	0,031	-0,033
-235,073	-12,321	-0,151	-0,072
-234,059	-107,640	0,134	-0,021
-233,044	-88,013	-0,088	-0,019
-232,030	-36,607	0,095	0,037
-231,015	-200,000	0,003	-0,047
-230,000	409,051	0,005	0,008
-228,986	32,662	0,111	0,070
-227,971	-200,000	0,017	0,101
-226,957	-200,000	0,005	-0,070
-225,942	16,776	0,024	-0,014
-224,927	-138,766	0,034	-0,003
-223,913	-124,279	0,111	0,012
-222,898	800,000	-0,011	-0,034
-221,884	-200,000	0,013	-0,049
-220,869	360,859	0,071	-0,105
-219,855	800,000	0,050	0,111
-218,840	41,754	0,034	0,023
-217,825	-26,943	0,066	0,028
-216,811	800,000	-0,009	-0,027
-215,796	200,854	-0,093	0,105
-214,782	-154,623	0,115	-0,006
-213,767	76,024	0,070	-0,054
-212,752	-200,000	-0,001	-0,033
-211,738	714,077	0,054	0,104
-210,723	-116,989	-0,210	0,028
-209,709	800,000	-0,050	-0,134
-208,694	-200,000	-0,014	-0,164
-207,679	154,396	0,059	0,060
-206,665	800,000	0,032	0,094
-205,650	242,656	0,081	-0,099
-204,636	-9,610	0,030	0,014
-203,621	366,870	0,072	0,106
-202,606	800,000	0,043	-0,118
-201,592	800,000	-0,040	0,125
-200,577	117,761	0,093	0,084
-199,563	57,919	-0,064	0,046
-198,548	-127,750	0,080	-0,008
-197,533	-48,767	-0,066	0,023
-196,519	-172,360	-0,047	0,001
-195,504	1,427	0,048	-0,025
-194,490	-71,456	0,114	0,031
-193,475	373,770	-0,078	0,116
-192,460	-39,548	-0,143	0,054
-191,446	165,793	-0,087	0,090
-190,431	-6,300	0,060	-0,030
-189,417	-23,326	0,081	0,035
-188,402	129,625	-0,067	-0,063
-187,387	-8,954	0,040	-0,019
-186,373	-8,741	0,158	-0,077
-185,358	766,408	0,021	0,043
-184,344	-200,000	-0,003	-0,022
-183,329	-200,000	-0,026	0,112
-182,315	-200,000	-0,029	0,164
-181,300	32,654	-0,149	0,094
-180,285	-44,113	0,021	-0,008
-179,271	800,000	-0,019	-0,045
-178,256	-173,857	-0,072	-0,002
-177,242	170,678	-0,029	-0,030
-176,227	108,570	-0,078	0,068
-175,212	-8,735	0,127	-0,062
-174,198	-200,000	0,032	0,204
-173,183	696,910	-0,014	0,028
-172,169	-200,000	0,006	0,112
-171,154	-200,000	0,017	-0,077
-170,139	96,287	-0,097	0,081
-169,125	-48,607	0,060	0,021
-168,110	54,366	0,122	0,085
-167,096	-200,000	0,011	0,077
-166,081	192,659	-0,037	-0,041
-165,066	22,378	0,040	0,024
-164,052	-89,216	-0,090	0,019
-163,037	-138,296	-0,073	0,006
-162,023	38,404	0,169	0,110
-161,008	91,509	-0,030	0,025
-159,993	800,000	0,045	-0,098
-158,979	432,750	-0,016	-0,026
-157,964	134,223	-0,039	0,037
-156,950	6,848	-0,120	-0,065
-155,935	-200,000	0,001	0,011
-154,920	800,000	0,025	0,051
-153,906	-200,000	0,030	-0,112
-152,891	352,166	-0,031	0,045
-151,877	-180,940	-0,143	0,002
-150,862	73,716	-0,112	-0,086
-149,847	30,938	-0,080	0,050
-148,833	800,000	0,046	-0,104
-147,818	168,483	0,055	0,057
-146,804	18,659	0,047	0,027
-145,789	-200,000	-0,004	-0,023
-144,775	-21,001	-0,060	-0,027
-143,760	800,000	-0,053	-0,170
-142,745	-20,128	-0,020	-0,009
-141,731	-200,000	-0,015	0,167
-140,716	-78,613	-0,064	-0,016
-139,702	349,871	-0,065	-0,093
-138,687	50,180	-0,054	-0,037
-137,672	-11,737	0,026	0,012
-136,658	800,000	0,057	0,152
-135,643	-50,701	0,094	0,032
-134,629	114,996	-0,055	0,049
-133,614	-114,334	0,056	-0,008
-132,599	712,059	-0,044	-0,084
-131,585	370,483	0,007	-0,011
-130,570	-149,137	-0,013	0,001
-129,556	-99,023	0,076	-0,014
-128,541	-200,000	0,042	-0,144
-127,526	142,057	0,045	0,043
-126,512	31,169	-0,094	-0,058
-125,497	264,308	-0,039	0,049
-124,483	25,305	0,042	0,025
-123,468	-57,139	-0,102	-0,033
-122,453	-123,888	-0,106	0,012
-121,439	-35,230	-0,069	-0,027
-120,424	800,000	-0,039	-0,098
-119,410	800,000	0,037	0,102
-118,395	-189,018	0,086	0,001
-117,380	-7,058	-0,054	0,026
-116,366	147,954	0,052	-0,052
-115,351	653,309	0,071	-0,133
-114,337	-200,000	-0,004	-0,164
-113,322	450,104	-0,030	0,048
-112,307	-142,028	0,079	-0,006
-111,293	-48,032	-0,051	0,018
-110,278	-200,000	-0,002	0,052
-109,264	53,502	0,103	0,071
-108,249	-200,000	-0,025	0,122
-107,234	-31,840	0,118	0,048
-106,220	-200,000	-0,000	-0,132
-105,205	246,446	-0,052	0,063
-104,191	173,453	-0,166	0,174
-103,176	196,183	-0,029	-0,032
-102,162	-20,694	-0,125	0,055
-101,147	3,433	0,105	0,055
-100,132	800,000	0,027	-0,057
-99,118	-70,558	-0,130	-0,035
-98,103	-2,889	0,150	-0,076
-97,089	232,781	0,048	-0,058
-96,074	800,000	0,012	0,028
-95,059	-27,281	0,107	0,045
-94,045	295,736	-0,046	0,062
-93,030	-200,000	-0,021	-0,085
-92,016	352,803	-0,050	0,072
-91,001	-153,552	0,107	-0,005
-89,986	-200,000	0,005	0,042
-88,972	-200,000	0,004	0,154
-87,957	39,823	0,034	0,022
-86,943	-12,627	-0,110	-0,052
-85,928	-200,000	-0,011	-0,047
-84,913	-200,000	-0,005	-0,056
-83,899	-131,054	0,088	-0,008
-82,884	236,096	-0,082	0,098
-81,870	544,010	0,015	0,026
-80,855	-118,220	0,082	0,010
-79,840	230,375	-0,107	-0,128
-78,826	-115,650	0,077	-0,010
-77,811	518,003	0,064	-0,109
-76,797	352,755	-0,122	-0,177
-75,782	-200,000	-0,014	-0,064
-74,767	248,008	-0,019	-0,024
-73,753	-64,863	-0,056	0,016
-72,738	101,108	-0,141	0,119
-71,724	330,628	0,019	-0,026
-70,709	-200,000	0,012	0,069
-69,694	132,866	-0,021	0,020
-68,680	-200,000	-0,003	0,063
-67,665	-200,000	0,014	0,073
-66,651	499,140	0,021	0,036
-65,636	800,000	-0,035	-0,113
-64,622	167,799	-0,062	-0,064
-63,607	453,486	-0,032	-0,052
-62,592	-45,398	0,021	0,008
-61,578	42,904	-0,122	0,081
-60,563	223,672	0,012	-0,014
-59,549	-153,072	-0,047	0,002
-58,534	-130,415	-1,465	-0,142
-57,519	578,067	-0,828	-1,476
-56,505	-200,000	-0,816	-4,537
-55,490	-18,757	0,532	-0,239
-54,476	800,000	5,131	11,946
-53,461	-200,000	13,686	253,252
-52,446	-200,000	690,686	2255,705
-51,432	588,326	1622,769	2912,937
-50,417	118,691	1634,566	1465,007
-49,403	72,935	1288,574	975,847
-48,388	37,874	1023,970	659,063
-47,373	24,256	981,769	587,102
-46,359	23,472	971,430	578,327
-45,344	22,488	967,112	572,516
-44,330	22,437	965,609	571,438
-43,315	22,316	964,285	570,238
-42,300	22,230	963,373	569,394
-41,286	22,262	962,200	568,784
-40,271	22,251	961,434	568,272
-39,257	22,219	960,476	567,581
-38,242	22,265	959,447	567,098
-37,227	22,286	958,481	566,572
-36,213	22,277	957,596	565,996
-35,198	22,206	956,784	565,265
-34,184	22,254	956,100	564,995
-33,169	22,243	955,350	564,494
-32,154	22,336	954,365	564,190
-31,140	22,370	953,427	563,721
-30,125	22,274	952,764	562,998
-29,111	22,313	951,898	562,590
-28,096	22,268	951,098	561,950
-27,082	22,296	950,553	561,696
-26,067	22,264	949,753	561,098
-25,052	22,287	949,000	560,703
-24,038	22,292	948,254	560,259
-23,023	22,247	947,768	559,804
-22,009	22,249	947,222	559,466
-20,994	22,304	946,511	559,200
-19,979	22,362	945,773	558,925
-18,965	22,321	945,341	558,517
-17,950	22,319	944,803	558,171
-16,936	22,242	943,914	557,379
-15,921	22,300	943,231	557,136
-14,906	22,213	942,419	556,358
-13,892	22,153	941,794	555,779
-12,877	22,106	941,378	555,360
-11,863	22,183	940,543	555,089
-10,848	22,150	940,147	554,731
-9,833	22,268	939,720	554,830
-8,819	22,227	938,937	554,217
-7,804	22,222	938,234	553,764
-6,790	22,156	937,723	553,231
-5,775	22,195	937,137	552,986
-4,760	22,172	936,586	552,567
-3,746	22,133	936,059	552,111
-2,731	22,018	935,182	551,206
-1,717	21,975	934,486	550,640
-0,702	21,964	933,792	550,175
0,313	21,799	933,175	550,120
1,327	25,015	930,975	558,885
2,342	34,667	795,656	503,351
3,356	32,635	451,474	282,527
4,371	1,763	293,868	153,081
5,386	-2,805	274,865	138,843
6,400	-4,266	269,044	134,535
7,415	-4,853	266,680	132,801
8,429	-4,405	265,371	132,547
9,444	-4,731	264,649	131,877
10,459	-4,540	264,017	131,725
11,473	-4,607	263,185	131,237
12,488	-4,702	262,840	130,967
13,502	-4,789	262,181	130,548
14,517	-4,887	261,915	130,316
15,531	-4,767	261,536	130,223
16,546	-4,589	261,024	130,117
17,561	-4,742	260,698	129,805
18,575	-4,590	260,309	129,736
19,590	-4,726	260,163	129,530
20,604	-4,809	259,785	129,256
21,619	-4,824	259,399	129,039
22,634	-4,912	259,201	128,851
23,648	-4,945	258,895	128,657
24,663	-4,762	258,570	128,647
25,677	-4,847	258,363	128,457
26,692	-4,842	258,168	128,354
27,707	-4,845	257,775	128,144
28,721	-4,846	257,501	127,995
29,736	-4,728	257,193	127,935
30,750	-4,825	257,065	127,774
31,765	-4,793	256,780	127,650
32,780	-5,077	256,658	127,326
33,794	-4,908	256,355	127,314
34,809	-4,909	256,231	127,240
35,823	-4,857	255,758	127,040
36,838	-4,920	255,683	126,936
37,853	-5,039	255,405	126,682
38,867	-4,984	255,257	126,645
39,882	-4,734	254,901	126,676
40,896	-4,972	254,828	126,421
41,911	-4,893	254,435	126,283
42,926	-5,103	254,255	125,999
43,940	-4,892	254,048	126,070
44,955	-5,152	253,793	125,705
45,969	-5,084	253,560	125,638
46,984	-5,135	253,420	125,512
47,999	-5,181	253,018	125,263
49,013	-5,444	252,799	124,914
50,028	-5,516	252,464	124,675
51,042	-5,940	252,490	124,308
52,057	-5,651	252,081	124,346
53,071	-5,658	251,879	124,230
54,086	-5,767	251,876	124,122
55,101	-5,525	251,746	124,257
56,115	-5,118	251,505	124,478
57,130	-5,012	251,502	124,558
58,144	-4,600	251,133	124,720
59,159	-4,732	251,125	124,591
60,174	-4,714	250,783	124,425
61,188	-4,794	250,635	124,272
62,203	-4,710	250,377	124,205
63,217	-4,785	250,132	124,009
64,232	-4,767	250,042	123,968
65,247	-4,704	249,760	123,871
66,261	-4,752	249,615	123,747
67,276	-5,047	249,310	123,332
68,290	-5,163	248,979	123,058
69,305	-5,222	248,681	122,850
70,320	-5,119	248,528	122,851
71,334	-4,951	248,325	122,883
72,349	-4,687	248,399	123,133
73,363	-4,547	248,202	123,144
74,378	-4,758	247,948	122,828
75,393	-4,750	247,849	122,775
76,407	-4,822	247,497	122,528
77,422	-4,697	247,367	122,559
78,436	-4,600	247,201	122,548
79,451	-4,598	246,826	122,353
80,466	-4,808	246,682	122,093
81,480	-5,044	246,521	121,803
82,495	-5,232	246,289	121,518
83,509	-4,847	246,151	121,764
84,524	-5,003	245,805	121,451
85,539	-5,320	245,648	121,095
86,553	-5,117	245,547	121,205
87,568	-5,127	245,267	121,049
88,582	-5,106	245,092	120,969
89,597	-5,071	244,875	120,880
90,611	-4,908	244,869	121,004
91,626	-4,950	244,731	120,890
92,641	-4,784	244,488	120,897
93,655	-4,871	244,293	120,718
94,670	-5,240	244,254	120,379
95,684	-5,127	244,047	120,361
96,699	-4,916	243,796	120,402
97,714	-4,958	243,456	120,188
98,728	-5,031	243,360	120,070
99,743	-5,207	243,175	119,821
100,757	-5,235	242,870	119,637
101,772	-5,182	242,633	119,553
102,787	-5,149	242,687	119,597
103,801	-4,960	242,365	119,585
104,816	-4,957	242,200	119,494
105,830	-5,012	242,185	119,431
106,845	-4,815	241,998	119,491
107,860	-4,816	241,800	119,382
108,874	-4,864	241,436	119,152
109,889	-5,005	241,314	118,964
110,903	-4,982	241,137	118,886
111,918	-4,953	241,021	118,842
112,933	-5,011	240,793	118,671
113,947	-4,816	240,697	118,774
114,962	-4,796	240,585	118,725
115,976	-4,802	240,347	118,592
116,991	-4,963	240,198	118,375
118,006	-4,882	239,915	118,292
119,020	-4,747	239,941	118,405
120,035	-4,780	239,809	118,302
121,049	-4,736	239,564	118,207
122,064	-4,924	239,351	117,937
123,079	-4,800	239,112	117,910
124,093	-4,924	238,947	117,717
125,108	-5,183	238,754	117,400
126,122	-5,281	238,432	117,151
127,137	-5,318	238,381	117,085
128,151	-5,263	238,266	117,064
129,166	-5,149	237,920	116,976
130,181	-5,157	237,917	116,958
131,195	-5,100	237,539	116,807
132,210	-5,180	237,493	116,709
133,224	-4,945	237,291	116,790
134,239	-4,913	237,358	116,839
135,254	-4,899	237,042	116,683
136,268	-4,949	236,632	116,432
137,283	-5,376	236,499	116,011
138,297	-5,449	236,356	115,871
139,312	-5,426	236,022	115,716
140,327	-5,081	236,073	116,009
141,341	-4,604	236,031	116,362
142,356	-4,567	235,770	116,253
143,370	-4,442	235,738	116,327
144,385	-4,499	235,528	116,167
145,400	-4,373	235,609	116,298
146,414	-4,450	235,253	116,050
147,429	-4,729	235,168	115,774
148,443	-4,600	234,959	115,764
149,458	-4,798	234,725	115,480
150,473	-4,524	234,496	115,577
151,487	-4,631	234,276	115,372
152,502	-4,527	234,275	115,445
153,516	-4,538	234,014	115,297
154,531	-4,674	234,028	115,184
155,546	-4,500	233,648	115,126
156,560	-4,661	233,561	114,944
157,575	-4,802	233,380	114,733
158,589	-4,578	233,194	114,809
159,604	-4,596	233,128	114,752
160,619	-4,628	232,876	114,593
161,633	-4,341	232,884	114,815
162,648	-4,412	232,583	114,599
163,662	-4,482	232,474	114,480
164,677	-4,734	232,283	114,176
165,692	-4,485	232,211	114,328
166,706	-4,297	232,025	114,374
167,721	-4,454	231,964	114,210
168,735	-4,370	231,757	114,165
169,750	-4,609	231,602	113,890
170,764	-4,650	231,541	113,817
171,779	-4,601	231,371	113,762
172,794	-4,414	231,110	113,771
173,808	-4,686	230,934	113,460
174,823	-5,028	230,574	113,005
175,837	-5,087	230,355	112,841
176,852	-4,911	230,480	113,030
177,867	-4,428	230,334	113,327
178,881	-4,410	230,192	113,261
179,896	-4,524	230,086	113,109
180,910	-4,360	229,880	113,127
181,925	-4,486	229,733	112,946
182,940	-4,420	229,523	112,884
183,954	-4,369	229,458	112,882
184,969	-4,218	229,245	112,884
185,983	-4,197	229,220	112,878
186,998	-4,392	228,977	112,597
188,013	-4,384	228,822	112,517
189,027	-4,260	228,615	112,501
190,042	-4,306	228,423	112,361
191,056	-4,276	228,277	112,303
192,071	-4,455	228,270	112,150
193,086	-4,412	228,010	112,046
194,100	-4,498	227,904	111,917
195,115	-4,546	227,655	111,747
196,129	-4,996	227,360	111,245
197,144	-1,888	228,520	114,213
198,159	2,393	229,507	118,023
199,173	3,956	229,946	119,453
200,188	4,385	229,873	119,737
201,202	4,571	229,767	119,815
202,217	4,286	229,648	119,522
203,232	4,910	229,482	119,908
204,246	4,724	229,441	119,732
205,261	4,579	229,300	119,535
206,275	5,103	229,166	119,860
207,290	5,120	229,058	119,806
208,304	5,049	228,836	119,625
209,319	5,110	228,616	119,546
210,334	5,250	228,420	119,540
211,348	4,582	228,262	118,933
212,363	4,337	227,949	118,571
213,377	3,910	227,894	118,204
214,392	4,017	227,517	118,079
215,407	4,088	227,520	118,125
216,421	4,239	227,369	118,152
217,436	4,152	227,129	117,950
218,450	3,680	227,021	117,522
219,465	3,956	226,776	117,596
220,480	3,989	226,623	117,531
221,494	4,051	226,450	117,479
222,509	4,036	226,489	117,477
223,523	3,948	226,347	117,325
224,538	3,969	226,048	117,175
225,553	4,141	226,043	117,294
226,567	4,266	225,849	117,277
227,582	4,547	225,769	117,440
228,596	4,526	225,670	117,361
229,611	4,140	225,407	116,921
230,626	3,872	225,323	116,664
231,640	3,876	225,182	116,584
232,655	4,091	225,037	116,661
233,669	4,569	224,986	116,987
234,684	4,557	224,989	116,968
235,699	4,319	224,687	116,621
236,713	4,372	224,524	116,566
237,728	3,992	224,265	116,134
238,742	3,975	224,061	116,005
239,757	4,004	223,982	115,976
240,772	4,269	223,787	116,064
241,786	3,985	223,562	115,723
242,801	4,278	223,581	115,943
243,815	4,436	223,554	116,038
244,830	4,466	223,251	115,893
245,844	4,129	223,055	115,528
246,859	4,361	222,910	115,616
247,874	4,322	222,748	115,493
248,888	4,492	222,664	115,566
249,903	4,212	222,491	115,257
250,917	4,099	222,238	115,032
251,932	4,088	222,174	114,980
252,947	3,957	222,080	114,823
253,961	4,045	221,922	114,797
254,976	4,067	221,861	114,772
255,990	4,184	221,646	114,737
257,005	4,372	221,504	114,794
258,020	4,279	221,434	114,677
259,034	4,540	221,282	114,782
260,049	4,319	221,184	114,557
261,063	4,150	221,110	114,383
262,078	4,404	220,888	114,446
263,093	4,599	220,716	114,491
264,107	4,133	220,689	114,122
265,122	4,476	220,436	114,235
266,136	4,614	220,381	114,298
267,151	4,620	220,126	114,160
268,166	4,086	219,835	113,605
269,180	3,957	219,674	113,416
270,195	4,115	219,508	113,437
271,209	3,934	219,378	113,227
272,224	4,043	219,347	113,281
273,239	4,292	219,166	113,361
274,253	4,223	218,926	113,176
275,268	3,827	218,786	112,803
276,282	3,702	218,766	112,690
277,297	3,635	218,661	112,577
278,312	3,922	218,413	112,649
279,326	3,828	218,400	112,564
280,341	4,146	218,194	112,681
281,355	4,052	218,145	112,576
282,370	4,106	218,012	112,537
283,384	3,702	217,820	112,133
284,399	3,989	217,545	112,191
285,414	4,070	217,404	112,167
286,428	3,910	217,341	112,008
287,443	4,227	217,259	112,187
288,457	4,102	217,151	112,029
289,472	4,297	216,908	112,036
290,487	3,758	216,579	111,465
291,501	3,707	216,482	111,368
292,516	3,789	216,488	111,421
293,530	4,029	216,242	111,458
294,545	3,814	216,186	111,263
295,560	4,061	216,120	111,399
296,574	3,935	215,959	111,214
297,589	4,020	215,940	111,257
298,603	4,320	215,701	111,340
299,618	4,165	215,644	111,189
300,633	4,010	215,577	111,032
301,647	4,148	215,432	111,048
302,662	4,492	215,195	111,163
303,676	4,235	215,212	110,977
304,691	4,276	214,960	110,867
305,706	4,312	214,815	110,808
306,720	4,446	214,755	110,863
307,735	4,037	214,518	110,437
308,749	4,178	214,217	110,374
309,764	4,122	214,289	110,361
310,779	4,428	214,113	110,479
311,793	4,424	213,862	110,337
312,808	4,076	213,877	110,086
313,822	4,128	213,794	110,071
314,837	4,093	213,460	109,864
315,852	3,979	213,276	109,678
316,866	4,118	213,237	109,747
317,881	4,258	213,154	109,795
318,895	4,227	213,059	109,713
319,910	4,084	212,801	109,469
320,925	3,757	212,695	109,172
321,939	3,661	212,259	108,871
322,954	3,558	212,373	108,847
323,968	4,119	212,229	109,161
324,983	4,264	212,269	109,274
325,997	4,437	212,172	109,337
327,012	4,185	211,861	108,989
328,027	4,207	211,674	108,899
329,041	4,659	211,711	109,227
330,056	4,608	211,570	109,109
331,070	4,099	211,264	108,583
332,085	3,701	211,257	108,288
333,100	4,047	210,970	108,376
334,114	4,075	210,881	108,340
335,129	4,055	210,785	108,267
336,143	3,965	210,628	108,114
337,158	3,793	210,445	107,889
338,173	4,018	210,411	108,020
339,187	4,057	210,265	107,963
340,202	3,887	210,008	107,702
341,216	3,605	209,909	107,444
342,231	3,869	209,771	107,549
343,246	3,872	209,669	107,489
344,260	3,639	209,783	107,375
345,275	3,884	209,466	107,374
346,289	4,099	209,514	107,539
347,304	4,146	209,307	107,456
348,319	4,144	209,104	107,341
349,333	4,027	208,966	107,180
350,348	4,008	208,941	107,143
351,362	4,264	208,763	107,221
352,377	4,300	208,536	107,120
353,392	4,160	208,431	106,959
354,406	4,195	208,354	106,934
355,421	194,576	1345,497	1436,587
356,435	155,276	1484,145	1436,705
