DTS Sentinel unit serial number:	SN410029Multiplexer serial number:	ORYXHardware model number:	OX2-SRSoftware version number:	ORYX F/W v4,00 Oryx Data Collector v3.7.2.0data status	okinstallation	B6 Nyhavnadifferential loss correction	single-endedforward channel	channel 2reverse channel	N/Adate	2023/12/09time	20:05:08forward acquisition time	300,00reverse acquisition time	0,00gamma	499,1914k internal	0,3129k external	0,3129temperature offset calibration	1,0000default loss term (dB/km)	0,3820temperature slope calibration	1,0000multiplexer offset coefficient	1,0000multiplexer slope coefficient	1,0000fibre end	0,00T internal ref (°C)	21,22T ext. ref 1 (°C)	5,26T ext. ref 2 (°C)	5,22length (m)	temperature (°C)	Stokes	anti-Stokes-744,400	-32,640	-0,076	0,031
-743,385	28,449	-0,090	0,056
-742,371	-123,136	-0,043	-0,005
-741,356	-147,957	-0,183	-0,011
-740,342	751,315	0,060	-0,120
-739,327	-4,390	-0,225	0,115
-738,312	99,998	0,051	-0,044
-737,298	-54,911	-0,298	-0,099
-736,283	-200,000	0,003	-0,129
-735,269	-115,895	-0,382	0,052
-734,254	75,915	-0,043	-0,033
-733,239	-101,430	-0,395	-0,071
-732,225	300,133	0,091	0,125
-731,210	-200,000	0,003	0,046
-730,196	787,494	0,004	0,009
-729,181	-178,882	0,082	0,001
-728,167	186,444	-0,077	-0,085
-727,152	800,000	-0,047	-0,104
-726,137	800,000	-0,072	-0,157
-725,123	-34,153	-0,087	-0,035
-724,108	246,858	-0,063	-0,079
-723,094	80,893	-0,166	0,133
-722,079	-108,290	-0,099	0,016
-721,064	-200,000	-0,009	-0,041
-720,050	-200,000	0,006	0,080
-719,035	-22,187	0,089	0,040
-718,021	-47,231	0,119	-0,043
-717,006	135,281	-0,065	-0,063
-715,991	416,432	0,062	-0,098
-714,977	-122,689	-0,050	0,006
-713,962	-200,000	0,013	-0,049
-712,948	-9,708	-0,037	-0,018
-711,933	172,901	-0,090	-0,097
-710,918	800,000	-0,038	0,109
-709,904	155,493	-0,127	0,131
-708,889	800,000	-0,060	-0,197
-707,875	415,843	0,004	0,007
-706,860	156,246	0,055	0,056
-705,845	-54,358	0,103	0,035
-704,831	-200,000	0,018	-0,072
-703,816	-200,000	-0,040	0,170
-702,802	73,721	0,076	0,059
-701,787	-128,463	-0,097	-0,010
-700,772	335,403	0,010	-0,014
-699,758	-192,977	0,028	0,000
-698,743	-109,837	-0,092	0,014
-697,729	-12,802	-0,040	0,019
-696,714	26,567	-0,021	-0,013
-695,699	559,937	-0,056	0,100
-694,685	-97,205	-0,158	0,030
-693,670	219,787	-0,065	-0,077
-692,656	-165,120	-0,126	0,004
-691,641	-200,000	0,019	0,062
-690,627	800,000	0,025	0,073
-689,612	-170,172	-0,070	0,002
-688,597	800,000	0,016	-0,051
-687,583	-98,660	-0,052	-0,010
-686,568	-200,000	0,014	-0,137
-685,554	-151,033	-0,092	0,005
-684,539	230,427	0,017	-0,021
-683,524	-200,000	0,002	-0,072
-682,510	164,351	-0,009	-0,009
-681,495	728,962	0,012	0,024
-680,481	246,154	-0,081	-0,102
-679,466	19,934	-0,131	-0,078
-678,451	342,491	-0,054	0,079
-677,437	-89,925	-0,089	-0,019
-676,422	261,638	-0,060	0,077
-675,408	-100,930	0,018	0,003
-674,393	-200,000	0,011	-0,040
-673,378	-200,000	-0,028	-0,193
-672,364	-200,000	0,015	-0,106
-671,349	-62,794	-0,130	0,040
-670,335	428,636	0,055	-0,088
-669,320	-36,511	0,066	0,026
-668,305	-47,771	-0,049	0,018
-667,291	-44,787	-0,089	0,033
-666,276	415,297	-0,103	-0,164
-665,262	-75,120	-0,093	-0,024
-664,247	-77,596	-0,029	-0,007
-663,232	42,024	0,037	0,025
-662,218	800,000	-0,024	-0,072
-661,203	-200,000	-0,018	-0,070
-660,189	-28,373	0,100	0,043
-659,174	49,074	-0,030	-0,021
-658,159	62,200	-0,170	-0,125
-657,145	-27,080	-0,183	-0,079
-656,130	278,225	0,054	-0,072
-655,116	317,090	-0,101	-0,142
-654,101	226,151	-0,050	0,060
-653,086	525,404	-0,086	0,151
-652,072	800,000	-0,039	-0,096
-651,057	800,000	-0,056	-0,118
-650,043	-200,000	-0,010	0,078
-649,028	173,074	0,071	0,076
-648,014	-101,152	-0,106	0,019
-646,999	800,000	0,033	-0,099
-645,984	689,112	-0,030	-0,059
-644,970	0,477	0,129	-0,068
-643,955	-103,608	-0,056	-0,010
-642,941	51,509	-0,133	-0,093
-641,926	-200,000	-0,020	-0,102
-640,911	216,431	-0,050	-0,058
-639,897	-71,370	0,025	0,007
-638,882	-77,189	-0,078	-0,020
-637,868	16,373	-0,170	-0,099
-636,853	-200,000	0,007	-0,039
-635,838	-200,000	0,001	0,046
-634,824	399,132	-0,036	0,057
-633,809	-200,000	-0,050	0,221
-632,795	-11,668	0,117	0,057
-631,780	-200,000	0,002	0,086
-630,765	31,166	-0,087	0,055
-629,751	255,097	-0,018	0,023
-628,736	-41,590	-0,041	0,015
-627,722	125,571	0,051	-0,048
-626,707	791,944	-0,035	-0,071
-625,692	-101,372	-0,026	-0,005
-624,678	-116,127	0,079	0,011
-623,663	700,925	-0,020	-0,039
-622,649	-98,134	-0,054	0,010
-621,634	-200,000	0,003	-0,068
-620,619	-103,294	0,166	0,029
-619,605	56,165	0,036	0,026
-618,590	130,555	0,103	0,098
-617,576	264,768	0,098	0,127
-616,561	50,518	0,034	-0,024
-615,546	-96,416	-0,043	0,008
-614,532	-118,559	-0,045	0,006
-613,517	-34,065	-0,053	0,022
-612,503	149,069	0,077	0,077
-611,488	800,000	-0,046	0,145
-610,474	-68,771	-0,046	0,013
-609,459	218,332	-0,022	0,026
-608,444	-54,888	-0,137	-0,045
-607,430	75,345	-0,125	-0,098
-606,415	579,921	0,049	-0,089
-605,401	-200,000	-0,037	-0,127
-604,386	6,538	-0,120	-0,066
-603,371	99,361	-0,008	-0,007
-602,357	-200,000	0,021	-0,100
-601,342	107,611	0,127	-0,112
-600,328	-23,768	0,139	-0,061
-599,313	-140,110	0,036	-0,003
-598,298	208,248	-0,029	0,033
-597,284	239,702	-0,052	0,064
-596,269	-31,161	-0,082	0,034
-595,255	-93,473	0,160	-0,033
-594,240	263,814	0,012	-0,016
-593,225	252,787	-0,066	-0,083
-592,211	-200,000	-0,003	-0,095
-591,196	800,000	-0,012	0,029
-590,182	546,785	0,038	-0,068
-589,167	-200,000	-0,010	0,086
-588,152	120,499	0,040	-0,037
-587,138	-106,509	-0,013	0,002
-586,123	800,000	-0,039	-0,085
-585,109	371,532	-0,046	-0,070
-584,094	462,026	0,018	0,030
-583,079	-31,634	-0,096	-0,039
-582,065	382,185	-0,071	-0,109
-581,050	764,891	-0,050	-0,102
-580,036	-189,013	-0,096	0,001
-579,021	9,471	0,056	0,031
-578,006	155,378	-0,099	-0,101
-576,992	800,000	-0,013	-0,038
-575,977	42,154	0,068	0,046
-574,963	-85,880	0,080	0,018
-573,948	-79,322	-0,106	-0,026
-572,934	-200,000	0,000	-0,041
-571,919	-200,000	0,053	-0,215
-570,904	800,000	-0,031	-0,084
-569,890	33,951	0,058	0,037
-568,875	-38,508	0,142	0,055
-567,861	-200,000	-0,016	0,083
-566,846	-200,000	0,003	0,140
-565,831	655,302	-0,073	0,139
-564,817	197,100	0,109	0,123
-563,802	416,464	-0,056	-0,089
-562,788	800,000	0,041	-0,093
-561,773	654,079	0,059	0,113
-560,758	20,092	0,011	0,006
-559,744	44,293	-0,049	-0,033
-558,729	-70,373	-0,062	0,017
-557,715	318,644	-0,079	0,111
-556,700	-102,548	-0,129	0,023
-555,685	-200,000	-0,002	-0,061
-554,671	-86,775	-0,068	0,015
-553,656	800,000	-0,047	0,105
-552,642	-200,000	-0,005	0,085
-551,627	-100,183	0,011	-0,002
-550,612	-200,000	-0,029	-0,122
-549,598	-87,235	-0,112	0,025
-548,583	-82,989	-0,038	-0,009
-547,569	-23,606	-0,093	0,041
-546,554	44,984	-0,022	0,015
-545,539	-65,929	-0,105	-0,031
-544,525	392,952	0,081	0,125
-543,510	-200,000	-0,007	-0,042
-542,496	39,658	-0,028	-0,019
-541,481	-200,000	-0,016	0,082
-540,466	-127,805	0,080	-0,008
-539,452	144,327	-0,086	-0,084
-538,437	-200,000	-0,009	0,074
-537,423	800,000	0,023	0,071
-536,408	-200,000	0,022	0,077
-535,393	160,728	-0,062	0,064
-534,379	-200,000	-0,003	-0,045
-533,364	164,533	-0,051	-0,053
-532,350	-200,000	-0,018	-0,115
-531,335	73,030	0,104	-0,080
-530,321	-159,054	-0,028	0,001
-529,306	176,670	0,076	-0,082
-528,291	285,937	-0,027	0,035
-527,277	33,958	-0,086	0,055
-526,262	28,467	0,073	-0,046
-525,248	800,000	0,015	0,043
-524,233	-200,000	-0,009	0,053
-523,218	-200,000	-0,029	0,109
-522,204	561,548	-0,025	-0,044
-521,189	106,859	0,034	0,029
-520,175	-40,930	0,062	-0,024
-519,160	-200,000	-0,018	-0,061
-518,145	-50,495	0,086	0,030
-517,131	-200,000	0,000	0,043
-516,116	95,876	0,087	-0,073
-515,102	-200,000	0,015	0,082
-514,087	-156,369	-0,073	0,003
-513,072	94,446	-0,068	-0,057
-512,058	800,000	-0,062	-0,139
-511,043	91,686	0,101	0,083
-510,029	211,806	0,084	0,097
-509,014	800,000	0,006	0,013
-507,999	9,997	0,051	0,028
-506,985	-200,000	0,003	-0,035
-505,970	-43,835	0,025	0,009
-504,956	-30,570	0,068	-0,028
-503,941	-189,560	-0,033	0,000
-502,926	242,965	0,023	-0,029
-501,912	351,668	-0,072	0,106
-500,897	-12,279	-0,046	-0,022
-499,883	-50,110	0,092	0,032
-498,868	-73,311	0,121	-0,032
-497,853	-94,668	-0,154	0,031
-496,839	-66,618	0,107	-0,031
-495,824	-200,000	-0,014	-0,065
-494,810	-164,350	0,080	0,003
-493,795	-38,138	-0,080	0,031
-492,781	800,000	0,058	-0,155
-491,766	441,672	-0,065	-0,105
-490,751	-200,000	0,008	-0,032
-489,737	8,754	0,071	-0,039
-488,722	82,588	-0,037	-0,030
-487,708	800,000	0,014	0,037
-486,693	69,404	0,117	0,089
-485,678	-110,693	-0,050	-0,008
-484,664	-4,250	-0,159	0,081
-483,649	52,817	0,055	-0,039
-482,635	800,000	0,037	0,096
-481,620	290,150	0,056	0,075
-480,605	481,594	-0,049	0,083
-479,591	10,621	-0,064	-0,036
-478,576	-200,000	-0,024	-0,137
-477,562	-200,000	0,050	0,209
-476,547	-77,506	0,097	0,025
-475,532	-200,000	0,004	0,021
-474,518	800,000	-0,032	-0,095
-473,503	141,456	0,104	-0,101
-472,489	-156,146	0,103	-0,005
-471,474	-200,000	0,009	-0,037
-470,459	-200,000	-0,007	-0,064
-469,445	661,651	0,110	0,209
-468,430	-200,000	0,061	0,000
-467,416	-200,000	0,001	0,040
-466,401	242,278	0,051	0,063
-465,386	632,007	0,055	-0,103
-464,372	-200,000	0,018	-0,105
-463,357	-200,000	0,011	-0,079
-462,343	736,969	-0,126	-0,251
-461,328	800,000	0,048	-0,114
-460,313	800,000	-0,021	0,046
-459,299	-200,000	-0,004	-0,086
-458,284	-19,579	-0,066	0,030
-457,270	106,611	0,146	0,128
-456,255	51,349	-0,057	0,040
-455,241	-179,618	0,149	0,002
-454,226	-131,518	-0,096	0,009
-453,211	-134,944	0,046	-0,004
-452,197	-88,906	0,017	0,004
-451,182	347,058	-0,060	0,088
-450,168	-200,000	-0,016	0,112
-449,153	48,835	-0,044	-0,030
-448,138	217,925	0,110	-0,130
-447,124	228,906	-0,037	0,044
-446,109	-200,000	0,022	-0,082
-445,095	-22,804	0,115	0,051
-444,080	3,018	0,044	-0,023
-443,065	-130,433	-0,126	0,012
-442,051	-116,353	-0,060	-0,008
-441,036	200,159	0,033	-0,037
-440,022	800,000	-0,012	-0,037
-439,007	-80,803	0,113	-0,027
-437,992	10,299	-0,051	0,028
-436,978	800,000	-0,054	0,138
-435,963	-200,000	0,007	0,040
-434,949	-200,000	-0,031	0,101
-433,934	725,416	0,038	0,074
-432,919	28,070	-0,101	-0,063
-431,905	-200,000	0,015	-0,103
-430,890	800,000	0,046	0,120
-429,876	-39,503	-0,071	-0,027
-428,861	-130,913	0,125	0,012
-427,846	-156,442	0,092	-0,004
-426,832	800,000	0,016	-0,040
-425,817	34,967	0,064	0,041
-424,803	19,573	-0,044	-0,026
-423,788	214,305	-0,085	0,099
-422,773	645,464	0,060	0,113
-421,759	257,680	0,085	0,107
-420,744	-200,000	0,004	0,080
-419,730	-171,779	-0,214	0,005
-418,715	800,000	0,019	-0,046
-417,701	800,000	-0,027	-0,064
-416,686	-200,000	-0,006	0,046
-415,671	-19,535	0,092	0,042
-414,657	237,895	-0,052	0,063
-413,642	800,000	-0,015	0,037
-412,628	71,670	0,099	-0,076
-411,613	-57,810	-0,101	0,032
-410,598	-200,000	-0,030	-0,170
-409,584	-117,086	0,091	-0,012
-408,569	179,728	0,137	-0,147
-407,555	215,299	-0,091	0,107
-406,540	-7,512	0,037	0,018
-405,525	171,879	-0,036	-0,038
-404,511	-66,040	-0,047	-0,014
-403,496	800,000	0,035	0,079
-402,482	-106,132	-0,028	0,005
-401,467	16,954	-0,045	0,026
-400,452	-200,000	-0,009	0,132
-399,438	680,170	-0,032	0,061
-398,423	-4,655	0,095	0,048
-397,409	104,887	-0,061	-0,053
-396,394	800,000	0,071	-0,197
-395,379	-116,032	0,158	-0,021
-394,365	-200,000	0,016	0,254
-393,350	-156,125	-0,206	0,009
-392,336	12,085	0,077	0,043
-391,321	-200,000	-0,001	-0,004
-390,306	-159,340	-0,071	0,003
-389,292	4,036	0,050	-0,027
-388,277	-200,000	0,020	-0,070
-387,263	541,997	0,080	0,141
-386,248	537,333	-0,062	0,108
-385,233	242,266	-0,036	-0,044
-384,219	-23,096	0,088	0,039
-383,204	230,208	-0,024	-0,029
-382,190	4,991	-0,047	-0,025
-381,175	522,029	0,037	0,065
-380,160	-200,000	0,015	0,075
-379,146	151,696	0,051	-0,051
-378,131	84,230	0,016	0,013
-377,117	165,131	-0,088	0,092
-376,102	392,855	-0,022	-0,034
-375,088	-4,610	-0,023	-0,012
-374,073	258,792	-0,110	-0,139
-373,058	670,360	0,030	0,058
-372,044	1,549	0,059	-0,031
-371,029	-200,000	0,000	0,165
-370,015	-200,000	-0,018	0,095
-369,000	-164,200	-0,142	0,005
-367,985	275,001	-0,146	-0,190
-366,971	-73,950	-0,073	0,019
-365,956	610,674	0,027	-0,050
-364,942	-100,371	0,136	-0,024
-363,927	280,114	0,087	-0,114
-362,912	-44,814	-0,208	0,075
-361,898	-131,527	-0,154	0,015
-360,883	-31,628	0,062	0,025
-359,869	800,000	0,052	0,154
-358,854	-142,715	0,190	0,013
-357,839	-200,000	0,004	0,075
-356,825	-25,184	0,037	0,016
-355,810	-17,117	0,067	0,031
-354,796	-19,636	-0,148	-0,067
-353,781	177,079	0,093	0,099
-352,766	800,000	0,030	0,065
-351,752	-85,109	-0,088	0,020
-350,737	-93,499	0,137	0,028
-349,723	-200,000	0,016	0,110
-348,708	-166,197	-0,077	0,002
-347,693	69,007	0,010	0,008
-346,679	-113,727	-0,189	0,027
-345,664	-74,501	-0,062	0,016
-344,650	0,867	0,071	-0,037
-343,635	323,949	0,030	-0,043
-342,620	499,024	0,027	0,045
-341,606	-200,000	0,017	0,078
-340,591	800,000	-0,046	0,097
-339,577	30,227	-0,066	-0,041
-338,562	37,575	0,043	0,028
-337,548	800,000	-0,043	0,130
-336,533	800,000	-0,027	0,082
-335,518	208,738	0,038	0,044
-334,504	-200,000	-0,007	-0,119
-333,489	216,859	0,032	-0,037
-332,475	183,753	0,065	0,070
-331,460	-111,821	0,061	0,009
-330,445	-165,141	0,028	-0,001
-329,431	284,622	0,015	0,020
-328,416	-100,058	0,056	0,010
-327,402	-200,000	-0,028	0,219
-326,387	-129,880	-0,029	-0,003
-325,372	-200,000	-0,010	-0,047
-324,358	-200,000	-0,028	0,108
-323,343	-200,000	0,002	-0,012
-322,329	565,837	-0,049	-0,088
-321,314	-200,000	0,007	0,038
-320,299	256,222	-0,053	0,066
-319,285	-200,000	-0,014	-0,141
-318,270	-45,733	0,105	-0,038
-317,256	525,210	-0,057	0,098
-316,241	179,479	0,075	0,081
-315,226	-43,279	-0,059	0,022
-314,212	800,000	-0,033	0,075
-313,197	343,197	0,060	-0,087
-312,183	800,000	0,065	-0,146
-311,168	659,785	-0,063	0,120
-310,153	-130,496	-0,096	-0,009
-309,139	52,157	-0,031	-0,022
-308,124	-200,000	0,038	0,151
-307,110	-138,887	0,133	-0,010
-306,095	800,000	-0,054	0,119
-305,080	-200,000	0,007	-0,118
-304,066	115,200	-0,043	0,039
-303,051	584,216	-0,062	0,112
-302,037	-16,270	0,070	-0,032
-301,022	-149,977	0,115	-0,006
-300,008	585,301	-0,043	-0,077
-298,993	-80,762	-0,086	0,021
-297,978	-200,000	0,016	0,060
-296,964	-200,000	-0,026	0,139
-295,949	-111,063	0,079	0,012
-294,935	131,853	0,049	0,046
-293,920	-200,000	0,002	0,054
-292,905	-48,615	-0,101	-0,035
-291,891	-82,330	0,155	-0,037
-290,876	291,528	0,081	-0,108
-289,862	259,596	0,092	-0,116
-288,847	451,084	-0,046	0,075
-287,832	317,171	-0,056	-0,077
-286,818	-27,189	0,200	0,085
-285,803	-200,000	0,004	-0,055
-284,789	136,390	-0,030	-0,029
-283,774	10,730	0,080	0,045
-282,759	67,182	-0,049	0,036
-281,745	-106,092	0,123	0,020
-280,730	800,000	-0,041	-0,084
-279,716	108,077	-0,038	0,033
-278,701	122,447	-0,029	0,026
-277,686	-200,000	0,036	-0,120
-276,672	159,704	-0,096	0,098
-275,657	191,008	0,044	-0,049
-274,643	327,886	-0,096	-0,135
-273,628	800,000	0,024	-0,073
-272,613	800,000	-0,031	-0,080
-271,599	800,000	-0,030	0,073
-270,584	-200,000	0,032	0,111
-269,570	800,000	0,017	-0,053
-268,555	-200,000	0,021	-0,106
-267,540	-93,858	-0,026	-0,005
-266,526	-200,000	0,046	-0,168
-265,511	23,812	-0,133	-0,080
-264,497	-84,634	0,059	-0,013
-263,482	552,372	-0,034	0,060
-262,467	-114,313	0,103	0,014
-261,453	36,020	0,059	0,038
-260,438	-34,507	-0,071	-0,028
-259,424	727,371	-0,019	0,038
-258,409	228,279	-0,081	-0,097
-257,395	-78,268	-0,045	0,011
-256,380	-200,000	-0,007	0,061
-255,365	-200,000	0,013	-0,073
-254,351	-200,000	0,006	0,068
-253,336	-200,000	-0,007	-0,032
-252,322	-130,920	-0,072	0,007
-251,307	-150,789	0,052	-0,003
-250,292	-137,881	0,052	-0,004
-249,278	290,724	0,083	0,111
-248,263	363,049	-0,019	-0,028
-247,249	-200,000	-0,022	0,087
-246,234	8,710	-0,051	-0,028
-245,219	524,284	-0,030	-0,052
-244,205	800,000	0,034	-0,093
-243,190	72,776	0,044	0,034
-242,176	-182,802	0,189	-0,002
-241,161	-200,000	-0,002	0,023
-240,146	144,855	-0,067	0,065
-239,132	800,000	-0,011	0,027
-238,117	83,809	0,029	0,023
-237,103	334,291	0,065	-0,092
-236,088	-53,986	-0,125	-0,041
-235,073	-53,275	-0,033	0,011
-234,059	349,751	0,062	0,089
-233,044	447,301	0,048	0,077
-232,030	-10,493	0,134	0,065
-231,015	-147,812	-0,044	-0,003
-230,000	800,000	-0,035	-0,085
-228,986	800,000	0,029	-0,061
-227,971	-149,558	-0,056	0,003
-226,957	157,777	-0,130	0,132
-225,942	-59,291	-0,185	-0,058
-224,927	472,473	0,059	-0,097
-223,913	-200,000	0,001	-0,043
-222,898	-200,000	-0,018	-0,146
-221,884	202,869	0,083	-0,093
-220,869	48,222	0,070	0,047
-219,855	28,007	0,018	-0,011
-218,840	15,611	-0,089	0,051
-217,825	-84,288	-0,212	-0,049
-216,811	564,920	0,017	-0,031
-215,796	-200,000	0,009	-0,050
-214,782	62,736	-0,095	-0,069
-213,767	44,260	-0,018	0,012
-212,752	-148,930	0,094	-0,005
-211,738	-200,000	-0,029	0,181
-210,723	-58,031	0,050	0,016
-209,709	243,714	-0,127	-0,156
-208,694	-200,000	-0,009	0,108
-207,679	-200,000	0,009	-0,132
-206,665	174,596	-0,028	0,029
-205,650	-24,255	0,054	-0,023
-204,636	800,000	-0,006	0,014
-203,621	-60,046	0,040	-0,012
-202,606	-124,446	-0,081	-0,009
-201,592	800,000	0,018	-0,044
-200,577	4,297	-0,035	0,019
-199,563	-98,087	0,094	-0,017
-198,548	-90,393	0,065	-0,014
-197,533	-128,025	0,167	-0,017
-196,519	105,272	-0,089	0,077
-195,504	-200,000	-0,009	0,081
-194,490	800,000	0,011	-0,025
-193,475	28,224	-0,051	0,031
-192,460	777,824	0,040	-0,080
-191,446	200,284	0,059	-0,067
-190,431	-32,304	-0,077	-0,031
-189,417	105,200	-0,077	0,067
-188,402	-200,000	0,017	0,079
-187,387	84,909	0,040	0,032
-186,373	-200,000	0,005	-0,081
-185,358	410,834	0,114	-0,177
-184,344	94,291	0,080	-0,066
-183,329	307,057	-0,041	0,055
-182,315	-76,419	0,020	-0,005
-181,300	49,369	-0,003	0,002
-180,285	800,000	0,020	-0,059
-179,271	64,175	-0,071	-0,052
-178,256	46,704	0,060	-0,041
-177,242	-200,000	-0,020	-0,103
-176,227	-20,142	0,025	0,011
-175,212	-55,825	0,112	-0,036
-174,198	42,006	-0,016	-0,011
-173,183	800,000	-0,025	-0,061
-172,169	-200,000	0,038	-0,132
-171,154	-101,001	-0,093	-0,016
-170,139	-145,249	0,044	-0,003
-169,125	-200,000	-0,039	-0,148
-168,110	-200,000	-0,005	0,062
-167,096	130,811	-0,007	0,006
-166,081	-21,970	-0,060	-0,027
-165,066	-76,017	-0,054	-0,014
-164,052	631,342	0,030	-0,056
-163,037	796,500	0,037	-0,074
-162,023	-119,315	0,105	0,013
-161,008	-200,000	-0,005	-0,028
-159,993	45,789	0,043	0,029
-158,979	-50,660	-0,110	0,037
-157,964	216,039	-0,051	-0,059
-156,950	-127,504	-0,138	-0,014
-155,935	99,722	0,049	0,041
-154,920	-35,869	0,065	-0,026
-153,906	-137,457	0,048	-0,004
-152,891	-200,000	-0,006	0,023
-151,877	-200,000	-0,028	0,117
-150,862	91,068	0,018	-0,015
-149,847	-200,000	0,043	-0,137
-148,833	-40,230	-0,168	-0,063
-147,818	-90,328	0,029	-0,006
-146,804	-58,420	0,153	0,048
-145,789	411,960	-0,011	0,018
-144,775	800,000	-0,086	-0,221
-143,760	-89,260	0,098	0,021
-142,745	551,025	0,056	-0,098
-141,731	800,000	-0,024	-0,061
-140,716	-64,500	-0,048	-0,014
-139,702	-200,000	0,035	0,134
-138,687	25,797	0,039	0,024
-137,672	404,258	0,007	0,010
-136,658	-19,480	0,065	0,029
-135,643	-200,000	0,013	0,048
-134,629	116,712	0,084	-0,075
-133,614	80,799	0,088	-0,069
-132,599	-200,000	-0,024	-0,157
-131,585	-200,000	0,005	-0,112
-130,570	-200,000	-0,002	-0,051
-129,556	258,881	0,073	0,092
-128,541	800,000	0,056	-0,127
-127,526	-69,340	-0,030	-0,008
-126,512	-200,000	-0,013	0,084
-125,497	-200,000	0,011	0,038
-124,483	32,507	-0,046	-0,029
-123,468	2,844	0,118	-0,062
-122,453	-120,030	-0,204	0,025
-121,439	800,000	-0,031	-0,075
-120,424	-126,089	0,116	-0,012
-119,410	800,000	-0,022	-0,057
-118,395	267,607	-0,013	0,017
-117,380	134,683	0,101	0,095
-116,366	-27,925	-0,077	0,032
-115,351	-200,000	0,008	-0,052
-114,337	79,409	0,090	0,070
-113,322	477,924	0,017	0,028
-112,307	-119,856	-0,091	0,011
-111,293	-3,833	0,078	0,039
-110,278	398,908	0,061	0,093
-109,264	110,057	-0,153	-0,134
-108,249	605,625	-0,063	-0,114
-107,234	71,546	-0,052	0,039
-106,220	-79,253	-0,048	0,012
-105,205	118,469	0,068	0,061
-104,191	800,000	0,034	0,103
-103,176	644,185	-0,035	-0,066
-102,162	734,461	0,075	0,146
-101,147	42,170	-0,042	-0,027
-100,132	-135,912	-0,039	-0,003
-99,118	-136,831	0,145	-0,012
-98,103	86,582	0,021	-0,017
-97,089	541,777	0,041	0,071
-96,074	-104,997	-0,096	0,016
-95,059	800,000	-0,040	0,095
-94,045	59,508	-0,035	-0,025
-93,030	-200,000	0,012	-0,052
-92,016	-37,771	-0,081	-0,031
-91,001	-70,625	0,024	-0,007
-89,986	-200,000	0,003	-0,053
-88,972	-177,842	0,142	-0,002
-87,957	1,548	-0,020	-0,010
-86,943	132,963	-0,062	-0,058
-85,928	144,032	-0,130	-0,126
-84,913	146,417	0,092	-0,089
-83,899	-104,701	-0,062	-0,010
-82,884	-200,000	-0,009	0,115
-81,870	-90,195	-0,102	-0,021
-80,855	-200,000	-0,012	0,131
-79,840	243,664	0,035	-0,043
-78,826	32,273	0,035	-0,022
-77,811	-200,000	-0,032	-0,191
-76,797	-185,086	0,094	0,001
-75,782	-200,000	-0,017	-0,091
-74,767	-200,000	-0,012	-0,114
-73,753	133,931	-0,023	-0,022
-72,738	-200,000	-0,005	-0,082
-71,724	213,841	0,072	-0,083
-70,709	-44,520	0,085	-0,030
-69,694	800,000	0,029	-0,089
-68,680	800,000	-0,040	-0,082
-67,665	-67,477	0,162	0,046
-66,651	55,809	-0,060	0,042
-65,636	158,360	0,056	0,056
-64,622	800,000	-0,040	-0,118
-63,607	174,783	-0,052	0,055
-62,592	95,737	0,046	-0,038
-61,578	249,234	-0,078	0,096
-60,563	800,000	0,041	0,126
-59,549	198,718	0,017	-0,019
-58,534	-90,319	-1,594	-0,332
-57,519	490,188	-0,786	-1,307
-56,505	-200,000	-0,912	-4,587
-55,490	-94,438	0,529	-0,104
-54,476	800,000	4,889	11,813
-53,461	-200,000	14,705	257,645
-52,446	-200,000	696,956	2233,038
-51,432	564,662	1623,912	2861,187
-50,417	117,221	1630,898	1451,439
-49,403	73,942	1284,822	974,875
-48,388	37,446	1022,779	655,358
-47,373	23,335	981,684	582,679
-46,359	22,588	970,923	573,824
-45,344	21,469	966,704	567,658
-44,330	21,409	965,256	566,590
-43,315	21,298	963,661	565,267
-42,300	21,277	962,766	564,654
-41,286	21,249	961,907	564,036
-40,271	21,288	960,558	563,349
-39,257	21,217	959,836	562,675
-38,242	21,250	958,935	562,229
-37,227	21,245	958,143	561,726
-36,213	21,169	957,215	560,915
-35,198	21,187	956,327	560,430
-34,184	21,232	955,570	560,110
-33,169	21,260	954,563	559,587
-32,154	21,246	953,886	559,123
-31,140	21,285	952,938	558,671
-30,125	21,298	952,330	558,334
-29,111	21,290	951,376	557,727
-28,096	21,231	950,654	557,093
-27,082	21,231	950,101	556,746
-26,067	21,292	949,054	556,307
-25,052	21,282	948,439	555,890
-24,038	21,270	947,836	555,477
-23,023	21,221	947,314	554,993
-22,009	21,351	946,437	554,873
-20,994	21,276	945,964	554,333
-19,979	21,293	945,316	553,986
-18,965	21,306	944,579	553,572
-17,950	21,272	944,064	553,142
-16,936	21,244	943,363	552,621
-15,921	21,244	942,596	552,148
-14,906	21,164	942,055	551,556
-13,892	21,106	941,531	551,043
-12,877	21,130	940,816	550,677
-11,863	21,117	940,040	550,160
-10,848	21,109	939,816	549,981
-9,833	21,272	939,213	550,125
-8,819	21,255	938,608	549,693
-7,804	21,093	938,052	548,834
-6,790	21,136	937,456	548,600
-5,775	21,128	936,732	548,130
-4,760	21,140	936,140	547,800
-3,746	21,126	935,540	547,380
-2,731	21,042	934,691	546,598
-1,717	20,991	933,908	545,958
-0,702	20,935	933,541	545,546
0,313	20,760	932,913	545,450
1,327	23,735	930,953	553,599
2,342	32,956	794,139	496,732
3,356	30,426	451,305	278,455
4,371	0,330	295,263	152,007
5,386	-3,898	276,489	138,309
6,400	-5,003	270,697	134,368
7,415	-5,543	268,403	132,718
8,429	-5,330	267,099	132,257
9,444	-5,219	266,265	131,935
10,459	-5,208	265,637	131,622
11,473	-5,239	264,939	131,236
12,488	-5,443	264,523	130,833
13,502	-5,624	264,004	130,399
14,517	-5,595	263,629	130,229
15,531	-5,616	263,259	130,016
16,546	-5,495	262,852	129,912
17,561	-5,610	262,344	129,546
18,575	-5,451	262,147	129,581
19,590	-5,651	261,622	129,129
20,604	-5,585	261,638	129,185
21,619	-5,501	261,317	129,090
22,634	-5,588	260,911	128,800
23,648	-5,730	260,642	128,528
24,663	-5,493	260,232	128,528
25,677	-5,612	260,043	128,316
26,692	-5,688	259,777	128,105
27,707	-5,521	259,529	128,121
28,721	-5,491	259,175	127,961
29,736	-5,644	258,911	127,683
30,750	-5,702	258,656	127,495
31,765	-5,673	258,637	127,499
32,780	-5,646	258,296	127,345
33,794	-5,524	257,961	127,276
34,809	-5,690	257,752	127,014
35,823	-5,428	257,367	127,046
36,838	-5,779	257,311	126,696
37,853	-5,701	257,034	126,617
38,867	-5,876	256,940	126,405
39,882	-5,889	256,684	126,256
40,896	-5,597	256,330	126,328
41,911	-5,570	256,003	126,179
42,926	-5,704	256,007	126,052
43,940	-5,848	255,662	125,744
44,955	-5,680	255,445	125,774
45,969	-5,775	255,279	125,597
46,984	-6,043	254,919	125,175
47,999	-6,119	254,814	125,046
49,013	-6,313	254,529	124,725
50,028	-6,300	254,184	124,555
51,042	-6,251	253,939	124,467
52,057	-6,471	253,808	124,200
53,071	-6,374	253,593	124,169
54,086	-6,151	253,411	124,262
55,101	-6,208	253,502	124,246
56,115	-5,899	253,080	124,297
57,130	-5,546	253,007	124,556
58,144	-5,548	252,837	124,460
59,159	-5,354	252,486	124,445
60,174	-5,208	252,393	124,513
61,188	-5,469	252,226	124,194
62,203	-5,537	251,981	124,004
63,217	-5,611	251,921	123,899
64,232	-5,491	251,548	123,808
65,247	-5,481	251,421	123,743
66,261	-5,536	251,166	123,560
67,276	-5,731	250,821	123,211
68,290	-5,849	250,490	122,936
69,305	-6,047	250,444	122,733
70,320	-5,967	250,304	122,722
71,334	-5,561	250,071	122,945
72,349	-5,512	249,959	122,920
73,363	-5,423	249,753	122,884
74,378	-5,400	249,528	122,783
75,393	-5,499	249,245	122,547
76,407	-5,737	249,211	122,317
77,422	-5,612	248,903	122,261
78,436	-5,381	248,610	122,303
79,451	-5,538	248,391	122,051
80,466	-5,562	248,222	121,937
81,480	-5,662	247,904	121,685
82,495	-5,808	247,802	121,500
83,509	-5,987	247,752	121,313
84,524	-5,839	247,465	121,287
85,539	-5,954	247,137	121,018
86,553	-6,019	247,166	120,967
87,568	-5,694	246,835	121,068
88,582	-5,862	246,655	120,827
89,597	-5,769	246,536	120,837
90,611	-5,584	246,279	120,856
91,626	-5,632	246,292	120,811
92,641	-5,562	246,117	120,773
93,655	-5,712	245,811	120,486
94,670	-5,716	245,642	120,389
95,684	-5,809	245,417	120,190
96,699	-5,624	245,340	120,297
97,714	-5,745	245,055	120,045
98,728	-5,859	244,838	119,833
99,743	-6,130	244,778	119,566
100,757	-5,777	244,375	119,653
101,772	-5,873	244,179	119,466
102,787	-5,958	244,215	119,402
103,801	-5,763	243,809	119,356
104,816	-5,894	243,887	119,274
105,830	-5,611	243,598	119,358
106,845	-5,539	243,449	119,334
107,860	-5,414	243,143	119,277
108,874	-5,737	243,049	118,952
109,889	-5,743	242,860	118,844
110,903	-5,696	242,741	118,814
111,918	-5,623	242,465	118,729
112,933	-5,802	242,413	118,545
113,947	-5,802	242,198	118,429
114,962	-5,756	242,093	118,405
115,976	-5,629	241,911	118,411
116,991	-5,637	241,710	118,295
118,006	-5,743	241,384	118,038
119,020	-5,737	241,372	118,026
120,035	-5,554	241,179	118,071
121,049	-5,693	241,166	117,941
122,064	-5,471	240,969	118,016
123,079	-5,499	240,573	117,789
124,093	-5,630	240,480	117,625
125,108	-5,808	240,211	117,337
126,122	-6,083	239,966	116,982
127,137	-6,075	239,818	116,906
128,151	-5,930	239,646	116,930
129,166	-5,799	239,451	116,932
130,181	-5,938	239,267	116,718
131,195	-5,872	239,115	116,688
132,210	-5,688	238,869	116,707
133,224	-5,535	238,898	116,835
134,239	-5,507	238,694	116,748
135,254	-5,659	238,514	116,525
136,268	-5,853	238,223	116,216
137,283	-5,947	238,121	116,079
138,297	-6,197	237,822	115,720
139,312	-6,042	237,594	115,725
140,327	-5,643	237,503	115,993
141,341	-5,369	237,553	116,228
142,356	-5,306	237,406	116,197
143,370	-5,280	237,310	116,161
144,385	-5,277	237,069	116,035
145,400	-5,377	236,820	115,822
146,414	-5,394	236,637	115,709
147,429	-5,448	236,433	115,556
148,443	-5,538	236,295	115,405
149,458	-5,330	236,121	115,477
150,473	-5,485	236,071	115,317
151,487	-5,293	235,724	115,292
152,502	-5,419	235,668	115,153
153,516	-5,260	235,455	115,166
154,531	-5,654	235,423	114,824
155,546	-5,544	235,134	114,761
156,560	-5,524	234,961	114,683
157,575	-5,478	234,822	114,641
158,589	-5,309	234,647	114,681
159,604	-5,408	234,421	114,482
160,619	-5,295	234,267	114,485
161,633	-5,215	234,223	114,518
162,648	-5,318	233,974	114,303
163,662	-5,402	233,910	114,195
164,677	-5,365	233,737	114,130
165,692	-5,290	233,554	114,090
166,706	-5,094	233,442	114,181
167,721	-5,247	233,300	113,979
168,735	-5,091	232,927	113,911
169,750	-5,193	232,994	113,853
170,764	-5,291	232,904	113,721
171,779	-5,221	232,721	113,677
172,794	-5,218	232,566	113,593
173,808	-5,373	232,339	113,350
174,823	-5,885	231,997	112,770
175,837	-5,963	231,861	112,632
176,852	-5,480	231,865	113,004
177,867	-5,353	231,653	112,991
178,881	-5,020	231,462	113,149
179,896	-5,218	231,409	112,958
180,910	-5,226	231,317	112,897
181,925	-5,381	231,037	112,628
182,940	-5,133	231,003	112,796
183,954	-5,357	230,820	112,521
184,969	-4,966	230,622	112,721
185,983	-5,088	230,498	112,555
186,998	-5,243	230,399	112,375
188,013	-5,151	230,221	112,350
189,027	-5,010	230,093	112,388
190,042	-5,049	229,947	112,276
191,056	-5,081	229,769	112,154
192,071	-5,086	229,614	112,064
193,086	-5,091	229,281	111,888
194,100	-4,875	229,235	112,024
195,115	-5,241	228,993	111,611
196,129	-5,923	228,699	110,929
197,144	-3,286	229,730	113,471
198,159	1,596	230,900	117,851
199,173	3,682	231,434	119,740
200,188	4,006	231,374	119,951
201,202	3,766	231,347	119,739
202,217	4,082	231,238	119,918
203,232	4,141	231,004	119,832
204,246	4,239	230,956	119,873
205,261	4,257	230,694	119,740
206,275	4,534	230,590	119,890
207,290	4,551	230,430	119,810
208,304	4,685	230,288	119,829
209,319	4,453	230,090	119,536
210,334	4,304	230,018	119,373
211,348	4,138	229,698	119,068
212,363	3,782	229,619	118,741
213,377	3,523	229,248	118,338
214,392	3,455	229,045	118,171
215,407	3,680	229,010	118,316
216,421	3,727	228,788	118,226
217,436	3,606	228,641	118,047
218,450	3,416	228,522	117,829
219,465	3,190	228,312	117,536
220,480	3,671	228,003	117,736
221,494	3,551	228,045	117,655
222,509	3,637	227,977	117,675
223,523	3,687	227,644	117,531
224,538	3,538	227,536	117,351
225,553	3,821	227,417	117,496
226,567	3,878	227,324	117,480
227,582	3,908	227,177	117,417
228,596	4,071	227,120	117,501
229,611	3,901	226,922	117,259
230,626	3,446	226,652	116,763
231,640	3,557	226,514	116,766
232,655	3,829	226,505	116,957
233,669	4,220	226,412	117,196
234,684	4,256	226,279	117,144
235,699	3,906	226,087	116,769
236,713	3,906	226,031	116,730
237,728	3,395	225,884	116,255
238,742	3,375	225,472	116,018
239,757	3,749	225,381	116,244
240,772	3,546	225,182	115,977
241,786	3,713	225,104	116,053
242,801	3,710	225,037	116,006
243,815	3,948	224,979	116,146
244,830	4,070	224,754	116,111
245,844	3,629	224,569	115,673
246,859	3,774	224,551	115,763
247,874	4,028	224,113	115,717
248,888	3,849	224,238	115,637
249,903	3,809	223,978	115,462
250,917	3,625	223,809	115,227
251,932	3,699	223,714	115,224
252,947	3,644	223,447	115,034
253,961	3,547	223,323	114,888
254,976	3,672	223,256	114,936
255,990	3,722	223,094	114,880
257,005	4,057	222,949	115,045
258,020	3,903	222,957	114,924
259,034	4,202	222,808	115,060
260,049	3,924	222,625	114,748
261,063	3,971	222,455	114,685
262,078	4,178	222,311	114,755
263,093	3,938	222,304	114,563
264,107	3,988	222,035	114,451
265,122	3,944	221,903	114,340
266,136	4,083	221,874	114,418
267,151	3,975	221,674	114,224
268,166	3,782	221,348	113,904
269,180	3,427	221,214	113,562
270,195	3,562	221,036	113,559
271,209	3,517	220,872	113,432
272,224	3,670	220,722	113,457
273,239	3,781	220,583	113,458
274,253	3,568	220,420	113,207
275,268	3,495	220,190	113,025
276,282	3,628	219,941	112,985
277,297	3,346	219,976	112,785
278,312	3,440	219,828	112,769
279,326	3,572	219,734	112,807
280,341	3,717	219,651	112,861
281,355	3,625	219,491	112,702
282,370	3,671	219,171	112,561
283,384	3,314	219,282	112,346
284,399	3,175	218,982	112,080
285,414	3,318	218,854	112,110
286,428	3,784	218,723	112,374
287,443	3,806	218,713	112,374
288,457	3,842	218,525	112,294
289,472	3,725	218,279	112,072
290,487	3,369	218,028	111,674
291,501	3,238	217,974	111,540
292,516	3,360	217,862	111,562
293,530	3,483	217,809	111,614
294,545	3,471	217,581	111,479
295,560	3,469	217,393	111,372
296,574	3,644	217,425	111,505
297,589	3,617	217,254	111,387
298,603	3,859	217,190	111,521
299,618	3,593	216,977	111,209
300,633	3,418	216,989	111,078
301,647	4,100	216,788	111,459
302,662	4,033	216,678	111,344
303,676	4,032	216,587	111,286
304,691	4,036	216,343	111,154
305,706	4,027	216,268	111,099
306,720	3,975	216,154	110,993
307,735	3,658	215,859	110,603
308,749	3,643	215,686	110,494
309,764	3,649	215,781	110,537
310,779	4,000	215,553	110,663
311,793	4,031	215,386	110,589
312,808	3,872	215,228	110,384
313,822	3,744	215,089	110,212
314,837	3,624	214,866	110,001
315,852	3,538	214,619	109,803
316,866	3,825	214,554	109,966
317,881	3,813	214,579	109,961
318,895	4,029	214,361	109,993
319,910	3,710	214,164	109,655
320,925	3,455	214,007	109,383
321,939	3,242	213,776	109,103
322,954	3,306	213,810	109,156
323,968	3,788	213,726	109,447
324,983	3,903	213,621	109,465
325,997	4,048	213,567	109,531
327,012	3,753	213,284	109,167
328,027	3,605	213,244	109,031
329,041	3,902	213,195	109,207
330,056	4,309	212,882	109,326
331,070	3,604	212,830	108,789
332,085	3,611	212,407	108,569
333,100	3,483	212,436	108,483
334,114	3,779	212,280	108,603
335,129	3,687	212,141	108,457
336,143	3,440	211,938	108,169
337,158	3,726	211,848	108,316
338,173	3,380	211,761	108,017
339,187	3,653	211,481	108,058
340,202	3,478	211,346	107,856
341,216	3,350	211,216	107,690
342,231	3,329	211,289	107,702
343,246	3,519	211,053	107,706
344,260	3,462	210,965	107,612
345,275	3,534	210,789	107,562
346,289	3,902	210,727	107,779
347,304	3,858	210,586	107,667
348,319	3,698	210,376	107,438
349,333	3,530	210,267	107,255
350,348	3,464	210,164	107,147
351,362	3,996	210,082	107,467
352,377	3,714	209,911	107,173
353,392	3,671	209,742	107,047
354,406	3,773	209,673	107,074
355,421	194,447	1344,622	1431,986
356,435	155,208	1482,982	1432,073
