DTS Sentinel unit serial number:	SN410029Multiplexer serial number:	ORYXHardware model number:	OX2-SRSoftware version number:	ORYX F/W v4,00 Oryx Data Collector v3.7.2.0data status	okinstallation	B6 Nyhavnadifferential loss correction	single-endedforward channel	channel 2reverse channel	N/Adate	2023/12/10time	09:25:08forward acquisition time	300,00reverse acquisition time	0,00gamma	499,1914k internal	0,3123k external	0,3123temperature offset calibration	1,0000default loss term (dB/km)	0,3820temperature slope calibration	1,0000multiplexer offset coefficient	1,0000multiplexer slope coefficient	1,0000fibre end	0,00T internal ref (°C)	22,55T ext. ref 1 (°C)	6,32T ext. ref 2 (°C)	6,32length (m)	temperature (°C)	Stokes	anti-Stokes-744,400	-95,121	0,104	-0,021
-743,385	250,562	-0,165	0,210
-742,371	-95,020	0,134	-0,027
-741,356	187,869	-0,248	0,276
-740,342	-107,577	0,048	-0,008
-739,327	-10,286	-0,255	0,126
-738,312	350,817	0,031	-0,046
-737,298	-180,299	-0,316	0,005
-736,283	-86,980	0,182	0,041
-735,269	-67,619	-0,249	0,072
-734,254	-59,107	0,120	-0,038
-733,239	-92,954	-0,400	-0,082
-732,225	-31,906	0,169	-0,070
-731,210	-103,224	0,052	0,009
-730,196	-200,000	0,010	-0,042
-729,181	15,432	-0,043	-0,025
-728,167	-105,442	0,147	0,025
-727,152	-120,041	-0,221	0,028
-726,137	115,091	-0,073	-0,066
-725,123	-53,247	-0,068	0,023
-724,108	-57,361	0,038	-0,012
-723,094	-130,883	-0,192	-0,019
-722,079	-31,274	-0,083	-0,035
-721,064	245,887	0,023	-0,029
-720,050	380,350	-0,084	-0,129
-719,035	310,712	0,003	0,004
-718,021	102,496	-0,092	-0,080
-717,006	-79,518	-0,159	-0,040
-715,991	2,606	-0,085	0,046
-714,977	800,000	0,015	-0,041
-713,962	-200,000	-0,014	-0,163
-712,948	29,082	-0,012	-0,008
-711,933	-200,000	-0,033	-0,127
-710,918	800,000	-0,062	-0,161
-709,904	800,000	-0,029	-0,067
-708,889	34,195	-0,107	-0,069
-707,875	585,520	-0,026	0,047
-706,860	-51,364	-0,094	-0,033
-705,845	81,645	0,055	-0,044
-704,831	47,522	-0,051	0,036
-703,816	-200,000	0,018	-0,104
-702,802	-200,000	-0,001	0,123
-701,787	-30,323	-0,078	-0,033
-700,772	800,000	0,059	-0,191
-699,758	516,558	-0,039	-0,068
-698,743	-74,100	-0,018	0,005
-697,729	107,085	0,112	0,099
-696,714	40,480	-0,062	-0,041
-695,699	-200,000	0,003	-0,033
-694,685	800,000	0,037	-0,098
-693,670	-200,000	0,006	-0,083
-692,656	-140,529	-0,084	-0,006
-691,641	-42,000	0,155	-0,059
-690,627	-200,000	-0,001	-0,029
-689,612	117,039	-0,106	-0,097
-688,597	-200,000	0,002	-0,117
-687,583	-200,000	-0,046	-0,155
-686,568	-110,858	-0,044	-0,007
-685,554	800,000	0,029	0,071
-684,539	297,050	-0,072	0,099
-683,524	756,805	0,084	-0,169
-682,510	-200,000	-0,000	0,083
-681,495	-200,000	-0,019	-0,094
-680,481	136,145	0,100	-0,097
-679,466	266,241	0,001	0,001
-678,451	-200,000	-0,005	-0,143
-677,437	-63,158	-0,051	-0,016
-676,422	231,067	-0,040	0,049
-675,408	-134,935	-0,052	0,005
-674,393	-110,067	-0,163	0,025
-673,378	800,000	-0,028	-0,088
-672,364	168,179	-0,058	0,062
-671,349	800,000	-0,080	0,178
-670,335	270,152	-0,011	-0,015
-669,320	-80,089	0,144	0,036
-668,305	-200,000	0,006	0,126
-667,291	-200,000	0,022	-0,152
-666,276	64,295	-0,094	0,070
-665,262	228,471	-0,063	-0,076
-664,247	480,235	-0,089	-0,151
-663,232	-200,000	-0,003	-0,070
-662,218	-200,000	-0,001	-0,014
-661,203	800,000	0,014	-0,043
-660,189	157,292	-0,104	-0,107
-659,174	-181,384	-0,047	-0,001
-658,159	-40,075	-0,131	-0,051
-657,145	800,000	-0,025	-0,052
-656,130	-200,000	-0,008	0,034
-655,116	-21,405	0,020	0,009
-654,101	-141,873	0,123	0,009
-653,086	253,202	-0,032	-0,040
-652,072	-39,150	-0,160	0,062
-651,057	59,290	0,058	-0,043
-650,043	178,543	-0,094	0,102
-649,028	-23,098	-0,035	-0,016
-648,014	615,191	-0,027	-0,051
-646,999	-200,000	0,001	0,037
-645,984	-20,841	0,095	0,043
-644,970	800,000	-0,059	-0,132
-643,955	-200,000	0,000	0,047
-642,941	-200,000	0,001	-0,071
-641,926	800,000	-0,031	-0,066
-640,911	115,124	-0,083	0,076
-639,897	800,000	0,027	-0,067
-638,882	800,000	0,022	0,056
-637,868	-136,026	-0,072	0,006
-636,853	405,009	0,080	-0,126
-635,838	-122,965	-0,110	0,013
-634,824	152,187	-0,037	0,038
-633,809	284,147	-0,062	-0,084
-632,795	66,011	0,034	0,026
-631,780	-114,939	0,076	-0,011
-630,765	-120,090	-0,098	0,012
-629,751	-200,000	0,029	-0,123
-628,736	-102,446	-0,122	-0,021
-627,722	132,218	-0,025	-0,024
-626,707	1,109	-0,036	0,019
-625,692	-137,227	-0,163	0,014
-624,678	-163,848	0,150	-0,005
-623,663	49,394	-0,092	0,064
-622,649	154,826	-0,095	-0,097
-621,634	325,948	0,063	-0,090
-620,619	800,000	0,025	0,074
-619,605	-97,935	0,124	0,023
-618,590	594,809	-0,014	0,026
-617,576	-200,000	0,031	-0,104
-616,561	-200,000	0,040	-0,157
-615,546	-71,136	-0,047	-0,013
-614,532	800,000	-0,071	-0,170
-613,517	250,239	0,062	0,078
-612,503	435,742	-0,087	0,141
-611,488	-200,000	-0,007	0,169
-610,474	-200,000	-0,026	0,201
-609,459	209,733	-0,010	0,011
-608,444	155,235	-0,132	0,135
-607,430	-200,000	-0,012	-0,172
-606,415	-200,000	-0,007	-0,088
-605,401	-200,000	0,003	-0,047
-604,386	-200,000	0,033	-0,115
-603,371	-200,000	-0,021	0,106
-602,357	36,217	0,072	-0,047
-601,342	-200,000	0,004	0,047
-600,328	-61,743	0,081	0,025
-599,313	-51,071	0,149	0,052
-598,298	800,000	-0,049	-0,148
-597,284	-200,000	0,056	-0,202
-596,269	50,967	-0,105	0,073
-595,255	800,000	0,080	0,171
-594,240	-14,019	-0,053	-0,025
-593,225	-200,000	0,025	-0,109
-592,211	800,000	0,027	-0,081
-591,196	43,608	-0,070	0,047
-590,182	-200,000	0,040	0,159
-589,167	800,000	0,069	0,184
-588,152	-200,000	0,014	-0,072
-587,138	-200,000	0,004	-0,041
-586,123	-200,000	-0,004	-0,178
-585,109	-200,000	0,001	-0,056
-584,094	800,000	0,019	0,040
-583,079	800,000	0,061	-0,176
-582,065	-89,539	0,171	0,037
-581,050	-200,000	0,032	0,149
-580,036	-200,000	-0,021	-0,094
-579,021	-34,608	-0,124	0,050
-578,006	-122,087	-0,023	0,003
-576,992	-103,921	-0,043	-0,007
-575,977	141,278	0,043	-0,042
-574,963	800,000	0,047	-0,108
-573,948	-200,000	-0,005	-0,097
-572,934	-200,000	0,003	0,009
-571,919	-103,309	0,049	-0,008
-570,904	613,076	0,015	0,028
-569,890	108,103	0,061	0,054
-568,875	800,000	0,062	-0,178
-567,861	35,049	0,069	0,044
-566,846	800,000	-0,049	-0,150
-565,831	33,611	0,084	-0,054
-564,817	800,000	-0,037	0,101
-563,802	473,784	-0,028	-0,047
-562,788	-200,000	0,021	-0,135
-561,773	-36,163	-0,047	0,019
-560,758	333,066	0,058	0,084
-559,744	9,875	-0,102	0,057
-558,729	189,155	-0,068	0,075
-557,715	-7,031	0,036	-0,018
-556,700	800,000	-0,044	0,092
-555,685	104,892	0,078	-0,068
-554,671	-156,985	-0,108	-0,005
-553,656	68,197	0,046	0,035
-552,642	56,123	0,056	-0,040
-551,627	-200,000	-0,007	0,038
-550,612	-142,550	0,027	0,002
-549,598	-115,399	-0,101	-0,014
-548,583	629,258	0,016	-0,030
-547,569	377,945	0,078	0,118
-546,554	800,000	-0,045	0,094
-545,539	-22,407	0,103	-0,046
-544,525	325,415	0,098	0,139
-543,510	303,358	-0,063	-0,087
-542,496	224,102	-0,073	-0,088
-541,481	412,810	-0,017	-0,027
-540,466	-200,000	-0,024	0,181
-539,452	206,237	-0,133	0,154
-538,437	-10,994	-0,140	0,068
-537,423	120,388	0,136	0,125
-536,408	-147,344	-0,108	0,007
-535,393	-144,784	-0,060	0,004
-534,379	-177,146	-0,112	0,002
-533,364	-165,230	-0,094	0,003
-532,350	197,056	0,019	0,022
-531,335	-152,325	0,109	0,006
-530,321	-98,127	-0,128	-0,024
-529,306	148,301	-0,071	-0,071
-528,291	-43,311	-0,146	-0,054
-527,277	151,943	-0,084	0,085
-526,262	-182,697	-0,120	0,002
-525,248	113,156	0,088	0,078
-524,233	-71,732	0,102	-0,028
-523,218	126,908	0,063	0,059
-522,204	404,295	0,031	0,048
-521,189	-200,000	0,013	0,078
-520,175	800,000	-0,013	-0,030
-519,160	800,000	0,025	-0,076
-518,145	60,832	0,068	-0,049
-517,131	74,793	0,045	0,035
-516,116	97,567	0,094	0,080
-515,102	185,411	-0,078	-0,086
-514,087	800,000	-0,005	-0,016
-513,072	-90,795	-0,148	-0,031
-512,058	286,482	0,006	0,007
-511,043	4,556	0,054	-0,029
-510,029	9,705	0,145	0,081
-509,014	500,963	-0,075	0,128
-507,999	-0,611	0,058	0,030
-506,985	-200,000	0,003	-0,091
-505,970	-200,000	-0,026	-0,114
-504,956	-200,000	0,000	-0,006
-503,941	1,462	0,061	-0,032
-502,926	-200,000	-0,018	-0,106
-501,912	-51,147	0,091	0,031
-500,897	-200,000	-0,023	-0,107
-499,883	-56,553	-0,079	-0,026
-498,868	800,000	0,032	-0,070
-497,853	800,000	-0,045	-0,096
-496,839	-200,000	0,022	0,109
-495,824	606,196	0,057	0,106
-494,810	-17,089	0,047	-0,022
-493,795	38,064	-0,034	0,022
-492,781	24,616	0,115	-0,070
-491,766	381,146	0,101	-0,153
-490,751	44,213	0,110	-0,075
-489,737	619,024	0,094	-0,176
-488,722	-200,000	0,024	-0,113
-487,708	-200,000	-0,003	0,041
-486,693	800,000	0,045	0,106
-485,678	-200,000	0,021	-0,129
-484,664	735,047	0,066	-0,131
-483,649	291,325	-0,095	-0,128
-482,635	778,166	0,067	-0,136
-481,620	-137,178	0,073	-0,006
-480,605	800,000	0,049	0,118
-479,591	-200,000	-0,003	-0,051
-478,576	-32,870	0,036	-0,014
-477,562	134,000	-0,104	-0,099
-476,547	319,516	-0,030	0,042
-475,532	-200,000	0,003	0,053
-474,518	394,764	-0,024	0,038
-473,503	267,503	0,109	0,141
-472,489	78,601	0,122	0,096
-471,474	-30,517	-0,074	0,031
-470,459	118,677	0,083	-0,076
-469,445	296,757	0,031	0,042
-468,430	78,089	-0,109	-0,085
-467,416	-29,912	0,018	-0,008
-466,401	476,173	-0,036	0,060
-465,386	-200,000	-0,003	0,098
-464,372	800,000	0,016	0,040
-463,357	-99,255	-0,045	0,008
-462,343	800,000	-0,061	-0,142
-461,328	-200,000	0,022	-0,092
-460,313	-130,450	0,039	0,004
-459,299	-32,772	0,098	0,040
-458,284	-138,429	0,139	-0,011
-457,270	-200,000	0,003	0,015
-456,255	567,274	-0,018	-0,032
-455,241	565,127	-0,023	-0,041
-454,226	-21,721	-0,082	-0,037
-453,211	94,196	-0,065	0,054
-452,197	52,812	-0,078	0,055
-451,182	-167,631	0,093	0,003
-450,168	-2,399	0,025	0,013
-449,153	-200,000	0,001	0,082
-448,138	206,121	-0,009	-0,010
-447,124	-118,675	-0,083	-0,011
-446,109	366,061	-0,063	0,094
-445,095	382,160	-0,011	-0,016
-444,080	-200,000	0,001	-0,016
-443,065	800,000	-0,019	0,044
-442,051	-200,000	0,000	-0,009
-441,036	-38,205	-0,056	-0,022
-440,022	-30,259	-0,144	-0,060
-439,007	800,000	0,017	0,044
-437,992	44,553	0,015	-0,010
-436,978	628,522	0,037	-0,069
-435,963	-88,666	-0,068	0,015
-434,949	653,029	-0,037	-0,070
-433,934	279,136	-0,104	-0,137
-432,919	-200,000	-0,007	0,052
-431,905	800,000	0,032	-0,103
-430,890	800,000	0,009	-0,022
-429,876	-200,000	0,014	0,196
-428,861	45,026	-0,013	-0,009
-427,846	-70,717	0,044	-0,012
-426,832	-143,917	-0,146	-0,010
-425,817	63,891	-0,029	-0,022
-424,803	102,369	-0,125	-0,107
-423,788	462,948	0,040	-0,066
-422,773	340,492	0,078	0,113
-421,759	-7,233	0,024	0,012
-420,744	72,362	-0,063	-0,049
-419,730	13,790	-0,065	-0,037
-418,715	-14,747	-0,042	0,020
-417,701	111,432	-0,097	-0,086
-416,686	-200,000	-0,026	-0,114
-415,671	-200,000	0,018	0,088
-414,657	123,553	0,066	-0,061
-413,642	-200,000	-0,007	0,060
-412,628	-200,000	-0,008	-0,195
-411,613	59,455	-0,088	-0,064
-410,598	-3,972	0,060	-0,030
-409,584	201,069	0,039	-0,044
-408,569	-81,349	-0,124	-0,030
-407,555	150,931	-0,068	0,068
-406,540	-138,856	-0,068	-0,005
-405,525	-74,682	-0,119	-0,031
-404,511	22,151	0,093	-0,056
-403,496	-23,910	-0,055	-0,024
-402,482	-72,744	0,078	0,021
-401,467	173,704	0,076	0,080
-400,452	110,117	0,159	-0,140
-399,438	-200,000	0,018	0,125
-398,423	800,000	-0,052	-0,113
-397,409	0,102	0,057	0,030
-396,394	167,976	-0,061	-0,064
-395,379	-46,881	0,093	-0,033
-394,365	84,108	0,135	0,108
-393,350	246,119	0,035	0,043
-392,336	-5,645	0,252	0,126
-391,321	-200,000	0,009	0,110
-390,306	45,012	-0,082	0,055
-389,292	384,738	0,033	0,050
-388,277	161,950	0,033	0,034
-387,263	-73,836	0,075	0,020
-386,248	107,467	0,084	0,073
-385,233	-116,236	-0,094	0,013
-384,219	800,000	-0,063	-0,136
-383,204	19,511	-0,071	-0,042
-382,190	468,194	-0,060	-0,099
-381,175	-104,652	0,019	-0,003
-380,160	-200,000	0,036	-0,117
-379,146	90,855	0,113	0,093
-378,131	-200,000	0,027	0,127
-377,117	-156,735	0,039	-0,002
-376,102	-200,000	-0,001	-0,065
-375,088	224,752	0,039	-0,047
-374,073	800,000	-0,021	0,065
-373,058	-37,179	-0,118	-0,046
-372,044	9,941	0,086	-0,048
-371,029	9,565	-0,042	0,023
-370,015	625,983	-0,062	-0,116
-369,000	-200,000	-0,006	-0,126
-367,985	-64,958	0,057	-0,017
-366,971	239,655	-0,063	0,077
-365,956	312,804	0,036	-0,049
-364,942	-98,549	0,056	0,010
-363,927	800,000	0,052	0,135
-362,912	311,651	-0,067	0,093
-361,898	383,830	-0,054	-0,082
-360,883	-200,000	-0,006	-0,025
-359,869	149,214	-0,084	-0,083
-358,854	-101,358	0,151	0,027
-357,839	800,000	-0,022	0,055
-356,825	-53,105	0,114	0,038
-355,810	38,262	-0,132	0,086
-354,796	420,929	-0,034	0,054
-353,781	194,997	-0,072	-0,081
-352,766	-61,806	-0,051	0,016
-351,752	62,210	0,052	0,038
-350,737	-200,000	0,016	-0,101
-349,723	106,087	0,030	-0,026
-348,708	-200,000	0,051	0,181
-347,693	-16,347	-0,087	-0,040
-346,679	67,693	0,031	-0,023
-345,664	416,343	-0,087	-0,137
-344,650	126,052	0,066	-0,061
-343,635	-47,732	0,152	0,054
-342,620	-173,452	0,086	-0,002
-341,606	261,542	-0,063	0,081
-340,591	268,172	0,074	0,096
-339,577	-90,952	-0,085	-0,018
-338,562	-200,000	0,004	-0,042
-337,548	800,000	-0,023	0,070
-336,533	-49,291	0,107	0,037
-335,518	-200,000	-0,001	0,039
-334,504	169,255	0,068	-0,071
-333,489	-200,000	-0,005	-0,023
-332,475	57,751	-0,044	-0,032
-331,460	55,912	-0,058	0,041
-330,445	30,623	0,095	0,060
-329,431	584,184	-0,054	0,097
-328,416	-38,010	-0,023	0,009
-327,402	-93,023	-0,190	0,039
-326,387	628,903	0,015	0,028
-325,372	-3,319	-0,095	-0,048
-324,358	800,000	-0,006	-0,012
-323,343	-29,836	0,083	-0,035
-322,329	-200,000	0,009	-0,066
-321,314	-87,374	0,035	0,008
-320,299	-14,509	-0,091	0,043
-319,285	609,412	-0,035	-0,065
-318,270	-29,503	-0,132	-0,055
-317,256	9,648	0,103	-0,057
-316,241	-182,508	-0,048	0,001
-315,226	389,202	0,042	0,064
-314,212	57,110	0,051	-0,036
-313,197	800,000	0,012	0,036
-312,183	69,486	0,101	0,076
-311,168	163,232	0,035	-0,036
-310,153	274,498	-0,078	-0,102
-309,139	-115,275	-0,046	0,006
-308,124	119,766	-0,079	0,072
-307,110	-98,459	0,137	0,025
-306,095	800,000	0,044	0,122
-305,080	-200,000	0,015	0,101
-304,066	-69,369	-0,017	-0,005
-303,051	-99,386	0,071	0,013
-302,037	-63,012	-0,113	0,034
-301,022	-28,550	0,105	-0,044
-300,008	-74,905	-0,151	0,039
-298,993	-200,000	-0,005	0,106
-297,978	-200,000	-0,029	0,248
-296,964	-83,947	-0,114	0,026
-295,949	-15,901	0,016	0,007
-294,935	-200,000	0,022	0,091
-293,920	-200,000	0,014	0,138
-292,905	-126,811	-0,066	0,007
-291,891	-200,000	-0,025	-0,147
-290,876	-130,134	0,049	-0,005
-289,862	800,000	-0,020	-0,053
-288,847	339,930	-0,114	-0,163
-287,832	223,771	-0,018	-0,021
-286,818	-200,000	-0,023	0,115
-285,803	-4,933	-0,063	-0,032
-284,789	406,627	0,100	0,156
-283,774	443,471	-0,026	0,042
-282,759	371,311	-0,039	-0,058
-281,745	359,148	-0,076	-0,111
-280,730	91,409	-0,089	-0,073
-279,716	480,642	0,030	-0,050
-278,701	58,235	0,107	-0,077
-277,686	-200,000	-0,003	0,033
-276,672	800,000	-0,015	0,036
-275,657	-75,824	0,038	0,010
-274,643	-7,605	0,064	0,032
-273,628	-200,000	-0,006	-0,061
-272,613	529,440	0,068	0,117
-271,599	173,915	-0,039	-0,041
-270,584	87,826	0,055	-0,044
-269,570	446,470	-0,100	-0,161
-268,555	348,505	0,046	0,066
-267,540	84,522	-0,080	0,064
-266,526	-64,013	-0,018	0,005
-265,511	-27,582	0,033	0,014
-264,497	-200,000	0,016	0,099
-263,482	655,862	0,060	0,114
-262,467	-200,000	0,038	0,150
-261,453	-73,296	0,076	0,020
-260,438	-102,581	-0,217	0,038
-259,424	287,814	0,036	-0,048
-258,409	800,000	-0,005	0,012
-257,395	800,000	0,041	-0,107
-256,380	-59,533	0,127	-0,040
-255,365	-200,000	0,028	0,095
-254,351	300,979	0,051	0,069
-253,336	-29,757	-0,076	0,032
-252,322	8,704	-0,101	-0,055
-251,307	-200,000	0,008	0,039
-250,292	-126,615	-0,180	-0,019
-249,278	-72,551	-0,020	-0,005
-248,263	296,458	0,049	0,066
-247,249	134,637	0,085	0,081
-246,234	168,719	-0,040	0,042
-245,219	251,416	0,057	-0,071
-244,205	-147,815	0,019	0,001
-243,190	102,720	-0,017	0,014
-242,176	2,152	0,104	0,055
-241,161	800,000	0,012	0,034
-240,146	-63,990	-0,076	0,022
-239,132	181,601	0,068	-0,073
-238,117	132,803	-0,037	-0,035
-237,103	-59,811	-0,004	-0,001
-236,088	-7,439	-0,053	-0,026
-235,073	41,979	0,115	-0,076
-234,059	-151,361	0,096	-0,005
-233,044	137,394	0,094	0,090
-232,030	-90,762	0,050	0,010
-231,015	-43,481	-0,013	0,005
-230,000	-200,000	-0,009	-0,049
-228,986	104,934	-0,118	-0,102
-227,971	-12,517	0,091	0,043
-226,957	309,658	0,071	0,098
-225,942	290,129	0,043	0,057
-224,927	111,964	-0,073	0,064
-223,913	46,802	-0,044	0,030
-222,898	-200,000	0,039	-0,133
-221,884	800,000	-0,027	-0,064
-220,869	135,913	-0,079	0,075
-219,855	360,630	0,020	-0,029
-218,840	320,587	0,120	0,167
-217,825	136,942	0,083	0,079
-216,811	23,316	0,028	-0,017
-215,796	57,998	-0,127	-0,091
-214,782	800,000	0,020	-0,051
-213,767	-49,552	0,186	0,064
-212,752	-60,383	0,162	0,050
-211,738	77,512	-0,039	0,030
-210,723	-200,000	-0,021	-0,104
-209,709	90,263	0,103	0,084
-208,694	-200,000	-0,007	0,182
-207,679	-81,008	-0,067	0,016
-206,665	-6,779	-0,029	-0,014
-205,650	-45,002	0,131	0,047
-204,636	789,448	0,045	0,090
-203,621	-2,074	0,043	0,022
-202,606	43,090	-0,109	0,072
-201,592	-200,000	-0,035	0,167
-200,577	-56,352	-0,064	-0,021
-199,563	800,000	0,024	0,063
-198,548	-111,580	0,032	0,005
-197,533	-165,861	0,083	0,003
-196,519	-103,217	0,063	0,011
-195,504	-58,886	-0,184	-0,058
-194,490	140,995	-0,057	0,055
-193,475	800,000	0,035	-0,104
-192,460	800,000	-0,064	0,139
-191,446	-200,000	0,013	-0,108
-190,431	800,000	-0,012	0,036
-189,417	87,428	-0,055	0,045
-188,402	-104,397	-0,061	0,010
-187,387	-89,337	-0,035	0,008
-186,373	-200,000	0,013	-0,065
-185,358	67,060	-0,037	-0,028
-184,344	11,400	-0,123	0,069
-183,329	383,616	-0,025	-0,038
-182,315	-17,119	0,134	-0,061
-181,300	103,331	0,012	0,011
-180,285	800,000	0,025	-0,068
-179,271	-25,812	-0,049	-0,021
-178,256	144,685	0,016	-0,015
-177,242	-122,143	0,071	0,008
-176,227	535,816	-0,055	0,095
-175,212	-200,000	0,011	0,092
-174,198	-141,184	0,125	0,009
-173,183	31,786	-0,148	-0,093
-172,169	800,000	-0,096	-0,208
-171,154	-89,778	-0,060	-0,013
-170,139	523,941	0,024	-0,042
-169,125	158,111	0,029	-0,029
-168,110	143,805	0,030	-0,029
-167,096	-78,142	-0,070	-0,018
-166,081	467,605	-0,023	-0,038
-165,066	-61,641	0,060	-0,018
-164,052	44,543	-0,099	-0,066
-163,037	244,191	-0,019	0,023
-162,023	43,582	-0,075	-0,050
-161,008	407,604	0,099	0,153
-159,993	18,393	-0,039	0,023
-158,979	-146,806	-0,015	-0,001
-157,964	800,000	0,020	-0,050
-156,950	-67,752	0,032	0,009
-155,935	-200,000	-0,006	-0,031
-154,920	-200,000	0,002	-0,009
-153,906	800,000	0,049	0,120
-152,891	55,254	0,107	0,075
-151,877	98,032	0,067	0,056
-150,862	-171,321	-0,111	0,003
-149,847	-98,829	-0,098	0,018
-148,833	750,620	-0,059	0,117
-147,818	13,239	0,088	0,049
-146,804	368,832	-0,009	0,014
-145,789	515,406	0,063	0,108
-144,775	-200,000	0,001	-0,098
-143,760	-133,026	-0,099	0,009
-142,745	-200,000	0,006	-0,035
-141,731	107,775	-0,051	0,045
-140,716	-14,380	-0,043	0,020
-139,702	114,167	0,107	0,095
-138,687	-98,905	0,043	0,008
-137,672	800,000	-0,015	0,045
-136,658	43,184	0,031	0,020
-135,643	-80,590	0,013	0,003
-134,629	12,308	-0,131	-0,073
-133,614	782,430	0,042	0,084
-132,599	-55,915	0,053	0,017
-131,585	-200,000	0,001	0,033
-130,570	122,533	-0,035	-0,032
-129,556	82,787	0,117	-0,092
-128,541	-200,000	0,010	-0,090
-127,526	310,245	-0,036	0,049
-126,512	-200,000	0,020	0,066
-125,497	-91,767	0,070	-0,014
-124,483	548,438	-0,070	0,123
-123,468	78,218	0,037	0,029
-122,453	161,575	0,023	-0,024
-121,439	51,243	-0,112	0,078
-120,424	40,161	-0,037	-0,024
-119,410	590,390	0,057	-0,103
-118,395	-102,971	-0,076	0,013
-117,380	-200,000	0,012	-0,058
-116,366	-200,000	0,007	0,044
-115,351	106,421	-0,062	0,054
-114,337	-200,000	0,036	-0,154
-113,322	623,106	-0,061	-0,113
-112,307	-92,586	0,072	-0,015
-111,293	-200,000	0,012	0,051
-110,278	4,948	-0,051	0,027
-109,264	-200,000	-0,013	0,053
-108,249	-153,700	0,118	0,006
-107,234	800,000	0,029	0,087
-106,220	383,864	0,057	-0,085
-105,205	21,807	0,020	0,012
-104,191	420,920	0,018	-0,028
-103,176	-200,000	0,004	0,098
-102,162	-200,000	0,004	-0,031
-101,147	449,895	-0,020	-0,033
-100,132	-188,502	0,017	-0,000
-99,118	-71,632	0,070	-0,019
-98,103	-143,143	-0,121	0,008
-97,089	-92,822	0,148	-0,030
-96,074	-200,000	-0,000	0,055
-95,059	800,000	0,037	0,118
-94,045	-200,000	0,000	-0,001
-93,030	62,336	-0,060	0,043
-92,016	-74,982	-0,077	-0,020
-91,001	-200,000	0,017	0,153
-89,986	44,820	-0,059	0,040
-88,972	-92,623	0,078	0,016
-87,957	-90,126	-0,032	0,007
-86,943	-200,000	0,001	0,142
-85,928	126,104	0,012	0,011
-84,913	341,499	-0,011	-0,015
-83,899	-200,000	-0,002	-0,030
-82,884	-200,000	0,016	-0,051
-81,870	500,986	0,039	-0,065
-80,855	-200,000	0,027	0,174
-79,840	45,164	-0,112	0,075
-78,826	-116,583	-0,092	0,012
-77,811	106,441	-0,085	-0,073
-76,797	-200,000	0,034	-0,146
-75,782	-200,000	0,002	-0,022
-74,767	0,288	-0,111	-0,057
-73,753	-159,429	-0,131	-0,005
-72,738	31,106	0,074	-0,046
-71,724	-35,794	-0,059	-0,023
-70,709	-126,288	-0,092	0,010
-69,694	58,614	0,043	0,031
-68,680	-17,728	0,114	0,052
-67,665	674,463	0,069	0,130
-66,651	-67,151	-0,020	-0,006
-65,636	619,690	0,050	-0,092
-64,622	-200,000	-0,016	0,090
-63,607	-200,000	0,018	-0,103
-62,592	194,950	-0,079	-0,088
-61,578	-53,773	-0,159	0,052
-60,563	-200,000	0,002	0,059
-59,549	323,715	0,049	0,068
-58,534	-118,090	-1,333	-0,171
-57,519	640,055	-0,799	-1,482
-56,505	-200,000	-0,929	-4,303
-55,490	149,768	0,546	-0,538
-54,476	800,000	5,015	11,941
-53,461	-200,000	13,462	253,990
-52,446	-200,000	689,297	2268,430
-51,432	595,219	1622,842	2925,862
-50,417	120,553	1636,337	1475,141
-49,403	73,635	1289,986	979,552
-48,388	38,377	1024,825	661,180
-47,373	24,592	982,310	588,411
-46,359	23,768	972,094	579,566
-45,344	22,800	967,941	573,903
-44,330	22,717	966,515	572,764
-43,315	22,616	965,110	571,580
-42,300	22,580	964,067	570,821
-41,286	22,603	963,123	570,317
-40,271	22,560	962,171	569,590
-39,257	22,609	961,098	569,089
-38,242	22,575	960,125	568,383
-37,227	22,546	959,445	567,861
-36,213	22,538	958,596	567,311
-35,198	22,540	957,628	566,722
-34,184	22,565	957,082	566,458
-33,169	22,526	956,262	565,824
-32,154	22,604	955,366	565,522
-31,140	22,601	954,306	564,864
-30,125	22,577	953,572	564,331
-29,111	22,567	952,747	563,786
-28,096	22,583	952,067	563,412
-27,082	22,635	951,358	563,137
-26,067	22,517	950,774	562,390
-25,052	22,585	950,047	562,158
-24,038	22,547	949,276	561,558
-23,023	22,587	948,713	561,328
-22,009	22,602	948,042	560,957
-20,994	22,646	947,326	560,653
-19,979	22,603	946,787	560,173
-18,965	22,627	946,045	559,790
-17,950	22,623	945,501	559,432
-16,936	22,601	944,575	558,792
-15,921	22,537	944,027	558,243
-14,906	22,504	943,486	557,794
-13,892	22,489	942,597	557,200
-12,877	22,450	942,279	556,864
-11,863	22,485	941,538	556,516
-10,848	22,479	941,031	556,177
-9,833	22,534	940,585	556,063
-8,819	22,543	939,968	555,707
-7,804	22,467	939,254	555,020
-6,790	22,453	938,662	554,605
-5,775	22,516	937,997	554,390
-4,760	22,490	937,398	553,933
-3,746	22,521	936,739	553,617
-2,731	22,362	936,256	552,808
-1,717	22,279	935,368	552,000
-0,702	22,282	934,765	551,631
0,313	22,153	934,107	551,670
1,327	25,133	932,203	559,872
2,342	34,797	796,623	504,198
3,356	32,808	451,862	282,968
4,371	1,790	293,916	153,101
5,386	-2,565	274,985	139,102
6,400	-4,111	269,068	134,662
7,415	-4,432	266,470	133,054
8,429	-4,364	265,421	132,581
9,444	-4,260	264,585	132,246
10,459	-4,242	263,852	131,885
11,473	-4,345	263,221	131,464
12,488	-4,482	262,693	131,064
13,502	-4,590	262,109	130,664
14,517	-4,446	261,699	130,578
15,531	-4,474	261,393	130,388
16,546	-4,356	260,928	130,250
17,561	-4,500	260,735	130,013
18,575	-4,374	260,381	129,938
19,590	-4,422	259,972	129,679
20,604	-4,422	259,777	129,571
21,619	-4,488	259,388	129,306
22,634	-4,515	259,012	129,083
23,648	-4,435	258,675	128,975
24,663	-4,605	258,642	128,796
25,677	-4,398	258,341	128,818
26,692	-4,382	258,006	128,654
27,707	-4,315	257,715	128,557
28,721	-4,373	257,666	128,470
29,736	-4,520	257,303	128,147
30,750	-4,559	257,062	127,981
31,765	-4,599	256,857	127,832
32,780	-4,632	256,606	127,666
33,794	-4,645	256,424	127,553
34,809	-4,649	256,135	127,395
35,823	-4,461	255,854	127,409
36,838	-4,283	255,640	127,448
37,853	-4,597	255,463	127,072
38,867	-4,571	255,106	126,906
39,882	-4,606	254,923	126,772
40,896	-4,672	254,736	126,610
41,911	-4,539	254,447	126,572
42,926	-4,761	254,305	126,296
43,940	-4,609	253,910	126,221
44,955	-4,587	253,762	126,156
45,969	-4,783	253,509	125,848
46,984	-4,882	253,459	125,725
47,999	-5,167	252,994	125,235
49,013	-5,073	252,905	125,263
50,028	-5,265	252,490	124,878
51,042	-5,351	252,347	124,722
52,057	-5,424	252,209	124,579
53,071	-5,471	252,066	124,457
54,086	-5,116	251,817	124,631
55,101	-4,871	251,633	124,740
56,115	-4,998	251,464	124,535
57,130	-4,398	251,162	124,892
58,144	-4,313	251,311	125,029
59,159	-4,346	251,118	124,894
60,174	-4,252	250,754	124,782
61,188	-4,287	250,685	124,706
62,203	-4,343	250,290	124,451
63,217	-4,500	250,126	124,223
64,232	-4,228	249,981	124,373
65,247	-4,599	249,989	124,048
66,261	-4,638	249,711	123,866
67,276	-4,606	249,346	123,701
68,290	-4,830	249,106	123,379
69,305	-4,947	248,694	123,064
70,320	-4,846	248,692	123,139
71,334	-4,548	248,624	123,348
72,349	-4,324	248,461	123,447
73,363	-4,312	248,260	123,347
74,378	-4,242	247,977	123,255
75,393	-4,337	247,663	123,007
76,407	-4,393	247,597	122,916
77,422	-4,464	247,437	122,765
78,436	-4,595	247,314	122,582
79,451	-4,490	246,919	122,464
80,466	-4,397	246,648	122,398
81,480	-4,628	246,573	122,154
82,495	-4,735	246,231	121,884
83,509	-4,833	246,231	121,789
84,524	-4,611	245,945	121,824
85,539	-4,882	245,664	121,446
86,553	-4,829	245,467	121,383
87,568	-4,646	245,304	121,445
88,582	-4,510	245,062	121,429
89,597	-4,703	244,994	121,222
90,611	-4,762	244,968	121,149
91,626	-4,664	244,751	121,113
92,641	-4,488	244,661	121,205
93,655	-4,536	244,334	120,992
94,670	-4,662	244,264	120,841
95,684	-4,615	243,884	120,682
96,699	-4,701	243,840	120,578
97,714	-4,679	243,580	120,456
98,728	-4,732	243,321	120,273
99,743	-5,022	243,261	119,992
100,757	-4,948	242,913	119,870
101,772	-5,027	242,704	119,691
102,787	-4,779	242,626	119,848
103,801	-4,652	242,315	119,789
104,816	-4,567	242,176	119,780
105,830	-4,444	242,121	119,844
106,845	-4,405	241,976	119,794
107,860	-4,519	241,850	119,627
108,874	-4,698	241,527	119,308
109,889	-4,647	241,259	119,207
110,903	-4,754	241,223	119,091
111,918	-4,811	240,979	118,913
112,933	-4,764	240,955	118,929
113,947	-4,615	240,710	118,920
114,962	-4,484	240,425	118,876
115,976	-4,609	240,505	118,803
116,991	-4,662	240,361	118,677
118,006	-4,443	240,126	118,730
119,020	-4,599	240,109	118,584
120,035	-4,528	239,946	118,550
121,049	-4,551	239,732	118,415
122,064	-4,408	239,507	118,411
123,079	-4,508	239,287	118,210
124,093	-4,704	239,026	117,910
125,108	-4,667	238,941	117,887
126,122	-5,072	238,501	117,330
127,137	-5,118	238,450	117,257
128,151	-4,953	238,226	117,271
129,166	-4,790	238,241	117,400
130,181	-5,030	237,918	117,035
131,195	-4,897	237,680	117,016
132,210	-4,692	237,563	117,114
133,224	-4,465	237,473	117,244
134,239	-4,339	237,105	117,153
135,254	-4,442	236,970	116,993
136,268	-4,650	236,790	116,725
137,283	-4,935	236,649	116,416
138,297	-4,763	236,318	116,381
139,312	-5,030	236,328	116,160
140,327	-4,732	236,178	116,316
141,341	-4,155	236,155	116,760
142,356	-4,290	235,993	116,560
143,370	-4,027	235,802	116,667
144,385	-4,069	235,740	116,592
145,400	-4,353	235,578	116,274
146,414	-4,311	235,379	116,198
147,429	-4,261	235,049	116,065
148,443	-4,174	234,863	116,033
149,458	-4,086	234,751	116,037
150,473	-4,193	234,600	115,867
151,487	-4,187	234,419	115,772
152,502	-4,308	234,329	115,620
153,516	-4,264	234,227	115,595
154,531	-4,313	233,958	115,413
155,546	-4,174	233,743	115,407
156,560	-4,247	233,582	115,260
157,575	-4,408	233,410	115,037
158,589	-4,329	233,189	114,979
159,604	-4,227	233,114	115,014
160,619	-4,102	233,017	115,054
161,633	-4,210	232,803	114,854
162,648	-4,278	232,724	114,750
163,662	-4,263	232,444	114,613
164,677	-4,499	232,398	114,394
165,692	-4,433	232,314	114,395
166,706	-4,248	232,196	114,473
167,721	-4,124	232,032	114,480
168,735	-4,259	231,876	114,286
169,750	-4,062	231,612	114,301
170,764	-4,311	231,538	114,058
171,779	-4,171	231,368	114,074
172,794	-4,082	231,272	114,087
173,808	-4,374	230,959	113,693
174,823	-4,628	230,718	113,365
175,837	-4,833	230,496	113,085
176,852	-4,336	230,298	113,367
177,867	-4,135	230,296	113,513
178,881	-4,060	230,270	113,548
179,896	-4,259	230,082	113,290
180,910	-4,085	229,843	113,299
181,925	-3,880	229,788	113,421
182,940	-4,179	229,608	113,089
183,954	-4,130	229,470	113,049
184,969	-4,032	229,457	113,109
185,983	-3,976	229,124	112,978
186,998	-4,178	228,943	112,722
188,013	-4,185	228,940	112,705
189,027	-4,018	228,827	112,769
190,042	-4,040	228,547	112,604
191,056	-4,201	228,479	112,436
192,071	-4,032	228,300	112,469
193,086	-3,962	228,058	112,394
194,100	-4,125	227,926	112,192
195,115	-4,336	227,607	111,862
196,129	-4,797	227,481	111,434
197,144	-1,038	228,520	114,847
198,159	2,816	229,721	118,436
199,173	3,740	229,975	119,274
200,188	3,966	229,822	119,360
201,202	4,081	229,669	119,358
202,217	4,384	229,604	119,549
203,232	4,639	229,427	119,643
204,246	4,741	229,207	119,597
205,261	4,848	229,039	119,581
206,275	4,843	228,967	119,529
207,290	4,728	228,948	119,420
208,304	5,089	228,749	119,583
209,319	4,762	228,510	119,197
210,334	4,828	228,213	119,082
211,348	4,546	228,108	118,799
212,363	4,114	227,826	118,310
213,377	3,910	227,580	118,015
214,392	3,891	227,639	118,020
215,407	4,000	227,564	118,055
216,421	4,126	227,253	117,979
217,436	3,906	226,899	117,617
218,450	3,691	226,958	117,472
219,465	3,702	226,646	117,309
220,480	3,517	226,774	117,223
221,494	3,546	226,556	117,122
222,509	3,946	226,322	117,296
223,523	4,171	226,172	117,380
224,538	3,871	226,118	117,113
225,553	3,930	225,853	117,010
226,567	3,937	225,769	116,961
227,582	4,188	225,766	117,140
228,596	4,136	225,642	117,026
229,611	3,857	225,455	116,706
230,626	3,945	225,097	116,577
231,640	3,790	225,052	116,426
232,655	4,263	224,923	116,707
233,669	4,520	224,892	116,875
234,684	4,548	224,866	116,872
235,699	4,566	224,525	116,698
236,713	4,005	224,467	116,234
237,728	4,065	224,169	116,115
238,742	3,708	223,900	115,696
239,757	3,761	223,978	115,766
240,772	4,015	223,566	115,734
241,786	4,102	223,513	115,761
242,801	4,160	223,442	115,758
243,815	4,289	223,467	115,857
244,830	4,484	223,406	115,961
245,844	3,941	222,963	115,315
246,859	3,984	222,890	115,299
247,874	4,141	222,819	115,369
248,888	4,209	222,710	115,354
249,903	4,057	222,421	115,080
250,917	3,845	222,321	114,859
251,932	3,875	222,119	114,767
252,947	3,774	222,030	114,636
253,961	3,955	221,846	114,665
254,976	3,933	221,709	114,568
255,990	3,932	221,650	114,526
257,005	4,132	221,458	114,566
258,020	3,992	221,467	114,456
259,034	4,635	221,341	114,859
260,049	4,438	221,039	114,545
261,063	3,970	220,953	114,144
262,078	4,275	220,790	114,275
263,093	4,466	220,717	114,369
264,107	4,308	220,534	114,147
265,122	4,217	220,465	114,034
266,136	4,086	220,299	113,841
267,151	4,516	220,121	114,056
268,166	4,219	219,831	113,676
269,180	3,604	219,625	113,107
270,195	3,655	219,612	113,128
271,209	3,825	219,310	113,087
272,224	4,019	219,333	113,231
273,239	3,994	219,039	113,051
274,253	3,965	218,923	112,960
275,268	3,652	218,851	112,683
276,282	3,746	218,597	112,611
277,297	3,767	218,406	112,518
278,312	3,716	218,425	112,481
279,326	3,775	218,423	112,513
280,341	3,885	218,245	112,491
281,355	4,020	217,955	112,430
282,370	4,130	217,876	112,460
283,384	3,695	217,634	112,007
284,399	3,458	217,501	111,757
285,414	3,681	217,384	111,849
286,428	3,937	217,382	112,024
287,443	3,993	217,262	111,993
288,457	4,134	217,114	112,010
289,472	4,046	216,859	111,804
290,487	3,406	216,629	111,211
291,501	3,398	216,405	111,081
292,516	3,599	216,382	111,204
293,530	3,402	216,377	111,050
294,545	3,456	216,137	110,956
295,560	3,562	216,119	111,013
296,574	3,737	216,011	111,074
297,589	4,038	215,721	111,132
298,603	3,843	215,738	110,990
299,618	4,011	215,536	110,997
300,633	3,621	215,516	110,696
301,647	4,213	215,312	111,008
302,662	4,321	215,298	111,069
303,676	4,270	215,081	110,910
304,691	4,021	215,060	110,711
305,706	4,471	214,697	110,837
306,720	4,064	214,640	110,506
307,735	3,976	214,392	110,305
308,749	3,886	214,297	110,181
309,764	4,085	214,166	110,247
310,779	4,344	214,073	110,374
311,793	4,030	213,795	109,997
312,808	4,261	213,664	110,085
313,822	3,988	213,616	109,855
314,837	3,644	213,397	109,487
315,852	3,741	213,344	109,519
316,866	4,058	213,156	109,639
317,881	4,191	213,216	109,755
318,895	4,030	213,064	109,552
319,910	4,376	212,634	109,567
320,925	3,664	212,382	108,923
321,939	3,395	212,380	108,721
322,954	3,342	212,455	108,712
323,968	3,915	212,403	109,082
324,983	3,940	212,137	108,953
325,997	4,015	212,091	108,973
327,012	3,892	211,888	108,773
328,027	4,199	211,675	108,871
329,041	4,376	211,634	108,964
330,056	4,301	211,582	108,874
331,070	3,897	211,310	108,440
332,085	3,599	210,971	108,047
333,100	3,869	210,968	108,226
334,114	3,939	210,914	108,238
335,129	4,086	210,581	108,160
336,143	3,859	210,365	107,881
337,158	3,791	210,381	107,831
338,173	3,829	210,338	107,826
339,187	3,761	210,075	107,634
340,202	3,768	209,962	107,572
341,216	3,581	209,883	107,391
342,231	3,658	209,671	107,326
343,246	3,726	209,603	107,330
344,260	3,769	209,525	107,311
345,275	3,961	209,453	107,398
346,289	3,931	209,436	107,359
347,304	3,878	209,228	107,205
348,319	3,774	209,125	107,071
349,333	3,611	208,986	106,876
350,348	3,841	208,816	106,940
351,362	4,028	208,692	106,997
352,377	4,095	208,544	106,958
353,392	4,097	208,385	106,868
354,406	4,127	208,214	106,792
355,421	194,452	1344,813	1435,137
356,435	155,173	1483,392	1435,263
