DTS Sentinel unit serial number:	SN410029Multiplexer serial number:	ORYXHardware model number:	OX2-SRSoftware version number:	ORYX F/W v4,00 Oryx Data Collector v3.7.2.0data status	okinstallation	B6 Nyhavnadifferential loss correction	single-endedforward channel	channel 2reverse channel	N/Adate	2023/12/10time	09:45:08forward acquisition time	300,00reverse acquisition time	0,00gamma	499,1914k internal	0,3123k external	0,3123temperature offset calibration	1,0000default loss term (dB/km)	0,3820temperature slope calibration	1,0000multiplexer offset coefficient	1,0000multiplexer slope coefficient	1,0000fibre end	0,00T internal ref (°C)	22,55T ext. ref 1 (°C)	6,33T ext. ref 2 (°C)	6,34length (m)	temperature (°C)	Stokes	anti-Stokes-744,400	800,000	-0,026	-0,069
-743,385	800,000	-0,123	0,263
-742,371	800,000	0,052	-0,126
-741,356	-132,051	-0,196	0,019
-740,342	604,245	-0,022	-0,041
-739,327	-108,665	-0,179	0,028
-738,312	10,101	0,010	0,006
-737,298	-158,890	-0,268	0,011
-736,283	-56,264	0,091	0,030
-735,269	571,957	-0,110	0,200
-734,254	-48,923	0,089	-0,032
-733,239	-47,337	-0,394	-0,142
-732,225	382,636	0,065	0,099
-731,210	-200,000	0,027	0,153
-730,196	23,203	-0,018	-0,011
-729,181	-200,000	0,018	0,081
-728,167	29,311	-0,051	0,032
-727,152	146,806	0,034	-0,034
-726,137	-200,000	-0,031	-0,121
-725,123	-200,000	-0,030	-0,130
-724,108	115,879	0,084	-0,077
-723,094	35,893	-0,059	0,039
-722,079	800,000	0,027	0,080
-721,064	169,414	0,027	0,028
-720,050	-200,000	0,012	-0,166
-719,035	223,573	-0,045	-0,054
-718,021	-200,000	0,001	-0,255
-717,006	93,550	0,028	-0,023
-715,991	197,871	-0,084	-0,096
-714,977	-93,683	-0,044	-0,009
-713,962	-13,835	-0,054	-0,026
-712,948	-11,315	-0,085	0,042
-711,933	30,644	-0,097	-0,061
-710,918	-200,000	-0,004	0,042
-709,904	800,000	0,057	-0,168
-708,889	-200,000	0,034	-0,117
-707,875	-16,354	-0,173	-0,081
-706,860	-200,000	-0,006	-0,057
-705,845	-200,000	0,015	0,055
-704,831	800,000	0,017	-0,036
-703,816	442,154	-0,085	0,140
-702,802	-114,623	-0,148	0,021
-701,787	-200,000	0,028	-0,152
-700,772	540,501	-0,026	-0,046
-699,758	122,517	0,019	0,018
-698,743	-200,000	-0,009	-0,068
-697,729	-200,000	0,003	0,156
-696,714	475,241	-0,074	0,124
-695,699	245,733	-0,032	-0,040
-694,685	-200,000	0,000	-0,013
-693,670	-200,000	-0,014	0,090
-692,656	-200,000	0,008	-0,038
-691,641	106,853	-0,054	-0,048
-690,627	-26,068	-0,086	0,038
-689,612	717,572	0,066	0,132
-688,597	-200,000	0,007	-0,139
-687,583	-10,737	-0,140	0,069
-686,568	-66,158	-0,084	0,025
-685,554	-147,986	-0,049	0,003
-684,539	-200,000	0,008	-0,081
-683,524	800,000	-0,011	0,025
-682,510	4,042	0,086	0,047
-681,495	-45,335	-0,159	-0,058
-680,481	46,563	0,100	0,069
-679,466	-200,000	-0,011	-0,044
-678,451	307,603	0,033	-0,045
-677,437	-200,000	0,008	0,034
-676,422	302,782	0,033	-0,046
-675,408	307,170	0,029	-0,040
-674,393	-200,000	-0,018	-0,078
-673,378	74,342	-0,112	-0,087
-672,364	-200,000	-0,000	-0,071
-671,349	-117,195	0,046	0,006
-670,335	144,465	-0,027	0,027
-669,320	-121,174	0,082	-0,010
-668,305	-4,009	-0,174	0,089
-667,291	800,000	-0,009	-0,027
-666,276	55,265	-0,088	-0,063
-665,262	186,735	-0,087	-0,096
-664,247	-200,000	0,029	-0,123
-663,232	316,271	0,079	-0,111
-662,218	-200,000	0,013	0,222
-661,203	800,000	-0,021	-0,057
-660,189	-200,000	-0,013	0,052
-659,174	-62,445	-0,158	-0,049
-658,159	-3,939	-0,033	-0,017
-657,145	14,530	-0,072	-0,042
-656,130	478,369	-0,052	0,088
-655,116	484,176	0,038	-0,064
-654,101	42,693	-0,084	0,057
-653,086	-200,000	0,010	0,073
-652,072	-200,000	-0,010	0,094
-651,057	690,534	-0,090	-0,177
-650,043	56,925	0,094	-0,068
-649,028	401,770	-0,026	-0,041
-648,014	131,520	0,124	-0,118
-646,999	-35,261	-0,084	-0,034
-645,984	-200,000	-0,015	0,108
-644,970	-168,239	-0,241	0,007
-643,955	87,374	0,066	0,054
-642,941	-200,000	0,001	0,024
-641,926	800,000	-0,052	-0,163
-640,911	-200,000	0,038	0,157
-639,897	-125,230	0,094	-0,011
-638,882	-33,807	-0,029	-0,012
-637,868	111,651	-0,034	-0,031
-636,853	-39,760	-0,161	0,062
-635,838	88,834	0,079	0,065
-634,824	-200,000	0,003	0,047
-633,809	-156,031	0,043	-0,002
-632,795	-22,826	-0,105	-0,047
-631,780	92,177	-0,089	0,075
-630,765	-200,000	0,032	0,108
-629,751	545,340	-0,062	0,110
-628,736	-200,000	-0,009	-0,057
-627,722	800,000	0,037	-0,090
-626,707	-171,999	-0,031	0,001
-625,692	108,748	0,015	0,014
-624,678	-117,156	0,108	0,014
-623,663	-104,532	-0,077	-0,013
-622,649	186,291	-0,090	-0,099
-621,634	800,000	-0,064	-0,140
-620,619	120,143	0,030	-0,027
-619,605	-86,963	-0,119	0,027
-618,590	359,886	0,070	-0,104
-617,576	-82,163	-0,150	0,036
-616,561	-200,000	0,014	-0,100
-615,546	168,069	-0,063	-0,067
-614,532	188,357	-0,117	-0,130
-613,517	306,516	0,092	-0,127
-612,503	304,668	0,017	0,024
-611,488	800,000	-0,026	-0,063
-610,474	14,989	0,019	0,011
-609,459	106,486	0,129	0,113
-608,444	355,937	0,089	-0,132
-607,430	117,586	-0,106	-0,097
-606,415	-149,199	0,091	-0,005
-605,401	-5,896	0,038	-0,019
-604,386	-94,140	0,055	-0,011
-603,371	-200,000	0,008	0,061
-602,357	317,221	-0,055	0,077
-601,342	164,193	-0,062	-0,065
-600,328	800,000	-0,032	-0,079
-599,313	-200,000	0,026	0,111
-598,298	-200,000	-0,001	-0,068
-597,284	187,772	-0,143	0,159
-596,269	82,338	0,166	0,134
-595,255	-200,000	-0,006	0,031
-594,240	-150,368	-0,079	-0,004
-593,225	157,577	0,044	0,045
-592,211	350,530	0,055	-0,080
-591,196	297,010	0,050	0,069
-590,182	680,954	-0,052	0,100
-589,167	-10,375	-0,003	-0,001
-588,152	-36,680	0,067	-0,026
-587,138	-200,000	0,010	0,066
-586,123	52,061	-0,014	-0,010
-585,109	-59,169	0,085	-0,027
-584,094	120,376	-0,084	0,077
-583,079	-200,000	0,007	-0,113
-582,065	-200,000	0,006	-0,031
-581,050	800,000	0,024	0,051
-580,036	302,210	-0,048	0,065
-579,021	-196,942	-0,015	0,000
-578,006	326,679	-0,045	-0,064
-576,992	-200,000	-0,009	-0,040
-575,977	-46,232	-0,121	0,044
-574,963	-200,000	-0,011	0,042
-573,948	-200,000	-0,015	0,131
-572,934	21,335	-0,098	0,059
-571,919	359,596	-0,098	-0,146
-570,904	-19,296	-0,117	0,054
-569,890	-200,000	0,013	-0,068
-568,875	-128,666	-0,033	0,003
-567,861	-23,360	-0,015	0,007
-566,846	4,818	-0,093	-0,050
-565,831	160,283	-0,050	-0,051
-564,817	-108,353	0,060	-0,009
-563,802	207,844	-0,018	-0,021
-562,788	-200,000	-0,023	-0,117
-561,773	124,665	0,066	-0,062
-560,758	-129,207	0,073	-0,007
-559,744	208,797	-0,045	0,052
-558,729	-147,138	0,013	0,001
-557,715	800,000	0,022	-0,069
-556,700	800,000	-0,026	-0,082
-555,685	143,770	0,077	0,076
-554,671	-200,000	0,030	-0,114
-553,656	96,365	0,037	0,032
-552,642	187,510	0,052	0,058
-551,627	-200,000	-0,106	0,000
-550,612	223,677	0,053	-0,063
-549,598	301,657	-0,058	0,079
-548,583	-200,000	-0,023	-0,114
-547,569	-200,000	0,003	-0,065
-546,554	-95,874	-0,045	-0,009
-545,539	696,506	0,082	0,160
-544,525	-162,987	-0,011	0,000
-543,510	-200,000	0,011	-0,065
-542,496	400,567	-0,020	-0,031
-541,481	-67,582	-0,076	-0,022
-540,466	-26,866	0,106	-0,046
-539,452	52,353	0,121	0,086
-538,437	-200,000	-0,015	0,114
-537,423	-200,000	0,031	0,104
-536,408	-200,000	-0,003	0,059
-535,393	63,765	0,049	0,036
-534,379	-133,389	0,130	-0,012
-533,364	286,150	-0,064	-0,085
-532,350	106,104	0,070	-0,061
-531,335	28,856	0,124	-0,078
-530,321	200,077	0,105	0,119
-529,306	116,678	-0,075	-0,068
-528,291	-74,157	-0,090	-0,024
-527,277	-122,746	-0,005	-0,001
-526,262	-101,951	0,100	0,018
-525,248	-21,531	0,084	0,038
-524,233	63,744	0,063	0,047
-523,218	-200,000	0,050	0,203
-522,204	-118,179	-0,105	-0,014
-521,189	726,591	-0,065	-0,128
-520,175	-73,761	0,119	-0,032
-519,160	-29,865	-0,047	0,020
-518,145	800,000	0,027	-0,076
-517,131	-200,000	0,029	-0,125
-516,116	95,509	-0,023	-0,020
-515,102	-200,000	0,009	0,128
-514,087	453,924	0,052	0,085
-513,072	358,821	0,058	0,086
-512,058	-77,490	-0,075	0,019
-511,043	-200,000	0,009	0,033
-510,029	-200,000	0,023	0,176
-509,014	-200,000	0,033	0,109
-507,999	-79,833	0,065	0,016
-506,985	15,814	-0,044	-0,025
-505,970	-200,000	-0,025	-0,105
-504,956	800,000	-0,063	0,193
-503,941	-200,000	-0,006	0,127
-502,926	800,000	-0,008	-0,022
-501,912	-154,007	0,093	-0,005
-500,897	-24,121	0,056	0,024
-499,883	346,455	0,047	0,069
-498,868	247,874	0,053	0,067
-497,853	-11,415	-0,080	-0,039
-496,839	67,286	-0,073	-0,055
-495,824	16,611	0,086	0,050
-494,810	705,690	-0,051	0,101
-493,795	-200,000	-0,024	-0,130
-492,781	800,000	-0,023	-0,063
-491,766	32,935	-0,045	0,029
-490,751	800,000	-0,016	0,048
-489,737	598,279	-0,038	-0,070
-488,722	176,842	0,034	-0,036
-487,708	193,843	0,130	0,145
-486,693	108,318	0,042	0,037
-485,678	-9,155	-0,014	0,007
-484,664	-112,263	-0,074	0,011
-483,649	-59,700	-0,110	-0,035
-482,635	-200,000	-0,002	0,041
-481,620	62,046	0,051	0,037
-480,605	-15,935	0,063	-0,029
-479,591	-70,016	-0,155	-0,043
-478,576	-11,252	-0,098	0,048
-477,562	438,029	-0,063	-0,101
-476,547	-200,000	0,009	0,085
-475,532	20,835	-0,157	-0,093
-474,518	-23,627	-0,009	-0,004
-473,503	-53,375	0,085	-0,029
-472,489	800,000	-0,014	-0,037
-471,474	-200,000	0,005	-0,073
-470,459	800,000	-0,091	-0,217
-469,445	202,035	-0,089	-0,101
-468,430	800,000	0,022	0,065
-467,416	-200,000	-0,022	0,093
-466,401	800,000	-0,072	-0,157
-465,386	800,000	-0,041	0,092
-464,372	504,749	-0,028	0,049
-463,357	149,314	-0,088	-0,088
-462,343	81,129	0,048	0,038
-461,328	51,770	0,010	0,007
-460,313	-200,000	-0,019	-0,085
-459,299	-200,000	0,005	0,168
-458,284	20,941	0,021	-0,012
-457,270	-45,641	-0,049	-0,018
-456,255	800,000	0,056	0,131
-455,241	-101,889	-0,155	0,027
-454,226	-98,033	-0,187	-0,035
-453,211	9,233	0,060	0,033
-452,197	-10,621	0,103	0,050
-451,182	-200,000	-0,007	-0,059
-450,168	744,635	-0,048	0,095
-449,153	-200,000	-0,013	0,067
-448,138	-200,000	0,016	0,072
-447,124	800,000	0,029	0,073
-446,109	175,353	0,062	0,066
-445,095	-200,000	0,007	0,116
-444,080	-41,078	0,080	-0,030
-443,065	-79,871	-0,057	0,014
-442,051	217,152	-0,045	0,053
-441,036	575,835	-0,010	-0,017
-440,022	-25,121	0,156	-0,068
-439,007	800,000	-0,017	0,052
-437,992	-200,000	0,008	0,071
-436,978	198,713	0,137	0,155
-435,963	-119,886	0,087	-0,011
-434,949	99,565	0,076	-0,065
-433,934	-20,931	0,032	0,014
-432,919	-200,000	0,013	-0,162
-431,905	-47,025	-0,100	0,036
-430,890	-82,755	-0,092	0,022
-429,876	191,582	0,070	0,078
-428,861	88,090	0,093	-0,076
-427,846	52,007	-0,042	-0,029
-426,832	81,292	-0,028	-0,022
-425,817	46,613	-0,087	-0,059
-424,803	800,000	-0,048	-0,120
-423,788	-200,000	-0,014	-0,095
-422,773	204,975	-0,073	0,083
-421,759	800,000	0,030	0,090
-420,744	-8,749	-0,139	-0,069
-419,730	-124,843	-0,116	-0,013
-418,715	14,463	0,066	0,038
-417,701	-200,000	-0,005	0,027
-416,686	-82,978	0,175	0,041
-415,671	5,667	0,056	0,031
-414,657	-200,000	-0,020	0,090
-413,642	9,268	0,139	0,077
-412,628	515,447	-0,041	-0,071
-411,613	77,562	0,097	-0,076
-410,598	-200,000	-0,012	-0,128
-409,584	175,287	-0,073	0,078
-408,569	242,697	-0,035	0,043
-407,555	223,818	0,061	0,073
-406,540	150,571	-0,049	-0,049
-405,525	172,161	-0,114	-0,121
-404,511	190,930	-0,058	0,065
-403,496	223,441	-0,043	-0,051
-402,482	-200,000	-0,002	0,058
-401,467	91,501	0,038	0,031
-400,452	-200,000	0,011	0,062
-399,438	32,282	-0,105	0,067
-398,423	132,364	-0,088	-0,083
-397,409	-94,376	-0,076	0,015
-396,394	800,000	0,024	0,061
-395,379	-27,328	-0,104	0,044
-394,365	800,000	-0,031	0,069
-393,350	-171,596	0,062	0,001
-392,336	-200,000	0,025	-0,113
-391,321	56,735	0,047	-0,034
-390,306	-150,095	-0,115	0,006
-389,292	24,661	-0,043	-0,026
-388,277	80,589	-0,161	-0,128
-387,263	376,494	0,044	-0,067
-386,248	-71,092	0,086	0,024
-385,233	800,000	0,028	0,069
-384,219	-120,949	0,069	0,008
-383,204	-200,000	-0,013	0,130
-382,190	-125,466	0,027	-0,003
-381,175	-200,000	-0,003	-0,063
-380,160	107,450	0,054	-0,047
-379,146	-169,422	0,056	0,001
-378,131	800,000	-0,019	0,047
-377,117	567,331	0,083	-0,148
-376,102	-200,000	0,030	-0,177
-375,088	800,000	-0,015	-0,045
-374,073	-200,000	-0,005	-0,069
-373,058	34,430	-0,064	-0,041
-372,044	-200,000	0,029	0,101
-371,029	174,234	0,047	-0,050
-370,015	-62,584	0,066	-0,020
-369,000	-200,000	-0,012	0,091
-367,985	800,000	0,035	-0,090
-366,971	-136,604	0,143	-0,012
-365,956	-200,000	-0,053	0,187
-364,942	-200,000	-0,001	0,074
-363,927	-12,269	0,097	0,046
-362,912	272,449	0,094	0,123
-361,898	-200,000	0,000	-0,014
-360,883	96,460	-0,084	-0,071
-359,869	-200,000	-0,002	0,062
-358,854	-89,822	0,086	0,018
-357,839	206,355	0,107	0,122
-356,825	-200,000	-0,003	0,038
-355,810	-200,000	0,006	0,054
-354,796	800,000	-0,019	0,048
-353,781	800,000	0,036	0,074
-352,766	7,230	0,049	-0,027
-351,752	800,000	-0,017	-0,050
-350,737	-200,000	0,020	-0,071
-349,723	-200,000	-0,030	0,193
-348,708	254,699	-0,127	0,159
-347,693	-200,000	0,004	0,101
-346,679	-130,232	-0,061	0,006
-345,664	800,000	-0,019	-0,062
-344,650	169,835	0,041	-0,044
-343,635	-200,000	0,013	0,064
-342,620	-77,576	0,131	0,033
-341,606	-37,291	-0,193	0,075
-340,591	176,474	-0,048	-0,052
-339,577	-66,610	-0,051	-0,015
-338,562	62,217	-0,067	-0,049
-337,548	-200,000	0,001	-0,100
-336,533	-200,000	-0,003	0,013
-335,518	-200,000	0,040	-0,144
-334,504	262,069	-0,034	-0,044
-333,489	51,351	-0,075	-0,052
-332,475	174,922	-0,058	0,061
-331,460	520,166	0,038	0,066
-330,445	-200,000	0,010	-0,098
-329,431	540,118	0,108	-0,189
-328,416	234,496	0,036	0,044
-327,402	-101,816	0,079	0,014
-326,387	800,000	0,040	-0,098
-325,372	-21,905	-0,029	-0,013
-324,358	-4,955	-0,120	-0,060
-323,343	340,085	0,154	0,222
-322,329	-47,923	0,007	-0,003
-321,314	-200,000	-0,048	0,170
-320,299	-130,608	-0,147	0,014
-319,285	51,943	0,093	-0,065
-318,270	-49,859	0,145	-0,050
-317,256	276,046	0,061	0,080
-316,241	-44,277	0,017	-0,006
-315,226	-86,273	0,107	-0,024
-314,212	-121,995	0,049	-0,006
-313,197	800,000	0,005	-0,016
-312,183	-200,000	0,018	0,135
-311,168	239,725	-0,055	-0,067
-310,153	-200,000	0,014	-0,175
-309,139	-70,670	-0,082	-0,023
-308,124	800,000	-0,028	-0,088
-307,110	-200,000	-0,034	0,113
-306,095	28,725	0,127	0,079
-305,080	-200,000	0,011	0,072
-304,066	-29,161	-0,078	0,032
-303,051	336,797	0,065	-0,093
-302,037	-200,000	-0,045	-0,200
-301,022	-17,555	-0,116	-0,053
-300,008	800,000	0,023	-0,063
-298,993	306,968	0,071	0,097
-297,978	139,362	-0,059	0,057
-296,964	196,255	0,066	0,074
-295,949	455,068	0,014	-0,023
-294,935	336,263	0,042	0,060
-293,920	-76,403	0,020	-0,005
-292,905	-74,160	0,190	-0,050
-291,891	265,555	0,065	0,083
-290,876	-114,110	0,070	0,010
-289,862	800,000	-0,027	-0,072
-288,847	-200,000	0,050	-0,208
-287,832	-126,568	-0,171	-0,018
-286,818	-121,745	0,014	0,002
-285,803	-200,000	0,015	0,077
-284,789	-139,247	0,119	0,009
-283,774	325,560	-0,057	-0,080
-282,759	405,238	-0,059	0,091
-281,745	218,908	-0,040	-0,047
-280,730	516,113	-0,058	-0,099
-279,716	-57,730	-0,195	-0,062
-278,701	303,421	0,073	0,100
-277,686	800,000	0,030	0,088
-276,672	-200,000	0,028	-0,110
-275,657	-200,000	0,029	0,174
-274,643	158,226	-0,007	-0,007
-273,628	-200,000	-0,026	-0,118
-272,613	-122,647	0,067	0,008
-271,599	-145,856	0,115	-0,007
-270,584	-73,783	0,131	0,035
-269,570	502,535	-0,036	0,061
-268,555	456,688	-0,064	0,105
-267,540	213,975	0,044	-0,051
-266,526	-200,000	-0,019	-0,078
-265,511	-11,508	0,046	0,022
-264,497	-200,000	-0,007	-0,085
-263,482	-200,000	0,001	-0,019
-262,467	294,936	-0,081	0,109
-261,453	-53,064	0,103	-0,034
-260,438	-36,259	-0,118	-0,046
-259,424	-200,000	-0,008	0,041
-258,409	-200,000	-0,007	-0,154
-257,395	-200,000	-0,003	-0,047
-256,380	100,887	-0,032	0,027
-255,365	-84,563	0,074	0,017
-254,351	128,835	0,047	0,044
-253,336	36,142	-0,124	0,080
-252,322	-115,487	-0,140	0,019
-251,307	-200,000	-0,007	-0,063
-250,292	-154,510	0,067	0,003
-249,278	-200,000	0,001	0,106
-248,263	-200,000	0,025	0,123
-247,249	800,000	0,048	0,112
-246,234	800,000	0,008	-0,018
-245,219	800,000	-0,044	-0,096
-244,205	559,592	0,075	0,133
-243,190	148,546	0,071	-0,070
-242,176	-200,000	0,012	-0,184
-241,161	128,231	0,091	0,085
-240,146	800,000	-0,031	-0,063
-239,132	317,178	-0,081	-0,112
-238,117	-200,000	-0,038	-0,153
-237,103	167,448	0,035	0,036
-236,088	-89,932	0,069	-0,015
-235,073	800,000	-0,006	0,018
-234,059	-68,213	-0,024	0,007
-233,044	114,179	0,013	-0,012
-232,030	-8,365	0,084	-0,041
-231,015	800,000	0,052	-0,167
-230,000	550,279	0,016	-0,028
-228,986	-80,121	0,065	-0,016
-227,971	600,446	-0,040	0,073
-226,957	-200,000	-0,007	0,074
-225,942	800,000	0,028	0,074
-224,927	-41,416	-0,072	-0,027
-223,913	102,031	-0,144	-0,123
-222,898	-76,048	-0,096	-0,025
-221,884	-151,211	-0,087	-0,005
-220,869	-200,000	0,002	-0,058
-219,855	-5,135	0,110	0,055
-218,840	164,449	0,061	-0,063
-217,825	-34,751	0,108	-0,043
-216,811	479,365	-0,082	0,136
-215,796	-200,000	-0,010	-0,066
-214,782	-105,930	0,078	-0,013
-213,767	184,218	-0,049	-0,053
-212,752	112,634	0,033	-0,029
-211,738	-66,182	0,071	-0,021
-210,723	-44,320	0,133	0,048
-209,709	508,462	-0,079	-0,134
-208,694	205,527	0,030	-0,034
-207,679	800,000	-0,032	-0,072
-206,665	173,723	-0,044	-0,046
-205,650	-200,000	0,033	0,155
-204,636	-62,585	0,177	0,053
-203,621	-22,231	0,180	-0,079
-202,606	-200,000	-0,023	-0,124
-201,592	-200,000	0,037	-0,155
-200,577	-147,608	-0,072	-0,004
-199,563	10,053	-0,042	-0,023
-198,548	110,448	0,042	0,036
-197,533	-200,000	-0,015	0,076
-196,519	10,981	0,037	-0,021
-195,504	10,477	-0,066	0,036
-194,490	91,993	-0,007	0,006
-193,475	-133,663	0,086	-0,008
-192,460	-200,000	-0,012	-0,078
-191,446	205,520	0,080	-0,091
-190,431	309,299	0,072	0,099
-189,417	-177,113	-0,149	0,003
-188,402	-200,000	-0,001	0,139
-187,387	-200,000	-0,010	-0,048
-186,373	-200,000	0,002	-0,048
-185,358	-200,000	0,020	0,132
-184,344	-120,638	-0,097	0,012
-183,329	-200,000	-0,004	0,079
-182,315	321,523	0,021	-0,029
-181,300	-71,361	-0,070	-0,019
-180,285	-71,451	0,073	-0,020
-179,271	800,000	-0,060	0,162
-178,256	-60,921	0,027	-0,008
-177,242	-100,960	-0,062	-0,011
-176,227	320,013	0,014	0,019
-175,212	-51,342	0,120	-0,041
-174,198	-200,000	-0,017	0,067
-173,183	-58,751	-0,091	0,028
-172,169	-200,000	-0,010	0,103
-171,154	379,401	0,060	-0,090
-170,139	800,000	0,037	0,099
-169,125	741,244	0,033	0,064
-168,110	239,387	-0,017	-0,020
-167,096	630,389	-0,048	-0,090
-166,081	72,191	-0,060	-0,045
-165,066	800,000	-0,006	0,017
-164,052	-200,000	-0,009	-0,154
-163,037	-200,000	-0,011	0,053
-162,023	353,836	0,047	-0,068
-161,008	800,000	0,021	0,044
-159,993	473,266	0,028	-0,046
-158,979	-141,309	-0,103	0,008
-157,964	800,000	0,037	-0,119
-156,950	40,000	-0,110	0,072
-155,935	40,104	-0,008	0,005
-154,920	-117,107	-0,090	0,012
-153,906	-77,416	0,080	-0,020
-152,891	-200,000	-0,014	-0,108
-151,877	-149,720	0,063	0,004
-150,862	-200,000	0,010	0,039
-149,847	-200,000	-0,033	0,179
-148,833	-48,515	-0,144	0,050
-147,818	-105,028	0,153	-0,025
-146,804	261,584	0,055	0,069
-145,789	152,853	0,097	0,096
-144,775	273,695	-0,015	0,019
-143,760	-143,590	-0,050	-0,003
-142,745	329,065	0,032	0,045
-141,731	-86,833	-0,050	0,011
-140,716	-148,216	0,110	-0,007
-139,702	-129,760	0,061	0,006
-138,687	-109,889	0,026	-0,004
-137,672	-200,000	0,009	-0,064
-136,658	-76,306	-0,072	-0,018
-135,643	-200,000	0,018	-0,114
-134,629	-200,000	0,015	-0,074
-133,614	135,648	0,059	-0,056
-132,599	-14,890	0,078	0,036
-131,585	338,442	-0,091	-0,129
-130,570	-154,301	0,037	-0,002
-129,556	-3,473	0,026	0,013
-128,541	-200,000	0,004	-0,099
-127,526	-200,000	-0,011	-0,091
-126,512	-22,403	-0,102	0,045
-125,497	136,813	0,166	0,157
-124,483	-200,000	0,040	0,146
-123,468	159,151	-0,075	0,076
-122,453	27,280	-0,118	-0,072
-121,439	137,423	-0,056	-0,053
-120,424	-200,000	-0,007	-0,066
-119,410	553,174	-0,019	0,034
-118,395	-200,000	0,002	0,194
-117,380	239,191	-0,048	-0,059
-116,366	355,350	0,089	0,129
-115,351	225,766	-0,110	-0,130
-114,337	34,331	0,059	-0,037
-113,322	59,952	0,059	0,042
-112,307	800,000	-0,051	0,115
-111,293	277,044	-0,125	0,161
-110,278	-200,000	0,018	0,146
-109,264	29,170	0,083	-0,051
-108,249	-110,584	-0,089	0,013
-107,234	50,491	0,061	0,042
-106,220	-200,000	-0,010	-0,059
-105,205	-27,311	0,102	0,043
-104,191	-35,410	0,090	0,035
-103,176	800,000	-0,052	0,138
-102,162	-26,854	-0,073	0,031
-101,147	367,559	0,079	0,116
-100,132	108,379	0,074	-0,064
-99,118	45,980	-0,101	-0,068
-98,103	-37,208	0,055	-0,021
-97,089	-53,188	0,161	0,053
-96,074	-200,000	-0,005	-0,025
-95,059	-200,000	0,004	0,124
-94,045	309,551	-0,023	0,031
-93,030	800,000	-0,039	-0,084
-92,016	-200,000	0,032	-0,123
-91,001	17,800	0,047	-0,027
-89,986	145,646	0,064	-0,063
-88,972	-90,336	0,041	0,009
-87,957	198,637	-0,006	-0,006
-86,943	322,586	-0,032	-0,045
-85,928	800,000	0,063	-0,191
-84,913	-50,233	0,077	-0,026
-83,899	97,800	0,071	0,059
-82,884	-134,387	0,111	0,010
-81,870	15,077	-0,027	0,015
-80,855	-200,000	-0,004	0,154
-79,840	255,733	0,069	0,086
-78,826	-125,549	-0,117	0,013
-77,811	-200,000	0,012	-0,079
-76,797	-53,254	-0,016	0,005
-75,782	36,504	0,039	-0,025
-74,767	-85,333	0,013	-0,003
-73,753	-160,330	-0,069	0,003
-72,738	800,000	0,015	-0,031
-71,724	800,000	-0,035	-0,079
-70,709	800,000	0,063	-0,156
-69,694	-149,665	0,047	0,003
-68,680	-156,699	0,094	-0,004
-67,665	83,716	-0,052	-0,041
-66,651	-200,000	0,000	0,089
-65,636	308,761	-0,034	0,046
-64,622	800,000	-0,049	0,105
-63,607	194,016	0,062	-0,068
-62,592	-200,000	0,001	-0,025
-61,578	266,689	-0,105	-0,134
-60,563	295,571	-0,028	0,038
-59,549	353,055	0,085	0,123
-58,534	-114,720	-1,310	-0,180
-57,519	450,550	-0,962	-1,546
-56,505	-200,000	-0,951	-4,432
-55,490	68,631	0,616	-0,458
-54,476	800,000	4,900	11,816
-53,461	-200,000	13,338	253,343
-52,446	-200,000	689,161	2267,451
-51,432	594,997	1622,719	2925,440
-50,417	120,501	1635,776	1474,503
-49,403	73,644	1289,837	979,550
-48,388	38,359	1024,723	661,107
-47,373	24,463	982,358	588,059
-46,359	23,709	972,045	579,391
-45,344	22,764	967,809	573,753
-44,330	22,726	966,226	572,667
-43,315	22,604	964,744	571,368
-42,300	22,550	963,943	570,697
-41,286	22,643	962,785	570,291
-40,271	22,594	961,986	569,635
-39,257	22,566	961,047	568,965
-38,242	22,506	960,185	568,237
-37,227	22,572	959,169	567,827
-36,213	22,542	958,487	567,305
-35,198	22,514	957,590	566,662
-34,184	22,582	956,828	566,407
-33,169	22,526	955,937	565,674
-32,154	22,591	955,079	565,356
-31,140	22,619	954,146	564,872
-30,125	22,615	953,497	564,450
-29,111	22,628	952,531	563,898
-28,096	22,552	952,011	563,324
-27,082	22,651	951,231	563,158
-26,067	22,616	950,502	562,592
-25,052	22,618	949,784	562,151
-24,038	22,494	949,220	561,396
-23,023	22,617	948,348	561,254
-22,009	22,568	948,149	560,956
-20,994	22,607	947,260	560,532
-19,979	22,598	946,580	560,078
-18,965	22,621	945,795	559,667
-17,950	22,598	945,355	559,310
-16,936	22,590	944,656	558,849
-15,921	22,555	944,054	558,358
-14,906	22,480	943,212	557,601
-13,892	22,472	942,612	557,199
-12,877	22,491	941,969	556,856
-11,863	22,430	941,423	556,317
-10,848	22,434	940,848	555,968
-9,833	22,559	940,434	556,097
-8,819	22,552	939,592	555,556
-7,804	22,490	939,155	555,080
-6,790	22,474	938,361	554,539
-5,775	22,529	937,771	554,339
-4,760	22,524	937,179	553,952
-3,746	22,495	936,609	553,504
-2,731	22,299	936,066	552,540
-1,717	22,284	935,331	552,037
-0,702	22,334	934,591	551,735
0,313	22,040	933,971	551,276
1,327	25,116	931,970	559,723
2,342	34,733	796,565	504,030
3,356	32,692	451,995	282,899
4,371	1,909	293,814	153,180
5,386	-2,453	274,794	139,122
6,400	-3,972	269,008	134,771
7,415	-4,503	266,433	132,981
8,429	-4,155	265,319	132,732
9,444	-4,241	264,520	132,242
10,459	-4,285	263,836	131,848
11,473	-4,291	263,190	131,507
12,488	-4,357	262,745	131,214
13,502	-4,534	262,206	130,773
14,517	-4,314	261,829	130,772
15,531	-4,501	261,424	130,390
16,546	-4,443	261,119	130,278
17,561	-4,477	260,757	130,055
18,575	-4,298	260,241	129,946
19,590	-4,479	260,048	129,676
20,604	-4,319	259,678	129,623
21,619	-4,468	259,479	129,379
22,634	-4,363	258,965	129,206
23,648	-4,394	258,600	128,984
24,663	-4,630	258,586	128,755
25,677	-4,549	258,383	128,715
26,692	-4,349	258,038	128,709
27,707	-4,468	257,739	128,443
28,721	-4,443	257,513	128,341
29,736	-4,543	257,179	128,074
30,750	-4,580	257,028	127,955
31,765	-4,572	256,759	127,817
32,780	-4,658	256,641	127,671
33,794	-4,482	256,336	127,663
34,809	-4,654	256,055	127,360
35,823	-4,525	255,966	127,418
36,838	-4,537	255,550	127,189
37,853	-4,822	255,483	126,894
38,867	-4,726	255,101	126,777
39,882	-4,458	254,960	126,931
40,896	-4,661	254,698	126,611
41,911	-4,572	254,382	126,521
42,926	-4,595	254,170	126,383
43,940	-4,663	254,025	126,241
44,955	-4,630	253,855	126,174
45,969	-4,750	253,467	125,865
46,984	-4,872	253,392	125,710
47,999	-5,089	253,104	125,368
49,013	-4,932	252,698	125,292
50,028	-5,166	252,456	124,957
51,042	-5,410	252,297	124,656
52,057	-5,441	252,208	124,573
53,071	-5,228	251,917	124,604
54,086	-5,351	251,765	124,411
55,101	-5,135	251,703	124,556
56,115	-4,898	251,537	124,667
57,130	-4,616	251,402	124,834
58,144	-4,234	251,246	125,075
59,159	-4,308	250,933	124,844
60,174	-4,199	250,758	124,840
61,188	-4,397	250,532	124,545
62,203	-4,525	250,396	124,357
63,217	-4,290	250,148	124,424
64,232	-4,361	249,862	124,210
65,247	-4,463	249,853	124,107
66,261	-4,368	249,515	124,009
67,276	-4,578	249,325	123,724
68,290	-4,929	249,104	123,303
69,305	-4,986	248,839	123,112
70,320	-4,775	248,579	123,153
71,334	-4,803	248,566	123,111
72,349	-4,442	248,361	123,306
73,363	-4,220	248,084	123,347
74,378	-4,264	247,866	123,190
75,393	-4,526	247,751	122,899
76,407	-4,452	247,564	122,859
77,422	-4,504	247,409	122,727
78,436	-4,449	247,196	122,656
79,451	-4,427	246,982	122,558
80,466	-4,511	246,771	122,371
81,480	-4,689	246,431	122,042
82,495	-4,544	246,238	122,057
83,509	-4,770	246,281	121,877
84,524	-4,619	245,930	121,820
85,539	-4,754	245,612	121,538
86,553	-4,834	245,493	121,401
87,568	-4,663	245,271	121,423
88,582	-4,680	245,187	121,357
89,597	-4,554	244,885	121,303
90,611	-4,645	244,944	121,244
91,626	-4,590	244,790	121,204
92,641	-4,645	244,648	121,077
93,655	-4,419	244,240	121,053
94,670	-4,531	244,160	120,909
95,684	-4,530	244,029	120,834
96,699	-4,555	243,823	120,700
97,714	-4,658	243,523	120,455
98,728	-4,741	243,258	120,244
99,743	-4,841	243,079	120,062
100,757	-4,815	242,862	119,965
101,772	-4,965	242,791	119,795
102,787	-4,829	242,721	119,863
103,801	-4,648	242,594	119,940
104,816	-4,564	242,294	119,851
105,830	-4,569	242,117	119,748
106,845	-4,697	242,092	119,619
107,860	-4,390	241,694	119,665
108,874	-4,651	241,619	119,401
109,889	-4,554	241,274	119,301
110,903	-4,743	241,136	119,066
111,918	-4,780	240,952	118,934
112,933	-4,798	240,876	118,871
113,947	-4,485	240,534	118,950
114,962	-4,556	240,438	118,833
115,976	-4,600	240,365	118,750
116,991	-4,484	240,178	118,742
118,006	-4,505	239,986	118,619
119,020	-4,523	239,960	118,581
120,035	-4,328	239,700	118,602
121,049	-4,508	239,624	118,406
122,064	-4,574	239,450	118,255
123,079	-4,463	239,178	118,202
124,093	-4,678	238,964	117,910
125,108	-4,977	238,672	117,511
126,122	-4,940	238,469	117,431
127,137	-5,002	238,316	117,295
128,151	-4,893	238,240	117,336
129,166	-4,845	238,135	117,312
130,181	-4,739	237,905	117,275
131,195	-4,907	237,613	116,984
132,210	-4,697	237,582	117,129
133,224	-4,668	237,476	117,089
134,239	-4,761	237,241	116,888
135,254	-4,499	237,194	117,066
136,268	-4,852	236,842	116,597
137,283	-4,861	236,624	116,471
138,297	-4,951	236,269	116,214
139,312	-4,774	236,270	116,347
140,327	-4,699	236,314	116,419
141,341	-4,142	236,156	116,779
142,356	-4,300	236,053	116,590
143,370	-4,298	235,868	116,491
144,385	-4,271	235,742	116,440
145,400	-4,165	235,495	116,392
146,414	-4,342	235,435	116,211
147,429	-4,312	235,178	116,097
148,443	-4,280	235,192	116,120
149,458	-4,215	234,766	115,951
150,473	-4,313	234,768	115,863
151,487	-4,419	234,467	115,620
152,502	-4,277	234,277	115,629
153,516	-4,175	234,200	115,661
154,531	-4,226	233,957	115,491
155,546	-4,303	233,796	115,340
156,560	-4,315	233,570	115,209
157,575	-4,400	233,298	114,996
158,589	-4,315	233,308	115,059
159,604	-4,200	232,988	114,982
160,619	-3,822	232,957	115,256
161,633	-4,097	232,989	115,044
162,648	-4,193	232,674	114,802
163,662	-4,199	232,619	114,760
164,677	-4,191	232,257	114,577
165,692	-4,379	232,195	114,388
166,706	-4,098	232,157	114,580
167,721	-3,925	231,898	114,579
168,735	-4,180	231,773	114,306
169,750	-4,011	231,636	114,362
170,764	-4,326	231,519	114,046
171,779	-4,219	231,459	114,090
172,794	-4,263	231,278	113,956
173,808	-4,263	230,962	113,790
174,823	-4,723	230,724	113,302
175,837	-5,110	230,671	112,962
176,852	-4,476	230,486	113,358
177,867	-4,173	230,302	113,495
178,881	-4,057	230,160	113,506
179,896	-3,970	230,053	113,511
180,910	-4,510	230,075	113,090
181,925	-4,079	229,705	113,234
182,940	-3,904	229,508	113,263
183,954	-4,141	229,520	113,074
184,969	-3,959	229,354	113,124
185,983	-4,033	229,216	112,988
186,998	-4,265	229,034	112,708
188,013	-4,045	228,840	112,773
189,027	-4,097	228,759	112,683
190,042	-4,164	228,622	112,554
191,056	-3,984	228,376	112,562
192,071	-3,923	228,232	112,528
193,086	-4,235	228,280	112,300
194,100	-3,852	227,939	112,419
195,115	-4,191	227,687	112,023
196,129	-4,755	227,518	111,494
197,144	-1,231	228,690	114,792
198,159	2,988	229,621	118,527
199,173	3,874	229,859	119,328
200,188	4,042	229,785	119,409
201,202	4,112	229,686	119,401
202,217	4,452	229,536	119,576
203,232	4,551	229,414	119,578
204,246	4,514	229,302	119,480
205,261	4,825	229,022	119,564
206,275	4,644	229,074	119,440
207,290	4,840	228,789	119,433
208,304	4,791	228,772	119,375
209,319	4,517	228,645	119,087
210,334	4,695	228,348	119,059
211,348	4,506	228,167	118,808
212,363	4,203	227,874	118,413
213,377	4,002	227,682	118,147
214,392	3,885	227,453	117,928
215,407	4,280	227,244	118,113
216,421	4,015	227,437	118,000
217,436	3,834	227,054	117,651
218,450	3,697	226,869	117,440
219,465	3,812	226,734	117,447
220,480	4,067	226,567	117,546
221,494	3,796	226,601	117,346
222,509	3,954	226,359	117,330
223,523	3,852	226,076	117,096
224,538	3,680	226,034	116,932
225,553	3,801	225,885	116,937
226,567	3,979	225,775	117,005
227,582	4,084	225,691	117,031
228,596	4,273	225,575	117,104
229,611	3,855	225,464	116,719
230,626	3,825	225,184	116,540
231,640	3,678	224,981	116,313
232,655	4,118	224,970	116,630
233,669	4,433	224,969	116,858
234,684	4,744	224,649	116,916
235,699	4,167	224,559	116,423
236,713	4,208	224,323	116,322
237,728	3,990	224,049	116,005
238,742	3,733	224,032	115,792
239,757	3,865	223,665	115,691
240,772	3,790	223,685	115,635
241,786	3,647	223,553	115,449
242,801	4,149	223,390	115,731
243,815	4,226	223,310	115,737
244,830	4,269	223,316	115,762
245,844	3,961	223,062	115,390
246,859	3,944	222,862	115,263
247,874	4,184	222,830	115,416
248,888	4,307	222,467	115,309
249,903	3,829	222,582	115,001
250,917	4,015	222,168	114,916
251,932	3,818	222,206	114,779
252,947	3,813	222,039	114,678
253,961	3,941	221,847	114,664
254,976	3,943	221,646	114,552
255,990	3,827	221,624	114,443
257,005	4,123	221,368	114,521
258,020	3,982	221,387	114,416
259,034	4,383	221,233	114,625
260,049	4,266	221,028	114,421
261,063	4,085	220,854	114,186
262,078	4,266	220,832	114,300
263,093	4,576	220,710	114,455
264,107	4,220	220,392	114,017
265,122	4,312	220,299	114,026
266,136	4,474	220,222	114,096
267,151	4,346	220,129	113,944
268,166	4,037	219,805	113,538
269,180	3,792	219,546	113,213
270,195	3,927	219,476	113,267
271,209	3,909	219,315	113,161
272,224	3,915	219,304	113,149
273,239	3,916	219,067	113,017
274,253	4,052	218,885	113,013
275,268	3,581	218,721	112,573
276,282	3,577	218,566	112,480
277,297	3,612	218,465	112,443
278,312	3,617	218,324	112,365
279,326	4,100	218,231	112,660
280,341	3,886	218,149	112,451
281,355	3,951	218,051	112,438
282,370	3,768	217,920	112,227
283,384	3,878	217,623	112,144
284,399	3,537	217,395	111,768
285,414	3,478	217,497	111,768
286,428	4,041	217,169	111,999
287,443	3,941	217,350	112,010
288,457	4,148	217,087	112,015
289,472	4,188	216,876	111,925
290,487	3,458	216,686	111,286
291,501	3,408	216,438	111,113
292,516	3,523	216,421	111,178
293,530	3,679	216,320	111,229
294,545	3,692	216,017	111,073
295,560	3,611	216,032	111,012
296,574	3,745	215,991	111,078
297,589	3,610	215,869	110,908
298,603	3,849	215,697	110,982
299,618	3,914	215,542	110,939
300,633	3,934	215,458	110,901
301,647	4,256	215,210	110,995
302,662	4,070	215,185	110,838
303,676	4,185	215,011	110,821
304,691	4,027	214,917	110,649
305,706	4,179	214,811	110,694
306,720	4,353	214,499	110,649
307,735	3,919	214,400	110,277
308,749	3,740	214,253	110,062
309,764	3,972	214,205	110,194
310,779	4,256	214,059	110,313
311,793	4,088	213,881	110,091
312,808	4,144	213,745	110,051
313,822	4,197	213,573	109,991
314,837	3,969	213,413	109,736
315,852	3,749	213,228	109,474
316,866	3,997	213,210	109,632
317,881	4,040	213,170	109,632
318,895	4,204	212,888	109,594
319,910	3,976	212,730	109,341
320,925	3,591	212,646	109,014
321,939	3,449	212,313	108,733
322,954	3,536	212,351	108,804
323,968	4,116	212,124	109,090
324,983	4,262	212,040	109,140
325,997	4,318	212,063	109,182
327,012	4,205	211,758	108,935
328,027	3,959	211,688	108,715
329,041	4,299	211,577	108,889
330,056	4,351	211,534	108,894
331,070	3,932	211,279	108,457
332,085	3,783	211,004	108,202
333,100	3,917	210,905	108,235
334,114	4,010	210,785	108,230
335,129	3,831	210,653	108,027
336,143	3,766	210,541	107,914
337,158	3,714	210,400	107,795
338,173	3,803	210,291	107,793
339,187	3,950	210,157	107,817
340,202	3,536	209,935	107,404
341,216	3,425	209,885	107,291
342,231	3,563	209,785	107,327
343,246	3,759	209,684	107,403
344,260	3,729	209,513	107,284
345,275	3,734	209,414	107,227
346,289	3,914	209,396	107,334
347,304	3,943	209,152	107,220
348,319	3,864	208,921	107,037
349,333	4,061	208,899	107,153
350,348	3,964	208,716	106,983
351,362	3,952	208,649	106,930
352,377	3,981	208,497	106,864
353,392	3,815	208,366	106,671
354,406	3,742	208,350	106,603
355,421	193,819	1346,328	1434,788
356,435	154,639	1485,079	1434,918
