DTS Sentinel unit serial number:	SN410029Multiplexer serial number:	ORYXHardware model number:	OX2-SRSoftware version number:	ORYX F/W v4,00 Oryx Data Collector v3.7.2.0data status	okinstallation	B6 Nyhavnadifferential loss correction	single-endedforward channel	channel 2reverse channel	N/Adate	2023/12/09time	11:15:08forward acquisition time	300,00reverse acquisition time	0,00gamma	499,1914k internal	0,3139k external	0,3139temperature offset calibration	1,0000default loss term (dB/km)	0,3820temperature slope calibration	1,0000multiplexer offset coefficient	1,0000multiplexer slope coefficient	1,0000fibre end	0,00T internal ref (°C)	18,75T ext. ref 1 (°C)	2,66T ext. ref 2 (°C)	2,66length (m)	temperature (°C)	Stokes	anti-Stokes-744,400	455,935	0,080	-0,133
-743,385	-32,300	-0,210	-0,086
-742,371	800,000	-0,011	-0,024
-741,356	-52,273	-0,210	0,072
-740,342	-137,742	0,123	0,010
-739,327	-101,300	-0,297	0,053
-738,312	-137,599	0,023	0,002
-737,298	-142,329	-0,304	0,022
-736,283	-35,283	0,132	-0,053
-735,269	-113,703	-0,103	0,015
-734,254	-200,000	-0,008	0,078
-733,239	-36,310	-0,531	-0,211
-732,225	4,401	0,060	-0,032
-731,210	406,181	0,037	-0,059
-730,196	-200,000	0,000	0,073
-729,181	136,074	0,067	-0,065
-728,167	80,556	0,077	0,061
-727,152	-44,502	-0,100	0,037
-726,137	-6,262	-0,032	0,016
-725,123	209,895	0,073	-0,085
-724,108	416,944	-0,066	-0,105
-723,094	614,479	-0,075	-0,141
-722,079	-122,515	-0,087	-0,010
-721,064	-95,563	0,154	0,030
-720,050	-61,255	-0,105	-0,032
-719,035	400,883	0,051	-0,080
-718,021	179,782	-0,025	-0,028
-717,006	53,062	-0,047	0,034
-715,991	-114,441	-0,207	-0,029
-714,977	1,129	-0,100	0,053
-713,962	119,298	-0,067	-0,061
-712,948	83,079	0,057	0,046
-711,933	-200,000	0,001	0,006
-710,918	484,145	0,028	-0,047
-709,904	186,788	-0,087	-0,096
-708,889	-21,670	-0,066	-0,030
-707,875	-200,000	-0,025	-0,160
-706,860	-99,164	-0,060	-0,011
-705,845	122,290	0,102	0,094
-704,831	-152,998	-0,099	-0,005
-703,816	800,000	-0,030	0,074
-702,802	734,658	-0,063	0,125
-701,787	800,000	0,019	-0,053
-700,772	-114,684	-0,092	-0,013
-699,758	-61,738	0,141	0,043
-698,743	800,000	-0,011	0,028
-697,729	-161,701	-0,141	-0,005
-696,714	-200,000	-0,009	0,121
-695,699	-200,000	-0,013	0,070
-694,685	74,006	-0,119	0,092
-693,670	41,155	-0,045	0,030
-692,656	-40,485	0,056	-0,022
-691,641	-144,286	0,093	-0,006
-690,627	-28,281	-0,145	0,062
-689,612	-66,406	-0,091	0,027
-688,597	800,000	0,048	-0,110
-687,583	-8,929	-0,139	-0,069
-686,568	-124,391	0,085	0,010
-685,554	-37,824	-0,082	-0,032
-684,539	155,990	-0,046	0,047
-683,524	-88,258	0,091	0,020
-682,510	-116,131	0,073	0,010
-681,495	800,000	-0,024	-0,061
-680,481	82,259	0,081	-0,065
-679,466	-11,749	-0,078	-0,038
-678,451	800,000	-0,057	0,158
-677,437	-200,000	-0,010	-0,103
-676,422	800,000	-0,049	0,107
-675,408	800,000	-0,026	0,086
-674,393	-17,178	0,090	-0,042
-673,378	-84,254	-0,118	-0,027
-672,364	383,899	-0,082	-0,126
-671,349	800,000	0,032	0,089
-670,335	-73,369	-0,093	-0,025
-669,320	800,000	0,005	-0,013
-668,305	-136,083	0,100	-0,009
-667,291	8,880	-0,074	0,041
-666,276	800,000	0,050	-0,109
-665,262	267,697	-0,089	-0,115
-664,247	-44,781	-0,095	0,035
-663,232	800,000	0,006	-0,015
-662,218	446,003	0,071	0,116
-661,203	94,945	-0,058	-0,049
-660,189	-15,004	0,106	-0,050
-659,174	731,339	-0,065	-0,130
-658,159	-41,881	0,048	-0,018
-657,145	-85,041	0,063	-0,014
-656,130	-200,000	0,015	-0,051
-655,116	283,792	0,007	0,009
-654,101	517,139	0,046	0,079
-653,086	396,513	-0,082	0,127
-652,072	-200,000	0,029	-0,105
-651,057	-200,000	-0,021	-0,111
-650,043	-200,000	-0,043	-0,161
-649,028	126,308	-0,038	-0,035
-648,014	-32,440	-0,063	-0,026
-646,999	-166,934	-0,066	-0,002
-645,984	45,140	0,012	0,008
-644,970	-57,829	0,083	-0,027
-643,955	78,444	0,011	-0,008
-642,941	548,413	-0,034	-0,061
-641,926	671,617	-0,024	-0,047
-640,911	800,000	0,054	-0,156
-639,897	800,000	-0,067	0,140
-638,882	-200,000	-0,014	-0,088
-637,868	-110,265	-0,055	-0,008
-636,853	-200,000	-0,015	-0,070
-635,838	117,078	-0,037	0,034
-634,824	104,030	0,069	0,060
-633,809	76,323	0,144	0,112
-632,795	-88,862	-0,063	0,014
-631,780	144,807	0,077	0,076
-630,765	-15,366	-0,060	-0,028
-629,751	74,675	-0,109	0,084
-628,736	-200,000	0,001	0,056
-627,722	-120,842	-0,144	-0,018
-626,707	351,519	-0,007	-0,010
-625,692	73,098	0,162	0,125
-624,678	-200,000	-0,026	-0,090
-623,663	89,820	0,013	0,011
-622,649	-200,000	-0,012	-0,127
-621,634	-6,480	-0,029	-0,015
-620,619	469,909	-0,046	0,077
-619,605	25,487	-0,121	0,074
-618,590	-200,000	0,033	0,129
-617,576	800,000	0,048	-0,148
-616,561	-200,000	0,009	-0,088
-615,546	190,303	-0,048	-0,053
-614,532	50,542	-0,086	-0,060
-613,517	99,218	-0,092	-0,078
-612,503	123,194	-0,033	0,031
-611,488	-200,000	0,001	0,031
-610,474	-53,707	-0,136	0,046
-609,459	159,301	-0,083	-0,085
-608,444	112,453	-0,089	-0,080
-607,430	-200,000	0,058	-0,201
-606,415	616,300	-0,061	-0,114
-605,401	-200,000	0,011	-0,048
-604,386	-28,317	0,011	0,005
-603,371	-200,000	-0,006	0,105
-602,357	469,107	0,032	-0,053
-601,342	163,160	-0,043	-0,044
-600,328	-200,000	-0,023	-0,133
-599,313	800,000	-0,036	-0,081
-598,298	503,673	-0,026	0,045
-597,284	800,000	0,055	0,118
-596,269	-66,252	-0,099	0,029
-595,255	96,587	-0,017	-0,014
-594,240	-34,757	-0,069	-0,028
-593,225	-38,084	0,016	-0,006
-592,211	800,000	-0,085	-0,180
-591,196	29,649	0,113	-0,071
-590,182	161,788	-0,159	0,164
-589,167	166,864	-0,062	0,065
-588,152	47,888	0,065	0,045
-587,138	698,865	-0,048	-0,094
-586,123	73,222	0,092	-0,071
-585,109	-104,687	0,036	-0,006
-584,094	-200,000	-0,022	0,081
-583,079	110,885	-0,126	-0,112
-582,065	27,890	0,082	0,051
-581,050	-200,000	-0,004	0,058
-580,036	751,386	-0,065	-0,131
-579,021	-200,000	-0,008	-0,108
-578,006	457,388	0,054	-0,089
-576,992	102,623	0,131	-0,113
-575,977	-200,000	-0,026	-0,105
-574,963	800,000	-0,017	0,048
-573,948	409,251	0,011	-0,017
-572,934	-124,627	-0,077	-0,009
-571,919	107,911	0,063	0,055
-570,904	800,000	-0,017	-0,042
-569,890	254,772	-0,082	-0,104
-568,875	-64,870	0,093	0,028
-567,861	-159,676	0,151	0,006
-566,846	-2,138	0,081	0,042
-565,831	-200,000	-0,002	0,033
-564,817	-131,515	-0,110	-0,011
-563,802	-108,900	0,046	0,007
-562,788	82,859	0,047	-0,038
-561,773	647,090	0,053	-0,100
-560,758	283,435	-0,058	0,077
-559,744	174,372	-0,017	-0,018
-558,729	112,103	0,054	0,048
-557,715	328,616	-0,062	-0,088
-556,700	-200,000	0,004	-0,025
-555,685	20,940	0,100	-0,059
-554,671	800,000	0,019	0,042
-553,656	-159,741	0,058	-0,002
-552,642	34,095	0,069	0,044
-551,627	110,497	0,088	0,077
-550,612	800,000	0,044	0,130
-549,598	-29,286	-0,027	0,011
-548,583	75,437	0,105	0,081
-547,569	-200,000	-0,017	-0,074
-546,554	-65,463	0,205	-0,060
-545,539	-110,660	0,100	0,015
-544,525	-62,828	-0,059	0,018
-543,510	-72,915	-0,071	0,019
-542,496	-45,083	0,085	0,031
-541,481	-200,000	0,023	-0,089
-540,466	371,131	0,109	-0,163
-539,452	-200,000	0,035	0,121
-538,437	-200,000	0,002	-0,031
-537,423	-200,000	-0,028	0,118
-536,408	800,000	0,038	0,078
-535,393	800,000	-0,063	-0,149
-534,379	-200,000	0,037	-0,166
-533,364	-89,384	-0,124	0,027
-532,350	-48,524	0,050	-0,018
-531,335	173,495	0,129	-0,137
-530,321	-77,670	0,094	0,024
-529,306	-8,762	-0,150	-0,074
-528,291	-65,399	0,134	-0,039
-527,277	-8,293	-0,123	0,060
-526,262	800,000	-0,056	-0,137
-525,248	-188,310	0,176	0,002
-524,233	800,000	-0,045	-0,100
-523,218	32,784	0,108	0,069
-522,204	241,693	0,045	0,055
-521,189	309,371	-0,067	-0,092
-520,175	312,351	-0,037	-0,051
-519,160	304,551	-0,014	0,019
-518,145	-200,000	-0,001	-0,045
-517,131	179,757	0,012	0,013
-516,116	-200,000	0,036	0,127
-515,102	327,926	-0,086	0,121
-514,087	250,327	0,022	-0,027
-513,072	483,718	0,076	0,128
-512,058	-92,772	-0,122	0,025
-511,043	-174,657	0,147	0,003
-510,029	317,412	0,062	-0,086
-509,014	391,507	0,035	0,053
-507,999	800,000	0,058	0,128
-506,985	313,375	-0,013	0,018
-505,970	66,812	-0,086	-0,064
-504,956	196,211	-0,027	-0,031
-503,941	19,775	0,070	0,041
-502,926	415,174	-0,067	0,105
-501,912	-200,000	-0,003	0,193
-500,897	-32,100	-0,102	-0,042
-499,883	-23,276	-0,062	-0,027
-498,868	-5,904	0,018	0,009
-497,853	-142,699	0,153	0,011
-496,839	800,000	-0,005	0,015
-495,824	-200,000	-0,008	0,134
-494,810	329,639	0,095	0,135
-493,795	-32,196	-0,050	0,021
-492,781	72,765	0,121	0,092
-491,766	48,504	-0,094	0,064
-490,751	-81,967	-0,204	0,049
-489,737	101,769	0,056	0,048
-488,722	260,784	0,062	0,079
-487,708	4,524	0,146	0,078
-486,693	-144,244	0,092	-0,006
-485,678	-200,000	-0,014	0,056
-484,664	584,266	0,086	0,155
-483,649	101,514	0,113	0,097
-482,635	800,000	0,020	0,047
-481,620	252,715	-0,031	0,039
-480,605	259,303	0,045	-0,058
-479,591	800,000	0,044	0,117
-478,576	-200,000	-0,025	0,144
-477,562	17,746	0,033	-0,019
-476,547	-200,000	-0,006	0,085
-475,532	726,065	-0,082	0,161
-474,518	-200,000	0,002	0,124
-473,503	-114,790	0,070	0,010
-472,489	17,137	0,057	0,033
-471,474	800,000	0,024	0,070
-470,459	479,292	-0,097	-0,161
-469,445	800,000	-0,028	-0,072
-468,430	-200,000	0,004	0,049
-467,416	800,000	-0,025	-0,052
-466,401	-200,000	-0,009	0,095
-465,386	0,559	0,099	-0,052
-464,372	-200,000	0,002	-0,034
-463,357	321,123	-0,056	0,078
-462,343	-200,000	-0,003	-0,067
-461,328	440,778	0,073	-0,117
-460,313	3,063	0,038	-0,020
-459,299	-200,000	0,013	0,066
-458,284	-145,980	0,078	-0,005
-457,270	800,000	0,033	0,087
-456,255	31,785	-0,103	-0,065
-455,241	-140,798	-0,096	0,007
-454,226	348,713	-0,078	0,112
-453,211	800,000	0,051	-0,105
-452,197	-2,997	-0,082	0,042
-451,182	85,238	0,139	0,112
-450,168	-90,155	0,073	-0,015
-449,153	800,000	-0,034	-0,079
-448,138	54,130	-0,120	-0,085
-447,124	-200,000	0,007	0,048
-446,109	-102,309	0,029	0,005
-445,095	584,541	-0,066	0,119
-444,080	-200,000	-0,008	0,126
-443,065	800,000	-0,035	-0,111
-442,051	-200,000	0,019	0,084
-441,036	-182,334	0,041	0,001
-440,022	-130,179	-0,013	0,001
-439,007	5,413	-0,078	0,042
-437,992	-200,000	-0,038	-0,128
-436,978	-200,000	-0,019	-0,127
-435,963	98,568	0,016	-0,013
-434,949	-110,053	0,138	0,021
-433,934	-200,000	0,043	0,200
-432,919	-200,000	0,006	0,086
-431,905	317,848	-0,033	0,045
-430,890	-57,543	-0,097	-0,031
-429,876	-114,165	0,149	0,021
-428,861	-200,000	0,020	-0,076
-427,846	800,000	0,071	-0,152
-426,832	800,000	-0,048	-0,149
-425,817	-164,776	-0,149	0,005
-424,803	800,000	-0,016	0,052
-423,788	-160,556	0,162	0,006
-422,773	800,000	-0,021	0,050
-421,759	-110,217	-0,060	-0,009
-420,744	800,000	0,052	-0,138
-419,730	-200,000	-0,006	-0,128
-418,715	-47,449	-0,180	0,064
-417,701	-159,233	0,050	0,002
-416,686	800,000	-0,032	0,071
-415,671	-27,835	0,088	0,037
-414,657	-200,000	0,050	0,185
-413,642	95,845	0,072	0,060
-412,628	30,236	-0,099	-0,062
-411,613	800,000	0,041	0,088
-410,598	800,000	0,032	-0,077
-409,584	-156,542	-0,151	0,007
-408,569	135,262	0,110	-0,105
-407,555	-200,000	-0,007	-0,042
-406,540	-200,000	-0,002	0,041
-405,525	39,353	0,016	-0,010
-404,511	42,930	-0,103	-0,068
-403,496	-70,294	0,142	0,039
-402,482	-200,000	0,019	0,159
-401,467	353,684	-0,059	0,085
-400,452	-158,587	-0,036	-0,002
-399,438	-61,380	-0,015	0,005
-398,423	351,905	0,029	0,042
-397,409	-93,457	-0,166	-0,033
-396,394	172,493	-0,074	-0,078
-395,379	-100,786	0,088	-0,016
-394,365	-200,000	0,004	0,188
-393,350	800,000	-0,047	0,109
-392,336	-113,631	-0,059	0,008
-391,321	471,037	-0,052	-0,086
-390,306	-22,434	-0,161	-0,071
-389,292	127,652	-0,076	-0,071
-388,277	-43,164	-0,037	-0,014
-387,263	0,965	0,072	0,038
-386,248	-19,461	0,028	0,012
-385,233	180,996	0,082	0,088
-384,219	800,000	-0,034	0,087
-383,204	479,820	-0,051	-0,085
-382,190	-200,000	0,001	-0,150
-381,175	800,000	-0,010	0,024
-380,160	493,302	0,027	-0,046
-379,146	-7,672	0,033	-0,016
-378,131	-200,000	0,003	-0,024
-377,117	-200,000	-0,041	-0,136
-376,102	298,879	0,038	-0,051
-375,088	90,433	0,068	0,055
-374,073	17,253	-0,115	0,066
-373,058	6,598	-0,048	-0,026
-372,044	316,368	0,089	0,123
-371,029	22,697	0,090	0,054
-370,015	60,774	0,044	0,032
-369,000	-38,703	0,024	0,009
-367,985	800,000	-0,088	-0,206
-366,971	-200,000	-0,003	-0,109
-365,956	-69,442	0,098	-0,027
-364,942	116,005	-0,070	-0,063
-363,927	-92,606	-0,118	-0,024
-362,912	800,000	0,070	0,143
-361,898	483,106	0,038	0,064
-360,883	-65,322	-0,068	0,020
-359,869	162,155	0,070	0,072
-358,854	612,392	0,035	0,063
-357,839	-9,531	-0,129	-0,062
-356,825	800,000	-0,022	-0,065
-355,810	92,000	-0,020	0,017
-354,796	488,393	-0,006	-0,010
-353,781	142,303	-0,058	-0,057
-352,766	-173,536	0,029	0,001
-351,752	-200,000	0,001	0,005
-350,737	800,000	-0,012	0,031
-349,723	456,318	0,033	0,053
-348,708	-80,804	0,029	-0,007
-347,693	-200,000	0,017	-0,150
-346,679	-48,569	-0,080	0,028
-345,664	304,651	0,052	-0,071
-344,650	-200,000	-0,026	0,107
-343,635	-76,779	0,139	0,035
-342,620	-36,391	-0,034	-0,013
-341,606	-200,000	0,016	-0,167
-340,591	-95,018	-0,169	-0,033
-339,577	123,773	-0,136	-0,125
-338,562	-191,713	0,066	-0,000
-337,548	-200,000	-0,016	-0,132
-336,533	-200,000	0,003	0,087
-335,518	-18,994	-0,124	-0,056
-334,504	249,881	0,062	0,077
-333,489	-153,705	-0,066	-0,003
-332,475	-200,000	-0,008	-0,136
-331,460	-77,768	0,091	0,023
-330,445	417,211	-0,022	0,034
-329,431	5,698	0,114	0,061
-328,416	35,415	0,062	-0,040
-327,402	29,531	0,103	-0,064
-326,387	-200,000	0,016	0,082
-325,372	-200,000	0,015	-0,076
-324,358	49,600	-0,074	-0,051
-323,343	730,731	-0,067	-0,132
-322,329	-76,516	-0,073	0,019
-321,314	-139,472	-0,066	-0,005
-320,299	-200,000	-0,012	0,039
-319,285	-100,590	0,089	-0,016
-318,270	-45,226	0,130	-0,047
-317,256	800,000	-0,031	-0,064
-316,241	800,000	-0,052	0,119
-315,226	-200,000	-0,021	0,159
-314,212	-0,235	0,090	0,046
-313,197	800,000	0,028	0,078
-312,183	26,834	0,141	0,086
-311,168	170,555	-0,057	0,059
-310,153	469,821	-0,071	-0,117
-309,139	-200,000	0,093	-0,000
-308,124	59,648	0,061	-0,044
-307,110	-200,000	-0,040	0,129
-306,095	-107,349	0,025	-0,004
-305,080	58,856	0,093	0,066
-304,066	60,286	0,034	-0,024
-303,051	-27,666	-0,162	0,068
-302,037	-100,191	0,063	0,011
-301,022	-200,000	0,010	0,081
-300,008	-200,000	0,011	0,078
-298,993	-200,000	-0,006	-0,069
-297,978	8,467	-0,055	0,030
-296,964	-200,000	0,002	0,092
-295,949	223,454	-0,091	-0,108
-294,935	800,000	-0,047	0,150
-293,920	-102,032	-0,035	0,006
-292,905	680,930	0,024	0,046
-291,891	114,862	0,080	0,071
-290,876	-28,485	-0,066	0,028
-289,862	-7,292	-0,099	0,049
-288,847	-200,000	-0,041	-0,196
-287,832	-200,000	-0,009	-0,206
-286,818	-200,000	0,012	-0,104
-285,803	-200,000	0,001	-0,100
-284,789	-76,086	0,124	-0,032
-283,774	12,700	0,090	0,050
-282,759	-200,000	-0,007	0,042
-281,745	-172,141	-0,069	0,002
-280,730	800,000	-0,080	0,190
-279,716	-200,000	-0,012	0,087
-278,701	-200,000	0,005	-0,020
-277,686	-200,000	-0,013	0,078
-276,672	-200,000	-0,005	0,071
-275,657	282,939	0,065	0,085
-274,643	45,458	-0,061	-0,041
-273,628	800,000	-0,061	0,165
-272,613	-81,440	-0,041	-0,010
-271,599	800,000	-0,023	0,073
-270,584	130,028	0,062	-0,058
-269,570	-116,856	0,051	0,007
-268,555	-141,752	-0,020	0,001
-267,540	-200,000	-0,012	0,083
-266,526	800,000	0,032	0,072
-265,511	-80,906	-0,080	0,019
-264,497	-200,000	0,021	0,109
-263,482	-103,265	0,064	-0,011
-262,467	-60,105	-0,166	0,051
-261,453	702,184	0,062	-0,119
-260,438	-200,000	0,005	-0,090
-259,424	2,484	0,095	-0,050
-258,409	147,675	0,045	0,044
-257,395	-22,733	0,154	-0,067
-256,380	150,830	0,031	-0,031
-255,365	118,533	0,063	0,057
-254,351	-83,265	0,217	0,050
-253,336	-42,438	-0,100	-0,037
-252,322	239,301	-0,035	-0,042
-251,307	-74,723	-0,062	0,016
-250,292	800,000	0,012	0,033
-249,278	96,704	-0,108	-0,090
-248,263	-12,601	0,033	0,016
-247,249	-200,000	0,003	-0,023
-246,234	182,631	-0,043	-0,047
-245,219	-166,773	-0,102	0,003
-244,205	1,181	-0,115	-0,060
-243,190	184,189	-0,047	-0,051
-242,176	169,093	0,076	0,079
-241,161	800,000	-0,038	-0,083
-240,146	523,358	0,040	0,069
-239,132	800,000	0,014	0,032
-238,117	-43,488	-0,140	-0,051
-237,103	-200,000	-0,000	-0,126
-236,088	-17,947	0,152	0,069
-235,073	-36,246	0,132	-0,051
-234,059	-23,062	-0,051	-0,022
-233,044	-200,000	0,004	0,064
-232,030	-200,000	0,004	-0,080
-231,015	-66,451	-0,137	-0,039
-230,000	229,219	0,041	-0,049
-228,986	62,964	-0,108	-0,079
-227,971	800,000	-0,013	-0,036
-226,957	320,748	0,077	0,107
-225,942	-131,562	0,043	-0,004
-224,927	29,809	0,038	-0,023
-223,913	-200,000	-0,002	0,008
-222,898	53,956	-0,073	0,051
-221,884	140,292	-0,048	-0,046
-220,869	336,841	0,020	-0,029
-219,855	-126,770	0,125	0,013
-218,840	749,419	0,009	0,017
-217,825	603,972	-0,049	-0,089
-216,811	263,801	-0,049	-0,062
-215,796	-200,000	0,001	-0,016
-214,782	-84,811	0,043	-0,010
-213,767	276,560	0,020	-0,025
-212,752	-134,658	0,146	0,013
-211,738	193,122	-0,085	-0,094
-210,723	260,009	0,061	0,077
-209,709	-44,283	0,099	0,036
-208,694	91,268	-0,074	-0,060
-207,679	800,000	-0,036	-0,107
-206,665	613,718	0,043	0,078
-205,650	800,000	0,042	-0,105
-204,636	345,561	-0,013	0,018
-203,621	75,222	0,108	-0,082
-202,606	411,491	-0,084	-0,131
-201,592	-62,694	-0,190	-0,057
-200,577	-200,000	-0,017	0,062
-199,563	800,000	0,010	-0,021
-198,548	-86,719	-0,021	-0,005
-197,533	-98,320	0,051	-0,009
-196,519	-200,000	-0,005	0,048
-195,504	-200,000	0,023	-0,081
-194,490	413,345	-0,015	0,023
-193,475	-116,428	-0,049	-0,006
-192,460	-200,000	-0,004	-0,042
-191,446	-156,635	0,034	0,002
-190,431	-51,955	0,045	-0,015
-189,417	-168,112	0,160	0,004
-188,402	7,450	-0,071	-0,038
-187,387	-132,381	-0,075	-0,007
-186,373	316,305	-0,033	-0,045
-185,358	-78,259	-0,082	0,020
-184,344	152,547	0,125	0,124
-183,329	-81,161	0,013	0,003
-182,315	-21,511	-0,074	-0,033
-181,300	800,000	-0,027	0,079
-180,285	-105,533	0,098	0,016
-179,271	76,772	0,020	0,016
-178,256	601,336	0,024	-0,044
-177,242	42,961	-0,052	0,035
-176,227	-67,173	0,149	0,042
-175,212	-200,000	0,030	0,130
-174,198	-115,876	-0,087	0,012
-173,183	82,781	0,048	0,038
-172,169	137,348	-0,025	-0,023
-171,154	-22,714	-0,092	-0,040
-170,139	302,800	0,021	-0,028
-169,125	-200,000	-0,016	0,085
-168,110	-36,464	-0,046	0,018
-167,096	-200,000	-0,012	0,046
-166,081	-200,000	-0,004	-0,069
-165,066	-200,000	-0,026	0,146
-164,052	-115,698	0,037	0,005
-163,037	288,572	-0,117	-0,154
-162,023	583,594	0,032	0,058
-161,008	22,329	-0,038	-0,022
-159,993	790,034	-0,031	-0,063
-158,979	179,697	-0,109	0,116
-157,964	492,540	0,075	-0,125
-156,950	35,791	-0,021	-0,013
-155,935	-63,274	-0,089	0,026
-154,920	800,000	0,025	-0,072
-153,906	-150,213	0,160	0,009
-152,891	330,393	-0,062	-0,087
-151,877	315,457	-0,027	0,037
-150,862	16,408	-0,111	-0,063
-149,847	800,000	-0,042	-0,100
-148,833	-82,209	0,100	-0,023
-147,818	800,000	0,015	-0,043
-146,804	-31,677	-0,087	-0,035
-145,789	136,043	-0,099	-0,093
-144,775	164,775	-0,083	-0,084
-143,760	-200,000	0,014	-0,060
-142,745	-67,918	0,159	-0,045
-141,731	-74,120	-0,124	-0,032
-140,716	-101,665	0,131	-0,023
-139,702	299,170	-0,089	-0,118
-138,687	-65,171	-0,067	0,019
-137,672	47,574	-0,115	-0,078
-136,658	143,795	-0,064	-0,062
-135,643	-15,362	0,140	0,065
-134,629	-200,000	0,000	-0,014
-133,614	-200,000	-0,007	-0,051
-132,599	-4,141	-0,117	0,058
-131,585	-200,000	0,003	0,056
-130,570	611,602	0,046	-0,084
-129,556	-127,389	0,068	-0,007
-128,541	-200,000	-0,002	-0,030
-127,526	-26,320	0,105	0,044
-126,512	-200,000	0,006	0,056
-125,497	-200,000	0,014	-0,061
-124,483	77,622	0,087	0,067
-123,468	-51,894	-0,054	0,018
-122,453	311,065	-0,078	-0,106
-121,439	439,562	-0,064	-0,102
-120,424	800,000	-0,015	-0,041
-119,410	120,629	-0,086	0,078
-118,395	498,560	0,030	0,051
-117,380	192,050	0,059	0,064
-116,366	294,536	-0,075	0,100
-115,351	82,232	-0,073	-0,058
-114,337	-200,000	-0,003	-0,214
-113,322	572,866	0,080	0,142
-112,307	-200,000	0,009	0,063
-111,293	50,302	0,074	0,050
-110,278	206,194	0,099	0,112
-109,264	183,915	0,085	0,091
-108,249	81,571	0,029	0,023
-107,234	373,552	-0,085	-0,125
-106,220	-200,000	-0,007	-0,031
-105,205	49,345	0,050	-0,034
-104,191	102,125	0,091	0,077
-103,176	96,312	-0,058	0,048
-102,162	-200,000	0,013	-0,061
-101,147	-200,000	-0,009	-0,183
-100,132	161,529	0,068	-0,069
-99,118	-200,000	0,024	0,107
-98,103	-56,355	-0,139	0,044
-97,089	-73,215	-0,096	-0,025
-96,074	-40,335	-0,091	-0,034
-95,059	-200,000	0,001	0,077
-94,045	-40,173	0,115	-0,043
-93,030	-200,000	-0,019	0,112
-92,016	-200,000	-0,012	-0,147
-91,001	60,742	0,159	-0,114
-89,986	-200,000	0,014	-0,045
-88,972	23,160	-0,047	0,028
-87,957	-84,540	0,094	-0,021
-86,943	-200,000	0,009	-0,046
-85,928	-24,007	-0,032	0,014
-84,913	3,798	-0,180	-0,095
-83,899	800,000	0,025	-0,064
-82,884	259,674	-0,063	0,079
-81,870	-90,293	0,079	-0,017
-80,855	-200,000	-0,012	0,203
-79,840	101,223	0,148	0,124
-78,826	-79,479	0,067	-0,016
-77,811	-3,877	-0,065	-0,033
-76,797	401,321	-0,024	0,036
-75,782	-169,043	-0,053	0,001
-74,767	185,826	-0,079	-0,085
-73,753	800,000	0,069	0,199
-72,738	-128,797	0,158	-0,016
-71,724	-21,964	-0,117	0,051
-70,709	130,402	0,062	-0,058
-69,694	479,226	-0,065	0,106
-68,680	63,836	0,032	0,023
-67,665	75,555	0,134	-0,102
-66,651	-200,000	-0,015	0,159
-65,636	-30,927	0,071	-0,029
-64,622	800,000	-0,071	-0,152
-63,607	800,000	-0,011	0,036
-62,592	-200,000	0,048	0,175
-61,578	-151,993	0,244	0,013
-60,563	800,000	0,032	0,068
-59,549	71,338	-0,086	0,064
-58,534	-30,355	-1,725	-0,704
-57,519	800,000	-0,611	-1,307
-56,505	-200,000	-1,144	-4,695
-55,490	-149,827	0,624	-0,035
-54,476	800,000	5,263	12,272
-53,461	-200,000	15,726	276,142
-52,446	-200,000	702,021	2241,211
-51,432	561,603	1618,520	2837,081
-50,417	120,804	1623,568	1457,511
-49,403	80,673	1283,517	997,949
-48,388	36,747	1027,357	653,974
-47,373	21,612	989,343	579,761
-46,359	20,643	978,007	569,904
-45,344	19,005	973,891	562,103
-44,330	19,041	972,507	561,398
-43,315	18,820	970,807	559,672
-42,300	18,802	969,951	559,096
-41,286	18,801	968,692	558,345
-40,271	18,793	967,754	557,756
-39,257	18,765	967,143	557,290
-38,242	18,809	966,241	556,893
-37,227	18,776	965,404	556,281
-36,213	18,811	964,642	555,934
-35,198	18,794	963,586	555,245
-34,184	18,811	963,062	554,979
-33,169	18,795	961,939	554,256
-32,154	18,861	961,001	553,909
-31,140	18,817	960,277	553,327
-30,125	18,781	959,525	552,756
-29,111	18,793	958,753	552,327
-28,096	18,762	958,221	551,900
-27,082	18,780	957,471	551,503
-26,067	18,794	956,664	551,060
-25,052	18,760	955,853	550,464
-24,038	18,805	955,156	550,184
-23,023	18,781	954,442	549,674
-22,009	18,845	953,895	549,543
-20,994	18,799	953,194	548,969
-19,979	18,740	952,734	548,492
-18,965	18,774	951,812	548,049
-17,950	18,809	951,247	547,816
-16,936	18,758	950,736	547,335
-15,921	18,718	950,067	546,800
-14,906	18,632	949,381	546,108
-13,892	18,739	948,615	545,987
-12,877	18,651	947,969	545,313
-11,863	18,627	947,411	544,896
-10,848	18,631	946,992	544,643
-9,833	18,725	946,436	544,605
-8,819	18,764	945,810	544,344
-7,804	18,648	945,295	543,659
-6,790	18,621	944,644	543,176
-5,775	18,685	943,991	542,982
-4,760	18,701	943,394	542,670
-3,746	18,686	942,615	542,151
-2,731	18,498	941,975	541,164
-1,717	18,502	941,275	540,754
-0,702	18,455	940,569	540,179
0,313	18,270	940,021	540,091
1,327	21,357	938,231	548,782
2,342	30,398	795,841	489,554
3,356	27,570	449,275	272,102
4,371	-1,839	295,330	149,398
5,386	-6,097	276,682	135,905
6,400	-7,290	271,027	132,004
7,415	-7,491	268,500	130,577
8,429	-7,318	267,422	130,199
9,444	-7,516	266,456	129,537
10,459	-7,589	265,922	129,199
11,473	-7,712	265,297	128,771
12,488	-7,755	264,713	128,437
13,502	-7,929	264,073	127,956
14,517	-7,923	263,691	127,766
15,531	-7,998	263,299	127,497
16,546	-7,955	263,186	127,469
17,561	-8,025	262,522	127,074
18,575	-7,877	262,346	127,110
19,590	-7,973	261,954	126,823
20,604	-7,806	261,617	126,798
21,619	-7,985	261,380	126,512
22,634	-7,985	261,039	126,335
23,648	-7,985	260,538	126,081
24,663	-7,985	260,445	126,025
25,677	-7,981	260,062	125,832
26,692	-8,055	259,928	125,690
27,707	-8,092	259,760	125,565
28,721	-8,055	259,416	125,420
29,736	-8,043	259,038	125,237
30,750	-8,166	258,908	125,053
31,765	-8,210	258,725	124,915
32,780	-8,074	258,328	124,833
33,794	-8,037	258,109	124,748
34,809	-7,994	257,801	124,627
35,823	-8,129	257,684	124,439
36,838	-8,196	257,412	124,238
37,853	-8,109	257,291	124,245
38,867	-8,171	256,995	124,036
39,882	-8,145	256,762	123,936
40,896	-8,245	256,437	123,680
41,911	-8,211	256,385	123,673
42,926	-8,046	256,034	123,638
43,940	-8,243	255,935	123,407
44,955	-8,306	255,598	123,178
45,969	-8,442	255,292	122,900
46,984	-8,563	255,078	122,680
47,999	-8,741	254,864	122,411
49,013	-8,805	254,701	122,266
50,028	-8,792	254,318	122,083
51,042	-9,026	254,217	121,819
52,057	-9,084	253,962	121,635
53,071	-8,894	253,615	121,623
54,086	-8,876	253,571	121,607
55,101	-8,829	253,357	121,535
56,115	-8,496	253,225	121,749
57,130	-8,235	253,213	121,959
58,144	-7,833	253,024	122,205
59,159	-8,019	253,025	122,034
60,174	-7,817	252,508	121,949
61,188	-7,851	252,245	121,782
62,203	-7,984	252,309	121,687
63,217	-8,038	252,079	121,519
64,232	-7,999	251,778	121,395
65,247	-7,979	251,624	121,328
66,261	-8,022	251,199	121,075
67,276	-8,257	250,988	120,761
68,290	-8,326	250,636	120,522
69,305	-8,629	250,535	120,202
70,320	-8,484	250,247	120,178
71,334	-8,168	250,269	120,448
72,349	-7,926	250,011	120,520
73,363	-7,973	249,936	120,433
74,378	-7,959	249,631	120,287
75,393	-8,067	249,476	120,110
76,407	-7,982	249,125	120,003
77,422	-8,021	248,979	119,888
78,436	-8,043	248,843	119,794
79,451	-7,973	248,586	119,719
80,466	-8,368	248,444	119,303
81,480	-8,315	248,208	119,225
82,495	-8,385	247,902	119,008
83,509	-8,286	247,834	119,049
84,524	-8,180	247,575	119,003
85,539	-8,422	247,311	118,661
86,553	-8,409	247,131	118,575
87,568	-8,374	246,981	118,522
88,582	-8,266	246,801	118,517
89,597	-8,238	246,554	118,411
90,611	-8,307	246,576	118,353
91,626	-8,103	246,379	118,419
92,641	-8,107	246,101	118,271
93,655	-8,069	245,965	118,228
94,670	-8,195	245,569	117,921
95,684	-8,103	245,477	117,943
96,699	-8,180	245,352	117,809
97,714	-8,320	245,195	117,605
98,728	-8,526	244,980	117,319
99,743	-8,549	244,740	117,175
100,757	-8,454	244,602	117,177
101,772	-8,204	244,321	117,241
102,787	-8,303	244,199	117,090
103,801	-8,401	244,173	116,985
104,816	-8,214	243,992	117,043
105,830	-8,075	243,725	117,020
106,845	-8,043	243,702	117,025
107,860	-8,089	243,471	116,866
108,874	-7,989	243,146	116,783
109,889	-8,206	243,009	116,526
110,903	-8,310	242,769	116,315
111,918	-8,143	242,692	116,406
112,933	-8,297	242,444	116,150
113,947	-7,996	242,257	116,298
114,962	-8,116	242,062	116,096
115,976	-8,283	241,992	115,913
116,991	-8,145	241,818	115,934
118,006	-8,108	241,545	115,823
119,020	-8,136	241,645	115,837
120,035	-7,853	241,375	115,930
121,049	-7,973	241,269	115,770
122,064	-8,146	241,103	115,538
123,079	-8,032	240,866	115,508
124,093	-8,356	240,711	115,157
125,108	-8,471	240,470	114,938
126,122	-8,484	240,137	114,758
127,137	-8,657	240,021	114,551
128,151	-8,614	239,996	114,564
129,166	-8,351	239,627	114,592
130,181	-8,347	239,386	114,470
131,195	-8,484	239,280	114,298
132,210	-8,396	239,062	114,254
133,224	-8,208	239,018	114,376
134,239	-8,172	238,854	114,317
135,254	-8,014	238,602	114,314
136,268	-8,174	238,437	114,095
137,283	-8,431	238,023	113,679
138,297	-8,653	237,983	113,470
139,312	-8,571	237,798	113,438
140,327	-8,247	237,733	113,659
141,341	-7,710	237,608	114,023
142,356	-7,711	237,636	114,025
143,370	-7,545	237,298	113,986
144,385	-7,673	237,217	113,835
145,400	-7,706	237,174	113,777
146,414	-7,592	236,757	113,659
147,429	-7,760	236,630	113,453
148,443	-7,748	236,489	113,385
149,458	-7,761	236,249	113,249
150,473	-7,704	236,069	113,198
151,487	-7,886	236,059	113,037
152,502	-7,842	235,852	112,963
153,516	-7,560	235,693	113,103
154,531	-7,626	235,456	112,927
155,546	-7,707	235,287	112,770
156,560	-7,808	235,067	112,574
157,575	-7,825	234,783	112,415
158,589	-7,948	234,773	112,302
159,604	-7,581	234,634	112,518
160,619	-7,631	234,433	112,371
161,633	-7,569	234,473	112,430
162,648	-7,707	234,277	112,216
163,662	-7,813	234,164	112,067
164,677	-7,941	233,855	111,808
165,692	-7,844	233,702	111,802
166,706	-7,554	233,762	112,051
167,721	-7,628	233,526	111,869
168,735	-7,541	233,464	111,898
169,750	-7,525	233,229	111,788
170,764	-7,730	233,175	111,590
171,779	-7,700	232,948	111,496
172,794	-7,622	232,805	111,479
173,808	-7,655	232,253	111,179
174,823	-8,338	232,327	110,666
175,837	-8,345	231,872	110,434
176,852	-8,135	232,121	110,707
177,867	-7,726	231,840	110,886
178,881	-7,562	231,748	110,960
179,896	-7,526	231,602	110,909
180,910	-7,621	231,291	110,675
181,925	-7,570	231,211	110,667
182,940	-7,442	231,111	110,710
183,954	-7,502	231,028	110,613
184,969	-7,419	230,850	110,583
185,983	-7,383	230,718	110,538
186,998	-7,379	230,488	110,421
188,013	-7,519	230,401	110,260
189,027	-7,430	230,117	110,184
190,042	-7,468	230,036	110,106
191,056	-7,534	229,895	109,977
192,071	-7,462	229,736	109,948
193,086	-7,539	229,680	109,851
194,100	-7,512	229,565	109,807
195,115	-7,375	229,184	109,721
196,129	-7,378	228,952	109,598
197,144	-3,437	230,492	113,395
198,159	1,626	231,975	118,073
199,173	3,448	232,453	119,731
200,188	3,343	232,330	119,574
201,202	3,629	232,141	119,690
202,217	3,761	232,059	119,739
203,232	3,960	231,917	119,810
204,246	4,178	231,774	119,896
205,261	3,998	231,705	119,709
206,275	4,264	231,598	119,849
207,290	4,346	231,477	119,840
208,304	4,244	231,363	119,692
209,319	4,189	231,081	119,492
210,334	4,156	230,882	119,353
211,348	4,042	230,565	119,090
212,363	3,757	230,241	118,692
213,377	3,328	230,209	118,334
214,392	3,713	230,017	118,522
215,407	3,429	229,972	118,269
216,421	3,705	229,734	118,349
217,436	3,553	229,582	118,143
218,450	3,428	229,261	117,871
219,465	3,043	229,219	117,542
220,480	3,319	229,038	117,651
221,494	3,371	228,880	117,599
222,509	3,561	228,837	117,713
223,523	3,486	228,719	117,584
224,538	3,438	228,567	117,459
225,553	3,356	228,380	117,289
226,567	3,556	228,239	117,359
227,582	3,676	228,266	117,454
228,596	3,763	228,138	117,445
229,611	3,441	227,902	117,067
230,626	3,065	227,657	116,644
231,640	3,108	227,535	116,603
232,655	3,653	227,421	116,950
233,669	4,191	227,419	117,349
234,684	4,207	227,261	117,268
235,699	3,957	227,214	117,044
236,713	3,763	226,697	116,620
237,728	3,523	226,777	116,468
238,742	3,144	226,511	116,034
239,757	3,434	226,281	116,126
240,772	3,200	226,100	115,844
241,786	3,348	225,979	115,884
242,801	3,391	225,985	115,910
243,815	3,746	225,927	116,139
244,830	3,838	225,709	116,086
245,844	3,629	225,597	115,859
246,859	3,707	225,220	115,714
247,874	3,625	225,179	115,621
248,888	3,835	225,015	115,685
249,903	3,755	224,881	115,546
250,917	3,549	224,721	115,298
251,932	3,441	224,637	115,163
252,947	3,530	224,332	115,064
253,961	3,318	224,204	114,829
254,976	3,480	224,077	114,875
255,990	3,792	224,030	115,074
257,005	3,677	223,950	114,937
258,020	3,522	223,949	114,810
259,034	4,008	223,712	115,041
260,049	4,048	223,421	114,912
261,063	3,752	223,366	114,653
262,078	3,866	223,278	114,682
263,093	3,840	223,181	114,603
264,107	3,918	222,993	114,553
265,122	3,926	222,690	114,394
266,136	4,070	222,770	114,532
267,151	3,997	222,472	114,314
268,166	3,663	222,246	113,940
269,180	3,278	222,138	113,589
270,195	3,332	221,882	113,487
271,209	3,439	221,812	113,521
272,224	3,504	221,688	113,495
273,239	3,719	221,524	113,561
274,253	3,248	221,582	113,231
275,268	3,434	221,070	113,097
276,282	3,250	221,108	112,971
277,297	2,935	220,936	112,641
278,312	3,161	220,719	112,686
279,326	3,354	220,716	112,817
280,341	3,721	220,567	113,001
281,355	3,491	220,550	112,813
282,370	3,530	220,270	112,688
283,384	3,228	220,088	112,363
284,399	3,109	219,909	112,175
285,414	3,294	219,786	112,237
286,428	3,317	219,682	112,191
287,443	3,568	219,687	112,367
288,457	3,551	219,547	112,274
289,472	3,181	219,425	111,930
290,487	2,999	219,030	111,587
291,501	3,078	218,799	111,516
292,516	2,944	218,726	111,371
293,530	3,253	218,651	111,549
294,545	3,188	218,557	111,443
295,560	3,418	218,491	111,567
296,574	3,430	218,267	111,451
297,589	3,351	218,213	111,356
298,603	3,513	217,963	111,336
299,618	3,600	217,981	111,399
300,633	3,549	217,827	111,273
301,647	3,599	217,774	111,273
302,662	3,916	217,580	111,393
303,676	3,691	217,366	111,111
304,691	3,775	217,294	111,125
305,706	3,833	217,163	111,090
306,720	3,780	216,994	110,955
307,735	3,569	216,727	110,657
308,749	3,322	216,604	110,406
309,764	3,397	216,612	110,454
310,779	3,530	216,626	110,548
311,793	3,566	216,399	110,447
312,808	3,461	216,253	110,288
313,822	3,753	216,023	110,370
314,837	3,466	215,881	110,082
315,852	3,538	215,697	110,030
316,866	3,476	215,568	109,910
317,881	3,808	215,430	110,068
318,895	3,659	215,368	109,919
319,910	3,505	215,015	109,619
320,925	3,254	214,844	109,343
321,939	3,032	214,619	109,061
322,954	3,043	214,622	109,059
323,968	3,567	214,749	109,489
324,983	3,665	214,583	109,464
325,997	3,772	214,533	109,506
327,012	3,548	214,280	109,207
328,027	3,537	214,057	109,075
329,041	3,788	214,013	109,222
330,056	3,856	213,973	109,241
331,070	3,519	213,735	108,870
332,085	3,484	213,363	108,646
333,100	3,464	213,280	108,579
334,114	3,555	213,208	108,598
335,129	3,543	213,081	108,515
336,143	3,400	212,830	108,276
337,158	3,211	212,771	108,103
338,173	3,397	212,762	108,220
339,187	3,323	212,597	108,074
340,202	3,343	212,305	107,930
341,216	3,285	212,200	107,827
342,231	3,581	211,987	107,917
343,246	3,172	211,947	107,599
344,260	3,559	211,795	107,785
345,275	3,657	211,634	107,762
346,289	3,880	211,603	107,893
347,304	3,673	211,543	107,707
348,319	3,509	211,400	107,510
349,333	3,489	211,198	107,383
350,348	3,484	211,200	107,372
351,362	3,653	210,994	107,375
352,377	3,707	210,890	107,351
353,392	3,551	210,781	107,177
354,406	3,581	210,520	107,056
355,421	195,298	1341,275	1426,976
356,435	155,966	1479,071	1427,020
