DTS Sentinel unit serial number:	SN410029Multiplexer serial number:	ORYXHardware model number:	OX2-SRSoftware version number:	ORYX F/W v4,00 Oryx Data Collector v3.7.2.0data status	okinstallation	B6 Nyhavnadifferential loss correction	single-endedforward channel	channel 2reverse channel	N/Adate	2023/12/10time	04:00:08forward acquisition time	300,00reverse acquisition time	0,00gamma	499,1914k internal	0,3125k external	0,3125temperature offset calibration	1,0000default loss term (dB/km)	0,3820temperature slope calibration	1,0000multiplexer offset coefficient	1,0000multiplexer slope coefficient	1,0000fibre end	0,00T internal ref (°C)	22,10T ext. ref 1 (°C)	6,08T ext. ref 2 (°C)	6,06length (m)	temperature (°C)	Stokes	anti-Stokes-744,400	-85,264	0,064	-0,015
-743,385	137,257	-0,126	0,123
-742,371	278,325	0,069	0,092
-741,356	447,273	-0,158	0,260
-740,342	293,908	0,113	-0,155
-739,327	32,490	-0,305	0,196
-738,312	97,576	0,126	-0,108
-737,298	-39,420	-0,231	0,090
-736,283	243,333	0,102	-0,127
-735,269	-106,200	-0,248	0,041
-734,254	32,453	-0,048	-0,031
-733,239	-146,048	-0,387	-0,025
-732,225	-200,000	-0,008	0,057
-731,210	-72,388	-0,049	-0,014
-730,196	20,924	-0,030	-0,018
-729,181	-200,000	0,012	0,045
-728,167	-200,000	-0,006	0,081
-727,152	85,146	0,026	0,021
-726,137	800,000	-0,025	0,079
-725,123	114,873	0,040	-0,037
-724,108	74,108	-0,090	0,070
-723,094	640,823	-0,088	-0,168
-722,079	374,200	0,043	-0,065
-721,064	-67,603	0,054	0,016
-720,050	233,386	-0,077	0,094
-719,035	44,265	-0,042	0,028
-718,021	144,456	-0,135	-0,134
-717,006	-68,717	-0,224	-0,064
-715,991	-200,000	0,011	-0,141
-714,977	-155,818	-0,083	0,004
-713,962	-122,223	-0,086	0,010
-712,948	-74,390	-0,094	0,025
-711,933	-64,467	0,044	-0,013
-710,918	243,377	-0,087	-0,109
-709,904	70,620	-0,075	-0,058
-708,889	-200,000	-0,019	-0,199
-707,875	-200,000	-0,010	-0,197
-706,860	-74,069	0,008	0,002
-705,845	-200,000	0,025	0,110
-704,831	-200,000	0,043	0,208
-703,816	-200,000	-0,000	-0,060
-702,802	583,660	-0,048	0,088
-701,787	-83,532	-0,171	0,040
-700,772	415,155	-0,042	-0,067
-699,758	-86,482	-0,169	-0,038
-698,743	-26,458	-0,072	-0,031
-697,729	277,680	-0,026	-0,035
-696,714	78,000	-0,082	-0,065
-695,699	-18,987	-0,089	-0,041
-694,685	655,376	0,028	0,053
-693,670	-5,525	0,077	-0,039
-692,656	30,531	-0,045	0,029
-691,641	-152,012	0,094	-0,005
-690,627	-100,128	-0,123	-0,022
-689,612	45,051	-0,096	0,066
-688,597	249,970	-0,046	-0,059
-687,583	-200,000	-0,040	-0,145
-686,568	-200,000	-0,021	-0,095
-685,554	251,053	0,027	-0,034
-684,539	800,000	-0,046	0,118
-683,524	635,837	-0,043	0,082
-682,510	56,279	0,066	0,048
-681,495	-200,000	-0,009	-0,046
-680,481	-200,000	0,023	0,129
-679,466	-200,000	-0,007	-0,112
-678,451	-139,400	-0,091	0,007
-677,437	-200,000	-0,011	0,068
-676,422	-18,460	0,146	0,068
-675,408	4,522	0,063	-0,034
-674,393	106,947	-0,041	-0,036
-673,378	-22,491	-0,112	-0,050
-672,364	-200,000	0,007	-0,054
-671,349	800,000	0,107	-0,313
-670,335	-70,952	0,079	-0,022
-669,320	-200,000	0,032	0,151
-668,305	157,268	0,024	0,025
-667,291	46,089	-0,113	0,078
-666,276	-92,304	-0,032	-0,007
-665,262	-200,000	-0,057	-0,193
-664,247	800,000	0,054	-0,172
-663,232	576,288	0,034	0,061
-662,218	474,243	-0,051	-0,086
-661,203	211,719	0,026	-0,031
-660,189	-200,000	0,019	-0,093
-659,174	-200,000	0,021	-0,114
-658,159	-200,000	-0,012	-0,124
-657,145	245,354	-0,030	-0,037
-656,130	-200,000	-0,019	-0,073
-655,116	256,396	-0,060	-0,077
-654,101	-71,849	0,049	0,014
-653,086	-148,344	-0,036	0,002
-652,072	-200,000	-0,024	-0,107
-651,057	194,248	0,078	-0,088
-650,043	78,813	0,076	-0,060
-649,028	-125,130	0,013	0,001
-648,014	-22,341	0,133	0,060
-646,999	10,366	-0,080	0,045
-645,984	98,724	0,021	-0,018
-644,970	-200,000	-0,005	-0,143
-643,955	521,466	0,035	-0,061
-642,941	800,000	0,028	-0,080
-641,926	-200,000	0,002	-0,021
-640,911	708,454	0,068	-0,134
-639,897	-200,000	0,025	-0,157
-638,882	-34,622	-0,060	0,024
-637,868	-200,000	-0,014	0,049
-636,853	-200,000	0,030	-0,171
-635,838	-200,000	0,005	-0,032
-634,824	-129,578	0,110	0,011
-633,809	97,515	0,062	-0,053
-632,795	220,056	-0,087	-0,103
-631,780	22,686	-0,104	-0,063
-630,765	-200,000	0,010	0,065
-629,751	56,172	-0,058	0,042
-628,736	512,717	-0,087	-0,151
-627,722	2,007	0,184	0,098
-626,707	-121,540	0,052	-0,006
-625,692	-11,699	0,162	0,079
-624,678	-148,090	0,057	0,003
-623,663	-200,000	-0,031	-0,101
-622,649	737,055	-0,023	-0,046
-621,634	-29,455	-0,139	-0,059
-620,619	-112,196	0,063	0,009
-619,605	-55,936	-0,056	-0,018
-618,590	-41,675	-0,093	0,035
-617,576	100,780	0,046	0,039
-616,561	800,000	-0,034	-0,099
-615,546	-200,000	0,005	-0,052
-614,532	-200,000	-0,037	-0,172
-613,517	-200,000	0,035	0,127
-612,503	67,087	-0,076	-0,057
-611,488	800,000	-0,061	-0,146
-610,474	160,169	0,066	-0,068
-609,459	800,000	-0,026	0,062
-608,444	484,254	-0,068	-0,114
-607,430	-200,000	-0,155	0,000
-606,415	338,273	-0,044	-0,063
-605,401	84,818	-0,106	-0,086
-604,386	763,821	-0,048	-0,096
-603,371	213,842	0,119	-0,140
-602,357	-16,830	0,126	-0,059
-601,342	-93,742	-0,015	0,003
-600,328	-95,828	-0,118	0,023
-599,313	-183,067	0,058	0,001
-598,298	50,436	-0,052	-0,036
-597,284	-200,000	-0,014	-0,130
-596,269	800,000	-0,018	0,056
-595,255	800,000	0,048	0,099
-594,240	-200,000	-0,008	0,030
-593,225	-94,087	-0,063	0,013
-592,211	208,855	-0,047	-0,054
-591,196	-93,241	0,095	-0,019
-590,182	-123,781	-0,018	0,002
-589,167	-200,000	0,019	0,091
-588,152	-80,904	-0,049	-0,012
-587,138	186,509	-0,083	0,091
-586,123	-60,719	-0,015	-0,005
-585,109	61,937	0,119	-0,087
-584,094	-200,000	0,019	-0,120
-583,079	-200,000	0,003	0,034
-582,065	-74,288	0,081	0,021
-581,050	800,000	0,038	0,078
-580,036	800,000	-0,048	0,131
-579,021	800,000	-0,046	-0,109
-578,006	-28,844	-0,099	-0,042
-576,992	-200,000	0,019	-0,086
-575,977	-200,000	-0,036	-0,138
-574,963	-51,787	-0,077	0,027
-573,948	-37,436	0,059	-0,023
-572,934	-64,945	0,007	0,002
-571,919	280,181	-0,045	-0,060
-570,904	-124,349	-0,044	-0,005
-569,890	96,949	-0,070	0,059
-568,875	800,000	0,022	-0,054
-567,861	73,434	0,073	-0,057
-566,846	800,000	0,060	0,167
-565,831	236,405	-0,025	0,031
-564,817	-200,000	0,012	-0,048
-563,802	259,290	-0,050	-0,064
-562,788	-62,894	-0,088	-0,027
-561,773	-200,000	0,001	-0,014
-560,758	166,793	0,074	0,078
-559,744	-36,218	-0,090	0,036
-558,729	-200,000	-0,004	-0,168
-557,715	62,706	0,007	-0,005
-556,700	321,414	-0,052	0,074
-555,685	111,114	0,080	0,071
-554,671	-200,000	-0,044	0,000
-553,656	235,029	-0,022	-0,027
-552,642	-116,984	0,121	-0,016
-551,627	-16,786	-0,041	0,019
-550,612	-144,162	-0,029	-0,002
-549,598	113,410	0,109	0,098
-548,583	-200,000	-0,010	-0,068
-547,569	-200,000	0,006	0,089
-546,554	-184,067	-0,097	0,001
-545,539	-200,000	0,002	-0,058
-544,525	-49,699	-0,109	-0,038
-543,510	800,000	0,015	-0,042
-542,496	-53,718	0,035	0,012
-541,481	136,590	-0,085	0,082
-540,466	-200,000	-0,014	0,056
-539,452	-200,000	0,028	0,097
-538,437	701,424	-0,041	-0,079
-537,423	-176,537	-0,106	-0,002
-536,408	-15,614	-0,044	0,021
-535,393	55,665	-0,099	-0,070
-534,379	800,000	-0,027	-0,065
-533,364	-189,968	0,056	-0,000
-532,350	-42,489	-0,063	0,024
-531,335	125,817	0,077	0,072
-530,321	48,757	0,063	0,043
-529,306	-156,380	0,088	0,004
-528,291	602,201	0,088	-0,163
-527,277	103,163	-0,024	0,021
-526,262	-200,000	0,008	-0,027
-525,248	83,581	0,146	0,117
-524,233	175,480	-0,067	0,071
-523,218	-200,000	0,023	0,095
-522,204	-76,939	0,088	0,023
-521,189	-83,135	-0,193	-0,046
-520,175	-76,537	0,033	0,008
-519,160	-79,174	0,130	0,032
-518,145	-22,736	-0,064	-0,028
-517,131	421,308	0,060	-0,095
-516,116	800,000	0,081	0,185
-515,102	86,258	-0,071	0,058
-514,087	66,983	-0,083	0,062
-513,072	170,400	0,136	-0,144
-512,058	-200,000	0,007	-0,064
-511,043	-17,128	0,084	0,039
-510,029	-56,897	0,019	0,006
-509,014	21,367	-0,134	-0,080
-507,999	542,253	0,012	0,020
-506,985	-50,336	-0,113	-0,039
-505,970	192,672	-0,079	0,088
-504,956	62,450	0,058	0,043
-503,941	-170,566	0,039	-0,001
-502,926	-200,000	-0,019	0,098
-501,912	74,844	-0,160	0,124
-500,897	332,675	0,145	0,207
-499,883	48,236	0,046	0,032
-498,868	17,966	-0,081	-0,048
-497,853	265,722	0,025	-0,033
-496,839	-200,000	0,042	0,144
-495,824	61,559	0,186	0,137
-494,810	-94,642	0,082	0,016
-493,795	-200,000	-0,010	0,037
-492,781	-36,447	-0,058	-0,023
-491,766	-64,795	-0,104	-0,031
-490,751	107,457	-0,124	0,109
-489,737	200,559	-0,068	-0,077
-488,722	800,000	0,041	-0,095
-487,708	256,436	-0,034	0,043
-486,693	-200,000	0,023	0,238
-485,678	-130,429	-0,156	0,015
-484,664	800,000	-0,047	-0,104
-483,649	-200,000	-0,024	-0,115
-482,635	46,502	0,045	0,030
-481,620	-9,121	-0,147	-0,072
-480,605	495,498	0,039	-0,067
-479,591	403,291	-0,070	0,109
-478,576	-106,712	0,060	0,010
-477,562	-67,021	-0,076	0,022
-476,547	-200,000	-0,007	-0,140
-475,532	-125,434	0,110	-0,012
-474,518	414,347	0,021	-0,033
-473,503	-200,000	0,009	0,101
-472,489	630,932	-0,046	0,086
-471,474	161,007	0,048	-0,050
-470,459	-148,943	-0,104	-0,006
-469,445	150,180	-0,100	-0,101
-468,430	-15,689	-0,105	0,049
-467,416	164,790	-0,086	0,089
-466,401	-200,000	-0,022	0,118
-465,386	94,009	0,106	0,089
-464,372	279,598	-0,085	-0,113
-463,357	9,659	0,104	-0,058
-462,343	800,000	-0,010	-0,023
-461,328	184,036	-0,012	0,013
-460,313	205,924	0,091	0,104
-459,299	-200,000	0,013	-0,124
-458,284	-200,000	-0,009	-0,035
-457,270	-74,696	0,149	0,039
-456,255	56,202	-0,074	-0,053
-455,241	-50,844	-0,023	-0,008
-454,226	-62,418	-0,091	0,028
-453,211	800,000	0,026	-0,057
-452,197	-61,838	-0,137	-0,042
-451,182	64,414	-0,064	0,047
-450,168	-200,000	0,037	0,163
-449,153	265,268	-0,003	-0,004
-448,138	22,512	-0,095	-0,057
-447,124	-78,370	-0,083	0,021
-446,109	-90,353	0,063	0,013
-445,095	-200,000	-0,004	0,066
-444,080	160,019	0,089	0,092
-443,065	-133,305	0,093	-0,009
-442,051	-146,954	-0,148	-0,009
-441,036	301,243	0,022	0,029
-440,022	-200,000	-0,009	-0,037
-439,007	3,363	0,049	0,026
-437,992	16,451	0,275	0,160
-436,978	-200,000	0,011	0,052
-435,963	-200,000	-0,015	0,048
-434,949	-53,946	-0,061	-0,020
-433,934	644,542	-0,039	0,073
-432,919	235,113	0,037	0,044
-431,905	-200,000	0,008	0,125
-430,890	-200,000	0,048	0,156
-429,876	-47,789	0,051	-0,018
-428,861	800,000	0,008	0,020
-427,846	-49,050	0,046	0,016
-426,832	800,000	-0,044	0,106
-425,817	-164,796	0,139	0,005
-424,803	1,577	0,084	0,044
-423,788	-138,979	-0,099	0,008
-422,773	-160,051	0,102	-0,004
-421,759	-41,596	0,030	0,011
-420,744	243,842	0,024	-0,029
-419,730	399,475	0,023	-0,036
-418,715	69,975	-0,114	-0,086
-417,701	-200,000	0,009	-0,041
-416,686	276,296	0,033	-0,043
-415,671	800,000	-0,033	0,079
-414,657	48,866	-0,070	0,048
-413,642	-200,000	0,015	0,095
-412,628	380,688	0,014	0,021
-411,613	-200,000	-0,001	-0,225
-410,598	-179,182	-0,080	0,001
-409,584	-78,581	-0,077	0,019
-408,569	77,581	0,091	0,071
-407,555	-200,000	0,001	-0,057
-406,540	-184,349	0,146	0,002
-405,525	-84,937	-0,073	-0,017
-404,511	-68,101	0,060	-0,017
-403,496	217,757	-0,055	-0,065
-402,482	-26,899	0,183	0,078
-401,467	257,165	0,059	0,075
-400,452	123,127	0,084	0,077
-399,438	523,788	-0,066	0,114
-398,423	262,690	-0,162	0,207
-397,409	266,073	-0,066	-0,085
-396,394	8,632	0,089	-0,049
-395,379	-74,080	0,021	-0,006
-394,365	-11,119	0,040	0,019
-393,350	-50,025	0,064	-0,022
-392,336	374,834	-0,060	-0,091
-391,321	192,067	0,154	0,171
-390,306	190,031	-0,020	0,022
-389,292	-200,000	-0,031	-0,193
-388,277	-2,667	0,071	0,037
-387,263	-127,107	0,064	0,007
-386,248	800,000	0,034	0,098
-385,233	-200,000	0,016	0,158
-384,219	59,760	-0,018	0,013
-383,204	118,659	-0,008	0,007
-382,190	38,447	0,093	0,061
-381,175	800,000	-0,048	0,134
-380,160	94,482	-0,142	0,119
-379,146	165,708	0,082	0,086
-378,131	-57,398	0,034	-0,011
-377,117	-82,904	-0,068	-0,016
-376,102	151,947	-0,091	-0,091
-375,088	800,000	-0,024	0,051
-374,073	53,818	-0,020	0,014
-373,058	394,663	0,016	-0,025
-372,044	-200,000	0,017	0,121
-371,029	800,000	-0,052	0,160
-370,015	63,612	-0,168	0,123
-369,000	-200,000	-0,023	0,137
-367,985	-97,313	-0,084	-0,016
-366,971	637,428	0,033	0,061
-365,956	-58,326	0,061	-0,019
-364,942	800,000	0,030	0,066
-363,927	800,000	-0,021	-0,059
-362,912	-129,258	-0,080	-0,008
-361,898	294,304	-0,079	0,107
-360,883	-200,000	-0,028	-0,208
-359,869	-200,000	0,055	-0,211
-358,854	-161,069	0,131	0,005
-357,839	43,692	-0,114	0,076
-356,825	-33,556	0,065	-0,026
-355,810	-104,826	0,175	-0,029
-354,796	800,000	-0,029	0,088
-353,781	99,443	0,128	-0,108
-352,766	-200,000	0,011	0,039
-351,752	203,855	0,016	0,018
-350,737	2,168	0,144	-0,076
-349,723	19,070	0,101	-0,059
-348,708	-45,214	0,047	0,017
-347,693	445,286	0,055	-0,089
-346,679	689,618	-0,008	0,015
-345,664	-200,000	0,018	0,106
-344,650	602,356	0,022	-0,041
-343,635	215,535	0,071	-0,082
-342,620	186,224	0,027	0,030
-341,606	174,902	0,066	0,070
-340,591	-141,609	-0,134	-0,010
-339,577	800,000	0,043	-0,104
-338,562	800,000	-0,047	-0,123
-337,548	800,000	-0,027	-0,082
-336,533	-200,000	-0,021	0,083
-335,518	-200,000	-0,036	0,127
-334,504	249,252	-0,047	0,058
-333,489	-200,000	0,013	0,046
-332,475	-61,088	0,006	0,002
-331,460	-200,000	-0,028	-0,151
-330,445	-129,016	0,076	-0,008
-329,431	84,266	0,046	0,037
-328,416	-42,282	0,031	-0,011
-327,402	-200,000	-0,026	0,112
-326,387	41,968	-0,067	0,045
-325,372	14,204	-0,081	-0,046
-324,358	-22,406	0,096	0,042
-323,343	102,158	-0,053	0,045
-322,329	-64,752	0,098	0,029
-321,314	-200,000	0,017	0,134
-320,299	234,033	0,027	0,033
-319,285	234,735	0,037	-0,044
-318,270	15,427	0,088	0,051
-317,256	112,444	-0,022	0,019
-316,241	143,032	-0,103	-0,101
-315,226	513,981	0,036	0,061
-314,212	-4,963	0,116	0,058
-313,197	-200,000	-0,015	0,111
-312,183	-200,000	0,007	-0,096
-311,168	61,492	0,102	-0,074
-310,153	198,842	-0,071	0,079
-309,139	68,525	-0,115	0,086
-308,124	405,841	0,018	-0,028
-307,110	460,039	-0,057	0,093
-306,095	596,120	0,088	0,159
-305,080	302,860	-0,080	-0,109
-304,066	117,288	0,035	0,032
-303,051	17,643	0,086	0,050
-302,037	-200,000	0,018	-0,167
-301,022	-200,000	-0,010	-0,103
-300,008	-78,481	0,083	-0,021
-298,993	800,000	0,018	0,048
-297,978	-200,000	0,006	-0,054
-296,964	-200,000	-0,002	-0,131
-295,949	800,000	-0,041	0,122
-294,935	-98,326	-0,023	-0,004
-293,920	-200,000	0,020	-0,140
-292,905	439,966	0,090	0,145
-291,891	-60,372	0,042	-0,013
-290,876	800,000	-0,018	-0,038
-289,862	199,604	-0,055	-0,061
-288,847	730,411	-0,061	-0,120
-287,832	280,552	-0,030	-0,039
-286,818	-76,425	-0,050	-0,013
-285,803	-200,000	0,026	0,146
-284,789	-53,267	0,011	0,004
-283,774	-139,624	-0,061	-0,005
-282,759	-6,195	0,121	0,060
-281,745	800,000	0,023	0,048
-280,730	56,395	-0,043	0,031
-279,716	-172,383	-0,075	0,002
-278,701	-126,425	-0,081	-0,009
-277,686	-200,000	0,002	0,091
-276,672	96,409	-0,118	-0,099
-275,657	228,143	0,039	0,046
-274,643	35,771	-0,044	-0,028
-273,628	-103,656	0,018	0,003
-272,613	-200,000	0,016	-0,137
-271,599	-200,000	0,039	-0,136
-270,584	-107,330	0,100	0,016
-269,570	-200,000	0,003	-0,020
-268,555	-200,000	-0,046	0,186
-267,540	-200,000	0,020	-0,176
-266,526	647,702	0,014	-0,026
-265,511	104,625	-0,085	0,073
-264,497	11,854	-0,068	-0,038
-263,482	269,266	0,024	-0,031
-262,467	800,000	0,039	0,082
-261,453	800,000	-0,034	0,077
-260,438	-71,475	-0,061	0,017
-259,424	-200,000	-0,011	0,067
-258,409	-200,000	-0,003	-0,016
-257,395	702,217	0,029	0,055
-256,380	689,106	0,064	-0,122
-255,365	316,352	0,050	0,069
-254,351	146,386	-0,152	0,149
-253,336	-200,000	-0,021	0,109
-252,322	-16,168	-0,043	0,020
-251,307	427,478	-0,099	-0,156
-250,292	-172,890	-0,098	-0,002
-249,278	264,568	0,078	0,100
-248,263	454,633	0,079	0,129
-247,249	177,229	0,061	-0,065
-246,234	-74,701	0,121	0,032
-245,219	-200,000	0,020	-0,077
-244,205	77,104	0,128	-0,099
-243,190	39,038	-0,054	-0,035
-242,176	-116,338	0,071	-0,010
-241,161	428,737	0,079	0,125
-240,146	393,781	0,059	-0,090
-239,132	798,411	0,027	-0,056
-238,117	665,836	-0,057	0,108
-237,103	674,984	-0,060	-0,113
-236,088	800,000	0,023	0,073
-235,073	-54,911	-0,077	-0,025
-234,059	305,061	0,004	0,005
-233,044	-200,000	-0,000	-0,036
-232,030	-200,000	-0,030	-0,124
-231,015	-104,724	-0,075	-0,012
-230,000	31,724	-0,059	-0,037
-228,986	-200,000	-0,014	0,047
-227,971	158,550	-0,027	-0,028
-226,957	-59,342	0,144	-0,045
-225,942	-65,048	0,114	-0,033
-224,927	-24,395	-0,110	0,048
-223,913	118,496	-0,091	-0,082
-222,898	90,323	-0,134	0,110
-221,884	800,000	-0,043	-0,103
-220,869	-106,288	0,064	-0,010
-219,855	-200,000	-0,024	-0,157
-218,840	800,000	-0,029	0,072
-217,825	180,951	0,135	0,145
-216,811	800,000	-0,074	-0,175
-215,796	-183,465	-0,156	0,002
-214,782	-78,582	-0,072	0,018
-213,767	445,151	0,111	-0,178
-212,752	755,050	0,055	-0,109
-211,738	-191,665	0,110	-0,001
-210,723	800,000	0,015	-0,034
-209,709	-200,000	0,004	-0,031
-208,694	-159,509	0,028	-0,001
-207,679	143,628	-0,111	-0,107
-206,665	800,000	0,072	0,171
-205,650	-9,887	0,055	0,027
-204,636	-48,404	-0,054	0,019
-203,621	800,000	-0,068	-0,158
-202,606	93,999	0,097	-0,081
-201,592	800,000	-0,048	-0,112
-200,577	-97,713	-0,166	-0,031
-199,563	212,800	0,053	0,061
-198,548	259,648	0,122	0,154
-197,533	-15,919	-0,182	0,084
-196,519	574,974	0,020	-0,036
-195,504	-128,261	-0,141	-0,014
-194,490	-200,000	-0,004	-0,107
-193,475	800,000	-0,030	-0,070
-192,460	-200,000	-0,002	-0,024
-191,446	-200,000	-0,001	0,032
-190,431	132,957	-0,069	0,065
-189,417	32,828	0,149	0,094
-188,402	156,551	0,055	-0,055
-187,387	353,604	-0,063	-0,092
-186,373	-200,000	0,015	-0,063
-185,358	-200,000	-0,027	-0,090
-184,344	-200,000	-0,013	-0,097
-183,329	-200,000	0,031	0,000
-182,315	800,000	0,026	0,073
-181,300	0,370	-0,037	-0,019
-180,285	36,405	0,022	-0,014
-179,271	800,000	-0,057	-0,128
-178,256	317,176	-0,090	-0,124
-177,242	-78,809	0,022	-0,006
-176,227	-12,521	0,074	0,035
-175,212	137,791	0,009	0,008
-174,198	-200,000	-0,024	-0,120
-173,183	202,881	-0,127	-0,143
-172,169	196,448	-0,014	-0,016
-171,154	-200,000	-0,014	0,075
-170,139	193,511	0,040	-0,045
-169,125	101,196	0,131	0,111
-168,110	-109,705	0,077	-0,012
-167,096	-154,433	0,006	0,000
-166,081	-200,000	-0,007	0,043
-165,066	800,000	-0,010	0,024
-164,052	-200,000	-0,002	-0,152
-163,037	174,515	0,039	-0,041
-162,023	254,186	0,053	0,066
-161,008	800,000	0,017	0,038
-159,993	263,325	0,025	0,031
-158,979	-200,000	-0,008	0,080
-157,964	354,329	-0,037	0,054
-156,950	800,000	0,035	-0,095
-155,935	-127,768	0,108	0,011
-154,920	-36,290	-0,009	0,003
-153,906	800,000	-0,033	0,105
-152,891	-102,799	0,064	-0,011
-151,877	611,778	0,011	-0,019
-150,862	-107,526	0,116	-0,018
-149,847	-65,163	0,119	-0,035
-148,833	389,481	-0,064	0,096
-147,818	320,663	-0,022	-0,030
-146,804	142,523	-0,090	0,087
-145,789	476,417	-0,036	0,059
-144,775	47,335	0,077	-0,052
-143,760	358,892	0,013	-0,019
-142,745	37,923	-0,081	-0,052
-141,731	-200,000	0,019	0,060
-140,716	-159,335	0,124	0,005
-139,702	-200,000	0,006	0,082
-138,687	-65,007	-0,035	0,010
-137,672	-200,000	0,007	0,091
-136,658	22,143	0,022	-0,013
-135,643	36,656	-0,133	-0,085
-134,629	57,212	-0,168	-0,119
-133,614	386,807	-0,024	-0,036
-132,599	315,714	-0,077	0,106
-131,585	-71,871	-0,051	-0,014
-130,570	-189,993	-0,039	0,000
-129,556	63,530	-0,025	0,018
-128,541	-57,939	-0,053	0,017
-127,526	87,482	-0,057	-0,046
-126,512	202,447	0,074	-0,083
-125,497	-101,865	0,150	0,026
-124,483	376,347	-0,072	-0,107
-123,468	61,366	-0,038	-0,027
-122,453	376,996	0,045	0,066
-121,439	329,720	0,063	-0,088
-120,424	-2,131	0,011	-0,006
-119,410	246,950	-0,082	0,100
-118,395	-42,077	0,029	0,011
-117,380	-200,000	0,010	0,131
-116,366	512,943	0,047	0,080
-115,351	-141,131	-0,173	-0,013
-114,337	70,619	0,072	0,054
-113,322	-87,071	-0,106	-0,023
-112,307	-83,544	-0,158	0,036
-111,293	-200,000	-0,042	0,135
-110,278	130,269	0,070	0,065
-109,264	800,000	0,024	0,072
-108,249	-51,779	0,093	0,031
-107,234	-131,755	-0,074	-0,007
-106,220	697,624	-0,004	0,008
-105,205	-179,258	0,170	0,003
-104,191	-93,289	0,047	0,009
-103,176	-200,000	0,005	-0,037
-102,162	-200,000	0,018	0,114
-101,147	-115,501	-0,084	0,011
-100,132	-200,000	0,007	0,120
-99,118	-89,414	0,153	0,032
-98,103	53,002	0,115	0,080
-97,089	-200,000	-0,026	0,089
-96,074	-200,000	0,040	0,249
-95,059	585,447	-0,057	0,102
-94,045	51,824	0,027	-0,019
-93,030	800,000	0,014	0,037
-92,016	0,786	-0,098	0,051
-91,001	291,675	0,088	0,117
-89,986	-200,000	0,013	0,088
-88,972	-200,000	0,000	0,061
-87,957	-125,611	-0,179	0,019
-86,943	-200,000	-0,002	-0,017
-85,928	800,000	-0,048	0,100
-84,913	23,824	0,106	-0,064
-83,899	-200,000	-0,014	-0,073
-82,884	31,658	0,156	0,097
-81,870	62,752	-0,036	0,026
-80,855	13,258	0,073	0,041
-79,840	800,000	-0,057	0,179
-78,826	800,000	0,030	-0,065
-77,811	-105,718	-0,164	-0,027
-76,797	-64,104	-0,081	0,024
-75,782	-41,816	-0,085	-0,031
-74,767	179,326	0,031	0,033
-73,753	226,697	-0,027	-0,032
-72,738	569,003	0,100	0,177
-71,724	71,097	-0,173	-0,130
-70,709	318,602	-0,054	-0,074
-69,694	4,650	0,060	-0,032
-68,680	-139,950	-0,037	0,003
-67,665	-200,000	0,026	0,118
-66,651	-104,789	0,074	-0,012
-65,636	-126,899	-0,055	0,006
-64,622	-200,000	-0,038	0,190
-63,607	-200,000	-0,013	0,044
-62,592	-200,000	0,027	0,134
-61,578	75,766	0,026	-0,020
-60,563	-121,023	0,116	0,014
-59,549	280,409	-0,134	0,174
-58,534	-93,072	-1,313	-0,263
-57,519	800,000	-0,696	-1,448
-56,505	-200,000	-0,966	-4,309
-55,490	-30,559	0,767	-0,314
-54,476	800,000	4,967	11,725
-53,461	-200,000	13,785	252,119
-52,446	-200,000	690,857	2242,992
-51,432	579,898	1622,473	2892,885
-50,417	118,131	1633,678	1460,088
-49,403	72,393	1287,527	971,878
-48,388	37,691	1023,348	657,383
-47,373	24,056	981,278	585,562
-46,359	23,284	970,884	576,808
-45,344	22,379	966,287	571,100
-44,330	22,307	965,044	570,108
-43,315	22,204	963,523	568,852
-42,300	22,149	962,729	568,181
-41,286	22,137	961,592	567,451
-40,271	22,097	960,671	566,754
-39,257	22,103	959,906	566,298
-38,242	22,104	958,871	565,671
-37,227	22,138	957,928	565,202
-36,213	22,020	957,149	564,337
-35,198	22,082	956,227	563,971
-34,184	22,067	955,718	563,601
-33,169	22,067	954,683	562,969
-32,154	22,137	953,750	562,621
-31,140	22,139	952,922	562,116
-30,125	22,167	952,020	561,653
-29,111	22,177	951,157	561,154
-28,096	22,139	950,588	560,673
-27,082	22,159	950,073	560,410
-26,067	22,181	949,177	559,931
-25,052	22,114	948,507	559,299
-24,038	22,147	947,812	558,972
-23,023	22,162	947,261	558,672
-22,009	22,205	946,578	558,384
-20,994	22,187	945,899	557,905
-19,979	22,176	945,351	557,526
-18,965	22,140	944,777	557,051
-17,950	22,147	943,908	556,536
-16,936	22,079	943,329	555,957
-15,921	22,071	942,633	555,500
-14,906	21,978	941,998	554,809
-13,892	22,054	941,325	554,631
-12,877	22,034	940,852	554,266
-11,863	22,017	939,894	553,626
-10,848	22,022	939,590	553,441
-9,833	22,124	939,089	553,446
-8,819	22,109	938,565	553,068
-7,804	22,039	937,791	552,371
-6,790	22,028	937,180	551,952
-5,775	22,051	936,625	551,676
-4,760	22,023	935,989	551,193
-3,746	21,976	935,578	550,779
-2,731	21,905	934,737	550,039
-1,717	21,817	934,032	549,324
-0,702	21,871	933,153	548,957
0,313	21,644	932,589	548,738
1,327	24,772	930,715	557,409
2,342	34,362	795,309	501,821
3,356	32,187	451,616	281,657
4,371	1,338	294,294	152,721
5,386	-3,112	275,182	138,574
6,400	-4,492	269,502	134,419
7,415	-4,692	267,043	132,997
8,429	-4,541	265,999	132,603
9,444	-4,500	264,944	132,103
10,459	-4,506	264,394	131,811
11,473	-4,662	263,828	131,375
12,488	-4,742	263,199	130,978
13,502	-4,934	262,736	130,562
14,517	-4,907	262,299	130,358
15,531	-4,750	261,811	130,246
16,546	-4,567	261,533	130,260
17,561	-4,662	261,024	129,910
18,575	-4,795	260,826	129,680
19,590	-4,827	260,474	129,465
20,604	-4,777	260,273	129,398
21,619	-4,908	259,788	129,028
22,634	-4,707	259,570	129,088
23,648	-4,781	259,288	128,870
24,663	-4,830	258,996	128,671
25,677	-4,924	258,872	128,513
26,692	-4,844	258,488	128,382
27,707	-4,888	258,362	128,269
28,721	-4,962	258,017	128,021
29,736	-4,889	257,815	127,974
30,750	-5,050	257,433	127,630
31,765	-4,841	257,214	127,696
32,780	-4,700	257,081	127,743
33,794	-4,894	256,919	127,479
34,809	-4,990	256,445	127,148
35,823	-5,011	256,345	127,068
36,838	-4,880	255,918	126,961
37,853	-4,863	255,625	126,819
38,867	-4,918	255,444	126,669
39,882	-4,881	255,344	126,641
40,896	-5,036	255,165	126,405
41,911	-4,867	254,907	126,414
42,926	-5,079	254,682	126,105
43,940	-5,118	254,540	125,990
44,955	-5,076	254,338	125,915
45,969	-5,222	254,072	125,645
46,984	-5,288	253,786	125,435
47,999	-5,343	253,537	125,253
49,013	-5,557	253,166	124,872
50,028	-5,528	253,001	124,805
51,042	-5,641	252,711	124,552
52,057	-5,649	252,532	124,446
53,071	-5,699	252,333	124,294
54,086	-5,744	252,303	124,228
55,101	-5,410	252,037	124,375
56,115	-5,250	251,962	124,466
57,130	-4,859	251,750	124,689
58,144	-4,641	251,541	124,763
59,159	-4,696	251,480	124,673
60,174	-4,976	251,337	124,350
61,188	-4,647	251,020	124,465
62,203	-4,756	250,852	124,277
63,217	-4,876	250,648	124,062
64,232	-4,785	250,316	123,964
65,247	-4,673	250,230	124,007
66,261	-4,628	249,755	123,799
67,276	-5,060	249,660	123,371
68,290	-5,235	249,445	123,104
69,305	-5,294	249,219	122,931
70,320	-5,071	249,018	123,011
71,334	-5,102	248,963	122,946
72,349	-4,670	248,784	123,216
73,363	-4,608	248,641	123,187
74,378	-4,927	248,401	122,785
75,393	-4,873	248,002	122,623
76,407	-4,869	247,825	122,528
77,422	-4,978	247,739	122,382
78,436	-4,838	247,581	122,412
79,451	-4,771	247,256	122,297
80,466	-5,058	247,190	122,010
81,480	-5,238	246,858	121,683
82,495	-5,079	246,524	121,642
83,509	-4,906	246,510	121,770
84,524	-4,792	246,262	121,733
85,539	-5,349	246,115	121,180
86,553	-5,278	246,037	121,191
87,568	-5,241	245,722	121,056
88,582	-4,982	245,474	121,141
89,597	-5,083	245,282	120,951
90,611	-5,132	245,364	120,939
91,626	-4,880	245,125	121,022
92,641	-4,923	244,895	120,861
93,655	-5,091	244,769	120,647
94,670	-5,231	244,608	120,440
95,684	-5,028	244,223	120,409
96,699	-4,929	244,040	120,392
97,714	-5,069	243,969	120,228
98,728	-5,136	243,639	119,999
99,743	-5,198	243,403	119,820
100,757	-5,157	243,104	119,697
101,772	-5,255	242,991	119,549
102,787	-4,971	242,847	119,704
103,801	-5,068	242,913	119,645
104,816	-4,889	242,636	119,646
105,830	-4,894	242,487	119,558
106,845	-4,650	242,289	119,652
107,860	-4,812	241,995	119,362
108,874	-4,748	241,871	119,344
109,889	-5,007	241,671	119,020
110,903	-5,039	241,495	118,896
111,918	-5,151	241,457	118,775
112,933	-5,103	241,110	118,633
113,947	-5,102	241,057	118,597
114,962	-4,883	240,909	118,693
115,976	-4,725	240,719	118,720
116,991	-5,022	240,570	118,391
118,006	-5,150	240,425	118,204
119,020	-4,959	240,253	118,266
120,035	-4,821	240,038	118,263
121,049	-4,728	239,936	118,278
122,064	-4,823	239,652	118,050
123,079	-4,899	239,538	117,921
124,093	-5,045	239,467	117,757
125,108	-5,035	239,048	117,548
126,122	-5,246	238,796	117,242
127,137	-5,253	238,719	117,188
128,151	-5,110	238,521	117,197
129,166	-5,237	238,450	117,048
130,181	-5,121	238,212	117,015
131,195	-5,200	238,069	116,870
132,210	-5,037	237,962	116,939
133,224	-4,861	237,655	116,920
134,239	-4,792	237,607	116,942
135,254	-4,784	237,415	116,843
136,268	-5,068	237,220	116,508
137,283	-5,271	237,012	116,231
138,297	-5,339	236,736	116,031
139,312	-5,055	236,471	116,119
140,327	-5,014	236,500	116,156
141,341	-4,598	236,539	116,501
142,356	-4,530	236,268	116,412
143,370	-4,656	236,261	116,296
144,385	-4,564	235,999	116,231
145,400	-4,682	235,788	116,021
146,414	-4,569	235,653	116,036
147,429	-4,670	235,430	115,835
148,443	-4,675	235,220	115,717
149,458	-4,530	235,176	115,801
150,473	-4,658	235,057	115,630
151,487	-4,818	234,773	115,352
152,502	-4,487	234,556	115,499
153,516	-4,641	234,529	115,353
154,531	-4,675	234,331	115,217
155,546	-4,580	233,990	115,115
156,560	-4,788	233,989	114,939
157,575	-4,861	233,699	114,729
158,589	-4,627	233,506	114,809
159,604	-4,442	233,357	114,873
160,619	-4,536	233,261	114,741
161,633	-4,588	233,062	114,591
162,648	-4,632	233,141	114,585
163,662	-4,597	232,870	114,470
164,677	-4,712	232,798	114,333
165,692	-4,502	232,665	114,423
166,706	-4,495	232,442	114,309
167,721	-4,499	232,307	114,230
168,735	-4,605	232,167	114,067
169,750	-4,579	231,795	113,895
170,764	-4,699	231,899	113,841
171,779	-4,591	231,714	113,825
172,794	-4,508	231,558	113,803
173,808	-4,660	231,289	113,541
174,823	-4,939	230,989	113,165
175,837	-5,160	230,858	112,917
176,852	-4,738	230,746	113,183
177,867	-4,450	230,579	113,317
178,881	-4,444	230,448	113,247
179,896	-4,460	230,405	113,203
180,910	-4,450	230,225	113,113
181,925	-4,595	230,095	112,925
182,940	-4,364	229,847	112,974
183,954	-4,467	229,812	112,866
184,969	-4,431	229,575	112,768
185,983	-4,242	229,408	112,823
186,998	-4,291	229,313	112,728
188,013	-4,284	229,105	112,621
189,027	-4,313	229,023	112,548
190,042	-4,480	228,894	112,345
191,056	-4,465	228,749	112,275
192,071	-4,398	228,519	112,204
193,086	-4,369	228,345	112,132
194,100	-4,264	228,133	112,098
195,115	-4,651	227,910	111,680
196,129	-5,083	227,723	111,245
197,144	-3,030	228,382	113,146
198,159	0,510	229,425	116,403
199,173	3,649	230,285	119,271
200,188	4,123	230,142	119,555
201,202	4,093	230,052	119,473
202,217	4,366	229,713	119,498
203,232	4,354	229,708	119,475
204,246	4,356	229,595	119,408
205,261	4,561	229,466	119,489
206,275	4,705	229,362	119,535
207,290	4,761	229,276	119,523
208,304	4,542	229,160	119,283
209,319	4,746	228,738	119,210
210,334	4,526	228,681	119,000
211,348	4,185	228,573	118,670
212,363	3,942	228,227	118,293
213,377	3,738	228,052	118,035
214,392	3,708	227,966	117,957
215,407	4,012	227,710	118,047
216,421	4,145	227,578	118,071
217,436	3,755	227,349	117,643
218,450	3,515	227,331	117,439
219,465	3,350	227,098	117,181
220,480	3,673	227,005	117,370
221,494	3,416	226,922	117,120
222,509	3,797	226,607	117,238
223,523	3,576	226,474	116,991
224,538	3,554	226,377	116,913
225,553	3,611	226,175	116,842
226,567	3,820	226,048	116,925
227,582	3,958	226,189	117,092
228,596	4,180	225,873	117,087
229,611	3,921	225,608	116,743
230,626	3,733	225,469	116,518
231,640	3,617	225,428	116,398
232,655	4,081	225,247	116,646
233,669	4,427	225,253	116,900
234,684	4,384	225,068	116,761
235,699	4,176	224,863	116,487
236,713	3,954	224,650	116,199
237,728	3,715	224,536	115,950
238,742	3,745	224,302	115,841
239,757	3,975	224,196	115,949
240,772	3,779	224,064	115,723
241,786	3,794	223,848	115,612
242,801	4,101	223,710	115,762
243,815	4,118	223,727	115,773
244,830	4,260	223,550	115,777
245,844	3,841	223,258	115,302
246,859	3,925	223,207	115,328
247,874	3,949	223,025	115,242
248,888	4,340	222,846	115,432
249,903	3,828	222,785	115,006
250,917	3,888	222,533	114,911
251,932	3,656	222,482	114,701
252,947	3,786	222,317	114,703
253,961	3,611	222,197	114,500
254,976	3,799	221,914	114,484
255,990	4,150	221,797	114,675
257,005	4,208	221,756	114,687
258,020	4,039	221,725	114,534
259,034	4,199	221,571	114,564
260,049	3,875	221,358	114,203
261,063	4,023	221,146	114,193
262,078	4,229	221,151	114,339
263,093	4,517	220,819	114,369
264,107	4,038	220,788	113,988
265,122	4,034	220,752	113,957
266,136	4,275	220,725	114,111
267,151	4,142	220,491	113,882
268,166	4,010	220,111	113,578
269,180	3,516	220,038	113,166
270,195	3,523	219,906	113,093
271,209	3,789	219,670	113,157
272,224	3,501	219,644	112,922
273,239	3,917	219,529	113,159
274,253	3,845	219,268	112,961
275,268	3,607	219,115	112,698
276,282	3,602	218,974	112,611
277,297	3,623	218,656	112,453
278,312	3,613	218,633	112,424
279,326	3,772	218,499	112,461
280,341	3,895	218,562	112,574
281,355	3,803	218,415	112,420
282,370	3,814	218,115	112,265
283,384	3,391	218,024	111,899
284,399	3,381	217,878	111,807
285,414	3,558	217,657	111,812
286,428	3,609	217,643	111,832
287,443	4,202	217,496	112,178
288,457	3,871	217,354	111,854
289,472	3,629	217,229	111,604
290,487	3,331	216,914	111,216
291,501	3,119	216,824	111,006
292,516	3,291	216,641	111,027
293,530	3,498	216,523	111,107
294,545	3,558	216,416	111,086
295,560	3,476	216,346	110,980
296,574	3,772	216,222	111,121
297,589	3,778	216,099	111,052
298,603	3,979	215,887	111,078
299,618	3,762	215,914	110,926
300,633	3,826	215,659	110,831
301,647	3,968	215,639	110,913
302,662	4,081	215,446	110,885
303,676	4,035	215,405	110,821
304,691	3,950	215,205	110,647
305,706	4,055	215,064	110,640
306,720	4,042	215,035	110,606
307,735	3,786	214,789	110,286
308,749	3,806	214,549	110,167
309,764	3,811	214,546	110,159
310,779	4,006	214,484	110,257
311,793	4,142	214,171	110,184
312,808	4,096	214,071	110,090
313,822	3,901	213,971	109,890
314,837	3,782	213,746	109,679
315,852	3,514	213,601	109,404
316,866	3,775	213,446	109,501
317,881	4,018	213,480	109,681
318,895	3,782	213,384	109,455
319,910	3,805	213,044	109,286
320,925	3,724	212,775	109,081
321,939	3,539	212,507	108,802
322,954	3,575	212,642	108,887
323,968	3,880	212,673	109,110
324,983	3,947	212,429	109,023
325,997	3,863	212,437	108,958
327,012	3,945	212,263	108,917
328,027	3,800	211,984	108,662
329,041	4,068	212,115	108,909
330,056	4,151	211,867	108,830
331,070	3,947	211,755	108,619
332,085	3,524	211,401	108,129
333,100	3,720	211,183	108,146
334,114	3,530	211,251	108,038
335,129	3,842	211,097	108,169
336,143	3,624	210,826	107,867
337,158	3,743	210,793	107,925
338,173	3,730	210,634	107,824
339,187	3,790	210,389	107,731
340,202	3,453	210,322	107,451
341,216	3,572	210,107	107,415
342,231	3,861	209,921	107,513
343,246	3,515	209,919	107,260
344,260	3,429	209,912	107,186
345,275	3,807	209,787	107,378
346,289	3,924	209,734	107,423
347,304	3,902	209,559	107,307
348,319	3,728	209,429	107,110
349,333	3,826	209,156	107,030
350,348	4,067	209,111	107,165
351,362	3,912	208,988	106,984
352,377	3,920	208,887	106,929
353,392	3,894	208,659	106,784
354,406	3,967	208,611	106,801
355,421	194,061	1344,043	1431,913
356,435	154,859	1482,474	1432,026
