DTS Sentinel unit serial number:	SN410029Multiplexer serial number:	ORYXHardware model number:	OX2-SRSoftware version number:	ORYX F/W v4,00 Oryx Data Collector v3.7.2.0data status	okinstallation	B6 Nyhavnadifferential loss correction	single-endedforward channel	channel 2reverse channel	N/Adate	2023/12/10time	18:40:08forward acquisition time	300,00reverse acquisition time	0,00gamma	499,1914k internal	0,3123k external	0,3123temperature offset calibration	1,0000default loss term (dB/km)	0,3820temperature slope calibration	1,0000multiplexer offset coefficient	1,0000multiplexer slope coefficient	1,0000fibre end	0,00T internal ref (°C)	22,35T ext. ref 1 (°C)	6,00T ext. ref 2 (°C)	6,01length (m)	temperature (°C)	Stokes	anti-Stokes-744,400	800,000	-0,019	-0,041
-743,385	113,922	-0,174	0,157
-742,371	-200,000	0,004	0,034
-741,356	15,584	-0,223	0,130
-740,342	-62,192	0,131	0,041
-739,327	-165,180	-0,162	-0,005
-738,312	789,283	-0,020	-0,040
-737,298	-146,379	-0,206	0,013
-736,283	-99,110	0,025	-0,005
-735,269	58,952	-0,201	0,147
-734,254	-200,000	0,005	-0,050
-733,239	-77,685	-0,508	-0,130
-732,225	-151,981	0,118	-0,006
-731,210	-200,000	-0,032	0,138
-730,196	7,707	0,116	0,065
-729,181	47,252	-0,103	0,072
-728,167	76,007	-0,086	-0,067
-727,152	32,865	0,092	-0,059
-726,137	315,204	-0,069	-0,098
-725,123	-10,121	-0,084	0,041
-724,108	-118,275	-0,130	0,017
-723,094	516,958	-0,044	-0,077
-722,079	-200,000	-0,003	-0,094
-721,064	-121,969	-0,085	0,010
-720,050	185,211	0,092	0,101
-719,035	-85,947	-0,055	0,012
-718,021	-200,000	-0,001	-0,054
-717,006	-200,000	-0,001	-0,034
-715,991	22,791	-0,123	-0,075
-714,977	-116,739	-0,146	-0,020
-713,962	-21,987	-0,058	-0,026
-712,948	-56,331	-0,049	-0,016
-711,933	256,686	-0,044	-0,056
-710,918	222,745	-0,073	0,088
-709,904	-25,026	-0,227	0,100
-708,889	110,198	-0,149	-0,133
-707,875	800,000	0,042	-0,111
-706,860	117,903	0,011	-0,010
-705,845	800,000	0,025	0,066
-704,831	-200,000	-0,017	0,080
-703,816	800,000	0,044	-0,109
-702,802	-77,838	0,062	0,016
-701,787	-46,964	0,122	0,044
-700,772	-84,100	0,080	-0,019
-699,758	29,801	-0,024	0,015
-698,743	360,962	-0,071	0,106
-697,729	579,176	0,097	0,177
-696,714	-200,000	-0,027	0,160
-695,699	-84,134	0,027	0,006
-694,685	-150,070	-0,212	0,012
-693,670	800,000	0,047	0,123
-692,656	-200,000	0,014	-0,075
-691,641	283,733	-0,026	0,035
-690,627	44,097	-0,120	0,082
-689,612	54,985	0,054	-0,039
-688,597	800,000	-0,016	0,035
-687,583	800,000	-0,028	-0,063
-686,568	-155,572	0,192	0,009
-685,554	-200,000	0,003	-0,054
-684,539	800,000	0,075	-0,179
-683,524	777,209	0,035	0,072
-682,510	180,365	-0,039	-0,042
-681,495	800,000	0,030	-0,085
-680,481	604,553	0,067	-0,125
-679,466	151,681	-0,049	0,050
-678,451	-200,000	0,002	-0,054
-677,437	-76,110	-0,053	0,014
-676,422	-177,537	0,039	-0,001
-675,408	113,099	-0,032	-0,029
-674,393	-52,743	-0,062	-0,021
-673,378	350,635	-0,041	0,061
-672,364	800,000	0,042	-0,116
-671,349	235,443	0,051	-0,062
-670,335	-200,000	-0,015	0,108
-669,320	257,675	0,011	0,014
-668,305	800,000	0,018	0,056
-667,291	-200,000	-0,008	-0,124
-666,276	-26,978	-0,083	-0,036
-665,262	-94,898	-0,069	0,014
-664,247	800,000	0,023	-0,059
-663,232	320,374	-0,044	0,062
-662,218	58,898	-0,183	0,133
-661,203	62,047	0,015	-0,011
-660,189	-200,000	-0,004	-0,079
-659,174	-92,800	-0,058	0,012
-658,159	650,268	-0,072	-0,138
-657,145	-26,316	-0,034	-0,015
-656,130	800,000	-0,031	0,092
-655,116	-39,195	0,068	0,026
-654,101	91,747	0,085	0,071
-653,086	116,280	0,023	-0,021
-652,072	-200,000	0,005	-0,060
-651,057	-200,000	-0,026	-0,119
-650,043	111,116	0,147	-0,132
-649,028	-51,668	-0,048	-0,016
-648,014	-200,000	0,050	-0,000
-646,999	611,580	-0,027	0,050
-645,984	160,048	-0,106	-0,110
-644,970	-200,000	0,006	-0,157
-643,955	-77,832	0,051	-0,013
-642,941	64,623	-0,093	-0,069
-641,926	-147,162	-0,081	0,005
-640,911	166,796	0,073	0,077
-639,897	-200,000	0,001	-0,004
-638,882	-200,000	0,014	0,079
-637,868	-50,842	-0,018	-0,006
-636,853	-123,256	-0,128	0,015
-635,838	800,000	-0,072	-0,190
-634,824	-74,549	-0,072	-0,019
-633,809	-105,566	0,048	0,008
-632,795	-200,000	-0,016	0,091
-631,780	636,741	-0,037	0,070
-630,765	-116,448	0,037	0,005
-629,751	-200,000	0,001	-0,051
-628,736	-200,000	0,011	0,071
-627,722	-2,591	0,179	-0,092
-626,707	-70,812	0,072	-0,020
-625,692	570,943	0,017	-0,031
-624,678	600,276	0,068	0,126
-623,663	-132,322	-0,089	-0,008
-622,649	525,793	0,026	-0,046
-621,634	-200,000	-0,024	0,093
-620,619	-200,000	0,027	0,092
-619,605	2,940	-0,039	-0,021
-618,590	53,277	0,111	0,079
-617,576	800,000	0,043	0,130
-616,561	752,871	-0,010	0,021
-615,546	34,762	0,068	-0,044
-614,532	-93,963	-0,079	0,016
-613,517	-200,000	0,009	-0,042
-612,503	-156,681	-0,047	0,002
-611,488	-17,290	-0,107	-0,050
-610,474	-12,877	0,113	-0,055
-609,459	253,096	-0,078	0,098
-608,444	800,000	-0,035	-0,109
-607,430	279,028	-0,054	-0,072
-606,415	249,458	-0,047	-0,059
-605,401	310,798	0,023	0,032
-604,386	-200,000	-0,021	-0,105
-603,371	422,034	0,023	0,037
-602,357	-200,000	0,024	-0,138
-601,342	99,889	-0,129	-0,111
-600,328	-200,000	-0,002	0,027
-599,313	13,198	0,039	-0,022
-598,298	269,245	-0,045	-0,059
-597,284	-200,000	0,008	0,068
-596,269	20,602	-0,085	0,051
-595,255	106,768	0,054	0,047
-594,240	-200,000	0,009	-0,166
-593,225	-67,963	0,078	0,022
-592,211	-200,000	0,011	-0,113
-591,196	30,986	0,055	0,035
-590,182	242,147	-0,061	-0,076
-589,167	-20,656	-0,076	0,034
-588,152	96,614	0,034	-0,029
-587,138	-200,000	-0,039	-0,194
-586,123	86,360	-0,068	-0,055
-585,109	-200,000	-0,017	-0,091
-584,094	-200,000	0,010	0,042
-583,079	299,019	0,067	0,091
-582,065	-95,335	-0,124	0,025
-581,050	-123,143	0,097	-0,011
-580,036	-200,000	0,015	0,087
-579,021	283,395	0,039	0,053
-578,006	-200,000	-0,064	-0,243
-576,992	-24,128	0,032	-0,014
-575,977	-200,000	0,006	0,179
-574,963	800,000	-0,044	0,128
-573,948	-75,293	0,057	0,015
-572,934	800,000	-0,036	-0,090
-571,919	537,110	-0,076	-0,135
-570,904	-200,000	0,012	-0,114
-569,890	800,000	0,043	-0,097
-568,875	800,000	-0,057	0,172
-567,861	-200,000	-0,017	0,063
-566,846	216,788	0,063	0,074
-565,831	60,869	-0,145	-0,106
-564,817	-200,000	0,032	-0,107
-563,802	800,000	-0,062	-0,138
-562,788	121,084	0,024	-0,022
-561,773	-94,841	0,120	0,024
-560,758	800,000	-0,055	0,134
-559,744	307,943	0,066	-0,092
-558,729	800,000	-0,020	-0,041
-557,715	20,861	0,086	-0,052
-556,700	800,000	0,024	-0,076
-555,685	377,094	-0,045	-0,069
-554,671	-43,776	-0,041	0,015
-553,656	20,233	-0,139	0,083
-552,642	-200,000	0,023	0,112
-551,627	-200,000	-0,040	0,188
-550,612	59,667	0,124	-0,090
-549,598	643,657	-0,054	-0,103
-548,583	-200,000	0,000	-0,033
-547,569	-200,000	0,019	0,123
-546,554	-96,085	0,155	-0,030
-545,539	-200,000	0,003	-0,073
-544,525	-2,043	-0,105	0,055
-543,510	-37,196	-0,027	0,011
-542,496	505,382	0,060	0,103
-541,481	-158,669	0,037	0,002
-540,466	494,446	-0,024	-0,042
-539,452	-8,487	-0,115	0,057
-538,437	495,758	0,037	-0,064
-537,423	800,000	-0,038	0,089
-536,408	126,650	0,052	0,048
-535,393	-148,649	-0,030	-0,002
-534,379	347,512	-0,045	-0,065
-533,364	744,365	0,025	-0,050
-532,350	-200,000	0,002	0,089
-531,335	103,329	-0,151	0,130
-530,321	196,559	0,087	-0,098
-529,306	222,853	-0,031	-0,037
-528,291	-111,619	0,024	-0,003
-527,277	-200,000	-0,035	-0,157
-526,262	-200,000	-0,019	-0,126
-525,248	-156,840	0,086	-0,004
-524,233	104,033	0,120	-0,104
-523,218	411,702	-0,070	0,111
-522,204	145,958	0,042	0,041
-521,189	-20,349	0,002	0,001
-520,175	-9,316	-0,010	-0,005
-519,160	239,158	-0,020	0,024
-518,145	-200,000	0,006	0,042
-517,131	306,265	0,099	-0,136
-516,116	84,085	0,048	0,039
-515,102	-102,311	-0,053	-0,009
-514,087	29,603	0,069	-0,043
-513,072	-200,000	0,001	-0,091
-512,058	136,750	0,110	-0,106
-511,043	-200,000	0,013	-0,120
-510,029	187,296	-0,025	-0,028
-509,014	-109,254	0,126	0,020
-507,999	380,188	0,019	0,029
-506,985	455,947	0,083	-0,136
-505,970	-147,168	0,090	0,006
-504,956	-200,000	-0,008	-0,043
-503,941	116,512	-0,064	-0,058
-502,926	294,462	0,048	0,066
-501,912	-1,090	-0,101	0,052
-500,897	-200,000	0,023	0,104
-499,883	362,761	0,056	0,083
-498,868	22,101	0,075	-0,045
-497,853	-39,586	-0,108	0,042
-496,839	-173,150	0,154	-0,003
-495,824	136,209	-0,078	-0,075
-494,810	708,755	0,047	0,093
-493,795	233,121	-0,072	0,088
-492,781	586,393	-0,033	-0,060
-491,766	-67,437	-0,044	-0,013
-490,751	-81,247	-0,056	-0,013
-489,737	-200,000	-0,065	0,000
-488,722	-102,716	-0,023	0,004
-487,708	167,489	0,023	0,025
-486,693	253,316	0,089	0,112
-485,678	-9,731	0,075	-0,037
-484,664	92,826	0,035	0,029
-483,649	37,605	-0,042	0,028
-482,635	-200,000	0,005	-0,019
-481,620	64,421	-0,043	0,032
-480,605	-200,000	-0,033	-0,126
-479,591	-76,527	0,080	-0,021
-478,576	-200,000	-0,014	-0,098
-477,562	-200,000	0,010	0,048
-476,547	-119,964	0,089	-0,011
-475,532	-125,046	-0,171	-0,019
-474,518	124,566	0,091	0,085
-473,503	-200,000	0,035	0,115
-472,489	39,960	-0,172	-0,114
-471,474	333,026	-0,046	-0,065
-470,459	230,790	-0,035	-0,042
-469,445	501,034	-0,029	-0,049
-468,430	246,985	0,070	-0,088
-467,416	68,490	-0,036	-0,027
-466,401	-200,000	0,010	0,086
-465,386	800,000	-0,062	0,151
-464,372	523,831	0,060	0,104
-463,357	216,194	-0,010	0,012
-462,343	-10,163	-0,054	0,026
-461,328	-80,607	-0,044	0,011
-460,313	-200,000	0,022	-0,178
-459,299	800,000	0,039	0,088
-458,284	-55,833	0,033	0,011
-457,270	-17,842	0,026	-0,012
-456,255	238,744	-0,166	0,204
-455,241	-200,000	0,013	-0,112
-454,226	348,475	-0,068	-0,099
-453,211	-6,107	0,125	0,063
-452,197	27,393	0,062	-0,038
-451,182	88,397	0,115	-0,094
-450,168	373,545	0,105	-0,158
-449,153	-31,562	-0,092	-0,038
-448,138	800,000	0,069	-0,144
-447,124	633,149	-0,009	0,017
-446,109	617,637	-0,014	-0,026
-445,095	84,818	0,027	-0,021
-444,080	2,005	-0,027	0,014
-443,065	-164,556	0,009	0,000
-442,051	17,695	-0,137	-0,080
-441,036	800,000	-0,038	-0,085
-440,022	-88,657	-0,028	-0,006
-439,007	-92,786	0,035	-0,007
-437,992	-81,694	-0,040	0,010
-436,978	59,956	-0,020	-0,014
-435,963	-200,000	0,003	-0,075
-434,949	-200,000	-0,048	0,195
-433,934	-135,387	0,111	0,010
-432,919	25,533	-0,038	0,023
-431,905	64,548	0,136	0,101
-430,890	-200,000	0,019	-0,131
-429,876	-103,130	-0,079	0,014
-428,861	743,640	0,108	0,216
-427,846	155,228	-0,050	0,051
-426,832	-200,000	-0,023	0,143
-425,817	-156,329	0,123	0,006
-424,803	395,228	0,056	-0,087
-423,788	137,450	0,076	0,073
-422,773	-63,075	0,093	0,028
-421,759	219,671	0,128	0,151
-420,744	-200,000	0,006	0,035
-419,730	565,469	-0,006	-0,011
-418,715	77,774	-0,085	0,066
-417,701	-200,000	0,023	-0,080
-416,686	86,824	0,171	0,139
-415,671	-18,114	-0,063	-0,029
-414,657	-200,000	0,027	0,107
-413,642	107,092	0,020	-0,018
-412,628	446,518	-0,042	-0,069
-411,613	207,613	-0,041	-0,047
-410,598	320,667	0,014	0,020
-409,584	579,115	-0,079	0,143
-408,569	-20,396	0,055	0,025
-407,555	304,576	-0,097	0,132
-406,540	-200,000	0,009	0,069
-405,525	257,041	-0,087	0,110
-404,511	513,017	-0,063	0,109
-403,496	314,139	-0,126	0,175
-402,482	-200,000	-0,023	0,224
-401,467	182,890	0,130	0,141
-400,452	-137,703	0,191	-0,016
-399,438	800,000	-0,028	-0,083
-398,423	-200,000	0,021	-0,071
-397,409	-200,000	-0,012	-0,098
-396,394	134,284	-0,057	0,054
-395,379	144,555	0,084	-0,083
-394,365	1,190	0,079	0,042
-393,350	-200,000	0,141	0,000
-392,336	79,322	-0,046	0,036
-391,321	26,979	0,109	-0,067
-390,306	684,311	-0,041	-0,080
-389,292	244,411	-0,052	-0,064
-388,277	-200,000	0,010	-0,059
-387,263	800,000	-0,031	-0,078
-386,248	98,653	0,091	0,077
-385,233	-200,000	-0,003	-0,025
-384,219	26,700	0,139	-0,085
-383,204	232,810	0,076	-0,092
-382,190	-91,870	-0,129	0,027
-381,175	21,257	-0,081	0,048
-380,160	130,787	0,035	0,033
-379,146	-5,286	0,114	0,057
-378,131	-28,432	-0,077	0,032
-377,117	800,000	-0,046	0,129
-376,102	150,714	0,034	0,034
-375,088	293,215	0,031	-0,041
-374,073	800,000	-0,081	-0,170
-373,058	-56,485	-0,079	0,026
-372,044	71,482	0,087	0,066
-371,029	692,389	0,033	0,065
-370,015	49,339	0,137	-0,094
-369,000	-5,036	-0,132	0,067
-367,985	800,000	-0,044	-0,094
-366,971	62,820	-0,062	0,045
-365,956	71,551	-0,089	-0,068
-364,942	-200,000	0,003	0,049
-363,927	-43,035	-0,029	-0,011
-362,912	-65,188	-0,062	-0,018
-361,898	-200,000	0,010	-0,069
-360,883	49,808	-0,097	0,067
-359,869	800,000	-0,069	-0,206
-358,854	84,633	0,070	-0,057
-357,839	317,485	0,059	-0,082
-356,825	800,000	-0,037	0,076
-355,810	-200,000	0,004	0,051
-354,796	800,000	0,004	0,009
-353,781	-75,337	0,040	0,010
-352,766	205,633	0,081	-0,093
-351,752	-17,690	-0,142	0,065
-350,737	800,000	-0,029	0,060
-349,723	-138,367	-0,015	-0,001
-348,708	9,491	0,073	0,040
-347,693	-200,000	-0,008	0,037
-346,679	-78,913	0,110	0,027
-345,664	-26,315	-0,160	0,069
-344,650	-200,000	0,012	-0,090
-343,635	-120,064	0,116	-0,014
-342,620	276,281	0,036	-0,047
-341,606	637,103	0,078	0,146
-340,591	358,131	-0,090	0,133
-339,577	117,202	-0,100	-0,090
-338,562	-37,759	-0,024	-0,009
-337,548	164,317	0,072	-0,075
-336,533	-31,997	-0,065	-0,027
-335,518	-200,000	-0,005	-0,017
-334,504	432,899	0,064	0,102
-333,489	-44,093	-0,026	-0,010
-332,475	155,392	-0,128	-0,130
-331,460	103,311	-0,068	-0,058
-330,445	180,085	-0,030	0,032
-329,431	61,092	-0,029	0,021
-328,416	175,069	0,050	0,054
-327,402	-125,275	-0,039	0,004
-326,387	-200,000	-0,002	0,060
-325,372	800,000	-0,031	-0,100
-324,358	-51,078	-0,097	0,033
-323,343	-55,357	0,028	-0,009
-322,329	-200,000	-0,014	-0,074
-321,314	-40,875	0,100	-0,038
-320,299	-200,000	0,001	0,035
-319,285	-147,149	-0,103	0,006
-318,270	392,185	-0,032	-0,048
-317,256	-136,221	-0,054	-0,005
-316,241	-115,125	0,025	0,003
-315,226	200,718	-0,052	-0,059
-314,212	-3,561	0,007	0,004
-313,197	-45,520	-0,088	0,032
-312,183	-69,530	0,045	-0,013
-311,168	-200,000	0,002	-0,049
-310,153	800,000	0,024	0,078
-309,139	-160,210	-0,145	-0,006
-308,124	-82,081	0,110	-0,026
-307,110	-59,911	-0,043	-0,013
-306,095	-200,000	-0,014	-0,097
-305,080	-25,430	0,083	-0,036
-304,066	367,625	0,044	-0,066
-303,051	506,619	0,013	0,021
-302,037	-23,065	-0,138	0,061
-301,022	402,210	-0,033	-0,051
-300,008	102,127	0,019	0,016
-298,993	-200,000	-0,026	-0,127
-297,978	-47,327	0,010	-0,003
-296,964	119,124	-0,085	-0,077
-295,949	800,000	-0,065	-0,153
-294,935	146,520	-0,019	-0,019
-293,920	800,000	0,036	0,098
-292,905	148,743	0,094	0,093
-291,891	185,231	0,133	0,144
-290,876	-200,000	0,024	-0,085
-289,862	201,901	-0,039	-0,044
-288,847	-76,716	-0,059	-0,015
-287,832	-61,039	-0,096	-0,030
-286,818	-200,000	0,013	0,103
-285,803	110,384	-0,077	0,068
-284,789	-200,000	-0,000	0,063
-283,774	-200,000	0,000	-0,119
-282,759	113,552	-0,120	0,107
-281,745	-138,286	-0,055	0,004
-280,730	223,008	-0,066	0,078
-279,716	-114,525	-0,031	0,004
-278,701	800,000	0,049	-0,126
-277,686	58,379	-0,060	0,043
-276,672	167,893	-0,068	0,071
-275,657	-200,000	0,004	0,023
-274,643	-123,639	0,163	-0,019
-273,628	-200,000	0,038	0,178
-272,613	-6,632	-0,147	-0,073
-271,599	-200,000	0,009	0,070
-270,584	800,000	0,020	0,047
-269,570	109,327	0,096	0,084
-268,555	-200,000	-0,002	-0,040
-267,540	97,823	0,055	0,047
-266,526	238,219	-0,100	0,122
-265,511	800,000	0,030	-0,067
-264,497	-82,896	0,028	0,007
-263,482	-28,384	0,080	-0,034
-262,467	438,527	0,045	-0,072
-261,453	-200,000	-0,018	-0,169
-260,438	-98,369	-0,022	-0,004
-259,424	-200,000	-0,002	0,049
-258,409	800,000	0,011	0,023
-257,395	-178,325	-0,081	-0,001
-256,380	-81,206	0,111	0,027
-255,365	14,806	-0,074	-0,042
-254,351	-103,704	0,025	-0,004
-253,336	304,090	-0,030	-0,041
-252,322	82,881	-0,064	0,051
-251,307	-152,024	-0,069	-0,004
-250,292	61,950	0,018	0,013
-249,278	2,182	0,117	0,062
-248,263	-103,441	-0,124	-0,021
-247,249	-200,000	0,014	0,116
-246,234	50,741	-0,086	-0,060
-245,219	-161,244	0,132	-0,005
-244,205	800,000	-0,025	0,061
-243,190	-39,879	-0,174	0,066
-242,176	205,622	0,111	0,126
-241,161	535,394	-0,034	-0,058
-240,146	105,455	0,057	0,049
-239,132	41,931	0,055	0,037
-238,117	800,000	0,042	-0,092
-237,103	181,121	0,051	0,055
-236,088	579,235	0,048	0,086
-235,073	-127,282	0,027	-0,003
-234,059	91,948	-0,025	0,021
-233,044	3,372	0,044	-0,024
-232,030	-93,412	0,106	0,021
-231,015	357,257	-0,118	-0,172
-230,000	-105,864	-0,125	0,020
-228,986	-200,000	-0,035	-0,115
-227,971	-200,000	0,012	-0,070
-226,957	278,117	-0,100	-0,130
-225,942	-41,213	-0,061	-0,023
-224,927	-126,888	0,099	-0,011
-223,913	157,691	0,021	-0,022
-222,898	-32,476	0,024	-0,010
-221,884	485,936	0,048	0,080
-220,869	93,186	-0,070	-0,057
-219,855	800,000	0,093	0,202
-218,840	142,813	0,028	0,027
-217,825	-200,000	0,000	-0,133
-216,811	-78,511	-0,042	-0,010
-215,796	-33,679	-0,055	-0,022
-214,782	-17,816	-0,046	0,021
-213,767	266,750	0,067	-0,086
-212,752	276,245	0,031	-0,040
-211,738	548,533	0,005	-0,010
-210,723	-200,000	0,002	0,132
-209,709	184,674	0,045	0,049
-208,694	-200,000	-0,025	0,099
-207,679	65,704	0,176	-0,130
-206,665	57,432	-0,068	0,049
-205,650	345,609	-0,027	0,039
-204,636	-137,280	0,129	0,011
-203,621	-2,757	-0,045	0,023
-202,606	197,229	0,035	-0,039
-201,592	-200,000	0,010	-0,149
-200,577	67,609	-0,036	-0,027
-199,563	92,698	-0,109	0,090
-198,548	166,981	0,079	0,081
-197,533	432,370	-0,046	0,073
-196,519	413,066	0,053	0,082
-195,504	-36,427	-0,126	0,049
-194,490	452,134	-0,028	-0,045
-193,475	-114,618	-0,075	-0,010
-192,460	401,883	0,055	0,084
-191,446	-149,867	0,062	-0,003
-190,431	800,000	0,028	0,069
-189,417	441,220	-0,051	0,081
-188,402	800,000	0,030	0,071
-187,387	478,289	0,060	-0,099
-186,373	-200,000	-0,002	-0,045
-185,358	377,940	-0,014	0,021
-184,344	67,599	0,095	-0,071
-183,329	-44,759	-0,021	-0,008
-182,315	800,000	0,062	0,130
-181,300	-200,000	0,013	0,060
-180,285	-37,324	-0,058	0,022
-179,271	240,043	-0,060	-0,073
-178,256	-32,729	-0,036	0,015
-177,242	-21,871	-0,056	-0,025
-176,227	-23,012	0,105	0,046
-175,212	-117,274	0,085	0,011
-174,198	-200,000	-0,002	-0,023
-173,183	800,000	0,038	-0,121
-172,169	-34,909	-0,075	0,030
-171,154	-200,000	-0,002	-0,086
-170,139	-200,000	0,005	-0,015
-169,125	-200,000	-0,005	0,127
-168,110	247,245	0,057	-0,070
-167,096	26,902	0,043	-0,026
-166,081	153,446	-0,048	0,048
-165,066	153,571	-0,075	-0,075
-164,052	429,963	0,040	-0,064
-163,037	112,253	0,097	-0,085
-162,023	800,000	-0,049	0,118
-161,008	-19,585	0,073	0,033
-159,993	800,000	0,052	0,147
-158,979	800,000	-0,025	0,074
-157,964	-200,000	0,002	0,060
-156,950	-88,954	-0,063	0,014
-155,935	-200,000	0,009	-0,052
-154,920	48,938	0,056	-0,038
-153,906	-126,351	0,194	0,021
-152,891	-200,000	0,001	0,120
-151,877	478,862	-0,051	0,084
-150,862	800,000	-0,022	0,050
-149,847	725,704	0,047	0,092
-148,833	-15,386	0,128	-0,059
-147,818	146,481	0,033	0,032
-146,804	786,265	-0,036	0,071
-145,789	320,609	-0,054	0,075
-144,775	86,540	-0,102	-0,082
-143,760	280,833	0,075	0,098
-142,745	764,183	0,012	-0,023
-141,731	489,522	0,017	0,028
-140,716	-60,978	0,107	-0,033
-139,702	-200,000	0,007	0,035
-138,687	-118,476	0,105	0,013
-137,672	89,851	-0,098	0,079
-136,658	-63,126	-0,013	0,004
-135,643	-200,000	0,019	0,068
-134,629	53,827	0,054	0,038
-133,614	188,529	-0,062	-0,067
-132,599	6,481	0,063	0,034
-131,585	3,619	0,107	-0,057
-130,570	307,596	-0,063	0,086
-129,556	-21,308	0,079	0,035
-128,541	-93,243	-0,194	-0,039
-127,526	254,393	0,054	-0,068
-126,512	734,665	0,054	0,106
-125,497	333,203	0,028	-0,039
-124,483	-200,000	-0,030	0,133
-123,468	177,074	0,050	-0,053
-122,453	-200,000	-0,004	0,017
-121,439	339,298	-0,047	0,067
-120,424	-200,000	-0,019	-0,098
-119,410	-143,286	-0,071	-0,005
-118,395	-121,321	-0,053	0,006
-117,380	-41,101	0,132	0,049
-116,366	-105,531	-0,051	0,008
-115,351	-200,000	0,011	0,125
-114,337	-45,604	-0,154	-0,055
-113,322	800,000	0,031	-0,072
-112,307	800,000	-0,023	-0,060
-111,293	800,000	-0,022	0,062
-110,278	375,377	0,035	0,052
-109,264	157,852	-0,031	0,031
-108,249	-55,230	-0,077	-0,025
-107,234	303,203	-0,032	0,043
-106,220	250,910	-0,017	-0,021
-105,205	-200,000	0,008	0,048
-104,191	105,420	0,061	0,052
-103,176	654,172	-0,031	0,057
-102,162	461,699	0,048	-0,078
-101,147	-130,970	0,043	-0,004
-100,132	308,039	0,033	-0,045
-99,118	30,386	-0,071	0,044
-98,103	-200,000	-0,016	0,143
-97,089	-171,742	0,160	-0,004
-96,074	-200,000	0,013	0,099
-95,059	149,253	-0,025	0,025
-94,045	425,812	-0,037	-0,058
-93,030	75,845	-0,098	-0,075
-92,016	-200,000	0,009	-0,044
-91,001	-200,000	-0,001	-0,073
-89,986	-200,000	-0,008	0,067
-88,972	308,015	-0,043	0,059
-87,957	-200,000	-0,042	-0,000
-86,943	-124,522	0,073	-0,008
-85,928	741,187	-0,044	-0,086
-84,913	598,638	-0,056	0,102
-83,899	-200,000	0,014	-0,138
-82,884	-200,000	0,019	0,132
-81,870	577,436	-0,021	-0,038
-80,855	-54,474	0,106	-0,035
-79,840	24,480	-0,146	0,087
-78,826	113,500	0,084	-0,074
-77,811	400,271	-0,073	0,111
-76,797	-111,766	0,023	-0,003
-75,782	395,175	0,063	0,096
-74,767	-147,577	0,074	-0,004
-73,753	-200,000	-0,002	0,117
-72,738	-39,133	0,161	-0,061
-71,724	-125,854	-0,193	0,021
-70,709	-81,726	0,112	0,027
-69,694	-102,149	0,105	-0,018
-68,680	-84,204	0,175	-0,040
-67,665	703,592	0,070	0,135
-66,651	800,000	-0,053	0,136
-65,636	51,844	-0,176	-0,122
-64,622	89,223	-0,076	-0,061
-63,607	399,628	-0,041	0,063
-62,592	-134,730	-0,079	-0,007
-61,578	-1,677	0,100	-0,051
-60,563	30,905	0,045	0,028
-59,549	664,742	-0,032	0,060
-58,534	-78,706	-1,411	-0,347
-57,519	708,678	-0,798	-1,538
-56,505	-200,000	-0,842	-4,468
-55,490	-17,184	0,619	-0,282
-54,476	800,000	5,049	11,932
-53,461	-200,000	13,633	253,076
-52,446	-200,000	689,753	2258,372
-51,432	590,586	1622,326	2915,933
-50,417	119,194	1635,068	1467,538
-49,403	73,186	1289,011	976,987
-48,388	38,042	1024,287	659,696
-47,373	24,324	981,938	587,304
-46,359	23,600	971,504	578,667
-45,344	22,574	967,324	572,801
-44,330	22,585	965,655	571,824
-43,315	22,361	964,551	570,418
-42,300	22,369	963,385	569,733
-41,286	22,404	962,539	569,324
-40,271	22,340	961,566	568,516
-39,257	22,353	960,633	567,986
-38,242	22,317	959,730	567,311
-37,227	22,345	958,696	566,768
-36,213	22,385	957,933	566,426
-35,198	22,337	956,982	565,686
-34,184	22,394	956,446	565,531
-33,169	22,341	955,525	564,791
-32,154	22,428	954,601	564,503
-31,140	22,340	953,784	563,715
-30,125	22,387	952,941	563,345
-29,111	22,394	952,121	562,861
-28,096	22,454	951,351	562,576
-27,082	22,368	950,885	562,003
-26,067	22,387	949,873	561,442
-25,052	22,321	949,390	560,922
-24,038	22,421	948,449	560,665
-23,023	22,368	948,021	560,221
-22,009	22,398	947,255	559,840
-20,994	22,450	946,754	559,689
-19,979	22,406	946,061	559,117
-18,965	22,396	945,450	558,700
-17,950	22,417	944,882	558,410
-16,936	22,324	944,326	557,762
-15,921	22,331	943,531	557,295
-14,906	22,282	942,820	556,696
-13,892	22,234	941,986	556,028
-12,877	22,291	941,505	555,903
-11,863	22,194	940,928	555,233
-10,848	22,237	940,285	554,968
-9,833	22,340	940,097	555,162
-8,819	22,388	939,163	554,742
-7,804	22,331	938,561	554,181
-6,790	22,310	937,928	553,721
-5,775	22,288	937,332	553,276
-4,760	22,326	936,655	552,975
-3,746	22,232	936,339	552,469
-2,731	22,092	935,556	551,542
-1,717	22,097	934,632	550,993
-0,702	22,041	934,170	550,521
0,313	21,972	933,441	550,707
1,327	25,089	931,251	559,164
2,342	34,792	796,039	503,817
3,356	32,833	451,518	282,792
4,371	1,752	293,875	153,042
5,386	-2,694	274,761	138,866
6,400	-4,156	268,968	134,570
7,415	-4,660	266,546	132,883
8,429	-4,444	265,275	132,435
9,444	-4,564	264,479	131,916
10,459	-4,529	263,902	131,648
11,473	-4,429	263,128	131,341
12,488	-4,745	262,797	130,878
13,502	-4,670	262,182	130,627
14,517	-4,744	261,707	130,313
15,531	-4,469	261,474	130,433
16,546	-4,649	261,027	130,036
17,561	-4,592	260,516	129,822
18,575	-4,559	260,339	129,752
19,590	-4,657	259,966	129,466
20,604	-4,654	259,784	129,366
21,619	-4,906	259,405	128,941
22,634	-4,838	259,002	128,791
23,648	-4,751	258,809	128,760
24,663	-4,694	258,617	128,704
25,677	-4,731	258,250	128,477
26,692	-4,718	258,036	128,370
27,707	-4,737	257,812	128,231
28,721	-4,804	257,546	128,027
29,736	-4,724	257,166	127,898
30,750	-4,825	257,015	127,722
31,765	-4,725	256,772	127,678
32,780	-4,901	256,666	127,458
33,794	-4,632	256,333	127,519
34,809	-4,929	256,110	127,135
35,823	-4,697	255,775	127,162
36,838	-4,803	255,496	126,918
37,853	-4,919	255,325	126,720
38,867	-4,934	255,161	126,615
39,882	-4,952	254,940	126,477
40,896	-4,987	254,775	126,354
41,911	-4,797	254,447	126,346
42,926	-4,939	254,312	126,144
43,940	-4,771	253,945	126,098
44,955	-4,868	253,637	125,849
45,969	-4,985	253,550	125,692
46,984	-5,140	253,318	125,430
47,999	-5,364	252,913	125,024
49,013	-5,355	252,802	124,966
50,028	-5,656	252,601	124,593
51,042	-5,607	252,262	124,457
52,057	-5,689	252,047	124,270
53,071	-5,783	251,879	124,094
54,086	-5,418	251,617	124,270
55,101	-5,287	251,450	124,290
56,115	-4,965	251,432	124,549
57,130	-4,795	251,301	124,620
58,144	-4,567	251,214	124,762
59,159	-4,551	250,946	124,631
60,174	-4,568	250,682	124,474
61,188	-4,606	250,567	124,374
62,203	-4,740	250,268	124,099
63,217	-4,700	250,246	124,111
64,232	-4,588	249,914	124,031
65,247	-4,747	249,857	123,856
66,261	-4,802	249,570	123,655
67,276	-4,795	249,148	123,441
68,290	-5,146	248,935	123,025
69,305	-5,258	248,746	122,825
70,320	-5,226	248,643	122,790
71,334	-4,815	248,384	123,002
72,349	-4,448	248,276	123,250
73,363	-4,681	248,192	122,999
74,378	-4,695	247,862	122,813
75,393	-4,550	247,624	122,807
76,407	-4,674	247,631	122,694
77,422	-4,713	247,189	122,431
78,436	-4,483	247,062	122,552
79,451	-4,742	246,994	122,288
80,466	-4,835	246,555	121,981
81,480	-4,946	246,452	121,825
82,495	-4,876	246,168	121,734
83,509	-4,856	246,016	121,664
84,524	-4,777	245,794	121,610
85,539	-5,161	245,542	121,151
86,553	-5,077	245,479	121,180
87,568	-5,020	245,327	121,142
88,582	-4,914	245,102	121,109
89,597	-4,980	244,802	120,895
90,611	-4,947	244,841	120,932
91,626	-4,739	244,667	121,009
92,641	-4,860	244,503	120,816
93,655	-4,851	244,327	120,725
94,670	-4,958	244,033	120,480
95,684	-4,977	243,898	120,386
96,699	-4,835	243,696	120,395
97,714	-4,869	243,529	120,273
98,728	-5,080	243,255	119,951
99,743	-5,309	243,200	119,723
100,757	-5,180	242,859	119,652
101,772	-5,091	242,681	119,627
102,787	-5,026	242,558	119,609
103,801	-5,045	242,353	119,482
104,816	-4,941	242,229	119,496
105,830	-4,765	241,959	119,498
106,845	-4,689	241,815	119,479
107,860	-4,557	241,692	119,517
108,874	-4,670	241,396	119,267
109,889	-4,906	241,381	119,054
110,903	-4,815	240,993	118,927
111,918	-4,961	240,927	118,764
112,933	-4,865	240,706	118,723
113,947	-4,846	240,543	118,647
114,962	-4,722	240,533	118,734
115,976	-4,835	240,319	118,525
116,991	-4,805	240,133	118,447
118,006	-4,752	240,030	118,430
119,020	-4,843	239,939	118,300
120,035	-4,644	239,662	118,315
121,049	-4,562	239,672	118,376
122,064	-4,831	239,442	118,032
123,079	-4,764	239,178	117,947
124,093	-4,876	238,935	117,724
125,108	-5,055	238,693	117,449
126,122	-5,465	238,570	117,043
127,137	-5,306	238,159	116,962
128,151	-5,343	238,229	116,954
129,166	-5,194	238,050	116,978
130,181	-5,118	237,672	116,843
131,195	-5,190	237,563	116,721
132,210	-5,161	237,625	116,765
133,224	-4,761	237,261	116,899
134,239	-4,880	237,110	116,718
135,254	-4,901	237,077	116,675
136,268	-5,026	236,735	116,395
137,283	-5,312	236,459	116,018
138,297	-5,233	236,294	115,991
139,312	-5,298	236,155	115,860
140,327	-5,041	236,077	116,017
141,341	-4,575	236,114	116,401
142,356	-4,562	235,908	116,300
143,370	-4,546	235,838	116,268
144,385	-4,356	235,531	116,259
145,400	-4,312	235,457	116,247
146,414	-4,379	235,295	116,103
147,429	-4,657	235,198	115,821
148,443	-4,577	234,828	115,693
149,458	-4,508	234,785	115,717
150,473	-4,341	234,533	115,716
151,487	-4,463	234,401	115,543
152,502	-4,435	234,163	115,438
153,516	-4,384	234,110	115,442
154,531	-4,396	233,818	115,278
155,546	-4,508	233,650	115,096
156,560	-4,678	233,488	114,871
157,575	-4,644	233,335	114,812
158,589	-4,561	233,142	114,773
159,604	-4,325	233,085	114,922
160,619	-4,450	233,113	114,826
161,633	-4,316	232,735	114,737
162,648	-4,449	232,614	114,561
163,662	-4,546	232,505	114,420
164,677	-4,579	232,284	114,275
165,692	-4,585	232,211	114,224
166,706	-4,433	232,151	114,304
167,721	-4,251	231,883	114,306
168,735	-4,249	231,685	114,200
169,750	-4,430	231,617	114,013
170,764	-4,475	231,483	113,902
171,779	-4,473	231,390	113,847
172,794	-4,306	231,144	113,848
173,808	-4,703	230,885	113,398
174,823	-5,163	230,651	112,912
175,837	-5,302	230,413	112,677
176,852	-4,920	230,409	112,964
177,867	-4,654	230,389	113,153
178,881	-4,518	230,214	113,162
179,896	-4,412	230,001	113,131
180,910	-4,480	229,865	113,001
181,925	-4,235	229,732	113,117
182,940	-4,559	229,686	112,831
183,954	-4,259	229,252	112,842
184,969	-4,295	229,366	112,860
185,983	-4,179	229,101	112,810
186,998	-4,141	229,022	112,790
188,013	-4,308	228,894	112,587
189,027	-4,359	228,610	112,398
190,042	-4,114	228,608	112,577
191,056	-4,249	228,334	112,328
192,071	-4,333	228,147	112,160
193,086	-4,301	228,079	112,142
194,100	-4,328	227,866	112,006
195,115	-4,461	227,520	111,723
196,129	-5,502	227,278	110,791
197,144	-2,502	228,194	113,551
198,159	1,875	229,405	117,543
199,173	4,182	229,912	119,585
200,188	4,386	229,857	119,704
201,202	4,348	229,807	119,638
202,217	4,578	229,557	119,675
203,232	4,686	229,528	119,733
204,246	4,586	229,414	119,586
205,261	5,068	229,028	119,746
206,275	4,987	229,148	119,735
207,290	4,971	229,104	119,689
208,304	5,134	228,681	119,583
209,319	5,008	228,674	119,472
210,334	4,788	228,453	119,176
211,348	4,647	228,291	118,973
212,363	4,160	227,920	118,394
213,377	4,047	227,661	118,163
214,392	3,858	227,572	117,961
215,407	4,166	227,394	118,094
216,421	4,412	227,320	118,234
217,436	4,129	227,122	117,903
218,450	4,099	226,776	117,691
219,465	4,009	226,771	117,609
220,480	4,065	226,636	117,571
221,494	3,881	226,648	117,426
222,509	4,142	226,362	117,466
223,523	4,169	226,112	117,347
224,538	4,009	226,039	117,177
225,553	4,039	225,925	117,130
226,567	4,060	225,844	117,093
227,582	4,616	225,672	117,416
228,596	4,508	225,561	117,266
229,611	4,099	225,477	116,901
230,626	4,013	225,166	116,665
231,640	3,811	225,177	116,506
232,655	4,192	225,108	116,749
233,669	4,708	224,903	117,023
234,684	4,656	224,926	116,986
235,699	4,489	224,577	116,667
236,713	4,228	224,407	116,372
237,728	4,156	224,278	116,239
238,742	4,313	223,938	116,171
239,757	3,951	223,898	115,868
240,772	4,096	223,718	115,873
241,786	3,829	223,676	115,641
242,801	4,143	223,652	115,854
243,815	4,472	223,469	115,996
244,830	4,401	223,406	115,900
245,844	4,273	223,108	115,639
246,859	4,312	222,913	115,557
247,874	4,104	222,986	115,428
248,888	4,350	222,696	115,452
249,903	4,166	222,621	115,264
250,917	4,238	222,366	115,177
251,932	3,972	222,245	114,905
252,947	4,157	221,914	114,861
253,961	4,028	221,776	114,684
254,976	4,141	221,757	114,747
255,990	3,987	221,716	114,602
257,005	4,374	221,562	114,800
258,020	4,261	221,534	114,691
259,034	4,568	221,346	114,811
260,049	4,434	221,198	114,626
261,063	4,332	220,956	114,414
262,078	4,431	220,856	114,425
263,093	4,440	220,889	114,439
264,107	4,470	220,546	114,273
265,122	4,614	220,491	114,341
266,136	4,665	220,293	114,266
267,151	4,679	220,141	114,187
268,166	4,182	219,939	113,705
269,180	3,943	219,642	113,366
270,195	4,030	219,631	113,414
271,209	3,943	219,476	113,260
272,224	4,146	219,225	113,269
273,239	4,297	219,208	113,362
274,253	4,027	219,066	113,079
275,268	4,056	218,782	112,944
276,282	3,690	218,778	112,663
277,297	3,674	218,551	112,525
278,312	3,777	218,530	112,579
279,326	4,017	218,365	112,660
280,341	4,233	218,169	112,707
281,355	4,283	218,099	112,697
282,370	4,262	217,964	112,602
283,384	3,962	217,787	112,282
284,399	3,874	217,550	112,086
285,414	3,982	217,391	112,072
286,428	4,009	217,362	112,067
287,443	4,364	217,291	112,278
288,457	4,138	217,277	112,097
289,472	4,003	216,999	111,846
290,487	3,778	216,662	111,498
291,501	3,729	216,550	111,395
292,516	3,779	216,487	111,389
293,530	3,860	216,422	111,404
294,545	3,880	216,174	111,281
295,560	4,158	216,056	111,412
296,574	4,137	216,036	111,376
297,589	4,216	215,913	111,360
298,603	4,135	215,782	111,224
299,618	4,240	215,612	111,202
300,633	4,043	215,471	110,978
301,647	4,300	215,390	111,111
302,662	4,459	215,182	111,109
303,676	4,531	215,043	111,079
304,691	4,378	214,964	110,917
305,706	4,550	214,811	110,953
306,720	4,281	214,667	110,675
307,735	3,985	214,610	110,423
308,749	3,978	214,386	110,293
309,764	4,207	214,324	110,416
310,779	4,279	214,205	110,396
311,793	4,238	214,049	110,276
312,808	4,154	213,759	110,057
313,822	4,353	213,599	110,108
314,837	4,233	213,409	109,914
315,852	4,020	213,310	109,701
316,866	4,087	213,217	109,691
317,881	3,994	213,151	109,582
318,895	4,343	213,016	109,751
319,910	4,198	212,906	109,581
320,925	3,721	212,710	109,131
321,939	3,525	212,451	108,850
322,954	3,579	212,500	108,904
323,968	4,133	212,480	109,277
324,983	4,011	212,270	109,072
325,997	4,386	212,118	109,250
327,012	4,142	211,985	108,999
328,027	4,166	211,866	108,946
329,041	4,326	211,774	109,001
330,056	4,618	211,636	109,127
331,070	4,129	211,401	108,651
332,085	3,898	211,138	108,343
333,100	3,808	211,139	108,270
334,114	4,057	211,031	108,381
335,129	4,137	210,897	108,359
336,143	3,854	210,679	108,038
337,158	3,673	210,505	107,812
338,173	3,982	210,415	107,974
339,187	4,188	210,248	108,022
340,202	3,901	210,067	107,719
341,216	3,947	210,032	107,724
342,231	3,972	209,788	107,606
343,246	3,756	209,789	107,446
344,260	3,829	209,681	107,432
345,275	4,066	209,455	107,472
346,289	4,248	209,306	107,513
347,304	4,201	209,306	107,470
348,319	3,987	209,057	107,184
349,333	3,829	209,084	107,079
350,348	4,221	208,822	107,207
351,362	4,486	208,823	107,383
352,377	4,290	208,629	107,137
353,392	3,979	208,407	106,798
354,406	4,254	208,238	106,893
355,421	193,057	1346,243	1432,084
356,435	153,996	1484,989	1432,204
