DTS Sentinel unit serial number:	SN410029Multiplexer serial number:	ORYXHardware model number:	OX2-SRSoftware version number:	ORYX F/W v4,00 Oryx Data Collector v3.7.2.0data status	okinstallation	B6 Nyhavnadifferential loss correction	single-endedforward channel	channel 2reverse channel	N/Adate	2023/12/08time	21:25:08forward acquisition time	300,00reverse acquisition time	0,00gamma	499,1914k internal	0,3158k external	0,3158temperature offset calibration	1,0000default loss term (dB/km)	0,3820temperature slope calibration	1,0000multiplexer offset coefficient	1,0000multiplexer slope coefficient	1,0000fibre end	0,00T internal ref (°C)	15,23T ext. ref 1 (°C)	-1,33T ext. ref 2 (°C)	-1,33length (m)	temperature (°C)	Stokes	anti-Stokes-744,400	142,257	0,072	-0,070
-743,385	-98,900	-0,255	0,047
-742,371	-158,287	0,119	0,005
-741,356	-45,796	-0,109	0,039
-740,342	44,791	0,116	0,078
-739,327	-75,562	-0,270	0,070
-738,312	800,000	0,103	0,262
-737,298	-92,634	-0,374	-0,077
-736,283	108,045	0,092	0,081
-735,269	-55,685	-0,243	0,080
-734,254	-200,000	0,006	0,197
-733,239	-78,735	-0,492	-0,123
-732,225	-123,638	0,203	0,023
-731,210	135,046	0,136	-0,130
-730,196	800,000	0,026	0,073
-729,181	-200,000	-0,004	0,117
-728,167	75,736	0,097	0,075
-727,152	-2,561	-0,090	0,046
-726,137	30,487	-0,083	0,052
-725,123	800,000	-0,060	-0,138
-724,108	-200,000	0,015	-0,064
-723,094	367,770	-0,049	-0,073
-722,079	143,421	0,087	-0,085
-721,064	213,537	-0,024	-0,028
-720,050	-119,566	0,165	0,021
-719,035	-200,000	0,026	-0,111
-718,021	-200,000	-0,032	-0,123
-717,006	-200,000	-0,027	-0,092
-715,991	150,792	-0,149	-0,150
-714,977	-25,271	-0,036	-0,015
-713,962	60,202	0,077	-0,056
-712,948	124,008	-0,020	0,019
-711,933	800,000	0,017	0,053
-710,918	58,789	-0,094	0,068
-709,904	407,387	-0,009	0,014
-708,889	504,537	-0,058	-0,099
-707,875	759,074	-0,052	-0,105
-706,860	-200,000	0,033	-0,174
-705,845	800,000	-0,082	0,188
-704,831	-200,000	0,007	0,063
-703,816	-49,202	0,059	-0,021
-702,802	-200,000	-0,003	-0,111
-701,787	-119,709	0,069	0,009
-700,772	30,894	-0,067	-0,042
-699,758	684,335	-0,012	-0,023
-698,743	19,139	0,070	0,041
-697,729	95,138	0,038	0,032
-696,714	27,498	-0,112	0,069
-695,699	700,377	-0,040	-0,077
-694,685	-21,512	0,039	0,017
-693,670	-200,000	-0,001	-0,095
-692,656	800,000	-0,035	0,090
-691,641	-200,000	0,068	0,252
-690,627	103,423	-0,067	-0,058
-689,612	-28,722	0,105	0,044
-688,597	144,972	0,027	0,027
-687,583	800,000	-0,047	-0,133
-686,568	57,745	-0,075	-0,054
-685,554	800,000	-0,050	-0,142
-684,539	-82,188	0,034	0,008
-683,524	760,791	-0,029	-0,058
-682,510	800,000	0,024	0,061
-681,495	-200,000	-0,009	0,031
-680,481	479,750	-0,057	0,095
-679,466	713,892	-0,011	0,021
-678,451	490,977	0,034	-0,057
-677,437	-200,000	-0,011	-0,077
-676,422	1,646	0,131	0,069
-675,408	800,000	0,015	-0,042
-674,393	-11,186	0,036	0,017
-673,378	-85,208	-0,164	0,037
-672,364	288,800	-0,044	-0,058
-671,349	39,973	0,036	-0,024
-670,335	9,996	-0,078	0,043
-669,320	800,000	-0,031	0,086
-668,305	35,892	0,111	-0,072
-667,291	288,316	-0,091	-0,122
-666,276	298,179	-0,100	-0,136
-665,262	-25,821	-0,062	-0,027
-664,247	-200,000	0,001	-0,220
-663,232	123,949	-0,105	-0,097
-662,218	104,791	0,036	-0,031
-661,203	-196,840	-0,146	0,001
-660,189	-200,000	-0,024	0,166
-659,174	72,357	0,146	0,112
-658,159	-108,518	-0,102	0,016
-657,145	53,039	-0,079	-0,056
-656,130	-173,097	0,046	-0,001
-655,116	-39,161	0,103	-0,039
-654,101	800,000	-0,016	0,035
-653,086	-200,000	-0,012	0,069
-652,072	-195,517	-0,133	-0,001
-651,057	-38,157	-0,106	0,041
-650,043	186,496	-0,046	-0,050
-649,028	-200,000	-0,001	0,011
-648,014	91,811	0,059	0,049
-646,999	-77,964	-0,083	0,021
-645,984	-170,297	0,130	0,003
-644,970	122,797	-0,194	0,178
-643,955	186,260	-0,059	-0,064
-642,941	203,243	-0,007	-0,008
-641,926	425,910	0,023	-0,036
-640,911	-156,948	0,069	0,003
-639,897	-200,000	0,004	-0,073
-638,882	69,239	-0,132	-0,100
-637,868	-200,000	0,016	-0,082
-636,853	-76,813	-0,098	-0,025
-635,838	-57,864	-0,163	-0,052
-634,824	-128,469	-0,057	0,006
-633,809	-110,847	-0,026	0,004
-632,795	800,000	0,072	-0,187
-631,780	93,140	0,034	-0,028
-630,765	-21,134	-0,148	0,066
-629,751	800,000	0,022	0,056
-628,736	-85,356	-0,084	-0,019
-627,722	77,678	0,031	0,024
-626,707	-166,890	-0,089	0,003
-625,692	15,020	-0,029	0,016
-624,678	26,945	-0,081	-0,050
-623,663	800,000	-0,032	-0,069
-622,649	198,628	0,042	-0,047
-621,634	-115,843	0,146	0,020
-620,619	46,092	-0,023	0,016
-619,605	78,301	-0,112	-0,088
-618,590	-131,064	-0,059	0,006
-617,576	-200,000	-0,008	-0,044
-616,561	290,900	0,023	0,030
-615,546	-200,000	0,049	-0,221
-614,532	2,230	-0,234	-0,124
-613,517	518,840	-0,042	-0,072
-612,503	-200,000	0,004	0,054
-611,488	208,312	0,019	-0,022
-610,474	-200,000	-0,008	-0,027
-609,459	774,919	0,042	-0,084
-608,444	-51,671	0,028	-0,010
-607,430	-13,754	-0,080	-0,038
-606,415	56,091	0,072	-0,051
-605,401	45,292	-0,058	0,039
-604,386	-200,000	-0,037	0,132
-603,371	149,138	0,103	0,102
-602,357	-124,532	0,124	-0,014
-601,342	-159,512	-0,131	0,005
-600,328	-79,555	0,069	-0,017
-599,313	-82,938	-0,106	0,025
-598,298	24,576	-0,055	-0,033
-597,284	30,774	0,049	-0,031
-596,269	202,223	-0,074	0,084
-595,255	-73,127	-0,073	-0,019
-594,240	800,000	-0,038	-0,082
-593,225	-141,197	-0,076	0,006
-592,211	800,000	-0,038	-0,084
-591,196	800,000	-0,029	-0,084
-590,182	494,532	-0,050	-0,084
-589,167	800,000	0,030	0,079
-588,152	-200,000	-0,003	-0,089
-587,138	-200,000	-0,009	-0,077
-586,123	394,821	-0,061	0,094
-585,109	307,873	0,046	-0,063
-584,094	57,333	-0,105	-0,075
-583,079	12,882	0,070	0,040
-582,065	-200,000	0,003	-0,029
-581,050	-108,554	0,110	0,017
-580,036	28,132	-0,017	-0,011
-579,021	187,848	-0,061	-0,067
-578,006	-41,303	-0,045	0,017
-576,992	-85,197	0,039	0,009
-575,977	-107,576	0,089	0,014
-574,963	-200,000	-0,023	-0,079
-573,948	800,000	0,002	-0,007
-572,934	286,551	-0,057	-0,076
-571,919	491,303	-0,100	-0,169
-570,904	512,328	0,086	-0,147
-569,890	800,000	0,031	0,065
-568,875	40,714	0,027	-0,018
-567,861	242,059	0,088	0,108
-566,846	-200,000	-0,007	-0,075
-565,831	-200,000	-0,010	-0,038
-564,817	277,795	0,034	-0,045
-563,802	696,871	-0,046	-0,089
-562,788	800,000	-0,058	0,118
-561,773	800,000	-0,039	0,082
-560,758	-114,501	-0,105	0,015
-559,744	44,098	0,103	0,069
-558,729	-200,000	0,036	0,153
-557,715	381,112	-0,069	0,105
-556,700	40,403	-0,134	-0,088
-555,685	597,902	-0,082	-0,149
-554,671	-200,000	0,011	-0,094
-553,656	3,773	0,074	0,040
-552,642	800,000	-0,020	0,051
-551,627	800,000	0,037	0,081
-550,612	-200,000	0,010	-0,039
-549,598	-132,378	-0,143	-0,013
-548,583	800,000	0,018	-0,047
-547,569	-200,000	-0,004	0,233
-546,554	-92,208	-0,108	0,022
-545,539	-200,000	-0,004	0,046
-544,525	382,163	-0,080	0,121
-543,510	-150,878	0,005	-0,000
-542,496	800,000	0,027	0,068
-541,481	-59,385	-0,075	-0,023
-540,466	104,122	-0,045	0,038
-539,452	800,000	-0,009	0,023
-538,437	-82,015	-0,027	-0,006
-537,423	109,503	-0,093	-0,081
-536,408	-11,692	-0,089	-0,043
-535,393	-12,422	-0,033	0,016
-534,379	-81,943	-0,117	0,028
-533,364	-44,199	0,060	-0,022
-532,350	-200,000	0,006	0,077
-531,335	-60,773	-0,064	-0,020
-530,321	-200,000	0,004	0,026
-529,306	-33,729	0,082	-0,033
-528,291	-7,371	-0,126	0,062
-527,277	-101,394	-0,047	0,008
-526,262	205,587	0,064	0,073
-525,248	499,581	0,015	0,026
-524,233	4,974	0,114	-0,061
-523,218	-200,000	-0,000	-0,053
-522,204	128,000	-0,063	0,058
-521,189	-155,894	0,134	-0,006
-520,175	18,854	0,110	0,064
-519,160	-200,000	-0,015	-0,076
-518,145	-53,412	-0,141	-0,047
-517,131	-72,088	0,129	-0,035
-516,116	800,000	-0,048	0,103
-515,102	149,836	0,091	0,090
-514,087	-18,156	0,041	-0,019
-513,072	-200,000	-0,035	-0,124
-512,058	-166,718	-0,119	0,004
-511,043	-200,000	-0,004	-0,033
-510,029	-29,723	0,142	0,059
-509,014	-200,000	0,007	0,080
-507,999	167,879	-0,046	-0,048
-506,985	-200,000	-0,007	0,053
-505,970	-101,822	0,064	-0,011
-504,956	493,045	-0,059	0,099
-503,941	-200,000	0,030	0,108
-502,926	112,107	0,104	0,092
-501,912	800,000	0,022	0,069
-500,897	629,391	0,054	0,101
-499,883	9,273	-0,041	0,023
-498,868	-200,000	0,007	-0,025
-497,853	-200,000	0,001	0,048
-496,839	59,980	-0,048	-0,034
-495,824	37,526	0,124	0,080
-494,810	98,809	0,104	0,088
-493,795	155,759	-0,097	-0,097
-492,781	-200,000	-0,057	-0,199
-491,766	-200,000	0,002	-0,051
-490,751	-27,670	-0,067	0,028
-489,737	800,000	0,057	0,153
-488,722	-35,159	-0,049	0,019
-487,708	-38,185	0,048	0,019
-486,693	-11,127	0,085	0,041
-485,678	206,121	-0,109	0,124
-484,664	138,502	-0,082	-0,079
-483,649	-25,362	-0,085	0,036
-482,635	-5,226	-0,053	-0,026
-481,620	-77,527	-0,020	0,005
-480,605	-200,000	0,007	-0,027
-479,591	-20,657	0,120	0,053
-478,576	8,169	-0,107	-0,059
-477,562	-200,000	-0,000	-0,084
-476,547	-200,000	0,020	-0,139
-475,532	249,857	0,094	-0,117
-474,518	87,916	-0,065	-0,053
-473,503	800,000	0,035	-0,093
-472,489	-9,519	-0,077	0,037
-471,474	94,607	-0,019	-0,016
-470,459	800,000	0,058	-0,125
-469,445	-73,657	0,031	0,008
-468,430	-200,000	0,027	0,099
-467,416	-35,707	0,056	0,022
-466,401	126,589	-0,026	-0,024
-465,386	218,151	-0,032	-0,037
-464,372	515,665	-0,018	-0,031
-463,357	-200,000	0,032	0,000
-462,343	146,711	0,045	-0,044
-461,328	-63,265	-0,095	0,028
-460,313	-200,000	0,004	0,113
-459,299	-94,786	-0,009	0,002
-458,284	195,076	0,045	0,050
-457,270	80,444	-0,085	-0,066
-456,255	5,131	-0,023	-0,012
-455,241	-69,939	0,122	-0,034
-454,226	-200,000	0,028	0,108
-453,211	62,636	0,055	0,040
-452,197	800,000	-0,035	0,089
-451,182	161,270	-0,060	0,061
-450,168	-103,347	0,084	-0,014
-449,153	-54,540	0,090	-0,029
-448,138	75,595	-0,014	0,010
-447,124	401,551	0,058	-0,089
-446,109	209,928	0,029	0,033
-445,095	380,262	-0,010	0,015
-444,080	-200,000	0,042	0,155
-443,065	-200,000	-0,011	0,040
-442,051	506,240	0,025	-0,043
-441,036	-200,000	-0,002	-0,137
-440,022	-174,365	-0,198	-0,004
-439,007	203,172	0,073	0,083
-437,992	-200,000	0,025	0,097
-436,978	-200,000	0,001	0,127
-435,963	-36,944	0,052	-0,020
-434,949	125,849	0,022	-0,020
-433,934	22,011	-0,082	-0,048
-432,919	312,896	0,011	0,015
-431,905	69,190	-0,094	-0,070
-430,890	-13,346	-0,051	-0,024
-429,876	143,726	0,063	-0,062
-428,861	54,497	-0,029	-0,020
-427,846	691,553	0,060	-0,116
-426,832	348,240	0,088	0,127
-425,817	-200,000	-0,001	-0,016
-424,803	-200,000	-0,024	-0,101
-423,788	-110,080	0,126	-0,019
-422,773	-90,226	0,150	-0,031
-421,759	232,882	-0,065	0,078
-420,744	4,465	0,048	0,025
-419,730	147,535	-0,027	-0,026
-418,715	15,417	-0,098	0,056
-417,701	-200,000	0,001	-0,028
-416,686	800,000	-0,021	-0,058
-415,671	54,833	0,033	0,023
-414,657	-190,172	0,116	-0,001
-413,642	-192,456	0,022	0,000
-412,628	-95,491	-0,170	-0,033
-411,613	-151,503	0,104	0,006
-410,598	800,000	0,030	-0,060
-409,584	65,657	-0,046	-0,034
-408,569	800,000	0,017	-0,036
-407,555	-198,421	0,063	0,000
-406,540	-200,000	0,012	-0,138
-405,525	-136,388	0,064	-0,005
-404,511	800,000	-0,054	-0,123
-403,496	800,000	-0,034	-0,097
-402,482	37,112	0,064	-0,041
-401,467	90,686	0,107	0,087
-400,452	-200,000	-0,011	0,054
-399,438	463,282	0,008	0,014
-398,423	-106,523	-0,068	-0,011
-397,409	140,270	-0,121	-0,116
-396,394	800,000	-0,030	-0,070
-395,379	-200,000	-0,006	-0,127
-394,365	800,000	0,030	0,077
-393,350	118,455	-0,018	-0,016
-392,336	-16,914	-0,148	0,068
-391,321	292,162	-0,065	-0,087
-390,306	-65,095	-0,073	0,021
-389,292	42,106	-0,130	-0,085
-388,277	800,000	0,026	-0,072
-387,263	-200,000	0,007	0,062
-386,248	500,307	0,018	-0,031
-385,233	-146,005	-0,027	-0,002
-384,219	0,209	-0,081	-0,042
-383,204	-30,621	0,125	-0,051
-382,190	-200,000	0,017	0,117
-381,175	-200,000	0,011	0,105
-380,160	-200,000	0,010	0,128
-379,146	196,401	-0,079	-0,088
-378,131	85,271	0,069	0,055
-377,117	-200,000	-0,022	-0,089
-376,102	-200,000	0,012	-0,072
-375,088	118,633	-0,144	0,129
-374,073	583,423	-0,041	-0,073
-373,058	289,313	0,086	-0,114
-372,044	41,969	0,159	-0,105
-371,029	415,174	0,067	0,104
-370,015	138,925	0,055	0,053
-369,000	-58,797	0,039	-0,012
-367,985	253,631	-0,071	0,088
-366,971	438,911	0,008	-0,013
-365,956	800,000	0,030	0,094
-364,942	582,467	0,096	0,171
-363,927	-200,000	0,033	0,202
-362,912	-200,000	0,001	0,089
-361,898	110,810	0,077	0,067
-360,883	-200,000	-0,016	-0,054
-359,869	-200,000	-0,021	-0,078
-358,854	465,123	0,097	0,158
-357,839	-200,000	0,024	0,087
-356,825	360,482	0,052	0,076
-355,810	800,000	0,008	0,018
-354,796	518,186	0,034	-0,058
-353,781	102,705	0,039	-0,033
-352,766	-154,265	0,077	0,004
-351,752	-145,975	0,102	0,006
-350,737	-200,000	0,013	0,108
-349,723	416,922	0,052	0,080
-348,708	-42,312	0,082	-0,030
-347,693	-20,465	-0,053	0,023
-346,679	-35,142	-0,158	-0,062
-345,664	-12,107	-0,039	0,019
-344,650	176,084	-0,012	0,013
-343,635	70,033	-0,017	0,013
-342,620	-200,000	-0,011	-0,083
-341,606	50,515	-0,048	0,033
-340,591	-67,955	0,070	-0,020
-339,577	-185,196	-0,035	0,000
-338,562	453,182	-0,078	0,125
-337,548	353,738	-0,004	0,006
-336,533	314,102	0,007	0,010
-335,518	800,000	-0,036	0,105
-334,504	-121,629	-0,096	-0,011
-333,489	-200,000	0,015	-0,079
-332,475	800,000	-0,025	0,054
-331,460	-14,955	-0,117	0,054
-330,445	0,155	0,073	0,037
-329,431	-33,903	0,099	0,039
-328,416	-200,000	-0,005	-0,031
-327,402	-150,603	0,047	0,003
-326,387	720,052	-0,030	0,058
-325,372	279,099	0,081	0,106
-324,358	324,056	0,034	-0,047
-323,343	-200,000	0,024	-0,118
-322,329	52,955	0,066	0,045
-321,314	800,000	-0,015	0,039
-320,299	-107,014	-0,050	0,008
-319,285	-39,801	-0,186	0,070
-318,270	-148,097	0,094	-0,006
-317,256	-200,000	-0,024	-0,165
-316,241	-200,000	-0,018	0,087
-315,226	-200,000	-0,008	-0,036
-314,212	-200,000	-0,008	0,037
-313,197	-70,315	0,132	-0,036
-312,183	-47,337	0,107	0,038
-311,168	-152,449	-0,064	-0,003
-310,153	2,702	-0,110	-0,058
-309,139	-200,000	0,013	-0,111
-308,124	249,412	-0,038	-0,047
-307,110	69,687	-0,028	0,021
-306,095	514,770	-0,059	0,100
-305,080	-8,645	-0,012	0,006
-304,066	-84,789	0,083	-0,019
-303,051	-200,000	-0,017	-0,071
-302,037	-38,674	0,052	0,020
-301,022	-0,971	0,171	-0,087
-300,008	-72,908	-0,182	-0,048
-298,993	-200,000	0,019	-0,165
-297,978	-200,000	-0,007	0,100
-296,964	208,847	0,073	0,082
-295,949	591,758	-0,021	0,038
-294,935	-200,000	0,020	0,124
-293,920	-44,487	-0,097	0,035
-292,905	-200,000	-0,009	0,037
-291,891	-200,000	-0,024	0,087
-290,876	800,000	-0,034	0,082
-289,862	800,000	0,016	-0,038
-288,847	382,281	-0,090	-0,135
-287,832	193,495	0,069	-0,076
-286,818	443,336	0,057	-0,091
-285,803	800,000	0,043	0,096
-284,789	-200,000	0,006	0,235
-283,774	26,102	0,008	-0,005
-282,759	-200,000	-0,011	-0,089
-281,745	800,000	-0,011	0,023
-280,730	-200,000	0,031	-0,110
-279,716	163,510	0,043	0,044
-278,701	-73,981	-0,131	-0,034
-277,686	-200,000	0,010	0,041
-276,672	800,000	0,018	0,054
-275,657	-200,000	-0,053	0,172
-274,643	2,722	-0,103	0,054
-273,628	800,000	0,022	-0,045
-272,613	405,309	-0,069	0,105
-271,599	-200,000	0,004	0,083
-270,584	299,280	-0,019	-0,025
-269,570	-200,000	-0,007	-0,067
-268,555	289,806	-0,038	-0,049
-267,540	71,181	0,066	0,049
-266,526	161,599	-0,073	0,074
-265,511	800,000	0,010	-0,023
-264,497	-13,352	0,185	-0,087
-263,482	800,000	-0,047	0,096
-262,467	-83,836	-0,064	0,015
-261,453	-200,000	0,006	-0,039
-260,438	112,230	-0,060	0,053
-259,424	800,000	0,019	-0,055
-258,409	0,571	-0,126	-0,065
-257,395	-151,715	0,131	0,007
-256,380	-108,909	0,107	0,016
-255,365	215,843	0,114	0,132
-254,351	23,038	-0,093	0,055
-253,336	15,705	0,023	0,013
-252,322	330,750	0,030	0,041
-251,307	-55,230	0,045	-0,015
-250,292	-58,819	-0,086	-0,027
-249,278	-12,992	-0,051	0,024
-248,263	-20,038	0,094	-0,042
-247,249	-156,613	0,095	-0,004
-246,234	-200,000	-0,028	0,113
-245,219	-200,000	-0,007	0,064
-244,205	305,292	-0,030	-0,041
-243,190	-200,000	0,000	-0,064
-242,176	800,000	0,063	0,181
-241,161	33,360	0,046	0,029
-240,146	-31,948	0,074	-0,030
-239,132	-84,077	-0,088	-0,020
-238,117	-75,513	-0,081	0,021
-237,103	-200,000	-0,006	0,037
-236,088	-72,820	0,248	0,066
-235,073	-31,755	0,061	-0,024
-234,059	91,918	0,088	0,071
-233,044	673,656	0,069	0,131
-232,030	97,141	-0,027	-0,022
-231,015	-107,128	0,085	-0,013
-230,000	-20,305	-0,145	-0,064
-228,986	225,377	0,053	-0,062
-227,971	800,000	0,063	-0,172
-226,957	-109,364	-0,031	0,005
-225,942	800,000	0,035	0,078
-224,927	149,828	-0,081	0,079
-223,913	497,605	-0,029	-0,049
-222,898	-96,317	0,057	-0,011
-221,884	800,000	0,020	0,054
-220,869	-200,000	0,013	-0,135
-219,855	800,000	0,069	0,141
-218,840	82,087	0,111	-0,087
-217,825	-200,000	-0,012	-0,067
-216,811	-93,680	-0,066	0,013
-215,796	123,164	-0,105	0,095
-214,782	71,670	0,044	-0,033
-213,767	129,441	0,074	-0,068
-212,752	721,559	0,062	0,120
-211,738	111,732	-0,050	-0,043
-210,723	-91,248	0,148	0,030
-209,709	4,823	-0,036	0,019
-208,694	-200,000	0,003	-0,104
-207,679	-200,000	0,013	-0,082
-206,665	108,231	0,017	-0,015
-205,650	396,098	0,038	-0,057
-204,636	53,857	0,168	0,116
-203,621	-200,000	0,007	-0,112
-202,606	26,569	0,058	-0,035
-201,592	-118,225	0,085	0,011
-200,577	-159,331	0,123	0,005
-199,563	774,140	0,053	0,104
-198,548	-200,000	-0,007	-0,028
-197,533	-72,679	0,132	-0,035
-196,519	-7,261	-0,041	0,020
-195,504	7,598	-0,129	-0,069
-194,490	-200,000	-0,028	-0,105
-193,475	2,427	-0,038	-0,020
-192,460	800,000	-0,025	-0,076
-191,446	4,632	0,123	-0,065
-190,431	-200,000	-0,021	-0,112
-189,417	-200,000	0,009	0,031
-188,402	93,296	0,030	0,025
-187,387	-1,569	0,068	0,035
-186,373	107,560	-0,138	-0,118
-185,358	515,039	-0,097	0,164
-184,344	-200,000	0,004	-0,077
-183,329	148,786	0,062	-0,061
-182,315	111,122	0,100	-0,087
-181,300	48,518	0,039	0,026
-180,285	-200,000	0,010	-0,064
-179,271	99,521	0,081	-0,068
-178,256	-85,669	0,041	0,009
-177,242	144,394	-0,032	-0,031
-176,227	-200,000	0,002	-0,060
-175,212	75,911	0,082	0,062
-174,198	-37,498	0,054	-0,021
-173,183	-200,000	-0,010	-0,056
-172,169	374,724	-0,051	-0,076
-171,154	224,791	0,072	0,084
-170,139	800,000	0,025	0,062
-169,125	207,514	-0,044	0,050
-168,110	294,646	0,059	0,078
-167,096	126,862	-0,031	0,028
-166,081	54,871	0,067	-0,047
-165,066	-9,774	0,058	0,028
-164,052	-25,770	-0,104	-0,044
-163,037	128,168	0,070	0,065
-162,023	182,238	-0,033	0,035
-161,008	59,788	0,047	-0,033
-159,993	270,948	-0,045	-0,057
-158,979	-75,332	-0,133	-0,034
-157,964	68,085	0,069	0,051
-156,950	151,826	-0,050	0,049
-155,935	-120,502	-0,095	-0,012
-154,920	-81,487	-0,047	-0,011
-153,906	-44,921	0,087	0,031
-152,891	-27,477	-0,148	-0,062
-151,877	-200,000	-0,039	-0,143
-150,862	161,167	-0,125	-0,126
-149,847	29,942	0,095	0,058
-148,833	55,528	0,064	0,044
-147,818	220,790	0,055	0,064
-146,804	800,000	0,053	-0,125
-145,789	800,000	-0,029	-0,087
-144,775	-144,322	0,119	0,008
-143,760	161,476	-0,105	0,106
-142,745	52,250	-0,038	-0,026
-141,731	-50,956	0,102	-0,034
-140,716	-145,728	0,168	-0,011
-139,702	160,000	-0,027	0,027
-138,687	800,000	0,080	0,172
-137,672	107,649	0,066	-0,057
-136,658	51,629	-0,034	0,023
-135,643	-200,000	-0,011	-0,043
-134,629	-200,000	-0,012	-0,060
-133,614	800,000	0,015	-0,042
-132,599	40,633	0,059	0,038
-131,585	-200,000	-0,030	0,110
-130,570	-200,000	-0,018	-0,059
-129,556	-200,000	-0,018	-0,059
-128,541	-200,000	0,008	-0,041
-127,526	-14,027	0,082	-0,038
-126,512	87,255	0,061	-0,048
-125,497	800,000	0,056	0,112
-124,483	-200,000	-0,012	0,084
-123,468	800,000	0,034	0,100
-122,453	67,094	0,034	-0,025
-121,439	-200,000	0,000	-0,049
-120,424	273,982	0,061	0,078
-119,410	746,388	-0,025	0,048
-118,395	-36,403	0,068	0,026
-117,380	364,234	-0,035	0,050
-116,366	1,750	-0,130	-0,067
-115,351	2,688	0,153	-0,080
-114,337	800,000	0,036	-0,108
-113,322	150,014	0,024	0,024
-112,307	-200,000	0,033	0,104
-111,293	800,000	0,029	0,062
-110,278	-200,000	-0,027	0,120
-109,264	-4,929	0,134	-0,066
-108,249	-200,000	0,004	-0,018
-107,234	-107,221	-0,077	-0,012
-106,220	-29,608	-0,018	-0,007
-105,205	800,000	0,040	0,099
-104,191	544,369	-0,034	0,059
-103,176	238,993	0,114	0,137
-102,162	12,310	0,045	-0,025
-101,147	-200,000	-0,002	0,016
-100,132	-200,000	0,001	-0,053
-99,118	369,165	0,046	-0,067
-98,103	-200,000	-0,019	0,085
-97,089	782,521	0,064	0,127
-96,074	-120,725	0,141	0,017
-95,059	39,714	0,099	-0,064
-94,045	800,000	0,011	-0,025
-93,030	131,228	-0,114	0,105
-92,016	477,595	-0,100	-0,163
-91,001	-200,000	0,008	0,032
-89,986	141,286	0,089	0,084
-88,972	-200,000	0,020	0,142
-87,957	-200,000	-0,014	0,066
-86,943	352,915	0,009	-0,013
-85,928	-42,913	-0,109	-0,040
-84,913	-73,326	-0,050	0,013
-83,899	-55,955	0,057	-0,018
-82,884	310,675	0,035	0,047
-81,870	-116,586	0,058	0,008
-80,855	-27,775	0,036	-0,015
-79,840	-43,097	-0,062	-0,023
-78,826	-2,149	-0,020	-0,010
-77,811	-200,000	0,003	-0,051
-76,797	-121,154	0,132	-0,016
-75,782	2,251	0,051	0,026
-74,767	202,578	0,061	-0,067
-73,753	800,000	0,076	0,170
-72,738	-27,774	-0,126	-0,052
-71,724	359,346	0,093	-0,133
-70,709	-200,000	0,006	-0,178
-69,694	80,400	-0,171	-0,132
-68,680	639,596	0,051	0,094
-67,665	-74,102	-0,032	0,008
-66,651	800,000	-0,019	-0,052
-65,636	33,257	0,084	0,052
-64,622	294,114	-0,070	-0,093
-63,607	-36,911	-0,127	0,049
-62,592	-200,000	0,001	-0,037
-61,578	-200,000	-0,010	-0,082
-60,563	86,018	-0,104	0,082
-59,549	-200,000	0,023	0,091
-58,534	15,284	-2,132	-1,197
-57,519	-200,000	-0,059	-0,745
-56,505	-200,000	-1,319	-4,948
-55,490	55,386	0,914	0,634
-54,476	800,000	5,228	11,931
-53,461	-200,000	17,774	290,457
-52,446	800,000	726,654	2230,490
-51,432	536,739	1639,770	2804,932
-50,417	109,655	1629,430	1401,226
-49,403	73,212	1283,578	962,255
-48,388	31,521	1026,498	631,769
-47,373	19,978	988,305	570,232
-46,359	18,371	976,305	558,025
-45,344	15,550	972,367	546,528
-44,330	15,757	970,877	546,345
-43,315	15,243	969,268	543,741
-42,300	15,256	968,112	543,115
-41,286	15,256	967,095	542,521
-40,271	15,236	966,076	541,863
-39,257	15,229	965,319	541,396
-38,242	15,295	964,386	541,065
-37,227	15,318	963,503	540,622
-36,213	15,278	962,651	539,995
-35,198	15,185	961,834	539,214
-34,184	15,274	960,938	538,975
-33,169	15,222	960,229	538,390
-32,154	15,281	959,121	537,939
-31,140	15,358	958,164	537,627
-30,125	15,313	957,570	537,128
-29,111	15,250	956,711	536,422
-28,096	15,286	956,170	536,212
-27,082	15,282	955,629	535,876
-26,067	15,278	954,719	535,331
-25,052	15,298	953,894	534,912
-24,038	15,229	953,265	534,315
-23,023	15,332	952,532	534,216
-22,009	15,290	951,993	533,755
-20,994	15,274	951,289	533,291
-19,979	15,271	950,664	532,908
-18,965	15,229	950,234	532,512
-17,950	15,325	949,453	532,359
-16,936	15,239	948,934	531,772
-15,921	15,196	948,291	531,254
-14,906	15,149	947,373	530,568
-13,892	15,117	946,908	530,186
-12,877	15,173	946,188	529,940
-11,863	15,119	945,650	529,447
-10,848	15,058	945,138	528,945
-9,833	15,206	944,581	529,081
-8,819	15,192	943,997	528,688
-7,804	15,205	943,364	528,354
-6,790	15,187	942,664	527,885
-5,775	15,186	942,198	527,599
-4,760	15,182	941,398	527,117
-3,746	15,150	941,108	526,834
-2,731	14,994	940,201	525,812
-1,717	14,993	939,627	525,466
-0,702	15,032	938,882	525,151
0,313	14,836	938,316	525,010
1,327	18,190	936,249	534,365
2,342	27,364	789,890	474,997
3,356	23,900	444,664	262,243
4,371	-5,767	295,591	144,659
5,386	-9,488	277,099	132,072
6,400	-10,944	271,373	127,979
7,415	-10,991	269,138	126,870
8,429	-11,072	267,771	126,140
9,444	-11,139	266,803	125,612
10,459	-10,863	266,176	125,557
11,473	-11,012	265,534	125,108
12,488	-11,115	264,981	124,742
13,502	-11,360	264,322	124,199
14,517	-11,219	263,944	124,138
15,531	-11,203	263,797	124,072
16,546	-11,294	263,290	123,741
17,561	-11,192	262,946	123,660
18,575	-11,166	262,633	123,525
19,590	-11,209	262,169	123,257
20,604	-11,253	262,045	123,149
21,619	-11,209	261,534	122,937
22,634	-11,307	261,329	122,742
23,648	-11,503	260,927	122,368
24,663	-11,273	260,703	122,456
25,677	-11,323	260,399	122,258
26,692	-11,155	260,241	122,323
27,707	-11,165	260,041	122,209
28,721	-11,215	259,615	121,954
29,736	-11,257	259,410	121,808
30,750	-11,255	259,043	121,627
31,765	-11,452	258,896	121,373
32,780	-11,311	258,655	121,374
33,794	-11,362	258,508	121,249
34,809	-11,510	258,103	120,918
35,823	-11,569	257,890	120,755
36,838	-11,497	257,644	120,692
37,853	-11,404	257,475	120,685
38,867	-11,521	257,415	120,543
39,882	-11,436	256,961	120,394
40,896	-11,581	256,747	120,156
41,911	-11,547	256,497	120,058
42,926	-11,546	256,411	120,007
43,940	-11,650	255,998	119,713
44,955	-11,455	255,769	119,766
45,969	-11,576	255,592	119,567
46,984	-11,703	255,363	119,338
47,999	-11,976	255,094	118,964
49,013	-12,006	254,736	118,760
50,028	-12,168	254,458	118,480
51,042	-12,083	254,185	118,415
52,057	-12,383	254,004	118,060
53,071	-12,171	253,697	118,091
54,086	-12,026	253,744	118,227
55,101	-12,135	253,493	118,006
56,115	-11,669	253,243	118,281
57,130	-11,294	253,378	118,658
58,144	-10,988	253,112	118,787
59,159	-11,107	252,907	118,578
60,174	-11,058	252,744	118,533
61,188	-11,165	252,519	118,324
62,203	-11,355	252,367	118,079
63,217	-11,299	252,111	117,997
64,232	-11,288	251,957	117,924
65,247	-11,165	251,666	117,883
66,261	-11,297	251,389	117,629
67,276	-11,526	251,243	117,355
68,290	-11,850	250,941	116,927
69,305	-11,830	250,625	116,785
70,320	-11,750	250,427	116,751
71,334	-11,373	250,245	116,977
72,349	-11,407	250,234	116,932
73,363	-11,167	250,143	117,084
74,378	-11,169	249,774	116,899
75,393	-11,381	249,634	116,642
76,407	-11,535	249,452	116,417
77,422	-11,302	249,185	116,479
78,436	-11,352	248,993	116,337
79,451	-11,184	248,762	116,361
80,466	-11,240	248,521	116,191
81,480	-11,598	248,292	115,770
82,495	-11,467	247,914	115,694
83,509	-11,566	247,848	115,569
84,524	-11,775	247,744	115,335
85,539	-11,659	247,432	115,277
86,553	-11,731	247,174	115,087
87,568	-11,667	247,174	115,130
88,582	-11,465	246,856	115,141
89,597	-11,633	246,711	114,922
90,611	-11,486	246,444	114,911
91,626	-11,260	246,455	115,095
92,641	-11,301	246,255	114,957
93,655	-11,528	246,020	114,647
94,670	-11,479	245,775	114,563
95,684	-11,621	245,705	114,402
96,699	-11,522	245,364	114,315
97,714	-11,545	245,317	114,265
98,728	-11,688	245,029	114,001
99,743	-12,089	244,977	113,633
100,757	-11,729	244,548	113,723
101,772	-11,746	244,416	113,637
102,787	-11,722	244,233	113,561
103,801	-11,642	244,167	113,588
104,816	-11,487	243,902	113,582
105,830	-11,392	243,730	113,570
106,845	-11,331	243,696	113,595
107,860	-11,420	243,368	113,359
108,874	-11,595	243,254	113,151
109,889	-11,458	242,938	113,107
110,903	-11,572	242,781	112,930
111,918	-11,654	242,655	112,793
112,933	-11,533	242,557	112,837
113,947	-11,555	242,446	112,757
114,962	-11,194	242,012	112,842
115,976	-11,439	241,922	112,589
116,991	-11,463	241,800	112,502
118,006	-11,531	241,622	112,354
119,020	-11,523	241,605	112,342
120,035	-11,473	241,403	112,280
121,049	-11,321	241,265	112,330
122,064	-11,392	241,050	112,161
123,079	-11,450	240,819	111,997
124,093	-11,637	240,583	111,725
125,108	-11,790	240,288	111,453
126,122	-11,868	240,123	111,303
127,137	-11,954	239,868	111,105
128,151	-11,804	239,661	111,121
129,166	-11,640	239,543	111,189
130,181	-11,656	239,227	111,020
131,195	-11,926	239,151	110,756
132,210	-11,526	238,988	110,995
133,224	-11,324	238,786	111,054
134,239	-11,388	238,702	110,953
135,254	-11,451	238,602	110,847
136,268	-11,525	238,371	110,669
137,283	-11,843	238,113	110,284
138,297	-11,963	237,780	110,023
139,312	-11,848	237,564	110,005
140,327	-11,485	237,635	110,320
141,341	-11,201	237,585	110,516
142,356	-11,071	237,440	110,543
143,370	-11,102	237,304	110,445
144,385	-10,777	236,960	110,535
145,400	-11,068	237,050	110,334
146,414	-10,759	236,815	110,462
147,429	-10,973	236,557	110,161
148,443	-11,088	236,346	109,961
149,458	-11,097	236,243	109,896
150,473	-10,946	236,040	109,912
151,487	-11,050	235,821	109,717
152,502	-11,183	235,823	109,603
153,516	-11,077	235,497	109,526
154,531	-10,986	235,310	109,501
155,546	-11,070	235,189	109,369
156,560	-11,517	234,997	108,915
157,575	-11,440	234,789	108,870
158,589	-11,243	234,663	108,958
159,604	-11,028	234,430	109,010
160,619	-10,875	234,461	109,136
161,633	-10,949	234,301	108,993
162,648	-10,991	233,990	108,805
163,662	-11,110	233,902	108,661
164,677	-11,288	233,756	108,443
165,692	-11,022	233,556	108,550
166,706	-11,105	233,594	108,493
167,721	-10,847	233,295	108,547
168,735	-11,083	233,297	108,353
169,750	-11,222	233,114	108,149
170,764	-11,139	232,920	108,114
171,779	-11,168	232,670	107,966
172,794	-11,028	232,502	107,989
173,808	-11,114	232,216	107,778
174,823	-11,721	232,024	107,204
175,837	-11,722	231,721	107,054
176,852	-11,333	231,789	107,380
177,867	-11,119	231,863	107,572
178,881	-11,071	231,635	107,495
179,896	-10,988	231,482	107,479
180,910	-10,966	231,215	107,362
181,925	-11,113	231,107	107,188
182,940	-11,012	231,043	107,228
183,954	-10,972	230,906	107,185
184,969	-11,050	230,776	107,055
185,983	-10,732	230,589	107,206
186,998	-10,673	230,438	107,171
188,013	-10,794	230,248	106,980
189,027	-10,599	230,089	107,048
190,042	-10,862	229,949	106,769
191,056	-10,773	229,704	106,714
192,071	-10,898	229,616	106,568
193,086	-11,034	229,540	106,417
194,100	-10,673	229,312	106,581
195,115	-11,200	228,943	105,994
196,129	-11,463	228,994	105,806
197,144	-5,659	230,698	111,087
198,159	0,213	232,565	116,556
199,173	2,687	233,206	118,797
200,188	3,269	233,080	119,175
201,202	3,222	232,947	119,060
202,217	3,690	232,937	119,408
203,232	3,738	232,882	119,407
204,246	3,733	232,712	119,305
205,261	3,964	232,620	119,426
206,275	4,009	232,575	119,428
207,290	4,196	232,313	119,428
208,304	4,132	232,090	119,252
209,319	4,027	231,935	119,081
210,334	3,879	231,720	118,846
211,348	3,811	231,468	118,654
212,363	3,525	231,203	118,286
213,377	3,237	231,090	117,996
214,392	3,044	231,010	117,796
215,407	3,160	230,938	117,838
216,421	3,327	230,715	117,842
217,436	3,107	230,454	117,530
218,450	2,875	230,219	117,221
219,465	2,864	230,105	117,144
220,480	2,967	230,024	117,172
221,494	3,078	229,887	117,176
222,509	3,336	229,630	117,232
223,523	3,132	229,613	117,057
224,538	2,996	229,386	116,827
225,553	3,149	229,283	116,880
226,567	3,394	229,175	117,003
227,582	3,526	229,090	117,050
228,596	3,588	229,132	117,108
229,611	3,364	228,774	116,744
230,626	3,157	228,492	116,432
231,640	3,054	228,419	116,306
232,655	3,252	228,407	116,440
233,669	3,846	228,325	116,839
234,684	4,172	227,958	116,889
235,699	3,660	227,850	116,434
236,713	3,302	227,678	116,065
237,728	3,248	227,522	115,934
238,742	3,066	227,403	115,726
239,757	3,069	227,347	115,689
240,772	3,207	227,061	115,637
241,786	3,305	226,879	115,609
242,801	3,542	226,750	115,711
243,815	3,706	226,797	115,849
244,830	3,668	226,546	115,681
245,844	3,410	226,409	115,407
246,859	3,504	226,154	115,337
247,874	3,692	226,025	115,402
248,888	3,654	225,846	115,272
249,903	3,374	225,892	115,075
250,917	3,318	225,680	114,915
251,932	3,305	225,529	114,817
252,947	3,133	225,315	114,570
253,961	3,159	225,095	114,467
254,976	3,299	224,937	114,481
255,990	3,597	224,912	114,681
257,005	3,297	224,751	114,365
258,020	3,408	224,758	114,441
259,034	3,570	224,693	114,519
260,049	3,454	224,344	114,244
261,063	3,603	224,177	114,260
262,078	3,590	224,230	114,267
263,093	3,606	224,052	114,177
264,107	3,490	223,824	113,965
265,122	3,363	223,815	113,856
266,136	3,583	223,765	113,984
267,151	3,698	223,378	113,862
268,166	3,316	223,102	113,429
269,180	3,015	223,015	113,152
270,195	3,083	222,862	113,114
271,209	3,152	222,582	113,013
272,224	3,377	222,520	113,137
273,239	3,335	222,502	113,087
274,253	3,154	222,293	112,837
275,268	3,444	222,012	112,897
276,282	2,701	221,946	112,307
277,297	3,038	221,763	112,452
278,312	3,316	221,597	112,563
279,326	3,344	221,610	112,580
280,341	3,317	221,381	112,433
281,355	3,183	221,168	112,217
282,370	3,275	221,059	112,220
283,384	3,058	220,872	111,956
284,399	2,951	220,744	111,803
285,414	2,807	220,693	111,661
286,428	3,238	220,566	111,901
287,443	3,576	220,416	112,063
288,457	3,416	220,338	111,896
289,472	3,287	220,120	111,681
290,487	2,785	219,950	111,219
291,501	2,672	219,862	111,083
292,516	2,878	219,770	111,176
293,530	2,907	219,501	111,051
294,545	2,982	219,399	111,044
295,560	3,264	219,164	111,120
296,574	3,190	219,278	111,115
297,589	3,045	218,962	110,839
298,603	3,186	218,958	110,929
299,618	3,308	218,713	110,884
300,633	3,279	218,641	110,817
301,647	3,210	218,690	110,781
302,662	3,342	218,506	110,774
303,676	3,711	218,228	110,889
304,691	3,432	218,279	110,704
305,706	3,547	217,952	110,612
306,720	3,602	217,818	110,573
307,735	3,249	217,510	110,153
308,749	3,032	217,481	109,972
309,764	3,149	217,481	110,046
310,779	3,513	217,206	110,159
311,793	3,263	217,122	109,927
312,808	3,298	216,999	109,880
313,822	3,279	216,825	109,769
314,837	3,281	216,654	109,674
315,852	3,167	216,440	109,474
316,866	3,123	216,386	109,405
317,881	3,379	216,302	109,536
318,895	3,422	216,180	109,495
319,910	3,275	215,977	109,278
320,925	3,016	215,813	109,001
321,939	2,645	215,551	108,594
322,954	2,619	215,612	108,597
323,968	3,140	215,439	108,871
324,983	3,224	215,303	108,852
325,997	3,250	215,157	108,787
327,012	3,236	215,131	108,754
328,027	3,597	214,970	108,920
329,041	3,843	214,921	109,059
330,056	3,942	214,697	109,006
331,070	3,342	214,475	108,459
332,085	2,940	214,326	108,089
333,100	3,022	214,239	108,094
334,114	3,332	214,048	108,207
335,129	3,588	213,894	108,300
336,143	3,253	213,791	108,002
337,158	3,436	213,600	108,025
338,173	3,226	213,552	107,843
339,187	3,222	213,315	107,711
340,202	3,043	213,130	107,482
341,216	2,921	213,065	107,354
342,231	3,045	212,923	107,360
343,246	2,918	212,665	107,131
344,260	2,913	212,708	107,140
345,275	3,175	212,696	107,308
346,289	3,415	212,608	107,422
347,304	3,345	212,302	107,209
348,319	3,297	212,025	107,026
349,333	3,314	212,046	107,039
350,348	3,296	211,998	106,992
351,362	3,570	211,767	107,058
352,377	3,617	211,651	107,022
353,392	3,282	211,569	106,738
354,406	3,225	211,467	106,637
355,421	196,247	1339,323	1419,315
356,435	156,798	1476,699	1419,282
