DTS Sentinel unit serial number:	SN410029Multiplexer serial number:	ORYXHardware model number:	OX2-SRSoftware version number:	ORYX F/W v4,00 Oryx Data Collector v3.7.2.0data status	okinstallation	B6 Nyhavnadifferential loss correction	single-endedforward channel	channel 2reverse channel	N/Adate	2023/12/09time	09:30:08forward acquisition time	300,00reverse acquisition time	0,00gamma	499,1914k internal	0,3138k external	0,3138temperature offset calibration	1,0000default loss term (dB/km)	0,3820temperature slope calibration	1,0000multiplexer offset coefficient	1,0000multiplexer slope coefficient	1,0000fibre end	0,00T internal ref (°C)	18,45T ext. ref 1 (°C)	2,05T ext. ref 2 (°C)	2,04length (m)	temperature (°C)	Stokes	anti-Stokes-744,400	-127,227	0,064	0,007
-743,385	-184,652	-0,353	-0,004
-742,371	2,991	0,153	0,082
-741,356	-77,181	-0,214	0,055
-740,342	185,620	0,053	-0,058
-739,327	85,709	-0,099	0,080
-738,312	-200,000	0,000	-0,089
-737,298	-76,510	-0,310	0,080
-736,283	455,556	-0,026	0,042
-735,269	-105,449	-0,266	0,044
-734,254	549,742	0,023	0,041
-733,239	-77,484	-0,381	-0,097
-732,225	-78,663	0,093	0,023
-731,210	290,838	-0,022	0,029
-730,196	-200,000	0,003	-0,021
-729,181	473,296	-0,133	-0,223
-728,167	-122,539	0,045	-0,005
-727,152	-200,000	-0,037	-0,137
-726,137	61,371	-0,163	-0,120
-725,123	351,475	-0,092	-0,136
-724,108	-200,000	-0,010	-0,055
-723,094	367,399	-0,031	-0,046
-722,079	-109,476	-0,072	-0,011
-721,064	-200,000	0,027	-0,109
-720,050	120,362	-0,095	-0,087
-719,035	-200,000	-0,010	-0,062
-718,021	359,437	-0,106	-0,158
-717,006	800,000	0,043	-0,104
-715,991	-200,000	-0,021	-0,077
-714,977	329,499	0,093	-0,133
-713,962	264,864	0,040	-0,051
-712,948	145,942	-0,021	0,020
-711,933	-200,000	-0,008	-0,058
-710,918	3,593	0,076	0,041
-709,904	-165,012	-0,091	0,003
-708,889	-171,847	-0,164	0,004
-707,875	169,632	-0,095	-0,101
-706,860	-32,403	0,012	-0,005
-705,845	-72,926	-0,141	0,038
-704,831	-62,247	-0,037	0,011
-703,816	159,460	-0,014	-0,015
-702,802	158,903	0,134	0,138
-701,787	-200,000	0,021	-0,094
-700,772	114,182	-0,095	-0,086
-699,758	100,578	-0,071	0,061
-698,743	-84,131	0,131	-0,030
-697,729	-200,000	0,006	-0,022
-696,714	-65,639	-0,172	-0,051
-695,699	-200,000	0,025	-0,119
-694,685	-108,275	-0,117	0,018
-693,670	-200,000	0,002	-0,071
-692,656	800,000	-0,013	-0,034
-691,641	25,102	0,081	-0,050
-690,627	-41,763	0,095	-0,036
-689,612	298,408	0,018	0,025
-688,597	-200,000	-0,004	-0,079
-687,583	108,520	-0,111	-0,098
-686,568	41,491	0,040	-0,027
-685,554	195,548	-0,095	-0,107
-684,539	42,200	-0,056	-0,037
-683,524	398,172	0,033	-0,052
-682,510	-107,763	0,044	0,007
-681,495	320,514	0,079	-0,111
-680,481	17,913	-0,122	-0,072
-679,466	-153,408	-0,069	0,003
-678,451	800,000	-0,088	-0,216
-677,437	163,267	-0,104	-0,108
-676,422	-162,655	0,091	-0,003
-675,408	-122,928	0,028	0,003
-674,393	-200,000	-0,032	0,109
-673,378	420,779	0,063	-0,100
-672,364	310,652	-0,081	-0,113
-671,349	85,262	-0,070	-0,057
-670,335	180,030	0,148	-0,161
-669,320	-200,000	0,004	0,046
-668,305	-200,000	-0,011	0,051
-667,291	-200,000	0,023	0,083
-666,276	289,972	0,039	-0,053
-665,262	111,262	-0,141	-0,125
-664,247	-200,000	-0,017	-0,079
-663,232	-200,000	-0,006	-0,136
-662,218	-200,000	0,024	0,144
-661,203	398,373	-0,053	0,082
-660,189	139,471	-0,103	-0,100
-659,174	-200,000	-0,013	0,051
-658,159	-87,244	-0,130	0,029
-657,145	179,595	0,072	0,078
-656,130	-3,617	0,213	0,109
-655,116	-200,000	0,007	-0,168
-654,101	137,675	0,088	0,085
-653,086	-2,918	-0,055	-0,028
-652,072	-184,600	-0,028	-0,000
-651,057	-200,000	0,034	-0,141
-650,043	-151,168	-0,160	0,009
-649,028	74,437	0,012	0,009
-648,014	-200,000	-0,026	-0,100
-646,999	-70,202	-0,092	0,026
-645,984	341,905	0,047	0,069
-644,970	-200,000	0,006	-0,039
-643,955	3,681	-0,069	-0,037
-642,941	-200,000	0,042	-0,139
-641,926	122,134	0,074	-0,068
-640,911	-41,621	0,075	-0,028
-639,897	58,874	0,095	-0,069
-638,882	-200,000	0,013	0,072
-637,868	667,819	-0,091	0,174
-636,853	142,584	-0,030	0,030
-635,838	-83,911	-0,087	-0,020
-634,824	800,000	-0,036	-0,079
-633,809	800,000	-0,027	0,057
-632,795	-200,000	0,005	-0,045
-631,780	-47,425	0,130	-0,046
-630,765	37,882	-0,047	0,031
-629,751	14,856	-0,041	-0,024
-628,736	800,000	0,014	0,045
-627,722	-67,063	0,087	0,025
-626,707	-200,000	0,020	0,100
-625,692	800,000	0,026	0,054
-624,678	447,782	0,039	0,064
-623,663	800,000	-0,041	-0,108
-622,649	800,000	-0,042	0,116
-621,634	645,043	-0,066	-0,124
-620,619	12,788	0,025	-0,014
-619,605	84,392	0,030	-0,024
-618,590	75,459	-0,099	0,077
-617,576	-69,459	0,052	0,015
-616,561	51,097	-0,140	0,098
-615,546	800,000	-0,072	-0,150
-614,532	-200,000	0,005	-0,168
-613,517	235,124	-0,002	0,003
-612,503	-83,005	-0,044	-0,010
-611,488	-200,000	0,015	0,106
-610,474	-66,019	0,008	-0,002
-609,459	-110,507	-0,190	-0,029
-608,444	-129,407	-0,221	-0,022
-607,430	-2,613	0,111	-0,057
-606,415	307,106	-0,031	-0,042
-605,401	-46,251	-0,081	-0,029
-604,386	-6,945	-0,012	-0,006
-603,371	157,076	0,068	-0,070
-602,357	-200,000	0,022	0,124
-601,342	-200,000	0,008	0,030
-600,328	481,732	-0,031	-0,053
-599,313	800,000	-0,039	-0,090
-598,298	16,916	0,054	-0,031
-597,284	-200,000	-0,003	0,083
-596,269	-49,803	0,063	-0,022
-595,255	-68,884	-0,172	0,049
-594,240	-200,000	-0,008	-0,101
-593,225	84,943	0,009	0,008
-592,211	738,775	-0,012	-0,023
-591,196	6,254	-0,125	-0,068
-590,182	8,734	0,084	0,047
-589,167	158,761	0,057	-0,058
-588,152	130,933	0,043	0,040
-587,138	-57,831	0,105	-0,034
-586,123	448,603	0,010	-0,017
-585,109	294,731	0,083	-0,112
-584,094	227,892	0,054	0,065
-583,079	800,000	-0,084	-0,196
-582,065	-200,000	-0,004	-0,069
-581,050	776,346	0,054	0,109
-580,036	95,547	-0,047	0,040
-579,021	800,000	-0,036	-0,088
-578,006	800,000	-0,058	-0,148
-576,992	129,080	-0,089	-0,084
-575,977	85,434	0,038	0,031
-574,963	800,000	-0,045	0,108
-573,948	-200,000	-0,004	-0,090
-572,934	245,577	-0,044	0,054
-571,919	-200,000	0,009	0,047
-570,904	-200,000	0,000	-0,103
-569,890	-159,823	0,075	-0,003
-568,875	-126,833	0,075	0,008
-567,861	-200,000	-0,008	0,192
-566,846	499,932	0,032	0,055
-565,831	94,186	-0,104	0,087
-564,817	23,537	-0,163	-0,098
-563,802	-200,000	-0,058	-0,205
-562,788	-66,698	-0,003	0,001
-561,773	-200,000	-0,014	-0,106
-560,758	-200,000	0,006	-0,059
-559,744	149,976	0,035	0,035
-558,729	-138,542	-0,068	0,005
-557,715	55,368	-0,018	0,013
-556,700	90,755	0,078	-0,064
-555,685	-160,742	-0,165	-0,006
-554,671	800,000	0,044	0,111
-553,656	-6,820	0,090	0,045
-552,642	-32,292	0,123	0,050
-551,627	-178,782	0,081	0,001
-550,612	391,707	-0,018	0,028
-549,598	-72,709	-0,117	0,031
-548,583	-200,000	0,013	-0,046
-547,569	800,000	0,032	-0,077
-546,554	-200,000	-0,010	0,118
-545,539	393,352	-0,038	-0,058
-544,525	-122,220	0,067	0,008
-543,510	100,254	-0,040	-0,034
-542,496	87,986	-0,124	-0,101
-541,481	291,990	-0,083	0,111
-540,466	-200,000	-0,008	0,067
-539,452	-30,751	-0,044	-0,018
-538,437	800,000	0,014	-0,032
-537,423	-20,483	-0,087	-0,039
-536,408	123,149	-0,058	0,054
-535,393	69,000	-0,087	0,066
-534,379	-100,158	-0,108	0,020
-533,364	90,969	-0,117	0,097
-532,350	-130,802	0,150	-0,015
-531,335	-200,000	0,003	-0,038
-530,321	-200,000	0,022	0,085
-529,306	-200,000	0,017	0,092
-528,291	-46,761	0,090	-0,032
-527,277	-200,000	-0,034	0,124
-526,262	71,367	0,024	-0,019
-525,248	-61,593	-0,061	-0,019
-524,233	-36,012	0,083	0,033
-523,218	220,865	0,032	-0,038
-522,204	71,564	-0,113	-0,086
-521,189	523,004	-0,010	-0,017
-520,175	33,334	0,030	0,019
-519,160	-200,000	0,004	-0,017
-518,145	-39,997	0,048	0,018
-517,131	496,091	-0,014	-0,024
-516,116	114,976	-0,029	0,026
-515,102	-54,804	-0,069	-0,023
-514,087	316,365	-0,105	-0,146
-513,072	90,186	-0,050	0,041
-512,058	197,068	0,070	0,078
-511,043	-38,017	-0,038	-0,015
-510,029	-200,000	-0,024	0,121
-509,014	-200,000	-0,013	-0,049
-507,999	-106,587	0,151	-0,025
-506,985	-128,837	-0,100	-0,010
-505,970	-82,703	-0,102	-0,024
-504,956	137,445	-0,093	-0,090
-503,941	-9,817	0,107	-0,052
-502,926	669,056	0,057	-0,109
-501,912	-200,000	-0,018	-0,097
-500,897	800,000	0,011	-0,023
-499,883	-14,262	-0,050	0,024
-498,868	-200,000	-0,006	-0,067
-497,853	90,082	-0,081	-0,066
-496,839	31,588	0,055	-0,034
-495,824	-88,836	-0,022	0,005
-494,810	17,701	0,063	0,037
-493,795	-54,422	-0,110	0,036
-492,781	631,990	-0,069	0,128
-491,766	69,146	0,045	0,034
-490,751	-200,000	-0,015	-0,086
-489,737	370,052	0,019	0,028
-488,722	-124,167	-0,068	-0,008
-487,708	111,326	0,081	0,071
-486,693	-72,269	0,027	-0,007
-485,678	-49,737	-0,083	-0,029
-484,664	231,056	0,090	-0,108
-483,649	-81,611	-0,069	0,016
-482,635	-200,000	-0,033	-0,126
-481,620	-3,916	0,093	0,047
-480,605	-95,750	0,073	0,014
-479,591	800,000	-0,011	0,029
-478,576	154,157	0,122	0,123
-477,562	-66,738	-0,067	-0,019
-476,547	162,329	-0,044	-0,045
-475,532	-10,183	-0,098	0,048
-474,518	226,869	0,092	0,109
-473,503	20,191	0,064	0,038
-472,489	115,658	0,058	0,052
-471,474	65,298	0,052	-0,039
-470,459	104,095	0,028	0,024
-469,445	-158,060	0,038	0,002
-468,430	800,000	-0,008	-0,019
-467,416	-174,562	-0,116	0,002
-466,401	-200,000	0,003	0,012
-465,386	170,403	0,072	-0,075
-464,372	800,000	-0,069	0,153
-463,357	800,000	-0,039	0,099
-462,343	-167,167	0,086	0,003
-461,328	-36,147	-0,068	0,027
-460,313	271,259	0,060	-0,077
-459,299	-200,000	0,006	0,119
-458,284	92,219	-0,049	0,040
-457,270	313,958	-0,035	-0,048
-456,255	-131,476	-0,049	0,005
-455,241	336,647	0,042	-0,060
-454,226	-200,000	-0,021	-0,194
-453,211	145,998	-0,042	0,041
-452,197	-19,246	-0,041	-0,018
-451,182	800,000	0,020	0,040
-450,168	-200,000	0,012	-0,087
-449,153	-50,740	-0,066	-0,023
-448,138	-200,000	0,001	-0,043
-447,124	85,315	-0,103	0,083
-446,109	78,439	-0,068	0,053
-445,095	389,793	0,034	-0,052
-444,080	-54,116	0,029	0,010
-443,065	-200,000	-0,013	0,081
-442,051	-200,000	0,023	-0,078
-441,036	9,153	0,038	0,021
-440,022	-200,000	-0,017	0,057
-439,007	266,849	-0,037	-0,047
-437,992	800,000	0,045	0,128
-436,978	-129,258	-0,028	-0,003
-435,963	-48,046	-0,075	0,026
-434,949	-108,421	0,093	-0,015
-433,934	-110,138	-0,044	-0,007
-432,919	-32,815	0,053	-0,021
-431,905	-200,000	0,028	-0,142
-430,890	-72,863	0,043	-0,012
-429,876	99,868	-0,094	0,079
-428,861	800,000	0,068	0,152
-427,846	800,000	0,031	-0,070
-426,832	-3,725	-0,044	0,022
-425,817	-200,000	0,033	-0,192
-424,803	-200,000	0,023	0,147
-423,788	40,177	-0,071	0,046
-422,773	-16,437	0,048	0,022
-421,759	-172,304	-0,088	-0,002
-420,744	92,084	0,119	0,098
-419,730	-200,000	0,027	-0,122
-418,715	800,000	-0,075	0,154
-417,701	-152,265	0,120	-0,006
-416,686	662,723	-0,014	-0,026
-415,671	182,515	-0,097	0,105
-414,657	-32,246	-0,036	0,014
-413,642	369,771	0,039	-0,058
-412,628	199,224	-0,095	-0,107
-411,613	-47,784	0,146	-0,052
-410,598	28,426	0,068	-0,042
-409,584	92,074	0,147	-0,121
-408,569	93,235	-0,128	0,106
-407,555	-200,000	-0,010	0,092
-406,540	-11,181	0,098	-0,047
-405,525	73,646	0,147	-0,112
-404,511	-200,000	-0,004	-0,119
-403,496	-200,000	0,004	-0,089
-402,482	800,000	-0,028	-0,086
-401,467	-166,164	0,152	-0,005
-400,452	129,912	0,058	-0,054
-399,438	169,824	0,052	0,055
-398,423	78,275	-0,071	0,055
-397,409	-121,965	-0,076	-0,009
-396,394	-109,807	-0,033	-0,005
-395,379	50,904	0,175	-0,121
-394,365	-106,582	-0,068	0,011
-393,350	288,317	-0,079	0,105
-392,336	-113,579	-0,069	0,010
-391,321	96,353	-0,046	0,039
-390,306	-137,194	-0,063	0,005
-389,292	191,707	-0,040	0,045
-388,277	22,083	0,214	0,128
-387,263	58,855	0,073	-0,053
-386,248	-45,542	0,096	0,035
-385,233	-113,304	0,053	0,007
-384,219	800,000	-0,089	0,197
-383,204	402,170	-0,034	0,052
-382,190	-159,774	-0,145	-0,006
-381,175	-109,726	-0,009	0,001
-380,160	73,639	0,081	0,062
-379,146	279,553	0,023	0,031
-378,131	-58,672	0,027	-0,009
-377,117	114,012	0,177	-0,158
-376,102	-200,000	-0,021	-0,128
-375,088	-200,000	-0,001	0,036
-374,073	-108,257	0,030	0,005
-373,058	-200,000	-0,014	0,080
-372,044	-18,231	0,088	0,040
-371,029	-200,000	0,005	-0,111
-370,015	-200,000	-0,030	-0,185
-369,000	249,430	-0,043	0,053
-367,985	26,151	-0,080	-0,049
-366,971	-12,711	-0,150	-0,071
-365,956	800,000	0,062	0,180
-364,942	-45,376	0,130	0,047
-363,927	21,027	0,062	0,036
-362,912	170,924	0,047	-0,049
-361,898	-57,531	0,164	-0,052
-360,883	84,942	0,072	-0,058
-359,869	445,826	-0,084	-0,136
-358,854	-149,966	-0,021	-0,001
-357,839	15,879	0,068	-0,039
-356,825	-44,954	-0,049	-0,018
-355,810	800,000	0,051	-0,118
-354,796	348,832	0,034	-0,049
-353,781	283,022	-0,068	-0,090
-352,766	-99,993	-0,150	0,027
-351,752	53,095	0,054	0,037
-350,737	-200,000	0,005	-0,109
-349,723	38,088	0,059	-0,038
-348,708	111,786	0,151	0,133
-347,693	99,353	-0,038	0,032
-346,679	-200,000	-0,062	0,200
-345,664	17,250	0,036	0,021
-344,650	39,166	0,148	-0,096
-343,635	-20,271	0,062	-0,028
-342,620	800,000	0,014	-0,036
-341,606	402,068	0,082	-0,125
-340,591	-200,000	-0,002	0,089
-339,577	-200,000	0,001	0,021
-338,562	207,431	-0,076	0,086
-337,548	800,000	0,029	0,072
-336,533	573,559	-0,042	-0,075
-335,518	-200,000	0,007	-0,042
-334,504	440,327	-0,013	0,021
-333,489	24,406	-0,016	0,010
-332,475	-81,484	-0,094	-0,022
-331,460	-200,000	-0,003	-0,049
-330,445	377,309	0,012	0,018
-329,431	-97,632	0,116	0,022
-328,416	347,568	0,082	0,118
-327,402	216,184	0,049	0,057
-326,387	-200,000	0,002	0,037
-325,372	-200,000	-0,029	-0,110
-324,358	-47,133	-0,074	0,026
-323,343	-150,890	-0,050	0,003
-322,329	82,523	0,043	0,034
-321,314	800,000	0,048	0,130
-320,299	-200,000	-0,002	0,182
-319,285	132,752	-0,035	0,033
-318,270	-200,000	0,007	-0,091
-317,256	-200,000	0,007	0,059
-316,241	-139,534	0,029	0,002
-315,226	731,415	-0,051	0,101
-314,212	0,272	0,088	-0,046
-313,197	-38,322	0,067	-0,026
-312,183	-200,000	-0,090	0,000
-311,168	407,938	0,111	-0,172
-310,153	800,000	-0,043	-0,123
-309,139	212,137	0,058	-0,067
-308,124	-53,203	0,167	0,056
-307,110	-25,931	-0,086	-0,037
-306,095	-200,000	-0,022	0,087
-305,080	-140,361	0,151	-0,011
-304,066	-91,251	-0,226	-0,047
-303,051	503,704	0,014	0,024
-302,037	-34,438	-0,127	-0,050
-301,022	-137,505	-0,064	0,005
-300,008	269,615	0,080	0,102
-298,993	-200,000	0,029	0,126
-297,978	-59,619	0,036	0,011
-296,964	-200,000	-0,021	-0,099
-295,949	60,041	-0,126	0,091
-294,935	-200,000	0,021	-0,069
-293,920	-136,640	0,163	0,014
-292,905	76,323	0,061	-0,047
-291,891	-200,000	-0,002	0,023
-290,876	-64,694	-0,127	-0,037
-289,862	-200,000	-0,034	-0,174
-288,847	-39,530	-0,036	0,013
-287,832	561,734	-0,035	-0,062
-286,818	-63,515	-0,113	0,034
-285,803	-200,000	-0,016	0,058
-284,789	41,036	0,065	0,043
-283,774	-200,000	-0,012	0,116
-282,759	-61,117	0,094	-0,029
-281,745	55,122	-0,081	0,057
-280,730	800,000	-0,019	-0,056
-279,716	-24,971	-0,081	-0,035
-278,701	800,000	0,021	0,045
-277,686	-41,011	0,050	0,019
-276,672	-1,886	-0,127	-0,065
-275,657	88,795	-0,034	-0,028
-274,643	148,627	-0,064	-0,063
-273,628	800,000	-0,025	0,061
-272,613	-200,000	-0,009	-0,028
-271,599	82,936	0,037	-0,029
-270,584	234,928	0,116	0,140
-269,570	-200,000	-0,032	0,143
-268,555	800,000	0,013	0,028
-267,540	-140,764	0,076	0,006
-266,526	-200,000	-0,004	-0,029
-265,511	216,641	-0,050	0,059
-264,497	82,669	0,160	-0,126
-263,482	800,000	-0,025	-0,068
-262,467	-131,635	0,045	0,004
-261,453	-135,048	0,211	0,018
-260,438	311,989	-0,082	0,113
-259,424	9,467	-0,063	-0,035
-258,409	-200,000	0,003	-0,038
-257,395	3,123	0,166	-0,088
-256,380	113,662	0,013	0,011
-255,365	-200,000	-0,003	0,135
-254,351	35,773	-0,159	0,101
-253,336	-56,702	-0,042	0,014
-252,322	292,519	-0,013	-0,017
-251,307	-28,170	0,073	-0,031
-250,292	-200,000	-0,001	-0,031
-249,278	800,000	0,020	0,056
-248,263	-200,000	0,012	-0,038
-247,249	346,347	-0,027	0,039
-246,234	800,000	0,079	-0,171
-245,219	800,000	-0,029	-0,070
-244,205	800,000	-0,037	-0,113
-243,190	-149,361	-0,077	-0,004
-242,176	-200,000	-0,004	0,113
-241,161	800,000	0,042	0,091
-240,146	350,511	0,031	-0,044
-239,132	148,405	-0,086	-0,084
-238,117	361,814	0,112	-0,163
-237,103	212,884	-0,079	-0,091
-236,088	-200,000	0,142	-0,000
-235,073	739,764	-0,019	0,037
-234,059	-29,467	0,171	-0,071
-233,044	-121,862	-0,113	0,013
-232,030	-188,680	-0,223	-0,002
-231,015	800,000	0,017	-0,043
-230,000	800,000	-0,018	-0,054
-228,986	487,858	0,063	0,105
-227,971	185,025	-0,110	-0,118
-226,957	148,037	0,121	0,119
-225,942	800,000	-0,072	0,162
-224,927	9,231	0,091	-0,050
-223,913	-135,566	0,133	-0,011
-222,898	-165,556	0,037	-0,001
-221,884	-182,295	-0,090	0,001
-220,869	61,698	0,048	0,034
-219,855	-200,000	-0,029	-0,099
-218,840	-200,000	-0,005	0,087
-217,825	-200,000	-0,006	0,075
-216,811	-25,161	-0,104	-0,044
-215,796	-109,787	-0,075	-0,011
-214,782	-200,000	-0,011	-0,066
-213,767	19,061	0,069	0,040
-212,752	737,355	0,026	-0,051
-211,738	410,244	0,065	0,100
-210,723	210,591	0,038	0,043
-209,709	239,111	-0,032	-0,038
-208,694	-131,629	0,009	-0,001
-207,679	244,894	-0,075	0,092
-206,665	359,185	-0,031	-0,045
-205,650	-200,000	0,005	0,056
-204,636	-4,216	0,137	-0,069
-203,621	380,881	-0,066	0,099
-202,606	800,000	0,029	-0,087
-201,592	-11,074	-0,010	-0,005
-200,577	41,839	-0,065	-0,043
-199,563	63,308	-0,114	0,083
-198,548	-200,000	-0,008	0,039
-197,533	30,480	-0,021	0,013
-196,519	451,442	0,027	-0,044
-195,504	34,010	-0,045	0,028
-194,490	-20,414	-0,117	0,052
-193,475	-200,000	-0,001	0,090
-192,460	-200,000	0,019	-0,097
-191,446	-200,000	0,026	0,085
-190,431	39,968	0,012	0,007
-189,417	-200,000	-0,009	-0,150
-188,402	64,502	0,099	-0,072
-187,387	-129,731	0,119	-0,012
-186,373	350,555	0,030	0,043
-185,358	461,470	-0,043	0,070
-184,344	479,958	0,058	0,096
-183,329	-200,000	0,016	0,094
-182,315	-200,000	0,019	0,074
-181,300	1,695	0,123	0,064
-180,285	-100,290	-0,155	-0,028
-179,271	-200,000	0,011	0,074
-178,256	158,012	0,030	0,030
-177,242	20,033	-0,114	0,067
-176,227	-21,941	0,052	0,023
-175,212	383,926	0,023	0,035
-174,198	-200,000	-0,028	0,093
-173,183	-49,773	0,043	-0,015
-172,169	-200,000	-0,007	-0,058
-171,154	293,537	0,074	0,098
-170,139	-200,000	0,019	0,100
-169,125	-200,000	0,006	0,047
-168,110	-200,000	-0,007	0,116
-167,096	83,056	-0,033	-0,026
-166,081	83,989	0,064	0,050
-165,066	70,457	-0,086	-0,064
-164,052	74,171	0,028	-0,022
-163,037	510,092	0,030	0,050
-162,023	211,066	-0,018	-0,021
-161,008	800,000	0,050	0,103
-159,993	-22,872	0,049	-0,021
-158,979	204,058	-0,066	-0,074
-157,964	484,424	0,077	-0,128
-156,950	-89,818	-0,137	0,029
-155,935	-200,000	-0,007	0,115
-154,920	147,187	0,013	-0,013
-153,906	-102,329	0,128	-0,022
-152,891	-200,000	-0,015	-0,053
-151,877	118,249	0,057	0,051
-150,862	800,000	-0,033	0,068
-149,847	-200,000	0,019	-0,075
-148,833	-200,000	0,011	-0,185
-147,818	-200,000	0,013	-0,075
-146,804	-200,000	0,047	-0,201
-145,789	-23,158	-0,014	-0,006
-144,775	-200,000	0,009	0,073
-143,760	-25,454	-0,058	0,025
-142,745	166,120	-0,116	-0,120
-141,731	800,000	0,040	0,098
-140,716	-200,000	-0,015	-0,053
-139,702	-200,000	-0,007	0,056
-138,687	87,457	-0,114	0,091
-137,672	-200,000	-0,010	-0,150
-136,658	-47,188	0,085	-0,030
-135,643	-61,438	-0,090	0,027
-134,629	-169,516	-0,004	-0,000
-133,614	800,000	0,053	-0,109
-132,599	800,000	0,055	-0,117
-131,585	-56,203	0,092	-0,030
-130,570	65,469	-0,109	0,080
-129,556	12,468	-0,086	0,048
-128,541	-200,000	-0,010	-0,062
-127,526	-112,235	0,103	0,015
-126,512	350,899	0,075	0,107
-125,497	589,065	0,055	0,099
-124,483	800,000	-0,040	0,118
-123,468	-200,000	-0,017	0,091
-122,453	116,553	0,027	0,024
-121,439	-124,819	-0,064	0,007
-120,424	800,000	-0,048	0,100
-119,410	-200,000	0,053	0,245
-118,395	-40,549	-0,101	0,038
-117,380	800,000	0,049	-0,100
-116,366	-42,735	0,052	0,019
-115,351	515,147	-0,062	-0,106
-114,337	-112,256	-0,102	0,015
-113,322	58,422	0,085	-0,060
-112,307	-123,381	0,103	0,012
-111,293	50,905	0,080	0,055
-110,278	-200,000	-0,021	-0,117
-109,264	663,550	-0,044	-0,083
-108,249	315,801	0,076	0,103
-107,234	9,515	0,084	0,046
-106,220	-200,000	0,008	0,046
-105,205	133,120	0,058	0,055
-104,191	526,529	-0,017	0,028
-103,176	800,000	0,015	-0,032
-102,162	-13,932	-0,039	0,018
-101,147	-200,000	0,008	-0,073
-100,132	-32,889	-0,041	-0,016
-99,118	104,950	0,052	-0,044
-98,103	-200,000	-0,012	0,041
-97,089	554,824	-0,034	0,059
-96,074	-166,114	0,043	-0,001
-95,059	-200,000	-0,019	0,138
-94,045	-200,000	0,001	0,072
-93,030	-200,000	-0,009	-0,068
-92,016	-200,000	0,015	-0,181
-91,001	79,463	-0,050	0,039
-89,986	118,239	0,069	-0,061
-88,972	-62,597	0,037	0,011
-87,957	-113,323	0,103	-0,014
-86,943	184,933	-0,041	-0,044
-85,928	-143,920	0,090	0,006
-84,913	800,000	0,011	-0,028
-83,899	800,000	-0,022	-0,051
-82,884	-200,000	0,031	0,151
-81,870	131,301	0,032	0,029
-80,855	76,235	0,131	-0,100
-79,840	91,048	-0,180	0,146
-78,826	384,353	0,074	0,111
-77,811	-200,000	0,028	-0,106
-76,797	75,160	-0,043	0,033
-75,782	489,163	0,074	0,122
-74,767	253,824	-0,051	0,064
-73,753	721,293	-0,019	0,037
-72,738	-200,000	0,005	-0,019
-71,724	800,000	-0,014	0,031
-70,709	145,826	-0,038	-0,037
-69,694	-3,356	0,078	0,039
-68,680	-66,695	0,096	-0,027
-67,665	-22,382	0,093	0,041
-66,651	276,383	-0,055	0,071
-65,636	800,000	0,028	-0,082
-64,622	-79,946	-0,148	-0,036
-63,607	800,000	-0,042	-0,091
-62,592	128,614	0,103	-0,095
-61,578	-36,084	0,049	-0,019
-60,563	-102,601	0,107	-0,018
-59,549	-10,030	-0,050	-0,024
-58,534	-43,420	-1,903	-0,691
-57,519	551,238	-0,621	-1,081
-56,505	-200,000	-1,214	-4,684
-55,490	-160,765	0,731	0,027
-54,476	800,000	5,245	12,273
-53,461	-200,000	15,972	279,202
-52,446	-200,000	702,952	2250,724
-51,432	565,768	1618,944	2846,299
-50,417	122,141	1622,777	1463,075
-49,403	83,021	1283,825	1007,530
-48,388	36,906	1028,506	655,257
-47,373	21,528	990,154	579,964
-46,359	20,420	978,995	569,752
-45,344	18,738	974,687	561,691
-44,330	18,857	973,460	561,353
-43,315	18,550	971,657	559,284
-42,300	18,476	970,849	558,555
-41,286	18,472	969,789	557,906
-40,271	18,499	968,817	557,414
-39,257	18,494	967,954	556,881
-38,242	18,490	967,199	556,411
-37,227	18,494	966,380	555,929
-36,213	18,449	965,558	555,290
-35,198	18,406	964,711	554,640
-34,184	18,509	963,854	554,461
-33,169	18,460	962,830	553,690
-32,154	18,541	962,136	553,531
-31,140	18,460	961,421	552,834
-30,125	18,517	960,606	552,528
-29,111	18,539	959,661	552,035
-28,096	18,566	958,963	551,700
-27,082	18,484	958,332	551,048
-26,067	18,455	957,638	550,534
-25,052	18,508	956,783	550,192
-24,038	18,486	956,166	549,745
-23,023	18,483	955,434	549,292
-22,009	18,530	954,649	548,971
-20,994	18,489	954,169	548,542
-19,979	18,503	953,563	548,216
-18,965	18,466	952,970	547,734
-17,950	18,498	952,224	547,388
-16,936	18,465	951,758	546,991
-15,921	18,461	950,931	546,480
-14,906	18,371	950,203	545,751
-13,892	18,386	949,420	545,329
-12,877	18,331	948,860	544,810
-11,863	18,265	948,392	544,309
-10,848	18,357	947,857	544,273
-9,833	18,455	947,337	544,266
-8,819	18,407	946,707	543,730
-7,804	18,432	945,856	543,300
-6,790	18,357	945,361	542,754
-5,775	18,442	944,761	542,658
-4,760	18,398	944,195	542,172
-3,746	18,436	943,528	541,889
-2,731	18,253	942,856	540,898
-1,717	18,164	942,243	540,244
-0,702	18,184	941,472	539,843
0,313	17,971	940,937	539,674
1,327	21,189	939,041	548,732
2,342	30,256	796,428	489,546
3,356	27,303	449,588	271,895
4,371	-2,544	295,516	148,779
5,386	-6,546	276,963	135,618
6,400	-7,900	271,193	131,518
7,415	-8,440	268,903	129,896
8,429	-8,157	267,572	129,502
9,444	-8,156	266,636	129,039
10,459	-8,045	266,018	128,830
11,473	-8,216	265,345	128,337
12,488	-8,255	264,976	128,110
13,502	-8,453	264,332	127,608
14,517	-8,505	263,998	127,388
15,531	-8,470	263,635	127,233
16,546	-8,245	263,210	127,220
17,561	-8,215	262,745	127,012
18,575	-8,157	262,316	126,845
19,590	-8,446	262,030	126,435
20,604	-8,339	261,793	126,406
21,619	-8,442	261,578	126,198
22,634	-8,389	261,211	126,057
23,648	-8,234	260,814	125,994
24,663	-8,350	260,605	125,777
25,677	-8,302	260,297	125,661
26,692	-8,529	260,018	125,312
27,707	-8,413	259,901	125,348
28,721	-8,469	259,590	125,137
29,736	-8,429	259,346	125,044
30,750	-8,793	259,244	124,659
31,765	-8,484	258,875	124,745
32,780	-8,387	258,525	124,652
33,794	-8,323	258,366	124,620
34,809	-8,440	258,158	124,406
35,823	-8,455	257,863	124,239
36,838	-8,332	257,496	124,160
37,853	-8,562	257,250	123,827
38,867	-8,797	257,239	123,603
39,882	-8,517	256,861	123,657
40,896	-8,539	256,704	123,551
41,911	-8,678	256,333	123,240
42,926	-8,682	256,182	123,152
43,940	-8,569	255,866	123,089
44,955	-8,588	255,651	122,957
45,969	-8,867	255,522	122,640
46,984	-9,050	255,087	122,260
47,999	-9,073	254,880	122,130
49,013	-9,311	254,783	121,864
50,028	-9,448	254,505	121,601
51,042	-9,500	254,137	121,369
52,057	-9,362	253,928	121,379
53,071	-9,419	253,796	121,255
54,086	-9,227	253,504	121,272
55,101	-9,333	253,648	121,237
56,115	-8,986	253,324	121,373
57,130	-8,631	253,253	121,636
58,144	-8,502	253,120	121,674
59,159	-8,421	252,948	121,650
60,174	-8,198	252,697	121,712
61,188	-8,242	252,371	121,506
62,203	-8,432	252,180	121,239
63,217	-8,481	252,006	121,102
64,232	-8,510	251,771	120,954
65,247	-8,379	251,589	120,968
66,261	-8,537	251,396	120,728
67,276	-8,618	251,011	120,464
68,290	-8,909	250,752	120,078
69,305	-8,835	250,506	120,013
70,320	-8,938	250,485	119,904
71,334	-8,770	250,464	120,028
72,349	-8,275	250,117	120,274
73,363	-8,369	249,914	120,085
74,378	-8,302	249,705	120,032
75,393	-8,209	249,466	119,985
76,407	-8,467	249,369	119,708
77,422	-8,669	249,177	119,433
78,436	-8,202	248,751	119,616
79,451	-8,569	248,757	119,295
80,466	-8,699	248,446	119,025
81,480	-8,813	248,266	118,832
82,495	-8,777	247,967	118,708
83,509	-8,772	247,902	118,671
84,524	-8,719	247,677	118,598
85,539	-8,855	247,378	118,329
86,553	-9,027	247,302	118,137
87,568	-8,906	247,195	118,177
88,582	-8,779	246,912	118,139
89,597	-8,875	246,640	117,917
90,611	-8,765	246,583	117,972
91,626	-8,525	246,490	118,120
92,641	-8,785	246,304	117,800
93,655	-8,642	246,023	117,776
94,670	-8,850	245,839	117,502
95,684	-8,602	245,577	117,575
96,699	-8,525	245,529	117,606
97,714	-8,902	245,213	117,128
98,728	-9,014	245,119	116,979
99,743	-9,034	244,710	116,757
100,757	-8,984	244,603	116,738
101,772	-8,912	244,347	116,665
102,787	-8,728	244,227	116,750
103,801	-8,822	244,284	116,689
104,816	-8,421	243,881	116,820
105,830	-8,557	243,991	116,749
106,845	-8,356	243,560	116,699
107,860	-8,429	243,364	116,534
108,874	-8,660	243,362	116,331
109,889	-8,569	242,935	116,192
110,903	-8,736	242,918	116,035
111,918	-8,700	242,615	115,910
112,933	-8,873	242,483	115,693
113,947	-8,602	242,354	115,845
114,962	-8,562	242,132	115,762
115,976	-8,638	242,051	115,650
116,991	-8,536	241,838	115,622
118,006	-8,662	241,794	115,487
119,020	-8,467	241,525	115,509
120,035	-8,446	241,534	115,520
121,049	-8,658	241,413	115,278
122,064	-8,520	241,166	115,263
123,079	-8,593	240,824	115,029
124,093	-8,802	240,628	114,754
125,108	-9,078	240,383	114,401
126,122	-9,064	240,242	114,335
127,137	-8,886	240,066	114,387
128,151	-8,943	239,830	114,217
129,166	-8,853	239,666	114,203
130,181	-8,764	239,419	114,147
131,195	-8,953	239,207	113,882
132,210	-8,859	239,062	113,879
133,224	-8,674	239,064	114,021
134,239	-8,539	238,884	114,035
135,254	-8,514	238,690	113,952
136,268	-8,811	238,417	113,571
137,283	-8,784	238,190	113,474
138,297	-9,100	238,072	113,152
139,312	-8,994	237,772	113,085
140,327	-8,692	237,749	113,308
141,341	-8,261	237,693	113,620
142,356	-8,065	237,586	113,717
143,370	-8,332	237,507	113,453
144,385	-8,195	237,265	113,439
145,400	-8,198	237,156	113,374
146,414	-8,144	236,827	113,250
147,429	-8,417	236,875	113,042
148,443	-8,224	236,460	112,990
149,458	-8,453	236,385	112,760
150,473	-8,254	236,163	112,804
151,487	-8,447	235,978	112,550
152,502	-8,381	235,856	112,535
153,516	-8,167	235,781	112,660
154,531	-8,294	235,536	112,432
155,546	-8,359	235,307	112,260
156,560	-8,266	235,156	112,253
157,575	-8,498	234,876	111,924
158,589	-8,382	234,787	111,964
159,604	-8,348	234,752	111,964
160,619	-7,932	234,547	112,188
161,633	-8,175	234,389	111,909
162,648	-8,106	234,150	111,840
163,662	-8,268	234,108	111,681
164,677	-8,362	233,903	111,499
165,692	-8,310	233,826	111,493
166,706	-8,027	233,570	111,585
167,721	-8,130	233,468	111,445
168,735	-7,880	233,361	111,582
169,750	-8,029	233,213	111,383
170,764	-8,159	232,976	111,158
171,779	-8,163	232,791	111,057
172,794	-8,132	232,699	111,027
173,808	-8,321	232,409	110,730
174,823	-8,802	232,230	110,256
175,837	-8,927	232,106	110,089
176,852	-8,499	232,006	110,368
177,867	-8,314	231,888	110,448
178,881	-8,023	231,695	110,574
179,896	-8,386	231,734	110,298
180,910	-8,129	231,427	110,344
181,925	-8,064	231,290	110,320
182,940	-7,969	231,190	110,336
183,954	-8,243	231,090	110,064
184,969	-7,983	230,824	110,131
185,983	-8,163	230,680	109,912
186,998	-8,136	230,611	109,890
188,013	-7,989	230,322	109,858
189,027	-8,127	230,290	109,725
190,042	-7,811	230,082	109,862
191,056	-8,084	229,836	109,522
192,071	-8,160	229,858	109,464
193,086	-8,070	229,702	109,450
194,100	-8,018	229,400	109,337
195,115	-8,048	229,148	109,184
196,129	-8,515	229,048	108,764
197,144	-3,965	230,593	113,035
198,159	1,090	232,113	117,727
199,173	3,143	232,415	119,474
200,188	3,419	232,256	119,597
201,202	3,435	232,211	119,576
202,217	3,859	232,188	119,884
203,232	4,070	231,994	119,938
204,246	3,821	232,076	119,775
205,261	4,021	231,740	119,747
206,275	4,204	231,824	119,922
207,290	4,091	231,639	119,728
208,304	4,121	231,352	119,592
209,319	4,046	231,251	119,470
210,334	4,081	231,152	119,436
211,348	3,859	230,864	119,104
212,363	3,395	230,587	118,592
213,377	3,350	230,378	118,439
214,392	3,317	230,196	118,309
215,407	3,323	229,940	118,172
216,421	3,659	229,950	118,426
217,436	3,337	229,795	118,087
218,450	3,216	229,497	117,831
219,465	3,026	229,440	117,644
220,480	3,130	229,324	117,654
221,494	3,069	229,222	117,545
222,509	3,291	229,029	117,606
223,523	3,405	228,791	117,561
224,538	3,258	228,690	117,385
225,553	3,237	228,678	117,352
226,567	3,485	228,521	117,452
227,582	3,639	228,278	117,434
228,596	3,823	228,339	117,596
229,611	3,591	227,987	117,227
230,626	3,310	227,896	116,955
231,640	3,168	227,643	116,706
232,655	3,517	227,580	116,930
233,669	4,023	227,618	117,325
234,684	4,054	227,460	117,256
235,699	3,734	227,265	116,902
236,713	3,420	227,148	116,592
237,728	3,423	226,877	116,445
238,742	3,200	226,630	116,139
239,757	3,372	226,457	116,170
240,772	3,413	226,318	116,119
241,786	3,200	226,190	115,882
242,801	3,562	226,085	116,092
243,815	3,688	226,131	116,201
244,830	3,837	225,846	116,157
245,844	3,638	225,568	115,853
246,859	3,495	225,644	115,774
247,874	3,502	225,522	115,706
248,888	3,617	225,342	115,690
249,903	3,300	225,209	115,373
250,917	3,602	224,939	115,451
251,932	3,514	224,735	115,270
252,947	3,397	224,665	115,136
253,961	3,431	224,367	114,998
254,976	3,230	224,457	114,884
255,990	3,507	224,210	114,955
257,005	3,691	224,002	114,976
258,020	3,570	224,019	114,883
259,034	3,909	223,913	115,073
260,049	3,575	223,712	114,709
261,063	3,752	223,441	114,693
262,078	3,814	223,361	114,687
263,093	3,804	223,316	114,646
264,107	3,748	223,260	114,566
265,122	3,688	222,984	114,369
266,136	3,884	222,859	114,441
267,151	3,850	222,784	114,367
268,166	3,323	222,500	113,819
269,180	3,179	222,207	113,552
270,195	3,295	222,041	113,543
271,209	3,312	221,849	113,448
272,224	3,549	221,736	113,555
273,239	3,759	221,586	113,623
274,253	3,362	221,601	113,327
275,268	3,173	221,317	113,032
276,282	3,151	221,168	112,930
277,297	2,996	221,036	112,738
278,312	3,160	221,146	112,905
279,326	3,325	221,005	112,945
280,341	3,378	220,793	112,866
281,355	3,486	220,725	112,900
282,370	3,549	220,386	112,763
283,384	3,284	220,120	112,423
284,399	3,028	220,142	112,235
285,414	3,185	220,080	112,309
286,428	3,504	219,853	112,417
287,443	3,508	219,694	112,329
288,457	3,617	219,674	112,389
289,472	3,294	219,506	112,056
290,487	3,065	219,235	111,740
291,501	3,030	218,945	111,557
292,516	2,915	218,840	111,409
293,530	3,260	218,865	111,664
294,545	3,404	218,617	111,632
295,560	3,150	218,616	111,437
296,574	3,200	218,495	111,402
297,589	3,155	218,476	111,349
298,603	3,464	218,151	111,398
299,618	3,346	218,043	111,248
300,633	3,538	217,968	111,339
301,647	3,438	217,906	111,224
302,662	3,396	217,731	111,095
303,676	3,640	217,621	111,206
304,691	3,763	217,430	111,188
305,706	3,612	217,417	111,061
306,720	3,563	217,201	110,906
307,735	3,419	216,782	110,578
308,749	3,145	216,998	110,480
309,764	3,532	216,736	110,617
310,779	3,578	216,553	110,546
311,793	3,385	216,327	110,282
312,808	3,539	216,335	110,388
313,822	3,403	216,241	110,231
314,837	3,095	216,103	109,930
315,852	3,174	215,902	109,875
316,866	3,336	215,732	109,895
317,881	3,702	215,585	110,072
318,895	3,670	215,533	110,013
319,910	3,464	215,259	109,716
320,925	3,336	214,986	109,475
321,939	3,138	214,778	109,218
322,954	3,138	214,736	109,187
323,968	3,597	214,784	109,530
324,983	3,862	214,472	109,549
325,997	3,677	214,577	109,461
327,012	3,572	214,393	109,283
328,027	3,332	214,274	109,042
329,041	3,863	214,140	109,342
330,056	3,778	214,196	109,300
331,070	3,426	213,702	108,788
332,085	3,218	213,574	108,566
333,100	3,404	213,514	108,658
334,114	3,636	213,330	108,719
335,129	3,457	213,166	108,499
336,143	3,232	212,974	108,232
337,158	3,143	213,034	108,190
338,173	3,422	212,835	108,277
339,187	3,317	212,699	108,123
340,202	3,055	212,469	107,812
341,216	3,013	212,364	107,719
342,231	3,010	212,290	107,670
343,246	3,273	212,080	107,739
344,260	3,192	212,072	107,669
345,275	3,308	211,933	107,671
346,289	3,676	211,822	107,863
347,304	3,493	211,681	107,653
348,319	3,315	211,399	107,375
349,333	3,381	211,318	107,371
350,348	3,628	211,169	107,458
351,362	3,443	211,160	107,315
352,377	3,450	210,969	107,213
353,392	3,212	210,908	107,006
354,406	3,527	210,696	107,109
355,421	195,929	1342,535	1430,386
356,435	156,490	1480,473	1430,419
