DTS Sentinel unit serial number:	SN410029Multiplexer serial number:	ORYXHardware model number:	OX2-SRSoftware version number:	ORYX F/W v4,00 Oryx Data Collector v3.7.2.0data status	okinstallation	B6 Nyhavnadifferential loss correction	single-endedforward channel	channel 2reverse channel	N/Adate	2023/12/10time	23:30:08forward acquisition time	300,00reverse acquisition time	0,00gamma	499,1914k internal	0,3122k external	0,3122temperature offset calibration	1,0000default loss term (dB/km)	0,3820temperature slope calibration	1,0000multiplexer offset coefficient	1,0000multiplexer slope coefficient	1,0000fibre end	0,00T internal ref (°C)	22,38T ext. ref 1 (°C)	6,11T ext. ref 2 (°C)	6,11length (m)	temperature (°C)	Stokes	anti-Stokes-744,400	174,890	0,050	-0,054
-743,385	-106,296	-0,230	-0,038
-742,371	-21,529	0,117	-0,053
-741,356	-61,471	-0,210	0,065
-740,342	-200,000	-0,024	-0,088
-739,327	-66,932	-0,178	0,052
-738,312	-200,000	-0,008	-0,169
-737,298	38,200	-0,091	-0,060
-736,283	110,754	-0,178	-0,160
-735,269	-21,758	-0,153	-0,069
-734,254	-81,738	0,205	-0,050
-733,239	-178,395	-0,424	0,007
-732,225	-41,779	0,136	0,052
-731,210	-98,661	0,103	0,019
-730,196	-11,914	0,123	0,060
-729,181	402,583	-0,084	-0,132
-728,167	-159,482	0,073	-0,003
-727,152	-52,717	-0,068	0,023
-726,137	111,376	-0,110	-0,099
-725,123	-118,648	-0,057	0,007
-724,108	-200,000	0,004	-0,069
-723,094	-200,000	-0,003	-0,081
-722,079	-144,432	-0,109	-0,007
-721,064	800,000	-0,033	-0,092
-720,050	658,062	-0,044	0,085
-719,035	-200,000	-0,005	-0,023
-718,021	-200,000	0,010	0,134
-717,006	-36,174	-0,045	0,018
-715,991	-200,000	0,002	-0,020
-714,977	98,235	0,142	-0,121
-713,962	-200,000	0,024	0,117
-712,948	108,506	-0,029	-0,026
-711,933	103,811	0,028	0,025
-710,918	335,606	-0,063	-0,091
-709,904	-49,802	-0,166	-0,059
-708,889	-73,055	-0,026	0,007
-707,875	-111,370	-0,069	-0,010
-706,860	-153,293	0,066	-0,003
-705,845	50,136	0,053	-0,037
-704,831	800,000	-0,027	0,062
-703,816	-200,000	0,000	-0,086
-702,802	-18,026	-0,035	0,016
-701,787	50,425	-0,087	-0,061
-700,772	800,000	0,003	-0,010
-699,758	-64,572	-0,112	0,034
-698,743	-54,092	0,065	0,022
-697,729	800,000	-0,054	-0,146
-696,714	124,509	0,098	0,092
-695,699	19,347	-0,092	-0,055
-694,685	-58,352	0,009	-0,003
-693,670	800,000	-0,053	0,124
-692,656	-200,000	-0,004	-0,130
-691,641	-200,000	0,026	-0,125
-690,627	50,871	0,044	-0,031
-689,612	-90,806	-0,075	-0,016
-688,597	502,437	0,033	-0,056
-687,583	-149,877	-0,099	0,006
-686,568	49,320	-0,057	0,040
-685,554	-200,000	-0,016	0,090
-684,539	-200,000	0,002	0,005
-683,524	368,116	-0,043	-0,065
-682,510	705,495	0,017	0,034
-681,495	-45,662	-0,128	0,047
-680,481	-130,557	-0,089	-0,009
-679,466	-73,180	-0,153	0,041
-678,451	-200,000	-0,051	-0,198
-677,437	-200,000	-0,018	-0,088
-676,422	-110,141	-0,045	-0,007
-675,408	-47,627	0,048	-0,017
-674,393	593,892	-0,037	-0,068
-673,378	-200,000	0,021	-0,153
-672,364	-200,000	0,048	-0,182
-671,349	-200,000	0,008	-0,115
-670,335	800,000	-0,006	-0,019
-669,320	44,435	-0,013	0,009
-668,305	-50,041	0,097	-0,034
-667,291	313,632	-0,015	-0,021
-666,276	-73,705	-0,150	-0,040
-665,262	-115,937	-0,038	-0,005
-664,247	400,346	-0,040	-0,063
-663,232	77,184	0,190	0,150
-662,218	434,139	-0,054	0,087
-661,203	800,000	-0,047	0,125
-660,189	-113,278	-0,059	0,009
-659,174	-84,872	-0,180	-0,042
-658,159	-200,000	-0,018	-0,082
-657,145	-31,811	0,136	-0,056
-656,130	787,477	0,044	-0,091
-655,116	-200,000	0,005	0,066
-654,101	54,591	0,048	0,034
-653,086	27,366	-0,093	0,058
-652,072	283,305	-0,034	0,045
-651,057	-200,000	-0,052	-0,207
-650,043	-78,046	-0,059	0,015
-649,028	-121,481	-0,068	0,008
-648,014	83,573	0,158	-0,128
-646,999	214,182	-0,015	0,018
-645,984	-200,000	0,023	0,124
-644,970	-141,256	0,066	-0,005
-643,955	-200,000	-0,014	0,084
-642,941	182,049	-0,060	-0,065
-641,926	-71,699	-0,093	0,026
-640,911	23,556	-0,078	0,047
-639,897	-200,000	0,012	0,099
-638,882	49,892	-0,024	-0,017
-637,868	-200,000	0,020	0,088
-636,853	453,332	-0,045	-0,074
-635,838	-51,520	-0,057	-0,020
-634,824	365,406	-0,090	-0,136
-633,809	800,000	-0,015	-0,036
-632,795	-200,000	0,021	-0,079
-631,780	800,000	0,017	0,043
-630,765	-22,788	-0,097	-0,043
-629,751	-132,329	-0,132	0,012
-628,736	205,546	-0,078	-0,090
-627,722	-200,000	0,007	0,035
-626,707	178,359	0,057	-0,062
-625,692	-30,857	-0,058	0,024
-624,678	-91,401	0,103	-0,022
-623,663	235,578	-0,103	-0,126
-622,649	44,097	-0,146	-0,099
-621,634	463,011	0,054	-0,090
-620,619	66,891	-0,079	-0,059
-619,605	338,157	-0,089	0,129
-618,590	-200,000	-0,017	-0,074
-617,576	130,025	0,139	-0,132
-616,561	800,000	0,038	-0,120
-615,546	800,000	0,025	-0,077
-614,532	599,634	-0,056	0,104
-613,517	437,400	-0,024	0,038
-612,503	49,756	0,037	-0,026
-611,488	-200,000	0,001	0,064
-610,474	-71,097	-0,120	-0,033
-609,459	-49,825	-0,089	-0,031
-608,444	-200,000	0,013	-0,142
-607,430	363,624	0,075	-0,112
-606,415	-200,000	0,020	-0,102
-605,401	-136,652	-0,083	0,007
-604,386	108,902	-0,004	-0,004
-603,371	56,442	0,100	0,072
-602,357	-83,378	0,133	0,031
-601,342	168,240	-0,077	-0,081
-600,328	28,679	-0,171	0,107
-599,313	29,692	0,219	-0,138
-598,298	171,041	-0,075	-0,080
-597,284	-200,000	-0,011	-0,094
-596,269	-164,813	-0,065	0,002
-595,255	-47,239	0,100	0,036
-594,240	370,067	-0,088	-0,133
-593,225	66,179	-0,055	-0,041
-592,211	-200,000	0,024	-0,103
-591,196	-200,000	0,003	-0,013
-590,182	-200,000	-0,006	0,111
-589,167	-31,570	0,206	0,085
-588,152	-38,892	-0,072	0,028
-587,138	-94,518	-0,069	0,014
-586,123	800,000	0,021	-0,067
-585,109	800,000	0,017	0,038
-584,094	32,225	0,015	-0,010
-583,079	-91,244	-0,132	0,028
-582,065	472,931	0,047	0,079
-581,050	339,383	0,094	0,136
-580,036	800,000	-0,005	0,018
-579,021	368,524	0,113	-0,169
-578,006	692,494	-0,038	-0,073
-576,992	90,834	0,081	-0,067
-575,977	-200,000	0,016	-0,133
-574,963	800,000	-0,031	-0,068
-573,948	800,000	0,023	0,049
-572,934	-113,591	-0,120	0,017
-571,919	-115,199	0,065	-0,009
-570,904	-39,132	-0,136	-0,053
-569,890	73,241	0,081	-0,063
-568,875	-200,000	-0,003	0,027
-567,861	74,833	0,050	0,039
-566,846	800,000	-0,010	-0,022
-565,831	128,706	0,044	0,041
-564,817	526,405	-0,039	-0,068
-563,802	-108,405	-0,145	0,023
-562,788	-200,000	0,001	-0,118
-561,773	800,000	0,034	-0,073
-560,758	-200,000	-0,029	0,128
-559,744	-22,079	0,044	-0,020
-558,729	709,832	0,038	0,074
-557,715	124,006	-0,033	-0,031
-556,700	349,338	0,046	-0,068
-555,685	468,038	-0,034	0,056
-554,671	486,091	0,070	0,118
-553,656	88,388	0,147	0,121
-552,642	-74,436	0,087	-0,023
-551,627	-200,000	-0,002	0,092
-550,612	11,629	-0,042	-0,024
-549,598	143,480	-0,103	-0,102
-548,583	146,275	0,012	-0,012
-547,569	800,000	-0,005	0,014
-546,554	315,525	0,044	-0,062
-545,539	-63,503	-0,126	0,038
-544,525	-91,561	0,052	-0,011
-543,510	279,366	0,043	-0,057
-542,496	258,863	0,008	0,010
-541,481	-200,000	0,007	0,026
-540,466	-91,087	-0,063	-0,013
-539,452	221,378	-0,049	-0,058
-538,437	283,561	0,076	-0,101
-537,423	800,000	-0,029	0,062
-536,408	-122,589	-0,068	-0,008
-535,393	30,009	-0,069	0,043
-534,379	-26,674	-0,123	0,053
-533,364	-200,000	-0,011	-0,077
-532,350	-116,588	0,072	-0,010
-531,335	123,332	0,049	-0,045
-530,321	89,572	0,072	0,060
-529,306	800,000	0,062	0,132
-528,291	800,000	-0,048	0,104
-527,277	401,013	0,031	0,048
-526,262	32,797	-0,032	-0,020
-525,248	800,000	-0,062	0,129
-524,233	-89,879	0,134	0,029
-523,218	128,430	-0,047	0,044
-522,204	800,000	-0,036	-0,092
-521,189	67,496	0,131	-0,099
-520,175	-200,000	-0,010	-0,123
-519,160	-157,431	0,118	0,005
-518,145	-200,000	0,011	-0,119
-517,131	-42,056	0,118	-0,044
-516,116	-150,342	0,059	0,003
-515,102	17,966	0,051	0,030
-514,087	-200,000	0,002	0,009
-513,072	51,791	-0,069	0,049
-512,058	18,690	-0,069	0,041
-511,043	-200,000	0,015	0,066
-510,029	-200,000	0,022	-0,087
-509,014	-86,049	0,090	0,020
-507,999	-200,000	-0,002	0,053
-506,985	-113,337	-0,081	0,012
-505,970	-78,911	-0,123	-0,031
-504,956	800,000	0,033	-0,079
-503,941	395,111	-0,015	0,023
-502,926	83,866	-0,026	0,021
-501,912	-200,000	-0,013	0,085
-500,897	243,755	0,050	0,062
-499,883	100,375	0,074	0,064
-498,868	-200,000	-0,009	0,049
-497,853	-97,080	0,055	0,011
-496,839	-67,452	-0,157	-0,045
-495,824	-92,892	-0,151	0,031
-494,810	195,263	0,014	-0,016
-493,795	53,037	0,104	-0,073
-492,781	1,202	-0,136	-0,072
-491,766	-120,164	0,012	-0,002
-490,751	56,024	0,083	-0,059
-489,737	687,825	0,051	-0,099
-488,722	-200,000	-0,037	0,152
-487,708	-200,000	0,014	0,142
-486,693	-200,000	0,013	0,130
-485,678	-200,000	0,013	0,103
-484,664	-200,000	0,009	-0,181
-483,649	800,000	-0,060	-0,137
-482,635	-200,000	-0,007	-0,038
-481,620	-97,913	0,137	-0,026
-480,605	-142,553	-0,009	0,001
-479,591	51,991	-0,074	0,052
-478,576	-137,511	-0,094	-0,008
-477,562	-17,652	-0,107	0,049
-476,547	-3,146	-0,039	0,020
-475,532	255,911	0,027	0,035
-474,518	-99,219	0,074	-0,014
-473,503	155,432	0,061	-0,062
-472,489	800,000	0,007	-0,024
-471,474	310,176	0,035	-0,049
-470,459	-127,955	-0,054	0,006
-469,445	-162,912	-0,029	-0,001
-468,430	10,667	0,014	0,008
-467,416	-128,431	0,045	-0,005
-466,401	-200,000	-0,010	-0,065
-465,386	159,856	0,044	0,046
-464,372	470,429	-0,046	0,076
-463,357	-115,406	-0,126	-0,017
-462,343	-64,448	-0,095	0,028
-461,328	-162,888	-0,023	-0,001
-460,313	-200,000	0,003	-0,012
-459,299	60,552	0,017	0,012
-458,284	612,933	0,028	0,052
-457,270	90,495	-0,015	0,012
-456,255	800,000	0,025	-0,069
-455,241	-200,000	0,027	-0,177
-454,226	179,625	-0,084	-0,090
-453,211	-200,000	0,003	0,015
-452,197	168,966	-0,068	0,071
-451,182	14,614	-0,099	0,057
-450,168	-75,305	0,118	0,031
-449,153	-125,124	-0,134	-0,015
-448,138	-200,000	0,022	0,128
-447,124	-200,000	-0,002	-0,078
-446,109	800,000	0,015	0,031
-445,095	800,000	0,012	0,027
-444,080	-127,802	0,135	-0,014
-443,065	-200,000	-0,006	0,100
-442,051	-200,000	-0,004	0,097
-441,036	78,172	-0,073	-0,057
-440,022	-116,094	-0,109	-0,015
-439,007	-200,000	0,006	-0,064
-437,992	-54,296	-0,038	0,013
-436,978	-74,911	0,034	-0,009
-435,963	-47,783	0,099	0,035
-434,949	379,658	-0,089	0,135
-433,934	483,170	-0,080	-0,134
-432,919	-146,013	0,090	-0,006
-431,905	-20,839	0,128	0,058
-430,890	-71,384	0,063	0,017
-429,876	298,140	0,048	0,065
-428,861	-200,000	0,011	0,097
-427,846	121,719	-0,075	-0,069
-426,832	-200,000	0,000	0,064
-425,817	-200,000	-0,017	-0,152
-424,803	3,561	-0,054	0,029
-423,788	-103,419	0,102	0,017
-422,773	298,463	-0,127	0,173
-421,759	800,000	0,051	0,134
-420,744	-4,086	-0,091	0,046
-419,730	45,189	-0,076	0,052
-418,715	-200,000	0,020	0,120
-417,701	-88,597	-0,082	0,018
-416,686	-30,497	0,067	-0,028
-415,671	-200,000	0,031	0,143
-414,657	-200,000	0,004	0,154
-413,642	-200,000	0,006	0,133
-412,628	800,000	0,006	0,018
-411,613	-200,000	-0,006	-0,109
-410,598	689,835	0,023	-0,044
-409,584	96,883	0,093	-0,078
-408,569	-200,000	-0,019	-0,176
-407,555	25,051	0,069	0,042
-406,540	44,154	-0,025	0,017
-405,525	-200,000	0,018	0,197
-404,511	284,423	-0,087	-0,115
-403,496	4,140	0,072	-0,039
-402,482	-122,459	0,046	0,005
-401,467	549,437	-0,022	0,039
-400,452	59,524	-0,062	-0,045
-399,438	-79,510	-0,035	0,009
-398,423	159,215	0,080	0,082
-397,409	92,446	-0,024	-0,020
-396,394	-28,968	-0,077	0,032
-395,379	430,775	0,068	-0,109
-394,365	-200,000	0,011	0,094
-393,350	800,000	-0,026	0,078
-392,336	-40,777	0,123	0,047
-391,321	49,403	-0,065	-0,045
-390,306	-132,028	0,110	0,010
-389,292	800,000	0,010	-0,025
-388,277	-133,543	-0,086	-0,008
-387,263	-155,342	0,109	-0,005
-386,248	10,084	-0,039	-0,022
-385,233	-125,876	-0,150	-0,016
-384,219	412,682	0,043	0,068
-383,204	-42,487	-0,132	-0,049
-382,190	-17,647	0,058	0,027
-381,175	-132,044	-0,132	0,012
-380,160	755,080	0,033	-0,065
-379,146	-93,992	0,154	-0,031
-378,131	-200,000	-0,004	-0,081
-377,117	411,041	-0,101	-0,157
-376,102	800,000	0,023	-0,075
-375,088	36,371	0,033	-0,022
-374,073	42,856	0,018	-0,012
-373,058	-4,322	0,024	0,012
-372,044	800,000	-0,008	-0,025
-371,029	-200,000	-0,004	0,096
-370,015	800,000	-0,022	-0,047
-369,000	84,760	-0,024	-0,019
-367,985	5,195	-0,113	0,061
-366,971	187,020	-0,087	0,096
-365,956	145,119	0,044	-0,043
-364,942	177,854	0,052	-0,056
-363,927	-200,000	-0,017	0,067
-362,912	68,566	0,048	0,036
-361,898	-200,000	0,008	0,030
-360,883	-200,000	0,032	-0,139
-359,869	-65,219	0,016	0,005
-358,854	68,432	0,023	0,017
-357,839	800,000	0,075	0,172
-356,825	-200,000	0,012	-0,046
-355,810	6,946	0,030	-0,017
-354,796	-200,000	-0,016	-0,100
-353,781	40,518	-0,078	-0,052
-352,766	527,419	0,030	0,051
-351,752	152,618	-0,159	0,160
-350,737	-200,000	-0,006	-0,035
-349,723	774,972	-0,075	-0,150
-348,708	-92,885	0,051	0,010
-347,693	374,807	0,021	0,031
-346,679	-81,426	-0,049	0,012
-345,664	152,275	-0,057	-0,057
-344,650	20,938	0,135	0,080
-343,635	800,000	-0,042	0,095
-342,620	142,536	0,134	0,131
-341,606	722,362	0,069	-0,136
-340,591	76,683	0,067	0,052
-339,577	800,000	-0,086	-0,232
-338,562	653,214	0,067	-0,127
-337,548	-59,334	-0,086	-0,027
-336,533	800,000	0,091	0,231
-335,518	330,888	-0,041	-0,058
-334,504	170,444	0,076	-0,080
-333,489	-200,000	-0,026	0,102
-332,475	339,057	-0,048	0,069
-331,460	-200,000	-0,000	-0,099
-330,445	-50,638	-0,066	0,023
-329,431	99,780	-0,065	0,055
-328,416	-200,000	0,010	0,112
-327,402	-200,000	-0,001	-0,122
-326,387	38,630	0,068	-0,044
-325,372	-200,000	0,040	0,177
-324,358	-200,000	-0,026	-0,133
-323,343	227,277	-0,087	0,104
-322,329	39,381	0,074	0,048
-321,314	-200,000	-0,009	0,079
-320,299	-144,680	-0,129	-0,009
-319,285	24,662	0,058	-0,035
-318,270	-200,000	-0,030	-0,159
-317,256	42,864	0,069	-0,046
-316,241	-1,856	0,091	0,047
-315,226	800,000	0,021	0,055
-314,212	-34,869	0,118	0,047
-313,197	-86,352	-0,035	-0,008
-312,183	-17,996	-0,112	-0,051
-311,168	450,733	-0,026	0,043
-310,153	-39,975	0,059	0,023
-309,139	-75,195	0,077	0,020
-308,124	-133,269	-0,085	0,008
-307,110	267,058	0,042	0,053
-306,095	-200,000	0,002	-0,008
-305,080	2,024	-0,052	0,027
-304,066	-200,000	0,001	0,042
-303,051	143,642	0,044	0,043
-302,037	250,898	-0,039	0,049
-301,022	-122,797	0,123	-0,014
-300,008	-200,000	-0,055	-0,206
-298,993	500,742	0,023	-0,039
-297,978	14,852	0,095	-0,054
-296,964	-159,483	0,068	-0,003
-295,949	800,000	-0,047	-0,106
-294,935	800,000	-0,028	-0,080
-293,920	-200,000	-0,033	-0,132
-292,905	214,339	0,061	0,071
-291,891	-64,887	0,118	0,035
-290,876	-14,055	-0,152	-0,071
-289,862	800,000	0,019	0,060
-288,847	-49,567	-0,128	-0,044
-287,832	800,000	-0,020	-0,056
-286,818	-200,000	0,001	-0,020
-285,803	-45,155	0,072	0,026
-284,789	13,392	0,113	-0,064
-283,774	743,354	0,010	-0,021
-282,759	287,817	-0,054	0,072
-281,745	134,372	0,090	-0,086
-280,730	-197,729	0,041	0,000
-279,716	73,927	0,054	0,042
-278,701	-89,291	0,035	-0,007
-277,686	599,523	-0,047	0,086
-276,672	-72,015	0,079	-0,021
-275,657	-70,622	0,014	0,004
-274,643	800,000	0,043	-0,117
-273,628	245,262	-0,124	0,154
-272,613	800,000	0,024	0,074
-271,599	-200,000	-0,007	-0,032
-270,584	63,517	0,095	0,070
-269,570	800,000	-0,035	0,093
-268,555	-41,952	0,116	0,043
-267,540	800,000	-0,038	0,109
-266,526	-200,000	0,002	-0,066
-265,511	-200,000	0,014	-0,067
-264,497	47,824	0,069	-0,047
-263,482	800,000	0,009	-0,027
-262,467	50,208	0,040	-0,028
-261,453	-200,000	0,011	0,114
-260,438	127,722	-0,093	0,087
-259,424	255,180	-0,117	0,147
-258,409	-184,944	-0,025	0,000
-257,395	-200,000	0,026	-0,095
-256,380	-110,896	0,074	0,011
-255,365	800,000	-0,023	0,068
-254,351	-87,471	0,129	0,028
-253,336	-119,457	-0,087	0,011
-252,322	147,494	-0,101	0,100
-251,307	61,797	-0,073	0,053
-250,292	-200,000	0,022	-0,082
-249,278	-80,521	0,079	0,019
-248,263	-121,521	-0,029	0,004
-247,249	-200,000	-0,020	-0,074
-246,234	-200,000	-0,021	0,228
-245,219	308,675	-0,074	-0,102
-244,205	33,988	0,028	0,018
-243,190	-200,000	-0,003	-0,054
-242,176	106,760	0,044	0,039
-241,161	97,870	-0,053	0,045
-240,146	-112,304	-0,154	0,022
-239,132	-200,000	0,001	-0,017
-238,117	-65,635	-0,080	-0,023
-237,103	-200,000	-0,022	0,110
-236,088	559,740	0,056	-0,100
-235,073	308,769	-0,006	0,008
-234,059	800,000	0,012	-0,034
-233,044	40,997	0,016	0,011
-232,030	-112,431	-0,080	0,012
-231,015	448,369	-0,020	0,033
-230,000	-200,000	0,002	0,029
-228,986	-200,000	0,015	-0,072
-227,971	-120,894	-0,066	0,008
-226,957	170,220	0,082	0,086
-225,942	-200,000	0,017	-0,063
-224,927	180,784	-0,040	0,043
-223,913	-145,301	-0,036	0,002
-222,898	131,668	-0,103	-0,097
-221,884	800,000	-0,050	-0,116
-220,869	273,781	0,068	0,087
-219,855	456,042	-0,083	-0,134
-218,840	466,839	0,027	-0,045
-217,825	-200,000	-0,007	0,062
-216,811	800,000	-0,014	0,034
-215,796	-200,000	0,081	-0,271
-214,782	208,341	-0,043	0,049
-213,767	162,785	0,019	0,020
-212,752	165,961	0,064	0,066
-211,738	-200,000	-0,006	0,022
-210,723	577,938	0,041	-0,073
-209,709	800,000	0,028	-0,086
-208,694	59,139	-0,085	0,061
-207,679	800,000	0,047	0,136
-206,665	-200,000	0,005	-0,038
-205,650	-200,000	0,001	-0,070
-204,636	-21,649	-0,101	0,045
-203,621	-102,756	-0,128	-0,022
-202,606	-200,000	0,008	-0,055
-201,592	800,000	0,016	0,047
-200,577	800,000	-0,069	-0,162
-199,563	-87,001	0,089	-0,020
-198,548	45,692	-0,008	-0,006
-197,533	-59,030	-0,027	0,008
-196,519	103,746	0,103	-0,089
-195,504	800,000	0,075	0,165
-194,490	122,419	0,039	0,035
-193,475	-200,000	-0,009	0,116
-192,460	276,150	0,085	-0,110
-191,446	784,498	-0,038	-0,076
-190,431	25,506	0,170	0,103
-189,417	66,695	0,022	-0,016
-188,402	290,581	0,055	-0,073
-187,387	800,000	0,019	-0,041
-186,373	-200,000	-0,005	0,018
-185,358	-200,000	-0,006	-0,099
-184,344	-72,184	-0,034	-0,009
-183,329	3,593	0,105	0,056
-182,315	-33,011	0,138	-0,056
-181,300	-22,028	0,020	0,009
-180,285	-200,000	-0,009	-0,084
-179,271	8,108	-0,051	0,028
-178,256	123,334	0,022	-0,021
-177,242	183,547	0,106	-0,115
-176,227	-146,141	0,110	-0,007
-175,212	-200,000	0,016	0,148
-174,198	161,243	0,060	0,062
-173,183	-200,000	0,036	-0,137
-172,169	226,732	-0,122	-0,145
-171,154	14,614	-0,103	-0,058
-170,139	800,000	0,048	0,154
-169,125	67,185	-0,037	0,028
-168,110	-200,000	-0,052	0,182
-167,096	2,364	0,043	-0,023
-166,081	202,956	0,043	0,049
-165,066	119,812	-0,080	0,072
-164,052	-103,495	-0,149	-0,025
-163,037	800,000	0,006	-0,012
-162,023	396,997	-0,013	0,020
-161,008	-200,000	-0,013	0,215
-159,993	526,889	0,101	0,174
-158,979	-26,249	-0,059	-0,025
-157,964	261,009	-0,052	-0,065
-156,950	-200,000	0,012	0,052
-155,935	27,095	0,198	0,121
-154,920	-32,160	0,074	-0,030
-153,906	-200,000	0,009	0,145
-152,891	87,577	-0,017	-0,014
-151,877	800,000	-0,024	-0,055
-150,862	-200,000	-0,001	0,013
-149,847	800,000	-0,022	0,049
-148,833	-78,770	0,060	0,015
-147,818	-200,000	-0,003	0,018
-146,804	457,536	0,069	0,112
-145,789	308,692	0,137	0,187
-144,775	-200,000	0,014	-0,050
-143,760	-82,766	-0,022	-0,005
-142,745	455,596	0,022	0,036
-141,731	31,971	0,148	-0,093
-140,716	35,384	0,102	0,065
-139,702	-59,401	-0,031	0,010
-138,687	523,188	0,047	0,081
-137,672	15,127	-0,082	-0,047
-136,658	-80,919	-0,104	0,025
-135,643	159,320	-0,100	-0,101
-134,629	29,595	0,149	0,092
-133,614	119,283	0,080	0,072
-132,599	-2,758	-0,083	0,042
-131,585	25,182	0,147	0,089
-130,570	-101,848	-0,082	-0,014
-129,556	156,021	-0,039	-0,039
-128,541	-85,984	-0,129	0,029
-127,526	2,467	0,045	0,023
-126,512	126,790	-0,026	-0,024
-125,497	163,031	0,007	0,007
-124,483	41,798	-0,022	-0,014
-123,468	39,112	-0,101	0,066
-122,453	800,000	-0,030	-0,095
-121,439	689,864	-0,069	-0,132
-120,424	-200,000	0,003	-0,051
-119,410	391,247	0,016	0,024
-118,395	516,507	-0,050	0,085
-117,380	39,114	0,146	0,095
-116,366	-46,813	-0,073	-0,026
-115,351	349,777	0,034	-0,049
-114,337	207,101	-0,066	-0,075
-113,322	13,125	-0,118	-0,066
-112,307	-200,000	-0,002	-0,019
-111,293	-120,944	0,047	0,006
-110,278	51,647	0,060	-0,041
-109,264	-117,133	0,101	0,013
-108,249	800,000	-0,054	0,116
-107,234	14,557	-0,104	-0,059
-106,220	800,000	-0,080	-0,203
-105,205	-200,000	-0,007	-0,023
-104,191	-200,000	-0,012	0,165
-103,176	-77,107	-0,177	-0,045
-102,162	202,041	-0,085	0,095
-101,147	-200,000	0,005	-0,034
-100,132	-200,000	-0,008	-0,031
-99,118	63,538	0,088	-0,064
-98,103	520,472	0,022	0,038
-97,089	800,000	-0,018	-0,038
-96,074	-200,000	-0,005	0,020
-95,059	-37,396	0,049	0,019
-94,045	-96,864	0,107	0,020
-93,030	800,000	-0,040	-0,113
-92,016	-57,738	-0,050	-0,016
-91,001	-200,000	0,004	0,172
-89,986	370,416	0,065	0,095
-88,972	-64,473	-0,122	0,036
-87,957	31,370	0,106	0,066
-86,943	-15,459	-0,030	-0,014
-85,928	76,002	0,117	-0,090
-84,913	-23,359	0,022	-0,010
-83,899	-200,000	-0,006	0,088
-82,884	1,333	0,046	-0,024
-81,870	474,732	0,044	-0,072
-80,855	-200,000	0,031	0,120
-79,840	800,000	0,026	0,079
-78,826	161,824	-0,093	-0,095
-77,811	-93,496	-0,052	0,010
-76,797	409,881	-0,076	0,118
-75,782	295,764	-0,018	-0,024
-74,767	-22,424	-0,009	-0,004
-73,753	-44,257	-0,041	-0,015
-72,738	33,734	-0,076	0,048
-71,724	-133,633	0,132	0,012
-70,709	800,000	-0,047	-0,099
-69,694	455,451	-0,043	-0,069
-68,680	-21,429	0,133	0,059
-67,665	199,882	0,063	0,070
-66,651	-200,000	0,027	0,119
-65,636	-10,145	-0,049	0,024
-64,622	-200,000	-0,027	0,148
-63,607	800,000	0,036	-0,096
-62,592	-42,310	-0,242	-0,089
-61,578	-39,366	-0,093	0,035
-60,563	-147,990	0,159	-0,009
-59,549	72,633	-0,092	0,069
-58,534	-99,247	-1,326	-0,241
-57,519	681,770	-0,773	-1,469
-56,505	-200,000	-0,935	-4,443
-55,490	12,328	0,690	-0,385
-54,476	800,000	4,995	11,749
-53,461	-200,000	13,581	253,187
-52,446	-200,000	689,533	2260,954
-51,432	592,111	1622,272	2919,600
-50,417	119,480	1635,012	1469,250
-49,403	73,316	1289,002	977,776
-48,388	38,138	1024,216	660,157
-47,373	24,414	981,827	587,696
-46,359	23,599	971,490	578,811
-45,344	22,574	967,306	572,945
-44,330	22,515	965,718	571,788
-43,315	22,450	964,509	570,838
-42,300	22,423	963,265	569,991
-41,286	22,425	962,474	569,509
-40,271	22,382	961,464	568,748
-39,257	22,390	960,405	568,123
-38,242	22,340	959,485	567,394
-37,227	22,393	958,553	566,993
-36,213	22,441	957,616	566,571
-35,198	22,374	956,815	565,860
-34,184	22,418	956,361	565,712
-33,169	22,398	955,390	565,051
-32,154	22,420	954,538	564,594
-31,140	22,436	953,701	564,127
-30,125	22,367	952,918	563,421
-29,111	22,412	951,797	562,879
-28,096	22,406	951,334	562,565
-27,082	22,406	950,650	562,139
-26,067	22,371	950,018	561,630
-25,052	22,444	949,246	561,385
-24,038	22,431	948,546	560,906
-23,023	22,416	947,860	560,431
-22,009	22,476	947,138	560,172
-20,994	22,492	946,675	559,930
-19,979	22,467	946,015	559,436
-18,965	22,400	945,367	558,815
-17,950	22,467	944,736	558,635
-16,936	22,410	944,160	558,089
-15,921	22,357	943,336	557,412
-14,906	22,302	942,469	556,704
-13,892	22,312	942,127	556,512
-12,877	22,310	941,456	556,086
-11,863	22,299	940,660	555,558
-10,848	22,318	940,184	555,315
-9,833	22,318	939,932	555,146
-8,819	22,395	939,130	554,893
-7,804	22,290	938,437	554,129
-6,790	22,304	937,970	553,876
-5,775	22,352	937,327	553,626
-4,760	22,323	936,778	553,187
-3,746	22,268	936,218	552,663
-2,731	22,142	935,385	551,749
-1,717	22,146	934,726	551,352
-0,702	22,096	933,994	550,740
0,313	21,860	933,428	550,495
1,327	24,982	931,550	559,159
2,342	34,680	796,059	503,669
3,356	32,638	451,440	282,525
4,371	1,742	293,588	152,922
5,386	-2,763	274,419	138,666
6,400	-4,285	268,702	134,353
7,415	-4,683	266,044	132,648
8,429	-4,577	265,013	132,218
9,444	-4,457	264,028	131,825
10,459	-4,552	263,367	131,396
11,473	-4,384	262,846	131,277
12,488	-4,681	262,518	130,832
13,502	-4,666	261,724	130,439
14,517	-4,592	261,455	130,359
15,531	-4,637	260,993	130,077
16,546	-4,499	260,713	130,050
17,561	-4,718	260,384	129,677
18,575	-4,695	260,175	129,583
19,590	-4,630	259,672	129,379
20,604	-4,734	259,318	129,098
21,619	-4,668	259,213	129,093
22,634	-4,761	258,877	128,831
23,648	-4,761	258,315	128,540
24,663	-4,684	258,175	128,528
25,677	-4,627	257,872	128,417
26,692	-4,757	257,600	128,154
27,707	-4,641	257,334	128,113
28,721	-4,740	257,031	127,862
29,736	-4,842	256,855	127,673
30,750	-4,904	256,619	127,491
31,765	-4,651	256,351	127,569
32,780	-4,898	256,128	127,229
33,794	-4,734	256,109	127,353
34,809	-4,770	255,709	127,111
35,823	-4,743	255,410	126,975
36,838	-4,923	255,166	126,683
37,853	-4,846	254,852	126,585
38,867	-4,862	254,827	126,546
39,882	-4,957	254,586	126,332
40,896	-4,986	254,362	126,184
41,911	-4,743	253,965	126,188
42,926	-4,950	253,954	125,990
43,940	-4,881	253,804	125,966
44,955	-4,953	253,479	125,730
45,969	-4,911	253,082	125,558
46,984	-5,195	252,864	125,192
47,999	-5,430	252,758	124,924
49,013	-5,696	252,312	124,461
50,028	-5,647	252,178	124,426
51,042	-5,788	251,854	124,134
52,057	-5,804	251,774	124,069
53,071	-5,640	251,477	124,054
54,086	-5,467	251,345	124,128
55,101	-5,382	251,078	124,058
56,115	-5,232	251,111	124,192
57,130	-4,735	250,908	124,509
58,144	-4,699	250,984	124,568
59,159	-4,658	250,702	124,451
60,174	-4,506	250,373	124,408
61,188	-4,719	250,194	124,125
62,203	-4,702	250,049	124,057
63,217	-4,420	249,599	124,064
64,232	-4,791	249,537	123,704
65,247	-4,700	249,390	123,698
66,261	-4,713	249,004	123,485
67,276	-4,880	248,790	123,225
68,290	-5,322	248,571	122,728
69,305	-5,141	248,426	122,800
70,320	-5,152	248,205	122,671
71,334	-4,906	248,064	122,799
72,349	-4,490	247,934	123,078
73,363	-4,522	247,684	122,916
74,378	-4,658	247,633	122,764
75,393	-4,711	247,370	122,577
76,407	-4,786	247,117	122,378
77,422	-4,840	246,936	122,231
78,436	-4,736	246,796	122,239
79,451	-4,785	246,517	122,049
80,466	-4,572	246,099	122,011
81,480	-5,065	246,008	121,539
82,495	-4,920	245,738	121,516
83,509	-5,108	245,821	121,389
84,524	-4,997	245,546	121,335
85,539	-5,168	245,214	121,016
86,553	-5,017	245,105	121,079
87,568	-5,063	244,885	120,920
88,582	-5,039	244,648	120,813
89,597	-5,166	244,498	120,621
90,611	-4,897	244,450	120,813
91,626	-4,592	244,135	120,901
92,641	-4,836	244,124	120,681
93,655	-4,895	244,008	120,563
94,670	-4,912	243,718	120,395
95,684	-4,908	243,441	120,251
96,699	-4,789	243,366	120,302
97,714	-5,077	243,173	119,957
98,728	-5,120	242,888	119,769
99,743	-5,193	242,663	119,587
100,757	-5,084	242,404	119,539
101,772	-5,132	242,262	119,419
102,787	-4,984	242,054	119,428
103,801	-5,000	242,034	119,394
104,816	-4,980	241,842	119,305
105,830	-4,943	241,788	119,299
106,845	-4,649	241,471	119,375
107,860	-4,744	241,323	119,213
108,874	-5,040	241,116	118,855
109,889	-4,803	240,903	118,936
110,903	-4,852	240,613	118,742
111,918	-5,057	240,642	118,576
112,933	-5,087	240,353	118,398
113,947	-5,033	240,307	118,409
114,962	-4,965	240,133	118,369
115,976	-4,864	239,898	118,326
116,991	-4,897	239,697	118,189
118,006	-4,897	239,625	118,143
119,020	-4,898	239,490	118,065
120,035	-4,934	239,348	117,955
121,049	-4,635	239,279	118,155
122,064	-4,600	239,084	118,077
123,079	-4,939	238,785	117,642
124,093	-4,957	238,536	117,494
125,108	-5,154	238,384	117,248
126,122	-5,245	238,168	117,058
127,137	-5,286	237,996	116,929
128,151	-5,244	237,677	116,796
129,166	-5,257	237,725	116,799
130,181	-5,082	237,384	116,763
131,195	-5,275	237,343	116,576
132,210	-4,935	237,162	116,752
133,224	-4,817	236,911	116,713
134,239	-4,725	236,924	116,784
135,254	-4,714	236,680	116,662
136,268	-4,953	236,586	116,412
137,283	-5,220	236,269	116,031
138,297	-5,491	236,140	115,738
139,312	-5,446	235,860	115,627
140,327	-4,857	235,650	115,987
141,341	-4,626	235,790	116,232
142,356	-4,377	235,660	116,358
143,370	-4,488	235,415	116,137
144,385	-4,410	235,340	116,152
145,400	-4,319	235,138	116,115
146,414	-4,334	235,032	116,041
147,429	-4,351	234,719	115,862
148,443	-4,529	234,533	115,618
149,458	-4,557	234,480	115,559
150,473	-4,606	234,231	115,387
151,487	-4,818	234,143	115,164
152,502	-4,719	233,895	115,111
153,516	-4,418	233,657	115,223
154,531	-4,505	233,564	115,097
155,546	-4,423	233,419	115,081
156,560	-4,435	233,103	114,905
157,575	-4,651	232,971	114,658
158,589	-4,707	232,748	114,494
159,604	-4,565	232,726	114,586
160,619	-4,360	232,709	114,729
161,633	-4,326	232,490	114,638
162,648	-4,407	232,386	114,513
163,662	-4,415	232,187	114,399
164,677	-4,645	231,958	114,093
165,692	-4,421	231,721	114,144
166,706	-4,400	231,755	114,166
167,721	-4,378	231,607	114,100
168,735	-4,155	231,350	114,140
169,750	-4,315	231,315	113,986
170,764	-4,447	231,141	113,787
171,779	-4,318	230,913	113,766
172,794	-4,390	230,783	113,635
173,808	-4,535	230,649	113,444
174,823	-5,021	230,202	112,834
175,837	-5,336	230,179	112,565
176,852	-4,929	230,087	112,830
177,867	-4,384	229,840	113,125
178,881	-4,290	229,698	113,118
179,896	-4,328	229,742	113,100
180,910	-4,285	229,593	113,050
181,925	-4,426	229,361	112,816
182,940	-4,370	229,182	112,761
183,954	-4,318	229,134	112,768
184,969	-4,223	229,050	112,791
185,983	-4,415	228,871	112,543
186,998	-4,256	228,718	112,582
188,013	-4,174	228,450	112,504
189,027	-4,246	228,403	112,414
190,042	-4,265	228,169	112,274
191,056	-4,218	227,956	112,196
192,071	-4,331	228,007	112,124
193,086	-4,298	227,709	111,992
194,100	-4,354	227,657	111,914
195,115	-4,605	227,203	111,487
196,129	-5,313	227,164	110,911
197,144	-1,670	228,206	114,231
198,159	2,543	229,230	118,004
199,173	4,256	229,502	119,461
200,188	4,333	229,434	119,474
201,202	4,381	229,408	119,488
202,217	4,460	229,214	119,438
203,232	4,614	229,276	119,578
204,246	4,920	229,097	119,711
205,261	4,829	229,024	119,592
206,275	5,067	228,753	119,623
207,290	5,135	228,633	119,602
208,304	5,052	228,349	119,379
209,319	5,052	228,351	119,369
210,334	4,796	228,218	119,092
211,348	4,740	228,011	118,930
212,363	4,340	227,629	118,413
213,377	4,004	227,466	118,061
214,392	4,186	227,213	118,058
215,407	4,335	227,155	118,131
216,421	4,294	227,005	118,011
217,436	4,029	226,841	117,713
218,450	3,878	226,639	117,483
219,465	3,927	226,497	117,435
220,480	4,043	226,307	117,415
221,494	4,003	226,163	117,300
222,509	4,303	226,077	117,473
223,523	4,027	225,990	117,207
224,538	4,012	225,795	117,084
225,553	3,929	225,620	116,920
226,567	4,134	225,533	117,020
227,582	4,468	225,469	117,230
228,596	4,457	225,405	117,178
229,611	4,328	225,167	116,946
230,626	3,954	224,967	116,548
231,640	4,053	224,815	116,534
232,655	4,159	224,730	116,560
233,669	4,864	224,474	116,950
234,684	4,782	224,455	116,867
235,699	4,488	224,352	116,581
236,713	4,277	224,134	116,298
237,728	3,872	223,846	115,833
238,742	4,082	223,676	115,893
239,757	4,051	223,665	115,854
240,772	3,973	223,486	115,692
241,786	4,038	223,271	115,619
242,801	4,364	223,246	115,841
243,815	4,491	223,258	115,932
244,830	4,440	223,043	115,772
245,844	4,130	222,746	115,376
246,859	4,160	222,613	115,318
247,874	4,422	222,485	115,438
248,888	4,229	222,455	115,268
249,903	4,113	222,298	115,089
250,917	3,951	222,176	114,895
251,932	4,247	221,887	114,957
252,947	4,166	221,718	114,798
253,961	3,983	221,633	114,607
254,976	4,106	221,528	114,634
255,990	4,422	221,356	114,770
257,005	4,243	221,355	114,626
258,020	4,206	221,259	114,539
259,034	4,399	221,035	114,556
260,049	4,313	220,848	114,385
261,063	4,250	220,680	114,242
262,078	4,570	220,498	114,374
263,093	4,535	220,486	114,331
264,107	4,480	220,289	114,179
265,122	4,251	220,292	114,000
266,136	4,473	220,124	114,067
267,151	4,642	219,888	114,060
268,166	4,248	219,661	113,641
269,180	3,788	219,512	113,215
270,195	4,082	219,309	113,317
271,209	4,025	219,134	113,174
272,224	4,138	218,899	113,126
273,239	3,977	218,995	113,047
274,253	4,038	218,709	112,934
275,268	4,071	218,495	112,837
276,282	3,993	218,198	112,617
277,297	3,778	218,299	112,502
278,312	4,137	218,008	112,604
279,326	4,178	217,988	112,614
280,341	3,831	217,918	112,314
281,355	4,060	217,792	112,407
282,370	4,085	217,731	112,384
283,384	3,940	217,463	112,129
284,399	3,944	217,183	111,978
285,414	3,960	217,079	111,926
286,428	3,960	217,124	111,939
287,443	4,111	217,021	111,985
288,457	4,190	216,790	111,914
289,472	4,204	216,670	111,852
290,487	3,763	216,367	111,366
291,501	3,898	216,145	111,340
292,516	3,905	216,099	111,311
293,530	3,840	215,993	111,199
294,545	4,024	215,870	111,259
295,560	4,150	215,736	111,271
296,574	4,306	215,663	111,336
297,589	4,122	215,530	111,125
298,603	4,415	215,273	111,193
299,618	4,150	215,275	110,994
300,633	4,087	215,182	110,890
301,647	4,208	215,076	110,913
302,662	4,310	215,045	110,961
303,676	4,180	214,951	110,809
304,691	4,369	214,811	110,863
305,706	4,304	214,438	110,613
306,720	4,207	214,396	110,512
307,735	4,105	214,094	110,274
308,749	4,231	213,868	110,238
309,764	4,160	213,926	110,207
310,779	4,576	213,911	110,487
311,793	4,436	213,832	110,336
312,808	4,023	213,597	109,910
313,822	4,409	213,279	110,012
314,837	4,181	213,232	109,816
315,852	3,910	212,987	109,486
316,866	4,114	212,936	109,596
317,881	4,193	212,886	109,616
318,895	4,441	212,692	109,683
319,910	4,145	212,585	109,407
320,925	4,070	212,291	109,194
321,939	3,711	212,224	108,895
322,954	3,822	212,042	108,871
323,968	4,284	212,051	109,193
324,983	4,110	211,973	109,020
325,997	4,180	211,809	108,975
327,012	4,246	211,632	108,920
328,027	4,426	211,454	108,946
329,041	4,663	211,374	109,062
330,056	4,366	211,500	108,909
331,070	4,246	211,166	108,642
332,085	3,894	210,803	108,198
333,100	3,910	210,881	108,239
334,114	4,352	210,661	108,428
335,129	4,337	210,375	108,260
336,143	3,670	210,404	107,798
337,158	4,033	210,178	107,926
338,173	4,181	209,939	107,898
339,187	3,840	209,959	107,660
340,202	3,698	209,715	107,426
341,216	3,600	209,469	107,222
342,231	3,923	209,527	107,467
343,246	3,792	209,345	107,273
344,260	4,001	209,170	107,319
345,275	3,994	209,216	107,329
346,289	3,985	209,074	107,240
347,304	4,281	208,881	107,338
348,319	4,290	208,629	107,205
349,333	4,118	208,701	107,113
350,348	4,290	208,447	107,092
351,362	4,562	208,389	107,241
352,377	4,747	208,291	107,310
353,392	4,117	208,149	106,790
354,406	4,105	208,053	106,723
355,421	193,562	1346,511	1434,419
356,435	154,408	1485,328	1434,534
