DTS Sentinel unit serial number:	SN410029Multiplexer serial number:	ORYXHardware model number:	OX2-SRSoftware version number:	ORYX F/W v4,00 Oryx Data Collector v3.7.2.0data status	okinstallation	B6 Nyhavnadifferential loss correction	single-endedforward channel	channel 2reverse channel	N/Adate	2023/12/07time	14:00:08forward acquisition time	300,00reverse acquisition time	0,00gamma	499,1914k internal	0,3199k external	0,3199temperature offset calibration	1,0000default loss term (dB/km)	0,3820temperature slope calibration	1,0000multiplexer offset coefficient	1,0000multiplexer slope coefficient	1,0000fibre end	0,00T internal ref (°C)	13,08T ext. ref 1 (°C)	-1,69T ext. ref 2 (°C)	-1,66length (m)	temperature (°C)	Stokes	anti-Stokes-744,400	-86,455	0,057	-0,013
-743,385	-155,941	-0,246	0,011
-742,371	34,279	0,114	0,073
-741,356	-186,458	-0,249	-0,003
-740,342	800,000	0,068	0,215
-739,327	-136,761	-0,297	0,025
-738,312	419,211	0,043	-0,067
-737,298	-163,068	-0,421	-0,015
-736,283	54,442	0,075	-0,053
-735,269	-80,401	-0,244	-0,059
-734,254	13,917	0,085	0,048
-733,239	-33,134	-0,485	-0,195
-732,225	463,842	0,007	0,011
-731,210	117,971	-0,033	0,030
-730,196	481,825	0,007	-0,011
-729,181	-7,126	-0,052	-0,026
-728,167	-70,083	-0,023	0,006
-727,152	-200,000	-0,008	0,078
-726,137	119,385	-0,081	0,073
-725,123	-200,000	-0,005	0,054
-724,108	-85,930	-0,067	-0,015
-723,094	-32,531	-0,124	0,050
-722,079	92,422	-0,057	-0,046
-721,064	-200,000	0,015	0,062
-720,050	505,381	-0,031	0,052
-719,035	800,000	0,028	0,070
-718,021	-176,931	0,014	0,000
-717,006	157,975	-0,086	-0,087
-715,991	-81,141	0,153	0,036
-714,977	740,193	-0,028	-0,054
-713,962	-46,008	-0,096	0,034
-712,948	760,124	-0,025	0,049
-711,933	-200,000	-0,004	0,038
-710,918	420,951	-0,042	-0,065
-709,904	-97,943	-0,092	0,017
-708,889	-106,280	-0,094	0,015
-707,875	-114,965	0,141	-0,019
-706,860	-83,188	0,093	0,022
-705,845	137,280	0,234	0,222
-704,831	559,592	-0,032	0,056
-703,816	-144,008	-0,046	-0,003
-702,802	-56,450	-0,145	-0,046
-701,787	-200,000	-0,010	0,049
-700,772	800,000	0,047	-0,102
-699,758	78,410	0,026	0,020
-698,743	0,977	0,085	-0,044
-697,729	306,013	0,067	0,091
-696,714	800,000	0,058	0,122
-695,699	-162,537	-0,090	0,003
-694,685	-154,077	-0,090	-0,004
-693,670	-118,417	-0,094	0,012
-692,656	186,193	0,127	-0,137
-691,641	-63,289	-0,090	0,027
-690,627	-200,000	0,004	0,024
-689,612	110,868	0,024	-0,021
-688,597	-200,000	0,015	-0,068
-687,583	800,000	-0,039	-0,095
-686,568	-200,000	0,022	-0,198
-685,554	-94,260	-0,048	-0,009
-684,539	560,056	-0,049	0,086
-683,524	0,757	0,026	-0,013
-682,510	-200,000	0,000	0,039
-681,495	263,638	-0,095	-0,120
-680,481	-4,796	0,101	0,051
-679,466	-119,203	0,101	-0,013
-678,451	112,051	-0,030	0,026
-677,437	-45,944	0,043	-0,015
-676,422	155,667	0,054	0,054
-675,408	800,000	0,015	-0,039
-674,393	235,402	0,094	-0,113
-673,378	-9,575	0,077	-0,037
-672,364	189,144	0,107	-0,117
-671,349	137,740	0,058	0,055
-670,335	-200,000	0,003	-0,044
-669,320	-130,162	0,100	-0,010
-668,305	78,538	-0,022	-0,017
-667,291	-31,275	0,055	0,022
-666,276	124,890	-0,019	0,017
-665,262	65,186	-0,095	0,070
-664,247	-21,621	-0,068	0,030
-663,232	38,485	0,047	0,030
-662,218	-75,186	-0,051	0,013
-661,203	-200,000	0,016	0,111
-660,189	181,983	-0,053	0,056
-659,174	-150,901	0,093	0,005
-658,159	159,023	-0,069	-0,069
-657,145	-138,492	-0,119	0,009
-656,130	326,970	-0,026	0,036
-655,116	364,148	0,067	-0,098
-654,101	-200,000	-0,005	0,065
-653,086	-86,290	0,050	0,011
-652,072	-108,091	-0,043	0,007
-651,057	290,992	-0,031	-0,041
-650,043	99,710	-0,029	0,024
-649,028	800,000	-0,018	-0,037
-648,014	356,480	0,116	0,168
-646,999	-53,798	0,038	0,012
-645,984	273,568	-0,032	-0,041
-644,970	-200,000	0,012	-0,079
-643,955	388,434	-0,092	-0,139
-642,941	-114,847	-0,145	0,020
-641,926	6,696	-0,067	0,036
-640,911	-200,000	-0,043	0,151
-639,897	-200,000	-0,017	0,131
-638,882	-200,000	-0,012	0,040
-637,868	-0,275	-0,075	-0,039
-636,853	712,298	0,049	-0,095
-635,838	273,574	-0,022	-0,029
-634,824	-67,555	-0,009	-0,002
-633,809	-66,706	0,076	0,022
-632,795	-5,656	0,065	0,032
-631,780	-200,000	0,033	-0,140
-630,765	-200,000	0,020	-0,143
-629,751	268,939	-0,028	0,035
-628,736	97,038	-0,028	0,023
-627,722	396,509	0,034	0,051
-626,707	-125,069	0,106	-0,012
-625,692	316,600	0,075	0,103
-624,678	96,762	-0,054	0,045
-623,663	-56,969	0,070	0,022
-622,649	60,814	-0,035	0,025
-621,634	-69,488	-0,050	0,014
-620,619	-200,000	0,009	0,096
-619,605	74,599	-0,080	0,061
-618,590	-200,000	0,021	-0,170
-617,576	652,807	-0,051	0,095
-616,561	-200,000	0,011	0,061
-615,546	15,118	-0,067	0,038
-614,532	359,357	-0,046	-0,066
-613,517	167,824	0,042	-0,044
-612,503	-200,000	0,016	0,055
-611,488	800,000	-0,011	0,032
-610,474	800,000	-0,024	0,060
-609,459	-200,000	0,018	-0,123
-608,444	-200,000	-0,019	0,120
-607,430	-8,710	-0,010	-0,005
-606,415	-136,545	-0,094	-0,008
-605,401	800,000	-0,029	-0,069
-604,386	-162,978	-0,071	-0,002
-603,371	800,000	-0,054	0,120
-602,357	-52,904	0,119	0,039
-601,342	143,208	-0,066	-0,064
-600,328	372,409	-0,016	-0,024
-599,313	-10,121	0,099	-0,047
-598,298	168,175	-0,053	0,054
-597,284	262,373	0,160	0,201
-596,269	22,078	0,163	-0,096
-595,255	149,668	-0,064	-0,063
-594,240	-13,645	-0,104	-0,048
-593,225	-11,752	0,142	-0,067
-592,211	535,222	-0,032	-0,055
-591,196	297,862	-0,076	-0,101
-590,182	466,929	-0,014	0,023
-589,167	-200,000	0,000	-0,076
-588,152	-24,086	0,062	-0,027
-587,138	-71,106	-0,116	0,031
-586,123	-200,000	0,024	-0,171
-585,109	-200,000	0,001	-0,064
-584,094	471,506	-0,021	0,034
-583,079	-200,000	-0,003	0,062
-582,065	69,879	0,115	0,085
-581,050	96,054	-0,050	0,042
-580,036	-69,866	0,118	-0,032
-579,021	-131,099	0,091	-0,009
-578,006	269,014	0,021	-0,027
-576,992	-25,499	-0,159	-0,068
-575,977	-200,000	-0,014	-0,090
-574,963	800,000	0,062	-0,159
-573,948	81,931	0,025	0,020
-572,934	-65,177	0,093	-0,027
-571,919	-174,769	-0,159	0,003
-570,904	-30,811	-0,068	-0,028
-569,890	524,986	0,060	-0,103
-568,875	-88,366	0,135	-0,029
-567,861	130,106	-0,119	0,110
-566,846	219,122	0,038	-0,044
-565,831	-58,218	-0,093	-0,029
-564,817	-200,000	0,014	-0,063
-563,802	4,747	-0,085	-0,045
-562,788	-40,138	-0,060	-0,022
-561,773	186,570	-0,055	-0,059
-560,758	-88,543	0,073	0,016
-559,744	800,000	-0,087	0,185
-558,729	138,283	-0,021	-0,020
-557,715	-88,451	-0,042	-0,009
-556,700	-200,000	-0,001	0,070
-555,685	-101,609	-0,038	0,007
-554,671	-162,532	-0,020	-0,001
-553,656	800,000	-0,004	0,011
-552,642	-98,311	0,064	-0,012
-551,627	-20,963	0,077	0,034
-550,612	200,484	-0,089	-0,099
-549,598	147,610	-0,097	-0,094
-548,583	-200,000	-0,030	-0,130
-547,569	50,257	-0,093	0,063
-546,554	-100,772	0,085	-0,015
-545,539	128,109	0,047	0,043
-544,525	505,846	-0,005	0,008
-543,510	444,413	0,031	0,049
-542,496	800,000	-0,046	-0,102
-541,481	-200,000	-0,036	-0,230
-540,466	800,000	-0,016	0,043
-539,452	-25,227	0,050	-0,021
-538,437	356,068	0,114	-0,164
-537,423	-85,466	0,097	-0,022
-536,408	-200,000	0,024	0,213
-535,393	111,508	-0,140	-0,122
-534,379	-83,424	-0,111	-0,025
-533,364	73,522	0,086	-0,065
-532,350	-144,895	0,051	0,003
-531,335	779,055	0,058	0,115
-530,321	-200,000	0,008	-0,085
-529,306	-145,676	0,054	-0,003
-528,291	88,967	0,045	0,036
-527,277	28,498	0,092	-0,056
-526,262	-200,000	-0,015	-0,071
-525,248	-167,626	0,097	0,003
-524,233	190,307	-0,085	0,092
-523,218	800,000	0,036	0,100
-522,204	256,117	-0,016	-0,020
-521,189	-12,095	0,027	-0,012
-520,175	62,235	-0,066	0,047
-519,160	-1,239	0,051	-0,026
-518,145	-94,522	-0,053	-0,010
-517,131	734,593	-0,055	0,107
-516,116	400,958	0,019	-0,029
-515,102	-200,000	-0,001	-0,010
-514,087	186,108	-0,022	0,024
-513,072	-200,000	-0,025	-0,116
-512,058	-200,000	0,026	0,182
-511,043	294,730	0,022	-0,029
-510,029	-37,402	0,174	0,067
-509,014	12,465	-0,192	-0,107
-507,999	-45,482	-0,169	-0,060
-506,985	304,560	-0,072	-0,097
-505,970	60,453	-0,112	0,080
-504,956	-94,953	0,063	-0,012
-503,941	66,452	-0,085	-0,062
-502,926	164,225	-0,039	0,040
-501,912	-90,308	-0,004	0,001
-500,897	-200,000	0,000	0,034
-499,883	-34,344	-0,107	0,042
-498,868	392,200	-0,015	0,023
-497,853	-106,604	-0,057	-0,009
-496,839	33,725	-0,097	0,061
-495,824	443,730	0,058	0,093
-494,810	-200,000	-0,011	0,088
-493,795	-200,000	0,031	-0,153
-492,781	-142,489	-0,137	-0,010
-491,766	-35,629	-0,111	-0,043
-490,751	-27,748	-0,059	-0,024
-489,737	800,000	0,074	0,224
-488,722	56,306	0,140	0,098
-487,708	-13,615	-0,126	-0,058
-486,693	-28,296	-0,113	0,047
-485,678	532,074	0,067	-0,115
-484,664	-200,000	-0,012	-0,072
-483,649	800,000	0,050	-0,123
-482,635	-19,311	-0,144	-0,064
-481,620	94,509	0,053	0,044
-480,605	-200,000	-0,002	-0,058
-479,591	-200,000	0,004	0,050
-478,576	800,000	-0,012	0,030
-477,562	135,233	-0,064	-0,060
-476,547	-200,000	-0,011	-0,081
-475,532	-200,000	0,010	0,081
-474,518	-155,673	0,089	0,004
-473,503	-200,000	-0,006	-0,032
-472,489	-29,299	-0,035	0,015
-471,474	24,495	-0,034	-0,020
-470,459	800,000	-0,003	-0,009
-469,445	323,271	0,101	-0,139
-468,430	-200,000	0,011	-0,091
-467,416	104,330	-0,045	0,038
-466,401	0,009	0,106	0,054
-465,386	-164,352	-0,018	-0,001
-464,372	22,902	-0,093	-0,055
-463,357	594,192	-0,073	-0,130
-462,343	800,000	0,009	-0,021
-461,328	46,265	-0,068	0,045
-460,313	798,145	-0,023	0,045
-459,299	-200,000	0,010	-0,082
-458,284	207,547	-0,025	-0,028
-457,270	182,222	-0,132	-0,141
-456,255	701,527	-0,047	0,090
-455,241	-110,823	0,084	0,012
-454,226	-94,754	0,092	-0,018
-453,211	-200,000	-0,022	-0,111
-452,197	-37,113	0,045	0,017
-451,182	800,000	-0,006	0,016
-450,168	541,117	0,018	0,031
-449,153	78,538	-0,113	0,087
-448,138	-70,487	-0,080	0,022
-447,124	-41,430	0,076	0,028
-446,109	800,000	-0,051	-0,144
-445,095	-200,000	-0,021	0,088
-444,080	-200,000	0,005	0,017
-443,065	-200,000	0,008	0,112
-442,051	115,189	0,043	-0,038
-441,036	-200,000	-0,019	-0,093
-440,022	15,997	0,063	-0,035
-439,007	800,000	0,034	0,083
-437,992	800,000	-0,029	0,084
-436,978	-20,396	0,085	0,038
-435,963	163,160	-0,013	-0,013
-434,949	498,327	0,089	0,147
-433,934	65,641	-0,038	0,027
-432,919	80,943	-0,100	-0,078
-431,905	-0,905	-0,047	0,024
-430,890	586,393	-0,017	0,030
-429,876	79,924	-0,060	0,046
-428,861	437,079	0,038	-0,060
-427,846	-200,000	0,000	-0,040
-426,832	-57,508	0,052	0,016
-425,817	462,492	0,044	-0,070
-424,803	265,807	0,069	-0,087
-423,788	-200,000	0,010	-0,061
-422,773	-85,840	0,226	0,050
-421,759	369,479	0,038	0,055
-420,744	-200,000	-0,004	0,021
-419,730	-136,675	-0,019	0,002
-418,715	238,898	0,023	-0,028
-417,701	-200,000	-0,020	-0,104
-416,686	-200,000	0,029	-0,127
-415,671	63,399	0,078	0,056
-414,657	800,000	-0,049	0,112
-413,642	-8,902	0,027	0,013
-412,628	78,992	0,027	0,021
-411,613	193,142	0,077	-0,083
-410,598	800,000	0,011	-0,023
-409,584	99,494	0,048	-0,040
-408,569	406,691	-0,043	0,065
-407,555	-200,000	-0,006	0,064
-406,540	75,593	-0,085	0,064
-405,525	94,425	-0,013	0,011
-404,511	-40,142	0,064	-0,024
-403,496	-200,000	0,004	-0,028
-402,482	-45,562	0,079	-0,028
-401,467	-200,000	-0,001	0,115
-400,452	-19,436	0,012	-0,005
-399,438	-46,932	-0,138	-0,048
-398,423	97,550	0,041	-0,034
-397,409	-200,000	-0,001	-0,109
-396,394	-126,536	-0,110	-0,012
-395,379	-46,131	-0,023	0,008
-394,365	102,836	0,060	0,050
-393,350	-74,600	0,164	0,042
-392,336	470,493	-0,024	0,039
-391,321	188,144	0,039	0,042
-390,306	177,916	-0,056	0,059
-389,292	1,989	-0,089	-0,046
-388,277	0,097	0,092	0,047
-387,263	203,486	-0,052	0,058
-386,248	483,781	0,020	-0,033
-385,233	185,450	0,089	-0,095
-384,219	800,000	-0,007	0,017
-383,204	154,319	-0,052	0,051
-382,190	800,000	-0,072	-0,149
-381,175	30,418	-0,072	-0,044
-380,160	-135,087	0,126	0,011
-379,146	265,532	0,078	0,098
-378,131	282,146	0,045	0,058
-377,117	-89,513	-0,066	0,014
-376,102	-79,576	0,083	-0,020
-375,088	20,959	-0,025	0,015
-374,073	-200,000	-0,001	0,026
-373,058	74,325	0,113	0,085
-372,044	-23,719	0,131	0,056
-371,029	129,992	0,040	0,037
-370,015	468,033	0,051	-0,083
-369,000	-200,000	-0,015	0,053
-367,985	232,660	0,029	-0,034
-366,971	-48,613	-0,014	-0,005
-365,956	-144,990	0,118	-0,008
-364,942	800,000	-0,037	-0,095
-363,927	800,000	-0,030	0,082
-362,912	187,692	-0,037	-0,039
-361,898	-127,069	-0,072	0,008
-360,883	-73,542	-0,026	0,007
-359,869	800,000	-0,029	0,089
-358,854	-200,000	0,011	0,058
-357,839	-200,000	-0,018	-0,070
-356,825	342,201	0,028	-0,040
-355,810	-123,665	-0,017	-0,002
-354,796	-200,000	-0,001	-0,066
-353,781	64,974	0,065	-0,047
-352,766	9,994	-0,070	0,038
-351,752	63,377	0,143	0,102
-350,737	240,158	0,023	0,027
-349,723	-142,977	-0,127	0,009
-348,708	-200,000	0,011	0,147
-347,693	-200,000	0,005	0,082
-346,679	88,542	0,029	-0,023
-345,664	800,000	-0,063	0,146
-344,650	-103,345	-0,049	-0,008
-343,635	-200,000	-0,006	0,126
-342,620	-61,321	-0,046	-0,014
-341,606	-200,000	0,009	0,146
-340,591	-17,832	0,023	0,010
-339,577	184,243	0,042	-0,044
-338,562	-200,000	-0,006	-0,064
-337,548	800,000	-0,036	0,086
-336,533	-23,838	0,066	-0,028
-335,518	168,224	0,068	-0,070
-334,504	-15,064	-0,067	0,031
-333,489	120,046	0,068	-0,060
-332,475	-71,545	-0,089	-0,024
-331,460	-94,999	0,015	-0,003
-330,445	-115,248	0,089	0,012
-329,431	-200,000	-0,011	0,075
-328,416	23,431	0,053	-0,031
-327,402	-128,063	0,174	0,018
-326,387	800,000	-0,027	0,064
-325,372	-24,367	-0,133	0,056
-324,358	126,605	-0,086	0,078
-323,343	-200,000	-0,002	0,102
-322,329	-151,260	0,136	0,007
-321,314	-200,000	0,025	0,114
-320,299	682,831	-0,086	0,161
-319,285	10,014	0,081	-0,044
-318,270	167,337	-0,088	-0,090
-317,256	463,622	0,074	-0,119
-316,241	159,104	-0,041	-0,041
-315,226	800,000	0,009	0,018
-314,212	-200,000	-0,004	-0,050
-313,197	800,000	-0,028	0,058
-312,183	-200,000	-0,015	-0,068
-311,168	-46,814	-0,132	-0,046
-310,153	-85,835	0,156	0,034
-309,139	100,472	-0,120	-0,100
-308,124	225,287	-0,071	0,083
-307,110	-2,562	0,122	-0,061
-306,095	30,640	-0,095	-0,058
-305,080	75,227	0,077	0,058
-304,066	57,505	0,056	-0,039
-303,051	800,000	0,049	-0,130
-302,037	468,875	0,017	-0,028
-301,022	17,333	-0,055	-0,031
-300,008	-200,000	0,025	0,128
-298,993	800,000	0,046	0,097
-297,978	-41,521	0,084	0,031
-296,964	-188,881	-0,085	0,001
-295,949	800,000	-0,022	-0,064
-294,935	59,982	0,070	-0,049
-293,920	641,318	0,047	0,086
-292,905	26,890	-0,035	-0,021
-291,891	151,735	0,035	-0,034
-290,876	191,535	-0,070	0,076
-289,862	83,547	0,044	0,034
-288,847	800,000	0,007	-0,022
-287,832	217,296	-0,040	-0,046
-286,818	-16,140	-0,070	-0,032
-285,803	-126,463	-0,091	-0,010
-284,789	-200,000	-0,019	0,097
-283,774	-38,901	-0,023	-0,009
-282,759	-66,611	-0,021	-0,006
-281,745	-200,000	-0,003	0,053
-280,730	-34,524	-0,177	-0,069
-279,716	-125,381	0,168	0,018
-278,701	17,317	0,063	0,036
-277,686	4,647	0,064	-0,034
-276,672	-200,000	0,001	-0,009
-275,657	58,996	0,036	-0,025
-274,643	-200,000	-0,014	0,051
-273,628	74,526	-0,068	0,051
-272,613	-180,649	0,111	0,002
-271,599	293,573	0,071	-0,092
-270,584	-65,613	-0,098	0,028
-269,570	73,482	-0,090	-0,068
-268,555	-102,554	-0,011	-0,002
-267,540	18,829	-0,033	0,019
-266,526	287,131	-0,011	0,014
-265,511	372,196	0,079	-0,115
-264,497	350,789	0,009	-0,013
-263,482	215,912	-0,087	0,099
-262,467	-181,102	0,059	0,001
-261,453	-62,571	-0,097	0,029
-260,438	-100,538	-0,121	0,021
-259,424	238,220	0,029	-0,034
-258,409	-146,734	0,067	0,004
-257,395	-200,000	0,015	0,066
-256,380	78,526	-0,030	0,023
-255,365	5,048	0,110	0,058
-254,351	-111,678	0,132	0,019
-253,336	-14,127	0,174	0,080
-252,322	800,000	0,061	-0,152
-251,307	-51,932	-0,014	-0,005
-250,292	-200,000	-0,019	-0,063
-249,278	-8,550	0,105	-0,050
-248,263	-46,506	0,124	-0,043
-247,249	356,484	0,026	0,037
-246,234	-26,560	0,031	-0,013
-245,219	6,261	-0,076	0,040
-244,205	-200,000	-0,001	0,059
-243,190	-136,473	-0,051	0,004
-242,176	800,000	0,059	-0,121
-241,161	587,292	0,067	0,118
-240,146	25,423	-0,134	0,079
-239,132	-17,547	-0,126	-0,056
-238,117	-200,000	-0,018	-0,121
-237,103	-89,569	-0,057	0,012
-236,088	800,000	0,055	0,115
-235,073	-200,000	0,048	0,169
-234,059	-46,822	0,041	-0,014
-233,044	-6,090	0,015	0,007
-232,030	44,920	0,032	0,021
-231,015	-106,978	-0,057	-0,009
-230,000	-76,184	-0,129	0,032
-228,986	-48,244	-0,076	-0,026
-227,971	-200,000	0,021	-0,133
-226,957	-200,000	-0,019	0,129
-225,942	260,932	-0,135	0,166
-224,927	-200,000	0,010	0,140
-223,913	282,155	-0,064	-0,081
-222,898	-200,000	0,009	-0,047
-221,884	-200,000	0,020	-0,068
-220,869	-200,000	0,036	0,189
-219,855	-200,000	-0,005	0,054
-218,840	-58,324	0,195	0,060
-217,825	-200,000	-0,032	0,116
-216,811	8,157	-0,099	-0,053
-215,796	-200,000	0,012	-0,084
-214,782	-181,205	0,099	-0,001
-213,767	-1,745	0,087	-0,043
-212,752	125,585	0,041	0,037
-211,738	800,000	0,070	0,143
-210,723	-200,000	-0,010	-0,076
-209,709	-115,434	-0,080	0,011
-208,694	173,271	-0,062	-0,064
-207,679	-200,000	-0,010	-0,058
-206,665	101,658	-0,123	-0,103
-205,650	-15,560	0,092	0,042
-204,636	71,880	0,077	-0,057
-203,621	-14,853	-0,114	-0,052
-202,606	-59,128	-0,084	0,026
-201,592	800,000	-0,024	0,052
-200,577	-127,889	-0,063	0,006
-199,563	-200,000	-0,014	-0,058
-198,548	800,000	0,057	0,126
-197,533	61,137	0,082	0,058
-196,519	-131,978	0,021	-0,002
-195,504	800,000	-0,037	0,108
-194,490	549,398	0,021	-0,037
-193,475	-200,000	0,013	0,151
-192,460	800,000	0,076	-0,190
-191,446	134,011	0,085	-0,079
-190,431	800,000	0,020	0,043
-189,417	-38,400	-0,187	-0,070
-188,402	66,599	0,052	0,037
-187,387	-200,000	0,020	-0,105
-186,373	666,602	-0,037	-0,068
-185,358	7,071	-0,036	0,019
-184,344	31,787	0,098	-0,060
-183,329	-62,317	-0,027	-0,008
-182,315	211,260	-0,119	-0,134
-181,300	8,673	-0,114	-0,061
-180,285	25,523	0,026	-0,015
-179,271	-16,170	0,019	-0,009
-178,256	-142,458	0,109	0,007
-177,242	-200,000	0,106	-0,000
-176,227	23,850	0,078	-0,045
-175,212	-200,000	-0,030	0,133
-174,198	310,166	0,122	0,163
-173,183	-133,288	0,081	-0,007
-172,169	-200,000	-0,011	0,041
-171,154	249,416	0,003	0,003
-170,139	800,000	0,029	-0,090
-169,125	-136,489	-0,092	-0,007
-168,110	-106,621	0,071	-0,011
-167,096	-99,226	-0,117	-0,021
-166,081	-61,848	0,041	-0,012
-165,066	-45,324	-0,156	0,055
-164,052	190,506	-0,028	-0,030
-163,037	277,454	0,078	-0,098
-162,023	155,044	0,031	-0,031
-161,008	234,223	-0,008	-0,010
-159,993	259,749	0,130	0,160
-158,979	63,135	-0,004	0,003
-157,964	-122,901	-0,115	-0,013
-156,950	-72,750	-0,042	-0,011
-155,935	-200,000	-0,022	-0,094
-154,920	252,317	0,049	-0,059
-153,906	-200,000	-0,009	0,104
-152,891	82,008	0,096	-0,074
-151,877	436,325	0,019	0,029
-150,862	-200,000	-0,025	-0,087
-149,847	800,000	-0,056	0,121
-148,833	463,629	0,078	-0,124
-147,818	-159,730	0,047	-0,002
-146,804	-60,300	0,046	0,014
-145,789	736,905	0,051	0,098
-144,775	-135,202	-0,092	-0,008
-143,760	-151,757	-0,054	-0,003
-142,745	-11,127	-0,034	-0,016
-141,731	630,228	0,043	0,078
-140,716	800,000	-0,040	0,099
-139,702	58,175	0,083	0,058
-138,687	44,675	-0,023	-0,015
-137,672	396,510	-0,062	-0,092
-136,658	-200,000	0,038	-0,122
-135,643	170,469	-0,055	-0,056
-134,629	109,020	-0,037	0,031
-133,614	592,490	-0,016	0,028
-132,599	-18,734	0,061	0,027
-131,585	-200,000	0,004	-0,083
-130,570	-106,077	0,117	0,018
-129,556	-33,996	0,039	0,015
-128,541	-71,313	-0,067	-0,018
-127,526	-17,543	0,050	0,022
-126,512	524,832	-0,097	0,164
-125,497	264,579	-0,099	0,122
-124,483	800,000	0,059	0,134
-123,468	92,903	-0,035	-0,028
-122,453	-7,505	-0,052	0,025
-121,439	-135,657	0,024	0,002
-120,424	194,320	-0,084	-0,091
-119,410	-87,161	0,076	0,016
-118,395	800,000	0,080	0,176
-117,380	-200,000	-0,020	-0,069
-116,366	-200,000	0,000	0,050
-115,351	-99,423	-0,120	0,021
-114,337	-200,000	0,021	0,069
-113,322	25,948	-0,071	-0,042
-112,307	-4,649	0,040	-0,020
-111,293	227,029	-0,042	-0,048
-110,278	-92,193	0,107	-0,021
-109,264	94,253	0,133	-0,107
-108,249	-30,278	-0,127	0,051
-107,234	-155,412	-0,046	0,002
-106,220	31,309	0,040	0,024
-105,205	-143,240	0,047	0,003
-104,191	800,000	-0,020	0,046
-103,176	225,521	-0,041	0,047
-102,162	-182,083	0,080	0,001
-101,147	-30,242	-0,091	-0,036
-100,132	14,947	-0,101	-0,056
-99,118	-200,000	-0,010	-0,094
-98,103	630,721	-0,048	-0,086
-97,089	6,723	0,101	-0,053
-96,074	800,000	-0,045	0,108
-95,059	-200,000	0,008	-0,077
-94,045	-200,000	0,023	-0,083
-93,030	291,426	-0,089	-0,115
-92,016	800,000	0,057	-0,160
-91,001	-147,849	0,108	0,006
-89,986	-144,587	0,135	0,009
-88,972	-200,000	0,000	0,118
-87,957	275,009	-0,031	-0,039
-86,943	800,000	-0,022	-0,055
-85,928	800,000	0,017	0,048
-84,913	800,000	-0,019	-0,039
-83,899	-77,891	-0,111	-0,027
-82,884	-87,149	0,045	0,010
-81,870	235,172	0,107	0,126
-80,855	-150,217	0,147	-0,008
-79,840	-49,031	-0,045	0,015
-78,826	113,343	0,051	0,044
-77,811	-37,084	0,077	0,029
-76,797	-187,088	-0,027	0,000
-75,782	-40,480	0,132	0,048
-74,767	800,000	-0,029	0,081
-73,753	741,564	0,084	-0,162
-72,738	-48,769	-0,048	-0,016
-71,724	800,000	-0,022	-0,049
-70,709	-107,753	-0,081	-0,012
-69,694	145,157	0,165	-0,157
-68,680	-84,688	-0,095	-0,021
-67,665	-200,000	0,008	0,059
-66,651	-200,000	0,009	0,053
-65,636	-200,000	-0,004	0,093
-64,622	800,000	0,033	-0,092
-63,607	-179,912	-0,112	-0,002
-62,592	687,678	-0,099	0,184
-61,578	-28,268	-0,059	-0,024
-60,563	-127,554	0,109	-0,011
-59,549	159,477	0,071	0,070
-58,534	60,196	-2,136	-1,495
-57,519	-200,000	-0,023	-0,770
-56,505	-200,000	-1,373	-5,151
-55,490	144,588	1,052	0,996
-54,476	800,000	5,264	11,947
-53,461	-200,000	18,773	317,476
-52,446	800,000	739,272	2302,209
-51,432	550,228	1651,209	2816,420
-50,417	76,296	1677,052	1256,972
-49,403	20,192	1598,293	911,512
-48,388	14,787	1552,294	857,410
-47,373	17,652	1544,006	867,491
-46,359	16,488	1533,364	855,556
-45,344	13,224	1528,737	836,346
-44,330	13,137	1526,668	834,742
-43,315	13,082	1525,168	833,607
-42,300	13,023	1523,706	832,478
-41,286	13,005	1522,116	831,486
-40,271	13,078	1520,427	830,900
-39,257	13,084	1519,149	830,198
-38,242	13,100	1517,649	829,422
-37,227	13,068	1516,411	828,552
-36,213	13,087	1514,690	827,675
-35,198	13,048	1513,572	826,835
-34,184	13,095	1512,289	826,338
-33,169	13,095	1510,796	825,488
-32,154	13,170	1509,357	825,049
-31,140	13,144	1507,884	824,077
-30,125	13,147	1506,568	823,341
-29,111	13,154	1505,245	822,621
-28,096	13,158	1504,267	822,075
-27,082	13,153	1503,298	821,488
-26,067	13,088	1502,231	820,546
-25,052	13,127	1500,877	819,970
-24,038	13,156	1499,569	819,367
-23,023	13,138	1498,532	818,680
-22,009	13,153	1497,542	818,179
-20,994	13,169	1496,652	817,741
-19,979	13,157	1495,405	816,968
-18,965	13,135	1494,725	816,456
-17,950	13,137	1493,664	815,854
-16,936	13,062	1492,757	814,954
-15,921	13,038	1491,434	814,081
-14,906	12,998	1490,352	813,255
-13,892	12,991	1489,266	812,595
-12,877	12,984	1488,359	812,034
-11,863	12,932	1487,293	811,167
-10,848	13,009	1486,367	811,008
-9,833	13,052	1485,592	810,766
-8,819	13,044	1484,514	810,107
-7,804	13,060	1483,242	809,457
-6,790	13,049	1482,661	809,056
-5,775	13,038	1481,913	808,561
-4,760	13,019	1480,930	807,897
-3,746	12,963	1479,832	806,989
-2,731	12,883	1478,731	805,967
-1,717	12,784	1477,770	804,922
-0,702	12,815	1476,647	804,429
0,313	12,644	1475,578	804,224
1,327	16,294	1472,794	820,509
2,342	25,627	1240,379	729,212
3,356	21,930	699,669	402,776
4,371	-7,329	469,004	224,099
5,386	-10,805	440,656	205,361
6,400	-12,206	431,671	199,111
7,415	-12,176	428,112	197,496
8,429	-12,849	425,964	195,517
9,444	-12,791	424,460	194,893
10,459	-12,887	423,348	194,228
11,473	-13,078	422,311	193,462
12,488	-13,343	421,186	192,552
13,502	-13,646	420,437	191,762
14,517	-13,778	419,613	191,182
15,531	-13,739	418,893	190,891
16,546	-13,819	418,096	190,399
17,561	-13,883	417,506	190,023
18,575	-13,808	416,994	189,878
19,590	-14,023	416,402	189,290
20,604	-13,925	415,980	189,218
21,619	-13,949	415,376	188,892
22,634	-14,050	414,826	188,485
23,648	-13,973	414,196	188,289
24,663	-14,009	413,859	188,068
25,677	-14,011	413,318	187,804
26,692	-13,969	412,939	187,673
27,707	-14,019	412,497	187,386
28,721	-13,863	411,894	187,312
29,736	-14,151	411,678	186,797
30,750	-14,000	411,143	186,747
31,765	-14,039	410,794	186,517
32,780	-14,033	410,433	186,346
33,794	-14,092	409,994	186,048
34,809	-14,011	409,639	185,983
35,823	-14,072	409,152	185,660
36,838	-14,189	408,801	185,323
37,853	-14,210	408,573	185,175
38,867	-14,271	407,913	184,775
39,882	-14,098	407,516	184,816
40,896	-14,294	407,348	184,454
41,911	-14,303	406,817	184,185
42,926	-14,192	406,466	184,162
43,940	-14,295	406,166	183,869
44,955	-14,260	405,646	183,665
45,969	-14,314	405,249	183,395
46,984	-14,535	404,920	182,928
47,999	-14,663	404,442	182,521
49,013	-14,876	403,995	182,013
50,028	-14,858	403,546	181,819
51,042	-14,990	403,253	181,490
52,057	-14,982	402,677	181,227
53,071	-14,937	402,496	181,190
54,086	-14,831	402,142	181,158
55,101	-14,720	402,079	181,263
56,115	-14,451	401,665	181,425
57,130	-13,978	401,609	182,024
58,144	-13,812	401,408	182,141
59,159	-13,708	401,108	182,129
60,174	-13,707	400,790	181,969
61,188	-13,779	400,473	181,713
62,203	-13,911	399,928	181,270
63,217	-14,001	399,552	180,964
64,232	-13,949	399,318	180,912
65,247	-13,713	399,028	181,080
66,261	-13,827	398,563	180,700
67,276	-14,175	398,067	179,993
68,290	-14,433	397,686	179,459
69,305	-14,524	397,344	179,168
70,320	-14,521	397,064	179,030
71,334	-14,130	396,658	179,353
72,349	-13,760	396,491	179,755
73,363	-13,888	396,462	179,555
74,378	-13,800	395,919	179,410
75,393	-13,888	395,648	179,154
76,407	-14,092	395,282	178,701
77,422	-13,963	394,881	178,675
78,436	-14,016	394,598	178,461
79,451	-13,781	394,182	178,568
80,466	-13,977	393,771	178,106
81,480	-14,214	393,265	177,549
82,495	-14,284	392,985	177,314
83,509	-14,216	392,962	177,377
84,524	-14,276	392,330	176,998
85,539	-14,441	391,986	176,609
86,553	-14,429	391,608	176,439
87,568	-14,391	391,507	176,428
88,582	-14,338	391,263	176,371
89,597	-14,395	390,774	176,060
90,611	-14,163	390,690	176,311
91,626	-13,945	390,422	176,460
92,641	-14,165	390,136	176,027
93,655	-14,095	389,612	175,867
94,670	-14,225	389,480	175,622
95,684	-14,219	389,246	175,508
96,699	-14,089	388,722	175,426
97,714	-14,166	388,390	175,160
98,728	-14,399	388,194	174,753
99,743	-14,425	387,796	174,523
100,757	-14,524	387,486	174,239
101,772	-14,174	386,994	174,458
102,787	-14,235	387,026	174,377
103,801	-14,161	386,607	174,269
104,816	-14,173	386,538	174,207
105,830	-14,002	386,246	174,281
106,845	-13,836	385,996	174,368
107,860	-13,842	385,508	174,124
108,874	-14,044	385,234	173,724
109,889	-14,191	384,892	173,364
110,903	-14,091	384,633	173,361
111,918	-14,031	384,318	173,281
112,933	-14,040	383,851	173,043
113,947	-13,987	383,822	173,083
114,962	-13,907	383,420	172,989
115,976	-13,926	383,289	172,891
116,991	-14,035	382,807	172,517
118,006	-13,990	382,706	172,515
119,020	-13,983	382,445	172,391
120,035	-14,011	382,227	172,241
121,049	-13,811	382,050	172,401
122,064	-13,946	381,538	171,983
123,079	-13,965	381,348	171,858
124,093	-14,045	380,967	171,569
125,108	-14,308	380,443	170,981
126,122	-14,520	380,045	170,518
127,137	-14,646	379,732	170,202
128,151	-14,592	379,672	170,229
129,166	-14,326	379,179	170,330
130,181	-14,393	378,911	170,110
131,195	-14,363	378,453	169,928
132,210	-14,128	378,369	170,172
133,224	-13,966	378,378	170,366
134,239	-13,910	377,958	170,233
135,254	-13,850	377,623	170,142
136,268	-14,168	377,163	169,518
137,283	-14,397	376,732	169,021
138,297	-14,553	376,579	168,741
139,312	-14,523	376,279	168,629
140,327	-14,102	376,148	169,084
141,341	-13,720	376,187	169,568
142,356	-13,601	375,807	169,531
143,370	-13,628	375,721	169,443
144,385	-13,529	375,227	169,329
145,400	-13,410	375,020	169,370
146,414	-13,521	374,764	169,100
147,429	-13,729	374,383	168,653
148,443	-13,652	374,175	168,640
149,458	-13,539	373,733	168,567
150,473	-13,675	373,608	168,326
151,487	-13,745	373,188	168,034
152,502	-13,718	373,053	167,993
153,516	-13,620	372,830	167,999
154,531	-13,645	372,596	167,847
155,546	-13,654	372,206	167,646
156,560	-13,755	372,032	167,426
157,575	-14,033	371,692	166,914
158,589	-13,672	371,472	167,248
159,604	-13,552	371,261	167,287
160,619	-13,326	371,083	167,471
161,633	-13,285	370,680	167,325
162,648	-13,548	370,518	166,912
163,662	-13,656	370,349	166,688
164,677	-13,677	369,782	166,391
165,692	-13,684	369,713	166,338
166,706	-13,458	369,554	166,529
167,721	-13,448	369,296	166,411
168,735	-13,313	369,218	166,526
169,750	-13,504	368,805	166,091
170,764	-13,654	368,593	165,797
171,779	-13,579	368,367	165,772
172,794	-13,282	368,086	165,995
173,808	-13,665	367,518	165,255
174,823	-14,117	367,212	164,549
175,837	-14,320	366,715	164,064
176,852	-13,771	367,005	164,850
177,867	-13,516	366,828	165,068
178,881	-13,517	366,512	164,910
179,896	-13,452	366,367	164,909
180,910	-13,438	366,055	164,771
181,925	-13,502	365,838	164,580
182,940	-13,396	365,508	164,547
183,954	-13,356	365,288	164,482
184,969	-13,315	365,205	164,479
185,983	-13,383	364,917	164,252
186,998	-13,291	364,579	164,198
188,013	-13,331	364,453	164,077
189,027	-13,286	364,061	163,942
190,042	-13,334	363,705	163,708
191,056	-13,173	363,558	163,822
192,071	-13,279	363,441	163,626
193,086	-13,220	363,093	163,527
194,100	-12,859	363,134	163,966
195,115	-12,431	362,650	164,250
196,129	-12,462	362,964	164,340
197,144	-8,166	365,071	170,491
198,159	-4,434	366,838	175,841
199,173	-1,036	368,385	180,711
200,188	-0,087	368,275	181,796
201,202	-0,510	368,019	181,140
202,217	-0,532	367,777	180,977
203,232	-0,314	367,492	181,086
204,246	-0,066	367,259	181,255
205,261	-0,010	367,190	181,274
206,275	0,137	366,989	181,336
207,290	0,218	366,734	181,292
208,304	-0,018	366,509	180,879
209,319	0,152	366,182	180,907
210,334	-0,027	366,068	180,618
211,348	-0,004	365,717	180,457
212,363	-0,248	365,248	179,914
213,377	-0,311	365,098	179,749
214,392	-0,238	364,823	179,685
215,407	-0,126	364,776	179,781
216,421	0,067	364,443	179,833
217,436	-0,189	364,307	179,442
218,450	-0,358	363,720	178,935
219,465	-0,443	363,584	178,749
220,480	-0,301	363,240	178,735
221,494	-0,350	363,193	178,637
222,509	-0,184	363,146	178,797
223,523	-0,014	362,918	178,872
224,538	-0,191	362,425	178,401
225,553	-0,277	362,134	178,139
226,567	-0,280	362,047	178,078
227,582	-0,092	361,934	178,231
228,596	0,315	361,775	178,621
229,611	-0,029	361,422	178,021
230,626	-0,338	360,763	177,314
231,640	-0,189	360,916	177,550
232,655	0,144	360,643	177,796
233,669	0,253	360,553	177,865
234,684	0,410	360,534	178,026
235,699	0,225	360,088	177,571
236,713	-0,116	359,717	176,968
237,728	-0,306	359,496	176,618
238,742	-0,394	359,086	176,297
239,757	-0,279	358,942	176,346
240,772	-0,277	358,524	176,128
241,786	-0,253	358,410	176,084
242,801	-0,008	358,401	176,354
243,815	0,382	358,237	176,717
244,830	-0,046	357,965	176,063
245,844	-0,218	357,468	175,600
246,859	-0,361	357,248	175,308
247,874	-0,024	357,190	175,661
248,888	-0,005	357,032	175,589
249,903	0,008	356,736	175,443
250,917	-0,095	356,314	175,099
251,932	-0,172	356,206	174,941
252,947	-0,305	355,810	174,575
253,961	-0,408	355,606	174,338
254,976	-0,153	355,255	174,449
255,990	-0,080	355,301	174,541
257,005	0,201	355,120	174,765
258,020	0,203	354,840	174,613
259,034	-0,000	354,721	174,302
260,049	0,086	354,305	174,183
261,063	0,058	354,254	174,110
262,078	0,160	354,088	174,131
263,093	0,450	353,858	174,340
264,107	0,361	353,674	174,131
265,122	0,077	353,329	173,616
266,136	0,252	353,185	173,732
267,151	0,133	352,910	173,443
268,166	-0,007	352,285	172,959
269,180	-0,262	351,964	172,491
270,195	-0,244	351,897	172,464
271,209	-0,112	351,597	172,454
272,224	-0,063	351,649	172,520
273,239	0,058	351,483	172,564
274,253	-0,085	351,078	172,184
275,268	-0,231	350,782	171,855
276,282	-0,400	350,562	171,537
277,297	-0,285	350,256	171,506
278,312	-0,255	350,319	171,555
279,326	-0,112	350,099	171,597
280,341	0,009	349,754	171,550
281,355	-0,022	349,523	171,387
282,370	0,171	349,487	171,575
283,384	0,014	348,944	171,113
284,399	-0,415	348,732	170,504
285,414	-0,454	348,494	170,328
286,428	-0,207	348,473	170,584
287,443	0,120	348,287	170,851
288,457	0,200	348,023	170,797
289,472	-0,053	347,695	170,333
290,487	-0,391	347,334	169,757
291,501	-0,425	347,062	169,569
292,516	-0,618	346,903	169,257
293,530	-0,405	346,793	169,431
294,545	-0,228	346,438	169,443
295,560	-0,195	346,415	169,454
296,574	-0,025	346,183	169,519
297,589	-0,103	345,971	169,311
298,603	0,021	345,700	169,303
299,618	-0,067	345,400	169,042
300,633	-0,010	345,495	169,138
301,647	0,254	345,271	169,312
302,662	0,297	345,037	169,231
303,676	0,074	344,821	168,858
304,691	0,320	344,513	168,969
305,706	0,373	344,215	168,868
306,720	0,182	344,120	168,591
307,735	-0,096	343,749	168,082
308,749	-0,051	343,565	168,028
309,764	0,500	343,226	168,465
310,779	-0,049	343,110	167,777
311,793	-0,108	342,902	167,594
312,808	0,189	342,556	167,743
313,822	0,233	342,454	167,727
314,837	-0,047	342,242	167,295
315,852	-0,190	341,838	166,923
316,866	0,014	341,762	167,099
317,881	0,298	341,509	167,277
318,895	0,110	341,310	166,955
319,910	-0,123	340,934	166,497
320,925	-0,379	340,715	166,090
321,939	-0,492	340,262	165,728
322,954	-0,502	340,289	165,715
323,968	0,072	340,294	166,342
324,983	0,322	340,236	166,576
325,997	0,364	340,002	166,494
327,012	0,280	339,810	166,291
328,027	0,298	339,524	166,157
329,041	0,431	339,415	166,236
330,056	0,320	339,129	165,958
331,070	-0,020	338,586	165,302
332,085	-0,292	338,338	164,866
333,100	-0,022	338,097	165,032
334,114	0,210	338,104	165,276
335,129	0,276	338,063	165,314
336,143	0,277	337,569	165,059
337,158	0,036	337,473	164,731
338,173	0,173	337,266	164,766
339,187	-0,068	336,966	164,340
340,202	-0,099	336,723	164,173
341,216	-0,147	336,519	164,007
342,231	-0,104	336,333	163,948
343,246	-0,041	336,128	163,902
344,260	-0,119	336,034	163,756
345,275	0,198	335,681	163,917
346,289	0,146	335,522	163,769
347,304	-0,335	335,369	163,152
348,319	0,224	335,044	163,591
349,333	0,383	334,986	163,721
350,348	0,386	334,830	163,635
351,362	0,490	334,672	163,655
352,377	0,495	334,318	163,473
353,392	0,151	334,093	162,975
354,406	0,309	333,770	162,974
355,421	198,229	1326,841	1394,199
356,435	162,383	1447,748	1394,141
