DTS Sentinel unit serial number:	SN410029Multiplexer serial number:	ORYXHardware model number:	OX2-SRSoftware version number:	ORYX F/W v4,00 Oryx Data Collector v3.7.2.0data status	okinstallation	B6 Nyhavnadifferential loss correction	single-endedforward channel	channel 2reverse channel	N/Adate	2023/12/08time	20:40:08forward acquisition time	300,00reverse acquisition time	0,00gamma	499,1914k internal	0,3158k external	0,3158temperature offset calibration	1,0000default loss term (dB/km)	0,3820temperature slope calibration	1,0000multiplexer offset coefficient	1,0000multiplexer slope coefficient	1,0000fibre end	0,00T internal ref (°C)	15,19T ext. ref 1 (°C)	-1,40T ext. ref 2 (°C)	-1,39length (m)	temperature (°C)	Stokes	anti-Stokes-744,400	145,790	0,069	0,068
-743,385	-169,878	-0,364	0,009
-742,371	800,000	0,048	0,099
-741,356	-118,499	-0,283	-0,037
-740,342	53,460	0,098	0,069
-739,327	-19,890	-0,196	0,089
-738,312	-133,879	0,131	0,012
-737,298	-161,572	-0,450	-0,017
-736,283	-32,230	0,162	0,066
-735,269	-94,876	-0,250	0,049
-734,254	119,867	0,153	0,140
-733,239	34,128	-0,358	-0,229
-732,225	-60,510	0,159	0,050
-731,210	-38,182	0,062	0,024
-730,196	800,000	-0,026	0,053
-729,181	-135,751	-0,161	0,014
-728,167	-200,000	-0,014	0,164
-727,152	132,780	0,077	-0,073
-726,137	-108,845	-0,149	-0,023
-725,123	-121,282	0,064	-0,008
-724,108	736,982	0,021	-0,042
-723,094	-71,545	-0,099	0,027
-722,079	-200,000	-0,016	-0,097
-721,064	800,000	0,008	0,019
-720,050	-55,196	-0,086	0,028
-719,035	-86,834	-0,089	-0,020
-718,021	691,300	-0,018	-0,035
-717,006	-200,000	0,014	-0,066
-715,991	5,510	-0,152	-0,083
-714,977	83,192	-0,099	-0,080
-713,962	-200,000	0,010	-0,101
-712,948	-96,822	-0,011	-0,002
-711,933	28,659	0,048	-0,030
-710,918	472,620	-0,029	-0,048
-709,904	-85,161	0,150	0,034
-708,889	169,220	0,052	0,055
-707,875	18,712	-0,084	0,049
-706,860	508,821	0,048	-0,082
-705,845	-4,536	-0,102	-0,052
-704,831	800,000	0,048	-0,108
-703,816	800,000	-0,070	-0,176
-702,802	274,265	0,063	-0,082
-701,787	-200,000	0,020	-0,149
-700,772	79,088	0,045	-0,036
-699,758	-2,263	-0,029	-0,015
-698,743	-87,459	0,077	-0,017
-697,729	59,078	0,052	0,037
-696,714	168,245	-0,066	0,069
-695,699	-50,208	-0,172	-0,060
-694,685	800,000	-0,024	-0,053
-693,670	222,309	-0,081	-0,096
-692,656	606,494	-0,054	0,099
-691,641	-132,540	0,129	0,012
-690,627	-0,168	-0,147	0,077
-689,612	68,124	0,056	-0,042
-688,597	703,058	-0,057	-0,111
-687,583	800,000	-0,038	-0,098
-686,568	-200,000	0,013	-0,101
-685,554	-38,314	0,111	0,043
-684,539	733,472	-0,018	0,036
-683,524	-200,000	-0,014	0,053
-682,510	800,000	0,056	-0,149
-681,495	7,158	-0,143	-0,078
-680,481	-98,519	0,027	-0,005
-679,466	719,058	-0,060	-0,118
-678,451	-200,000	-0,002	0,053
-677,437	321,462	-0,037	0,052
-676,422	114,702	0,115	0,103
-675,408	284,976	-0,109	-0,145
-674,393	-200,000	-0,001	-0,040
-673,378	-200,000	-0,039	-0,142
-672,364	-115,072	-0,051	0,007
-671,349	3,132	-0,175	0,093
-670,335	-61,284	-0,120	0,037
-669,320	-200,000	0,037	-0,123
-668,305	1,635	-0,045	0,024
-667,291	171,967	-0,033	0,035
-666,276	15,223	-0,030	0,017
-665,262	230,281	-0,066	-0,080
-664,247	662,870	-0,022	0,042
-663,232	-33,615	0,077	0,031
-662,218	-200,000	0,060	-0,268
-661,203	16,646	-0,093	-0,054
-660,189	610,185	0,052	-0,096
-659,174	800,000	-0,016	-0,041
-658,159	-11,973	-0,083	-0,040
-657,145	244,709	0,055	-0,068
-656,130	-200,000	0,011	0,087
-655,116	-0,519	0,128	-0,067
-654,101	800,000	0,057	0,119
-653,086	-200,000	-0,005	-0,034
-652,072	420,708	-0,059	-0,094
-651,057	-44,484	-0,114	-0,042
-650,043	1,457	-0,079	0,042
-649,028	262,085	-0,016	-0,021
-648,014	-109,363	0,169	0,026
-646,999	800,000	0,067	0,171
-645,984	-200,000	0,009	-0,113
-644,970	-200,000	-0,025	-0,182
-643,955	800,000	0,044	-0,095
-642,941	-200,000	-0,028	-0,122
-641,926	-6,872	-0,099	0,049
-640,911	-98,141	0,071	0,013
-639,897	-52,209	0,004	0,001
-638,882	61,790	-0,059	-0,043
-637,868	800,000	0,062	-0,183
-636,853	493,698	-0,040	0,068
-635,838	226,830	-0,063	0,075
-634,824	-132,108	-0,134	-0,013
-633,809	240,728	0,022	0,027
-632,795	-90,266	0,084	0,018
-631,780	-200,000	0,005	0,058
-630,765	-124,114	-0,152	0,017
-629,751	-109,399	-0,098	-0,015
-628,736	-69,602	0,104	-0,029
-627,722	800,000	-0,030	-0,075
-626,707	96,806	0,125	-0,105
-625,692	-101,720	0,139	0,025
-624,678	143,191	0,045	-0,044
-623,663	-194,752	0,032	-0,000
-622,649	403,852	-0,068	0,105
-621,634	305,123	-0,112	-0,153
-620,619	15,288	-0,063	0,036
-619,605	-187,688	0,061	0,001
-618,590	800,000	-0,032	-0,087
-617,576	-100,017	0,086	0,016
-616,561	66,245	-0,086	-0,064
-615,546	-19,410	-0,122	-0,055
-614,532	88,798	-0,066	-0,054
-613,517	-200,000	0,015	0,053
-612,503	-200,000	0,010	0,095
-611,488	-200,000	0,041	0,203
-610,474	679,151	0,014	0,026
-609,459	548,011	-0,043	0,075
-608,444	154,497	-0,142	-0,143
-607,430	321,159	-0,066	-0,092
-606,415	800,000	-0,044	-0,124
-605,401	-200,000	0,010	-0,039
-604,386	-200,000	0,003	0,038
-603,371	519,427	-0,035	0,061
-602,357	284,311	0,054	0,072
-601,342	-34,759	0,076	0,030
-600,328	-35,237	-0,100	-0,040
-599,313	-130,794	0,026	0,003
-598,298	-200,000	0,016	0,068
-597,284	-200,000	-0,008	0,096
-596,269	157,049	-0,126	0,128
-595,255	60,510	-0,048	0,034
-594,240	800,000	-0,057	0,122
-593,225	800,000	0,017	-0,050
-592,211	-90,304	0,122	-0,026
-591,196	800,000	0,024	0,070
-590,182	329,236	0,032	-0,045
-589,167	-58,011	0,027	0,008
-588,152	-200,000	-0,015	-0,099
-587,138	-132,169	-0,019	-0,002
-586,123	306,335	-0,045	0,062
-585,109	562,591	-0,066	-0,118
-584,094	-200,000	-0,008	0,034
-583,079	103,223	0,035	0,030
-582,065	449,877	0,043	0,069
-581,050	-76,356	0,063	0,016
-580,036	800,000	0,012	0,039
-579,021	-128,344	-0,201	-0,021
-578,006	75,264	-0,048	0,037
-576,992	-103,622	-0,053	-0,009
-575,977	136,123	0,011	-0,011
-574,963	304,048	0,056	0,076
-573,948	330,635	0,091	0,129
-572,934	710,507	-0,026	0,050
-571,919	-200,000	-0,009	0,059
-570,904	258,787	-0,056	-0,071
-569,890	-74,654	-0,067	-0,017
-568,875	-200,000	0,011	0,069
-567,861	800,000	-0,014	0,046
-566,846	519,337	0,054	0,093
-565,831	-42,722	-0,041	0,015
-564,817	-70,765	-0,169	0,046
-563,802	-200,000	-0,022	-0,145
-562,788	800,000	0,032	-0,073
-561,773	-200,000	-0,029	0,103
-560,758	-152,805	-0,028	0,001
-559,744	-200,000	-0,012	0,076
-558,729	22,284	-0,061	0,036
-557,715	-200,000	0,011	0,038
-556,700	298,245	-0,030	-0,040
-555,685	-200,000	0,017	0,076
-554,671	-200,000	0,035	0,139
-553,656	249,702	0,051	0,064
-552,642	516,502	0,009	0,015
-551,627	418,214	0,020	0,032
-550,612	-200,000	0,004	0,073
-549,598	166,958	-0,067	-0,069
-548,583	-48,079	0,046	-0,016
-547,569	-200,000	-0,012	-0,061
-546,554	-200,000	0,000	0,103
-545,539	130,736	0,027	0,025
-544,525	-107,597	-0,062	0,010
-543,510	297,442	0,064	-0,087
-542,496	-49,263	-0,091	-0,031
-541,481	-200,000	-0,007	-0,054
-540,466	355,528	0,073	0,107
-539,452	-172,526	0,011	0,000
-538,437	281,337	0,045	-0,059
-537,423	-116,986	-0,060	0,008
-536,408	-200,000	0,008	-0,039
-535,393	-200,000	-0,021	-0,146
-534,379	800,000	-0,040	-0,093
-533,364	84,076	0,083	-0,066
-532,350	133,816	-0,042	-0,040
-531,335	-82,284	0,114	0,027
-530,321	-167,337	0,099	0,003
-529,306	237,880	0,027	0,032
-528,291	800,000	0,007	-0,021
-527,277	-200,000	0,006	-0,074
-526,262	87,409	0,080	0,064
-525,248	-200,000	-0,046	0,184
-524,233	-72,999	0,051	-0,014
-523,218	-123,243	0,073	0,008
-522,204	-42,814	-0,057	-0,021
-521,189	-157,622	-0,128	-0,005
-520,175	143,299	-0,124	-0,121
-519,160	-200,000	0,001	-0,143
-518,145	-29,115	0,061	0,026
-517,131	4,299	0,035	-0,019
-516,116	525,728	0,040	0,069
-515,102	-108,678	0,127	-0,020
-514,087	800,000	0,009	0,025
-513,072	800,000	-0,050	-0,149
-512,058	239,986	-0,059	-0,072
-511,043	599,366	0,019	-0,035
-510,029	297,225	-0,042	-0,057
-509,014	359,122	0,022	-0,033
-507,999	-32,109	-0,089	-0,036
-506,985	-200,000	0,020	-0,163
-505,970	-109,641	0,061	0,009
-504,956	-132,381	0,023	-0,002
-503,941	197,314	-0,007	0,008
-502,926	18,864	0,051	0,030
-501,912	702,215	0,066	-0,128
-500,897	625,337	-0,036	-0,066
-499,883	219,991	-0,048	0,057
-498,868	115,074	0,062	0,055
-497,853	-200,000	-0,001	0,034
-496,839	-200,000	0,004	-0,040
-495,824	83,436	0,099	-0,079
-494,810	800,000	-0,056	-0,133
-493,795	-200,000	-0,019	0,081
-492,781	138,597	-0,054	0,051
-491,766	422,070	-0,020	0,032
-490,751	598,156	0,010	-0,018
-489,737	800,000	0,014	0,035
-488,722	-97,197	0,104	-0,020
-487,708	-150,134	0,129	-0,007
-486,693	-78,130	-0,122	0,030
-485,678	-119,125	-0,071	-0,009
-484,664	54,295	-0,062	0,044
-483,649	-31,280	-0,063	0,026
-482,635	40,093	-0,060	-0,039
-481,620	800,000	0,023	-0,066
-480,605	-106,311	-0,076	0,012
-479,591	138,780	0,010	-0,010
-478,576	-36,009	-0,147	0,058
-477,562	800,000	-0,004	-0,011
-476,547	800,000	0,025	0,057
-475,532	70,053	-0,035	0,026
-474,518	20,732	-0,060	-0,036
-473,503	167,364	0,030	-0,031
-472,489	-200,000	0,014	-0,116
-471,474	800,000	-0,017	0,043
-470,459	-200,000	-0,022	-0,254
-469,445	-200,000	-0,010	-0,197
-468,430	-200,000	-0,022	-0,105
-467,416	-42,671	-0,023	0,008
-466,401	-200,000	-0,007	0,092
-465,386	-128,927	0,131	0,013
-464,372	306,509	-0,049	-0,067
-463,357	-200,000	0,013	-0,079
-462,343	25,054	0,030	0,018
-461,328	-200,000	-0,015	-0,066
-460,313	603,883	-0,008	-0,015
-459,299	164,132	0,082	-0,084
-458,284	439,419	0,064	0,103
-457,270	-200,000	0,010	0,054
-456,255	-106,241	-0,154	0,025
-455,241	237,113	-0,080	-0,097
-454,226	-89,284	0,076	0,016
-453,211	-135,576	-0,016	0,001
-452,197	-50,382	-0,075	-0,026
-451,182	558,735	0,031	-0,054
-450,168	72,122	0,030	0,022
-449,153	-188,177	-0,195	0,002
-448,138	193,558	-0,101	-0,111
-447,124	-19,827	-0,041	-0,018
-446,109	-109,040	0,022	0,003
-445,095	-39,798	-0,062	-0,024
-444,080	134,544	0,143	0,136
-443,065	388,126	0,050	0,075
-442,051	800,000	0,041	-0,092
-441,036	-200,000	0,027	-0,107
-440,022	-11,327	-0,115	-0,055
-439,007	-111,443	0,078	-0,012
-437,992	346,863	-0,021	0,030
-436,978	-58,475	0,138	-0,043
-435,963	303,417	0,119	-0,162
-434,949	14,173	-0,126	-0,071
-433,934	-60,505	-0,097	-0,030
-432,919	67,470	-0,081	-0,060
-431,905	143,491	-0,123	-0,120
-430,890	60,059	-0,034	-0,024
-429,876	-200,000	0,003	0,015
-428,861	-60,386	0,044	0,014
-427,846	738,692	-0,031	-0,060
-426,832	-200,000	-0,024	-0,105
-425,817	31,772	-0,121	-0,076
-424,803	800,000	0,009	-0,025
-423,788	-50,613	-0,051	0,018
-422,773	-27,189	0,085	0,036
-421,759	40,380	0,095	0,062
-420,744	-200,000	0,030	0,141
-419,730	-148,737	-0,120	-0,007
-418,715	90,586	-0,065	0,053
-417,701	-200,000	0,005	-0,107
-416,686	12,539	0,115	-0,064
-415,671	166,044	0,060	-0,062
-414,657	381,766	0,090	0,135
-413,642	-186,746	0,095	-0,001
-412,628	71,000	0,056	0,042
-411,613	800,000	0,024	0,058
-410,598	108,095	-0,057	0,050
-409,584	45,330	0,113	0,076
-408,569	52,008	0,099	-0,069
-407,555	34,881	0,067	-0,043
-406,540	800,000	-0,014	0,029
-405,525	63,755	-0,107	0,078
-404,511	-19,676	-0,110	-0,049
-403,496	167,558	-0,050	-0,052
-402,482	-74,475	0,146	0,038
-401,467	31,673	0,085	0,053
-400,452	-200,000	-0,025	-0,102
-399,438	-200,000	0,007	0,085
-398,423	-200,000	-0,016	0,061
-397,409	800,000	0,034	-0,089
-396,394	34,655	0,056	-0,035
-395,379	-200,000	0,018	-0,120
-394,365	-31,793	-0,093	-0,038
-393,350	-200,000	0,003	0,064
-392,336	351,474	-0,018	-0,025
-391,321	-99,916	-0,031	-0,006
-390,306	-31,906	-0,037	-0,015
-389,292	219,725	-0,046	-0,053
-388,277	-200,000	0,002	-0,063
-387,263	-81,554	0,047	0,011
-386,248	48,236	-0,043	0,030
-385,233	-185,499	0,053	0,001
-384,219	101,989	-0,041	-0,035
-383,204	-200,000	-0,003	-0,099
-382,190	-200,000	-0,012	-0,063
-381,175	-22,507	0,058	0,026
-380,160	71,746	0,141	0,106
-379,146	-200,000	0,004	0,016
-378,131	44,389	0,077	0,052
-377,117	245,676	-0,026	-0,032
-376,102	-12,212	-0,018	0,009
-375,088	-200,000	0,002	0,012
-374,073	183,418	0,024	0,026
-373,058	96,472	-0,022	0,018
-372,044	-64,568	0,117	0,034
-371,029	-200,000	-0,033	0,152
-370,015	-200,000	-0,016	-0,085
-369,000	-200,000	0,011	0,115
-367,985	800,000	0,020	-0,045
-366,971	-200,000	0,019	-0,094
-365,956	-6,669	0,021	0,010
-364,942	-15,903	0,188	-0,087
-363,927	56,132	-0,083	0,059
-362,912	-25,453	0,060	0,026
-361,898	44,643	0,064	-0,043
-360,883	-152,529	0,079	0,004
-359,869	-200,000	-0,011	0,069
-358,854	800,000	-0,027	0,070
-357,839	-79,692	0,155	-0,038
-356,825	-200,000	0,031	0,099
-355,810	177,859	-0,081	0,086
-354,796	265,390	-0,014	0,018
-353,781	800,000	-0,040	0,107
-352,766	45,848	0,159	-0,107
-351,752	-73,252	0,175	-0,046
-350,737	-53,102	0,067	-0,022
-349,723	800,000	-0,009	0,023
-348,708	-145,166	-0,067	0,004
-347,693	-153,933	-0,043	0,002
-346,679	185,959	-0,009	0,010
-345,664	-200,000	0,018	-0,094
-344,650	-119,611	-0,024	-0,003
-343,635	-85,003	0,069	-0,016
-342,620	-108,166	0,040	-0,006
-341,606	-200,000	0,015	0,053
-340,591	378,898	-0,029	0,044
-339,577	-200,000	0,014	-0,047
-338,562	378,152	-0,074	-0,110
-337,548	-200,000	0,004	0,066
-336,533	49,485	-0,039	0,027
-335,518	258,418	-0,051	0,064
-334,504	800,000	0,087	0,197
-333,489	166,780	0,054	0,055
-332,475	-108,348	-0,035	-0,005
-331,460	50,641	-0,090	-0,061
-330,445	134,024	0,128	0,120
-329,431	231,163	0,023	0,027
-328,416	30,152	-0,037	-0,023
-327,402	-200,000	0,005	0,108
-326,387	-200,000	0,002	-0,016
-325,372	498,663	0,060	-0,101
-324,358	-126,238	0,092	-0,010
-323,343	-53,425	-0,074	0,024
-322,329	250,254	0,063	-0,078
-321,314	800,000	0,031	0,076
-320,299	800,000	-0,026	0,080
-319,285	-67,108	-0,158	-0,045
-318,270	-200,000	-0,017	0,069
-317,256	148,813	-0,068	0,067
-316,241	-31,129	0,115	-0,047
-315,226	800,000	0,019	0,042
-314,212	409,173	0,077	0,119
-313,197	-151,430	-0,126	-0,007
-312,183	649,443	-0,047	-0,087
-311,168	800,000	-0,049	0,108
-310,153	800,000	0,032	-0,065
-309,139	7,183	0,138	0,074
-308,124	154,907	-0,049	0,049
-307,110	-72,921	-0,026	0,007
-306,095	-200,000	-0,003	0,062
-305,080	-3,899	0,058	0,029
-304,066	-47,668	-0,080	0,028
-303,051	-75,591	-0,162	-0,041
-302,037	-56,708	-0,100	-0,032
-301,022	800,000	0,035	0,073
-300,008	250,473	0,042	0,051
-298,993	49,707	0,150	0,102
-297,978	-200,000	0,006	-0,084
-296,964	40,923	-0,029	-0,019
-295,949	196,612	-0,078	0,086
-294,935	-7,208	0,071	0,035
-293,920	296,762	-0,077	0,103
-292,905	-200,000	0,010	0,084
-291,891	169,871	0,040	-0,041
-290,876	-116,428	-0,152	0,020
-289,862	338,399	-0,074	0,105
-288,847	-138,098	-0,069	0,005
-287,832	-200,000	0,006	-0,094
-286,818	8,836	0,100	-0,055
-285,803	800,000	-0,043	0,089
-284,789	-63,539	0,083	-0,025
-283,774	662,280	-0,012	-0,022
-282,759	-200,000	-0,027	0,115
-281,745	800,000	0,026	-0,067
-280,730	-115,341	-0,145	0,020
-279,716	800,000	0,027	-0,058
-278,701	-142,232	0,033	0,002
-277,686	10,259	-0,036	-0,020
-276,672	471,804	-0,032	-0,052
-275,657	591,616	0,021	0,037
-274,643	423,663	-0,064	-0,100
-273,628	213,669	0,019	-0,021
-272,613	-108,743	0,131	-0,020
-271,599	-80,157	0,053	0,013
-270,584	310,250	-0,035	-0,047
-269,570	-195,752	0,123	-0,001
-268,555	112,311	-0,061	-0,054
-267,540	340,692	-0,053	-0,076
-266,526	-112,076	0,117	-0,017
-265,511	-200,000	0,015	-0,084
-264,497	201,921	0,118	-0,132
-263,482	-14,296	0,126	-0,058
-262,467	-200,000	-0,012	-0,111
-261,453	-200,000	-0,015	0,161
-260,438	-200,000	-0,017	0,072
-259,424	800,000	0,037	-0,079
-258,409	800,000	-0,014	0,034
-257,395	-200,000	0,016	0,154
-256,380	555,071	-0,013	-0,024
-255,365	49,390	0,099	0,067
-254,351	-61,857	-0,014	0,004
-253,336	800,000	-0,022	-0,045
-252,322	114,674	-0,088	0,077
-251,307	-200,000	-0,016	0,069
-250,292	516,128	0,014	0,024
-249,278	-32,833	0,124	-0,050
-248,263	135,562	0,123	0,116
-247,249	-44,073	-0,100	0,036
-246,234	415,750	-0,040	-0,062
-245,219	578,429	0,043	0,077
-244,205	-64,271	-0,200	-0,058
-243,190	-200,000	0,030	-0,098
-242,176	-200,000	-0,010	0,061
-241,161	800,000	0,071	0,168
-240,146	346,322	-0,064	-0,092
-239,132	-200,000	0,005	-0,018
-238,117	107,726	-0,051	0,044
-237,103	-200,000	-0,014	0,130
-236,088	-144,759	-0,171	-0,011
-235,073	311,723	0,042	0,057
-234,059	20,758	-0,029	0,017
-233,044	760,950	0,056	-0,110
-232,030	-200,000	-0,021	-0,079
-231,015	-200,000	0,009	0,098
-230,000	191,723	0,062	-0,068
-228,986	800,000	-0,062	0,163
-227,971	-95,684	0,111	0,021
-226,957	-200,000	-0,053	-0,188
-225,942	651,089	0,011	0,021
-224,927	90,821	-0,089	-0,072
-223,913	292,544	-0,080	-0,106
-222,898	150,975	-0,050	-0,049
-221,884	442,968	0,085	-0,136
-220,869	277,138	0,069	-0,088
-219,855	-200,000	-0,025	0,165
-218,840	-200,000	0,019	0,125
-217,825	-200,000	-0,004	-0,036
-216,811	800,000	-0,072	0,174
-215,796	-200,000	0,014	0,059
-214,782	521,546	0,038	0,065
-213,767	-200,000	0,029	0,180
-212,752	-200,000	-0,004	0,105
-211,738	800,000	0,037	-0,105
-210,723	43,211	-0,098	0,064
-209,709	173,356	-0,085	-0,088
-208,694	586,783	0,015	0,027
-207,679	170,662	0,040	0,041
-206,665	183,820	0,008	-0,009
-205,650	-132,385	0,053	0,005
-204,636	81,642	-0,013	0,011
-203,621	-152,133	-0,098	-0,005
-202,606	-200,000	0,001	-0,056
-201,592	198,719	-0,033	0,037
-200,577	147,446	-0,090	-0,087
-199,563	800,000	0,058	0,145
-198,548	532,789	0,074	-0,128
-197,533	-200,000	-0,133	0,000
-196,519	38,199	-0,054	0,035
-195,504	296,018	0,073	-0,097
-194,490	-131,895	-0,062	0,006
-193,475	-200,000	0,001	0,051
-192,460	800,000	-0,023	0,052
-191,446	800,000	0,039	0,098
-190,431	-2,030	0,072	-0,037
-189,417	89,004	-0,050	-0,040
-188,402	-26,308	0,123	-0,052
-187,387	110,236	0,064	-0,055
-186,373	-200,000	0,012	-0,091
-185,358	143,359	-0,053	0,051
-184,344	84,058	0,120	0,094
-183,329	-12,924	-0,033	0,015
-182,315	-146,461	0,120	-0,007
-181,300	-134,551	-0,103	-0,009
-180,285	-47,543	0,043	-0,015
-179,271	-200,000	-0,009	-0,114
-178,256	99,312	0,053	-0,044
-177,242	168,262	0,052	-0,053
-176,227	258,793	0,055	0,069
-175,212	6,925	0,099	0,053
-174,198	-200,000	-0,007	0,036
-173,183	214,934	0,055	-0,062
-172,169	-36,128	-0,052	-0,020
-171,154	-55,342	0,048	-0,016
-170,139	-41,761	-0,104	-0,038
-169,125	207,371	-0,055	0,061
-168,110	148,973	-0,015	0,014
-167,096	14,890	-0,077	0,043
-166,081	36,496	-0,117	-0,074
-165,066	-200,000	0,002	-0,039
-164,052	-55,668	-0,171	0,055
-163,037	-200,000	0,006	-0,048
-162,023	-200,000	-0,026	0,101
-161,008	-17,925	0,090	-0,040
-159,993	800,000	0,029	-0,073
-158,979	31,256	0,048	0,030
-157,964	800,000	-0,031	0,097
-156,950	315,665	-0,032	0,043
-155,935	800,000	0,019	0,049
-154,920	-131,522	0,026	0,002
-153,906	603,246	0,080	0,144
-152,891	-78,119	0,088	0,022
-151,877	47,665	0,143	-0,096
-150,862	-200,000	-0,002	-0,018
-149,847	51,358	-0,019	0,013
-148,833	800,000	-0,021	0,047
-147,818	800,000	0,064	0,142
-146,804	800,000	0,062	0,133
-145,789	-200,000	0,013	-0,074
-144,775	116,384	-0,065	-0,058
-143,760	68,603	0,014	-0,010
-142,745	-58,601	-0,131	-0,041
-141,731	777,541	-0,033	0,065
-140,716	-129,248	0,212	0,021
-139,702	390,337	-0,038	-0,058
-138,687	-200,000	-0,011	-0,094
-137,672	724,235	0,018	-0,034
-136,658	800,000	-0,088	-0,225
-135,643	276,733	0,031	0,040
-134,629	-87,363	-0,066	0,014
-133,614	-45,277	0,021	-0,007
-132,599	94,018	0,049	0,040
-131,585	134,064	0,201	0,188
-130,570	70,544	-0,051	-0,038
-129,556	-200,000	-0,001	0,064
-128,541	54,227	0,063	0,044
-127,526	449,802	0,090	0,144
-126,512	-157,767	0,043	-0,002
-125,497	99,882	0,057	0,047
-124,483	-35,390	-0,150	-0,058
-123,468	-72,882	-0,043	0,011
-122,453	394,375	0,025	-0,037
-121,439	800,000	0,033	-0,065
-120,424	-124,635	-0,058	0,006
-119,410	28,205	0,037	-0,023
-118,395	800,000	0,034	-0,076
-117,380	-41,817	0,017	0,006
-116,366	127,238	-0,051	-0,046
-115,351	228,800	0,019	0,022
-114,337	-35,969	0,103	-0,040
-113,322	64,579	0,052	0,038
-112,307	125,101	0,050	0,045
-111,293	-91,701	0,104	-0,021
-110,278	800,000	0,033	0,083
-109,264	592,511	0,064	-0,114
-108,249	70,748	-0,017	-0,012
-107,234	10,360	-0,089	-0,049
-106,220	-76,323	-0,061	-0,015
-105,205	-53,047	-0,076	0,025
-104,191	800,000	0,024	0,048
-103,176	150,094	0,104	0,102
-102,162	616,214	-0,028	0,050
-101,147	237,547	0,016	0,019
-100,132	-200,000	-0,002	-0,027
-99,118	55,523	-0,124	0,086
-98,103	12,854	0,063	-0,035
-97,089	479,229	0,039	0,063
-96,074	-157,650	-0,138	-0,006
-95,059	-200,000	-0,016	-0,113
-94,045	783,365	0,052	-0,103
-93,030	-78,314	-0,133	0,033
-92,016	95,807	0,053	-0,043
-91,001	-200,000	-0,014	-0,076
-89,986	-200,000	0,012	-0,051
-88,972	414,188	0,041	-0,063
-87,957	-200,000	-0,009	-0,050
-86,943	143,919	-0,048	0,046
-85,928	-200,000	-0,001	-0,068
-84,913	158,560	-0,021	0,021
-83,899	231,364	0,053	-0,063
-82,884	-91,890	0,135	-0,027
-81,870	241,076	0,139	0,167
-80,855	325,927	-0,047	-0,065
-79,840	-68,344	-0,082	0,023
-78,826	-200,000	-0,015	-0,086
-77,811	-158,347	0,068	-0,003
-76,797	-138,165	0,070	0,006
-75,782	-200,000	0,010	-0,112
-74,767	-200,000	0,003	-0,013
-73,753	226,371	-0,070	0,082
-72,738	83,445	-0,115	-0,090
-71,724	-133,124	0,053	-0,005
-70,709	-76,383	0,120	-0,030
-69,694	-29,997	-0,169	-0,069
-68,680	9,413	-0,005	0,003
-67,665	-200,000	-0,016	0,078
-66,651	800,000	-0,032	-0,077
-65,636	800,000	0,029	-0,065
-64,622	-42,589	0,108	-0,039
-63,607	51,116	0,090	-0,061
-62,592	-96,269	-0,208	0,039
-61,578	350,007	0,017	0,024
-60,563	424,423	0,015	0,022
-59,549	-200,000	0,028	0,156
-58,534	22,941	-2,101	-1,234
-57,519	-200,000	-0,208	-0,780
-56,505	-200,000	-1,500	-4,904
-55,490	43,394	0,883	0,578
-54,476	800,000	5,189	11,857
-53,461	-200,000	17,913	290,656
-52,446	800,000	727,532	2229,498
-51,432	535,391	1640,194	2802,704
-50,417	109,356	1629,332	1399,682
-49,403	73,105	1283,174	961,497
-48,388	31,503	1026,043	631,411
-47,373	19,850	988,349	569,821
-46,359	18,225	976,323	557,541
-45,344	15,492	972,449	546,370
-44,330	15,761	970,873	546,345
-43,315	15,227	969,228	543,655
-42,300	15,261	967,949	543,025
-41,286	15,181	967,109	542,272
-40,271	15,184	965,904	541,585
-39,257	15,205	965,203	541,238
-38,242	15,301	964,132	540,928
-37,227	15,201	963,460	540,206
-36,213	15,173	962,604	539,614
-35,198	15,143	961,845	539,068
-34,184	15,235	960,957	538,849
-33,169	15,161	960,077	538,095
-32,154	15,206	959,187	537,718
-31,140	15,240	958,431	537,383
-30,125	15,312	957,364	536,996
-29,111	15,210	956,662	536,252
-28,096	15,253	955,987	535,993
-27,082	15,219	955,393	535,527
-26,067	15,217	954,613	535,064
-25,052	15,225	953,851	534,639
-24,038	15,230	953,074	534,199
-23,023	15,226	952,514	533,850
-22,009	15,244	951,752	533,461
-20,994	15,215	951,314	533,102
-19,979	15,213	950,589	532,667
-18,965	15,252	950,025	532,456
-17,950	15,259	949,371	532,089
-16,936	15,198	948,710	531,502
-15,921	15,146	948,184	531,022
-14,906	15,088	947,609	530,493
-13,892	15,124	946,764	530,114
-12,877	15,137	946,048	529,733
-11,863	15,080	945,401	529,169
-10,848	15,103	945,126	529,067
-9,833	15,221	944,384	529,007
-8,819	15,237	943,834	528,726
-7,804	15,131	943,377	528,114
-6,790	15,148	942,709	527,773
-5,775	15,182	942,132	527,537
-4,760	15,188	941,504	527,182
-3,746	15,089	940,918	526,521
-2,731	14,945	940,240	525,664
-1,717	14,960	939,527	525,295
-0,702	14,979	938,754	524,901
0,313	14,781	938,215	524,768
1,327	18,175	936,181	534,264
2,342	27,329	789,774	474,822
3,356	23,911	444,642	262,240
4,371	-5,797	295,732	144,695
5,386	-9,755	277,493	132,003
6,400	-11,036	271,759	128,072
7,415	-11,065	269,369	126,907
8,429	-10,997	267,872	126,253
9,444	-11,105	267,195	125,824
10,459	-11,295	266,574	125,347
11,473	-11,144	265,899	125,156
12,488	-11,157	265,410	124,903
13,502	-11,296	264,674	124,419
14,517	-11,354	264,310	124,185
15,531	-11,417	263,920	123,933
16,546	-11,281	263,652	123,920
17,561	-11,262	263,109	123,670
18,575	-11,123	262,971	123,720
19,590	-11,286	262,594	123,385
20,604	-11,173	262,305	123,339
21,619	-11,423	262,021	122,971
22,634	-11,169	261,639	123,008
23,648	-11,221	261,236	122,761
24,663	-11,266	261,027	122,611
25,677	-11,294	260,754	122,447
26,692	-11,357	260,681	122,346
27,707	-11,327	260,168	122,121
28,721	-11,332	259,935	121,997
29,736	-11,470	259,690	121,747
30,750	-11,510	259,336	121,536
31,765	-11,329	259,243	121,641
32,780	-11,328	258,879	121,461
33,794	-11,500	258,762	121,243
34,809	-11,382	258,524	121,225
35,823	-11,499	258,341	121,025
36,838	-11,361	257,925	120,941
37,853	-11,372	257,736	120,832
38,867	-11,310	257,513	120,771
39,882	-11,370	257,261	120,589
40,896	-11,474	257,073	120,399
41,911	-11,431	256,861	120,327
42,926	-11,426	256,480	120,142
43,940	-11,410	256,260	120,042
44,955	-11,617	256,185	119,816
45,969	-11,532	255,718	119,661
46,984	-11,867	255,699	119,349
47,999	-11,927	255,273	119,087
49,013	-12,224	255,059	118,718
50,028	-12,137	254,833	118,678
51,042	-12,096	254,540	118,567
52,057	-12,407	254,344	118,194
53,071	-12,235	254,073	118,207
54,086	-12,294	253,965	118,095
55,101	-11,841	253,725	118,365
56,115	-11,788	253,889	118,477
57,130	-11,383	253,485	118,628
58,144	-11,254	253,563	118,765
59,159	-11,142	253,201	118,682
60,174	-11,204	253,098	118,570
61,188	-11,179	252,886	118,482
62,203	-11,312	252,644	118,243
63,217	-11,426	252,543	118,087
64,232	-11,290	252,116	117,994
65,247	-11,206	251,972	117,988
66,261	-11,313	251,804	117,807
67,276	-11,371	251,409	117,562
68,290	-11,775	251,236	117,125
69,305	-11,818	250,893	116,918
70,320	-11,695	250,653	116,900
71,334	-11,577	250,532	116,934
72,349	-11,406	250,645	117,123
73,363	-11,155	250,389	117,207
74,378	-11,146	250,105	117,071
75,393	-11,272	249,839	116,828
76,407	-11,506	249,738	116,572
77,422	-11,401	249,602	116,588
78,436	-11,310	249,322	116,524
79,451	-11,416	249,122	116,329
80,466	-11,408	248,867	116,207
81,480	-11,395	248,502	116,037
82,495	-11,499	248,431	115,906
83,509	-11,585	248,118	115,677
84,524	-11,748	247,970	115,460
85,539	-11,822	247,805	115,311
86,553	-11,754	247,481	115,207
87,568	-11,808	247,421	115,123
88,582	-11,580	247,154	115,181
89,597	-11,770	247,024	114,949
90,611	-11,452	246,817	115,110
91,626	-11,447	246,818	115,104
92,641	-11,366	246,639	115,079
93,655	-11,432	246,291	114,851
94,670	-11,467	246,129	114,736
95,684	-11,493	245,893	114,594
96,699	-11,549	245,839	114,512
97,714	-11,528	245,432	114,329
98,728	-11,742	245,356	114,106
99,743	-11,687	244,969	113,961
100,757	-11,929	244,908	113,721
101,772	-11,772	244,628	113,711
102,787	-11,704	244,545	113,719
103,801	-11,703	244,583	113,728
104,816	-11,491	244,206	113,718
105,830	-11,342	244,106	113,785
106,845	-11,466	244,069	113,654
107,860	-11,305	243,776	113,641
108,874	-11,378	243,467	113,427
109,889	-11,658	243,270	113,094
110,903	-11,536	242,923	113,023
111,918	-11,653	242,842	112,879
112,933	-11,555	242,640	112,855
113,947	-11,523	242,571	112,839
114,962	-11,452	242,337	112,779
115,976	-11,452	242,205	112,707
116,991	-11,535	242,051	112,557
118,006	-11,377	241,865	112,590
119,020	-11,435	241,774	112,490
120,035	-11,296	241,708	112,563
121,049	-11,261	241,543	112,506
122,064	-11,351	241,224	112,273
123,079	-11,200	241,041	112,302
124,093	-11,591	240,863	111,889
125,108	-11,795	240,603	111,592
126,122	-11,684	240,296	111,530
127,137	-12,058	240,333	111,232
128,151	-11,813	240,185	111,354
129,166	-11,649	239,831	111,313
130,181	-11,716	239,530	111,110
131,195	-11,793	239,378	110,966
132,210	-11,647	239,340	111,057
133,224	-11,599	239,162	111,003
134,239	-11,373	239,041	111,121
135,254	-11,414	238,934	111,028
136,268	-11,469	238,463	110,754
137,283	-11,754	238,313	110,445
138,297	-11,890	238,124	110,238
139,312	-11,933	237,973	110,124
140,327	-11,591	237,798	110,308
141,341	-11,079	237,867	110,742
142,356	-11,010	237,615	110,670
143,370	-11,044	237,507	110,583
144,385	-11,074	237,410	110,504
145,400	-10,988	237,216	110,473
146,414	-11,127	237,026	110,263
147,429	-11,082	236,831	110,199
148,443	-11,192	236,627	110,005
149,458	-11,266	236,384	109,824
150,473	-11,292	236,384	109,793
151,487	-11,327	236,217	109,678
152,502	-11,070	235,910	109,731
153,516	-11,192	235,931	109,634
154,531	-11,125	235,600	109,523
155,546	-11,108	235,402	109,435
156,560	-11,103	235,287	109,376
157,575	-11,503	235,004	108,917
158,589	-11,278	234,844	109,012
159,604	-11,108	234,844	109,137
160,619	-10,842	234,642	109,244
161,633	-10,967	234,560	109,097
162,648	-11,051	234,340	108,918
163,662	-11,139	234,147	108,749
164,677	-11,322	233,994	108,524
165,692	-11,344	233,882	108,445
166,706	-11,174	233,807	108,534
167,721	-11,059	233,665	108,549
168,735	-11,150	233,582	108,429
169,750	-10,988	233,216	108,378
170,764	-11,225	233,057	108,108
171,779	-11,074	232,929	108,157
172,794	-11,025	232,984	108,211
173,808	-11,214	232,577	107,865
174,823	-11,680	232,181	107,306
175,837	-11,876	232,162	107,135
176,852	-11,495	232,132	107,409
177,867	-11,159	232,035	107,618
178,881	-11,105	231,961	107,616
179,896	-10,906	231,701	107,642
180,910	-10,865	231,564	107,601
181,925	-10,797	231,286	107,514
182,940	-10,940	231,217	107,361
183,954	-10,900	231,184	107,368
184,969	-10,933	230,921	107,210
185,983	-10,929	230,918	107,202
186,998	-10,894	230,714	107,126
188,013	-10,812	230,483	107,072
189,027	-10,985	230,335	106,859
190,042	-10,832	230,142	106,879
191,056	-10,789	229,915	106,797
192,071	-10,999	229,834	106,587
193,086	-10,904	229,539	106,515
194,100	-11,056	229,548	106,393
195,115	-11,441	229,049	105,854
196,129	-11,464	229,154	105,876
197,144	-5,933	231,037	111,035
198,159	0,408	232,726	116,786
199,173	2,917	233,361	119,052
200,188	3,261	233,389	119,324
201,202	3,141	233,237	119,143
202,217	3,601	233,124	119,432
203,232	3,716	233,092	119,494
204,246	3,676	232,983	119,397
205,261	3,731	232,811	119,341
206,275	3,998	232,679	119,470
207,290	4,103	232,504	119,451
208,304	3,857	232,389	119,190
209,319	3,991	232,149	119,161
210,334	3,760	231,951	118,869
211,348	3,791	231,702	118,755
212,363	3,316	231,540	118,294
213,377	3,061	231,322	117,976
214,392	3,032	231,155	117,858
215,407	3,177	230,995	117,878
216,421	3,178	230,810	117,774
217,436	3,165	230,626	117,659
218,450	2,866	230,338	117,272
219,465	2,865	230,448	117,316
220,480	2,993	230,272	117,315
221,494	3,138	230,081	117,319
222,509	3,242	230,045	117,369
223,523	3,439	229,733	117,351
224,538	3,103	229,732	117,082
225,553	3,135	229,571	117,014
226,567	3,239	229,337	116,964
227,582	3,565	229,212	117,139
228,596	3,682	229,229	117,226
229,611	3,427	228,924	116,866
230,626	3,168	228,726	116,557
231,640	3,078	228,585	116,406
232,655	3,440	228,502	116,629
233,669	3,553	228,589	116,749
234,684	3,829	228,289	116,795
235,699	3,652	228,173	116,591
236,713	3,411	227,994	116,306
237,728	3,332	227,695	116,083
238,742	3,027	227,505	115,745
239,757	3,317	227,330	115,865
240,772	3,125	227,272	115,680
241,786	2,843	227,239	115,439
242,801	3,331	227,201	115,778
243,815	3,503	227,167	115,881
244,830	3,388	226,808	115,601
245,844	3,178	226,613	115,333
246,859	3,237	226,515	115,318
247,874	3,569	226,368	115,482
248,888	3,554	226,260	115,405
249,903	3,462	226,129	115,259
250,917	3,352	225,847	115,022
251,932	3,220	225,802	114,890
252,947	3,045	225,523	114,607
253,961	3,099	225,266	114,506
254,976	3,017	225,159	114,380
255,990	3,374	225,278	114,698
257,005	3,604	225,003	114,720
258,020	3,400	224,930	114,520
259,034	3,496	224,900	114,566
260,049	3,533	224,626	114,444
261,063	3,414	224,462	114,261
262,078	3,556	224,271	114,260
263,093	3,660	224,212	114,297
264,107	3,465	224,077	114,072
265,122	3,707	223,808	114,106
266,136	3,680	223,863	114,103
267,151	3,722	223,568	113,974
268,166	3,231	223,329	113,478
269,180	2,995	223,227	113,241
270,195	3,353	222,961	113,361
271,209	3,139	222,968	113,196
272,224	3,260	222,758	113,169
273,239	3,186	222,716	113,083
274,253	3,169	222,477	112,938
275,268	2,905	222,381	112,686
276,282	2,923	222,051	112,521
277,297	2,969	221,944	112,491
278,312	3,113	221,938	112,584
279,326	3,247	221,914	112,660
280,341	3,323	221,688	112,591
281,355	3,215	221,447	112,379
282,370	3,236	221,328	112,324
283,384	2,850	221,090	111,911
284,399	2,769	221,026	111,809
285,414	3,052	220,848	111,916
286,428	3,341	220,796	112,091
287,443	3,649	220,802	112,309
288,457	3,537	220,666	112,149
289,472	3,273	220,429	111,825
290,487	2,672	220,174	111,247
291,501	2,787	219,785	111,125
292,516	2,911	219,809	111,217
293,530	2,962	219,710	111,195
294,545	2,832	219,669	111,069
295,560	2,984	219,559	111,114
296,574	3,344	219,299	111,235
297,589	3,184	219,224	111,070
298,603	3,293	219,170	111,112
299,618	3,231	219,115	111,029
300,633	3,190	218,938	110,900
301,647	3,553	218,749	111,057
302,662	3,519	218,614	110,954
303,676	3,427	218,427	110,783
304,691	3,306	218,349	110,646
305,706	3,517	218,246	110,736
306,720	3,500	218,156	110,668
307,735	3,166	217,957	110,317
308,749	3,163	217,711	110,180
309,764	3,318	217,713	110,283
310,779	3,330	217,648	110,248
311,793	3,424	217,346	110,154
312,808	3,382	217,165	110,022
313,822	3,258	216,929	109,804
314,837	3,436	216,815	109,864
315,852	3,054	216,840	109,593
316,866	3,120	216,697	109,558
317,881	3,476	216,420	109,663
318,895	3,647	216,294	109,711
319,910	3,083	216,290	109,296
320,925	2,899	216,080	109,049
321,939	2,647	215,781	108,708
322,954	2,981	215,602	108,847
323,968	3,126	215,656	108,968
324,983	3,298	215,515	109,009
325,997	3,127	215,459	108,849
327,012	3,061	215,369	108,747
328,027	3,439	215,218	108,930
329,041	3,607	215,148	109,004
330,056	3,708	215,101	109,042
331,070	3,405	214,756	108,643
332,085	2,819	214,547	108,113
333,100	3,175	214,387	108,275
334,114	3,447	214,194	108,360
335,129	3,124	214,193	108,121
336,143	3,090	213,932	107,955
337,158	3,215	213,891	108,014
338,173	3,283	213,752	107,982
339,187	3,115	213,637	107,796
340,202	3,143	213,272	107,622
341,216	3,014	213,244	107,507
342,231	3,011	213,144	107,445
343,246	2,886	213,005	107,277
344,260	2,882	212,976	107,250
345,275	3,209	212,862	107,413
346,289	3,424	212,671	107,458
347,304	3,430	212,432	107,331
348,319	3,185	212,382	107,125
349,333	3,113	212,240	106,993
350,348	3,585	212,066	107,226
351,362	3,451	212,081	107,131
352,377	3,265	211,929	106,914
353,392	3,448	211,620	106,877
354,406	3,470	211,631	106,888
355,421	195,594	1340,956	1418,904
356,435	156,245	1478,523	1418,878
