DTS Sentinel unit serial number:	SN410029Multiplexer serial number:	ORYXHardware model number:	OX2-SRSoftware version number:	ORYX F/W v4,00 Oryx Data Collector v3.7.2.0data status	okinstallation	B6 Nyhavnadifferential loss correction	single-endedforward channel	channel 2reverse channel	N/Adate	2023/12/10time	01:00:08forward acquisition time	300,00reverse acquisition time	0,00gamma	499,1914k internal	0,3126k external	0,3126temperature offset calibration	1,0000default loss term (dB/km)	0,3820temperature slope calibration	1,0000multiplexer offset coefficient	1,0000multiplexer slope coefficient	1,0000fibre end	0,00T internal ref (°C)	21,87T ext. ref 1 (°C)	5,68T ext. ref 2 (°C)	5,67length (m)	temperature (°C)	Stokes	anti-Stokes-744,400	38,606	-0,148	0,098
-743,385	-48,604	-0,362	0,129
-742,371	-200,000	-0,016	0,108
-741,356	188,927	-0,173	0,193
-740,342	-15,108	0,206	-0,098
-739,327	-125,213	-0,228	0,026
-738,312	-200,000	-0,015	-0,142
-737,298	-118,032	-0,380	0,050
-736,283	-200,000	0,025	0,116
-735,269	-65,481	-0,296	0,088
-734,254	616,351	0,033	0,062
-733,239	-196,733	-0,410	0,002
-732,225	-14,813	0,160	-0,076
-731,210	800,000	-0,024	-0,066
-730,196	-24,166	-0,068	0,030
-729,181	382,129	0,017	-0,027
-728,167	-200,000	0,011	-0,048
-727,152	1,944	0,061	0,033
-726,137	146,664	-0,066	0,066
-725,123	-200,000	-0,023	-0,112
-724,108	59,962	-0,112	-0,082
-723,094	66,280	-0,050	0,038
-722,079	-200,000	0,013	-0,062
-721,064	-134,514	0,083	-0,007
-720,050	-200,000	0,001	-0,029
-719,035	-157,060	-0,177	-0,008
-718,021	800,000	-0,035	-0,087
-717,006	19,978	-0,193	-0,115
-715,991	11,379	-0,046	-0,026
-714,977	-106,086	-0,051	-0,009
-713,962	-7,876	0,099	0,049
-712,948	67,265	0,034	0,026
-711,933	674,161	-0,005	0,010
-710,918	-200,000	-0,003	-0,057
-709,904	-26,157	-0,182	0,079
-708,889	297,351	-0,059	0,081
-707,875	239,549	-0,116	-0,144
-706,860	-200,000	-0,015	-0,113
-705,845	-200,000	0,002	0,021
-704,831	-120,474	0,060	-0,007
-703,816	-200,000	0,005	-0,069
-702,802	131,075	-0,033	-0,031
-701,787	219,875	0,075	0,089
-700,772	-53,754	-0,117	-0,040
-699,758	-62,326	0,065	-0,020
-698,743	-200,000	-0,024	-0,143
-697,729	-141,238	-0,034	-0,003
-696,714	-0,132	0,073	0,038
-695,699	44,002	-0,119	0,081
-694,685	-92,485	-0,147	0,030
-693,670	-111,073	-0,070	0,011
-692,656	751,513	-0,028	0,057
-691,641	-200,000	0,021	0,122
-690,627	-144,229	-0,082	0,006
-689,612	184,043	0,058	-0,064
-688,597	243,164	0,039	0,049
-687,583	800,000	-0,078	-0,162
-686,568	141,846	-0,078	-0,077
-685,554	511,095	0,057	0,099
-684,539	800,000	0,020	0,050
-683,524	-111,908	0,099	0,015
-682,510	-76,161	0,066	-0,017
-681,495	25,300	0,109	-0,067
-680,481	184,789	-0,100	0,110
-679,466	-20,981	-0,135	0,061
-678,451	-200,000	-0,003	-0,039
-677,437	800,000	0,033	0,090
-676,422	115,190	-0,099	0,090
-675,408	-200,000	-0,017	-0,073
-674,393	-200,000	0,004	0,078
-673,378	-130,175	-0,051	-0,005
-672,364	800,000	-0,022	-0,062
-671,349	150,246	-0,064	-0,065
-670,335	-167,446	-0,118	-0,003
-669,320	800,000	-0,035	0,076
-668,305	-77,006	0,066	-0,017
-667,291	-200,000	-0,017	-0,126
-666,276	145,852	-0,089	0,088
-665,262	800,000	0,012	-0,033
-664,247	-200,000	-0,006	-0,023
-663,232	85,237	0,134	-0,109
-662,218	199,671	-0,042	0,048
-661,203	-200,000	0,025	0,210
-660,189	-200,000	0,016	0,094
-659,174	800,000	-0,035	0,107
-658,159	23,387	0,077	0,047
-657,145	-132,854	-0,166	0,016
-656,130	-48,191	0,086	-0,031
-655,116	-200,000	-0,008	0,045
-654,101	-200,000	0,024	0,104
-653,086	-0,149	-0,028	-0,015
-652,072	-160,869	0,076	0,003
-651,057	800,000	-0,019	-0,054
-650,043	750,909	-0,044	-0,088
-649,028	-200,000	-0,005	-0,173
-648,014	-200,000	0,012	-0,064
-646,999	-166,418	-0,033	-0,001
-645,984	-99,349	0,063	0,012
-644,970	-103,193	-0,255	-0,044
-643,955	119,076	0,059	0,054
-642,941	62,258	-0,049	0,036
-641,926	800,000	0,023	0,062
-640,911	-34,627	-0,097	0,039
-639,897	-200,000	0,002	-0,062
-638,882	-189,533	-0,047	0,000
-637,868	233,097	0,114	0,140
-636,853	-200,000	-0,002	-0,066
-635,838	-88,051	0,047	0,010
-634,824	514,225	0,028	0,049
-633,809	-18,737	-0,049	0,023
-632,795	19,245	0,040	-0,024
-631,780	-84,004	-0,053	0,012
-630,765	-200,000	-0,016	-0,155
-629,751	-200,000	-0,027	-0,199
-628,736	55,821	0,131	-0,094
-627,722	-104,455	-0,066	0,011
-626,707	-153,908	-0,088	-0,004
-625,692	-26,622	0,046	0,020
-624,678	96,797	-0,057	-0,049
-623,663	42,406	-0,102	0,069
-622,649	-200,000	-0,020	-0,070
-621,634	-200,000	-0,045	-0,266
-620,619	85,015	0,043	-0,035
-619,605	-200,000	-0,008	-0,152
-618,590	-64,275	-0,089	-0,027
-617,576	-42,193	0,046	-0,017
-616,561	800,000	0,029	0,071
-615,546	130,607	-0,046	0,044
-614,532	68,117	0,050	0,038
-613,517	-200,000	0,017	-0,094
-612,503	-4,740	0,020	0,010
-611,488	-17,494	0,135	0,063
-610,474	-167,315	0,047	0,001
-609,459	800,000	0,042	0,126
-608,444	-8,972	-0,038	0,019
-607,430	472,766	-0,019	-0,031
-606,415	-200,000	-0,021	0,106
-605,401	-93,894	-0,104	0,021
-604,386	-200,000	-0,002	0,057
-603,371	-200,000	0,011	0,075
-602,357	-82,493	0,104	-0,025
-601,342	-22,094	-0,076	-0,034
-600,328	800,000	0,038	-0,100
-599,313	226,251	-0,080	-0,096
-598,298	-0,115	-0,016	-0,008
-597,284	-200,000	-0,046	0,201
-596,269	800,000	-0,029	0,085
-595,255	-200,000	0,004	0,086
-594,240	-200,000	0,009	0,050
-593,225	687,458	-0,050	-0,098
-592,211	-91,076	-0,148	-0,031
-591,196	-200,000	0,006	-0,036
-590,182	800,000	0,032	-0,068
-589,167	33,521	-0,127	0,081
-588,152	-59,985	0,162	0,051
-587,138	800,000	-0,025	0,055
-586,123	-95,128	0,030	-0,006
-585,109	31,434	-0,036	0,023
-584,094	138,322	-0,082	0,079
-583,079	-52,499	0,057	0,019
-582,065	406,695	-0,011	0,017
-581,050	8,266	-0,062	0,035
-580,036	42,607	0,047	0,031
-579,021	-118,844	-0,104	0,013
-578,006	-200,000	0,007	-0,136
-576,992	-2,226	-0,046	0,024
-575,977	66,407	-0,098	0,074
-574,963	-5,783	0,128	0,065
-573,948	800,000	0,037	0,083
-572,934	537,353	-0,057	-0,100
-571,919	-200,000	0,008	0,096
-570,904	-73,820	-0,053	-0,014
-569,890	321,267	-0,042	-0,059
-568,875	-139,311	0,026	-0,002
-567,861	-56,685	0,094	-0,031
-566,846	796,575	0,063	-0,128
-565,831	421,033	-0,027	-0,042
-564,817	-45,247	-0,068	-0,025
-563,802	126,252	-0,043	0,040
-562,788	-67,579	-0,105	-0,030
-561,773	215,285	0,051	0,060
-560,758	-15,343	0,041	-0,019
-559,744	-200,000	-0,036	0,148
-558,729	-17,841	-0,039	-0,018
-557,715	-25,059	-0,011	0,005
-556,700	36,643	-0,051	-0,033
-555,685	137,844	0,053	-0,052
-554,671	-200,000	0,031	0,150
-553,656	-156,364	-0,089	0,004
-552,642	131,377	-0,074	0,071
-551,627	-95,310	-0,137	-0,027
-550,612	-200,000	0,011	-0,110
-549,598	-52,552	0,060	-0,020
-548,583	184,205	-0,072	-0,078
-547,569	-91,698	-0,087	0,018
-546,554	199,426	0,074	0,084
-545,539	-31,391	-0,060	0,025
-544,525	-7,001	0,137	-0,069
-543,510	800,000	0,043	0,105
-542,496	475,347	0,098	0,164
-541,481	352,092	-0,049	-0,073
-540,466	-200,000	-0,011	-0,089
-539,452	-200,000	-0,002	0,024
-538,437	78,195	-0,084	0,066
-537,423	94,253	0,113	0,095
-536,408	-78,091	0,113	-0,028
-535,393	104,839	-0,142	-0,124
-534,379	-200,000	0,038	0,133
-533,364	491,294	-0,056	0,094
-532,350	-200,000	0,009	0,056
-531,335	800,000	-0,001	-0,004
-530,321	-200,000	-0,024	-0,122
-529,306	129,143	0,038	0,036
-528,291	-200,000	-0,001	-0,054
-527,277	168,271	0,061	-0,064
-526,262	140,503	0,025	-0,024
-525,248	-111,389	0,095	0,014
-524,233	-57,635	0,070	-0,023
-523,218	-51,272	0,035	0,012
-522,204	-200,000	-0,004	-0,142
-521,189	342,554	-0,023	-0,034
-520,175	135,571	0,034	0,033
-519,160	669,394	-0,046	-0,088
-518,145	-20,481	-0,126	-0,057
-517,131	-200,000	-0,010	-0,131
-516,116	124,972	0,028	0,026
-515,102	364,518	0,076	-0,114
-514,087	-33,387	-0,095	0,039
-513,072	-85,614	0,065	-0,015
-512,058	-147,946	0,182	-0,011
-511,043	111,610	-0,051	-0,046
-510,029	209,497	-0,026	0,031
-509,014	302,343	0,091	0,124
-507,999	-200,000	-0,003	-0,089
-506,985	7,865	0,067	0,037
-505,970	267,827	0,014	0,018
-504,956	-129,757	0,119	0,012
-503,941	19,393	-0,064	0,038
-502,926	800,000	-0,039	0,106
-501,912	800,000	-0,049	0,110
-500,897	-200,000	0,018	0,190
-499,883	-200,000	-0,011	-0,160
-498,868	-200,000	-0,013	-0,062
-497,853	25,639	-0,099	-0,061
-496,839	800,000	0,025	-0,069
-495,824	-200,000	0,002	-0,097
-494,810	800,000	-0,025	0,067
-493,795	800,000	0,043	0,091
-492,781	-200,000	0,003	-0,049
-491,766	-56,493	-0,044	0,014
-490,751	245,977	-0,080	0,100
-489,737	579,764	-0,038	-0,068
-488,722	-162,436	0,113	0,004
-487,708	-50,908	0,097	-0,033
-486,693	464,295	0,013	-0,022
-485,678	-200,000	0,000	-0,038
-484,664	112,422	0,015	0,013
-483,649	117,564	-0,065	0,059
-482,635	54,874	-0,041	-0,029
-481,620	-82,887	0,147	0,035
-480,605	244,653	-0,045	0,056
-479,591	-46,617	-0,127	0,046
-478,576	-200,000	0,009	0,143
-477,562	-200,000	-0,029	0,102
-476,547	-85,430	0,116	-0,026
-475,532	98,435	0,116	0,099
-474,518	800,000	-0,053	-0,163
-473,503	-8,857	0,064	0,031
-472,489	149,329	0,082	-0,082
-471,474	514,629	-0,013	-0,023
-470,459	-85,005	-0,135	-0,031
-469,445	229,321	-0,105	-0,127
-468,430	436,939	0,047	-0,075
-467,416	13,704	0,056	0,032
-466,401	800,000	-0,037	-0,096
-465,386	-13,073	0,088	0,042
-464,372	109,301	-0,104	0,092
-463,357	-103,164	-0,017	-0,003
-462,343	702,337	-0,024	-0,047
-461,328	30,468	-0,104	0,065
-460,313	-200,000	0,003	0,011
-459,299	800,000	0,013	-0,030
-458,284	-200,000	-0,002	0,072
-457,270	-200,000	0,001	-0,027
-456,255	225,484	-0,062	-0,074
-455,241	-56,252	0,142	-0,046
-454,226	-153,551	-0,165	0,008
-453,211	-69,861	0,078	0,022
-452,197	251,356	-0,017	0,021
-451,182	-79,395	-0,047	0,012
-450,168	12,427	-0,041	-0,023
-449,153	-200,000	-0,000	-0,097
-448,138	-1,579	-0,014	-0,007
-447,124	800,000	-0,034	-0,072
-446,109	800,000	-0,013	-0,036
-445,095	-170,440	0,184	-0,005
-444,080	-63,421	0,095	-0,028
-443,065	150,706	0,037	-0,037
-442,051	800,000	-0,011	-0,030
-441,036	667,664	0,035	0,068
-440,022	800,000	-0,038	-0,083
-439,007	126,609	0,130	0,121
-437,992	-200,000	-0,011	0,072
-436,978	-200,000	0,029	0,171
-435,963	-200,000	0,003	0,070
-434,949	-46,423	-0,104	0,037
-433,934	572,865	0,061	-0,110
-432,919	91,616	0,108	-0,089
-431,905	-200,000	-0,022	-0,099
-430,890	224,131	0,065	-0,078
-429,876	-38,858	0,022	-0,009
-428,861	66,907	0,082	0,061
-427,846	3,877	-0,047	-0,025
-426,832	-110,301	-0,146	-0,022
-425,817	-200,000	-0,019	-0,109
-424,803	21,979	-0,008	0,005
-423,788	136,532	-0,046	-0,044
-422,773	49,681	0,062	-0,043
-421,759	-200,000	0,013	0,151
-420,744	-200,000	0,010	-0,053
-419,730	-100,395	-0,041	-0,007
-418,715	-137,610	-0,124	-0,010
-417,701	75,089	-0,012	-0,009
-416,686	800,000	0,018	0,055
-415,671	64,757	0,113	0,084
-414,657	290,673	0,074	0,099
-413,642	33,291	0,026	0,016
-412,628	800,000	0,027	-0,082
-411,613	800,000	0,019	-0,044
-410,598	-38,467	-0,067	-0,026
-409,584	-158,738	-0,006	-0,000
-408,569	3,634	0,028	0,015
-407,555	209,437	-0,067	0,077
-406,540	800,000	0,044	0,130
-405,525	257,958	-0,098	-0,124
-404,511	-28,360	-0,074	-0,031
-403,496	-104,755	-0,096	-0,016
-402,482	-105,712	0,066	0,011
-401,467	339,932	-0,025	0,035
-400,452	672,311	0,066	0,127
-399,438	-105,523	-0,094	-0,015
-398,423	128,306	-0,089	0,084
-397,409	-101,285	0,039	0,007
-396,394	368,769	-0,078	-0,116
-395,379	133,137	0,080	-0,076
-394,365	3,647	0,078	0,042
-393,350	800,000	-0,015	0,043
-392,336	800,000	0,035	0,073
-391,321	57,851	-0,041	-0,029
-390,306	-200,000	-0,051	-0,179
-389,292	59,086	-0,056	0,040
-388,277	160,365	-0,091	-0,094
-387,263	149,230	-0,078	-0,077
-386,248	-76,476	-0,043	-0,011
-385,233	736,022	0,047	0,092
-384,219	28,240	0,146	-0,090
-383,204	188,362	-0,118	-0,129
-382,190	-200,000	0,028	-0,103
-381,175	365,133	-0,032	-0,047
-380,160	800,000	0,018	0,051
-379,146	-48,399	0,083	-0,029
-378,131	800,000	-0,025	0,062
-377,117	-67,205	-0,166	-0,048
-376,102	800,000	-0,019	-0,060
-375,088	-113,403	-0,060	-0,009
-374,073	-200,000	0,026	-0,087
-373,058	-200,000	-0,005	0,046
-372,044	21,715	0,063	0,037
-371,029	-200,000	0,010	-0,054
-370,015	800,000	-0,009	0,022
-369,000	-200,000	0,002	0,058
-367,985	-29,714	-0,142	0,059
-366,971	-200,000	0,030	-0,138
-365,956	256,294	0,046	-0,058
-364,942	800,000	0,036	0,081
-363,927	-200,000	0,008	0,049
-362,912	-200,000	-0,010	0,115
-361,898	800,000	-0,044	-0,095
-360,883	747,325	0,071	-0,142
-359,869	-82,846	0,149	-0,035
-358,854	519,572	0,019	-0,032
-357,839	-200,000	0,015	-0,051
-356,825	-200,000	0,004	0,031
-355,810	107,244	0,094	0,082
-354,796	7,682	-0,055	-0,030
-353,781	800,000	-0,022	0,056
-352,766	-200,000	0,002	0,073
-351,752	-87,361	0,024	-0,005
-350,737	-92,130	0,201	0,041
-349,723	351,282	-0,084	0,123
-348,708	22,157	0,049	-0,030
-347,693	100,668	-0,124	-0,106
-346,679	800,000	0,026	0,081
-345,664	-177,870	-0,081	-0,001
-344,650	-90,365	0,115	-0,024
-343,635	-200,000	0,036	0,182
-342,620	800,000	-0,063	0,146
-341,606	-46,105	-0,084	0,030
-340,591	-200,000	0,003	0,037
-339,577	211,637	0,036	-0,042
-338,562	94,836	0,006	0,005
-337,548	800,000	0,013	-0,041
-336,533	0,785	0,084	-0,044
-335,518	709,816	-0,041	0,079
-334,504	41,278	-0,045	-0,030
-333,489	333,050	-0,083	0,117
-332,475	-59,953	-0,088	-0,027
-331,460	24,528	0,056	-0,034
-330,445	-200,000	-0,021	0,080
-329,431	-132,693	-0,077	-0,007
-328,416	800,000	-0,055	-0,144
-327,402	277,152	0,071	0,092
-326,387	-200,000	0,004	0,125
-325,372	-121,991	0,066	0,008
-324,358	-48,181	0,099	-0,035
-323,343	-79,640	0,124	-0,030
-322,329	178,456	0,111	0,119
-321,314	216,077	0,069	0,080
-320,299	56,194	0,105	0,074
-319,285	800,000	0,053	0,113
-318,270	44,152	-0,103	0,069
-317,256	85,804	-0,098	-0,079
-316,241	800,000	-0,032	0,093
-315,226	604,823	-0,036	0,067
-314,212	800,000	0,023	0,048
-313,197	180,121	0,015	-0,016
-312,183	800,000	-0,027	-0,065
-311,168	113,629	-0,152	0,135
-310,153	-28,154	-0,046	-0,019
-309,139	688,786	0,027	0,052
-308,124	97,339	0,122	0,103
-307,110	-200,000	-0,030	0,138
-306,095	-19,508	0,087	-0,039
-305,080	-200,000	-0,013	-0,123
-304,066	115,797	-0,044	0,039
-303,051	4,112	-0,126	-0,067
-302,037	-200,000	-0,003	0,097
-301,022	139,002	0,079	0,076
-300,008	-69,923	0,158	0,044
-298,993	391,343	0,061	0,092
-297,978	-154,474	-0,111	-0,005
-296,964	-144,183	0,086	-0,006
-295,949	-117,340	0,044	-0,006
-294,935	-160,179	-0,145	0,006
-293,920	-126,649	0,224	0,024
-292,905	-200,000	-0,004	0,058
-291,891	800,000	-0,063	0,171
-290,876	-73,351	0,036	-0,010
-289,862	-200,000	-0,007	-0,086
-288,847	800,000	-0,025	-0,051
-287,832	36,210	0,067	0,043
-286,818	-200,000	0,013	0,056
-285,803	-29,044	0,058	0,024
-284,789	552,579	0,066	0,117
-283,774	607,926	-0,061	0,112
-282,759	-200,000	-0,013	0,099
-281,745	-200,000	0,002	0,008
-280,730	435,318	-0,025	-0,040
-279,716	-141,852	0,155	-0,011
-278,701	526,359	-0,067	-0,115
-277,686	794,020	0,047	-0,096
-276,672	6,689	-0,065	-0,035
-275,657	-98,264	0,101	-0,019
-274,643	-200,000	-0,030	-0,176
-273,628	102,209	0,062	-0,053
-272,613	117,025	0,043	0,038
-271,599	-43,297	0,105	-0,039
-270,584	216,981	-0,025	0,029
-269,570	-200,000	-0,016	-0,094
-268,555	-200,000	-0,013	-0,092
-267,540	-120,570	0,068	-0,008
-266,526	-200,000	0,025	-0,146
-265,511	-200,000	-0,029	-0,110
-264,497	473,782	0,044	-0,072
-263,482	92,752	0,012	0,010
-262,467	232,012	0,085	-0,103
-261,453	-200,000	-0,026	0,099
-260,438	-200,000	-0,040	-0,130
-259,424	145,691	-0,073	0,071
-258,409	-113,657	-0,047	-0,007
-257,395	698,337	-0,034	-0,066
-256,380	61,832	0,116	0,084
-255,365	128,405	-0,073	0,068
-254,351	-148,903	-0,049	0,003
-253,336	203,606	0,044	-0,050
-252,322	-46,887	0,054	0,019
-251,307	-43,134	-0,146	0,054
-250,292	-200,000	-0,006	0,064
-249,278	559,669	0,025	-0,044
-248,263	-200,000	0,003	0,099
-247,249	392,734	0,025	0,038
-246,234	80,045	0,046	0,036
-245,219	800,000	0,024	-0,070
-244,205	-89,571	-0,097	-0,021
-243,190	800,000	0,015	0,040
-242,176	-1,397	-0,076	-0,039
-241,161	-200,000	0,018	-0,072
-240,146	800,000	-0,015	0,044
-239,132	287,572	-0,070	-0,093
-238,117	-94,650	-0,106	-0,021
-237,103	800,000	-0,025	0,076
-236,088	-75,933	-0,062	-0,016
-235,073	-140,360	-0,037	0,003
-234,059	235,421	-0,077	0,093
-233,044	615,081	0,024	0,045
-232,030	-200,000	0,014	0,101
-231,015	-126,856	0,043	-0,005
-230,000	586,376	0,061	0,111
-228,986	-200,000	-0,019	-0,112
-227,971	641,310	0,009	-0,017
-226,957	-46,835	0,123	0,044
-225,942	305,396	0,032	0,043
-224,927	800,000	-0,027	0,062
-223,913	544,488	0,039	0,068
-222,898	-87,174	-0,042	0,009
-221,884	800,000	-0,021	-0,066
-220,869	407,902	0,044	-0,069
-219,855	475,343	-0,018	-0,030
-218,840	-111,361	-0,102	0,015
-217,825	-200,000	0,013	-0,056
-216,811	-200,000	-0,005	-0,023
-215,796	448,841	0,039	-0,062
-214,782	343,998	0,016	0,022
-213,767	-82,934	-0,064	-0,015
-212,752	14,623	-0,067	-0,038
-211,738	453,193	-0,041	0,066
-210,723	156,297	0,044	0,044
-209,709	-200,000	-0,003	0,033
-208,694	-116,022	-0,117	-0,016
-207,679	581,839	0,100	-0,180
-206,665	-140,578	0,109	-0,008
-205,650	589,121	-0,063	0,114
-204,636	234,697	-0,057	0,068
-203,621	-200,000	0,008	0,102
-202,606	-200,000	0,023	0,120
-201,592	-125,387	-0,038	0,004
-200,577	572,401	-0,055	0,098
-199,563	-92,972	0,043	0,009
-198,548	-34,025	-0,040	-0,016
-197,533	568,434	0,026	-0,046
-196,519	419,444	-0,038	0,059
-195,504	39,642	-0,095	-0,062
-194,490	-28,510	-0,029	-0,012
-193,475	299,022	0,059	0,080
-192,460	114,054	0,114	0,101
-191,446	72,652	-0,034	-0,025
-190,431	431,707	0,073	0,115
-189,417	-200,000	0,016	0,085
-188,402	130,161	-0,089	-0,083
-187,387	800,000	-0,012	0,035
-186,373	-200,000	0,003	-0,051
-185,358	-10,195	-0,033	0,016
-184,344	-148,078	0,108	-0,006
-183,329	191,676	-0,018	0,020
-182,315	244,442	0,082	0,101
-181,300	-200,000	0,008	-0,062
-180,285	277,172	-0,012	-0,016
-179,271	-130,902	-0,057	-0,005
-178,256	-200,000	-0,043	0,179
-177,242	176,110	0,028	-0,030
-176,227	520,345	0,066	0,114
-175,212	-19,712	0,130	-0,058
-174,198	3,340	-0,066	0,035
-173,183	4,790	0,074	-0,040
-172,169	800,000	0,073	-0,229
-171,154	120,213	0,032	-0,029
-170,139	-97,769	-0,169	0,031
-169,125	-200,000	0,046	-0,192
-168,110	-128,206	-0,082	-0,008
-167,096	298,407	0,017	0,023
-166,081	-200,000	0,021	-0,098
-165,066	796,395	-0,054	-0,110
-164,052	-200,000	0,010	-0,081
-163,037	197,829	0,116	0,130
-162,023	-181,199	0,089	0,001
-161,008	370,294	0,074	-0,109
-159,993	550,916	0,131	-0,229
-158,979	182,577	-0,090	-0,097
-157,964	800,000	-0,082	-0,178
-156,950	143,850	0,036	-0,035
-155,935	-198,887	0,066	-0,000
-154,920	-92,207	-0,166	-0,034
-153,906	450,273	0,032	0,051
-152,891	31,088	0,079	-0,049
-151,877	475,663	0,035	-0,058
-150,862	-74,241	0,004	-0,001
-149,847	800,000	0,037	-0,093
-148,833	-130,359	0,175	-0,017
-147,818	40,224	-0,105	-0,069
-146,804	127,492	0,069	0,064
-145,789	-54,973	-0,143	0,047
-144,775	376,358	0,035	-0,053
-143,760	230,323	-0,032	0,039
-142,745	-82,676	-0,082	0,019
-141,731	61,652	0,052	0,038
-140,716	-7,949	0,072	-0,035
-139,702	276,881	0,162	0,210
-138,687	-200,000	0,009	-0,083
-137,672	-111,652	0,088	-0,013
-136,658	247,022	0,037	-0,045
-135,643	143,743	0,040	-0,039
-134,629	166,336	-0,044	0,045
-133,614	412,095	0,078	0,121
-132,599	800,000	0,048	0,104
-131,585	-200,000	-0,033	0,147
-130,570	800,000	0,014	-0,035
-129,556	452,433	0,109	-0,176
-128,541	-200,000	0,032	-0,181
-127,526	-200,000	0,002	-0,038
-126,512	-150,602	0,058	0,003
-125,497	89,159	0,189	0,153
-124,483	212,510	-0,109	-0,125
-123,468	74,229	-0,014	0,011
-122,453	146,893	-0,105	-0,103
-121,439	-183,336	0,090	-0,001
-120,424	800,000	0,066	-0,178
-119,410	800,000	0,033	-0,079
-118,395	164,992	-0,047	0,048
-117,380	-200,000	0,012	-0,094
-116,366	-200,000	0,007	-0,043
-115,351	-90,921	0,148	-0,031
-114,337	508,115	-0,008	-0,014
-113,322	800,000	-0,046	-0,132
-112,307	110,463	0,153	0,133
-111,293	-108,214	-0,105	-0,016
-110,278	30,922	-0,103	0,064
-109,264	389,076	0,023	0,035
-108,249	42,493	-0,085	0,056
-107,234	-116,970	-0,134	-0,018
-106,220	10,774	-0,033	-0,018
-105,205	800,000	0,049	0,116
-104,191	-50,990	-0,045	-0,015
-103,176	800,000	-0,056	0,169
-102,162	-111,327	0,131	0,019
-101,147	-103,213	0,057	-0,010
-100,132	407,825	0,068	-0,105
-99,118	-200,000	-0,008	-0,084
-98,103	124,436	0,047	0,043
-97,089	-200,000	0,007	0,065
-96,074	361,262	0,085	0,124
-95,059	622,011	-0,024	0,044
-94,045	-50,503	-0,104	0,036
-93,030	-200,000	-0,019	-0,070
-92,016	424,075	-0,077	-0,120
-91,001	-200,000	-0,021	-0,121
-89,986	-67,489	0,112	0,032
-88,972	800,000	0,074	0,173
-87,957	-200,000	-0,006	0,049
-86,943	89,881	-0,034	0,027
-85,928	593,422	-0,064	-0,115
-84,913	-38,972	-0,084	-0,032
-83,899	-42,136	0,044	-0,016
-82,884	-49,893	-0,039	-0,013
-81,870	-200,000	-0,005	-0,098
-80,855	216,736	0,031	0,036
-79,840	70,771	0,114	0,086
-78,826	21,977	-0,129	0,076
-77,811	428,996	-0,043	0,068
-76,797	142,829	-0,055	-0,053
-75,782	-200,000	-0,022	0,091
-74,767	19,764	0,042	-0,024
-73,753	-140,470	-0,025	0,002
-72,738	800,000	0,078	-0,182
-71,724	7,012	-0,044	0,024
-70,709	-11,146	-0,033	-0,016
-69,694	-22,596	-0,026	0,011
-68,680	-182,541	-0,039	0,001
-67,665	800,000	0,064	0,162
-66,651	-174,587	-0,099	0,002
-65,636	241,375	0,030	-0,036
-64,622	130,338	-0,041	0,038
-63,607	-82,738	-0,070	0,016
-62,592	-200,000	0,052	-0,195
-61,578	16,645	-0,119	0,068
-60,563	-178,320	0,048	-0,001
-59,549	538,584	0,071	0,123
-58,534	-91,414	-1,414	-0,290
-57,519	780,773	-0,711	-1,418
-56,505	-200,000	-0,878	-4,324
-55,490	-14,974	0,618	-0,286
-54,476	800,000	4,988	11,660
-53,461	-200,000	14,076	252,681
-52,446	-200,000	693,332	2237,159
-51,432	573,580	1623,942	2882,305
-50,417	117,451	1632,964	1455,914
-49,403	72,365	1286,816	971,030
-48,388	37,428	1023,218	656,272
-47,373	23,856	981,193	584,731
-46,359	23,120	970,889	576,156
-45,344	22,132	966,332	570,207
-44,330	22,068	964,946	569,158
-43,315	21,966	963,595	568,006
-42,300	21,918	962,590	567,234
-41,286	21,956	961,591	566,746
-40,271	21,927	960,625	566,059
-39,257	21,904	959,629	565,376
-38,242	21,830	958,800	564,626
-37,227	21,896	957,965	564,324
-36,213	21,882	956,973	563,672
-35,198	21,837	956,080	562,980
-34,184	21,979	955,506	563,076
-33,169	21,830	954,556	562,016
-32,154	21,998	953,641	561,994
-31,140	21,918	952,836	561,241
-30,125	21,934	951,949	560,746
-29,111	21,937	951,133	560,253
-28,096	21,920	950,616	559,874
-27,082	21,928	949,937	559,476
-26,067	21,917	949,140	558,949
-25,052	21,907	948,421	558,472
-24,038	21,946	947,843	558,233
-23,023	21,909	947,087	557,647
-22,009	21,921	946,357	557,235
-20,994	21,935	945,861	556,965
-19,979	21,984	945,103	556,653
-18,965	21,906	944,617	556,096
-17,950	21,918	944,054	555,781
-16,936	21,862	943,067	554,998
-15,921	21,870	942,597	554,727
-14,906	21,760	941,854	553,919
-13,892	21,798	941,120	553,584
-12,877	21,760	940,652	553,165
-11,863	21,690	940,044	552,565
-10,848	21,778	939,479	552,490
-9,833	21,912	938,898	552,550
-8,819	21,843	938,389	552,012
-7,804	21,829	937,622	551,494
-6,790	21,856	936,958	551,167
-5,775	21,825	936,401	550,718
-4,760	21,802	936,138	550,470
-3,746	21,820	935,280	549,999
-2,731	21,584	934,774	548,936
-1,717	21,627	933,840	548,502
-0,702	21,735	932,900	548,269
0,313	21,389	932,658	547,863
1,327	24,491	930,358	556,202
2,342	33,948	794,718	500,250
3,356	31,791	450,545	280,337
4,371	1,109	293,127	151,853
5,386	-3,375	274,122	137,764
6,400	-4,779	268,531	133,642
7,415	-5,157	266,132	132,089
8,429	-4,902	264,799	131,649
9,444	-4,872	264,045	131,289
10,459	-4,830	263,500	131,045
11,473	-4,882	263,025	130,750
12,488	-4,765	262,277	130,472
13,502	-5,022	261,877	130,029
14,517	-4,891	261,507	129,953
15,531	-5,008	261,257	129,711
16,546	-4,912	260,805	129,561
17,561	-4,949	260,313	129,272
18,575	-5,066	260,193	129,097
19,590	-5,080	259,777	128,866
20,604	-5,066	259,612	128,785
21,619	-5,031	259,136	128,568
22,634	-4,769	258,797	128,622
23,648	-5,043	258,552	128,245
24,663	-5,117	258,327	128,056
25,677	-4,941	258,013	128,045
26,692	-4,984	257,756	127,868
27,707	-4,927	257,429	127,745
28,721	-5,160	257,285	127,456
29,736	-5,016	256,893	127,378
30,750	-5,036	256,792	127,299
31,765	-5,109	256,561	127,109
32,780	-5,288	256,329	126,824
33,794	-4,913	256,000	126,980
34,809	-5,019	255,761	126,758
35,823	-5,210	255,578	126,488
36,838	-5,121	255,344	126,439
37,853	-4,921	255,040	126,453
38,867	-5,217	254,831	126,078
39,882	-5,330	254,807	125,955
40,896	-4,977	254,441	126,073
41,911	-5,163	254,123	125,741
42,926	-5,172	254,013	125,667
43,940	-5,177	253,708	125,501
44,955	-5,352	253,550	125,259
45,969	-5,255	253,376	125,247
46,984	-5,335	253,029	124,994
47,999	-5,363	252,703	124,798
49,013	-5,669	252,494	124,417
50,028	-5,742	252,286	124,241
51,042	-5,887	252,128	124,027
52,057	-5,911	251,932	123,898
53,071	-5,832	251,643	123,813
54,086	-5,830	251,591	123,778
55,101	-5,543	251,327	123,885
56,115	-5,568	251,201	123,791
57,130	-5,025	251,022	124,159
58,144	-4,813	250,913	124,277
59,159	-5,010	250,724	124,003
60,174	-4,779	250,506	124,082
61,188	-4,891	250,205	123,826
62,203	-4,878	250,069	123,759
63,217	-4,972	249,996	123,632
64,232	-4,742	249,561	123,602
65,247	-4,815	249,341	123,420
66,261	-5,006	249,263	123,206
67,276	-5,167	249,011	122,933
68,290	-5,253	248,688	122,689
69,305	-5,372	248,494	122,482
70,320	-5,216	248,325	122,521
71,334	-5,109	248,161	122,519
72,349	-4,985	248,121	122,595
73,363	-5,003	247,990	122,504
74,378	-4,852	247,641	122,449
75,393	-4,989	247,454	122,229
76,407	-5,157	247,287	121,993
77,422	-4,989	247,059	122,012
78,436	-4,971	246,781	121,879
79,451	-4,880	246,729	121,920
80,466	-5,116	246,367	121,531
81,480	-5,200	246,166	121,350
82,495	-5,334	245,929	121,109
83,509	-5,245	245,831	121,125
84,524	-5,196	245,560	121,021
85,539	-5,513	245,260	120,597
86,553	-5,227	245,214	120,803
87,568	-5,052	245,003	120,836
88,582	-5,149	244,776	120,632
89,597	-5,358	244,674	120,395
90,611	-5,062	244,570	120,581
91,626	-4,990	244,417	120,555
92,641	-5,047	244,195	120,387
93,655	-5,165	243,898	120,132
94,670	-5,085	243,720	120,101
95,684	-5,259	243,591	119,881
96,699	-5,094	243,437	119,932
97,714	-5,281	243,223	119,660
98,728	-5,209	243,037	119,618
99,743	-5,392	242,895	119,385
100,757	-5,244	242,581	119,344
101,772	-5,397	242,324	119,080
102,787	-5,338	242,360	119,136
103,801	-5,221	242,059	119,073
104,816	-5,340	241,942	118,907
105,830	-4,888	241,733	119,167
106,845	-5,026	241,788	119,069
107,860	-4,978	241,453	118,934
108,874	-5,088	241,156	118,686
109,889	-5,128	241,002	118,567
110,903	-5,412	240,970	118,306
111,918	-5,328	240,703	118,234
112,933	-5,223	240,576	118,247
113,947	-5,127	240,400	118,229
114,962	-5,091	240,296	118,197
115,976	-4,797	239,899	118,232
116,991	-5,103	239,990	118,015
118,006	-5,117	239,715	117,859
119,020	-5,039	239,427	117,770
120,035	-4,925	239,409	117,844
121,049	-4,995	239,284	117,715
122,064	-4,883	239,140	117,724
123,079	-4,951	238,873	117,527
124,093	-5,055	238,518	117,257
125,108	-5,190	238,574	117,165
126,122	-5,670	238,289	116,624
127,137	-5,524	237,911	116,547
128,151	-5,340	237,859	116,661
129,166	-5,305	237,687	116,594
130,181	-5,316	237,390	116,429
131,195	-5,274	237,318	116,417
132,210	-5,186	237,111	116,377
133,224	-5,215	237,146	116,360
134,239	-5,016	236,904	116,392
135,254	-5,020	236,662	116,260
136,268	-5,153	236,536	116,080
137,283	-5,387	236,217	115,724
138,297	-5,351	236,060	115,666
139,312	-5,455	235,985	115,536
140,327	-5,161	235,855	115,698
141,341	-4,825	235,721	115,892
142,356	-4,917	235,734	115,814
143,370	-4,807	235,359	115,708
144,385	-4,722	235,146	115,660
145,400	-4,723	235,050	115,602
146,414	-4,637	234,956	115,615
147,429	-4,755	234,783	115,425
148,443	-4,771	234,646	115,334
149,458	-4,661	234,473	115,327
150,473	-4,710	234,248	115,167
151,487	-4,809	234,121	115,015
152,502	-4,792	233,931	114,925
153,516	-4,780	233,809	114,865
154,531	-4,939	233,695	114,672
155,546	-5,037	233,475	114,476
156,560	-4,829	233,203	114,497
157,575	-4,926	233,094	114,356
158,589	-5,066	232,939	114,159
159,604	-4,777	232,709	114,265
160,619	-4,695	232,686	114,309
161,633	-4,745	232,385	114,111
162,648	-4,668	232,334	114,137
163,662	-4,592	232,129	114,086
164,677	-4,954	232,135	113,793
165,692	-4,882	231,893	113,721
166,706	-4,619	231,690	113,818
167,721	-4,687	231,620	113,720
168,735	-4,525	231,425	113,742
169,750	-4,740	231,367	113,534
170,764	-4,787	231,165	113,388
171,779	-4,666	231,011	113,398
172,794	-4,578	230,810	113,357
173,808	-4,763	230,629	113,113
174,823	-5,169	230,324	112,636
175,837	-5,272	230,209	112,489
176,852	-4,976	230,216	112,715
177,867	-4,817	230,067	112,756
178,881	-4,767	229,875	112,691
179,896	-4,677	229,750	112,689
180,910	-4,592	229,495	112,620
181,925	-4,772	229,496	112,470
182,940	-4,692	229,283	112,419
183,954	-4,702	229,230	112,374
184,969	-4,614	228,912	112,277
185,983	-4,577	228,808	112,245
186,998	-4,656	228,605	112,074
188,013	-4,588	228,601	112,115
189,027	-4,540	228,363	112,025
190,042	-4,686	228,199	111,822
191,056	-4,573	228,002	111,802
192,071	-4,729	227,915	111,630
193,086	-4,644	227,800	111,629
194,100	-4,529	227,560	111,589
195,115	-4,491	227,099	111,384
196,129	-4,994	227,205	111,038
197,144	-2,333	228,053	113,499
198,159	1,403	228,939	116,824
199,173	3,565	229,607	118,830
200,188	3,981	229,455	119,063
201,202	3,905	229,345	118,937
202,217	4,047	229,261	118,992
203,232	4,485	229,065	119,218
204,246	4,624	228,833	119,194
205,261	4,607	228,761	119,132
206,275	4,518	228,970	119,162
207,290	4,608	228,790	119,128
208,304	4,743	228,637	119,141
209,319	4,730	228,240	118,913
210,334	4,319	228,159	118,545
211,348	4,285	227,945	118,397
212,363	3,891	227,553	117,881
213,377	3,820	227,290	117,680
214,392	3,783	227,235	117,612
215,407	3,696	227,236	117,536
216,421	3,879	227,011	117,549
217,436	3,829	226,824	117,403
218,450	3,690	226,584	117,163
219,465	3,267	226,533	116,803
220,480	3,591	226,417	116,980
221,494	3,694	226,109	116,888
222,509	3,793	226,069	116,933
223,523	3,763	225,872	116,798
224,538	3,605	225,762	116,610
225,553	3,702	225,587	116,584
226,567	3,960	225,436	116,691
227,582	4,167	225,461	116,850
228,596	4,006	225,337	116,654
229,611	4,000	225,030	116,479
230,626	3,504	224,919	116,036
231,640	3,614	224,858	116,077
232,655	4,005	224,661	116,261
233,669	4,387	224,699	116,559
234,684	4,505	224,511	116,540
235,699	4,337	224,365	116,327
236,713	4,110	223,951	115,931
237,728	3,556	223,878	115,467
238,742	3,735	223,747	115,523
239,757	3,526	223,665	115,314
240,772	3,879	223,379	115,420
241,786	3,673	223,325	115,228
242,801	3,851	223,223	115,298
243,815	3,870	223,189	115,285
244,830	4,361	222,892	115,488
245,844	3,970	222,749	115,112
246,859	3,816	222,696	114,959
247,874	4,036	222,595	115,061
248,888	4,093	222,324	114,953
249,903	3,902	222,238	114,756
250,917	3,811	221,975	114,542
251,932	3,676	221,826	114,355
252,947	3,685	221,688	114,280
253,961	3,676	221,499	114,165
254,976	3,669	221,465	114,133
255,990	4,110	221,359	114,396
257,005	3,991	221,134	114,181
258,020	3,936	221,076	114,100
259,034	4,380	220,916	114,336
260,049	3,913	220,811	113,926
261,063	3,707	220,731	113,722
262,078	4,262	220,519	114,013
263,093	4,344	220,399	114,001
264,107	3,894	220,271	113,593
265,122	4,120	220,132	113,678
266,136	4,308	220,040	113,758
267,151	4,335	219,959	113,726
268,166	3,817	219,632	113,166
269,180	3,854	219,419	113,073
270,195	3,815	219,169	112,906
271,209	3,659	219,104	112,747
272,224	3,587	219,225	112,747
273,239	3,756	218,919	112,703
274,253	3,738	218,705	112,570
275,268	3,788	218,589	112,537
276,282	3,496	218,442	112,237
277,297	3,378	218,318	112,077
278,312	3,502	218,108	112,050
279,326	3,531	218,120	112,068
280,341	3,505	217,942	111,947
281,355	3,846	217,753	112,089
282,370	3,772	217,633	111,963
283,384	3,646	217,240	111,659
284,399	3,383	217,188	111,431
285,414	3,596	217,091	111,526
286,428	3,658	217,043	111,537
287,443	3,794	216,958	111,582
288,457	3,816	216,965	111,592
289,472	3,892	216,688	111,495
290,487	3,586	216,239	111,032
291,501	3,354	216,250	110,860
292,516	3,371	215,981	110,724
293,530	3,504	215,900	110,769
294,545	3,282	215,952	110,625
295,560	3,748	215,768	110,857
296,574	4,093	215,637	111,029
297,589	3,818	215,555	110,779
298,603	3,906	215,499	110,804
299,618	3,985	215,326	110,762
300,633	3,904	215,179	110,618
301,647	3,837	215,148	110,544
302,662	3,974	214,934	110,523
303,676	3,922	214,888	110,452
304,691	4,012	214,535	110,325
305,706	3,990	214,619	110,342
306,720	4,104	214,332	110,267
307,735	3,947	214,141	110,046
308,749	3,554	214,186	109,778
309,764	3,757	214,075	109,857
310,779	3,879	213,857	109,822
311,793	4,077	213,682	109,864
312,808	3,905	213,577	109,678
313,822	3,836	213,404	109,530
314,837	3,866	213,095	109,383
315,852	3,835	213,005	109,305
316,866	3,737	212,903	109,173
317,881	3,881	212,838	109,232
318,895	4,283	212,577	109,373
319,910	3,800	212,517	108,990
320,925	3,447	212,203	108,570
321,939	3,149	212,158	108,326
322,954	3,571	211,982	108,525
323,968	3,860	212,035	108,747
324,983	4,088	211,862	108,809
325,997	4,010	211,896	108,762
327,012	4,048	211,683	108,670
328,027	4,072	211,411	108,537
329,041	4,354	211,474	108,759
330,056	4,481	211,315	108,757
331,070	4,051	211,199	108,385
332,085	3,640	210,868	107,917
333,100	3,597	210,756	107,819
334,114	3,815	210,662	107,915
335,129	3,943	210,505	107,914
336,143	3,631	210,233	107,547
337,158	3,642	210,184	107,520
338,173	3,730	210,076	107,517
339,187	3,451	209,962	107,253
340,202	3,488	209,820	107,197
341,216	3,297	209,492	106,887
342,231	3,783	209,388	107,163
343,246	3,628	209,400	107,052
344,260	3,530	209,240	106,892
345,275	3,567	209,159	106,867
346,289	4,197	208,983	107,205
347,304	3,948	208,965	107,014
348,319	3,855	208,746	106,828
349,333	3,748	208,730	106,735
350,348	3,904	208,621	106,779
351,362	4,055	208,518	106,821
352,377	3,900	208,359	106,623
353,392	3,627	208,191	106,338
354,406	3,968	208,055	106,495
355,421	193,338	1346,196	1431,545
356,435	154,226	1484,952	1431,653
