DTS Sentinel unit serial number:	SN410029Multiplexer serial number:	ORYXHardware model number:	OX2-SRSoftware version number:	ORYX F/W v4,00 Oryx Data Collector v3.7.2.0data status	okinstallation	B6 Nyhavnadifferential loss correction	single-endedforward channel	channel 2reverse channel	N/Adate	2023/12/07time	22:05:08forward acquisition time	300,00reverse acquisition time	0,00gamma	499,1914k internal	0,3165k external	0,3165temperature offset calibration	1,0000default loss term (dB/km)	0,3820temperature slope calibration	1,0000multiplexer offset coefficient	1,0000multiplexer slope coefficient	1,0000fibre end	0,00T internal ref (°C)	13,62T ext. ref 1 (°C)	-3,29T ext. ref 2 (°C)	-3,30length (m)	temperature (°C)	Stokes	anti-Stokes-744,400	419,010	0,090	0,142
-743,385	-77,640	-0,277	-0,070
-742,371	-76,138	0,181	0,047
-741,356	-39,339	-0,144	-0,055
-740,342	77,027	0,117	0,091
-739,327	-43,326	-0,314	0,116
-738,312	-29,772	0,067	0,028
-737,298	-83,857	-0,343	-0,080
-736,283	800,000	0,023	0,058
-735,269	-83,123	-0,190	-0,045
-734,254	-81,537	0,120	0,029
-733,239	-50,277	-0,404	-0,140
-732,225	76,949	0,062	0,048
-731,210	58,673	-0,091	0,065
-730,196	-200,000	0,005	0,051
-729,181	800,000	0,042	0,098
-728,167	471,990	-0,029	0,048
-727,152	-37,659	0,026	-0,010
-726,137	-71,314	-0,163	0,045
-725,123	-200,000	-0,005	0,115
-724,108	-156,583	-0,083	0,004
-723,094	-27,027	-0,133	-0,057
-722,079	33,567	-0,094	-0,060
-721,064	-88,655	0,102	-0,022
-720,050	-200,000	0,011	0,087
-719,035	-200,000	-0,018	-0,088
-718,021	-88,627	-0,067	-0,015
-717,006	157,075	0,081	0,083
-715,991	800,000	0,043	-0,098
-714,977	-28,084	0,046	-0,020
-713,962	-115,726	-0,061	0,008
-712,948	67,791	0,059	0,045
-711,933	-37,230	-0,092	0,036
-710,918	-200,000	0,035	-0,152
-709,904	-200,000	-0,021	-0,242
-708,889	-39,031	-0,037	-0,014
-707,875	-200,000	-0,004	0,022
-706,860	-142,619	-0,147	0,010
-705,845	-200,000	0,004	-0,027
-704,831	-15,216	-0,080	-0,038
-703,816	-79,306	0,044	-0,011
-702,802	28,381	0,040	0,025
-701,787	-22,277	-0,115	0,051
-700,772	-95,739	0,095	0,018
-699,758	-145,069	0,114	-0,008
-698,743	-78,536	-0,047	0,012
-697,729	197,087	0,083	0,093
-696,714	-200,000	-0,031	-0,117
-695,699	-200,000	0,007	-0,033
-694,685	-44,106	-0,046	0,017
-693,670	347,473	0,096	-0,139
-692,656	800,000	0,047	-0,111
-691,641	-200,000	0,008	0,066
-690,627	57,163	0,257	0,184
-689,612	-117,690	-0,055	0,007
-688,597	24,146	-0,162	-0,098
-687,583	79,229	-0,067	-0,053
-686,568	-200,000	-0,008	-0,100
-685,554	369,318	-0,038	-0,057
-684,539	33,796	0,109	-0,070
-683,524	144,871	0,050	-0,050
-682,510	800,000	-0,060	0,174
-681,495	-200,000	-0,001	0,036
-680,481	-36,583	-0,044	0,017
-679,466	295,282	-0,038	0,051
-678,451	249,411	-0,038	-0,048
-677,437	59,620	-0,061	-0,044
-676,422	-144,905	0,035	-0,002
-675,408	-66,701	0,071	0,021
-674,393	800,000	-0,038	-0,112
-673,378	-148,112	-0,035	-0,002
-672,364	-132,130	-0,107	0,010
-671,349	454,944	-0,098	0,161
-670,335	-200,000	-0,033	-0,148
-669,320	-119,832	0,093	-0,012
-668,305	30,711	0,104	0,065
-667,291	158,496	0,031	-0,032
-666,276	-119,662	-0,104	0,013
-665,262	-30,935	-0,108	0,044
-664,247	-127,694	0,018	-0,002
-663,232	-62,964	0,154	-0,046
-662,218	-55,197	0,093	-0,031
-661,203	-86,161	0,049	0,011
-660,189	-104,237	0,118	0,020
-659,174	800,000	-0,060	-0,148
-658,159	-4,873	-0,071	-0,036
-657,145	-80,499	-0,095	-0,023
-656,130	-200,000	-0,008	-0,068
-655,116	632,709	0,032	0,059
-654,101	85,843	-0,052	0,042
-653,086	134,943	0,131	-0,125
-652,072	-126,394	-0,090	0,010
-651,057	-200,000	0,013	-0,205
-650,043	-200,000	0,004	-0,040
-649,028	-200,000	0,000	0,096
-648,014	288,334	0,010	-0,013
-646,999	-133,661	0,074	0,007
-645,984	10,286	-0,099	0,055
-644,970	116,129	-0,135	-0,122
-643,955	-114,892	-0,048	-0,007
-642,941	-71,602	-0,082	-0,022
-641,926	800,000	0,014	0,031
-640,911	-200,000	-0,007	-0,082
-639,897	-200,000	0,001	0,060
-638,882	69,133	0,099	0,074
-637,868	-80,246	0,139	-0,034
-636,853	-7,618	-0,126	0,062
-635,838	355,405	-0,042	0,061
-634,824	-200,000	0,013	-0,065
-633,809	-91,529	0,171	0,035
-632,795	-200,000	-0,003	0,044
-631,780	-200,000	0,009	0,061
-630,765	352,045	-0,109	-0,158
-629,751	-8,617	-0,028	-0,014
-628,736	175,506	0,016	0,017
-627,722	-19,615	-0,113	-0,051
-626,707	-200,000	0,005	0,016
-625,692	800,000	0,012	-0,027
-624,678	124,656	0,097	-0,090
-623,663	-75,643	0,076	-0,020
-622,649	-200,000	0,014	-0,074
-621,634	800,000	-0,018	-0,048
-620,619	-105,821	0,101	0,017
-619,605	149,638	0,063	-0,063
-618,590	-200,000	-0,005	0,102
-617,576	70,577	-0,144	-0,109
-616,561	-21,905	0,035	-0,016
-615,546	-97,522	-0,067	-0,013
-614,532	-200,000	-0,011	-0,098
-613,517	-200,000	0,013	-0,123
-612,503	385,630	-0,029	-0,045
-611,488	-104,052	-0,026	0,004
-610,474	-200,000	-0,004	0,013
-609,459	136,208	0,020	0,019
-608,444	13,560	0,020	0,012
-607,430	-61,155	-0,055	-0,017
-606,415	-167,410	-0,103	0,003
-605,401	84,187	0,142	-0,113
-604,386	54,207	0,063	0,044
-603,371	73,860	-0,081	0,062
-602,357	-40,575	0,004	-0,002
-601,342	800,000	-0,038	-0,109
-600,328	-200,000	0,024	-0,106
-599,313	-98,640	0,097	0,018
-598,298	-46,357	-0,119	0,042
-597,284	-198,234	0,117	-0,000
-596,269	-200,000	-0,004	0,101
-595,255	800,000	0,068	0,186
-594,240	-102,531	-0,039	0,007
-593,225	-96,927	-0,143	-0,027
-592,211	104,030	-0,061	0,053
-591,196	3,852	-0,094	-0,050
-590,182	-200,000	-0,009	0,058
-589,167	226,017	0,031	-0,037
-588,152	800,000	0,029	-0,068
-587,138	355,094	-0,045	0,065
-586,123	366,861	-0,083	-0,123
-585,109	104,639	0,013	-0,011
-584,094	-84,678	-0,064	0,015
-583,079	-8,278	0,076	0,037
-582,065	-200,000	-0,003	0,081
-581,050	800,000	-0,041	0,090
-580,036	-200,000	0,017	0,089
-579,021	-106,571	0,033	-0,005
-578,006	-200,000	-0,013	-0,071
-576,992	-200,000	0,011	0,117
-575,977	-140,509	0,096	-0,007
-574,963	-200,000	-0,027	0,094
-573,948	800,000	0,067	0,142
-572,934	800,000	0,017	-0,050
-571,919	-81,589	-0,092	-0,022
-570,904	-123,462	-0,049	0,006
-569,890	79,134	0,067	0,053
-568,875	-33,678	0,030	-0,012
-567,861	324,057	-0,060	0,083
-566,846	729,950	0,084	-0,165
-565,831	-200,000	0,022	-0,095
-564,817	-200,000	0,010	0,042
-563,802	71,236	0,035	0,026
-562,788	46,030	-0,027	0,018
-561,773	89,807	0,146	-0,119
-560,758	-44,098	0,075	-0,027
-559,744	-200,000	0,010	0,044
-558,729	-92,793	0,064	-0,013
-557,715	800,000	-0,016	-0,041
-556,700	732,516	-0,008	0,016
-555,685	800,000	-0,075	-0,170
-554,671	-200,000	-0,011	-0,081
-553,656	-70,626	0,138	0,038
-552,642	32,586	0,084	-0,053
-551,627	-200,000	0,005	0,097
-550,612	-200,000	-0,016	0,171
-549,598	-46,945	-0,048	0,017
-548,583	135,863	0,069	-0,066
-547,569	-200,000	0,006	-0,030
-546,554	153,647	0,091	-0,091
-545,539	-53,054	-0,065	0,022
-544,525	66,017	0,053	0,039
-543,510	211,336	0,043	-0,049
-542,496	81,461	-0,049	0,039
-541,481	-200,000	-0,024	-0,096
-540,466	463,122	0,049	-0,080
-539,452	164,713	-0,055	0,057
-538,437	-200,000	-0,010	0,127
-537,423	-21,702	-0,054	-0,024
-536,408	221,576	0,060	0,070
-535,393	-64,421	-0,074	-0,022
-534,379	800,000	0,017	0,040
-533,364	673,019	0,034	-0,065
-532,350	800,000	-0,043	-0,107
-531,335	737,188	0,048	0,095
-530,321	-88,462	0,093	-0,020
-529,306	800,000	-0,007	-0,019
-528,291	124,110	0,054	-0,049
-527,277	-101,886	-0,081	-0,014
-526,262	800,000	-0,071	-0,186
-525,248	-123,941	0,079	0,009
-524,233	-65,469	0,168	-0,049
-523,218	800,000	-0,031	-0,063
-522,204	-200,000	0,020	0,080
-521,189	-200,000	-0,004	0,029
-520,175	-60,917	-0,011	0,004
-519,160	-3,605	-0,164	0,083
-518,145	204,251	0,050	-0,056
-517,131	-200,000	0,056	0,246
-516,116	800,000	-0,027	0,056
-515,102	69,295	0,085	-0,064
-514,087	78,507	-0,067	-0,052
-513,072	-130,460	-0,103	-0,010
-512,058	-64,337	-0,107	-0,032
-511,043	-200,000	-0,023	-0,113
-510,029	-200,000	0,006	0,032
-509,014	253,356	0,056	0,069
-507,999	52,199	-0,070	-0,049
-506,985	56,735	0,070	0,050
-505,970	78,055	0,032	-0,025
-504,956	-200,000	-0,011	-0,099
-503,941	538,550	-0,024	0,042
-502,926	-200,000	0,017	-0,089
-501,912	182,292	0,043	0,046
-500,897	800,000	0,024	-0,066
-499,883	-120,378	-0,008	-0,001
-498,868	800,000	-0,018	-0,057
-497,853	270,451	-0,094	0,121
-496,839	-200,000	0,018	-0,080
-495,824	800,000	-0,035	0,084
-494,810	-35,667	-0,155	0,061
-493,795	25,323	0,037	-0,022
-492,781	-200,000	0,011	0,074
-491,766	-94,712	-0,169	-0,033
-490,751	387,537	-0,030	-0,046
-489,737	800,000	0,043	0,101
-488,722	339,046	0,037	0,053
-487,708	101,614	0,035	-0,029
-486,693	-143,108	-0,112	-0,008
-485,678	260,701	-0,017	-0,022
-484,664	-200,000	-0,021	0,079
-483,649	7,010	-0,068	-0,037
-482,635	-105,062	0,042	0,007
-481,620	-177,937	0,042	0,001
-480,605	-74,136	-0,030	-0,008
-479,591	-1,996	-0,047	-0,024
-478,576	272,921	0,054	-0,070
-477,562	-127,455	0,096	-0,010
-476,547	-200,000	0,037	-0,182
-475,532	426,913	-0,047	-0,074
-474,518	-200,000	0,005	0,078
-473,503	33,190	0,140	0,089
-472,489	800,000	0,029	0,066
-471,474	-62,136	-0,019	-0,006
-470,459	565,046	-0,053	-0,093
-469,445	-200,000	-0,044	-0,158
-468,430	-15,352	-0,080	-0,037
-467,416	-121,152	-0,043	-0,005
-466,401	800,000	0,027	0,083
-465,386	-200,000	0,021	-0,112
-464,372	-131,433	-0,023	-0,002
-463,357	106,573	0,075	0,065
-462,343	487,084	-0,087	-0,145
-461,328	34,202	0,054	0,034
-460,313	-200,000	0,022	0,097
-459,299	-121,375	0,120	0,014
-458,284	-200,000	0,021	0,094
-457,270	-30,619	0,019	-0,008
-456,255	800,000	-0,002	-0,005
-455,241	-38,565	0,100	-0,038
-454,226	-200,000	-0,011	-0,064
-453,211	800,000	0,019	-0,059
-452,197	1,356	-0,133	0,069
-451,182	-169,310	0,117	0,003
-450,168	99,390	-0,070	-0,058
-449,153	33,399	-0,150	-0,094
-448,138	-60,582	-0,053	0,016
-447,124	-200,000	0,005	-0,030
-446,109	1,234	0,097	0,051
-445,095	800,000	-0,005	0,012
-444,080	-34,114	0,062	0,025
-443,065	-200,000	-0,021	0,122
-442,051	-32,865	-0,048	0,019
-441,036	-91,140	-0,072	0,015
-440,022	257,674	0,048	-0,060
-439,007	-200,000	0,029	0,123
-437,992	0,760	-0,153	0,079
-436,978	-110,663	0,017	-0,003
-435,963	-200,000	-0,001	-0,051
-434,949	-55,983	-0,119	-0,038
-433,934	666,455	-0,071	-0,134
-432,919	-32,897	-0,028	0,011
-431,905	-169,383	0,085	0,002
-430,890	800,000	-0,019	-0,041
-429,876	-200,000	-0,004	0,019
-428,861	-200,000	-0,045	0,235
-427,846	61,206	0,043	-0,031
-426,832	-19,374	0,106	-0,048
-425,817	229,240	-0,036	-0,043
-424,803	-24,156	0,154	-0,067
-423,788	-156,023	0,106	-0,005
-422,773	-90,625	0,199	-0,042
-421,759	-126,716	-0,046	0,005
-420,744	800,000	-0,015	-0,041
-419,730	-139,193	-0,038	-0,003
-418,715	82,330	-0,101	-0,080
-417,701	39,154	0,098	0,064
-416,686	435,711	0,029	-0,046
-415,671	-200,000	0,022	0,107
-414,657	98,169	0,082	0,069
-413,642	274,676	-0,070	-0,091
-412,628	-36,249	0,098	-0,038
-411,613	101,841	0,033	-0,028
-410,598	117,404	-0,080	-0,071
-409,584	-200,000	0,002	-0,052
-408,569	13,973	0,022	0,013
-407,555	22,468	0,123	-0,073
-406,540	55,065	-0,002	0,002
-405,525	-8,833	0,021	0,010
-404,511	800,000	0,011	0,031
-403,496	592,812	0,053	0,095
-402,482	-200,000	-0,009	0,080
-401,467	-1,610	-0,028	0,014
-400,452	163,215	0,112	0,115
-399,438	296,860	0,079	0,105
-398,423	-110,194	-0,116	-0,017
-397,409	317,529	-0,071	-0,097
-396,394	451,052	0,064	-0,103
-395,379	444,084	-0,047	0,075
-394,365	59,707	0,103	0,074
-393,350	557,009	0,079	-0,140
-392,336	800,000	-0,034	0,081
-391,321	57,933	-0,098	0,069
-390,306	-200,000	-0,010	-0,100
-389,292	39,015	0,034	0,022
-388,277	-200,000	-0,003	-0,068
-387,263	-89,485	-0,052	-0,011
-386,248	90,772	-0,034	0,028
-385,233	800,000	0,039	-0,097
-384,219	163,926	0,091	0,093
-383,204	-50,524	-0,034	-0,012
-382,190	-22,322	0,055	-0,024
-381,175	763,465	-0,043	-0,084
-380,160	-200,000	-0,019	0,213
-379,146	800,000	-0,027	0,057
-378,131	-200,000	-0,005	0,114
-377,117	205,421	-0,092	0,104
-376,102	461,276	-0,039	0,064
-375,088	800,000	0,024	-0,068
-374,073	-200,000	0,034	-0,192
-373,058	-41,299	0,080	-0,030
-372,044	-200,000	-0,017	0,072
-371,029	-112,231	0,067	0,010
-370,015	786,480	0,082	-0,165
-369,000	800,000	-0,035	-0,076
-367,985	215,735	0,122	-0,141
-366,971	-100,096	-0,216	0,039
-365,956	475,662	0,113	0,186
-364,942	-84,644	0,152	0,034
-363,927	-200,000	-0,013	-0,074
-362,912	159,252	0,043	0,043
-361,898	-43,846	0,112	-0,041
-360,883	-46,796	-0,036	-0,013
-359,869	149,266	0,148	-0,145
-358,854	128,179	-0,026	0,024
-357,839	-57,919	0,077	0,024
-356,825	-141,260	0,088	0,006
-355,810	800,000	0,020	-0,062
-354,796	-104,317	0,160	-0,027
-353,781	597,057	-0,065	-0,117
-352,766	123,503	-0,061	0,055
-351,752	165,879	-0,063	-0,065
-350,737	-200,000	0,070	0,230
-349,723	-21,991	0,082	-0,036
-348,708	484,560	0,017	-0,029
-347,693	-137,610	-0,132	-0,011
-346,679	-157,628	-0,065	-0,003
-345,664	162,593	-0,052	-0,053
-344,650	196,053	0,017	-0,019
-343,635	470,163	0,081	0,133
-342,620	-35,564	0,140	-0,055
-341,606	85,919	-0,109	0,087
-340,591	-0,611	-0,117	0,060
-339,577	33,551	-0,096	-0,060
-338,562	800,000	-0,060	-0,126
-337,548	334,431	0,019	0,026
-336,533	-200,000	0,012	0,044
-335,518	-13,195	0,067	-0,031
-334,504	-37,312	-0,133	0,051
-333,489	-200,000	0,013	0,097
-332,475	275,558	0,029	-0,038
-331,460	-7,525	-0,122	0,060
-330,445	86,281	0,105	-0,084
-329,431	330,930	-0,065	-0,091
-328,416	-200,000	0,000	0,058
-327,402	752,500	0,067	0,131
-326,387	-200,000	-0,024	0,149
-325,372	-103,658	-0,092	0,015
-324,358	800,000	-0,079	0,191
-323,343	276,451	-0,050	-0,064
-322,329	103,957	0,128	0,109
-321,314	800,000	-0,072	0,151
-320,299	-118,996	0,115	-0,014
-319,285	56,537	-0,027	0,019
-318,270	-200,000	-0,003	0,104
-317,256	-26,254	-0,039	-0,017
-316,241	370,105	0,036	0,053
-315,226	-99,224	-0,033	0,006
-314,212	39,053	0,083	0,053
-313,197	360,903	0,047	0,068
-312,183	-200,000	0,011	0,118
-311,168	7,149	-0,049	0,027
-310,153	-200,000	-0,024	-0,114
-309,139	-200,000	0,002	0,033
-308,124	-200,000	-0,001	-0,003
-307,110	800,000	0,016	0,048
-306,095	800,000	-0,041	-0,119
-305,080	-125,252	-0,089	-0,010
-304,066	-200,000	-0,001	-0,107
-303,051	-4,824	-0,038	-0,019
-302,037	-200,000	0,016	-0,082
-301,022	-74,425	-0,084	-0,022
-300,008	-96,696	0,099	-0,019
-298,993	-51,486	0,174	0,058
-297,978	800,000	0,056	-0,123
-296,964	800,000	-0,046	-0,106
-295,949	-200,000	0,012	0,132
-294,935	83,826	0,007	-0,006
-293,920	-200,000	0,009	-0,061
-292,905	-200,000	0,039	-0,130
-291,891	430,827	0,041	-0,064
-290,876	-72,864	-0,071	-0,019
-289,862	380,477	0,078	0,116
-288,847	34,417	-0,097	-0,061
-287,832	-200,000	0,030	-0,117
-286,818	138,307	-0,031	-0,029
-285,803	430,869	-0,037	0,058
-284,789	-11,881	-0,159	0,075
-283,774	-68,743	0,141	-0,039
-282,759	319,038	-0,034	0,047
-281,745	800,000	-0,044	-0,096
-280,730	691,534	-0,016	0,031
-279,716	280,909	-0,059	-0,076
-278,701	-200,000	0,006	0,039
-277,686	-135,681	0,047	-0,004
-276,672	105,321	0,113	0,096
-275,657	443,932	0,095	0,151
-274,643	-200,000	0,015	0,088
-273,628	-82,950	-0,186	0,043
-272,613	197,883	0,050	0,055
-271,599	-107,320	0,153	0,024
-270,584	31,730	-0,029	-0,018
-269,570	436,153	-0,080	0,126
-268,555	67,473	0,057	-0,042
-267,540	231,812	0,056	-0,067
-266,526	61,949	-0,171	-0,123
-265,511	137,365	0,023	0,021
-264,497	800,000	-0,053	0,165
-263,482	800,000	0,023	0,052
-262,467	-120,007	0,074	-0,009
-261,453	-64,411	-0,111	0,032
-260,438	546,862	-0,067	-0,115
-259,424	308,836	-0,126	-0,170
-258,409	147,953	-0,040	-0,039
-257,395	-200,000	-0,023	-0,077
-256,380	-125,361	0,049	-0,005
-255,365	-200,000	0,013	-0,068
-254,351	356,791	0,085	-0,123
-253,336	24,242	0,060	-0,036
-252,322	57,305	-0,082	-0,058
-251,307	-200,000	0,008	0,051
-250,292	-200,000	-0,013	-0,060
-249,278	280,985	0,062	-0,081
-248,263	-200,000	-0,007	0,082
-247,249	-103,953	-0,105	0,018
-246,234	-200,000	0,002	-0,151
-245,219	-101,630	-0,085	0,015
-244,205	406,907	-0,074	0,113
-243,190	-61,679	-0,133	0,040
-242,176	-200,000	0,017	0,058
-241,161	10,823	0,143	-0,078
-240,146	124,792	0,031	-0,028
-239,132	800,000	-0,010	0,029
-238,117	-36,790	0,046	-0,018
-237,103	55,443	-0,094	0,066
-236,088	-200,000	0,008	-0,035
-235,073	-200,000	0,000	0,045
-234,059	477,720	-0,033	-0,054
-233,044	23,334	-0,139	0,082
-232,030	800,000	0,024	0,050
-231,015	175,357	-0,086	0,090
-230,000	-37,927	-0,075	0,028
-228,986	800,000	-0,021	0,065
-227,971	535,986	-0,034	0,059
-226,957	-200,000	-0,011	-0,053
-225,942	-200,000	0,006	-0,180
-224,927	800,000	0,050	-0,154
-223,913	115,181	-0,061	0,054
-222,898	280,202	0,024	0,030
-221,884	-7,378	-0,033	-0,016
-220,869	-51,968	-0,072	0,024
-219,855	268,889	0,052	-0,066
-218,840	355,320	-0,042	-0,060
-217,825	-79,868	0,061	0,015
-216,811	-137,263	-0,077	0,006
-215,796	38,271	-0,109	-0,070
-214,782	-80,908	0,136	0,032
-213,767	70,119	0,060	0,045
-212,752	-137,032	0,060	0,005
-211,738	-40,069	0,138	-0,052
-210,723	14,765	0,079	0,045
-209,709	-175,582	-0,099	-0,002
-208,694	-72,010	0,025	-0,007
-207,679	-176,120	-0,055	-0,001
-206,665	-80,836	0,174	0,041
-205,650	-200,000	0,014	0,140
-204,636	-102,126	-0,061	0,010
-203,621	800,000	-0,011	-0,024
-202,606	-200,000	0,006	-0,024
-201,592	-5,470	-0,140	0,069
-200,577	800,000	-0,025	-0,057
-199,563	-43,709	-0,021	-0,008
-198,548	578,191	-0,034	0,061
-197,533	340,165	0,036	0,051
-196,519	225,243	0,049	0,057
-195,504	151,971	-0,017	-0,017
-194,490	377,969	-0,016	0,024
-193,475	68,321	-0,022	-0,016
-192,460	509,279	-0,083	0,139
-191,446	-98,983	0,216	0,039
-190,431	-110,663	-0,086	-0,013
-189,417	-137,872	0,041	-0,003
-188,402	26,763	0,059	0,035
-187,387	68,929	-0,109	-0,080
-186,373	-102,457	-0,022	-0,004
-185,358	800,000	-0,024	0,064
-184,344	-104,994	0,047	0,008
-183,329	33,357	-0,098	-0,061
-182,315	-200,000	0,029	0,113
-181,300	28,263	-0,140	0,085
-180,285	-85,256	0,009	0,002
-179,271	-200,000	-0,000	0,020
-178,256	-177,008	0,046	-0,001
-177,242	262,021	0,077	0,096
-176,227	-200,000	-0,006	-0,028
-175,212	-101,191	-0,021	0,004
-174,198	800,000	-0,015	0,047
-173,183	350,206	-0,089	0,127
-172,169	-200,000	-0,003	0,017
-171,154	-134,953	0,059	0,005
-170,139	-125,284	0,069	-0,008
-169,125	20,448	0,135	0,078
-168,110	-200,000	0,121	-0,000
-167,096	-113,674	-0,049	-0,007
-166,081	178,052	0,080	-0,084
-165,066	128,610	-0,110	-0,101
-164,052	-200,000	-0,058	-0,190
-163,037	-67,015	-0,095	0,027
-162,023	800,000	0,012	-0,026
-161,008	-11,479	-0,135	0,064
-159,993	-89,909	0,019	-0,004
-158,979	136,186	-0,019	-0,017
-157,964	-17,711	-0,130	-0,058
-156,950	260,154	-0,049	-0,061
-155,935	388,146	0,021	-0,032
-154,920	308,015	0,039	0,053
-153,906	5,769	0,127	0,068
-152,891	289,362	-0,054	0,071
-151,877	800,000	0,016	0,042
-150,862	207,531	0,044	0,049
-149,847	57,056	0,071	0,050
-148,833	-74,129	0,116	-0,030
-147,818	-200,000	-0,003	0,028
-146,804	-64,866	-0,076	0,022
-145,789	-200,000	-0,016	0,071
-144,775	-200,000	-0,001	0,080
-143,760	-64,860	-0,052	-0,015
-142,745	-109,253	0,123	0,019
-141,731	-112,825	-0,078	0,011
-140,716	-200,000	0,009	-0,037
-139,702	109,883	0,122	0,105
-138,687	29,184	0,172	-0,104
-137,672	403,205	0,043	0,065
-136,658	800,000	-0,032	0,085
-135,643	-5,370	0,130	0,064
-134,629	-200,000	-0,016	0,063
-133,614	266,529	-0,022	0,027
-132,599	-200,000	-0,005	0,093
-131,585	560,872	-0,038	0,066
-130,570	800,000	-0,014	-0,044
-129,556	-106,341	-0,156	0,025
-128,541	303,758	0,080	-0,106
-127,526	800,000	-0,034	-0,094
-126,512	-200,000	-0,015	-0,049
-125,497	9,736	0,049	0,027
-124,483	125,093	-0,014	-0,013
-123,468	-19,392	-0,072	-0,032
-122,453	-200,000	-0,013	0,057
-121,439	221,406	-0,032	-0,037
-120,424	3,944	-0,011	-0,006
-119,410	-79,591	0,062	-0,015
-118,395	29,381	-0,019	-0,012
-117,380	-145,245	-0,079	0,005
-116,366	191,080	0,061	0,066
-115,351	455,187	-0,046	-0,074
-114,337	-200,000	0,018	-0,088
-113,322	-200,000	0,007	-0,023
-112,307	438,772	-0,079	0,124
-111,293	-65,650	0,077	0,022
-110,278	800,000	-0,022	0,049
-109,264	800,000	-0,063	-0,129
-108,249	-200,000	-0,004	0,031
-107,234	800,000	-0,035	-0,091
-106,220	800,000	-0,029	-0,074
-105,205	189,696	-0,126	0,136
-104,191	95,968	-0,020	0,016
-103,176	169,057	-0,055	0,057
-102,162	-161,851	0,180	-0,006
-101,147	446,525	-0,069	0,109
-100,132	130,448	-0,091	0,083
-99,118	124,769	-0,016	-0,015
-98,103	-200,000	-0,016	0,067
-97,089	-123,206	0,125	-0,014
-96,074	144,633	0,043	0,041
-95,059	30,582	-0,144	0,088
-94,045	800,000	0,056	0,123
-93,030	-200,000	-0,001	-0,057
-92,016	800,000	-0,009	0,023
-91,001	800,000	0,035	-0,099
-89,986	-14,617	0,059	0,027
-88,972	245,672	0,062	0,074
-87,957	-115,711	-0,169	-0,022
-86,943	-3,701	0,062	-0,031
-85,928	-105,478	-0,096	0,016
-84,913	144,372	0,088	-0,084
-83,899	181,600	-0,068	-0,072
-82,884	10,891	-0,088	-0,048
-81,870	-117,872	0,133	-0,017
-80,855	800,000	0,015	-0,038
-79,840	197,786	-0,075	-0,083
-78,826	800,000	-0,042	-0,125
-77,811	31,897	-0,201	-0,124
-76,797	418,978	-0,010	0,015
-75,782	800,000	0,051	-0,134
-74,767	-78,678	0,084	-0,020
-73,753	-26,106	0,053	-0,022
-72,738	-65,028	0,040	0,012
-71,724	-97,852	0,045	-0,008
-70,709	-200,000	0,008	-0,034
-69,694	132,014	-0,095	-0,087
-68,680	-48,353	-0,049	0,017
-67,665	800,000	-0,053	0,106
-66,651	-39,274	0,198	0,074
-65,636	800,000	0,007	-0,018
-64,622	457,650	0,058	-0,093
-63,607	-19,327	-0,050	0,022
-62,592	178,873	0,079	0,083
-61,578	800,000	0,072	0,167
-60,563	202,978	-0,063	0,070
-59,549	322,797	-0,074	0,101
-58,534	42,488	-2,161	-1,405
-57,519	-200,000	-0,065	-0,634
-56,505	-200,000	-1,361	-5,030
-55,490	104,971	0,934	0,789
-54,476	800,000	5,267	12,078
-53,461	-200,000	18,587	308,533
-52,446	800,000	739,153	2288,266
-51,432	541,269	1652,354	2829,975
-50,417	108,799	1636,223	1399,903
-49,403	72,320	1286,665	958,891
-48,388	29,809	1028,181	625,603
-47,373	19,659	990,861	569,404
-46,359	17,364	978,324	554,657
-45,344	14,028	974,573	541,589
-44,330	14,355	973,011	541,767
-43,315	13,673	971,314	538,574
-42,300	13,608	970,285	537,770
-41,286	13,567	969,268	537,052
-40,271	13,610	968,427	536,703
-39,257	13,629	967,481	536,220
-38,242	13,716	966,412	535,889
-37,227	13,654	965,793	535,322
-36,213	13,620	964,989	534,747
-35,198	13,614	964,083	534,204
-34,184	13,679	963,110	533,853
-33,169	13,554	962,449	533,060
-32,154	13,602	961,504	532,673
-31,140	13,653	960,406	532,207
-30,125	13,681	959,833	531,960
-29,111	13,638	958,929	531,297
-28,096	13,646	958,233	530,918
-27,082	13,689	957,459	530,605
-26,067	13,636	956,963	530,139
-25,052	13,633	956,132	529,649
-24,038	13,675	955,288	529,295
-23,023	13,669	954,606	528,877
-22,009	13,705	953,894	528,577
-20,994	13,618	953,433	528,022
-19,979	13,602	953,005	527,712
-18,965	13,662	952,082	527,371
-17,950	13,731	951,588	527,297
-16,936	13,560	950,986	526,398
-15,921	13,623	950,159	526,120
-14,906	13,605	949,435	525,640
-13,892	13,569	948,836	525,172
-12,877	13,571	948,047	524,722
-11,863	13,558	947,432	524,318
-10,848	13,562	946,996	524,070
-9,833	13,678	946,569	524,181
-8,819	13,628	945,801	523,578
-7,804	13,525	945,381	522,996
-6,790	13,567	944,844	522,812
-5,775	13,661	944,120	522,690
-4,760	13,636	943,645	522,325
-3,746	13,582	942,845	521,693
-2,731	13,437	942,211	520,862
-1,717	13,463	941,689	520,633
-0,702	13,416	940,947	520,054
0,313	13,263	940,215	519,952
1,327	16,537	938,154	529,084
2,342	25,473	789,571	468,813
3,356	21,624	444,037	257,934
4,371	-7,533	296,539	143,022
5,386	-11,308	278,361	130,653
6,400	-12,505	272,546	126,798
7,415	-12,794	270,331	125,488
8,429	-13,079	269,065	124,627
9,444	-13,026	267,970	124,157
10,459	-12,985	267,387	123,914
11,473	-13,085	266,782	123,531
12,488	-12,984	266,166	123,327
13,502	-13,410	265,702	122,715
14,517	-13,200	265,282	122,700
15,531	-13,084	264,851	122,595
16,546	-12,981	264,307	122,425
17,561	-13,281	264,024	122,012
18,575	-13,011	263,712	122,100
19,590	-13,203	263,330	121,741
20,604	-12,879	263,076	121,903
21,619	-13,116	262,717	121,513
22,634	-13,055	262,313	121,370
23,648	-13,227	262,121	121,117
24,663	-12,946	261,810	121,213
25,677	-12,981	261,669	121,106
26,692	-13,063	261,189	120,800
27,707	-13,300	261,146	120,558
28,721	-13,114	260,799	120,552
29,736	-12,922	260,404	120,529
30,750	-13,383	260,192	120,011
31,765	-13,371	260,080	119,960
32,780	-13,148	259,714	119,978
33,794	-13,139	259,405	119,832
34,809	-13,155	259,130	119,681
35,823	-13,261	258,910	119,474
36,838	-13,301	258,840	119,396
37,853	-13,419	258,433	119,094
38,867	-13,277	258,324	119,158
39,882	-13,219	257,986	119,043
40,896	-13,077	257,687	119,019
41,911	-13,180	257,664	118,908
42,926	-13,133	257,229	118,738
43,940	-13,366	257,071	118,449
44,955	-13,367	256,878	118,349
45,969	-13,400	256,516	118,143
46,984	-13,649	256,354	117,840
47,999	-13,870	256,044	117,494
49,013	-13,897	255,868	117,379
50,028	-13,938	255,511	117,169
51,042	-14,008	255,271	116,988
52,057	-14,006	254,901	116,810
53,071	-13,868	254,863	116,902
54,086	-13,743	254,590	116,875
55,101	-13,741	254,532	116,839
56,115	-13,638	254,485	116,897
57,130	-13,050	254,319	117,319
58,144	-12,827	254,054	117,379
59,159	-12,930	253,817	117,171
60,174	-12,941	253,529	117,018
61,188	-13,001	253,271	116,836
62,203	-12,984	253,132	116,776
63,217	-13,193	252,907	116,482
64,232	-12,889	252,591	116,588
65,247	-13,096	252,567	116,388
66,261	-13,059	252,313	116,293
67,276	-13,223	251,949	115,974
68,290	-13,376	251,594	115,669
69,305	-13,553	251,456	115,444
70,320	-13,464	251,372	115,471
71,334	-13,182	251,236	115,640
72,349	-13,078	251,006	115,612
73,363	-12,841	250,737	115,680
74,378	-13,076	250,586	115,400
75,393	-13,193	250,417	115,212
76,407	-13,029	250,192	115,237
77,422	-13,108	250,015	115,078
78,436	-13,176	249,660	114,848
79,451	-12,902	249,501	114,996
80,466	-13,322	249,346	114,558
81,480	-13,318	249,136	114,456
82,495	-13,520	248,886	114,160
83,509	-13,321	248,692	114,229
84,524	-13,309	248,517	114,149
85,539	-13,417	248,274	113,936
86,553	-13,498	247,870	113,671
87,568	-13,320	247,832	113,794
88,582	-13,559	247,658	113,502
89,597	-13,499	247,509	113,474
90,611	-13,278	247,300	113,555
91,626	-13,303	247,294	113,521
92,641	-13,048	246,997	113,588
93,655	-12,998	246,772	113,516
94,670	-13,238	246,593	113,222
95,684	-13,240	246,397	113,121
96,699	-13,237	246,243	113,043
97,714	-13,119	245,963	113,002
98,728	-13,524	245,845	112,601
99,743	-13,441	245,592	112,544
100,757	-13,394	245,217	112,401
101,772	-13,384	245,218	112,400
102,787	-13,458	244,922	112,193
103,801	-13,275	244,791	112,274
104,816	-13,197	244,755	112,313
105,830	-13,116	244,569	112,285
106,845	-13,076	244,245	112,159
107,860	-13,025	244,170	112,156
108,874	-13,161	243,908	111,913
109,889	-13,212	243,749	111,789
110,903	-13,340	243,389	111,508
111,918	-13,298	243,356	111,517
112,933	-13,368	243,170	111,365
113,947	-13,217	243,134	111,463
114,962	-13,143	242,772	111,348
115,976	-13,189	242,700	111,267
116,991	-13,082	242,437	111,225
118,006	-13,146	242,274	111,087
119,020	-13,214	242,225	110,999
120,035	-13,169	242,141	110,988
121,049	-13,174	241,888	110,857
122,064	-12,975	241,640	110,897
123,079	-13,110	241,541	110,731
124,093	-13,340	241,407	110,472
125,108	-13,398	240,900	110,182
126,122	-13,547	240,672	109,947
127,137	-13,593	240,490	109,817
128,151	-13,562	240,342	109,764
129,166	-13,501	240,149	109,716
130,181	-13,497	240,129	109,701
131,195	-13,608	239,924	109,507
132,210	-13,302	239,784	109,682
133,224	-13,084	239,472	109,705
134,239	-13,011	239,361	109,704
135,254	-13,128	239,152	109,503
136,268	-12,988	238,936	109,509
137,283	-13,569	238,633	108,891
138,297	-13,666	238,475	108,731
139,312	-13,677	238,350	108,655
140,327	-13,307	238,146	108,850
141,341	-12,882	238,231	109,221
142,356	-13,030	238,108	109,037
143,370	-12,929	237,892	109,009
144,385	-12,868	237,640	108,933
145,400	-12,688	237,392	108,954
146,414	-12,710	237,308	108,888
147,429	-12,787	237,085	108,714
148,443	-12,984	236,920	108,472
149,458	-12,970	236,871	108,451
150,473	-12,938	236,589	108,337
151,487	-13,071	236,434	108,150
152,502	-13,037	236,310	108,111
153,516	-13,042	236,070	107,988
154,531	-13,034	236,072	107,985
155,546	-12,946	235,804	107,923
156,560	-13,107	235,652	107,715
157,575	-13,053	235,423	107,644
158,589	-13,125	235,125	107,442
159,604	-12,986	235,147	107,553
160,619	-13,064	234,896	107,366
161,633	-12,759	234,797	107,553
162,648	-12,612	234,638	107,587
163,662	-12,914	234,438	107,247
164,677	-12,947	234,269	107,134
165,692	-13,017	234,119	107,001
166,706	-12,838	234,135	107,139
167,721	-12,768	233,963	107,106
168,735	-12,564	233,739	107,155
169,750	-12,999	233,699	106,785
170,764	-12,977	233,294	106,607
171,779	-12,914	233,295	106,648
172,794	-12,795	233,128	106,656
173,808	-12,987	232,807	106,348
174,823	-13,497	232,552	105,823
175,837	-13,447	232,333	105,752
176,852	-13,109	232,292	105,989
177,867	-13,028	232,338	106,064
178,881	-12,854	232,106	106,085
179,896	-12,749	231,937	106,080
180,910	-12,887	231,787	105,894
181,925	-12,846	231,566	105,815
182,940	-12,974	231,526	105,688
183,954	-12,954	231,404	105,639
184,969	-12,661	231,264	105,793
185,983	-12,764	231,022	105,593
186,998	-12,720	230,962	105,591
188,013	-12,519	230,725	105,629
189,027	-12,700	230,549	105,399
190,042	-12,707	230,450	105,339
191,056	-12,786	230,378	105,235
192,071	-12,846	230,169	105,084
193,086	-12,791	229,956	105,019
194,100	-12,862	229,806	104,887
195,115	-13,135	229,313	104,442
196,129	-13,013	229,519	104,621
197,144	-7,448	231,293	109,743
198,159	-1,861	232,849	114,830
199,173	1,707	233,829	118,090
200,188	2,393	233,974	118,688
201,202	2,304	233,831	118,535
202,217	2,026	233,823	118,304
203,232	2,644	233,512	118,618
204,246	2,455	233,491	118,449
205,261	2,691	233,242	118,496
206,275	2,776	233,201	118,530
207,290	3,012	233,055	118,629
208,304	2,946	232,856	118,466
209,319	2,855	232,673	118,292
210,334	2,804	232,460	118,133
211,348	2,325	232,276	117,658
212,363	2,161	231,992	117,378
213,377	2,038	231,578	117,062
214,392	2,158	231,594	117,153
215,407	2,117	231,634	117,131
216,421	2,169	231,484	117,085
217,436	2,045	231,136	116,803
218,450	1,917	230,837	116,543
219,465	1,967	230,686	116,495
220,480	1,927	230,644	116,432
221,494	1,650	230,715	116,245
222,509	2,123	230,606	116,543
223,523	2,355	230,369	116,591
224,538	2,055	230,206	116,268
225,553	2,132	229,966	116,195
226,567	2,052	229,936	116,109
227,582	2,385	229,850	116,309
228,596	2,434	229,831	116,327
229,611	2,191	229,409	115,918
230,626	1,785	229,076	115,430
231,640	1,918	229,102	115,533
232,655	2,203	228,961	115,669
233,669	2,505	228,897	115,856
234,684	2,640	228,857	115,929
235,699	2,381	228,699	115,642
236,713	2,069	228,503	115,295
237,728	2,234	228,093	115,203
238,742	2,072	227,969	115,007
239,757	2,155	227,943	115,047
240,772	1,996	227,648	114,767
241,786	1,955	227,708	114,756
242,801	2,151	227,584	114,832
243,815	2,465	227,568	115,050
244,830	2,403	227,343	114,880
245,844	2,020	227,056	114,436
246,859	1,964	226,943	114,326
247,874	2,321	226,689	114,457
248,888	2,483	226,657	114,553
249,903	2,320	226,467	114,324
250,917	2,061	226,363	114,067
251,932	2,162	226,187	114,043
252,947	1,779	225,973	113,638
253,961	1,860	225,719	113,561
254,976	2,013	225,672	113,642
255,990	2,324	225,704	113,881
257,005	2,355	225,487	113,784
258,020	2,016	225,359	113,456
259,034	2,345	225,181	113,602
260,049	2,439	225,005	113,574
261,063	2,208	224,913	113,345
262,078	2,598	224,829	113,583
263,093	2,710	224,745	113,613
264,107	2,458	224,409	113,246
265,122	2,510	224,313	113,226
266,136	2,568	224,282	113,244
267,151	2,482	224,212	113,134
268,166	2,169	223,951	112,760
269,180	1,773	223,642	112,301
270,195	1,860	223,606	112,337
271,209	1,976	223,295	112,257
272,224	2,306	223,362	112,525
273,239	2,283	223,125	112,379
274,253	2,027	222,906	112,069
275,268	2,074	222,631	111,955
276,282	1,907	222,425	111,718
277,297	1,708	222,462	111,581
278,312	1,765	222,443	111,604
279,326	2,133	222,346	111,816
280,341	2,031	222,168	111,641
281,355	2,495	221,895	111,835
282,370	2,267	221,913	111,666
283,384	2,053	221,651	111,367
284,399	1,985	221,461	111,212
285,414	2,012	221,198	111,091
286,428	2,020	221,354	111,165
287,443	2,519	221,151	111,418
288,457	2,253	220,994	111,134
289,472	1,807	220,886	110,744
290,487	1,730	220,587	110,528
291,501	1,798	220,310	110,428
292,516	1,709	220,383	110,391
293,530	1,850	220,104	110,344
294,545	2,120	219,989	110,473
295,560	2,058	219,994	110,420
296,574	2,113	219,750	110,328
297,589	2,095	219,639	110,249
298,603	2,037	219,668	110,212
299,618	2,164	219,597	110,259
300,633	2,411	219,340	110,299
301,647	2,549	219,202	110,320
302,662	2,428	219,139	110,190
303,676	2,611	218,890	110,187
304,691	2,490	218,851	110,071
305,706	2,215	218,556	109,714
306,720	2,424	218,425	109,789
307,735	2,353	218,112	109,571
308,749	1,857	218,211	109,254
309,764	2,199	218,096	109,432
310,779	2,518	217,888	109,548
311,793	2,239	217,778	109,283
312,808	2,394	217,593	109,291
313,822	2,458	217,432	109,247
314,837	2,258	217,293	109,023
315,852	1,908	217,145	108,688
316,866	2,201	217,036	108,835
317,881	2,239	217,063	108,865
318,895	2,217	216,874	108,745
319,910	1,937	216,716	108,456
320,925	2,024	216,250	108,275
321,939	1,705	216,083	107,954
322,954	1,720	216,040	107,934
323,968	1,939	216,133	108,127
324,983	2,071	216,178	108,234
325,997	2,569	216,036	108,508
327,012	2,587	215,806	108,395
328,027	2,427	215,606	108,172
329,041	2,552	215,484	108,190
330,056	2,661	215,325	108,178
331,070	2,265	215,199	107,824
332,085	1,973	214,921	107,468
333,100	2,181	214,896	107,594
334,114	2,077	214,821	107,472
335,129	2,226	214,555	107,435
336,143	1,893	214,370	107,098
337,158	2,084	214,317	107,196
338,173	1,893	214,313	107,050
339,187	1,902	213,838	106,810
340,202	1,888	213,798	106,770
341,216	2,180	213,770	106,953
342,231	2,456	213,694	107,099
343,246	2,108	213,602	106,799
344,260	2,046	213,376	106,632
345,275	2,472	213,229	106,848
346,289	2,666	213,116	106,919
347,304	2,205	213,117	106,586
348,319	2,221	212,647	106,353
349,333	2,091	212,667	106,262
350,348	2,273	212,510	106,302
351,362	2,522	212,393	106,408
352,377	2,618	212,246	106,391
353,392	2,391	212,073	106,137
354,406	2,346	212,053	106,086
355,421	196,727	1315,181	1392,202
356,435	157,333	1449,530	1392,141
