DTS Sentinel unit serial number:	SN410029Multiplexer serial number:	ORYXHardware model number:	OX2-SRSoftware version number:	ORYX F/W v4,00 Oryx Data Collector v3.7.2.0data status	okinstallation	B6 Nyhavnadifferential loss correction	single-endedforward channel	channel 2reverse channel	N/Adate	2023/12/09time	09:35:08forward acquisition time	300,00reverse acquisition time	0,00gamma	499,1914k internal	0,3138k external	0,3138temperature offset calibration	1,0000default loss term (dB/km)	0,3820temperature slope calibration	1,0000multiplexer offset coefficient	1,0000multiplexer slope coefficient	1,0000fibre end	0,00T internal ref (°C)	18,46T ext. ref 1 (°C)	2,07T ext. ref 2 (°C)	2,07length (m)	temperature (°C)	Stokes	anti-Stokes-744,400	388,508	0,031	0,048
-743,385	-11,384	-0,155	0,076
-742,371	95,053	-0,059	0,050
-741,356	39,637	-0,200	0,133
-740,342	55,700	0,082	0,059
-739,327	-49,834	-0,344	0,120
-738,312	-200,000	-0,005	0,069
-737,298	38,908	-0,366	0,242
-736,283	800,000	0,024	-0,062
-735,269	-95,127	-0,288	0,057
-734,254	-200,000	-0,001	-0,024
-733,239	-98,403	-0,443	-0,083
-732,225	-79,423	0,142	0,035
-731,210	-176,349	-0,078	-0,001
-730,196	57,890	0,145	0,105
-729,181	38,184	-0,152	-0,100
-728,167	-22,190	-0,123	-0,055
-727,152	39,174	0,073	-0,048
-726,137	504,615	-0,022	0,038
-725,123	714,560	-0,039	0,077
-724,108	137,708	0,031	-0,030
-723,094	800,000	-0,045	-0,103
-722,079	717,350	-0,080	-0,158
-721,064	-35,222	-0,091	-0,036
-720,050	86,453	-0,039	0,032
-719,035	-68,197	0,117	0,034
-718,021	294,179	-0,061	0,082
-717,006	76,854	-0,146	-0,115
-715,991	-67,593	-0,043	-0,013
-714,977	-109,926	-0,043	-0,007
-713,962	-1,675	-0,162	-0,084
-712,948	90,051	0,089	0,073
-711,933	-200,000	0,014	0,120
-710,918	-200,000	-0,013	-0,094
-709,904	309,058	-0,001	-0,001
-708,889	27,034	0,027	-0,017
-707,875	22,889	-0,175	-0,106
-706,860	-200,000	0,035	0,129
-705,845	420,791	0,058	0,092
-704,831	659,312	0,050	-0,096
-703,816	164,808	-0,106	0,111
-702,802	800,000	0,045	0,098
-701,787	750,870	-0,065	-0,130
-700,772	56,391	0,079	-0,057
-699,758	11,198	-0,061	0,034
-698,743	334,808	-0,029	-0,042
-697,729	315,939	-0,070	0,098
-696,714	225,005	0,134	0,161
-695,699	-200,000	0,001	0,124
-694,685	-6,427	-0,042	-0,021
-693,670	122,558	-0,145	-0,134
-692,656	800,000	-0,004	-0,012
-691,641	-91,650	0,125	-0,026
-690,627	269,271	0,126	-0,164
-689,612	-200,000	0,005	0,016
-688,597	800,000	0,043	-0,130
-687,583	800,000	0,014	-0,044
-686,568	-184,856	-0,098	0,001
-685,554	146,867	-0,011	-0,011
-684,539	-90,918	0,145	-0,031
-683,524	-200,000	0,029	0,105
-682,510	-200,000	-0,001	0,127
-681,495	350,572	-0,042	0,061
-680,481	341,276	-0,069	-0,100
-679,466	-200,000	-0,004	-0,233
-678,451	92,705	-0,092	-0,077
-677,437	-53,770	-0,106	-0,035
-676,422	-200,000	0,001	0,019
-675,408	100,314	0,109	-0,094
-674,393	-154,099	-0,095	-0,005
-673,378	-62,604	-0,080	-0,025
-672,364	-179,058	-0,129	0,002
-671,349	506,176	-0,043	0,074
-670,335	-31,644	0,097	-0,040
-669,320	62,271	-0,030	0,022
-668,305	132,983	0,042	-0,041
-667,291	800,000	-0,035	-0,077
-666,276	658,552	0,040	-0,076
-665,262	-200,000	-0,028	-0,126
-664,247	-200,000	0,024	-0,133
-663,232	-200,000	0,030	-0,107
-662,218	34,859	0,062	0,040
-661,203	1,447	0,129	-0,068
-660,189	564,755	-0,045	0,082
-659,174	-94,447	-0,113	-0,023
-658,159	-32,148	-0,143	0,059
-657,145	-200,000	0,005	0,051
-656,130	-200,000	-0,009	-0,049
-655,116	800,000	0,040	0,098
-654,101	-200,000	0,015	0,108
-653,086	-145,431	-0,183	0,012
-652,072	-122,330	0,097	0,012
-651,057	84,682	-0,132	-0,107
-650,043	-116,465	-0,076	0,010
-649,028	-132,438	-0,138	-0,013
-648,014	38,924	0,097	-0,064
-646,999	170,218	0,044	-0,046
-645,984	6,460	0,104	-0,057
-644,970	800,000	-0,006	-0,012
-643,955	161,145	-0,096	-0,099
-642,941	-58,959	-0,119	-0,038
-641,926	-200,000	-0,007	0,072
-640,911	653,598	-0,029	0,056
-639,897	15,946	-0,043	0,025
-638,882	-200,000	-0,035	0,175
-637,868	213,421	-0,047	-0,055
-636,853	618,543	-0,090	-0,168
-635,838	-100,243	-0,073	-0,013
-634,824	-39,948	0,079	0,030
-633,809	-11,574	0,096	-0,046
-632,795	94,156	0,096	-0,080
-631,780	569,414	0,011	0,021
-630,765	-92,401	0,062	-0,013
-629,751	10,840	-0,078	0,044
-628,736	47,941	-0,028	0,020
-627,722	-21,667	0,061	-0,027
-626,707	135,950	0,022	0,021
-625,692	363,574	-0,020	-0,031
-624,678	22,489	0,072	0,043
-623,663	800,000	-0,028	-0,068
-622,649	-30,405	-0,085	-0,035
-621,634	-200,000	0,009	-0,048
-620,619	7,710	-0,140	-0,077
-619,605	607,399	-0,019	-0,035
-618,590	-77,108	0,025	-0,006
-617,576	-19,127	-0,028	-0,013
-616,561	-132,929	0,022	-0,002
-615,546	-101,109	-0,061	0,011
-614,532	-80,652	-0,077	-0,019
-613,517	-102,580	-0,090	0,016
-612,503	64,941	0,090	0,067
-611,488	800,000	0,069	-0,212
-610,474	800,000	0,036	0,111
-609,459	-11,183	-0,083	-0,040
-608,444	-200,000	-0,003	0,049
-607,430	32,544	0,104	0,066
-606,415	119,046	0,093	0,085
-605,401	24,877	0,109	-0,067
-604,386	-200,000	0,011	-0,148
-603,371	-200,000	0,009	-0,061
-602,357	236,317	-0,094	0,115
-601,342	299,986	0,018	0,024
-600,328	14,331	-0,128	0,073
-599,313	0,993	0,050	-0,026
-598,298	800,000	0,074	0,234
-597,284	-60,534	0,060	0,019
-596,269	131,510	0,099	0,094
-595,255	472,407	0,002	-0,004
-594,240	211,809	-0,078	0,090
-593,225	351,136	-0,046	0,067
-592,211	-35,447	-0,204	-0,081
-591,196	800,000	-0,021	0,052
-590,182	22,885	0,037	0,022
-589,167	-200,000	-0,005	0,092
-588,152	-95,678	-0,047	-0,009
-587,138	487,343	0,068	0,115
-586,123	-200,000	0,003	-0,220
-585,109	-182,458	0,046	-0,001
-584,094	800,000	-0,046	0,097
-583,079	4,285	-0,152	0,082
-582,065	-200,000	-0,059	0,210
-581,050	800,000	0,020	-0,054
-580,036	394,597	0,067	-0,104
-579,021	-89,118	-0,035	-0,008
-578,006	57,224	-0,040	-0,029
-576,992	170,256	0,106	-0,112
-575,977	800,000	0,009	-0,022
-574,963	366,172	-0,035	-0,053
-573,948	-31,846	0,048	0,020
-572,934	-159,491	-0,146	-0,006
-571,919	-61,833	-0,143	0,044
-570,904	-16,018	0,082	0,038
-569,890	-31,317	0,028	0,011
-568,875	-51,424	-0,057	0,020
-567,861	-200,000	0,004	0,068
-566,846	56,511	-0,063	-0,045
-565,831	74,284	-0,072	0,056
-564,817	141,421	-0,020	0,019
-563,802	-136,613	-0,077	0,006
-562,788	52,515	0,053	-0,037
-561,773	-172,983	0,112	-0,002
-560,758	-200,000	-0,004	-0,065
-559,744	391,904	0,083	-0,128
-558,729	800,000	-0,049	-0,109
-557,715	800,000	0,038	-0,091
-556,700	800,000	-0,062	-0,143
-555,685	-64,391	-0,077	-0,023
-554,671	137,953	0,105	-0,101
-553,656	9,456	-0,056	0,031
-552,642	-200,000	-0,012	0,117
-551,627	-43,824	0,137	-0,050
-550,612	66,123	-0,091	-0,068
-549,598	37,420	-0,037	-0,024
-548,583	27,592	-0,122	-0,076
-547,569	-107,351	-0,080	0,013
-546,554	-200,000	-0,012	0,049
-545,539	-132,379	-0,091	0,009
-544,525	-200,000	-0,001	-0,032
-543,510	93,199	-0,039	-0,032
-542,496	-200,000	0,056	-0,203
-541,481	96,985	0,056	-0,047
-540,466	388,903	0,055	0,084
-539,452	24,374	0,095	-0,058
-538,437	-200,000	-0,006	0,065
-537,423	-107,862	0,038	0,006
-536,408	-41,584	-0,209	0,079
-535,393	249,173	-0,083	-0,104
-534,379	-200,000	0,028	-0,102
-533,364	-200,000	0,000	-0,081
-532,350	-84,625	-0,020	-0,004
-531,335	173,415	-0,081	0,086
-530,321	-11,849	0,011	-0,005
-529,306	-200,000	0,014	0,096
-528,291	141,934	-0,032	-0,031
-527,277	-200,000	0,021	-0,078
-526,262	-200,000	-0,008	-0,082
-525,248	169,382	0,080	-0,084
-524,233	800,000	0,047	0,107
-523,218	233,270	0,114	0,138
-522,204	14,582	-0,042	-0,024
-521,189	-159,854	-0,175	-0,007
-520,175	-200,000	0,003	0,097
-519,160	-58,106	-0,078	0,025
-518,145	-200,000	0,002	-0,046
-517,131	-200,000	0,093	0,000
-516,116	302,651	0,080	0,109
-515,102	-91,032	-0,098	0,021
-514,087	-22,253	-0,078	0,035
-513,072	-200,000	0,007	-0,046
-512,058	-83,479	-0,069	0,016
-511,043	-145,079	0,160	0,011
-510,029	72,322	-0,060	-0,046
-509,014	-144,557	0,083	-0,006
-507,999	85,260	0,087	-0,070
-506,985	800,000	-0,048	-0,128
-505,970	277,164	0,089	-0,117
-504,956	-92,727	0,039	-0,008
-503,941	-144,657	-0,032	-0,002
-502,926	-147,116	-0,082	-0,005
-501,912	-121,489	-0,099	0,012
-500,897	336,214	-0,056	0,081
-499,883	319,316	0,015	-0,021
-498,868	27,158	-0,015	-0,009
-497,853	79,306	0,049	0,039
-496,839	800,000	0,042	0,089
-495,824	156,619	0,080	0,081
-494,810	-200,000	-0,014	-0,075
-493,795	7,346	-0,113	0,062
-492,781	-200,000	-0,005	0,044
-491,766	736,172	0,042	-0,084
-490,751	-33,348	-0,064	0,026
-489,737	-91,036	0,106	-0,022
-488,722	29,202	0,113	0,070
-487,708	800,000	-0,024	0,059
-486,693	479,261	0,068	0,114
-485,678	313,710	0,046	-0,064
-484,664	245,657	-0,044	0,055
-483,649	-200,000	-0,008	-0,031
-482,635	-140,876	0,051	0,004
-481,620	410,996	0,062	0,097
-480,605	-34,154	0,129	-0,052
-479,591	800,000	0,007	0,016
-478,576	531,863	-0,015	-0,026
-477,562	647,960	0,016	0,030
-476,547	800,000	0,010	-0,025
-475,532	800,000	0,029	-0,071
-474,518	-200,000	0,039	0,138
-473,503	18,133	-0,076	-0,044
-472,489	175,857	-0,105	0,112
-471,474	99,323	0,063	0,054
-470,459	101,188	0,076	-0,065
-469,445	84,861	0,111	0,090
-468,430	121,230	0,076	-0,069
-467,416	-200,000	-0,024	0,085
-466,401	-200,000	-0,005	0,040
-465,386	-200,000	-0,013	0,067
-464,372	-200,000	-0,013	-0,060
-463,357	208,411	-0,072	-0,083
-462,343	-144,309	-0,066	0,004
-461,328	-158,810	0,143	0,006
-460,313	-200,000	0,004	-0,040
-459,299	-153,420	0,044	-0,002
-458,284	14,238	-0,055	-0,031
-457,270	-16,364	0,061	-0,028
-456,255	-200,000	0,007	-0,071
-455,241	160,260	0,029	0,029
-454,226	-31,909	-0,042	-0,017
-453,211	-200,000	0,003	-0,020
-452,197	52,004	0,110	-0,077
-451,182	515,916	-0,045	0,078
-450,168	-26,030	0,130	0,056
-449,153	-200,000	0,007	0,041
-448,138	-200,000	0,004	0,050
-447,124	-200,000	-0,011	-0,140
-446,109	462,396	-0,085	-0,139
-445,095	-200,000	-0,007	0,055
-444,080	144,531	-0,046	0,045
-443,065	-200,000	-0,029	0,129
-442,051	-128,797	-0,079	0,008
-441,036	120,562	-0,050	-0,046
-440,022	390,027	-0,046	0,070
-439,007	158,787	0,070	0,071
-437,992	104,024	0,097	-0,083
-436,978	786,270	-0,032	-0,064
-435,963	318,304	-0,050	0,069
-434,949	-17,730	-0,114	-0,052
-433,934	468,210	-0,095	0,157
-432,919	-200,000	0,011	0,059
-431,905	-74,816	0,080	0,021
-430,890	800,000	-0,043	0,090
-429,876	99,225	-0,031	0,027
-428,861	-169,571	0,093	0,002
-427,846	-200,000	0,011	-0,044
-426,832	-200,000	0,006	0,134
-425,817	800,000	0,054	-0,118
-424,803	800,000	-0,032	-0,099
-423,788	246,097	0,130	0,160
-422,773	-200,000	0,003	0,158
-421,759	142,581	0,035	0,034
-420,744	-200,000	-0,008	0,054
-419,730	61,680	-0,040	-0,029
-418,715	-200,000	-0,033	-0,206
-417,701	184,286	0,090	-0,098
-416,686	800,000	-0,023	-0,051
-415,671	319,564	-0,041	0,058
-414,657	-200,000	-0,017	0,137
-413,642	446,574	-0,035	0,056
-412,628	800,000	0,025	0,053
-411,613	-200,000	-0,007	0,108
-410,598	-65,483	-0,108	0,032
-409,584	306,812	-0,053	-0,072
-408,569	-200,000	0,009	0,091
-407,555	-200,000	0,023	-0,079
-406,540	-200,000	-0,010	0,069
-405,525	379,085	-0,070	-0,105
-404,511	35,511	0,034	0,022
-403,496	54,753	-0,161	-0,113
-402,482	-200,000	-0,002	-0,088
-401,467	-200,000	-0,053	0,222
-400,452	-188,201	-0,138	-0,001
-399,438	402,971	0,095	-0,147
-398,423	-200,000	0,010	-0,100
-397,409	53,352	0,045	0,031
-396,394	110,195	-0,022	-0,019
-395,379	-74,813	-0,163	0,042
-394,365	-200,000	0,022	0,120
-393,350	-0,105	-0,129	-0,067
-392,336	416,453	-0,020	0,031
-391,321	134,591	-0,136	-0,129
-390,306	-151,774	0,028	-0,001
-389,292	-200,000	-0,031	0,169
-388,277	-200,000	0,005	0,130
-387,263	216,528	-0,147	0,171
-386,248	-200,000	0,066	0,247
-385,233	542,935	0,067	-0,117
-384,219	-126,557	-0,118	-0,013
-383,204	-149,832	0,082	0,005
-382,190	-200,000	0,025	-0,199
-381,175	-103,599	0,159	-0,027
-380,160	-33,044	0,141	-0,057
-379,146	19,456	0,137	0,080
-378,131	59,853	0,057	0,041
-377,117	-88,439	-0,077	0,017
-376,102	800,000	-0,045	0,094
-375,088	-166,698	-0,022	-0,001
-374,073	-200,000	0,000	0,037
-373,058	-42,268	0,051	-0,019
-372,044	17,717	0,064	0,037
-371,029	756,705	-0,027	-0,054
-370,015	800,000	-0,026	0,078
-369,000	715,541	0,017	0,032
-367,985	-200,000	0,031	-0,132
-366,971	269,955	0,052	-0,067
-365,956	-42,065	0,027	-0,010
-364,942	-61,126	-0,036	-0,011
-363,927	-126,344	-0,068	-0,007
-362,912	492,414	0,049	0,082
-361,898	260,450	-0,040	-0,051
-360,883	71,976	-0,064	0,049
-359,869	72,858	0,035	-0,027
-358,854	110,171	-0,042	-0,037
-357,839	800,000	0,015	-0,042
-356,825	152,150	0,067	0,067
-355,810	800,000	0,025	-0,068
-354,796	216,816	0,023	0,027
-353,781	800,000	-0,012	-0,033
-352,766	-68,177	-0,128	-0,036
-351,752	23,134	0,018	-0,011
-350,737	-9,967	0,130	0,063
-349,723	-158,777	-0,109	-0,004
-348,708	-200,000	0,000	0,042
-347,693	800,000	-0,038	-0,093
-346,679	96,214	-0,055	0,046
-345,664	-146,430	-0,096	-0,006
-344,650	-107,104	0,126	0,020
-343,635	-200,000	0,002	0,084
-342,620	634,299	-0,137	0,254
-341,606	10,364	0,152	0,084
-340,591	-200,000	0,002	0,042
-339,577	66,252	-0,090	-0,067
-338,562	-200,000	0,001	-0,096
-337,548	234,207	-0,012	0,015
-336,533	51,301	0,124	-0,086
-335,518	800,000	-0,026	-0,064
-334,504	403,795	0,080	-0,123
-333,489	145,809	0,054	-0,053
-332,475	800,000	0,074	-0,199
-331,460	145,823	-0,079	0,078
-330,445	38,746	0,049	0,032
-329,431	-200,000	-0,003	-0,034
-328,416	612,633	-0,053	-0,098
-327,402	163,520	0,060	0,062
-326,387	366,103	0,055	0,081
-325,372	800,000	0,017	-0,037
-324,358	193,387	-0,034	0,038
-323,343	412,492	0,039	-0,060
-322,329	4,172	0,108	0,058
-321,314	800,000	0,013	0,037
-320,299	-66,233	0,087	0,025
-319,285	26,615	-0,078	0,048
-318,270	60,392	-0,029	-0,021
-317,256	800,000	-0,024	0,049
-316,241	509,118	0,036	-0,062
-315,226	374,131	-0,019	0,028
-314,212	233,788	-0,030	-0,036
-313,197	202,459	0,002	-0,002
-312,183	-101,696	-0,051	-0,009
-311,168	160,051	-0,061	-0,062
-310,153	-12,806	-0,132	-0,063
-309,139	800,000	0,013	-0,028
-308,124	800,000	-0,033	-0,092
-307,110	-94,067	-0,048	-0,010
-306,095	-41,031	-0,051	-0,019
-305,080	-146,253	0,059	0,004
-304,066	-200,000	-0,001	-0,119
-303,051	800,000	-0,024	0,060
-302,037	-200,000	0,002	0,015
-301,022	-200,000	-0,028	-0,105
-300,008	59,803	-0,045	-0,032
-298,993	665,673	-0,086	0,162
-297,978	556,348	0,032	-0,056
-296,964	-200,000	-0,010	-0,083
-295,949	720,491	-0,070	-0,136
-294,935	800,000	0,034	-0,078
-293,920	-200,000	0,028	-0,154
-292,905	180,280	0,083	0,089
-291,891	3,410	0,181	-0,096
-290,876	-200,000	0,041	0,199
-289,862	800,000	-0,009	0,024
-288,847	183,558	-0,103	0,111
-287,832	-11,515	0,009	0,004
-286,818	526,357	-0,016	-0,027
-285,803	110,504	-0,016	0,014
-284,789	-94,103	0,098	-0,019
-283,774	-65,134	-0,077	0,023
-282,759	397,972	0,047	0,072
-281,745	-138,592	0,045	0,004
-280,730	-200,000	-0,012	0,082
-279,716	380,819	-0,095	-0,143
-278,701	-179,040	0,126	-0,002
-277,686	-200,000	-0,024	0,139
-276,672	-38,410	-0,048	-0,018
-275,657	513,268	-0,051	-0,087
-274,643	-200,000	-0,003	-0,013
-273,628	22,247	-0,092	-0,054
-272,613	94,026	-0,091	-0,075
-271,599	288,743	-0,023	-0,030
-270,584	43,888	0,068	-0,046
-269,570	137,995	-0,049	0,047
-268,555	-200,000	0,021	-0,069
-267,540	-200,000	0,003	0,016
-266,526	800,000	0,031	0,092
-265,511	123,781	-0,050	-0,045
-264,497	-200,000	-0,032	0,162
-263,482	394,711	0,045	0,068
-262,467	189,745	-0,031	0,034
-261,453	19,604	0,096	0,056
-260,438	565,950	-0,119	-0,211
-259,424	237,430	-0,017	-0,021
-258,409	151,148	0,090	-0,089
-257,395	-200,000	-0,002	-0,080
-256,380	-82,032	0,112	-0,026
-255,365	-23,729	-0,061	0,026
-254,351	-125,709	-0,028	-0,003
-253,336	-34,737	-0,087	-0,034
-252,322	-200,000	-0,012	-0,100
-251,307	60,742	0,013	0,009
-250,292	-14,457	-0,036	-0,017
-249,278	106,066	0,084	-0,072
-248,263	265,401	0,105	0,133
-247,249	-200,000	0,002	0,144
-246,234	528,540	-0,039	0,067
-245,219	651,017	-0,030	0,055
-244,205	-30,376	0,069	0,028
-243,190	658,106	-0,018	-0,034
-242,176	49,827	0,117	-0,080
-241,161	-200,000	0,004	0,021
-240,146	407,077	-0,043	0,067
-239,132	-200,000	-0,012	-0,055
-238,117	800,000	0,022	-0,058
-237,103	800,000	-0,054	-0,171
-236,088	431,527	-0,081	-0,128
-235,073	-93,424	0,141	0,028
-234,059	204,625	0,040	0,046
-233,044	-200,000	-0,045	0,191
-232,030	133,575	0,083	-0,078
-231,015	-9,604	0,070	-0,034
-230,000	-17,121	0,055	-0,025
-228,986	-200,000	-0,019	-0,105
-227,971	-140,997	0,117	0,009
-226,957	130,429	0,061	0,057
-225,942	-45,808	0,030	0,011
-224,927	800,000	0,031	0,094
-223,913	800,000	-0,062	-0,131
-222,898	111,809	0,077	0,068
-221,884	429,240	0,069	0,109
-220,869	-58,820	0,102	-0,032
-219,855	136,911	-0,096	0,091
-218,840	-200,000	0,034	0,145
-217,825	71,222	0,011	0,008
-216,811	-34,015	-0,118	0,047
-215,796	47,818	0,059	-0,040
-214,782	43,518	0,036	-0,024
-213,767	248,981	0,093	0,115
-212,752	541,219	0,085	0,148
-211,738	-200,000	0,040	0,132
-210,723	-200,000	0,047	-0,253
-209,709	800,000	-0,014	-0,044
-208,694	-22,275	-0,072	0,032
-207,679	42,430	-0,072	0,047
-206,665	126,155	-0,022	0,020
-205,650	168,694	0,034	0,035
-204,636	-200,000	-0,009	0,059
-203,621	-99,181	-0,074	0,013
-202,606	800,000	0,027	-0,063
-201,592	-200,000	-0,026	-0,108
-200,577	800,000	0,025	-0,072
-199,563	11,220	-0,033	-0,018
-198,548	377,224	0,032	-0,047
-197,533	167,861	0,030	0,031
-196,519	71,753	0,096	0,072
-195,504	228,195	-0,036	0,043
-194,490	-200,000	0,023	-0,146
-193,475	16,434	-0,061	0,035
-192,460	104,359	0,034	0,029
-191,446	249,842	-0,009	0,012
-190,431	92,374	0,095	0,077
-189,417	800,000	0,001	-0,004
-188,402	-152,681	-0,114	0,006
-187,387	265,859	-0,016	-0,020
-186,373	-109,380	-0,189	0,029
-185,358	26,707	0,103	0,063
-184,344	-179,929	0,142	0,002
-183,329	138,831	-0,064	0,061
-182,315	36,011	0,049	-0,031
-181,300	-200,000	-0,004	-0,035
-180,285	300,971	-0,054	0,072
-179,271	480,713	-0,034	-0,055
-178,256	164,572	-0,105	-0,108
-177,242	-200,000	-0,004	0,094
-176,227	14,206	0,002	-0,001
-175,212	11,875	-0,084	-0,047
-174,198	-200,000	0,002	0,024
-173,183	800,000	-0,056	-0,139
-172,169	-200,000	0,002	-0,031
-171,154	-111,003	0,030	0,004
-170,139	800,000	0,044	0,113
-169,125	-0,997	-0,033	0,017
-168,110	44,187	0,093	-0,062
-167,096	-55,007	-0,059	-0,019
-166,081	37,206	0,075	0,048
-165,066	-200,000	-0,020	-0,085
-164,052	238,068	0,051	0,061
-163,037	115,944	0,112	0,099
-162,023	20,599	0,146	-0,085
-161,008	-93,324	0,041	0,008
-159,993	20,335	-0,088	0,052
-158,979	190,599	-0,040	0,043
-157,964	-200,000	-0,021	-0,099
-156,950	33,533	-0,009	-0,006
-155,935	-121,006	-0,007	-0,001
-154,920	38,467	0,059	-0,038
-153,906	370,879	0,060	0,088
-152,891	30,615	0,123	-0,076
-151,877	-110,218	-0,147	-0,022
-150,862	-105,674	-0,074	-0,012
-149,847	-84,825	-0,146	-0,033
-148,833	-200,000	-0,012	-0,051
-147,818	800,000	-0,037	-0,102
-146,804	214,895	-0,073	0,084
-145,789	-20,418	-0,110	-0,049
-144,775	507,694	0,044	-0,073
-143,760	-132,420	-0,133	0,012
-142,745	-200,000	-0,022	-0,074
-141,731	185,725	0,039	0,043
-140,716	-78,474	0,092	-0,023
-139,702	-200,000	-0,007	0,105
-138,687	-200,000	-0,025	0,177
-137,672	-40,398	-0,140	0,052
-136,658	-200,000	-0,000	-0,025
-135,643	-106,927	-0,101	0,016
-134,629	-39,605	0,102	0,038
-133,614	800,000	0,050	0,106
-132,599	490,987	0,047	0,078
-131,585	-200,000	0,025	0,137
-130,570	30,355	-0,017	-0,010
-129,556	-101,120	-0,079	-0,014
-128,541	-20,575	-0,043	-0,019
-127,526	-31,545	0,123	0,050
-126,512	409,005	0,054	-0,083
-125,497	52,765	0,162	0,112
-124,483	-200,000	0,016	0,071
-123,468	800,000	0,016	0,038
-122,453	-6,103	-0,067	-0,033
-121,439	69,349	-0,080	-0,060
-120,424	-200,000	0,000	-0,025
-119,410	204,992	0,101	-0,113
-118,395	-47,270	-0,099	0,035
-117,380	-200,000	0,021	0,099
-116,366	67,013	0,103	-0,076
-115,351	48,421	0,042	-0,028
-114,337	-48,472	-0,055	-0,019
-113,322	-28,305	-0,060	0,025
-112,307	-2,522	0,091	0,046
-111,293	-200,000	-0,021	-0,091
-110,278	-124,293	0,024	-0,003
-109,264	490,746	-0,042	0,069
-108,249	800,000	0,037	0,080
-107,234	-12,824	0,071	-0,033
-106,220	13,239	0,129	0,072
-105,205	-200,000	-0,002	-0,008
-104,191	-200,000	0,009	0,038
-103,176	800,000	-0,016	-0,044
-102,162	4,992	-0,091	0,048
-101,147	433,364	0,023	-0,036
-100,132	-97,175	-0,047	0,009
-99,118	-33,301	0,092	0,037
-98,103	216,392	-0,019	0,022
-97,089	599,582	0,023	0,042
-96,074	331,311	0,049	0,068
-95,059	273,727	-0,090	-0,115
-94,045	800,000	0,031	-0,096
-93,030	96,793	0,118	-0,098
-92,016	17,628	-0,135	-0,077
-91,001	-173,026	-0,098	0,002
-89,986	-163,756	-0,096	-0,003
-88,972	-200,000	-0,007	0,090
-87,957	-200,000	-0,020	0,203
-86,943	800,000	-0,029	-0,068
-85,928	-91,516	-0,109	-0,022
-84,913	205,318	-0,078	-0,087
-83,899	576,732	0,090	0,159
-82,884	800,000	0,026	0,073
-81,870	666,683	0,030	0,056
-80,855	-200,000	-0,035	0,168
-79,840	46,040	0,026	0,017
-78,826	222,392	-0,071	-0,083
-77,811	42,864	0,051	0,034
-76,797	-200,000	0,007	-0,097
-75,782	-200,000	0,030	-0,240
-74,767	747,824	0,025	0,049
-73,753	-63,056	0,148	-0,044
-72,738	-49,130	0,130	0,045
-71,724	46,220	-0,023	-0,016
-70,709	30,412	-0,122	-0,075
-69,694	800,000	-0,049	0,112
-68,680	-200,000	-0,005	-0,025
-67,665	-133,741	0,070	0,006
-66,651	240,972	0,025	-0,030
-65,636	164,169	-0,032	0,033
-64,622	-52,521	0,073	0,024
-63,607	55,171	-0,054	-0,038
-62,592	43,024	0,133	-0,088
-61,578	-101,099	0,028	0,005
-60,563	-200,000	0,007	-0,048
-59,549	-101,725	-0,093	0,016
-58,534	-42,529	-1,752	-0,641
-57,519	800,000	-0,464	-1,226
-56,505	-200,000	-1,131	-4,633
-55,490	-149,249	0,616	0,035
-54,476	800,000	5,268	12,155
-53,461	-200,000	15,843	278,743
-52,446	-200,000	702,368	2249,713
-51,432	566,070	1618,524	2846,193
-50,417	122,156	1622,683	1463,075
-49,403	82,985	1283,850	1007,414
-48,388	36,971	1028,230	655,307
-47,373	21,546	990,216	580,063
-46,359	20,514	978,768	569,933
-45,344	18,717	974,833	561,710
-44,330	18,817	973,301	561,132
-43,315	18,572	971,663	559,362
-42,300	18,498	970,745	558,568
-41,286	18,534	969,735	558,086
-40,271	18,537	968,540	557,383
-39,257	18,530	967,724	556,869
-38,242	18,529	966,889	556,362
-37,227	18,503	966,434	555,995
-36,213	18,523	965,511	555,507
-35,198	18,456	964,734	554,821
-34,184	18,562	963,686	554,540
-33,169	18,456	962,961	553,755
-32,154	18,528	962,105	553,477
-31,140	18,514	961,119	552,841
-30,125	18,530	960,545	552,542
-29,111	18,502	959,763	551,977
-28,096	18,502	958,997	551,515
-27,082	18,522	958,466	551,253
-26,067	18,472	957,661	550,606
-25,052	18,506	956,821	550,211
-24,038	18,530	956,047	549,821
-23,023	18,469	955,371	549,216
-22,009	18,532	954,664	548,988
-20,994	18,542	953,879	548,549
-19,979	18,512	953,488	548,204
-18,965	18,499	952,928	547,821
-17,950	18,495	952,248	547,396
-16,936	18,448	951,674	546,892
-15,921	18,443	951,063	546,503
-14,906	18,388	950,259	545,842
-13,892	18,352	949,698	545,383
-12,877	18,279	949,181	544,832
-11,863	18,323	948,303	544,446
-10,848	18,330	947,692	544,095
-9,833	18,452	947,268	544,220
-8,819	18,374	946,577	543,553
-7,804	18,391	945,901	543,198
-6,790	18,348	945,475	542,795
-5,775	18,428	944,759	542,617
-4,760	18,441	944,060	542,235
-3,746	18,399	943,403	541,704
-2,731	18,292	942,757	540,972
-1,717	18,173	942,142	540,218
-0,702	18,200	941,462	539,893
0,313	18,034	940,834	539,822
1,327	21,144	939,094	548,623
2,342	30,277	796,637	489,735
3,356	27,395	449,644	272,069
4,371	-2,400	295,702	149,020
5,386	-6,722	277,010	135,475
6,400	-7,810	271,210	131,611
7,415	-8,338	268,909	129,995
8,429	-8,183	267,573	129,480
9,444	-8,106	266,692	129,112
10,459	-8,107	266,051	128,790
11,473	-8,214	265,363	128,348
12,488	-8,291	265,007	128,093
13,502	-8,558	264,489	127,589
14,517	-8,524	263,870	127,310
15,531	-8,239	263,568	127,411
16,546	-8,173	263,090	127,228
17,561	-8,260	262,864	127,030
18,575	-8,137	262,354	126,882
19,590	-8,233	262,089	126,656
20,604	-8,480	261,992	126,376
21,619	-8,423	261,621	126,236
22,634	-8,230	260,974	126,086
23,648	-8,606	260,911	125,708
24,663	-8,498	260,724	125,703
25,677	-8,430	260,317	125,557
26,692	-8,410	260,022	125,421
27,707	-8,582	259,816	125,157
28,721	-8,503	259,555	125,091
29,736	-8,381	259,174	125,004
30,750	-8,647	259,018	124,682
31,765	-8,381	258,850	124,826
32,780	-8,568	258,651	124,552
33,794	-8,657	258,441	124,361
34,809	-8,482	258,032	124,309
35,823	-8,634	257,874	124,087
36,838	-8,512	257,611	124,057
37,853	-8,624	257,399	123,844
38,867	-8,834	257,226	123,565
39,882	-8,626	256,914	123,588
40,896	-8,598	256,697	123,497
41,911	-8,478	256,441	123,468
42,926	-8,562	256,136	123,237
43,940	-8,671	255,957	123,044
44,955	-8,811	255,804	122,836
45,969	-8,759	255,560	122,754
46,984	-8,990	255,284	122,408
47,999	-9,195	254,989	122,076
49,013	-9,249	254,665	121,864
50,028	-9,118	254,265	121,775
51,042	-9,232	254,148	121,609
52,057	-9,505	253,984	121,281
53,071	-9,284	253,723	121,338
54,086	-9,313	253,730	121,305
55,101	-9,274	253,572	121,254
56,115	-8,870	253,368	121,496
57,130	-8,401	253,232	121,826
58,144	-8,165	253,023	121,920
59,159	-8,176	252,868	121,825
60,174	-8,321	252,744	121,629
61,188	-8,406	252,503	121,428
62,203	-8,320	252,181	121,337
63,217	-8,475	252,006	121,108
64,232	-8,305	251,819	121,155
65,247	-8,305	251,495	120,987
66,261	-8,487	251,334	120,743
67,276	-8,633	250,964	120,429
68,290	-8,835	250,877	120,202
69,305	-8,785	250,451	120,031
70,320	-9,015	250,536	119,864
71,334	-8,652	250,376	120,088
72,349	-8,221	250,014	120,271
73,363	-8,218	249,927	120,222
74,378	-8,377	249,757	119,994
75,393	-8,360	249,577	119,911
76,407	-8,625	249,508	119,641
77,422	-8,635	249,135	119,443
78,436	-8,567	249,021	119,435
79,451	-8,391	248,686	119,414
80,466	-8,460	248,379	119,197
81,480	-8,690	248,216	118,913
82,495	-8,672	248,040	118,833
83,509	-8,794	247,894	118,649
84,524	-8,754	247,647	118,555
85,539	-8,888	247,403	118,314
86,553	-8,879	247,247	118,236
87,568	-8,959	247,189	118,131
88,582	-8,797	246,859	118,099
89,597	-8,766	246,653	118,015
90,611	-8,703	246,609	118,038
91,626	-8,537	246,495	118,112
92,641	-8,664	246,336	117,918
93,655	-8,533	245,997	117,856
94,670	-8,672	245,956	117,709
95,684	-8,563	245,566	117,603
96,699	-8,653	245,493	117,482
97,714	-8,739	245,278	117,297
98,728	-8,760	245,091	117,179
99,743	-8,924	244,717	116,853
100,757	-8,988	244,690	116,776
101,772	-8,944	244,432	116,680
102,787	-8,749	244,201	116,721
103,801	-8,800	244,201	116,668
104,816	-8,880	244,148	116,566
105,830	-8,385	243,859	116,830
106,845	-8,570	243,768	116,622
107,860	-8,557	243,448	116,468
108,874	-8,551	243,216	116,352
109,889	-8,726	243,028	116,107
110,903	-8,747	242,900	116,018
111,918	-8,747	242,622	115,875
112,933	-8,666	242,571	115,908
113,947	-8,553	242,398	115,908
114,962	-8,570	242,149	115,765
115,976	-8,567	242,057	115,713
116,991	-8,771	241,968	115,492
118,006	-8,529	241,670	115,538
119,020	-8,631	241,566	115,394
120,035	-8,474	241,393	115,430
121,049	-8,455	241,271	115,377
122,064	-8,427	241,084	115,301
123,079	-8,453	240,604	115,039
124,093	-8,830	240,598	114,717
125,108	-8,801	240,396	114,635
126,122	-8,787	240,097	114,493
127,137	-9,105	239,931	114,144
128,151	-9,066	239,824	114,115
129,166	-8,875	239,650	114,178
130,181	-8,849	239,535	114,134
131,195	-8,957	239,251	113,900
132,210	-8,717	239,144	114,035
133,224	-8,541	239,004	114,101
134,239	-8,595	238,918	114,006
135,254	-8,546	238,692	113,927
136,268	-8,810	238,542	113,632
137,283	-8,920	238,232	113,385
138,297	-8,836	237,932	113,300
139,312	-9,073	237,819	113,044
140,327	-8,820	237,796	113,227
141,341	-8,201	237,755	113,699
142,356	-8,205	237,654	113,637
143,370	-8,175	237,493	113,574
144,385	-8,260	237,343	113,424
145,400	-8,288	237,069	113,260
146,414	-8,167	236,881	113,257
147,429	-8,232	236,735	113,125
148,443	-8,244	236,482	112,985
149,458	-8,182	236,287	112,931
150,473	-8,294	236,093	112,739
151,487	-8,169	235,980	112,775
152,502	-8,517	235,908	112,452
153,516	-8,191	235,659	112,584
154,531	-8,222	235,475	112,461
155,546	-8,271	235,367	112,361
156,560	-8,373	235,266	112,220
157,575	-8,675	234,930	111,810
158,589	-8,355	234,713	111,951
159,604	-8,058	234,689	112,166
160,619	-7,974	234,525	112,145
161,633	-8,293	234,447	111,844
162,648	-8,268	234,214	111,742
163,662	-8,042	234,092	111,854
164,677	-8,268	233,934	111,589
165,692	-8,248	233,783	111,522
166,706	-8,139	233,718	111,568
167,721	-8,256	233,538	111,380
168,735	-8,233	233,419	111,331
169,750	-8,015	233,063	111,324
170,764	-8,386	233,063	111,021
171,779	-8,267	233,051	111,099
172,794	-8,366	232,990	110,982
173,808	-8,347	232,471	110,740
174,823	-8,744	232,121	110,251
175,837	-8,708	231,853	110,142
176,852	-8,496	232,095	110,414
177,867	-8,334	231,886	110,432
178,881	-8,035	231,691	110,564
179,896	-7,894	231,538	110,592
180,910	-8,013	231,453	110,448
181,925	-8,130	231,299	110,273
182,940	-8,263	231,150	110,088
183,954	-8,130	231,022	110,121
184,969	-7,929	230,924	110,222
185,983	-8,187	230,889	109,994
186,998	-7,961	230,632	110,038
188,013	-7,752	230,373	110,068
189,027	-8,011	230,244	109,794
190,042	-8,027	230,115	109,710
191,056	-8,022	229,942	109,622
192,071	-7,977	229,839	109,598
193,086	-8,115	229,577	109,356
194,100	-8,002	229,427	109,362
195,115	-8,105	229,094	109,114
196,129	-8,247	229,162	109,027
197,144	-3,581	230,623	113,350
198,159	1,526	232,036	118,028
199,173	3,375	232,513	119,707
200,188	3,327	232,522	119,663
201,202	3,461	232,355	119,671
202,217	3,580	232,310	119,730
203,232	3,790	232,301	119,878
204,246	4,016	231,988	119,883
205,261	4,044	231,875	119,835
206,275	4,222	231,818	119,934
207,290	4,159	231,670	119,797
208,304	4,305	231,530	119,828
209,319	4,142	231,283	119,563
210,334	4,086	230,970	119,347
211,348	3,878	230,918	119,148
212,363	3,546	230,500	118,665
213,377	3,183	230,360	118,302
214,392	3,224	230,113	118,196
215,407	3,492	230,064	118,367
216,421	3,379	230,047	118,260
217,436	3,408	229,768	118,129
218,450	3,079	229,607	117,782
219,465	3,183	229,444	117,768
220,480	3,172	229,346	117,699
221,494	3,092	229,177	117,540
222,509	3,372	229,012	117,660
223,523	3,401	228,916	117,623
224,538	3,060	228,676	117,227
225,553	3,185	228,595	117,272
226,567	3,386	228,525	117,379
227,582	3,620	228,366	117,466
228,596	3,729	228,331	117,520
229,611	3,767	228,027	117,383
230,626	3,164	227,801	116,796
231,640	3,177	227,584	116,684
232,655	3,526	227,544	116,919
233,669	4,090	227,495	117,313
234,684	4,199	227,462	117,368
235,699	3,588	227,393	116,858
236,713	3,519	226,993	116,589
237,728	3,686	226,698	116,554
238,742	3,523	226,605	116,372
239,757	3,384	226,551	116,228
240,772	3,301	226,407	116,081
241,786	3,174	226,330	115,935
242,801	3,397	226,163	116,008
243,815	4,030	225,997	116,391
244,830	3,950	225,890	116,265
245,844	3,499	225,742	115,838
246,859	3,425	225,565	115,681
247,874	3,581	225,438	115,724
248,888	3,465	225,358	115,584
249,903	3,738	225,090	115,642
250,917	3,442	225,041	115,384
251,932	3,300	224,726	115,105
252,947	3,272	224,538	114,978
253,961	3,231	224,305	114,818
254,976	3,361	224,233	114,869
255,990	3,573	224,245	115,023
257,005	3,653	224,113	115,005
258,020	3,461	224,071	114,829
259,034	3,719	223,905	114,927
260,049	3,665	223,639	114,740
261,063	3,765	223,538	114,752
262,078	3,682	223,446	114,633
263,093	3,920	223,263	114,706
264,107	3,568	223,141	114,371
265,122	3,510	223,052	114,272
266,136	3,826	223,014	114,478
267,151	3,773	222,672	114,253
268,166	3,325	222,561	113,853
269,180	3,260	222,113	113,565
270,195	3,438	222,004	113,632
271,209	3,366	221,999	113,565
272,224	3,312	221,918	113,474
273,239	3,516	221,788	113,548
274,253	3,212	221,794	113,316
275,268	3,213	221,426	113,118
276,282	3,056	221,273	112,914
277,297	2,957	221,112	112,749
278,312	3,268	220,926	112,873
279,326	3,251	221,040	112,910
280,341	3,423	220,726	112,866
281,355	3,513	220,581	112,847
282,370	3,447	220,397	112,694
283,384	3,297	220,236	112,492
284,399	2,951	220,058	112,137
285,414	3,200	219,842	112,199
286,428	3,214	219,964	112,262
287,443	3,362	219,789	112,271
288,457	3,659	219,664	112,414
289,472	3,374	219,466	112,095
290,487	3,201	219,169	111,807
291,501	2,896	218,977	111,476
292,516	3,138	219,003	111,656
293,530	3,196	218,837	111,604
294,545	2,998	218,711	111,385
295,560	3,241	218,619	111,506
296,574	3,183	218,511	111,398
297,589	3,299	218,433	111,433
298,603	3,471	218,249	111,454
299,618	3,452	218,151	111,380
300,633	3,153	218,057	111,106
301,647	3,633	217,763	111,294
302,662	3,502	217,910	111,264
303,676	3,574	217,621	111,159
304,691	3,729	217,421	111,159
305,706	3,525	217,377	110,979
306,720	3,441	217,179	110,807
307,735	3,375	216,885	110,600
308,749	3,393	216,783	110,551
309,764	3,278	216,707	110,419
310,779	3,342	216,735	110,470
311,793	3,619	216,493	110,536
312,808	3,205	216,433	110,197
313,822	3,553	216,113	110,274
314,837	3,412	215,915	110,063
315,852	3,346	215,882	109,989
316,866	3,498	215,715	110,003
317,881	3,580	215,734	110,062
318,895	3,683	215,433	109,972
319,910	3,497	215,400	109,812
320,925	3,157	215,050	109,381
321,939	2,792	214,943	109,055
322,954	2,848	214,874	109,051
323,968	3,323	214,815	109,351
324,983	3,561	214,737	109,471
325,997	3,617	214,698	109,481
327,012	3,520	214,348	109,224
328,027	3,361	214,346	109,100
329,041	3,713	214,369	109,352
330,056	4,004	214,010	109,367
331,070	3,661	213,721	108,966
332,085	3,132	213,666	108,553
333,100	3,287	213,571	108,604
334,114	3,519	213,430	108,688
335,129	3,404	213,214	108,487
336,143	3,409	213,088	108,416
337,158	3,401	212,923	108,317
338,173	3,639	212,837	108,431
339,187	3,309	212,662	108,100
340,202	2,997	212,483	107,779
341,216	3,140	212,429	107,843
342,231	3,339	212,251	107,884
343,246	3,063	212,118	107,612
344,260	3,262	212,012	107,688
345,275	3,237	211,890	107,599
346,289	3,366	211,801	107,635
347,304	3,566	211,755	107,743
348,319	3,480	211,505	107,546
349,333	3,352	211,265	107,324
350,348	3,611	211,339	107,534
351,362	3,667	211,215	107,500
352,377	3,478	211,092	107,296
353,392	3,214	210,942	107,026
354,406	3,591	210,680	107,146
355,421	194,915	1343,060	1427,659
356,435	155,636	1481,067	1427,694
