DTS Sentinel unit serial number:	SN410029Multiplexer serial number:	ORYXHardware model number:	OX2-SRSoftware version number:	ORYX F/W v4,00 Oryx Data Collector v3.7.2.0data status	okinstallation	B6 Nyhavnadifferential loss correction	single-endedforward channel	channel 2reverse channel	N/Adate	2023/12/09time	10:30:08forward acquisition time	300,00reverse acquisition time	0,00gamma	499,1914k internal	0,3139k external	0,3139temperature offset calibration	1,0000default loss term (dB/km)	0,3820temperature slope calibration	1,0000multiplexer offset coefficient	1,0000multiplexer slope coefficient	1,0000fibre end	0,00T internal ref (°C)	18,56T ext. ref 1 (°C)	2,33T ext. ref 2 (°C)	2,34length (m)	temperature (°C)	Stokes	anti-Stokes-744,400	407,254	0,045	0,071
-743,385	800,000	-0,066	0,140
-742,371	66,226	-0,065	0,049
-741,356	-162,087	-0,163	-0,006
-740,342	-109,995	0,034	-0,005
-739,327	-100,674	-0,202	0,037
-738,312	-74,842	0,103	0,027
-737,298	-165,464	-0,389	-0,012
-736,283	-24,382	0,200	-0,088
-735,269	-174,744	-0,172	0,004
-734,254	-132,383	0,057	-0,005
-733,239	18,089	-0,389	-0,229
-732,225	-153,770	0,227	-0,011
-731,210	95,944	0,077	0,065
-730,196	-200,000	-0,002	0,082
-729,181	45,211	-0,097	-0,066
-728,167	800,000	0,031	-0,067
-727,152	-124,416	-0,091	-0,010
-726,137	225,644	-0,071	-0,086
-725,123	800,000	-0,047	-0,151
-724,108	45,805	0,025	-0,017
-723,094	-98,139	-0,217	0,041
-722,079	26,053	-0,045	0,028
-721,064	585,872	-0,005	0,008
-720,050	-9,997	-0,061	-0,030
-719,035	-120,506	0,085	0,011
-718,021	30,492	-0,169	-0,107
-717,006	20,553	-0,112	-0,067
-715,991	383,115	-0,082	-0,125
-714,977	117,500	0,086	-0,079
-713,962	-200,000	-0,065	-0,275
-712,948	670,582	-0,038	-0,073
-711,933	176,094	-0,016	-0,018
-710,918	-107,997	-0,109	-0,017
-709,904	-200,000	0,013	-0,140
-708,889	144,329	-0,052	0,051
-707,875	-10,208	-0,094	0,046
-706,860	800,000	0,041	-0,088
-705,845	800,000	-0,011	0,031
-704,831	-200,000	-0,017	-0,080
-703,816	-84,533	0,134	-0,031
-702,802	-200,000	0,012	0,042
-701,787	-200,000	0,029	-0,148
-700,772	-27,938	-0,099	0,042
-699,758	333,778	-0,092	-0,133
-698,743	-200,000	0,029	-0,104
-697,729	560,047	-0,038	-0,068
-696,714	4,444	-0,157	-0,085
-695,699	15,958	-0,089	0,052
-694,685	800,000	-0,045	-0,103
-693,670	41,881	-0,040	0,027
-692,656	-138,320	-0,124	-0,010
-691,641	40,567	-0,074	0,050
-690,627	25,132	-0,106	-0,065
-689,612	-200,000	-0,015	0,078
-688,597	800,000	0,024	0,076
-687,583	221,568	0,051	-0,061
-686,568	800,000	-0,071	-0,171
-685,554	356,361	0,064	-0,094
-684,539	4,359	0,036	0,020
-683,524	800,000	0,012	-0,031
-682,510	-62,720	-0,069	-0,021
-681,495	3,572	-0,086	0,046
-680,481	-200,000	-0,008	-0,169
-679,466	50,456	-0,123	-0,086
-678,451	72,192	-0,175	-0,135
-677,437	-5,793	0,063	-0,032
-676,422	800,000	-0,012	-0,027
-675,408	128,654	0,028	0,026
-674,393	-49,506	-0,034	0,012
-673,378	-53,059	-0,029	-0,010
-672,364	-200,000	-0,009	-0,046
-671,349	-52,393	0,081	-0,028
-670,335	8,521	-0,019	-0,011
-669,320	189,968	0,085	-0,094
-668,305	435,319	0,084	-0,135
-667,291	800,000	0,032	-0,067
-666,276	-49,049	0,052	0,018
-665,262	102,347	-0,113	-0,098
-664,247	417,847	-0,064	-0,101
-663,232	227,657	0,100	-0,121
-662,218	413,471	-0,039	-0,061
-661,203	214,687	-0,073	0,085
-660,189	800,000	0,028	-0,076
-659,174	-200,000	0,013	0,099
-658,159	-96,646	-0,136	0,026
-657,145	800,000	-0,036	-0,098
-656,130	272,783	0,086	0,113
-655,116	-200,000	-0,005	-0,031
-654,101	-200,000	0,007	0,085
-653,086	-88,458	0,046	0,010
-652,072	-194,619	-0,090	0,001
-651,057	-200,000	-0,079	0,000
-650,043	13,948	0,100	-0,058
-649,028	-182,804	-0,134	-0,002
-648,014	800,000	-0,008	-0,018
-646,999	800,000	0,030	-0,083
-645,984	-200,000	0,025	0,155
-644,970	-200,000	0,044	-0,164
-643,955	-200,000	-0,001	-0,119
-642,941	-155,826	0,047	-0,002
-641,926	800,000	0,029	-0,082
-640,911	800,000	-0,014	-0,039
-639,897	800,000	0,036	0,081
-638,882	-125,746	0,048	0,005
-637,868	5,101	-0,094	-0,051
-636,853	-200,000	0,029	-0,112
-635,838	317,368	-0,087	-0,122
-634,824	800,000	-0,037	0,093
-633,809	409,113	-0,063	-0,098
-632,795	-76,626	-0,088	0,023
-631,780	309,497	0,037	0,051
-630,765	-38,819	-0,161	-0,062
-629,751	-24,952	0,056	0,024
-628,736	93,007	0,085	-0,071
-627,722	285,696	0,030	0,040
-626,707	-200,000	-0,003	-0,067
-625,692	186,277	0,065	0,071
-624,678	-54,292	-0,038	-0,013
-623,663	163,043	0,089	-0,093
-622,649	12,398	-0,044	0,025
-621,634	-200,000	-0,004	0,016
-620,619	354,401	0,064	-0,094
-619,605	-65,935	0,029	0,009
-618,590	800,000	0,035	0,081
-617,576	-200,000	-0,011	0,142
-616,561	-23,671	0,054	-0,024
-615,546	-200,000	-0,031	-0,164
-614,532	-137,264	-0,077	0,006
-613,517	-200,000	0,014	-0,114
-612,503	800,000	-0,008	-0,022
-611,488	44,937	-0,079	0,054
-610,474	-44,211	-0,015	-0,006
-609,459	-105,659	0,075	-0,012
-608,444	63,144	-0,072	-0,053
-607,430	800,000	-0,050	-0,136
-606,415	-121,781	-0,041	0,005
-605,401	-104,811	-0,080	0,013
-604,386	800,000	0,084	0,224
-603,371	194,417	0,038	0,043
-602,357	97,342	-0,077	0,065
-601,342	148,236	0,064	0,064
-600,328	506,136	-0,042	-0,072
-599,313	-51,327	0,119	0,041
-598,298	-200,000	-0,032	-0,114
-597,284	-119,243	-0,055	-0,007
-596,269	115,822	-0,061	-0,055
-595,255	172,964	-0,031	-0,033
-594,240	-200,000	0,005	-0,080
-593,225	164,742	-0,090	-0,094
-592,211	-200,000	-0,032	-0,233
-591,196	-46,477	0,098	0,035
-590,182	426,200	0,051	0,082
-589,167	-200,000	0,011	0,038
-588,152	573,090	-0,051	0,092
-587,138	501,552	-0,094	0,160
-586,123	30,739	-0,047	-0,030
-585,109	-61,534	-0,043	0,013
-584,094	-140,196	-0,118	-0,009
-583,079	-81,718	-0,080	0,019
-582,065	208,132	-0,035	0,040
-581,050	206,861	0,037	-0,042
-580,036	-141,273	0,118	-0,009
-579,021	800,000	0,022	-0,061
-578,006	-96,847	-0,122	0,023
-576,992	-50,569	0,122	0,042
-575,977	-200,000	0,004	0,103
-574,963	800,000	0,023	0,049
-573,948	137,897	0,071	0,069
-572,934	106,184	-0,091	-0,079
-571,919	-103,720	-0,192	-0,033
-570,904	-3,844	-0,133	-0,068
-569,890	-73,599	-0,134	0,036
-568,875	800,000	-0,030	0,070
-567,861	800,000	0,020	0,049
-566,846	-200,000	0,002	-0,040
-565,831	418,607	0,069	-0,109
-564,817	-66,986	-0,122	0,035
-563,802	-200,000	0,001	-0,013
-562,788	736,016	0,080	-0,160
-561,773	-99,963	0,042	0,008
-560,758	800,000	-0,062	0,141
-559,744	-35,127	-0,044	-0,018
-558,729	-103,567	0,022	-0,004
-557,715	-200,000	0,010	-0,170
-556,700	35,570	0,075	-0,048
-555,685	-41,531	-0,016	0,006
-554,671	75,577	0,129	0,100
-553,656	41,603	0,212	-0,141
-552,642	800,000	0,019	0,061
-551,627	144,901	0,095	-0,094
-550,612	79,912	-0,023	0,018
-549,598	-66,738	-0,089	0,026
-548,583	-200,000	0,001	-0,048
-547,569	68,412	0,028	-0,021
-546,554	277,205	0,054	-0,071
-545,539	-89,293	0,080	-0,017
-544,525	-200,000	-0,007	0,144
-543,510	-200,000	-0,035	-0,197
-542,496	48,057	-0,050	-0,034
-541,481	788,417	0,101	-0,204
-540,466	138,084	-0,061	-0,058
-539,452	800,000	0,005	-0,013
-538,437	800,000	-0,025	0,069
-537,423	99,914	0,046	-0,039
-536,408	800,000	-0,022	-0,070
-535,393	413,117	-0,050	-0,078
-534,379	37,279	-0,111	-0,072
-533,364	-128,895	0,046	0,005
-532,350	329,230	0,062	0,089
-531,335	-200,000	-0,019	0,150
-530,321	-44,734	0,039	-0,014
-529,306	36,835	-0,149	-0,097
-528,291	447,793	0,101	-0,164
-527,277	-52,571	0,042	0,014
-526,262	800,000	0,024	-0,050
-525,248	-140,423	-0,097	0,007
-524,233	-200,000	0,011	-0,043
-523,218	800,000	-0,011	0,029
-522,204	-200,000	0,018	0,077
-521,189	25,772	-0,136	-0,083
-520,175	583,986	-0,081	-0,146
-519,160	800,000	0,024	-0,079
-518,145	10,956	0,009	-0,005
-517,131	-63,441	-0,012	-0,004
-516,116	-101,255	0,040	-0,007
-515,102	-200,000	0,004	0,049
-514,087	-90,666	-0,032	0,007
-513,072	-49,638	-0,092	-0,032
-512,058	439,030	-0,050	-0,080
-511,043	-200,000	0,009	-0,049
-510,029	-82,038	0,103	0,024
-509,014	-200,000	0,008	0,110
-507,999	-200,000	0,014	0,128
-506,985	61,325	0,046	0,033
-505,970	44,862	-0,116	0,078
-504,956	44,302	-0,076	0,051
-503,941	141,576	0,050	0,049
-502,926	-200,000	0,025	0,094
-501,912	19,385	0,015	0,009
-500,897	735,630	-0,005	0,010
-499,883	-200,000	0,007	-0,104
-498,868	187,064	-0,086	-0,094
-497,853	-200,000	-0,028	-0,107
-496,839	-182,216	0,145	0,002
-495,824	-117,306	0,109	0,014
-494,810	59,498	-0,084	0,061
-493,795	310,328	0,072	0,099
-492,781	13,093	0,033	-0,019
-491,766	800,000	-0,037	-0,083
-490,751	-34,813	-0,038	0,015
-489,737	-200,000	0,006	-0,113
-488,722	-19,761	0,163	0,074
-487,708	-96,473	0,140	-0,027
-486,693	-37,682	0,074	0,029
-485,678	453,104	0,008	-0,014
-484,664	153,661	0,040	0,040
-483,649	-86,933	-0,114	-0,025
-482,635	170,689	0,065	-0,068
-481,620	-200,000	0,002	0,013
-480,605	258,185	0,024	-0,030
-479,591	130,002	-0,039	-0,036
-478,576	-160,922	-0,043	-0,002
-477,562	-77,555	-0,078	-0,020
-476,547	-167,015	-0,085	-0,002
-475,532	-200,000	-0,021	-0,084
-474,518	-41,803	0,091	0,034
-473,503	800,000	-0,020	0,046
-472,489	-98,029	0,125	-0,023
-471,474	-116,534	0,164	0,022
-470,459	-200,000	0,021	-0,075
-469,445	64,317	0,030	0,022
-468,430	-0,224	-0,117	-0,061
-467,416	63,011	0,093	-0,068
-466,401	26,334	0,035	-0,021
-465,386	88,139	0,037	-0,030
-464,372	800,000	0,038	0,105
-463,357	-179,151	0,106	0,002
-462,343	-50,227	-0,090	0,031
-461,328	156,616	-0,089	-0,091
-460,313	-40,792	0,043	-0,016
-459,299	639,904	-0,033	0,062
-458,284	-130,280	-0,085	-0,008
-457,270	-15,712	-0,097	-0,045
-456,255	-200,000	-0,013	-0,097
-455,241	800,000	-0,025	0,055
-454,226	-166,452	0,047	-0,001
-453,211	128,048	-0,048	-0,045
-452,197	347,882	0,011	0,017
-451,182	-200,000	0,035	0,166
-450,168	107,757	-0,093	-0,081
-449,153	-70,754	0,112	0,031
-448,138	800,000	-0,061	0,137
-447,124	453,041	-0,062	0,102
-446,109	-116,046	0,098	0,013
-445,095	-200,000	0,003	0,063
-444,080	-171,065	0,146	0,004
-443,065	131,322	-0,107	-0,101
-442,051	-29,136	-0,020	0,008
-441,036	356,076	-0,075	-0,110
-440,022	3,959	0,044	-0,023
-439,007	8,203	0,083	-0,046
-437,992	-200,000	0,002	0,056
-436,978	444,283	-0,023	0,037
-435,963	-167,364	0,060	0,002
-434,949	651,642	0,034	0,065
-433,934	800,000	-0,032	-0,076
-432,919	165,793	-0,103	0,107
-431,905	-200,000	0,017	0,066
-430,890	800,000	0,056	0,141
-429,876	3,039	0,108	-0,057
-428,861	299,015	0,043	0,058
-427,846	-160,144	-0,092	-0,004
-426,832	-200,000	-0,009	0,033
-425,817	189,916	-0,067	0,074
-424,803	543,559	0,060	0,106
-423,788	300,540	-0,003	0,004
-422,773	643,999	-0,052	-0,098
-421,759	137,636	-0,073	-0,070
-420,744	646,762	-0,073	-0,137
-419,730	53,982	0,027	0,019
-418,715	787,226	-0,025	-0,050
-417,701	537,654	-0,064	0,112
-416,686	-12,595	-0,068	0,033
-415,671	-120,789	0,103	0,013
-414,657	11,675	0,068	0,038
-413,642	-119,205	-0,127	0,016
-412,628	-4,540	0,139	0,070
-411,613	-200,000	-0,000	0,019
-410,598	556,221	-0,025	0,045
-409,584	-200,000	0,011	0,183
-408,569	82,278	-0,027	0,021
-407,555	-118,558	0,133	-0,017
-406,540	-56,790	0,003	0,001
-405,525	-125,984	0,099	-0,011
-404,511	-147,866	0,025	0,001
-403,496	706,189	0,031	-0,060
-402,482	-200,000	0,049	-0,226
-401,467	218,026	-0,053	-0,062
-400,452	-57,597	0,144	0,046
-399,438	-146,280	0,168	-0,011
-398,423	-36,041	-0,051	0,020
-397,409	-200,000	0,004	-0,030
-396,394	800,000	-0,062	0,168
-395,379	-200,000	-0,020	0,155
-394,365	800,000	0,032	0,088
-393,350	-200,000	-0,015	0,202
-392,336	-200,000	0,010	0,069
-391,321	-200,000	-0,015	-0,064
-390,306	236,547	0,067	-0,081
-389,292	91,868	0,051	-0,042
-388,277	-68,082	0,066	0,019
-387,263	-200,000	-0,003	-0,047
-386,248	-150,510	-0,086	0,005
-385,233	-79,214	0,090	0,022
-384,219	349,705	0,077	0,111
-383,204	-200,000	-0,022	0,075
-382,190	-200,000	0,044	0,149
-381,175	-188,246	0,119	0,001
-380,160	800,000	0,065	-0,163
-379,146	-130,333	0,096	0,009
-378,131	9,005	0,036	-0,020
-377,117	-109,224	-0,066	0,010
-376,102	360,315	-0,106	0,156
-375,088	176,604	-0,030	0,031
-374,073	128,315	0,031	-0,029
-373,058	399,004	0,097	-0,150
-372,044	800,000	0,017	0,039
-371,029	169,845	0,048	0,050
-370,015	800,000	0,008	-0,022
-369,000	-97,887	0,103	0,019
-367,985	-200,000	0,000	0,020
-366,971	800,000	-0,031	-0,071
-365,956	800,000	0,026	-0,053
-364,942	-200,000	-0,006	-0,073
-363,927	536,118	0,041	0,072
-362,912	619,922	-0,026	0,047
-361,898	800,000	0,027	-0,070
-360,883	-71,024	-0,034	0,009
-359,869	-93,370	-0,096	-0,019
-358,854	-200,000	0,025	0,121
-357,839	37,280	-0,097	-0,063
-356,825	411,751	0,046	-0,071
-355,810	-200,000	0,015	0,059
-354,796	-11,660	0,048	-0,023
-353,781	-200,000	0,022	-0,114
-352,766	800,000	-0,025	0,057
-351,752	-200,000	-0,010	-0,145
-350,737	180,399	0,048	0,052
-349,723	-200,000	0,016	0,061
-348,708	-200,000	0,029	0,125
-347,693	118,984	-0,066	0,059
-346,679	-200,000	-0,026	0,144
-345,664	-58,431	0,104	-0,033
-344,650	-200,000	0,025	-0,146
-343,635	434,816	0,083	0,133
-342,620	176,449	0,079	0,084
-341,606	-200,000	0,000	0,087
-340,591	67,033	0,120	0,089
-339,577	62,836	-0,141	0,103
-338,562	537,266	0,038	0,067
-337,548	134,378	0,032	-0,030
-336,533	45,342	-0,072	-0,049
-335,518	-111,093	-0,042	-0,006
-334,504	800,000	0,034	0,109
-333,489	-82,180	-0,168	-0,040
-332,475	-111,974	-0,068	0,010
-331,460	-200,000	0,002	-0,107
-330,445	-200,000	0,045	-0,147
-329,431	-200,000	-0,015	0,057
-328,416	615,145	0,067	-0,123
-327,402	-84,337	-0,112	0,026
-326,387	334,604	-0,034	0,047
-325,372	66,109	-0,072	-0,053
-324,358	800,000	0,044	0,120
-323,343	800,000	0,056	0,146
-322,329	91,176	0,025	0,021
-321,314	69,312	0,172	0,129
-320,299	76,010	-0,025	0,019
-319,285	275,002	-0,021	0,028
-318,270	800,000	0,034	0,109
-317,256	-74,890	-0,023	-0,006
-316,241	-143,862	-0,043	-0,003
-315,226	-200,000	0,032	0,138
-314,212	-118,618	-0,186	-0,024
-313,197	481,180	-0,030	0,050
-312,183	282,533	0,037	-0,049
-311,168	697,190	0,052	-0,099
-310,153	-200,000	0,014	-0,099
-309,139	-200,000	-0,030	0,102
-308,124	-181,748	0,110	0,002
-307,110	-133,965	0,089	-0,008
-306,095	-200,000	-0,019	0,081
-305,080	-200,000	0,002	-0,113
-304,066	14,858	0,033	-0,019
-303,051	-83,643	-0,126	-0,029
-302,037	496,227	-0,053	-0,089
-301,022	-200,000	-0,012	-0,129
-300,008	-200,000	0,005	0,029
-298,993	287,873	0,029	0,038
-297,978	-200,000	0,008	-0,040
-296,964	136,263	0,041	-0,039
-295,949	149,428	-0,064	-0,063
-294,935	478,322	-0,059	-0,098
-293,920	-66,237	0,064	0,018
-292,905	94,948	0,112	0,093
-291,891	-200,000	0,025	0,217
-290,876	-200,000	-0,015	0,066
-289,862	-71,830	0,033	-0,009
-288,847	183,338	-0,039	-0,042
-287,832	137,080	0,088	0,084
-286,818	-24,688	-0,023	0,010
-285,803	-136,390	0,118	-0,010
-284,789	-75,128	0,130	-0,034
-283,774	-19,276	-0,204	-0,092
-282,759	-75,681	-0,076	0,020
-281,745	-62,932	-0,038	-0,011
-280,730	441,131	-0,032	0,050
-279,716	-64,396	-0,136	0,040
-278,701	-200,000	0,025	0,134
-277,686	-200,000	0,054	0,183
-276,672	80,318	-0,097	0,076
-275,657	-159,730	-0,140	-0,006
-274,643	800,000	-0,049	-0,120
-273,628	446,957	0,006	-0,010
-272,613	46,810	0,082	0,055
-271,599	-200,000	-0,016	0,193
-270,584	-80,631	0,176	0,042
-269,570	720,450	-0,031	-0,061
-268,555	800,000	-0,031	0,091
-267,540	87,083	-0,058	0,047
-266,526	-192,761	-0,172	-0,001
-265,511	306,358	-0,080	-0,109
-264,497	60,212	0,102	-0,073
-263,482	-200,000	0,010	0,115
-262,467	71,720	0,085	-0,064
-261,453	-200,000	0,005	0,054
-260,438	-158,255	-0,006	-0,000
-259,424	-200,000	0,034	0,143
-258,409	116,111	-0,047	0,042
-257,395	-100,451	-0,085	-0,015
-256,380	800,000	0,072	-0,167
-255,365	-116,492	0,059	-0,008
-254,351	800,000	0,025	-0,054
-253,336	-61,627	-0,030	-0,009
-252,322	-185,851	-0,064	-0,001
-251,307	57,211	0,145	-0,103
-250,292	-94,570	-0,203	0,040
-249,278	-200,000	0,009	-0,041
-248,263	146,339	0,074	-0,073
-247,249	-122,138	-0,036	0,004
-246,234	259,957	-0,049	-0,062
-245,219	-200,000	-0,027	-0,143
-244,205	-89,343	-0,077	-0,016
-243,190	-112,773	0,061	0,009
-242,176	-48,601	-0,091	0,032
-241,161	-200,000	-0,009	0,099
-240,146	-200,000	-0,018	0,071
-239,132	574,215	0,065	-0,116
-238,117	-140,423	-0,193	-0,014
-237,103	293,649	0,031	0,041
-236,088	-200,000	-0,021	-0,148
-235,073	23,541	0,020	0,012
-234,059	800,000	-0,006	0,017
-233,044	322,954	-0,050	-0,070
-232,030	-77,021	0,159	0,040
-231,015	800,000	0,040	-0,106
-230,000	-39,956	-0,083	-0,031
-228,986	-99,992	0,135	0,024
-227,971	789,466	0,027	0,054
-226,957	800,000	-0,036	-0,080
-225,942	63,676	-0,002	0,002
-224,927	57,123	-0,012	-0,008
-223,913	672,529	-0,019	-0,035
-222,898	-4,316	-0,173	0,087
-221,884	219,985	-0,077	0,089
-220,869	800,000	-0,017	0,040
-219,855	800,000	0,034	0,094
-218,840	-200,000	-0,014	0,056
-217,825	157,709	-0,043	0,043
-216,811	-28,555	0,063	0,026
-215,796	800,000	0,014	-0,030
-214,782	-30,343	-0,043	0,017
-213,767	-200,000	0,016	-0,056
-212,752	-71,092	-0,039	0,010
-211,738	135,667	-0,060	0,057
-210,723	286,260	-0,019	0,025
-209,709	-200,000	0,004	-0,106
-208,694	800,000	-0,051	0,107
-207,679	197,479	0,071	0,079
-206,665	639,088	-0,037	0,068
-205,650	-130,948	0,114	-0,011
-204,636	-142,747	0,176	0,012
-203,621	-200,000	0,008	-0,102
-202,606	-200,000	0,005	0,023
-201,592	-187,921	0,103	0,001
-200,577	-200,000	-0,040	-0,169
-199,563	-200,000	-0,008	-0,053
-198,548	142,002	0,051	-0,049
-197,533	192,642	-0,095	0,104
-196,519	382,894	0,055	-0,083
-195,504	159,738	-0,035	0,035
-194,490	-112,747	-0,145	0,021
-193,475	272,901	-0,063	0,081
-192,460	-200,000	0,005	-0,052
-191,446	353,242	-0,055	-0,079
-190,431	800,000	0,036	0,075
-189,417	-200,000	0,017	0,171
-188,402	-83,528	-0,113	-0,026
-187,387	797,087	0,079	-0,159
-186,373	800,000	0,008	-0,026
-185,358	-50,202	-0,044	-0,015
-184,344	47,870	0,039	0,026
-183,329	32,291	0,034	-0,021
-182,315	78,310	-0,057	-0,044
-181,300	23,938	-0,125	0,075
-180,285	-200,000	0,012	-0,044
-179,271	-200,000	-0,020	-0,090
-178,256	29,087	-0,103	0,063
-177,242	158,181	-0,086	-0,087
-176,227	150,363	-0,093	0,092
-175,212	-200,000	-0,014	0,065
-174,198	141,932	0,101	0,097
-173,183	-51,497	0,029	-0,010
-172,169	-69,608	-0,076	-0,021
-171,154	-106,678	0,066	0,011
-170,139	85,622	0,069	0,055
-169,125	252,025	0,077	-0,095
-168,110	193,174	0,028	-0,031
-167,096	-65,185	0,096	0,028
-166,081	-37,316	-0,265	-0,102
-165,066	-200,000	-0,009	-0,177
-164,052	-34,223	0,078	-0,031
-163,037	10,635	0,125	-0,069
-162,023	38,776	-0,009	0,006
-161,008	385,880	0,014	0,021
-159,993	-200,000	0,018	0,132
-158,979	128,804	-0,050	0,047
-157,964	-25,194	-0,040	-0,017
-156,950	-200,000	0,018	-0,109
-155,935	800,000	0,013	-0,033
-154,920	-200,000	0,001	0,063
-153,906	143,867	0,073	0,071
-152,891	800,000	0,021	0,060
-151,877	800,000	0,022	-0,062
-150,862	240,071	-0,025	0,030
-149,847	633,056	0,039	0,072
-148,833	-24,067	0,175	0,075
-147,818	-200,000	0,006	-0,054
-146,804	726,842	-0,078	0,152
-145,789	422,295	0,065	0,102
-144,775	-88,513	0,112	0,024
-143,760	-200,000	-0,041	0,136
-142,745	800,000	-0,042	-0,116
-141,731	800,000	-0,041	-0,121
-140,716	463,043	-0,037	0,060
-139,702	800,000	0,049	0,123
-138,687	443,615	0,066	0,105
-137,672	-136,877	0,141	0,012
-136,658	482,660	-0,018	0,030
-135,643	325,476	0,049	-0,068
-134,629	-163,174	0,077	-0,003
-133,614	-200,000	-0,007	0,155
-132,599	705,915	-0,021	-0,040
-131,585	349,463	-0,062	-0,088
-130,570	-200,000	-0,033	0,123
-129,556	221,804	-0,025	-0,029
-128,541	800,000	0,034	-0,088
-127,526	320,495	0,042	-0,058
-126,512	219,604	0,104	-0,121
-125,497	800,000	-0,011	-0,031
-124,483	800,000	0,038	0,083
-123,468	800,000	-0,023	0,064
-122,453	-200,000	0,010	-0,081
-121,439	-200,000	-0,057	-0,194
-120,424	188,432	0,013	-0,014
-119,410	-95,664	0,139	-0,027
-118,395	800,000	-0,019	-0,043
-117,380	227,551	-0,042	0,050
-116,366	132,719	-0,115	0,107
-115,351	-200,000	0,028	-0,113
-114,337	166,296	0,032	0,033
-113,322	-89,226	0,064	-0,014
-112,307	-200,000	-0,006	-0,024
-111,293	256,937	-0,068	0,085
-110,278	-200,000	-0,001	0,020
-109,264	-65,219	0,074	0,021
-108,249	-134,601	-0,065	-0,006
-107,234	-200,000	-0,017	0,066
-106,220	-111,008	-0,030	-0,004
-105,205	-200,000	-0,003	-0,019
-104,191	102,254	0,050	0,042
-103,176	-24,369	0,189	0,081
-102,162	560,112	-0,075	-0,131
-101,147	800,000	0,030	0,082
-100,132	204,877	-0,065	0,073
-99,118	132,196	0,086	-0,080
-98,103	58,180	-0,110	0,078
-97,089	-64,986	-0,029	-0,009
-96,074	800,000	0,019	0,043
-95,059	-200,000	-0,011	-0,059
-94,045	-61,880	-0,099	0,030
-93,030	-200,000	0,017	0,107
-92,016	-55,147	-0,118	0,038
-91,001	-200,000	0,025	-0,105
-89,986	746,624	-0,052	0,102
-88,972	190,541	0,044	-0,048
-87,957	-109,835	0,067	0,010
-86,943	212,210	-0,038	-0,043
-85,928	-168,299	0,017	-0,000
-84,913	134,475	-0,037	0,035
-83,899	-118,183	0,015	0,002
-82,884	-51,609	0,070	-0,023
-81,870	-200,000	0,016	-0,130
-80,855	-54,155	0,033	-0,011
-79,840	-48,755	-0,071	-0,025
-78,826	26,888	0,069	0,042
-77,811	-200,000	-0,012	0,090
-76,797	-78,953	0,015	-0,004
-75,782	354,133	0,081	0,117
-74,767	18,092	0,064	0,037
-73,753	-35,731	0,059	0,023
-72,738	800,000	-0,065	-0,144
-71,724	41,958	-0,104	-0,068
-70,709	127,587	0,060	0,055
-69,694	94,736	0,024	0,020
-68,680	-200,000	0,009	0,049
-67,665	105,114	-0,011	0,009
-66,651	-17,817	0,049	0,022
-65,636	118,330	0,052	-0,047
-64,622	119,313	-0,133	-0,118
-63,607	-100,995	-0,091	-0,016
-62,592	-92,409	-0,109	0,022
-61,578	397,102	-0,065	-0,098
-60,563	-15,376	0,098	-0,045
-59,549	-200,000	-0,000	0,049
-58,534	-33,373	-1,721	-0,684
-57,519	800,000	-0,555	-1,182
-56,505	-200,000	-1,042	-4,746
-55,490	-120,780	0,663	-0,080
-54,476	800,000	5,293	12,236
-53,461	-200,000	15,704	278,508
-52,446	-200,000	702,221	2248,311
-51,432	565,081	1618,601	2843,824
-50,417	121,647	1623,242	1460,936
-49,403	81,956	1283,963	1003,243
-48,388	36,850	1027,912	654,576
-47,373	21,601	989,842	579,926
-46,359	20,512	978,579	569,713
-45,344	18,842	974,396	561,767
-44,330	18,924	973,020	561,222
-43,315	18,661	971,411	559,410
-42,300	18,573	970,338	558,480
-41,286	18,573	969,491	557,971
-40,271	18,561	968,508	557,346
-39,257	18,627	967,607	557,018
-38,242	18,648	966,809	556,606
-37,227	18,597	965,949	555,924
-36,213	18,630	965,145	555,546
-35,198	18,575	964,255	554,832
-34,184	18,616	963,578	554,555
-33,169	18,546	962,706	553,804
-32,154	18,649	961,758	553,569
-31,140	18,588	960,823	552,812
-30,125	18,667	960,196	552,686
-29,111	18,617	959,337	552,007
-28,096	18,591	958,762	551,570
-27,082	18,596	957,851	551,039
-26,067	18,575	957,253	550,608
-25,052	18,596	956,367	550,144
-24,038	18,616	955,807	549,862
-23,023	18,559	955,070	549,234
-22,009	18,628	954,421	549,061
-20,994	18,654	953,875	548,810
-19,979	18,602	953,350	548,318
-18,965	18,614	952,531	547,862
-17,950	18,618	952,082	547,597
-16,936	18,545	951,529	547,023
-15,921	18,516	950,664	546,411
-14,906	18,469	949,985	545,849
-13,892	18,467	949,238	545,390
-12,877	18,424	948,668	544,903
-11,863	18,398	948,042	544,439
-10,848	18,453	947,518	544,292
-9,833	18,536	947,029	544,254
-8,819	18,545	946,408	543,907
-7,804	18,571	945,662	543,537
-6,790	18,472	945,267	542,974
-5,775	18,466	944,664	542,587
-4,760	18,495	944,124	542,348
-3,746	18,475	943,332	541,808
-2,731	18,408	942,552	541,124
-1,717	18,365	941,720	540,491
-0,702	18,304	941,277	540,020
0,313	18,090	940,672	539,809
1,327	21,150	938,935	548,451
2,342	30,046	796,565	488,989
3,356	27,210	449,444	271,622
4,371	-2,221	295,010	148,826
5,386	-6,288	276,218	135,475
6,400	-7,604	270,665	131,515
7,415	-8,017	268,178	129,914
8,429	-7,777	266,868	129,488
9,444	-8,016	266,143	128,906
10,459	-7,825	265,300	128,661
11,473	-7,956	264,805	128,289
12,488	-8,105	264,221	127,860
13,502	-8,132	263,677	127,560
14,517	-8,150	263,211	127,308
15,531	-8,128	262,790	127,113
16,546	-8,232	262,518	126,876
17,561	-8,185	262,043	126,677
18,575	-7,957	261,707	126,709
19,590	-8,189	261,385	126,333
20,604	-8,058	261,150	126,326
21,619	-8,224	260,661	125,929
22,634	-8,462	260,632	125,691
23,648	-8,139	260,104	125,714
24,663	-8,326	260,093	125,530
25,677	-8,147	259,631	125,456
26,692	-8,181	259,326	125,267
27,707	-8,295	259,188	125,088
28,721	-8,121	258,798	125,043
29,736	-8,237	258,543	124,806
30,750	-8,241	258,281	124,664
31,765	-8,368	258,052	124,430
32,780	-8,360	257,852	124,330
33,794	-8,237	257,552	124,283
34,809	-8,176	257,314	124,211
35,823	-8,324	257,244	124,035
36,838	-8,473	256,936	123,744
37,853	-8,593	256,713	123,519
38,867	-8,310	256,214	123,517
39,882	-8,233	256,183	123,559
40,896	-8,450	256,026	123,282
41,911	-8,522	255,822	123,110
42,926	-8,570	255,684	122,990
43,940	-8,431	255,335	122,933
44,955	-8,363	254,974	122,808
45,969	-8,558	254,742	122,515
46,984	-8,579	254,481	122,360
47,999	-9,106	254,353	121,828
49,013	-9,104	254,074	121,686
50,028	-9,286	253,831	121,399
51,042	-9,173	253,539	121,347
52,057	-9,397	253,454	121,101
53,071	-9,198	253,256	121,168
54,086	-9,232	252,969	120,990
55,101	-9,067	252,839	121,061
56,115	-8,591	252,658	121,376
57,130	-8,488	252,819	121,532
58,144	-8,107	252,489	121,692
59,159	-8,012	252,370	121,705
60,174	-7,962	251,985	121,552
61,188	-8,255	251,985	121,288
62,203	-8,262	251,587	121,080
63,217	-8,326	251,466	120,956
64,232	-8,130	251,136	120,955
65,247	-8,260	250,951	120,743
66,261	-8,179	250,722	120,692
67,276	-8,545	250,478	120,250
68,290	-8,703	250,190	119,966
69,305	-8,944	249,912	119,616
70,320	-8,772	249,890	119,742
71,334	-8,551	249,773	119,863
72,349	-8,259	249,590	120,014
73,363	-8,090	249,248	119,983
74,378	-8,018	249,060	119,943
75,393	-8,398	248,995	119,577
76,407	-8,352	248,816	119,520
77,422	-8,401	248,636	119,381
78,436	-8,100	248,340	119,484
79,451	-8,218	248,092	119,254
80,466	-8,435	247,848	118,942
81,480	-8,577	247,737	118,758
82,495	-8,528	247,347	118,603
83,509	-8,252	247,165	118,738
84,524	-8,522	247,071	118,453
85,539	-8,645	246,890	118,253
86,553	-8,800	246,692	118,017
87,568	-8,536	246,411	118,093
88,582	-8,552	246,271	118,003
89,597	-8,588	246,004	117,834
90,611	-8,514	245,990	117,879
91,626	-8,378	246,000	117,988
92,641	-8,353	245,695	117,852
93,655	-8,402	245,409	117,663
94,670	-8,417	245,076	117,480
95,684	-8,445	244,906	117,365
96,699	-8,395	244,850	117,369
97,714	-8,587	244,660	117,108
98,728	-8,394	244,342	117,106
99,743	-8,729	244,292	116,791
100,757	-8,718	244,057	116,678
101,772	-8,774	243,915	116,554
102,787	-8,678	243,629	116,486
103,801	-8,818	243,721	116,403
104,816	-8,595	243,378	116,414
105,830	-8,219	243,279	116,669
106,845	-8,160	243,070	116,607
107,860	-8,407	242,867	116,295
108,874	-8,426	242,675	116,176
109,889	-8,299	242,365	116,123
110,903	-8,406	242,277	115,982
111,918	-8,651	242,219	115,741
112,933	-8,480	241,952	115,745
113,947	-8,482	241,745	115,634
114,962	-8,344	241,604	115,669
115,976	-8,400	241,444	115,537
116,991	-8,398	241,438	115,525
118,006	-8,360	241,066	115,368
119,020	-8,330	240,941	115,323
120,035	-8,393	240,846	115,215
121,049	-8,244	240,640	115,228
122,064	-8,302	240,453	115,081
123,079	-8,375	240,296	114,935
124,093	-8,543	240,001	114,647
125,108	-8,575	239,750	114,490
126,122	-8,829	239,523	114,165
127,137	-8,900	239,437	114,056
128,151	-8,835	239,272	114,020
129,166	-8,964	239,193	113,867
130,181	-8,732	238,797	113,857
131,195	-8,708	238,781	113,858
132,210	-8,598	238,610	113,856
133,224	-8,276	238,403	114,009
134,239	-8,437	238,371	113,853
135,254	-8,377	238,088	113,756
136,268	-8,518	237,898	113,541
137,283	-8,690	237,509	113,206
138,297	-8,898	237,409	112,980
139,312	-8,773	237,221	112,982
140,327	-8,446	237,163	113,208
141,341	-8,052	237,238	113,552
142,356	-8,079	237,166	113,485
143,370	-7,991	236,863	113,400
144,385	-7,930	236,722	113,373
145,400	-7,862	236,557	113,338
146,414	-7,900	236,266	113,157
147,429	-7,995	236,078	112,981
148,443	-8,217	235,993	112,753
149,458	-8,085	235,798	112,755
150,473	-8,122	235,712	112,675
151,487	-7,919	235,372	112,664
152,502	-7,972	235,356	112,604
153,516	-8,153	235,222	112,385
154,531	-8,119	234,992	112,292
155,546	-8,049	234,775	112,235
156,560	-8,053	234,633	112,154
157,575	-8,490	234,513	111,738
158,589	-8,281	234,398	111,840
159,604	-7,826	234,023	112,012
160,619	-7,782	234,075	112,062
161,633	-7,835	233,907	111,930
162,648	-7,771	233,517	111,784
163,662	-7,826	233,534	111,738
164,677	-8,155	233,291	111,352
165,692	-7,982	233,208	111,439
166,706	-7,833	233,051	111,472
167,721	-7,821	232,960	111,427
168,735	-7,724	232,822	111,428
169,750	-7,904	232,584	111,163
170,764	-7,955	232,497	111,071
171,779	-8,257	232,413	110,783
172,794	-7,819	232,166	111,000
173,808	-8,236	231,890	110,531
174,823	-8,632	231,604	110,074
175,837	-8,750	231,415	109,882
176,852	-8,281	231,417	110,240
177,867	-7,847	231,313	110,521
178,881	-7,878	231,241	110,452
179,896	-7,780	230,854	110,334
180,910	-7,736	230,805	110,335
181,925	-7,980	230,806	110,136
182,940	-8,010	230,632	110,019
183,954	-7,761	230,393	110,090
184,969	-7,692	230,356	110,116
185,983	-7,758	230,267	110,012
186,998	-7,777	230,029	109,874
188,013	-7,530	229,752	109,924
189,027	-7,666	229,620	109,745
190,042	-7,857	229,508	109,534
191,056	-7,781	229,356	109,511
192,071	-7,843	229,298	109,425
193,086	-7,900	229,081	109,267
194,100	-7,723	228,807	109,263
195,115	-7,758	228,715	109,183
196,129	-7,986	228,571	108,928
197,144	-3,659	230,117	113,020
198,159	1,473	231,610	117,750
199,173	3,251	231,890	119,268
200,188	3,513	231,827	119,429
201,202	3,587	231,759	119,441
202,217	3,800	231,667	119,549
203,232	3,892	231,487	119,517
204,246	4,103	231,361	119,605
205,261	4,184	231,302	119,627
206,275	4,408	231,111	119,691
207,290	4,436	230,971	119,629
208,304	4,238	230,827	119,390
209,319	4,280	230,691	119,342
210,334	4,305	230,374	119,186
211,348	4,041	230,232	118,899
212,363	3,440	230,003	118,306
213,377	3,311	229,762	118,073
214,392	3,217	229,666	117,940
215,407	3,599	229,407	118,090
216,421	3,670	229,220	118,039
217,436	3,571	229,124	117,902
218,450	3,273	228,868	117,531
219,465	3,254	228,827	117,485
220,480	3,303	228,587	117,389
221,494	3,293	228,592	117,373
222,509	3,487	228,520	117,474
223,523	3,349	228,293	117,242
224,538	3,490	228,020	117,199
225,553	3,513	227,989	117,190
226,567	3,679	227,857	117,239
227,582	3,733	227,889	117,285
228,596	3,647	227,703	117,114
229,611	3,607	227,493	116,965
230,626	3,196	227,333	116,559
231,640	3,175	227,183	116,457
232,655	3,665	226,986	116,717
233,669	4,069	226,994	117,018
234,684	4,073	226,760	116,890
235,699	3,804	226,701	116,645
236,713	3,480	226,503	116,287
237,728	3,399	226,170	116,044
238,742	3,454	225,977	115,977
239,757	3,394	225,908	115,886
240,772	3,475	225,642	115,800
241,786	3,241	225,605	115,594
242,801	3,611	225,507	115,812
243,815	3,737	225,390	115,837
244,830	3,949	225,191	115,884
245,844	3,621	225,026	115,542
246,859	3,632	224,798	115,423
247,874	3,716	224,712	115,431
248,888	3,834	224,756	115,533
249,903	3,332	224,603	115,066
250,917	3,593	224,347	115,121
251,932	3,514	224,156	114,953
252,947	3,391	223,971	114,756
253,961	3,582	223,790	114,797
254,976	3,357	223,647	114,544
255,990	3,581	223,726	114,742
257,005	3,805	223,387	114,725
258,020	3,549	223,552	114,608
259,034	3,795	223,228	114,616
260,049	3,857	222,989	114,529
261,063	3,582	222,917	114,277
262,078	3,756	222,804	114,339
263,093	4,102	222,686	114,525
264,107	3,642	222,485	114,069
265,122	3,854	222,319	114,132
266,136	3,835	222,273	114,084
267,151	3,858	222,268	114,088
268,166	3,748	221,749	113,730
269,180	3,511	221,571	113,453
270,195	3,314	221,655	113,341
271,209	3,345	221,420	113,233
272,224	3,579	221,239	113,303
273,239	3,433	221,222	113,177
274,253	3,361	220,948	112,973
275,268	3,226	220,934	112,857
276,282	3,413	220,574	112,800
277,297	3,161	220,369	112,500
278,312	3,283	220,463	112,628
279,326	3,463	220,360	112,698
280,341	3,534	220,057	112,584
281,355	3,506	219,987	112,518
282,370	3,585	219,797	112,468
283,384	3,227	219,695	112,144
284,399	3,096	219,495	111,936
285,414	3,247	219,354	111,965
286,428	3,232	219,420	111,978
287,443	3,572	219,199	112,103
288,457	3,513	219,117	112,009
289,472	3,539	218,918	111,915
290,487	3,205	218,582	111,490
291,501	3,237	218,400	111,411
292,516	3,236	218,309	111,354
293,530	3,256	218,158	111,281
294,545	3,022	218,068	111,055
295,560	3,396	217,954	111,259
296,574	3,395	217,916	111,229
297,589	3,324	217,756	111,086
298,603	3,452	217,613	111,096
299,618	3,496	217,469	111,044
300,633	3,423	217,470	110,982
301,647	3,600	217,416	111,073
302,662	3,643	217,105	110,935
303,676	3,477	216,929	110,715
304,691	3,538	216,805	110,686
305,706	3,693	216,832	110,802
306,720	3,726	216,570	110,682
307,735	3,506	216,399	110,426
308,749	3,446	216,243	110,294
309,764	3,516	216,072	110,247
310,779	3,814	216,043	110,436
311,793	3,800	215,864	110,325
312,808	3,821	215,817	110,306
313,822	3,742	215,492	110,074
314,837	3,455	215,409	109,816
315,852	3,426	215,269	109,714
316,866	3,337	215,171	109,591
317,881	3,897	214,969	109,878
318,895	3,681	215,026	109,743
319,910	3,687	214,630	109,536
320,925	3,244	214,366	109,076
321,939	3,328	214,156	109,018
322,954	3,190	214,242	108,955
323,968	3,256	214,183	108,962
324,983	3,796	214,020	109,253
325,997	3,766	213,966	109,195
327,012	3,660	213,830	109,040
328,027	3,421	213,841	108,866
329,041	3,852	213,693	109,087
330,056	4,032	213,580	109,147
331,070	3,608	213,306	108,697
332,085	3,476	212,954	108,415
333,100	3,462	212,912	108,374
334,114	3,571	212,866	108,418
335,129	3,540	212,702	108,303
336,143	3,386	212,308	107,984
337,158	3,419	212,433	108,061
338,173	3,181	212,169	107,750
339,187	3,064	212,144	107,645
340,202	3,313	212,019	107,747
341,216	3,207	211,785	107,544
342,231	3,208	211,650	107,467
343,246	3,028	211,555	107,282
344,260	3,417	211,383	107,458
345,275	3,462	211,301	107,439
346,289	3,603	211,147	107,449
347,304	3,781	211,015	107,497
348,319	3,571	210,898	107,282
349,333	3,492	210,751	107,142
350,348	3,483	210,639	107,069
351,362	3,549	210,611	107,091
352,377	3,604	210,441	107,034
353,392	3,449	210,335	106,862
354,406	3,324	210,147	106,670
355,421	194,660	1342,165	1425,624
356,435	155,417	1480,108	1425,669
