DTS Sentinel unit serial number:	SN410029Multiplexer serial number:	ORYXHardware model number:	OX2-SRSoftware version number:	ORYX F/W v4,00 Oryx Data Collector v3.7.2.0data status	okinstallation	B6 Nyhavnadifferential loss correction	single-endedforward channel	channel 2reverse channel	N/Adate	2023/12/08time	07:15:08forward acquisition time	300,00reverse acquisition time	0,00gamma	499,1914k internal	0,3166k external	0,3166temperature offset calibration	1,0000default loss term (dB/km)	0,3820temperature slope calibration	1,0000multiplexer offset coefficient	1,0000multiplexer slope coefficient	1,0000fibre end	0,00T internal ref (°C)	13,12T ext. ref 1 (°C)	-3,43T ext. ref 2 (°C)	-3,42length (m)	temperature (°C)	Stokes	anti-Stokes-744,400	-75,677	0,151	0,039
-743,385	-106,789	-0,247	-0,040
-742,371	-200,000	0,028	0,136
-741,356	-83,022	-0,236	-0,056
-740,342	-27,218	0,197	0,084
-739,327	-196,432	-0,249	-0,001
-738,312	-200,000	-0,001	0,055
-737,298	-10,641	-0,301	-0,146
-736,283	-65,695	0,097	-0,028
-735,269	-44,375	-0,407	0,149
-734,254	46,525	0,107	0,073
-733,239	-58,136	-0,519	-0,165
-732,225	355,219	0,078	0,114
-731,210	-200,000	-0,028	0,152
-730,196	-76,044	-0,076	0,020
-729,181	-65,505	-0,048	-0,014
-728,167	139,799	-0,011	-0,011
-727,152	112,538	0,087	0,077
-726,137	-7,952	0,041	0,020
-725,123	746,280	0,012	0,024
-724,108	800,000	-0,053	-0,160
-723,094	148,702	-0,174	-0,173
-722,079	371,405	-0,046	-0,068
-721,064	-200,000	-0,017	-0,091
-720,050	41,879	-0,027	0,018
-719,035	-32,653	-0,049	-0,020
-718,021	-89,258	-0,107	0,023
-717,006	-22,584	-0,182	-0,080
-715,991	-200,000	-0,004	-0,114
-714,977	-200,000	0,006	-0,102
-713,962	800,000	0,030	-0,093
-712,948	-200,000	0,015	-0,065
-711,933	202,592	-0,018	-0,021
-710,918	27,105	-0,048	-0,030
-709,904	67,329	-0,107	-0,080
-708,889	130,809	0,046	-0,043
-707,875	153,585	-0,028	-0,028
-706,860	800,000	-0,015	-0,043
-705,845	-200,000	-0,038	0,144
-704,831	-19,525	-0,143	0,065
-703,816	-200,000	0,005	0,066
-702,802	800,000	0,045	-0,128
-701,787	800,000	-0,041	-0,086
-700,772	-200,000	-0,013	-0,057
-699,758	259,489	-0,010	-0,013
-698,743	-200,000	0,015	-0,103
-697,729	-61,345	-0,050	-0,015
-696,714	49,295	0,180	-0,124
-695,699	81,809	0,095	-0,075
-694,685	-200,000	0,004	-0,047
-693,670	-108,164	0,047	-0,007
-692,656	-146,095	0,062	0,004
-691,641	-108,682	-0,049	-0,008
-690,627	10,924	0,156	-0,087
-689,612	157,734	0,058	0,059
-688,597	-200,000	-0,006	0,053
-687,583	-200,000	0,011	-0,111
-686,568	87,007	-0,100	-0,081
-685,554	800,000	-0,050	-0,126
-684,539	-200,000	0,009	0,143
-683,524	800,000	0,029	0,076
-682,510	291,718	0,037	-0,049
-681,495	800,000	-0,022	-0,061
-680,481	-200,000	0,004	-0,200
-679,466	-200,000	-0,030	-0,244
-678,451	757,867	-0,044	-0,087
-677,437	159,015	-0,041	-0,042
-676,422	531,706	0,051	0,089
-675,408	143,623	-0,111	0,109
-674,393	800,000	0,043	0,126
-673,378	271,164	-0,111	-0,144
-672,364	-79,027	0,082	-0,020
-671,349	-152,162	0,142	-0,007
-670,335	-83,867	0,163	0,038
-669,320	172,018	0,055	-0,058
-668,305	374,497	-0,069	0,103
-667,291	-66,252	-0,168	0,049
-666,276	-43,627	-0,107	-0,039
-665,262	-200,000	-0,006	-0,047
-664,247	800,000	0,004	-0,012
-663,232	-158,114	-0,028	-0,001
-662,218	92,354	-0,123	0,102
-661,203	71,377	-0,045	0,034
-660,189	449,002	-0,045	-0,073
-659,174	48,599	-0,078	0,054
-658,159	-200,000	0,004	-0,148
-657,145	-200,000	-0,019	-0,108
-656,130	-200,000	0,000	0,095
-655,116	-200,000	-0,002	-0,024
-654,101	-72,264	0,022	0,006
-653,086	-200,000	0,026	-0,086
-652,072	-149,725	-0,054	-0,003
-651,057	-137,162	-0,077	-0,006
-650,043	-87,670	-0,067	-0,015
-649,028	134,040	0,055	-0,052
-648,014	86,181	0,071	0,057
-646,999	-31,473	0,134	0,055
-645,984	-120,196	0,064	0,008
-644,970	2,399	-0,167	0,088
-643,955	800,000	0,019	-0,050
-642,941	64,633	-0,115	-0,085
-641,926	800,000	0,096	-0,230
-640,911	242,551	-0,017	-0,021
-639,897	-200,000	0,027	-0,109
-638,882	-200,000	-0,001	0,050
-637,868	-200,000	0,016	-0,092
-636,853	-200,000	-0,044	-0,238
-635,838	119,841	-0,127	-0,115
-634,824	515,437	0,038	0,066
-633,809	800,000	0,010	-0,023
-632,795	800,000	0,046	-0,099
-631,780	12,960	-0,153	-0,087
-630,765	-124,023	-0,072	0,008
-629,751	172,254	-0,023	0,024
-628,736	14,057	-0,101	-0,058
-627,722	-200,000	-0,007	0,126
-626,707	-118,582	-0,012	0,002
-625,692	-14,360	0,071	0,033
-624,678	5,853	0,036	0,019
-623,663	230,790	0,080	-0,096
-622,649	-179,183	-0,047	-0,001
-621,634	85,272	-0,145	-0,117
-620,619	-200,000	-0,015	-0,082
-619,605	274,451	-0,085	-0,111
-618,590	-7,222	-0,039	0,019
-617,576	-200,000	0,037	0,150
-616,561	-200,000	0,018	-0,074
-615,546	-200,000	0,004	-0,095
-614,532	-106,356	-0,088	-0,014
-613,517	238,631	-0,104	-0,127
-612,503	751,958	-0,046	0,091
-611,488	-200,000	-0,015	-0,052
-610,474	357,355	-0,057	0,083
-609,459	330,473	-0,086	0,122
-608,444	-90,235	-0,166	-0,035
-607,430	316,358	-0,009	0,012
-606,415	-200,000	-0,013	0,051
-605,401	423,506	0,040	-0,062
-604,386	37,782	0,032	0,021
-603,371	299,211	-0,101	0,136
-602,357	-29,280	0,056	-0,023
-601,342	338,950	0,032	-0,046
-600,328	156,500	-0,133	-0,134
-599,313	-36,819	-0,055	0,021
-598,298	-43,829	-0,083	-0,030
-597,284	22,585	0,082	0,049
-596,269	89,146	-0,051	0,041
-595,255	146,489	0,126	-0,124
-594,240	-200,000	-0,033	-0,189
-593,225	-200,000	0,002	-0,118
-592,211	38,429	-0,055	0,036
-591,196	51,559	0,059	-0,041
-590,182	-147,465	0,197	-0,012
-589,167	-58,654	0,069	0,022
-588,152	-200,000	0,005	0,104
-587,138	-130,891	-0,096	0,009
-586,123	800,000	-0,031	-0,089
-585,109	-105,056	-0,174	-0,029
-584,094	336,227	0,120	0,170
-583,079	701,888	-0,074	0,142
-582,065	43,578	0,049	0,033
-581,050	123,057	0,152	-0,139
-580,036	800,000	-0,038	-0,100
-579,021	569,471	-0,033	0,058
-578,006	142,198	-0,083	0,080
-576,992	2,365	-0,098	-0,052
-575,977	-70,095	-0,030	-0,008
-574,963	93,515	0,038	0,031
-573,948	14,729	0,045	0,025
-572,934	-14,775	0,095	0,045
-571,919	205,425	0,021	0,024
-570,904	800,000	-0,022	0,068
-569,890	11,833	0,039	0,022
-568,875	755,621	0,014	-0,027
-567,861	40,420	0,029	0,019
-566,846	318,396	-0,064	0,088
-565,831	84,473	0,065	0,052
-564,817	-123,282	-0,082	0,009
-563,802	789,343	0,032	0,064
-562,788	419,739	0,015	-0,023
-561,773	-200,000	0,009	-0,041
-560,758	531,689	-0,029	-0,050
-559,744	79,323	0,092	0,072
-558,729	-200,000	0,006	0,089
-557,715	-200,000	-0,015	0,086
-556,700	-200,000	0,032	-0,106
-555,685	76,222	0,086	0,067
-554,671	-3,929	-0,117	0,059
-553,656	-200,000	0,019	0,075
-552,642	-29,090	0,165	0,069
-551,627	-136,349	-0,070	0,006
-550,612	-91,646	-0,053	0,011
-549,598	800,000	-0,027	-0,067
-548,583	123,251	0,116	-0,106
-547,569	-69,259	-0,126	0,035
-546,554	293,592	0,091	0,122
-545,539	-42,802	0,048	0,018
-544,525	-128,895	0,102	-0,010
-543,510	-7,770	-0,118	-0,058
-542,496	-200,000	-0,002	0,021
-541,481	420,055	-0,057	-0,089
-540,466	-55,198	-0,104	-0,034
-539,452	327,758	0,096	0,135
-538,437	-200,000	-0,001	-0,044
-537,423	-189,734	-0,095	0,001
-536,408	800,000	-0,023	0,062
-535,393	800,000	-0,031	-0,065
-534,379	89,559	-0,100	0,081
-533,364	800,000	-0,012	0,026
-532,350	220,910	-0,031	-0,037
-531,335	205,640	0,023	0,027
-530,321	-134,897	-0,031	-0,003
-529,306	-85,281	-0,074	0,017
-528,291	-200,000	0,017	-0,075
-527,277	2,550	-0,107	-0,056
-526,262	-88,330	-0,049	0,011
-525,248	-25,434	0,053	-0,023
-524,233	800,000	-0,025	0,078
-523,218	800,000	0,012	0,034
-522,204	-153,486	-0,150	0,007
-521,189	-200,000	-0,011	-0,051
-520,175	-200,000	0,005	-0,041
-519,160	61,299	0,069	-0,050
-518,145	-200,000	0,012	0,094
-517,131	85,899	-0,104	0,084
-516,116	263,174	0,059	-0,075
-515,102	10,749	-0,040	0,022
-514,087	-104,024	-0,069	-0,012
-513,072	97,836	0,049	-0,041
-512,058	171,701	-0,063	-0,066
-511,043	125,478	0,106	0,097
-510,029	33,568	0,149	-0,094
-509,014	-200,000	0,010	0,190
-507,999	185,290	0,071	0,077
-506,985	62,605	-0,028	0,020
-505,970	434,163	-0,066	-0,105
-504,956	115,447	-0,027	0,024
-503,941	492,191	0,039	0,066
-502,926	420,224	-0,025	-0,039
-501,912	-21,527	-0,174	-0,077
-500,897	192,071	0,077	0,085
-499,883	-200,000	0,002	0,070
-498,868	127,725	0,033	0,031
-497,853	800,000	0,045	-0,096
-496,839	158,810	0,087	-0,088
-495,824	414,794	-0,051	0,079
-494,810	274,705	-0,080	0,103
-493,795	325,873	0,032	-0,045
-492,781	177,278	0,046	-0,049
-491,766	800,000	-0,044	-0,097
-490,751	21,509	-0,087	-0,051
-489,737	-55,448	0,112	0,036
-488,722	-200,000	0,001	0,143
-487,708	-200,000	-0,008	0,033
-486,693	54,867	0,034	0,024
-485,678	247,600	-0,030	-0,037
-484,664	800,000	-0,049	0,138
-483,649	-17,329	-0,050	-0,023
-482,635	-200,000	0,001	0,027
-481,620	-71,110	0,131	-0,036
-480,605	-200,000	0,051	0,000
-479,591	-121,436	-0,071	0,009
-478,576	800,000	-0,035	-0,097
-477,562	-3,953	-0,161	0,081
-476,547	-200,000	0,002	-0,043
-475,532	191,998	0,016	0,017
-474,518	-200,000	-0,014	-0,055
-473,503	-105,821	0,174	0,028
-472,489	800,000	-0,024	-0,056
-471,474	-200,000	-0,010	-0,054
-470,459	800,000	-0,029	-0,061
-469,445	218,538	-0,034	0,040
-468,430	106,517	-0,129	0,111
-467,416	800,000	-0,024	-0,071
-466,401	0,846	0,107	0,055
-465,386	-200,000	0,008	0,104
-464,372	800,000	0,033	0,083
-463,357	274,509	-0,076	-0,099
-462,343	-200,000	-0,027	-0,172
-461,328	91,551	-0,053	0,044
-460,313	-156,317	0,072	-0,003
-459,299	431,367	0,049	0,078
-458,284	62,369	-0,018	0,013
-457,270	-35,681	0,172	0,068
-456,255	443,334	-0,014	0,023
-455,241	-108,295	0,018	-0,003
-454,226	-200,000	0,005	-0,187
-453,211	232,912	0,040	0,048
-452,197	444,878	-0,070	0,112
-451,182	154,392	0,147	0,147
-450,168	-200,000	-0,025	-0,087
-449,153	-200,000	0,012	-0,078
-448,138	-200,000	0,012	-0,141
-447,124	800,000	-0,043	0,131
-446,109	321,259	0,059	-0,082
-445,095	90,124	0,042	0,034
-444,080	238,724	0,090	-0,109
-443,065	22,512	-0,139	0,082
-442,051	134,074	0,035	-0,033
-441,036	800,000	-0,026	-0,079
-440,022	219,431	0,046	-0,054
-439,007	-200,000	0,020	-0,135
-437,992	-72,110	0,122	-0,033
-436,978	800,000	0,058	-0,134
-435,963	-200,000	-0,043	-0,253
-434,949	-134,919	-0,089	0,008
-433,934	800,000	-0,046	-0,113
-432,919	94,349	0,066	0,055
-431,905	101,050	-0,129	-0,109
-430,890	800,000	0,050	0,134
-429,876	756,056	0,020	-0,039
-428,861	562,255	-0,034	0,059
-427,846	406,236	0,098	-0,151
-426,832	308,677	-0,039	0,053
-425,817	-200,000	-0,003	0,026
-424,803	123,021	0,094	-0,085
-423,788	-105,518	0,069	0,011
-422,773	800,000	-0,030	0,073
-421,759	202,782	0,110	-0,124
-420,744	-200,000	0,035	-0,113
-419,730	260,005	0,033	-0,042
-418,715	-86,212	-0,136	-0,030
-417,701	215,150	-0,087	0,100
-416,686	-200,000	0,042	0,137
-415,671	83,162	-0,062	0,049
-414,657	-110,581	0,036	-0,005
-413,642	-24,541	0,060	-0,026
-412,628	711,097	-0,055	-0,107
-411,613	-99,884	0,073	0,013
-410,598	-200,000	-0,001	-0,030
-409,584	422,983	-0,017	0,027
-408,569	-23,192	0,099	0,043
-407,555	800,000	-0,051	0,112
-406,540	23,679	-0,008	-0,005
-405,525	-200,000	0,004	-0,047
-404,511	393,394	-0,054	0,082
-403,496	-200,000	-0,032	-0,130
-402,482	-200,000	-0,012	-0,125
-401,467	107,552	0,083	-0,072
-400,452	454,489	0,060	0,096
-399,438	-200,000	0,020	-0,115
-398,423	-140,584	-0,057	-0,004
-397,409	-200,000	0,005	-0,079
-396,394	-131,790	-0,051	-0,005
-395,379	800,000	-0,043	0,126
-394,365	-200,000	-0,022	-0,082
-393,350	-3,756	0,078	-0,039
-392,336	147,942	0,100	0,098
-391,321	-200,000	0,003	-0,043
-390,306	-106,681	-0,073	-0,012
-389,292	-200,000	0,004	0,020
-388,277	-7,825	0,135	-0,066
-387,263	-200,000	0,004	0,100
-386,248	-200,000	-0,028	0,101
-385,233	11,712	0,117	-0,065
-384,219	38,479	0,013	-0,008
-383,204	-154,930	-0,016	0,001
-382,190	-17,612	-0,112	0,051
-381,175	131,898	0,089	0,083
-380,160	-86,343	0,150	0,033
-379,146	-64,211	0,059	0,017
-378,131	146,495	0,085	-0,083
-377,117	-200,000	0,006	0,246
-376,102	189,985	0,062	-0,068
-375,088	-200,000	0,028	-0,122
-374,073	-200,000	0,009	-0,066
-373,058	800,000	0,046	0,144
-372,044	-200,000	0,003	-0,022
-371,029	14,200	0,086	-0,049
-370,015	-200,000	0,012	0,106
-369,000	-200,000	0,036	-0,173
-367,985	800,000	0,024	0,049
-366,971	-200,000	-0,004	0,095
-365,956	-11,272	0,087	-0,041
-364,942	236,636	0,088	0,106
-363,927	137,777	0,068	0,064
-362,912	48,299	-0,020	0,014
-361,898	800,000	-0,034	0,085
-360,883	132,153	-0,035	-0,032
-359,869	800,000	-0,001	-0,004
-358,854	-200,000	-0,012	0,076
-357,839	-161,769	0,107	0,004
-356,825	42,613	-0,056	0,037
-355,810	-79,773	0,067	-0,016
-354,796	-200,000	-0,028	0,098
-353,781	-24,448	-0,083	-0,036
-352,766	800,000	-0,056	-0,144
-351,752	-200,000	-0,021	-0,091
-350,737	88,339	0,079	-0,063
-349,723	151,182	0,075	0,074
-348,708	46,389	-0,057	0,038
-347,693	63,197	-0,105	0,076
-346,679	83,981	0,133	0,105
-345,664	-200,000	-0,006	0,115
-344,650	-121,901	0,127	0,015
-343,635	288,321	-0,040	0,052
-342,620	10,085	0,170	0,094
-341,606	800,000	0,038	-0,112
-340,591	179,213	-0,027	0,028
-339,577	-94,607	-0,122	0,024
-338,562	-115,399	0,047	0,006
-337,548	800,000	0,012	0,027
-336,533	-23,340	-0,033	0,014
-335,518	329,139	-0,071	0,099
-334,504	42,099	0,138	0,090
-333,489	260,102	-0,035	0,044
-332,475	-25,754	-0,022	-0,009
-331,460	2,198	0,073	0,038
-330,445	800,000	-0,111	-0,238
-329,431	78,686	0,074	0,057
-328,416	256,675	-0,038	0,047
-327,402	800,000	0,008	0,024
-326,387	37,295	-0,024	0,016
-325,372	-87,438	-0,107	-0,023
-324,358	115,117	0,079	0,070
-323,343	169,737	-0,015	-0,015
-322,329	798,439	0,055	-0,111
-321,314	-41,507	-0,086	-0,032
-320,299	-200,000	0,020	0,114
-319,285	-55,172	0,166	-0,054
-318,270	-200,000	-0,023	0,148
-317,256	800,000	0,015	0,039
-316,241	-158,109	0,085	-0,004
-315,226	6,671	0,076	-0,041
-314,212	338,519	0,048	0,067
-313,197	-36,445	0,054	0,021
-312,183	-75,629	-0,168	0,043
-311,168	-58,427	0,143	-0,045
-310,153	137,297	0,110	-0,104
-309,139	304,937	0,023	0,031
-308,124	-200,000	-0,044	0,205
-307,110	265,841	0,046	0,059
-306,095	101,782	-0,034	0,029
-305,080	-40,623	-0,085	-0,032
-304,066	-22,170	0,089	-0,039
-303,051	321,163	-0,035	-0,049
-302,037	-181,000	-0,031	0,000
-301,022	-93,621	-0,045	-0,009
-300,008	-200,000	0,005	-0,116
-298,993	-7,473	-0,072	0,035
-297,978	800,000	0,037	-0,095
-296,964	58,246	0,055	-0,039
-295,949	189,805	0,103	-0,111
-294,935	132,058	-0,035	-0,032
-293,920	-100,220	0,041	0,007
-292,905	-200,000	-0,008	-0,029
-291,891	435,582	0,079	0,124
-290,876	-1,313	0,069	-0,035
-289,862	-63,089	-0,165	-0,049
-288,847	-187,328	-0,123	0,001
-287,832	148,957	0,104	0,102
-286,818	800,000	0,031	-0,088
-285,803	-39,082	0,098	-0,037
-284,789	-126,810	-0,108	-0,011
-283,774	-12,680	0,057	0,027
-282,759	162,708	-0,095	-0,096
-281,745	50,531	-0,110	-0,075
-280,730	207,070	0,120	0,136
-279,716	118,723	-0,051	-0,046
-278,701	413,295	0,033	0,051
-277,686	232,817	0,052	0,062
-276,672	-200,000	0,016	-0,145
-275,657	242,023	-0,053	-0,065
-274,643	-200,000	-0,049	-0,158
-273,628	-200,000	0,030	-0,128
-272,613	32,900	0,053	0,033
-271,599	-200,000	-0,010	0,040
-270,584	-200,000	0,028	0,107
-269,570	124,178	-0,047	0,042
-268,555	87,686	-0,044	-0,035
-267,540	-55,350	0,021	0,007
-266,526	11,803	-0,070	0,039
-265,511	-200,000	0,000	-0,020
-264,497	-136,543	-0,096	-0,008
-263,482	202,703	-0,090	-0,100
-262,467	-165,773	0,082	-0,003
-261,453	-200,000	0,004	-0,019
-260,438	170,672	0,038	0,039
-259,424	-169,577	-0,105	0,003
-258,409	-187,160	-0,043	0,000
-257,395	202,194	-0,107	0,120
-256,380	165,343	0,091	0,093
-255,365	343,219	-0,089	-0,126
-254,351	186,698	-0,078	-0,084
-253,336	2,440	0,039	-0,021
-252,322	-57,196	-0,100	-0,031
-251,307	-175,720	0,092	0,002
-250,292	-200,000	0,022	0,139
-249,278	33,713	-0,088	0,055
-248,263	-105,444	-0,098	0,016
-247,249	-67,210	0,101	0,028
-246,234	15,310	-0,050	-0,028
-245,219	-96,551	0,072	-0,014
-244,205	-43,918	-0,109	-0,039
-243,190	81,518	-0,129	-0,100
-242,176	745,376	0,012	0,022
-241,161	258,723	-0,045	-0,056
-240,146	406,492	0,083	0,126
-239,132	-125,115	0,024	-0,003
-238,117	-63,090	0,024	0,007
-237,103	-200,000	-0,007	-0,079
-236,088	800,000	0,024	0,051
-235,073	-3,862	0,141	0,070
-234,059	241,840	-0,082	0,100
-233,044	-2,473	-0,096	0,048
-232,030	-121,033	0,045	0,005
-231,015	125,151	-0,079	-0,071
-230,000	102,326	-0,030	0,025
-228,986	-8,283	0,061	-0,030
-227,971	379,010	0,169	-0,250
-226,957	190,108	-0,063	0,069
-225,942	-112,965	-0,160	-0,023
-224,927	-105,627	-0,060	0,010
-223,913	-200,000	-0,015	0,069
-222,898	-39,182	0,100	-0,038
-221,884	177,420	-0,102	-0,107
-220,869	-110,793	0,078	0,011
-219,855	84,821	0,066	0,052
-218,840	-200,000	-0,001	0,101
-217,825	-5,033	0,039	-0,019
-216,811	-152,289	-0,188	0,010
-215,796	4,562	0,145	-0,077
-214,782	-200,000	0,021	-0,108
-213,767	-200,000	-0,005	0,052
-212,752	-25,155	-0,014	-0,006
-211,738	800,000	0,010	-0,030
-210,723	-200,000	0,023	0,148
-209,709	199,962	0,094	-0,105
-208,694	23,831	-0,091	-0,054
-207,679	-5,971	-0,089	-0,044
-206,665	-200,000	-0,013	-0,073
-205,650	-12,701	0,058	0,027
-204,636	321,515	0,093	0,128
-203,621	139,557	0,077	0,073
-202,606	-66,841	-0,036	0,010
-201,592	-137,183	0,054	0,004
-200,577	-139,211	0,079	-0,006
-199,563	153,770	-0,028	-0,027
-198,548	700,609	0,057	0,108
-197,533	51,496	0,027	0,019
-196,519	35,302	0,066	-0,041
-195,504	705,964	0,049	0,093
-194,490	-200,000	0,011	0,131
-193,475	-20,733	0,085	0,037
-192,460	185,581	-0,063	0,067
-191,446	268,233	-0,078	-0,098
-190,431	-82,678	0,109	0,025
-189,417	-200,000	-0,018	0,096
-188,402	-95,517	-0,088	-0,017
-187,387	800,000	0,022	-0,060
-186,373	-57,060	-0,135	-0,043
-185,358	38,380	-0,072	0,046
-184,344	188,744	-0,064	0,068
-183,329	622,021	0,047	0,086
-182,315	800,000	0,054	0,135
-181,300	-200,000	-0,059	0,209
-180,285	-171,186	0,040	-0,001
-179,271	-200,000	0,001	-0,020
-178,256	-200,000	0,010	-0,080
-177,242	35,941	0,130	-0,082
-176,227	800,000	0,020	-0,063
-175,212	750,708	-0,056	-0,109
-174,198	-200,000	-0,017	-0,065
-173,183	800,000	-0,041	-0,127
-172,169	800,000	-0,072	-0,176
-171,154	-4,346	-0,049	0,024
-170,139	-200,000	-0,000	0,025
-169,125	78,887	0,085	0,065
-168,110	-200,000	-0,010	-0,059
-167,096	800,000	-0,005	-0,013
-166,081	101,204	0,041	0,035
-165,066	80,648	-0,054	0,042
-164,052	-29,905	-0,112	-0,046
-163,037	618,686	-0,017	0,032
-162,023	172,273	0,023	0,023
-161,008	800,000	-0,007	-0,020
-159,993	437,347	-0,039	0,062
-158,979	414,697	-0,054	-0,083
-157,964	163,776	-0,034	0,034
-156,950	241,223	-0,066	0,080
-155,935	-200,000	-0,064	0,206
-154,920	-200,000	0,018	0,100
-153,906	226,633	-0,100	0,117
-152,891	-30,148	0,048	0,020
-151,877	155,420	-0,099	-0,098
-150,862	-158,560	-0,148	0,006
-149,847	482,023	-0,055	0,090
-148,833	394,398	0,029	0,043
-147,818	-200,000	-0,005	0,048
-146,804	322,345	0,069	0,095
-145,789	800,000	-0,038	0,100
-144,775	95,623	-0,073	-0,060
-143,760	-200,000	-0,007	0,096
-142,745	800,000	0,012	-0,037
-141,731	800,000	0,054	0,125
-140,716	-200,000	0,006	0,179
-139,702	800,000	-0,024	0,052
-138,687	-200,000	0,025	-0,118
-137,672	98,907	-0,071	0,059
-136,658	-44,642	-0,124	-0,044
-135,643	-65,437	0,112	0,032
-134,629	-200,000	0,002	-0,055
-133,614	309,692	-0,043	0,057
-132,599	49,623	-0,078	0,053
-131,585	-44,172	0,035	0,013
-130,570	-178,668	-0,153	0,002
-129,556	800,000	-0,016	-0,047
-128,541	129,985	-0,083	-0,076
-127,526	271,316	0,051	0,065
-126,512	-24,170	-0,169	-0,072
-125,497	760,004	0,069	-0,134
-124,483	-111,433	0,024	-0,003
-123,468	571,264	0,052	-0,092
-122,453	-193,622	-0,112	-0,001
-121,439	331,888	0,099	0,137
-120,424	-200,000	0,017	-0,108
-119,410	-171,661	0,130	-0,003
-118,395	-200,000	-0,001	0,179
-117,380	-200,000	-0,018	0,076
-116,366	-129,856	0,061	0,006
-115,351	271,932	0,069	-0,087
-114,337	-200,000	-0,032	-0,130
-113,322	-200,000	0,021	-0,120
-112,307	-200,000	0,002	-0,064
-111,293	-161,403	0,086	-0,003
-110,278	800,000	0,023	0,059
-109,264	-200,000	-0,010	0,046
-108,249	145,570	-0,113	-0,108
-107,234	14,946	0,047	-0,026
-106,220	290,069	-0,050	-0,066
-105,205	-200,000	0,049	-0,159
-104,191	-121,888	0,054	0,006
-103,176	63,886	0,044	-0,032
-102,162	7,246	0,053	0,028
-101,147	146,045	0,026	-0,025
-100,132	-11,230	-0,144	-0,068
-99,118	191,243	0,022	-0,023
-98,103	-200,000	-0,004	0,147
-97,089	800,000	-0,038	0,090
-96,074	-93,932	0,030	0,006
-95,059	-34,378	0,119	-0,047
-94,045	307,715	-0,040	-0,053
-93,030	-200,000	-0,009	0,030
-92,016	-200,000	0,006	-0,059
-91,001	-84,702	-0,049	-0,011
-89,986	406,542	0,043	-0,065
-88,972	-137,803	0,099	-0,008
-87,957	800,000	0,051	-0,129
-86,943	-200,000	-0,002	-0,069
-85,928	34,002	-0,032	-0,020
-84,913	-200,000	0,004	-0,073
-83,899	-138,168	-0,029	-0,002
-82,884	-61,415	0,048	0,014
-81,870	70,014	-0,072	0,053
-80,855	-200,000	0,017	-0,077
-79,840	20,662	-0,032	-0,018
-78,826	-127,884	-0,088	0,009
-77,811	257,629	0,054	-0,067
-76,797	145,518	-0,012	-0,011
-75,782	205,256	0,078	-0,087
-74,767	-200,000	0,015	0,065
-73,753	76,379	0,070	0,053
-72,738	-200,000	-0,018	0,079
-71,724	-154,539	0,081	-0,004
-70,709	-89,065	-0,037	0,008
-69,694	-45,775	0,086	0,030
-68,680	29,392	0,056	-0,034
-67,665	-109,316	-0,116	0,017
-66,651	-136,052	-0,052	-0,004
-65,636	800,000	-0,018	-0,043
-64,622	111,908	-0,036	-0,031
-63,607	313,131	0,025	0,034
-62,592	293,669	-0,024	-0,031
-61,578	-72,120	-0,131	-0,034
-60,563	-116,211	0,055	0,007
-59,549	534,323	0,074	0,126
-58,534	51,364	-2,194	-1,490
-57,519	-200,000	-0,159	-0,636
-56,505	-200,000	-1,401	-5,056
-55,490	155,970	0,851	0,841
-54,476	800,000	5,343	11,974
-53,461	-200,000	18,867	319,297
-52,446	800,000	740,753	2323,412
-51,432	549,721	1654,250	2850,109
-50,417	109,937	1637,377	1405,839
-49,403	73,403	1288,026	963,906
-48,388	29,498	1029,525	625,142
-47,373	19,542	992,439	569,719
-46,359	16,971	979,891	554,056
-45,344	13,550	976,353	540,814
-44,330	13,820	974,599	540,707
-43,315	13,160	972,896	537,582
-42,300	13,123	971,794	536,829
-41,286	13,145	970,919	536,398
-40,271	13,096	970,118	535,773
-39,257	13,150	969,115	535,373
-38,242	13,118	968,209	534,749
-37,227	13,162	967,332	534,385
-36,213	13,190	966,311	533,891
-35,198	13,091	965,773	533,252
-34,184	13,128	964,996	532,923
-33,169	13,137	963,902	532,324
-32,154	13,162	962,858	531,807
-31,140	13,129	962,035	531,227
-30,125	13,191	961,351	531,028
-29,111	13,141	960,512	530,382
-28,096	13,175	959,779	530,067
-27,082	13,163	959,231	529,703
-26,067	13,173	958,373	529,241
-25,052	13,170	957,788	528,888
-24,038	13,168	957,008	528,430
-23,023	13,092	956,520	527,895
-22,009	13,178	955,839	527,775
-20,994	13,204	954,990	527,367
-19,979	13,180	954,429	526,959
-18,965	13,146	953,772	526,468
-17,950	13,110	953,290	526,066
-16,936	13,155	952,627	525,822
-15,921	13,098	952,023	525,285
-14,906	13,083	951,077	524,695
-13,892	13,110	950,579	524,486
-12,877	13,047	949,891	523,884
-11,863	13,074	949,173	523,553
-10,848	13,071	948,620	523,216
-9,833	13,128	948,237	523,167
-8,819	13,095	947,593	522,685
-7,804	13,096	946,775	522,216
-6,790	13,049	946,436	521,861
-5,775	13,045	945,786	521,470
-4,760	13,096	945,308	521,348
-3,746	13,082	944,517	520,845
-2,731	12,888	943,955	519,900
-1,717	12,893	943,216	519,487
-0,702	12,890	942,487	519,054
0,313	12,682	941,800	518,802
1,327	16,183	939,715	528,662
2,342	25,368	790,388	468,855
3,356	21,586	445,321	258,531
4,371	-7,729	298,468	143,701
5,386	-11,401	280,305	131,430
6,400	-12,460	274,497	127,702
7,415	-12,574	272,138	126,488
8,429	-12,700	270,388	125,546
9,444	-12,927	269,768	125,038
10,459	-12,951	269,130	124,709
11,473	-12,980	268,326	124,299
12,488	-13,085	267,812	123,954
13,502	-13,345	267,401	123,515
14,517	-13,236	266,880	123,363
15,531	-13,099	266,457	123,281
16,546	-13,263	266,153	122,980
17,561	-13,214	265,670	122,790
18,575	-13,104	265,317	122,715
19,590	-13,223	264,944	122,425
20,604	-12,991	264,772	122,544
21,619	-13,149	264,125	122,091
22,634	-13,156	263,817	121,932
23,648	-13,291	263,602	121,700
24,663	-13,199	263,349	121,655
25,677	-13,232	263,149	121,522
26,692	-13,402	263,047	121,312
27,707	-13,225	262,616	121,260
28,721	-13,331	262,100	120,916
29,736	-13,309	261,932	120,848
30,750	-13,332	261,731	120,724
31,765	-13,301	261,454	120,613
32,780	-13,337	261,281	120,491
33,794	-13,154	260,829	120,434
34,809	-13,290	260,750	120,266
35,823	-13,312	260,461	120,102
36,838	-13,431	260,130	119,834
37,853	-13,442	259,970	119,740
38,867	-13,441	259,792	119,648
39,882	-13,420	259,582	119,559
40,896	-13,403	259,435	119,496
41,911	-13,221	258,969	119,431
42,926	-13,330	258,716	119,208
43,940	-13,639	258,527	118,838
44,955	-13,465	258,354	118,901
45,969	-13,666	258,018	118,559
46,984	-13,839	257,895	118,340
47,999	-14,029	257,496	117,979
49,013	-14,235	257,298	117,698
50,028	-14,191	256,971	117,576
51,042	-14,134	256,664	117,475
52,057	-14,527	256,669	117,124
53,071	-14,146	256,289	117,272
54,086	-14,023	256,097	117,281
55,101	-14,030	255,995	117,218
56,115	-13,882	256,027	117,351
57,130	-13,224	255,823	117,820
58,144	-12,994	255,588	117,901
59,159	-13,208	255,457	117,644
60,174	-13,039	255,093	117,613
61,188	-13,003	254,760	117,480
62,203	-13,114	254,710	117,350
63,217	-13,314	254,525	117,081
64,232	-13,237	254,366	117,064
65,247	-13,178	254,077	116,972
66,261	-13,155	253,697	116,806
67,276	-13,322	253,461	116,543
68,290	-13,748	253,353	116,116
69,305	-13,820	253,094	115,925
70,320	-13,756	252,814	115,841
71,334	-13,281	252,719	116,196
72,349	-13,118	252,645	116,291
73,363	-13,186	252,421	116,120
74,378	-13,189	252,152	115,983
75,393	-13,142	251,918	115,905
76,407	-13,347	251,807	115,668
77,422	-13,189	251,471	115,639
78,436	-13,416	251,379	115,392
79,451	-13,365	251,115	115,304
80,466	-13,430	250,751	115,072
81,480	-13,649	250,543	114,779
82,495	-13,546	250,325	114,756
83,509	-13,631	250,299	114,662
84,524	-13,624	249,819	114,438
85,539	-13,836	249,645	114,169
86,553	-13,631	249,464	114,250
87,568	-13,513	249,260	114,246
88,582	-13,625	249,127	114,080
89,597	-13,770	248,907	113,847
90,611	-13,589	248,786	113,933
91,626	-13,346	248,697	114,088
92,641	-13,366	248,497	113,969
93,655	-13,416	248,356	113,852
94,670	-13,639	248,053	113,515
95,684	-13,390	247,789	113,594
96,699	-13,535	247,706	113,424
97,714	-13,598	247,536	113,283
98,728	-13,654	247,298	113,117
99,743	-13,767	247,038	112,894
100,757	-13,854	246,853	112,726
101,772	-13,652	246,656	112,795
102,787	-13,526	246,493	112,815
103,801	-13,646	246,400	112,662
104,816	-13,438	246,300	112,780
105,830	-13,482	246,112	112,648
106,845	-13,396	245,952	112,635
107,860	-13,340	245,525	112,477
108,874	-13,466	245,460	112,333
109,889	-13,621	245,249	112,097
110,903	-13,521	244,951	112,034
111,918	-13,592	244,873	111,930
112,933	-13,565	244,786	111,902
113,947	-13,512	244,599	111,851
114,962	-13,336	244,316	111,857
115,976	-13,377	244,095	111,712
116,991	-13,443	243,884	111,550
118,006	-13,486	243,814	111,473
119,020	-13,491	243,749	111,429
120,035	-13,495	243,618	111,356
121,049	-13,082	243,419	111,595
122,064	-13,290	243,075	111,256
123,079	-13,336	242,876	111,118
124,093	-13,536	242,753	110,887
125,108	-13,667	242,518	110,663
126,122	-13,674	242,258	110,528
127,137	-13,931	242,038	110,208
128,151	-13,853	241,815	110,160
129,166	-13,738	241,684	110,185
130,181	-13,743	241,479	110,078
131,195	-13,733	241,303	109,996
132,210	-13,501	241,139	110,101
133,224	-13,666	241,156	109,964
134,239	-13,473	241,021	110,049
135,254	-13,552	240,668	109,814
136,268	-13,719	240,447	109,568
137,283	-13,886	240,250	109,332
138,297	-13,822	239,916	109,223
139,312	-13,892	239,765	109,087
140,327	-13,722	239,760	109,213
141,341	-13,109	239,683	109,665
142,356	-12,879	239,416	109,719
143,370	-13,002	239,446	109,623
144,385	-13,028	239,286	109,520
145,400	-13,108	239,124	109,371
146,414	-13,075	238,838	109,257
147,429	-13,007	238,675	109,227
148,443	-13,062	238,507	109,097
149,458	-13,132	238,353	108,960
150,473	-13,117	238,135	108,863
151,487	-13,069	237,892	108,780
152,502	-13,135	237,853	108,700
153,516	-13,183	237,717	108,589
154,531	-13,049	237,417	108,550
155,546	-13,153	237,267	108,388
156,560	-13,019	236,860	108,300
157,575	-13,348	236,822	108,010
158,589	-13,171	236,633	108,056
159,604	-12,878	236,672	108,298
160,619	-12,912	236,257	108,071
161,633	-12,794	236,155	108,109
162,648	-13,022	236,115	107,900
163,662	-13,061	235,996	107,804
164,677	-13,052	235,872	107,745
165,692	-13,178	235,717	107,564
166,706	-12,891	235,451	107,661
167,721	-12,883	235,422	107,645
168,735	-12,880	235,183	107,528
169,750	-12,706	235,207	107,668
170,764	-12,969	234,991	107,350
171,779	-12,707	234,857	107,488
172,794	-13,031	234,740	107,168
173,808	-13,060	234,323	106,945
174,823	-13,466	233,921	106,432
175,837	-13,733	233,833	106,173
176,852	-13,276	233,959	106,580
177,867	-13,040	233,727	106,651
178,881	-12,892	233,629	106,713
179,896	-12,790	233,335	106,650
180,910	-13,001	233,340	106,477
181,925	-12,869	233,129	106,475
182,940	-12,859	232,856	106,348
183,954	-12,973	232,831	106,238
184,969	-12,829	232,590	106,231
185,983	-12,839	232,474	106,161
186,998	-12,629	232,316	106,243
188,013	-12,818	232,276	106,067
189,027	-12,519	231,990	106,161
190,042	-12,745	231,881	105,926
191,056	-12,948	231,761	105,703
192,071	-12,714	231,518	105,764
193,086	-12,696	231,365	105,700
194,100	-12,513	231,053	105,690
195,115	-12,547	230,961	105,612
196,129	-11,933	231,163	106,172
197,144	-6,016	233,179	111,719
198,159	-0,391	234,914	116,962
199,173	2,667	235,752	119,773
200,188	2,722	235,811	119,836
201,202	2,968	235,495	119,858
202,217	3,021	235,447	119,864
203,232	3,358	235,342	120,065
204,246	3,186	235,319	119,908
205,261	3,215	235,181	119,849
206,275	3,641	235,002	120,080
207,290	3,796	234,806	120,091
208,304	3,630	234,653	119,872
209,319	3,408	234,486	119,603
210,334	3,403	234,240	119,463
211,348	3,291	234,009	119,247
212,363	3,115	233,648	118,916
213,377	2,725	233,512	118,532
214,392	2,599	233,487	118,412
215,407	2,845	233,373	118,534
216,421	2,709	233,227	118,344
217,436	2,887	232,802	118,256
218,450	2,518	232,735	117,925
219,465	2,443	232,616	117,797
220,480	2,543	232,497	117,803
221,494	2,683	232,336	117,819
222,509	2,877	232,341	117,962
223,523	2,890	232,115	117,846
224,538	2,781	231,736	117,559
225,553	2,812	231,757	117,583
226,567	2,682	231,610	117,398
227,582	3,133	231,579	117,719
228,596	2,957	231,410	117,487
229,611	2,883	231,119	117,272
230,626	2,479	230,948	116,865
231,640	2,682	230,809	116,940
232,655	2,800	230,815	117,022
233,669	3,214	230,661	117,252
234,684	3,133	230,633	117,165
235,699	3,314	230,346	117,147
236,713	3,001	230,127	116,786
237,728	2,891	229,997	116,626
238,742	2,738	229,749	116,373
239,757	2,831	229,599	116,357
240,772	2,836	229,516	116,308
241,786	2,697	229,254	116,059
242,801	2,944	229,305	116,263
243,815	3,445	229,210	116,586
244,830	3,368	229,090	116,456
245,844	3,015	228,794	116,027
246,859	2,936	228,728	115,923
247,874	3,092	228,484	115,908
248,888	3,033	228,294	115,756
249,903	2,764	228,182	115,485
250,917	2,558	228,068	115,261
251,932	2,824	227,934	115,385
252,947	2,765	227,503	115,111
253,961	2,683	227,435	115,005
254,976	2,799	227,401	115,065
255,990	2,826	227,362	115,055
257,005	3,091	227,091	115,108
258,020	3,013	227,140	115,064
259,034	2,945	227,036	114,949
260,049	3,115	226,782	114,938
261,063	2,902	226,513	114,631
262,078	3,112	226,453	114,749
263,093	3,090	226,378	114,684
264,107	2,920	226,290	114,502
265,122	3,146	226,037	114,533
266,136	3,198	226,029	114,557
267,151	3,043	225,835	114,333
268,166	2,929	225,472	114,054
269,180	2,498	225,213	113,591
270,195	2,642	225,173	113,668
271,209	2,562	225,038	113,530
272,224	2,708	224,916	113,568
273,239	2,917	224,877	113,693
274,253	2,646	224,631	113,357
275,268	2,600	224,349	113,170
276,282	2,495	224,277	113,046
277,297	2,472	224,290	113,025
278,312	2,614	224,028	112,989
279,326	2,657	223,889	112,940
280,341	2,731	223,894	112,987
281,355	2,962	223,608	113,004
282,370	2,950	223,462	112,911
283,384	2,642	223,244	112,564
284,399	2,484	223,001	112,315
285,414	2,486	222,979	112,295
286,428	2,862	223,027	112,586
287,443	3,152	222,795	112,673
288,457	2,683	222,686	112,262
289,472	2,745	222,429	112,168
290,487	2,292	222,174	111,697
291,501	2,324	221,972	111,608
292,516	2,534	221,839	111,686
293,530	2,543	221,756	111,641
294,545	2,600	221,765	111,678
295,560	2,700	221,626	111,671
296,574	2,921	221,481	111,749
297,589	2,716	221,351	111,524
298,603	2,782	221,223	111,497
299,618	2,989	221,152	111,603
300,633	2,963	221,007	111,501
301,647	3,099	220,817	111,495
302,662	3,104	220,752	111,455
303,676	3,007	220,524	111,260
304,691	2,936	220,443	111,158
305,706	3,114	220,176	111,142
306,720	2,825	220,154	110,911
307,735	2,803	219,955	110,785
308,749	2,501	219,886	110,521
309,764	2,833	219,761	110,690
310,779	2,964	219,654	110,721
311,793	3,088	219,304	110,624
312,808	3,062	219,291	110,588
313,822	3,008	219,007	110,397
314,837	2,603	218,948	110,064
315,852	2,652	218,691	109,960
316,866	2,677	218,715	109,980
317,881	2,970	218,601	110,125
318,895	2,838	218,338	109,888
319,910	2,828	218,242	109,822
320,925	2,624	217,987	109,538
321,939	2,159	217,955	109,178
322,954	2,470	217,741	109,284
323,968	2,978	217,709	109,623
324,983	3,080	217,592	109,627
325,997	3,126	217,431	109,569
327,012	2,983	217,265	109,374
328,027	2,724	217,211	109,151
329,041	3,237	217,029	109,416
330,056	3,275	216,931	109,384
331,070	2,793	216,773	108,951
332,085	2,580	216,506	108,655
333,100	2,494	216,233	108,447
334,114	2,407	216,341	108,430
335,129	2,841	216,194	108,656
336,143	2,799	216,155	108,596
337,158	2,921	216,105	108,649
338,173	3,082	215,758	108,579
339,187	2,870	215,591	108,334
340,202	2,482	215,427	107,967
341,216	2,376	215,411	107,874
342,231	2,682	215,053	107,902
343,246	2,575	215,137	107,858
344,260	2,865	214,961	107,966
345,275	2,778	214,891	107,860
346,289	3,078	214,696	107,964
347,304	3,151	214,645	107,981
348,319	2,900	214,445	107,693
349,333	2,921	214,233	107,592
350,348	2,709	214,177	107,405
351,362	3,046	214,003	107,545
352,377	3,275	213,838	107,614
353,392	2,838	213,754	107,255
354,406	3,102	213,695	107,401
355,421	197,021	1314,800	1392,230
356,435	157,636	1448,901	1392,176
