DTS Sentinel unit serial number:	SN410029Multiplexer serial number:	ORYXHardware model number:	OX2-SRSoftware version number:	ORYX F/W v4,00 Oryx Data Collector v3.7.2.0data status	okinstallation	B6 Nyhavnadifferential loss correction	single-endedforward channel	channel 2reverse channel	N/Adate	2023/12/08time	01:50:08forward acquisition time	300,00reverse acquisition time	0,00gamma	499,1914k internal	0,3165k external	0,3165temperature offset calibration	1,0000default loss term (dB/km)	0,3820temperature slope calibration	1,0000multiplexer offset coefficient	1,0000multiplexer slope coefficient	1,0000fibre end	0,00T internal ref (°C)	13,22T ext. ref 1 (°C)	-3,65T ext. ref 2 (°C)	-3,65length (m)	temperature (°C)	Stokes	anti-Stokes-744,400	-136,055	0,108	0,009
-743,385	-188,894	-0,214	0,002
-742,371	-44,112	0,059	0,022
-741,356	191,539	-0,142	-0,157
-740,342	-200,000	-0,008	0,066
-739,327	-71,738	-0,108	0,029
-738,312	800,000	0,055	0,152
-737,298	-81,081	-0,276	-0,067
-736,283	-2,681	0,181	0,093
-735,269	-151,624	-0,437	0,023
-734,254	9,595	0,174	0,097
-733,239	-34,008	-0,504	-0,203
-732,225	-77,479	0,155	0,039
-731,210	-6,123	-0,036	-0,018
-730,196	299,629	-0,045	0,061
-729,181	43,234	0,169	-0,113
-728,167	14,048	-0,012	0,007
-727,152	-200,000	0,028	0,103
-726,137	-80,345	-0,061	-0,015
-725,123	349,002	-0,086	-0,126
-724,108	207,735	-0,085	-0,097
-723,094	800,000	-0,014	-0,033
-722,079	69,889	-0,088	-0,067
-721,064	147,429	-0,034	0,034
-720,050	127,133	-0,082	0,076
-719,035	688,854	-0,014	-0,026
-718,021	-200,000	-0,035	-0,169
-717,006	223,959	-0,094	-0,111
-715,991	113,147	-0,050	-0,045
-714,977	-77,238	0,047	-0,012
-713,962	-11,926	0,081	-0,039
-712,948	-29,542	-0,074	-0,031
-711,933	-200,000	-0,001	0,033
-710,918	-33,172	0,132	-0,054
-709,904	-200,000	-0,013	-0,139
-708,889	793,240	-0,018	-0,038
-707,875	40,207	0,073	-0,048
-706,860	-101,434	-0,118	-0,021
-705,845	73,569	-0,015	0,012
-704,831	800,000	0,056	0,122
-703,816	-115,487	0,121	0,017
-702,802	607,469	-0,055	0,101
-701,787	800,000	-0,053	-0,157
-700,772	-88,664	-0,088	-0,019
-699,758	-200,000	0,015	-0,145
-698,743	-14,937	0,112	-0,052
-697,729	-75,885	0,024	0,006
-696,714	29,797	0,127	0,079
-695,699	132,649	-0,119	-0,112
-694,685	-200,000	-0,020	-0,143
-693,670	524,109	0,013	-0,023
-692,656	677,317	0,022	-0,042
-691,641	-72,375	-0,033	0,009
-690,627	-200,000	0,041	0,137
-689,612	-200,000	-0,011	0,089
-688,597	-29,413	-0,137	-0,057
-687,583	-200,000	-0,068	-0,272
-686,568	-200,000	-0,029	-0,116
-685,554	-15,346	0,055	0,026
-684,539	-128,978	0,033	0,003
-683,524	-12,127	-0,010	-0,005
-682,510	-44,657	0,089	-0,032
-681,495	-200,000	-0,001	-0,032
-680,481	168,847	-0,068	-0,071
-679,466	800,000	-0,018	-0,037
-678,451	-92,780	-0,133	0,027
-677,437	-200,000	0,007	-0,024
-676,422	18,020	0,068	0,040
-675,408	23,541	0,025	0,015
-674,393	800,000	0,041	-0,105
-673,378	126,879	-0,087	0,081
-672,364	70,221	-0,047	0,035
-671,349	-31,139	-0,079	-0,033
-670,335	-200,000	-0,057	-0,285
-669,320	800,000	0,046	-0,095
-668,305	-44,786	-0,080	-0,029
-667,291	285,239	0,052	-0,068
-666,276	-81,348	-0,122	-0,029
-665,262	-36,363	-0,145	-0,057
-664,247	-104,933	-0,034	0,006
-663,232	-200,000	0,011	0,041
-662,218	709,681	-0,035	-0,068
-661,203	-200,000	0,004	-0,014
-660,189	111,770	-0,027	-0,024
-659,174	16,811	-0,071	-0,041
-658,159	-4,998	-0,024	-0,012
-657,145	800,000	-0,033	0,069
-656,130	-57,685	-0,035	-0,011
-655,116	-200,000	-0,003	0,037
-654,101	323,139	-0,088	0,123
-653,086	-15,671	0,105	-0,049
-652,072	-200,000	-0,048	-0,193
-651,057	-29,199	-0,169	-0,071
-650,043	63,561	0,127	-0,094
-649,028	-200,000	0,006	-0,061
-648,014	-101,700	0,093	-0,016
-646,999	156,848	0,051	-0,051
-645,984	-149,850	-0,059	-0,003
-644,970	-128,054	0,036	-0,004
-643,955	216,507	0,089	-0,104
-642,941	-10,673	0,063	-0,031
-641,926	-24,920	0,075	-0,032
-640,911	-200,000	0,030	0,185
-639,897	102,843	-0,012	-0,010
-638,882	-3,764	-0,107	0,054
-637,868	-35,020	-0,042	0,017
-636,853	90,363	-0,079	-0,064
-635,838	-155,637	-0,014	-0,001
-634,824	252,152	-0,093	0,117
-633,809	800,000	-0,015	0,037
-632,795	70,098	0,159	0,120
-631,780	-66,965	-0,087	0,025
-630,765	-170,899	-0,083	-0,002
-629,751	-110,920	-0,238	-0,036
-628,736	33,041	-0,007	0,004
-627,722	-83,853	-0,014	-0,003
-626,707	118,234	-0,020	-0,018
-625,692	159,586	-0,070	0,071
-624,678	-200,000	-0,010	0,043
-623,663	-200,000	-0,013	-0,144
-622,649	-200,000	0,024	-0,082
-621,634	-200,000	0,004	-0,089
-620,619	-133,083	-0,012	0,001
-619,605	-122,452	0,058	-0,007
-618,590	28,719	-0,066	-0,041
-617,576	10,884	0,101	0,056
-616,561	800,000	-0,036	0,103
-615,546	-200,000	-0,023	-0,075
-614,532	112,624	-0,145	-0,128
-613,517	-108,647	0,081	-0,013
-612,503	126,483	-0,013	-0,012
-611,488	-176,986	0,077	-0,001
-610,474	353,193	-0,029	-0,043
-609,459	125,557	-0,147	-0,135
-608,444	-34,295	0,121	-0,048
-607,430	-200,000	-0,021	-0,214
-606,415	-88,964	0,144	0,031
-605,401	-200,000	-0,001	0,042
-604,386	-200,000	-0,009	-0,107
-603,371	359,771	-0,041	-0,059
-602,357	800,000	-0,060	-0,158
-601,342	-200,000	-0,029	-0,166
-600,328	-200,000	0,025	-0,109
-599,313	-55,714	0,032	-0,010
-598,298	-36,340	0,042	0,017
-597,284	585,785	0,033	0,060
-596,269	800,000	-0,023	-0,048
-595,255	102,118	-0,017	-0,015
-594,240	413,540	-0,032	0,050
-593,225	800,000	-0,023	-0,048
-592,211	71,437	-0,073	-0,055
-591,196	-200,000	-0,006	0,083
-590,182	-120,093	0,121	-0,015
-589,167	306,629	-0,052	0,071
-588,152	-200,000	-0,001	0,134
-587,138	267,381	-0,010	-0,013
-586,123	192,199	-0,119	-0,132
-585,109	-123,758	0,011	0,001
-584,094	308,497	0,044	0,060
-583,079	-200,000	0,018	0,075
-582,065	-200,000	-0,003	0,053
-581,050	-200,000	-0,005	-0,082
-580,036	-116,295	-0,160	-0,021
-579,021	45,730	0,088	-0,059
-578,006	660,550	-0,118	-0,222
-576,992	14,308	-0,060	-0,034
-575,977	800,000	0,044	0,102
-574,963	800,000	0,020	-0,061
-573,948	800,000	-0,044	-0,131
-572,934	-25,945	0,069	-0,030
-571,919	4,889	-0,116	-0,062
-570,904	800,000	-0,029	-0,090
-569,890	-200,000	0,012	-0,101
-568,875	-200,000	0,026	-0,096
-567,861	-200,000	-0,003	0,118
-566,846	-39,592	-0,089	0,034
-565,831	122,486	0,027	-0,025
-564,817	-128,956	-0,102	-0,010
-563,802	800,000	-0,097	-0,201
-562,788	138,794	-0,047	-0,045
-561,773	17,240	0,120	-0,070
-560,758	800,000	-0,034	-0,075
-559,744	-13,280	-0,039	-0,018
-558,729	800,000	-0,050	0,110
-557,715	355,474	-0,076	-0,111
-556,700	-200,000	-0,028	-0,161
-555,685	800,000	0,044	-0,096
-554,671	-118,160	0,108	0,014
-553,656	623,012	0,035	0,065
-552,642	7,162	-0,106	-0,057
-551,627	-104,126	0,069	0,012
-550,612	241,433	-0,044	-0,054
-549,598	-200,000	0,003	-0,040
-548,583	-41,222	-0,003	-0,001
-547,569	-42,618	-0,122	0,045
-546,554	236,013	0,032	0,038
-545,539	-200,000	-0,032	-0,119
-544,525	77,226	0,105	0,081
-543,510	800,000	-0,027	0,082
-542,496	-7,093	-0,013	-0,007
-541,481	14,306	0,061	0,035
-540,466	-154,117	0,020	-0,001
-539,452	27,038	-0,061	0,037
-538,437	-99,655	0,036	0,006
-537,423	-73,138	-0,119	-0,032
-536,408	-200,000	-0,053	-0,174
-535,393	-182,916	-0,091	-0,001
-534,379	-150,813	0,080	0,004
-533,364	-18,207	0,018	-0,008
-532,350	800,000	-0,072	0,157
-531,335	800,000	0,046	0,123
-530,321	-200,000	-0,015	0,072
-529,306	361,673	-0,036	-0,053
-528,291	-126,251	-0,048	-0,005
-527,277	-200,000	0,024	-0,175
-526,262	-67,337	-0,062	-0,018
-525,248	153,850	0,076	-0,076
-524,233	325,271	-0,088	0,124
-523,218	-200,000	-0,011	-0,040
-522,204	-200,000	-0,004	-0,029
-521,189	-30,087	-0,087	0,036
-520,175	15,565	-0,040	-0,023
-519,160	-82,009	0,063	0,015
-518,145	-15,696	0,093	0,043
-517,131	-90,824	-0,069	-0,014
-516,116	-200,000	0,019	0,085
-515,102	800,000	0,044	0,102
-514,087	642,606	-0,045	-0,084
-513,072	389,138	-0,055	0,083
-512,058	755,584	-0,065	0,129
-511,043	78,880	-0,186	0,145
-510,029	-138,516	0,230	-0,018
-509,014	800,000	0,036	-0,087
-507,999	266,164	0,051	0,065
-506,985	-80,768	-0,148	-0,036
-505,970	-200,000	-0,024	-0,081
-504,956	-90,823	0,020	-0,004
-503,941	271,903	-0,031	0,040
-502,926	800,000	-0,040	0,093
-501,912	262,142	0,095	0,120
-500,897	263,190	-0,040	0,051
-499,883	12,963	0,070	-0,040
-498,868	38,382	-0,065	-0,042
-497,853	-19,737	0,093	-0,042
-496,839	116,136	-0,068	-0,061
-495,824	63,927	0,070	-0,051
-494,810	66,402	0,055	-0,040
-493,795	-200,000	0,027	-0,174
-492,781	-107,823	-0,157	-0,025
-491,766	-35,858	-0,050	0,020
-490,751	-200,000	-0,016	-0,113
-489,737	221,513	0,041	-0,049
-488,722	473,731	0,024	-0,039
-487,708	-17,939	0,070	-0,032
-486,693	-200,000	-0,015	0,212
-485,678	-31,236	-0,073	0,030
-484,664	-1,407	0,084	0,043
-483,649	357,569	0,050	-0,072
-482,635	800,000	-0,061	-0,160
-481,620	800,000	-0,010	0,028
-480,605	17,912	0,045	0,026
-479,591	26,875	0,065	0,039
-478,576	-200,000	0,004	0,034
-477,562	-200,000	0,019	-0,067
-476,547	-66,847	-0,049	-0,014
-475,532	800,000	-0,034	-0,078
-474,518	674,722	-0,025	-0,047
-473,503	-99,418	0,059	-0,011
-472,489	36,451	-0,048	0,031
-471,474	-200,000	-0,012	0,118
-470,459	49,187	-0,109	-0,075
-469,445	800,000	0,041	-0,084
-468,430	-82,379	-0,079	0,018
-467,416	-127,447	0,018	-0,002
-466,401	-200,000	-0,014	0,061
-465,386	89,599	-0,138	0,112
-464,372	800,000	0,034	-0,089
-463,357	55,485	-0,067	-0,047
-462,343	-30,587	0,063	0,026
-461,328	392,187	0,032	0,049
-460,313	-143,568	0,063	-0,004
-459,299	-200,000	0,011	0,152
-458,284	91,536	-0,071	-0,058
-457,270	142,505	-0,021	-0,020
-456,255	109,026	-0,053	-0,046
-455,241	3,310	-0,109	0,057
-454,226	-200,000	0,018	0,129
-453,211	522,057	-0,090	0,155
-452,197	-13,703	0,061	0,029
-451,182	-74,771	0,026	0,007
-450,168	-105,540	-0,072	0,012
-449,153	-20,611	-0,129	-0,057
-448,138	-200,000	0,002	-0,105
-447,124	-58,403	-0,044	0,014
-446,109	436,978	-0,027	-0,042
-445,095	-141,728	0,177	0,013
-444,080	800,000	-0,034	0,071
-443,065	800,000	0,029	0,061
-442,051	800,000	0,042	0,088
-441,036	-200,000	0,016	-0,071
-440,022	274,414	-0,027	0,034
-439,007	800,000	0,024	-0,055
-437,992	84,985	0,105	-0,083
-436,978	-200,000	0,006	0,037
-435,963	283,215	-0,072	0,095
-434,949	-40,628	-0,034	-0,013
-433,934	681,072	0,102	-0,195
-432,919	9,667	-0,079	-0,044
-431,905	254,671	-0,037	-0,046
-430,890	800,000	0,034	-0,085
-429,876	-172,883	0,055	0,001
-428,861	73,808	0,092	0,070
-427,846	-200,000	0,011	0,098
-426,832	476,112	0,052	0,085
-425,817	-200,000	-0,023	-0,127
-424,803	726,254	-0,066	-0,128
-423,788	-200,000	-0,005	-0,018
-422,773	-200,000	0,002	0,015
-421,759	77,997	0,050	0,039
-420,744	-99,034	0,092	0,017
-419,730	58,843	-0,059	-0,042
-418,715	561,840	-0,066	-0,116
-417,701	-149,323	0,074	-0,004
-416,686	-39,341	0,089	-0,034
-415,671	495,190	0,028	0,047
-414,657	170,350	-0,026	-0,027
-413,642	-200,000	-0,006	0,035
-412,628	9,648	-0,005	-0,003
-411,613	132,146	-0,128	-0,120
-410,598	-200,000	-0,006	0,050
-409,584	225,332	0,099	-0,116
-408,569	-6,748	-0,034	0,017
-407,555	-127,065	0,114	0,012
-406,540	800,000	-0,017	-0,053
-405,525	800,000	0,016	-0,041
-404,511	-166,550	-0,212	0,006
-403,496	-200,000	0,004	-0,078
-402,482	-200,000	0,017	-0,066
-401,467	137,611	0,031	0,030
-400,452	-200,000	-0,006	0,110
-399,438	-68,676	-0,210	0,059
-398,423	-82,446	-0,052	-0,012
-397,409	-200,000	-0,037	-0,124
-396,394	406,922	-0,047	-0,072
-395,379	800,000	0,024	0,069
-394,365	4,309	0,077	-0,041
-393,350	-129,084	0,023	-0,002
-392,336	-7,568	-0,137	0,067
-391,321	789,727	0,045	0,091
-390,306	477,855	0,004	-0,007
-389,292	800,000	0,019	-0,040
-388,277	-200,000	0,008	-0,078
-387,263	32,066	0,043	0,027
-386,248	800,000	0,028	-0,060
-385,233	214,008	0,144	0,165
-384,219	-178,067	-0,033	0,001
-383,204	285,643	-0,085	-0,112
-382,190	16,332	-0,034	-0,019
-381,175	800,000	0,051	0,127
-380,160	147,849	-0,115	0,112
-379,146	26,519	-0,100	0,061
-378,131	-76,018	-0,045	0,011
-377,117	136,569	-0,027	0,026
-376,102	240,317	-0,026	0,032
-375,088	12,774	-0,097	-0,054
-374,073	-135,881	-0,052	-0,004
-373,058	-59,404	0,165	-0,051
-372,044	99,643	0,065	-0,055
-371,029	-54,509	-0,083	-0,027
-370,015	376,555	0,041	0,061
-369,000	800,000	0,028	0,083
-367,985	430,489	0,071	-0,112
-366,971	5,110	0,034	-0,018
-365,956	181,991	-0,012	-0,013
-364,942	241,443	0,053	-0,064
-363,927	136,294	-0,099	0,094
-362,912	-200,000	-0,005	0,071
-361,898	-200,000	-0,019	-0,061
-360,883	-43,402	-0,005	0,002
-359,869	800,000	0,026	-0,066
-358,854	-127,234	0,104	0,011
-357,839	-200,000	0,005	0,057
-356,825	-200,000	-0,001	0,013
-355,810	-200,000	-0,037	0,189
-354,796	318,837	0,036	0,050
-353,781	75,748	0,020	-0,015
-352,766	265,977	0,045	-0,057
-351,752	59,639	0,021	-0,015
-350,737	-200,000	-0,004	-0,118
-349,723	800,000	-0,044	0,118
-348,708	405,326	0,027	0,041
-347,693	125,769	0,092	0,084
-346,679	304,480	-0,022	0,030
-345,664	800,000	-0,037	-0,086
-344,650	800,000	0,023	0,061
-343,635	-133,250	0,027	0,002
-342,620	82,669	-0,100	0,078
-341,606	800,000	-0,025	0,062
-340,591	53,838	-0,125	-0,087
-339,577	-27,628	0,011	0,005
-338,562	267,916	0,016	-0,021
-337,548	800,000	-0,026	-0,058
-336,533	800,000	0,023	0,072
-335,518	-39,635	0,091	0,034
-334,504	713,205	0,059	0,113
-333,489	-27,702	-0,064	-0,027
-332,475	-16,474	0,020	-0,009
-331,460	-200,000	-0,006	-0,190
-330,445	-39,141	0,073	0,027
-329,431	81,714	0,154	0,121
-328,416	-1,282	-0,051	0,026
-327,402	-117,976	-0,018	0,002
-326,387	25,260	-0,047	0,028
-325,372	42,038	-0,042	-0,028
-324,358	183,638	-0,075	-0,080
-323,343	-200,000	-0,004	0,145
-322,329	-200,000	-0,005	-0,056
-321,314	-47,425	-0,044	0,015
-320,299	60,726	-0,016	-0,012
-319,285	715,712	0,048	-0,092
-318,270	-200,000	0,002	0,043
-317,256	-116,171	-0,114	-0,015
-316,241	230,539	-0,021	0,025
-315,226	800,000	-0,065	0,135
-314,212	800,000	0,055	0,124
-313,197	330,598	0,014	-0,020
-312,183	-200,000	0,002	-0,019
-311,168	108,838	-0,057	0,049
-310,153	259,012	-0,044	-0,055
-309,139	2,054	0,028	0,014
-308,124	74,535	0,063	-0,048
-307,110	204,067	-0,054	0,061
-306,095	244,655	-0,094	0,114
-305,080	368,647	0,027	-0,039
-304,066	436,895	-0,015	-0,024
-303,051	-34,381	0,213	-0,084
-302,037	-12,607	0,023	0,011
-301,022	49,729	0,098	0,067
-300,008	-71,486	0,080	-0,021
-298,993	42,295	0,086	0,056
-297,978	-200,000	0,002	0,131
-296,964	20,411	-0,095	-0,055
-295,949	28,409	0,053	0,032
-294,935	448,736	0,065	0,104
-293,920	363,667	0,112	-0,164
-292,905	-7,042	-0,096	-0,047
-291,891	800,000	-0,032	-0,070
-290,876	-200,000	-0,012	0,073
-289,862	130,976	0,026	0,024
-288,847	-126,159	-0,099	0,011
-287,832	214,699	-0,102	-0,117
-286,818	41,436	0,054	0,035
-285,803	-40,054	0,104	0,039
-284,789	-72,978	0,073	-0,019
-283,774	-120,584	-0,064	0,008
-282,759	-13,382	0,081	0,038
-281,745	-181,762	0,070	-0,001
-280,730	-200,000	-0,005	-0,042
-279,716	-66,052	0,086	-0,025
-278,701	-104,690	0,128	0,021
-277,686	-200,000	-0,007	-0,113
-276,672	617,614	-0,056	0,102
-275,657	-200,000	0,008	-0,055
-274,643	800,000	0,009	-0,026
-273,628	-129,629	0,153	0,015
-272,613	498,307	-0,041	0,068
-271,599	800,000	0,050	0,101
-270,584	-33,437	0,157	-0,062
-269,570	-130,776	-0,086	0,008
-268,555	134,598	0,128	0,120
-267,540	-200,000	0,005	-0,070
-266,526	-200,000	0,016	-0,067
-265,511	-200,000	-0,003	0,031
-264,497	430,731	-0,045	0,070
-263,482	139,352	0,055	0,052
-262,467	-200,000	-0,021	0,094
-261,453	-200,000	0,001	-0,135
-260,438	-200,000	0,006	-0,040
-259,424	-60,077	0,105	-0,032
-258,409	-200,000	-0,019	0,091
-257,395	-45,755	0,009	0,003
-256,380	-124,366	0,083	-0,009
-255,365	800,000	0,022	0,060
-254,351	-42,209	0,093	0,034
-253,336	-44,791	-0,083	0,030
-252,322	-91,803	-0,048	-0,010
-251,307	170,841	0,033	0,034
-250,292	343,543	0,078	-0,111
-249,278	-200,000	0,008	0,074
-248,263	-200,000	-0,007	-0,085
-247,249	-200,000	0,003	-0,040
-246,234	4,914	-0,036	-0,019
-245,219	-136,502	0,056	-0,005
-244,205	-81,748	-0,068	-0,016
-243,190	-43,983	0,188	-0,068
-242,176	206,102	0,112	0,126
-241,161	37,124	0,081	0,052
-240,146	-128,906	-0,079	-0,008
-239,132	263,699	-0,030	0,038
-238,117	-33,230	-0,109	-0,043
-237,103	800,000	0,038	0,096
-236,088	190,623	0,083	0,090
-235,073	-200,000	0,013	-0,050
-234,059	21,611	-0,044	0,026
-233,044	-56,197	0,117	0,037
-232,030	-200,000	0,022	0,162
-231,015	800,000	-0,049	0,113
-230,000	315,555	-0,064	-0,087
-228,986	141,922	-0,072	0,069
-227,971	-200,000	0,039	0,194
-226,957	-46,781	-0,138	-0,048
-225,942	10,460	0,026	0,014
-224,927	47,235	0,081	0,054
-223,913	800,000	0,015	-0,034
-222,898	92,163	0,020	-0,017
-221,884	189,076	0,036	-0,039
-220,869	108,490	0,080	0,069
-219,855	800,000	-0,043	0,133
-218,840	-18,335	-0,060	0,027
-217,825	-130,736	-0,076	-0,007
-216,811	-200,000	-0,002	-0,022
-215,796	86,635	0,035	0,028
-214,782	-200,000	-0,022	0,116
-213,767	40,550	0,127	0,082
-212,752	-133,254	0,048	-0,004
-211,738	-200,000	-0,016	-0,137
-210,723	-200,000	-0,029	0,093
-209,709	-163,521	-0,059	0,002
-208,694	-200,000	-0,008	-0,086
-207,679	623,010	-0,051	0,093
-206,665	206,514	0,064	0,072
-205,650	-200,000	-0,001	0,034
-204,636	800,000	0,035	0,105
-203,621	-115,459	0,035	0,005
-202,606	-87,421	-0,065	0,014
-201,592	-200,000	0,010	-0,116
-200,577	-16,996	0,062	0,028
-199,563	-200,000	0,025	-0,110
-198,548	-200,000	-0,006	0,124
-197,533	584,273	0,098	0,173
-196,519	-200,000	-0,000	0,178
-195,504	98,454	-0,050	0,042
-194,490	-200,000	-0,003	-0,098
-193,475	-25,224	0,101	0,043
-192,460	-99,421	0,012	0,002
-191,446	800,000	0,032	-0,076
-190,431	-93,407	0,137	0,027
-189,417	-5,949	0,058	-0,029
-188,402	-200,000	0,003	-0,122
-187,387	-200,000	0,001	-0,034
-186,373	209,886	0,120	0,136
-185,358	-53,858	-0,049	0,016
-184,344	800,000	0,034	0,080
-183,329	-140,533	0,101	0,007
-182,315	-85,486	0,062	-0,014
-181,300	-200,000	-0,001	0,048
-180,285	-181,202	-0,076	-0,001
-179,271	96,712	-0,048	-0,040
-178,256	-56,422	0,027	0,009
-177,242	-150,471	0,041	-0,002
-176,227	800,000	0,041	0,103
-175,212	-200,000	0,000	0,014
-174,198	-200,000	-0,014	-0,095
-173,183	410,459	0,051	-0,078
-172,169	165,652	-0,043	-0,044
-171,154	117,220	-0,125	0,110
-170,139	-78,904	0,112	0,027
-169,125	40,449	0,075	0,048
-168,110	800,000	-0,029	0,073
-167,096	-200,000	0,002	0,077
-166,081	144,762	-0,041	-0,040
-165,066	-200,000	0,007	-0,112
-164,052	-64,952	-0,153	-0,044
-163,037	-82,884	-0,119	0,027
-162,023	-10,952	0,090	-0,043
-161,008	800,000	-0,029	0,093
-159,993	-104,554	-0,041	0,007
-158,979	-200,000	0,032	-0,124
-157,964	-200,000	-0,028	0,105
-156,950	-200,000	0,025	-0,120
-155,935	800,000	0,013	0,027
-154,920	774,536	-0,038	0,076
-153,906	-60,238	0,159	0,048
-152,891	19,743	-0,108	-0,062
-151,877	-23,275	-0,033	0,014
-150,862	-124,951	-0,138	0,015
-149,847	-48,729	-0,140	0,048
-148,833	629,181	0,073	-0,132
-147,818	-200,000	0,010	0,034
-146,804	-200,000	0,013	-0,052
-145,789	-144,361	0,062	-0,004
-144,775	-161,044	0,059	0,002
-143,760	-200,000	-0,020	-0,068
-142,745	124,409	0,056	-0,051
-141,731	800,000	0,047	0,096
-140,716	243,706	0,048	-0,058
-139,702	303,583	0,014	0,018
-138,687	-126,785	-0,092	0,010
-137,672	-200,000	-0,001	-0,092
-136,658	-200,000	0,012	-0,057
-135,643	246,541	-0,057	0,069
-134,629	-200,000	0,001	0,030
-133,614	-12,957	-0,036	0,017
-132,599	-200,000	0,010	0,043
-131,585	63,331	0,080	-0,058
-130,570	144,737	0,051	-0,049
-129,556	-105,837	0,043	-0,007
-128,541	-200,000	0,001	-0,071
-127,526	27,570	0,018	-0,011
-126,512	-61,701	0,092	0,027
-125,497	208,580	0,111	0,124
-124,483	-116,655	0,088	-0,011
-123,468	-185,111	-0,107	-0,001
-122,453	573,898	-0,061	0,107
-121,439	163,389	-0,114	0,115
-120,424	-200,000	0,025	-0,090
-119,410	-1,846	0,094	0,047
-118,395	-200,000	-0,010	-0,080
-117,380	-200,000	0,006	0,024
-116,366	-200,000	0,030	0,175
-115,351	-200,000	-0,039	-0,197
-114,337	182,929	-0,053	0,056
-113,322	101,136	-0,070	-0,058
-112,307	-200,000	0,015	-0,117
-111,293	45,237	0,085	0,056
-110,278	-200,000	0,019	0,162
-109,264	-1,548	0,104	-0,052
-108,249	800,000	0,012	0,034
-107,234	375,978	-0,054	-0,080
-106,220	-48,608	-0,184	-0,063
-105,205	-200,000	0,004	-0,016
-104,191	800,000	0,037	0,077
-103,176	-17,978	0,063	0,028
-102,162	800,000	-0,044	-0,092
-101,147	800,000	-0,043	-0,134
-100,132	-48,719	0,066	0,022
-99,118	751,765	0,038	-0,075
-98,103	604,547	-0,049	0,088
-97,089	5,810	0,125	0,066
-96,074	-1,711	0,057	0,029
-95,059	-200,000	0,009	-0,037
-94,045	-115,394	-0,119	-0,016
-93,030	800,000	-0,027	-0,061
-92,016	-43,370	0,046	0,017
-91,001	-200,000	0,007	-0,038
-89,986	-77,923	0,092	-0,023
-88,972	-2,485	0,168	0,084
-87,957	260,519	0,046	0,057
-86,943	-200,000	0,038	-0,123
-85,928	131,926	-0,004	0,004
-84,913	-41,320	-0,058	-0,021
-83,899	-200,000	-0,023	-0,156
-82,884	-68,262	0,093	-0,026
-81,870	56,374	0,073	-0,051
-80,855	686,234	0,025	0,047
-79,840	-200,000	-0,044	-0,151
-78,826	536,921	-0,032	-0,054
-77,811	13,306	0,031	-0,017
-76,797	127,555	0,076	0,069
-75,782	800,000	0,050	0,121
-74,767	800,000	0,025	0,073
-73,753	-200,000	0,025	0,087
-72,738	-47,738	0,136	-0,047
-71,724	563,639	-0,022	-0,039
-70,709	129,581	-0,093	-0,085
-69,694	-64,901	0,209	-0,060
-68,680	295,624	-0,045	-0,059
-67,665	173,026	0,063	0,065
-66,651	407,271	0,034	0,052
-65,636	92,371	-0,046	-0,037
-64,622	800,000	-0,014	-0,029
-63,607	-200,000	-0,001	0,016
-62,592	201,977	0,093	-0,103
-61,578	77,597	-0,061	0,046
-60,563	-200,000	0,015	0,062
-59,549	-10,363	-0,130	-0,061
-58,534	22,692	-2,380	-1,392
-57,519	-200,000	0,084	-0,695
-56,505	-200,000	-1,475	-5,214
-55,490	130,740	0,942	0,865
-54,476	800,000	5,414	12,126
-53,461	-200,000	18,930	318,648
-52,446	800,000	741,065	2323,095
-51,432	549,775	1654,456	2851,335
-50,417	109,941	1637,797	1406,595
-49,403	73,575	1288,100	964,907
-48,388	29,600	1029,692	625,755
-47,373	19,603	992,538	570,132
-46,359	16,985	980,001	554,310
-45,344	13,594	976,390	541,125
-44,330	13,936	974,671	541,271
-43,315	13,295	972,902	538,169
-42,300	13,194	971,850	537,237
-41,286	13,241	970,896	536,842
-40,271	13,263	969,976	536,382
-39,257	13,218	969,062	535,708
-38,242	13,245	968,304	535,358
-37,227	13,244	967,422	534,846
-36,213	13,287	966,321	534,355
-35,198	13,209	965,552	533,655
-34,184	13,307	964,880	533,579
-33,169	13,185	963,913	532,629
-32,154	13,280	962,701	532,245
-31,140	13,246	962,125	531,797
-30,125	13,234	961,318	531,291
-29,111	13,286	960,488	530,978
-28,096	13,254	959,818	530,483
-27,082	13,277	959,123	530,154
-26,067	13,283	958,387	529,743
-25,052	13,262	957,687	529,267
-24,038	13,218	956,859	528,649
-23,023	13,241	956,374	528,434
-22,009	13,285	955,837	528,256
-20,994	13,199	955,176	527,594
-19,979	13,252	954,436	527,335
-18,965	13,264	953,804	527,003
-17,950	13,329	953,178	526,844
-16,936	13,272	952,459	526,243
-15,921	13,176	952,145	525,744
-14,906	13,166	951,215	525,177
-13,892	13,173	950,614	524,846
-12,877	13,123	949,927	524,284
-11,863	13,044	949,264	523,648
-10,848	13,094	948,893	523,582
-9,833	13,244	948,192	523,651
-8,819	13,253	947,621	523,343
-7,804	13,141	946,902	522,570
-6,790	13,107	946,393	522,160
-5,775	13,188	946,013	522,188
-4,760	13,207	945,159	521,756
-3,746	13,171	944,585	521,305
-2,731	13,001	943,902	520,366
-1,717	13,049	943,031	520,018
-0,702	12,939	942,610	519,416
0,313	12,717	941,926	519,120
1,327	16,238	939,564	528,893
2,342	25,249	790,533	468,752
3,356	21,377	445,093	258,158
4,371	-8,002	298,137	143,301
5,386	-11,657	279,785	130,976
6,400	-13,081	274,226	127,028
7,415	-12,987	271,717	125,942
8,429	-13,012	270,299	125,250
9,444	-13,389	269,493	124,518
10,459	-13,165	268,645	124,321
11,473	-13,399	268,179	123,880
12,488	-13,310	267,551	123,660
13,502	-13,422	266,974	123,280
14,517	-13,425	266,555	123,073
15,531	-13,512	266,042	122,746
16,546	-13,374	265,881	122,787
17,561	-13,205	265,404	122,708
18,575	-13,180	265,298	122,671
19,590	-13,441	264,781	122,185
20,604	-13,251	264,468	122,201
21,619	-13,279	264,041	121,968
22,634	-13,476	263,999	121,760
23,648	-13,561	263,464	121,426
24,663	-13,505	263,172	121,331
25,677	-13,353	262,939	121,350
26,692	-13,389	262,683	121,187
27,707	-13,551	262,453	120,925
28,721	-13,274	262,091	120,996
29,736	-13,432	261,740	120,682
30,750	-13,521	261,546	120,502
31,765	-13,358	261,338	120,541
32,780	-13,456	261,158	120,360
33,794	-13,522	260,792	120,122
34,809	-13,422	260,577	120,101
35,823	-13,541	260,342	119,877
36,838	-13,682	260,042	119,603
37,853	-13,577	259,819	119,582
38,867	-13,435	259,523	119,561
39,882	-13,544	259,382	119,389
40,896	-13,394	258,948	119,311
41,911	-13,622	258,911	119,083
42,926	-13,505	258,542	119,005
43,940	-13,712	258,391	118,742
44,955	-13,662	258,159	118,670
45,969	-13,677	257,765	118,464
46,984	-13,827	257,642	118,265
47,999	-13,901	257,282	118,025
49,013	-14,160	257,139	117,722
50,028	-14,382	256,811	117,367
51,042	-14,249	256,631	117,391
52,057	-14,486	256,374	117,056
53,071	-14,181	256,129	117,199
54,086	-14,119	255,940	117,156
55,101	-14,067	255,926	117,185
56,115	-13,861	255,831	117,311
57,130	-13,356	255,603	117,635
58,144	-13,433	255,463	117,492
59,159	-13,276	255,263	117,527
60,174	-13,225	255,068	117,471
61,188	-13,326	254,848	117,272
62,203	-13,325	254,544	117,122
63,217	-13,349	254,227	116,944
64,232	-13,465	254,182	116,813
65,247	-13,285	253,772	116,770
66,261	-13,326	253,642	116,665
67,276	-13,623	253,353	116,265
68,290	-13,893	253,033	115,875
69,305	-13,940	252,843	115,738
70,320	-13,965	252,741	115,659
71,334	-13,776	252,540	115,719
72,349	-13,350	252,442	116,030
73,363	-13,224	252,196	116,014
74,378	-13,364	252,001	115,794
75,393	-13,369	251,702	115,642
76,407	-13,407	251,621	115,563
77,422	-13,538	251,239	115,265
78,436	-13,526	251,099	115,200
79,451	-13,245	250,814	115,299
80,466	-13,492	250,550	114,957
81,480	-13,755	250,404	114,656
82,495	-13,606	250,083	114,625
83,509	-13,711	250,037	114,505
84,524	-13,581	249,867	114,527
85,539	-13,836	249,357	114,068
86,553	-13,953	249,349	113,955
87,568	-13,897	249,236	113,940
88,582	-13,786	249,048	113,938
89,597	-13,875	248,935	113,800
90,611	-13,692	248,676	113,826
91,626	-13,519	248,487	113,876
92,641	-13,481	248,166	113,751
93,655	-13,582	248,141	113,644
94,670	-13,546	247,904	113,556
95,684	-13,551	247,756	113,473
96,699	-13,718	247,610	113,256
97,714	-13,770	247,332	113,075
98,728	-13,809	247,111	112,931
99,743	-13,809	246,855	112,804
100,757	-13,760	246,587	112,713
101,772	-13,856	246,539	112,601
102,787	-13,697	246,350	112,637
103,801	-13,658	246,279	112,627
104,816	-13,562	245,898	112,523
105,830	-13,477	245,888	112,580
106,845	-13,371	245,638	112,542
107,860	-13,676	245,503	112,217
108,874	-13,699	245,318	112,104
109,889	-13,604	244,926	111,993
110,903	-13,778	244,808	111,785
111,918	-13,699	244,634	111,761
112,933	-13,456	244,504	111,893
113,947	-13,594	244,373	111,709
114,962	-13,713	244,246	111,542
115,976	-13,401	243,938	111,649
116,991	-13,477	243,825	111,525
118,006	-13,617	243,775	111,377
119,020	-13,609	243,536	111,265
120,035	-13,735	243,577	111,169
121,049	-13,359	243,218	111,305
122,064	-13,414	243,001	111,150
123,079	-13,472	242,621	110,919
124,093	-13,579	242,483	110,758
125,108	-13,726	242,367	110,575
126,122	-13,871	242,106	110,327
127,137	-14,044	241,922	110,092
128,151	-13,915	241,646	110,062
129,166	-13,729	241,579	110,173
130,181	-13,780	241,250	109,972
131,195	-13,987	241,219	109,780
132,210	-13,578	240,936	109,974
133,224	-13,463	240,831	110,010
134,239	-13,437	240,593	109,912
135,254	-13,608	240,530	109,735
136,268	-13,619	240,230	109,579
137,283	-14,026	240,038	109,152
138,297	-13,922	239,785	109,111
139,312	-14,042	239,615	108,926
140,327	-13,699	239,588	109,183
141,341	-13,187	239,546	109,568
142,356	-13,123	239,486	109,582
143,370	-13,252	239,163	109,321
144,385	-12,941	239,000	109,488
145,400	-13,131	238,828	109,246
146,414	-13,404	238,608	108,915
147,429	-13,105	238,417	109,059
148,443	-13,369	238,305	108,786
149,458	-13,170	238,014	108,804
150,473	-13,059	237,823	108,795
151,487	-13,339	237,654	108,484
152,502	-13,236	237,522	108,497
153,516	-13,044	237,340	108,558
154,531	-13,169	237,140	108,356
155,546	-13,216	237,015	108,252
156,560	-13,304	236,727	108,041
157,575	-13,468	236,578	107,832
158,589	-13,367	236,361	107,804
159,604	-13,448	236,392	107,743
160,619	-12,861	236,045	108,043
161,633	-13,227	236,055	107,747
162,648	-13,040	236,017	107,869
163,662	-13,063	235,589	107,645
164,677	-13,260	235,589	107,479
165,692	-13,159	235,397	107,463
166,706	-13,202	235,290	107,369
167,721	-13,231	235,204	107,298
168,735	-13,269	235,048	107,188
169,750	-13,147	234,769	107,147
170,764	-13,067	234,668	107,154
171,779	-13,263	234,604	106,961
172,794	-12,859	234,255	107,111
173,808	-13,372	234,147	106,647
174,823	-13,655	233,752	106,235
175,837	-13,884	233,497	105,929
176,852	-13,505	233,617	106,273
177,867	-13,455	233,642	106,314
178,881	-13,126	233,450	106,476
179,896	-13,145	233,330	106,397
180,910	-13,018	233,055	106,361
181,925	-13,059	232,899	106,249
182,940	-13,084	232,704	106,130
183,954	-13,158	232,555	105,995
184,969	-13,100	232,715	106,104
185,983	-12,871	232,307	106,088
186,998	-12,842	232,073	105,994
188,013	-12,862	231,970	105,922
189,027	-12,919	231,831	105,804
190,042	-12,907	231,628	105,711
191,056	-13,060	231,573	105,558
192,071	-12,944	231,373	105,548
193,086	-13,143	231,141	105,278
194,100	-13,129	231,018	105,223
195,115	-13,515	230,497	104,678
196,129	-13,155	230,762	105,068
197,144	-7,926	232,398	109,884
198,159	-2,641	234,058	114,804
199,173	1,797	235,492	118,990
200,188	2,582	235,571	119,636
201,202	2,705	235,284	119,576
202,217	2,590	235,132	119,398
203,232	3,021	234,899	119,607
204,246	3,012	234,828	119,553
205,261	3,135	234,787	119,618
206,275	3,181	234,658	119,577
207,290	3,182	234,463	119,468
208,304	3,233	234,193	119,360
209,319	3,002	234,119	119,131
210,334	2,986	233,994	119,044
211,348	2,850	233,640	118,748
212,363	2,395	233,561	118,343
213,377	2,209	233,332	118,072
214,392	2,332	233,141	118,060
215,407	2,196	233,063	117,905
216,421	2,709	232,911	118,215
217,436	2,465	232,719	117,918
218,450	1,828	232,672	117,390
219,465	2,077	232,354	117,412
220,480	2,329	232,039	117,437
221,494	2,102	232,056	117,260
222,509	2,445	231,928	117,449
223,523	2,590	231,845	117,509
224,538	2,130	231,716	117,078
225,553	2,599	231,471	117,305
226,567	2,302	231,156	116,907
227,582	2,610	231,276	117,194
228,596	2,745	231,241	117,269
229,611	2,399	230,945	116,843
230,626	2,179	230,566	116,473
231,640	2,527	230,488	116,689
232,655	2,438	230,401	116,566
233,669	2,756	230,238	116,717
234,684	3,010	230,218	116,891
235,699	2,662	230,090	116,549
236,713	2,495	229,859	116,294
237,728	2,440	229,660	116,142
238,742	2,462	229,419	116,026
239,757	2,435	229,348	115,959
240,772	2,548	229,020	115,869
241,786	2,254	229,145	115,698
242,801	2,450	229,040	115,783
243,815	2,652	229,042	115,928
244,830	2,617	228,878	115,808
245,844	2,250	228,482	115,319
246,859	2,451	228,418	115,429
247,874	2,692	228,248	115,515
248,888	2,719	227,981	115,390
249,903	2,480	227,971	115,195
250,917	2,229	227,961	114,989
251,932	2,410	227,535	114,900
252,947	2,070	227,509	114,620
253,961	2,194	227,211	114,554
254,976	2,314	227,132	114,594
255,990	2,588	227,002	114,724
257,005	2,597	226,795	114,616
258,020	2,520	226,884	114,593
259,034	2,732	226,669	114,633
260,049	2,721	226,423	114,491
261,063	2,749	226,164	114,371
262,078	2,668	226,206	114,321
263,093	3,054	226,072	114,532
264,107	2,724	225,965	114,221
265,122	2,610	225,913	114,099
266,136	2,975	225,695	114,252
267,151	2,964	225,476	114,122
268,166	2,273	225,321	113,518
269,180	2,167	225,003	113,268
270,195	2,207	224,954	113,263
271,209	2,465	224,771	113,353
272,224	2,414	224,655	113,247
273,239	2,369	224,682	113,217
274,253	2,533	224,222	113,097
275,268	2,358	224,053	112,872
276,282	2,063	224,046	112,639
277,297	2,196	223,883	112,646
278,312	2,123	223,783	112,531
279,326	2,367	223,662	112,641
280,341	2,310	223,559	112,537
281,355	2,646	223,268	112,629
282,370	2,438	223,248	112,455
283,384	2,356	223,078	112,299
284,399	2,021	222,788	111,896
285,414	2,040	222,779	111,895
286,428	2,238	222,639	111,961
287,443	2,556	222,584	112,157
288,457	2,694	222,354	112,133
289,472	2,481	222,174	111,875
290,487	2,027	221,952	111,420
291,501	1,957	221,868	111,317
292,516	1,993	221,573	111,186
293,530	2,165	221,469	111,250
294,545	1,961	221,457	111,084
295,560	2,139	221,418	111,185
296,574	2,248	221,303	111,197
297,589	2,534	220,964	111,225
298,603	2,496	220,886	111,148
299,618	2,231	220,717	110,860
300,633	2,512	220,673	111,033
301,647	2,864	220,587	111,237
302,662	2,750	220,459	111,079
303,676	2,668	220,291	110,925
304,691	2,530	220,145	110,741
305,706	2,779	220,094	110,887
306,720	2,875	219,811	110,804
307,735	2,458	219,640	110,405
308,749	2,396	219,382	110,221
309,764	2,546	219,401	110,329
310,779	2,757	219,301	110,422
311,793	2,744	219,058	110,280
312,808	2,569	219,052	110,141
313,822	2,641	218,711	110,012
314,837	2,437	218,697	109,848
315,852	2,085	218,456	109,462
316,866	2,407	218,495	109,705
317,881	2,597	218,209	109,688
318,895	2,482	218,149	109,566
319,910	2,182	217,958	109,244
320,925	2,007	217,731	108,995
321,939	1,777	217,588	108,748
322,954	2,044	217,483	108,878
323,968	2,450	217,524	109,180
324,983	2,629	217,525	109,299
325,997	2,715	217,299	109,238
327,012	2,691	217,098	109,109
328,027	2,658	216,887	108,970
329,041	2,999	216,873	109,197
330,056	2,803	216,752	108,986
331,070	2,344	216,448	108,496
332,085	2,399	216,230	108,416
333,100	2,349	216,087	108,299
334,114	2,586	216,048	108,439
335,129	2,445	215,930	108,269
336,143	2,329	215,715	108,070
337,158	2,417	215,635	108,083
338,173	2,409	215,379	107,939
339,187	2,031	215,186	107,565
340,202	2,101	215,274	107,649
341,216	2,484	215,114	107,831
342,231	2,535	214,935	107,768
343,246	2,579	214,784	107,714
344,260	2,414	214,709	107,550
345,275	2,499	214,563	107,527
346,289	2,643	214,469	107,572
347,304	2,761	214,284	107,552
348,319	2,464	214,217	107,300
349,333	2,360	214,036	107,126
350,348	2,666	213,871	107,250
351,362	2,757	213,817	107,277
352,377	2,677	213,652	107,128
353,392	2,514	213,439	106,897
354,406	2,629	213,283	106,891
355,421	197,314	1313,464	1392,105
356,435	157,876	1447,448	1392,050
