DTS Sentinel unit serial number:	SN410029Multiplexer serial number:	ORYXHardware model number:	OX2-SRSoftware version number:	ORYX F/W v4,00 Oryx Data Collector v3.7.2.0data status	okinstallation	B6 Nyhavnadifferential loss correction	single-endedforward channel	channel 2reverse channel	N/Adate	2023/12/10time	23:40:08forward acquisition time	300,00reverse acquisition time	0,00gamma	499,1914k internal	0,3122k external	0,3122temperature offset calibration	1,0000default loss term (dB/km)	0,3820temperature slope calibration	1,0000multiplexer offset coefficient	1,0000multiplexer slope coefficient	1,0000fibre end	0,00T internal ref (°C)	22,39T ext. ref 1 (°C)	6,10T ext. ref 2 (°C)	6,12length (m)	temperature (°C)	Stokes	anti-Stokes-744,400	-158,709	0,027	-0,001
-743,385	-71,649	-0,261	0,072
-742,371	669,041	0,032	-0,063
-741,356	-3,754	-0,304	0,157
-740,342	435,438	0,118	0,192
-739,327	-137,390	-0,335	-0,028
-738,312	-200,000	0,006	-0,030
-737,298	-140,183	-0,173	0,013
-736,283	351,997	0,079	-0,117
-735,269	22,882	-0,225	0,137
-734,254	124,820	0,063	0,059
-733,239	-32,630	-0,494	-0,204
-732,225	-92,344	0,092	-0,019
-731,210	-25,990	0,042	0,018
-730,196	399,135	0,081	-0,127
-729,181	104,494	-0,019	-0,017
-728,167	-200,000	0,045	0,000
-727,152	278,464	-0,065	-0,086
-726,137	-186,933	-0,047	-0,000
-725,123	44,730	-0,079	-0,054
-724,108	800,000	-0,042	-0,129
-723,094	-40,298	-0,079	0,030
-722,079	76,135	-0,076	-0,060
-721,064	425,438	0,083	-0,133
-720,050	51,082	0,099	-0,070
-719,035	-200,000	-0,035	0,124
-718,021	124,512	-0,024	0,022
-717,006	-33,165	-0,090	-0,037
-715,991	-200,000	-0,022	-0,105
-714,977	517,035	0,045	-0,080
-713,962	631,286	-0,031	0,058
-712,948	72,186	0,003	-0,003
-711,933	-200,000	0,018	0,067
-710,918	-200,000	-0,009	-0,087
-709,904	68,630	-0,033	0,025
-708,889	53,474	-0,071	-0,051
-707,875	-32,665	-0,147	-0,061
-706,860	800,000	0,035	-0,084
-705,845	527,416	0,036	-0,063
-704,831	-123,961	-0,120	0,014
-703,816	441,513	0,027	0,044
-702,802	-200,000	-0,010	-0,104
-701,787	118,818	0,070	-0,065
-700,772	33,446	0,041	0,026
-699,758	-3,038	-0,144	-0,074
-698,743	800,000	0,036	-0,104
-697,729	122,126	-0,026	0,024
-696,714	-200,000	0,008	0,029
-695,699	-41,328	-0,145	-0,055
-694,685	201,436	-0,101	-0,116
-693,670	455,660	-0,022	-0,037
-692,656	-200,000	-0,010	0,086
-691,641	123,260	0,042	-0,039
-690,627	-119,391	-0,115	0,015
-689,612	53,921	-0,114	-0,081
-688,597	8,802	0,073	0,041
-687,583	139,804	0,096	-0,094
-686,568	800,000	0,056	-0,136
-685,554	176,866	0,056	0,061
-684,539	35,772	0,024	0,016
-683,524	-107,090	-0,052	0,008
-682,510	800,000	-0,068	0,142
-681,495	-115,663	-0,112	0,015
-680,481	-23,672	-0,084	-0,037
-679,466	-82,849	0,016	-0,004
-678,451	48,488	-0,053	0,037
-677,437	511,481	-0,038	-0,066
-676,422	-200,000	-0,017	0,102
-675,408	76,836	0,055	0,043
-674,393	-0,112	-0,069	0,037
-673,378	1,391	-0,187	0,100
-672,364	193,140	-0,015	0,017
-671,349	-200,000	-0,031	-0,178
-670,335	-200,000	0,014	-0,183
-669,320	14,521	0,117	-0,068
-668,305	79,358	-0,027	-0,022
-667,291	57,317	-0,074	0,053
-666,276	800,000	-0,054	-0,160
-665,262	800,000	0,004	-0,011
-664,247	-200,000	-0,046	-0,154
-663,232	-200,000	-0,012	-0,118
-662,218	800,000	-0,015	-0,044
-661,203	-13,738	0,113	-0,054
-660,189	-85,274	0,069	-0,016
-659,174	-200,000	0,012	0,044
-658,159	747,538	0,036	-0,073
-657,145	-16,426	0,098	-0,046
-656,130	-81,934	-0,095	-0,023
-655,116	75,488	0,065	0,051
-654,101	687,323	-0,053	-0,104
-653,086	800,000	0,045	-0,117
-652,072	-117,476	-0,114	-0,015
-651,057	-200,000	-0,020	-0,101
-650,043	-200,000	0,006	-0,030
-649,028	-32,612	0,087	-0,036
-648,014	-70,748	0,035	-0,010
-646,999	-200,000	-0,016	0,054
-645,984	-101,770	0,078	-0,014
-644,970	276,423	-0,056	0,074
-643,955	645,876	-0,044	0,085
-642,941	-122,407	-0,105	-0,013
-641,926	-169,098	-0,122	0,003
-640,911	179,916	0,115	0,125
-639,897	64,411	0,089	-0,067
-638,882	-160,613	-0,118	-0,005
-637,868	153,400	-0,099	0,100
-636,853	800,000	-0,033	-0,099
-635,838	-200,000	0,001	-0,073
-634,824	45,689	-0,073	-0,050
-633,809	-200,000	-0,004	-0,022
-632,795	-200,000	-0,005	-0,052
-631,780	800,000	-0,056	0,144
-630,765	-200,000	-0,027	0,101
-629,751	-19,357	-0,117	-0,054
-628,736	69,105	-0,093	-0,071
-627,722	356,393	0,050	-0,074
-626,707	-195,583	-0,070	-0,000
-625,692	290,490	-0,021	0,028
-624,678	499,852	-0,082	0,140
-623,663	-71,613	0,052	0,014
-622,649	800,000	0,028	-0,069
-621,634	-163,124	-0,045	0,002
-620,619	327,429	-0,070	-0,100
-619,605	-200,000	-0,004	-0,057
-618,590	-148,636	0,171	-0,010
-617,576	-32,464	-0,032	0,013
-616,561	709,364	-0,073	-0,144
-615,546	-200,000	0,020	0,083
-614,532	-32,837	-0,223	-0,092
-613,517	71,043	-0,067	-0,052
-612,503	800,000	0,073	-0,158
-611,488	800,000	-0,033	-0,068
-610,474	800,000	-0,034	0,101
-609,459	-70,538	-0,162	0,045
-608,444	64,680	-0,077	-0,058
-607,430	-91,203	0,161	-0,034
-606,415	-26,450	0,042	0,018
-605,401	-38,291	0,065	-0,025
-604,386	-106,399	0,139	-0,023
-603,371	282,779	0,070	0,094
-602,357	800,000	-0,049	0,135
-601,342	523,523	0,049	-0,086
-600,328	-142,642	-0,154	0,011
-599,313	-200,000	-0,037	0,148
-598,298	-200,000	-0,002	-0,119
-597,284	184,507	0,072	0,079
-596,269	290,785	0,062	0,084
-595,255	800,000	-0,015	0,033
-594,240	793,285	-0,038	0,079
-593,225	-200,000	0,033	0,132
-592,211	589,136	0,048	-0,088
-591,196	70,215	0,064	0,049
-590,182	265,372	0,054	0,070
-589,167	800,000	0,019	-0,050
-588,152	324,888	0,076	-0,107
-587,138	-200,000	-0,009	0,079
-586,123	-22,833	-0,098	-0,043
-585,109	-155,631	-0,115	0,005
-584,094	68,807	0,071	-0,054
-583,079	-54,612	0,097	0,032
-582,065	-28,117	0,086	0,037
-581,050	216,083	0,077	0,091
-580,036	-200,000	-0,007	0,029
-579,021	128,518	0,111	-0,105
-578,006	800,000	0,009	0,025
-576,992	-200,000	0,004	-0,142
-575,977	-93,765	0,180	-0,036
-574,963	-95,305	-0,085	0,017
-573,948	664,103	-0,012	-0,022
-572,934	90,346	0,038	-0,031
-571,919	-200,000	0,010	-0,107
-570,904	-122,852	-0,089	-0,011
-569,890	31,627	0,092	0,058
-568,875	-200,000	-0,018	0,079
-567,861	800,000	0,022	-0,060
-566,846	-200,000	0,010	0,102
-565,831	-31,466	-0,093	0,039
-564,817	-200,000	-0,013	-0,089
-563,802	-112,037	0,022	0,003
-562,788	394,060	-0,018	0,028
-561,773	-177,463	0,022	0,000
-560,758	242,854	-0,072	-0,090
-559,744	378,784	-0,034	0,052
-558,729	-200,000	-0,003	0,163
-557,715	616,518	0,032	-0,061
-556,700	68,908	0,088	-0,067
-555,685	118,332	0,062	-0,057
-554,671	7,803	0,078	-0,043
-553,656	-83,075	0,109	0,026
-552,642	117,756	0,097	-0,088
-551,627	-200,000	0,000	0,041
-550,612	-200,000	-0,027	0,124
-549,598	-76,971	-0,137	0,035
-548,583	-112,322	-0,014	0,002
-547,569	800,000	-0,050	-0,108
-546,554	-3,631	-0,086	-0,044
-545,539	-200,000	0,001	-0,027
-544,525	-12,758	-0,050	-0,024
-543,510	-200,000	0,008	-0,045
-542,496	34,249	-0,149	-0,096
-541,481	-200,000	0,036	-0,124
-540,466	-200,000	0,009	-0,042
-539,452	1,872	0,115	0,061
-538,437	-93,110	-0,128	0,026
-537,423	800,000	0,051	0,133
-536,408	203,284	-0,057	-0,065
-535,393	800,000	-0,024	-0,058
-534,379	-200,000	0,038	-0,138
-533,364	-200,000	0,008	0,072
-532,350	97,106	-0,069	-0,059
-531,335	800,000	-0,055	0,128
-530,321	65,802	0,078	0,059
-529,306	125,650	-0,034	-0,032
-528,291	-146,058	-0,112	-0,007
-527,277	416,138	-0,071	0,112
-526,262	-21,683	0,051	0,023
-525,248	-200,000	-0,032	0,117
-524,233	-200,000	-0,023	-0,150
-523,218	800,000	0,018	0,041
-522,204	-200,000	-0,002	-0,035
-521,189	249,822	-0,100	-0,126
-520,175	-200,000	0,043	-0,174
-519,160	220,967	-0,033	-0,039
-518,145	166,145	0,105	-0,110
-517,131	800,000	0,024	-0,063
-516,116	-117,626	0,156	0,021
-515,102	-200,000	0,001	-0,057
-514,087	-200,000	-0,023	0,106
-513,072	138,772	-0,086	-0,084
-512,058	-69,691	0,074	-0,021
-511,043	-200,000	-0,037	0,201
-510,029	134,600	0,065	0,062
-509,014	-200,000	-0,006	-0,026
-507,999	-66,928	-0,067	-0,019
-506,985	-75,798	-0,089	-0,023
-505,970	-141,007	-0,093	-0,007
-504,956	336,151	-0,054	0,077
-503,941	31,363	-0,065	-0,041
-502,926	215,005	0,086	0,101
-501,912	-73,483	-0,116	0,031
-500,897	126,497	0,027	-0,025
-499,883	304,235	0,039	0,053
-498,868	-200,000	-0,033	-0,131
-497,853	412,695	-0,053	0,083
-496,839	8,841	0,038	-0,021
-495,824	104,413	-0,116	0,101
-494,810	66,854	-0,030	-0,022
-493,795	-200,000	0,004	-0,062
-492,781	-172,581	-0,012	0,000
-491,766	-0,156	-0,078	0,041
-490,751	800,000	-0,018	-0,046
-489,737	182,101	-0,057	0,062
-488,722	397,318	0,067	0,104
-487,708	800,000	-0,023	-0,058
-486,693	97,097	-0,048	0,041
-485,678	-103,966	-0,087	-0,015
-484,664	231,842	-0,020	-0,025
-483,649	-101,127	-0,081	-0,015
-482,635	-200,000	-0,001	-0,008
-481,620	553,260	0,088	-0,156
-480,605	-200,000	-0,045	0,152
-479,591	7,502	-0,067	-0,037
-478,576	-90,660	-0,094	0,020
-477,562	-200,000	-0,032	-0,123
-476,547	764,150	-0,045	0,091
-475,532	800,000	0,046	-0,103
-474,518	-102,551	0,079	-0,014
-473,503	-84,145	-0,073	0,017
-472,489	-200,000	0,012	0,082
-471,474	-200,000	0,002	0,097
-470,459	-110,625	0,070	0,011
-469,445	-200,000	-0,009	0,031
-468,430	-121,910	0,064	0,008
-467,416	18,908	0,049	-0,029
-466,401	-200,000	0,004	0,129
-465,386	84,851	-0,042	0,034
-464,372	800,000	-0,040	-0,115
-463,357	-29,366	0,143	-0,060
-462,343	17,299	-0,058	-0,034
-461,328	800,000	0,042	-0,106
-460,313	-200,000	-0,009	0,067
-459,299	-2,602	0,043	-0,022
-458,284	422,500	0,086	0,137
-457,270	8,411	0,087	0,048
-456,255	788,221	0,021	0,043
-455,241	257,598	0,036	0,045
-454,226	101,149	-0,070	-0,060
-453,211	686,083	0,018	-0,035
-452,197	-79,115	-0,001	0,000
-451,182	800,000	0,046	0,115
-450,168	46,833	0,100	0,068
-449,153	800,000	-0,016	-0,051
-448,138	-93,023	0,015	-0,003
-447,124	-98,426	-0,039	-0,007
-446,109	-200,000	-0,035	0,206
-445,095	-200,000	0,026	0,144
-444,080	-200,000	-0,003	-0,050
-443,065	-200,000	0,034	-0,112
-442,051	-64,576	-0,219	0,065
-441,036	175,208	-0,054	-0,058
-440,022	92,219	0,051	-0,043
-439,007	800,000	0,066	-0,147
-437,992	-100,153	0,031	-0,006
-436,978	232,127	0,093	0,112
-435,963	-200,000	0,035	0,123
-434,949	-200,000	-0,002	-0,016
-433,934	-121,817	0,090	0,011
-432,919	-69,682	-0,092	-0,026
-431,905	-200,000	0,005	0,049
-430,890	171,603	0,040	0,042
-429,876	-66,854	-0,041	0,012
-428,861	100,557	0,071	-0,060
-427,846	65,584	-0,064	0,048
-426,832	-200,000	-0,050	0,176
-425,817	-200,000	-0,002	-0,078
-424,803	-200,000	-0,002	-0,044
-423,788	28,121	0,174	-0,108
-422,773	386,950	-0,067	-0,102
-421,759	-52,623	-0,072	0,024
-420,744	-200,000	0,011	-0,077
-419,730	329,418	-0,075	-0,107
-418,715	-200,000	-0,013	-0,064
-417,701	26,111	-0,057	-0,035
-416,686	800,000	-0,031	0,087
-415,671	-44,509	0,133	0,049
-414,657	-113,226	0,142	0,020
-413,642	71,767	0,041	-0,032
-412,628	-5,337	-0,033	0,017
-411,613	32,732	-0,067	-0,042
-410,598	-200,000	0,006	-0,032
-409,584	-15,447	-0,016	0,007
-408,569	800,000	0,013	-0,032
-407,555	-111,699	-0,037	-0,005
-406,540	800,000	0,022	0,050
-405,525	425,637	-0,025	-0,039
-404,511	-200,000	-0,001	-0,045
-403,496	-109,323	-0,092	-0,014
-402,482	-200,000	-0,008	0,054
-401,467	217,252	0,101	0,119
-400,452	-43,544	-0,061	0,023
-399,438	202,863	-0,022	0,025
-398,423	-200,000	-0,014	0,145
-397,409	224,166	-0,024	0,029
-396,394	-200,000	-0,058	-0,191
-395,379	201,454	0,055	-0,063
-394,365	576,589	0,052	0,095
-393,350	759,062	0,069	-0,138
-392,336	299,209	0,008	0,010
-391,321	-146,529	0,105	-0,007
-390,306	-175,199	0,069	0,001
-389,292	-33,236	0,049	0,020
-388,277	-200,000	-0,002	0,052
-387,263	479,526	-0,089	-0,149
-386,248	83,972	0,076	-0,061
-385,233	138,262	-0,064	0,062
-384,219	17,658	-0,060	0,035
-383,204	-200,000	0,001	0,082
-382,190	800,000	0,054	0,113
-381,175	-121,956	0,038	0,005
-380,160	-200,000	-0,040	-0,142
-379,146	-200,000	0,024	0,081
-378,131	221,543	0,074	-0,088
-377,117	-9,719	-0,065	-0,032
-376,102	-0,093	0,077	-0,040
-375,088	-200,000	-0,017	0,060
-374,073	9,858	-0,071	-0,040
-373,058	800,000	0,024	0,069
-372,044	154,738	-0,070	0,071
-371,029	93,510	0,062	-0,051
-370,015	-200,000	-0,031	0,126
-369,000	-66,798	0,111	-0,032
-367,985	800,000	0,024	-0,061
-366,971	800,000	-0,037	0,083
-365,956	800,000	0,006	0,016
-364,942	309,551	-0,052	0,071
-363,927	43,780	-0,017	0,011
-362,912	-200,000	0,014	0,071
-361,898	313,642	-0,076	-0,105
-360,883	-92,826	-0,142	-0,029
-359,869	-119,102	-0,077	0,010
-358,854	133,411	0,043	0,041
-357,839	-54,399	0,067	0,022
-356,825	-200,000	0,004	0,082
-355,810	280,549	0,061	0,080
-354,796	800,000	0,015	-0,043
-353,781	-81,862	0,100	-0,024
-352,766	235,047	0,074	-0,089
-351,752	-200,000	0,016	0,127
-350,737	-190,191	0,115	-0,001
-349,723	390,855	-0,132	0,201
-348,708	800,000	-0,025	-0,079
-347,693	9,795	-0,036	-0,020
-346,679	-143,204	-0,091	0,006
-345,664	-200,000	-0,028	0,173
-344,650	154,843	0,035	0,035
-343,635	443,367	0,065	0,105
-342,620	328,842	-0,092	0,129
-341,606	573,971	0,024	0,043
-340,591	251,094	-0,048	0,060
-339,577	49,512	-0,067	0,046
-338,562	-59,107	-0,064	-0,020
-337,548	-115,934	0,045	0,006
-336,533	56,500	-0,119	0,085
-335,518	-200,000	0,009	-0,076
-334,504	-116,802	0,048	-0,006
-333,489	-87,333	0,037	0,008
-332,475	-77,755	-0,063	-0,016
-331,460	-12,954	-0,132	0,063
-330,445	186,073	0,049	-0,053
-329,431	-200,000	0,029	0,128
-328,416	48,620	0,122	-0,084
-327,402	55,991	-0,070	0,049
-326,387	112,226	-0,026	-0,023
-325,372	800,000	0,050	0,111
-324,358	535,909	-0,042	0,074
-323,343	-62,529	0,145	-0,044
-322,329	282,895	0,157	0,208
-321,314	24,082	-0,043	0,026
-320,299	-145,359	-0,040	-0,003
-319,285	-165,267	-0,042	-0,001
-318,270	-200,000	-0,011	0,227
-317,256	49,138	-0,087	0,060
-316,241	27,262	-0,071	0,043
-315,226	52,563	0,046	-0,032
-314,212	147,534	0,017	0,017
-313,197	-200,000	-0,013	0,061
-312,183	-27,178	0,064	0,027
-311,168	52,500	-0,121	0,085
-310,153	-22,039	0,051	0,023
-309,139	-139,456	-0,059	-0,005
-308,124	-200,000	0,007	0,047
-307,110	-200,000	0,005	-0,037
-306,095	800,000	0,019	-0,052
-305,080	-93,477	0,014	-0,003
-304,066	-200,000	-0,010	-0,146
-303,051	67,692	-0,083	-0,062
-302,037	780,848	0,060	-0,121
-301,022	126,388	0,028	0,026
-300,008	41,160	-0,033	0,022
-298,993	-200,000	-0,032	0,107
-297,978	-200,000	-0,016	0,095
-296,964	-200,000	0,009	-0,049
-295,949	-1,824	0,123	0,063
-294,935	-76,582	-0,179	-0,046
-293,920	-200,000	-0,016	-0,103
-292,905	-200,000	-0,030	-0,181
-291,891	-82,316	0,080	-0,019
-290,876	-94,565	-0,124	0,025
-289,862	-25,002	-0,068	0,029
-288,847	-84,649	0,083	-0,019
-287,832	800,000	-0,043	-0,104
-286,818	-54,547	0,164	-0,054
-285,803	-58,510	0,073	-0,023
-284,789	800,000	0,053	-0,162
-283,774	-200,000	-0,003	-0,017
-282,759	24,608	-0,066	-0,040
-281,745	-200,000	-0,024	-0,142
-280,730	462,989	0,014	0,023
-279,716	422,512	-0,021	-0,033
-278,701	-200,000	0,022	-0,114
-277,686	47,446	0,141	-0,096
-276,672	300,703	0,062	0,084
-275,657	-200,000	0,030	0,133
-274,643	3,726	0,032	-0,017
-273,628	-93,517	-0,046	0,009
-272,613	-182,496	0,120	0,002
-271,599	276,584	-0,005	0,007
-270,584	341,835	0,099	0,142
-269,570	-50,398	-0,057	0,020
-268,555	-200,000	0,007	-0,053
-267,540	257,412	0,022	-0,028
-266,526	18,945	-0,069	-0,040
-265,511	91,566	-0,042	-0,034
-264,497	81,772	0,040	0,032
-263,482	589,959	-0,026	-0,047
-262,467	800,000	0,011	0,032
-261,453	-200,000	0,002	0,120
-260,438	556,335	0,047	-0,083
-259,424	80,263	-0,062	0,049
-258,409	167,364	-0,032	0,033
-257,395	-17,081	0,048	-0,022
-256,380	768,785	0,061	0,123
-255,365	363,910	-0,030	-0,044
-254,351	148,653	-0,053	-0,053
-253,336	-137,702	-0,178	-0,014
-252,322	82,718	0,044	-0,035
-251,307	26,639	-0,142	0,087
-250,292	-200,000	-0,003	-0,130
-249,278	-113,203	0,085	0,012
-248,263	759,392	0,073	-0,145
-247,249	800,000	-0,056	0,175
-246,234	-59,079	0,097	0,030
-245,219	-200,000	0,005	-0,062
-244,205	14,548	0,101	-0,057
-243,190	800,000	-0,071	-0,155
-242,176	32,973	-0,068	0,043
-241,161	144,119	0,084	0,082
-240,146	-103,681	-0,056	-0,010
-239,132	120,000	-0,064	0,058
-238,117	323,058	0,032	0,045
-237,103	222,759	0,087	-0,102
-236,088	73,170	-0,030	-0,023
-235,073	-127,411	-0,081	0,008
-234,059	8,058	-0,020	0,011
-233,044	167,929	-0,064	0,067
-232,030	-98,234	0,114	-0,021
-231,015	59,264	-0,025	-0,018
-230,000	202,365	-0,061	-0,068
-228,986	-200,000	0,003	-0,122
-227,971	113,218	0,038	-0,034
-226,957	800,000	0,043	0,088
-225,942	-86,209	-0,021	0,005
-224,927	-61,221	0,136	-0,042
-223,913	148,930	0,090	0,089
-222,898	41,085	-0,069	0,045
-221,884	14,302	0,085	0,048
-220,869	239,328	0,024	-0,030
-219,855	-44,536	0,056	0,020
-218,840	172,804	0,069	-0,073
-217,825	-200,000	-0,017	0,071
-216,811	-200,000	-0,027	0,129
-215,796	-10,349	-0,137	-0,066
-214,782	-114,609	0,113	-0,016
-213,767	-200,000	-0,010	-0,060
-212,752	187,818	0,067	-0,073
-211,738	-200,000	-0,002	0,053
-210,723	800,000	-0,036	-0,080
-209,709	-200,000	0,010	0,035
-208,694	-146,510	-0,059	-0,004
-207,679	348,678	0,034	0,050
-206,665	800,000	0,020	-0,048
-205,650	-1,669	0,077	0,040
-204,636	-73,464	0,131	-0,035
-203,621	-200,000	0,004	0,059
-202,606	800,000	-0,085	-0,177
-201,592	30,923	0,094	-0,059
-200,577	800,000	0,066	0,153
-199,563	91,961	-0,047	0,038
-198,548	142,880	0,122	-0,119
-197,533	19,484	0,048	-0,028
-196,519	-91,336	0,098	-0,020
-195,504	53,070	0,056	-0,039
-194,490	-200,000	-0,029	-0,161
-193,475	-200,000	-0,019	-0,121
-192,460	-134,034	0,058	0,005
-191,446	-200,000	0,014	0,054
-190,431	148,026	0,013	0,013
-189,417	371,155	-0,029	0,043
-188,402	-200,000	-0,001	-0,038
-187,387	-110,119	-0,088	-0,013
-186,373	-200,000	0,008	-0,101
-185,358	-200,000	-0,001	-0,133
-184,344	-124,430	0,125	-0,014
-183,329	110,549	-0,016	-0,014
-182,315	-200,000	-0,002	0,135
-181,300	-110,233	-0,071	-0,011
-180,285	116,290	-0,023	-0,021
-179,271	224,960	-0,085	-0,100
-178,256	47,915	-0,051	-0,035
-177,242	-120,733	0,071	0,009
-176,227	-29,311	0,047	0,020
-175,212	-181,046	-0,073	0,001
-174,198	-122,407	-0,057	-0,007
-173,183	-160,810	0,149	-0,006
-172,169	-42,333	0,102	0,038
-171,154	-78,046	-0,148	-0,037
-170,139	-200,000	-0,008	-0,035
-169,125	-200,000	0,021	0,073
-168,110	800,000	-0,004	-0,010
-167,096	-73,870	0,068	0,018
-166,081	800,000	-0,048	-0,116
-165,066	-44,296	-0,089	0,032
-164,052	693,493	-0,051	-0,098
-163,037	-131,696	0,064	0,006
-162,023	196,109	0,047	0,052
-161,008	-200,000	-0,035	0,144
-159,993	12,633	0,044	0,025
-158,979	91,820	0,088	-0,072
-157,964	-200,000	0,017	-0,159
-156,950	-163,427	-0,046	0,002
-155,935	-100,657	-0,101	0,018
-154,920	289,168	0,011	0,015
-153,906	12,033	0,044	-0,025
-152,891	-126,913	-0,054	0,006
-151,877	-44,561	0,116	0,042
-150,862	215,508	-0,102	-0,118
-149,847	-200,000	0,004	0,096
-148,833	86,230	0,149	-0,120
-147,818	800,000	0,054	0,109
-146,804	233,161	-0,014	-0,017
-145,789	-200,000	0,001	0,030
-144,775	-19,833	0,070	0,031
-143,760	14,244	0,062	-0,035
-142,745	-118,598	-0,062	-0,008
-141,731	-27,944	-0,065	-0,027
-140,716	-132,450	-0,032	-0,003
-139,702	15,835	0,049	0,028
-138,687	-200,000	-0,021	-0,086
-137,672	800,000	0,041	-0,111
-136,658	184,521	-0,214	-0,231
-135,643	800,000	-0,036	-0,077
-134,629	800,000	-0,034	-0,075
-133,614	-200,000	0,020	0,068
-132,599	-139,000	0,140	0,011
-131,585	-47,159	0,195	-0,069
-130,570	-131,479	-0,112	-0,011
-129,556	-192,943	-0,095	0,001
-128,541	-200,000	-0,012	-0,118
-127,526	705,807	0,048	0,093
-126,512	-56,859	-0,049	-0,016
-125,497	-83,739	-0,048	-0,011
-124,483	-200,000	0,018	-0,066
-123,468	800,000	-0,054	0,158
-122,453	521,900	-0,091	-0,156
-121,439	67,646	0,048	0,035
-120,424	97,206	-0,069	-0,057
-119,410	229,708	0,048	-0,057
-118,395	-200,000	-0,004	0,144
-117,380	-82,781	0,110	0,026
-116,366	492,082	0,022	0,037
-115,351	61,255	-0,138	-0,099
-114,337	5,693	0,034	-0,018
-113,322	-135,725	-0,134	-0,011
-112,307	800,000	-0,024	-0,063
-111,293	-46,310	-0,046	-0,016
-110,278	800,000	0,056	0,146
-109,264	-200,000	-0,041	-0,185
-108,249	183,777	0,045	-0,049
-107,234	203,512	0,065	-0,073
-106,220	232,368	-0,147	-0,176
-105,205	-200,000	-0,007	-0,079
-104,191	-200,000	0,014	-0,154
-103,176	-15,901	0,108	-0,050
-102,162	16,213	-0,069	-0,039
-101,147	-77,781	0,042	-0,010
-100,132	228,395	-0,055	-0,065
-99,118	-200,000	-0,019	-0,182
-98,103	-200,000	0,004	-0,100
-97,089	-200,000	-0,010	-0,042
-96,074	800,000	0,018	0,050
-95,059	296,086	-0,038	-0,051
-94,045	330,851	-0,093	-0,130
-93,030	69,200	0,092	0,068
-92,016	-200,000	0,010	-0,249
-91,001	175,884	0,129	-0,137
-89,986	800,000	-0,028	-0,064
-88,972	157,246	-0,069	-0,069
-87,957	204,120	0,068	0,077
-86,943	-155,548	0,034	0,002
-85,928	36,119	-0,117	0,075
-84,913	64,006	0,046	-0,033
-83,899	41,183	0,031	0,020
-82,884	283,611	0,073	-0,096
-81,870	258,126	0,019	0,024
-80,855	161,536	-0,013	0,013
-79,840	-200,000	-0,014	0,151
-78,826	545,646	-0,033	-0,057
-77,811	-44,464	-0,263	-0,095
-76,797	171,501	-0,039	-0,041
-75,782	340,560	-0,081	0,115
-74,767	-200,000	0,016	0,101
-73,753	277,444	-0,019	0,025
-72,738	257,892	-0,031	-0,039
-71,724	187,484	-0,087	-0,095
-70,709	25,191	-0,044	-0,027
-69,694	107,622	0,087	-0,076
-68,680	-200,000	0,006	0,035
-67,665	46,325	-0,050	-0,034
-66,651	65,430	0,111	0,082
-65,636	-200,000	0,008	-0,052
-64,622	-122,380	0,131	-0,015
-63,607	412,321	-0,036	0,056
-62,592	-200,000	-0,010	-0,137
-61,578	-154,509	-0,069	-0,003
-60,563	-200,000	0,013	0,056
-59,549	800,000	0,051	0,143
-58,534	-130,403	-1,352	-0,131
-57,519	791,057	-0,712	-1,427
-56,505	-200,000	-1,005	-4,447
-55,490	58,089	0,591	-0,419
-54,476	800,000	4,981	11,864
-53,461	-200,000	13,527	253,384
-52,446	-200,000	689,628	2261,554
-51,432	592,636	1622,357	2920,534
-50,417	119,528	1635,247	1469,567
-49,403	73,271	1289,471	977,866
-48,388	38,168	1024,252	660,226
-47,373	24,393	981,962	587,656
-46,359	23,556	971,797	578,806
-45,344	22,633	967,308	573,094
-44,330	22,599	965,883	572,116
-43,315	22,412	964,535	570,682
-42,300	22,417	963,322	569,958
-41,286	22,469	962,499	569,619
-40,271	22,391	961,816	568,940
-39,257	22,404	960,518	568,189
-38,242	22,375	959,868	567,689
-37,227	22,378	958,836	567,065
-36,213	22,405	957,948	566,607
-35,198	22,388	957,113	566,035
-34,184	22,392	956,454	565,633
-33,169	22,338	955,552	564,904
-32,154	22,436	954,807	564,758
-31,140	22,480	953,847	564,309
-30,125	22,485	952,806	563,688
-29,111	22,406	952,172	563,036
-28,096	22,431	951,706	562,820
-27,082	22,422	950,893	562,285
-26,067	22,498	949,952	561,950
-25,052	22,451	949,307	561,398
-24,038	22,412	948,744	560,917
-23,023	22,385	948,183	560,476
-22,009	22,434	947,404	560,151
-20,994	22,439	946,868	559,826
-19,979	22,483	945,960	559,409
-18,965	22,456	945,594	559,084
-17,950	22,450	944,925	558,646
-16,936	22,363	944,115	557,869
-15,921	22,452	943,429	557,725
-14,906	22,306	942,975	556,970
-13,892	22,323	942,162	556,520
-12,877	22,322	941,530	556,122
-11,863	22,318	940,941	555,740
-10,848	22,234	940,667	555,288
-9,833	22,385	940,054	555,385
-8,819	22,414	939,463	555,103
-7,804	22,364	938,541	554,380
-6,790	22,301	938,060	553,875
-5,775	22,318	937,537	553,596
-4,760	22,335	936,791	553,189
-3,746	22,250	936,337	552,629
-2,731	22,191	935,608	551,990
-1,717	22,093	934,961	551,279
-0,702	22,119	934,230	550,908
0,313	21,902	933,631	550,702
1,327	25,011	931,654	559,267
2,342	34,642	796,225	503,631
3,356	32,654	451,530	282,583
4,371	1,785	293,593	152,956
5,386	-2,683	274,499	138,771
6,400	-4,260	268,877	134,454
7,415	-4,732	266,231	132,684
8,429	-4,408	264,949	132,330
9,444	-4,536	264,243	131,849
10,459	-4,554	263,646	131,523
11,473	-4,402	262,840	131,247
12,488	-4,509	262,315	130,876
13,502	-4,747	261,864	130,425
14,517	-4,732	261,599	130,294
15,531	-4,693	261,200	130,120
16,546	-4,546	260,710	129,995
17,561	-4,682	260,363	129,689
18,575	-4,707	260,139	129,543
19,590	-4,777	259,746	129,274
20,604	-4,521	259,517	129,377
21,619	-4,697	259,069	128,985
22,634	-4,676	258,711	128,814
23,648	-4,736	258,495	128,641
24,663	-4,623	258,280	128,623
25,677	-4,812	258,120	128,364
26,692	-4,694	257,691	128,245
27,707	-4,754	257,452	128,060
28,721	-4,741	257,214	127,942
29,736	-4,797	256,889	127,720
30,750	-4,842	256,627	127,538
31,765	-4,649	256,333	127,551
32,780	-4,948	256,316	127,267
33,794	-4,812	255,960	127,199
34,809	-4,838	255,738	127,055
35,823	-4,856	255,560	126,939
36,838	-4,806	255,222	126,804
37,853	-4,648	255,067	126,854
38,867	-4,641	254,724	126,679
39,882	-4,722	254,593	126,531
40,896	-4,975	254,402	126,204
41,911	-4,707	254,140	126,297
42,926	-4,809	253,923	126,088
43,940	-4,868	253,646	125,889
44,955	-5,012	253,461	125,660
45,969	-5,046	253,267	125,522
46,984	-5,014	252,866	125,341
47,999	-5,337	252,757	124,994
49,013	-5,285	252,408	124,856
50,028	-5,276	252,162	124,731
51,042	-5,807	251,974	124,166
52,057	-5,709	251,819	124,163
53,071	-5,585	251,554	124,129
54,086	-5,645	251,283	123,933
55,101	-5,256	251,220	124,226
56,115	-5,267	251,203	124,197
57,130	-4,836	251,100	124,508
58,144	-4,556	250,798	124,588
59,159	-4,698	250,790	124,451
60,174	-4,439	250,383	124,460
61,188	-4,692	250,297	124,189
62,203	-4,686	250,086	124,078
63,217	-4,597	249,890	124,046
64,232	-4,626	249,692	123,912
65,247	-4,785	249,513	123,676
66,261	-4,880	249,314	123,485
67,276	-4,953	248,879	123,196
68,290	-5,082	248,529	122,902
69,305	-5,184	248,446	122,762
70,320	-5,278	248,307	122,603
71,334	-5,004	248,096	122,721
72,349	-4,707	248,050	122,940
73,363	-4,582	247,846	122,935
74,378	-4,667	247,741	122,799
75,393	-4,788	247,484	122,558
76,407	-4,698	247,169	122,468
77,422	-4,824	247,021	122,277
78,436	-4,681	246,705	122,231
79,451	-4,682	246,503	122,119
80,466	-4,726	246,399	122,019
81,480	-5,009	246,175	121,658
82,495	-4,793	245,928	121,707
83,509	-4,948	245,754	121,480
84,524	-4,880	245,517	121,409
85,539	-5,134	245,260	121,057
86,553	-5,075	245,047	120,992
87,568	-5,073	245,052	120,984
88,582	-5,089	244,848	120,860
89,597	-5,113	244,753	120,782
90,611	-5,019	244,594	120,771
91,626	-4,971	244,313	120,662
92,641	-5,046	244,351	120,608
93,655	-4,720	243,959	120,675
94,670	-4,914	243,635	120,343
95,684	-4,791	243,556	120,396
96,699	-4,749	243,258	120,273
97,714	-5,097	243,149	119,918
98,728	-5,045	242,835	119,796
99,743	-5,225	242,810	119,623
100,757	-5,275	242,455	119,396
101,772	-4,946	242,323	119,593
102,787	-5,026	242,147	119,430
103,801	-4,987	242,090	119,423
104,816	-4,883	241,853	119,382
105,830	-4,850	241,856	119,400
106,845	-4,705	241,659	119,411
107,860	-4,833	241,463	119,198
108,874	-5,006	241,231	118,930
109,889	-4,917	241,013	118,886
110,903	-4,992	240,857	118,736
111,918	-4,999	240,635	118,611
112,933	-5,002	240,523	118,542
113,947	-4,709	240,333	118,679
114,962	-4,894	240,325	118,513
115,976	-4,955	240,007	118,295
116,991	-4,908	239,800	118,222
118,006	-4,855	239,726	118,217
119,020	-4,914	239,598	118,095
120,035	-4,775	239,368	118,085
121,049	-4,543	239,269	118,216
122,064	-4,566	239,091	118,099
123,079	-4,806	238,855	117,775
124,093	-4,974	238,748	117,575
125,108	-5,044	238,414	117,343
126,122	-5,209	238,241	117,113
127,137	-5,216	237,983	116,970
128,151	-5,183	237,940	116,965
129,166	-5,008	237,710	116,984
130,181	-4,936	237,388	116,874
131,195	-5,212	237,299	116,595
132,210	-5,174	237,157	116,546
133,224	-4,823	237,155	116,819
134,239	-4,860	236,865	116,636
135,254	-4,904	236,901	116,608
136,268	-4,915	236,499	116,391
137,283	-5,190	236,243	116,032
138,297	-5,444	236,146	115,769
139,312	-5,418	235,896	115,657
140,327	-5,155	235,895	115,859
141,341	-4,776	235,912	116,162
142,356	-4,476	235,664	116,270
143,370	-4,518	235,663	116,225
144,385	-4,296	235,395	116,261
145,400	-4,427	235,253	116,076
146,414	-4,408	235,030	115,970
147,429	-4,504	234,896	115,817
148,443	-4,529	234,608	115,645
149,458	-4,503	234,530	115,617
150,473	-4,546	234,302	115,460
151,487	-4,708	234,203	115,272
152,502	-4,489	233,923	115,298
153,516	-4,433	233,941	115,342
154,531	-4,430	233,754	115,241
155,546	-4,338	233,459	115,159
156,560	-4,646	233,287	114,819
157,575	-4,788	233,153	114,630
158,589	-4,639	232,939	114,633
159,604	-4,459	232,808	114,701
160,619	-4,350	232,678	114,713
161,633	-4,466	232,595	114,570
162,648	-4,527	232,498	114,463
163,662	-4,321	232,264	114,501
164,677	-4,740	232,037	114,048
165,692	-4,598	231,920	114,092
166,706	-4,215	231,725	114,288
167,721	-4,370	231,636	114,112
168,735	-4,362	231,460	114,022
169,750	-4,154	231,292	114,092
170,764	-4,373	231,303	113,915
171,779	-4,308	231,058	113,835
172,794	-4,393	230,990	113,725
173,808	-4,508	230,702	113,483
174,823	-4,860	230,270	112,984
175,837	-5,183	230,221	112,698
176,852	-4,799	230,131	112,943
177,867	-4,547	230,060	113,096
178,881	-4,486	230,059	113,133
179,896	-4,506	229,881	113,019
180,910	-4,290	229,651	113,065
181,925	-4,462	229,482	112,838
182,940	-4,323	229,237	112,816
183,954	-4,269	229,255	112,857
184,969	-4,213	229,061	112,795
185,983	-4,193	228,937	112,739
186,998	-4,115	228,659	112,652
188,013	-4,361	228,618	112,431
189,027	-4,402	228,479	112,321
190,042	-4,275	228,293	112,318
191,056	-4,359	228,196	112,195
192,071	-4,309	227,968	112,112
193,086	-4,284	227,808	112,043
194,100	-4,360	227,570	111,857
195,115	-4,595	227,146	111,457
196,129	-5,190	226,957	110,896
197,144	-1,727	228,327	114,238
198,159	2,644	229,361	118,140
199,173	4,223	229,738	119,549
200,188	4,304	229,631	119,545
201,202	4,586	229,335	119,599
202,217	4,513	229,330	119,529
203,232	4,890	229,165	119,724
204,246	4,894	229,104	119,684
205,261	4,913	228,865	119,563
206,275	4,975	228,936	119,637
207,290	4,995	228,757	119,549
208,304	5,066	228,614	119,519
209,319	5,003	228,396	119,345
210,334	4,815	228,234	119,105
211,348	4,667	228,034	118,876
212,363	4,260	227,691	118,374
213,377	4,120	227,476	118,145
214,392	4,126	227,422	118,110
215,407	4,131	227,274	118,027
216,421	4,257	227,032	117,988
217,436	4,254	226,967	117,941
218,450	3,968	226,637	117,541
219,465	3,979	226,438	117,435
220,480	3,811	226,545	117,352
221,494	3,810	226,361	117,245
222,509	4,013	226,204	117,308
223,523	4,043	226,083	117,258
224,538	4,033	225,816	117,101
225,553	4,083	225,733	117,086
226,567	4,215	225,663	117,140
227,582	4,408	225,596	117,241
228,596	4,575	225,404	117,257
229,611	4,341	225,222	116,975
230,626	3,909	225,057	116,551
231,640	3,933	224,899	116,477
232,655	4,185	224,620	116,513
233,669	4,614	224,803	116,922
234,684	4,745	224,577	116,893
235,699	4,498	224,424	116,617
236,713	4,363	224,101	116,336
237,728	4,241	223,964	116,163
238,742	3,755	223,955	115,782
239,757	4,016	223,601	115,785
240,772	4,176	223,427	115,805
241,786	3,955	223,509	115,671
242,801	4,177	223,419	115,781
243,815	4,336	223,361	115,860
244,830	4,693	223,019	115,940
245,844	4,250	222,922	115,547
246,859	4,263	222,732	115,448
247,874	4,503	222,591	115,544
248,888	4,456	222,420	115,410
249,903	4,296	222,307	115,221
250,917	4,048	222,077	114,907
251,932	4,217	221,880	114,920
252,947	4,237	221,756	114,861
253,961	4,196	221,694	114,788
254,976	3,922	221,433	114,439
255,990	4,278	221,336	114,644
257,005	4,425	221,235	114,690
258,020	4,247	221,273	114,567
259,034	4,554	221,088	114,689
260,049	4,346	220,997	114,477
261,063	4,430	220,730	114,391
262,078	4,504	220,668	114,403
263,093	4,469	220,561	114,312
264,107	4,422	220,388	114,178
265,122	4,490	220,187	114,114
266,136	4,553	220,262	114,189
267,151	4,534	220,049	114,054
268,166	4,169	219,718	113,603
269,180	4,138	219,361	113,386
270,195	3,899	219,398	113,218
271,209	4,061	219,288	113,271
272,224	4,152	219,128	113,245
273,239	4,177	219,018	113,196
274,253	4,194	218,813	113,093
275,268	3,974	218,615	112,819
276,282	3,828	218,373	112,577
277,297	3,800	218,290	112,504
278,312	3,851	218,233	112,502
279,326	4,168	218,167	112,690
280,341	3,976	217,959	112,432
281,355	4,178	217,843	112,510
282,370	4,304	217,646	112,490
283,384	4,209	217,565	112,368
284,399	3,995	217,247	112,039
285,414	3,812	217,191	111,866
286,428	4,074	217,155	112,028
287,443	4,309	217,077	112,149
288,457	4,416	216,837	112,093
289,472	4,060	216,651	111,728
290,487	3,701	216,460	111,359
291,501	3,737	216,300	111,294
292,516	3,981	216,167	111,392
293,530	3,961	216,105	111,335
294,545	3,956	216,022	111,279
295,560	3,850	215,900	111,130
296,574	4,128	215,809	111,274
297,589	4,095	215,557	111,110
298,603	4,265	215,441	111,163
299,618	4,091	215,339	110,975
300,633	4,156	215,201	110,941
301,647	4,347	215,225	111,081
302,662	4,487	215,124	111,120
303,676	4,628	214,840	111,064
304,691	4,558	214,656	110,909
305,706	4,487	214,581	110,809
306,720	4,448	214,472	110,715
307,735	4,122	214,287	110,376
308,749	3,930	214,076	110,120
309,764	3,997	214,135	110,189
310,779	4,296	214,011	110,329
311,793	4,422	213,805	110,303
312,808	4,206	213,609	110,038
313,822	4,078	213,452	109,856
314,837	4,195	213,272	109,837
315,852	3,964	213,076	109,562
316,866	4,083	212,936	109,565
317,881	4,234	212,909	109,648
318,895	4,320	212,751	109,618
319,910	4,153	212,658	109,442
320,925	3,765	212,370	109,009
321,939	3,593	212,329	108,856
322,954	3,814	212,137	108,905
323,968	4,216	212,109	109,165
324,983	4,215	212,024	109,111
325,997	4,549	211,994	109,322
327,012	4,017	211,648	108,758
328,027	4,197	211,477	108,787
329,041	4,479	211,500	108,989
330,056	4,668	211,401	109,061
331,070	4,271	211,094	108,614
332,085	3,845	210,877	108,193
333,100	3,868	210,888	108,205
334,114	4,169	210,638	108,279
335,129	4,079	210,480	108,125
336,143	3,853	210,305	107,866
337,158	3,853	210,285	107,847
338,173	3,714	210,190	107,691
339,187	4,084	209,870	107,776
340,202	3,768	209,773	107,495
341,216	3,797	209,738	107,488
342,231	3,914	209,543	107,460
343,246	3,876	209,465	107,384
344,260	3,793	209,308	107,236
345,275	4,133	209,175	107,396
346,289	4,070	209,189	107,350
347,304	4,104	208,997	107,265
348,319	4,143	208,919	107,242
349,333	4,137	208,591	107,061
350,348	4,186	208,521	107,049
351,362	4,270	208,576	107,126
352,377	4,308	208,399	107,052
353,392	4,055	208,302	106,817
354,406	4,296	208,060	106,851
355,421	193,830	1346,191	1434,841
356,435	154,639	1484,959	1434,966
