DTS Sentinel unit serial number:	SN410029Multiplexer serial number:	ORYXHardware model number:	OX2-SRSoftware version number:	ORYX F/W v4,00 Oryx Data Collector v3.7.2.0data status	okinstallation	B6 Nyhavnadifferential loss correction	single-endedforward channel	channel 2reverse channel	N/Adate	2023/12/07time	11:05:08forward acquisition time	300,00reverse acquisition time	0,00gamma	499,1914k internal	0,3200k external	0,3200temperature offset calibration	1,0000default loss term (dB/km)	0,3820temperature slope calibration	1,0000multiplexer offset coefficient	1,0000multiplexer slope coefficient	1,0000fibre end	0,00T internal ref (°C)	7,81T ext. ref 1 (°C)	-6,26T ext. ref 2 (°C)	-6,28length (m)	temperature (°C)	Stokes	anti-Stokes-744,400	-187,614	0,197	-0,002
-743,385	31,773	-0,341	-0,213
-742,371	-189,806	0,216	-0,002
-741,356	-168,776	-0,261	-0,007
-740,342	-92,752	0,071	0,014
-739,327	-62,334	-0,203	-0,061
-738,312	416,033	0,033	0,051
-737,298	-16,878	-0,417	-0,191
-736,283	-25,236	0,193	-0,083
-735,269	-67,314	-0,417	-0,118
-734,254	-15,491	0,240	0,111
-733,239	-51,484	-0,566	-0,191
-732,225	-42,396	0,193	0,071
-731,210	55,525	0,013	0,009
-730,196	800,000	0,006	-0,015
-729,181	-1,221	-0,158	-0,081
-728,167	339,690	0,077	-0,109
-727,152	302,953	0,017	-0,023
-726,137	-200,000	-0,012	0,080
-725,123	98,937	-0,043	-0,036
-724,108	-200,000	0,006	-0,106
-723,094	607,853	-0,044	-0,079
-722,079	55,564	-0,069	-0,048
-721,064	116,137	-0,046	-0,041
-720,050	9,815	0,107	0,059
-719,035	490,957	0,016	0,026
-718,021	-42,375	-0,220	-0,081
-717,006	-83,141	0,046	-0,011
-715,991	405,781	0,042	-0,064
-714,977	99,941	-0,175	0,147
-713,962	207,289	-0,114	-0,129
-712,948	83,692	-0,171	-0,136
-711,933	-0,029	0,069	0,036
-710,918	704,670	-0,022	0,042
-709,904	169,332	0,061	-0,063
-708,889	-200,000	-0,041	-0,205
-707,875	0,777	-0,112	-0,058
-706,860	340,627	-0,030	-0,043
-705,845	-84,373	-0,039	-0,009
-704,831	800,000	-0,021	-0,046
-703,816	-18,461	-0,071	-0,032
-702,802	152,161	-0,073	-0,073
-701,787	-200,000	0,013	-0,041
-700,772	111,762	0,035	0,030
-699,758	-83,374	0,151	-0,035
-698,743	16,202	0,063	-0,036
-697,729	405,865	-0,052	0,080
-696,714	46,846	0,010	0,007
-695,699	-54,444	0,080	0,026
-694,685	-38,529	-0,225	-0,086
-693,670	-200,000	-0,004	0,047
-692,656	800,000	0,038	0,076
-691,641	800,000	0,010	0,025
-690,627	-35,002	0,014	0,006
-689,612	-200,000	-0,007	0,050
-688,597	383,512	-0,068	0,101
-687,583	311,177	-0,097	-0,132
-686,568	800,000	0,039	-0,108
-685,554	16,743	-0,061	-0,035
-684,539	-200,000	0,014	0,096
-683,524	-134,893	-0,204	-0,018
-682,510	-19,061	0,205	0,092
-681,495	-200,000	-0,130	0,000
-680,481	25,079	-0,063	0,038
-679,466	-43,782	-0,181	-0,066
-678,451	-200,000	-0,014	-0,061
-677,437	-200,000	-0,002	-0,052
-676,422	420,362	-0,051	0,080
-675,408	-200,000	0,009	-0,037
-674,393	47,514	-0,087	0,059
-673,378	-200,000	-0,016	0,084
-672,364	184,808	0,033	-0,035
-671,349	18,863	-0,044	-0,025
-670,335	56,016	0,031	0,022
-669,320	94,644	0,051	-0,042
-668,305	12,494	0,157	0,088
-667,291	416,607	-0,034	-0,053
-666,276	218,969	0,077	-0,090
-665,262	800,000	-0,024	-0,078
-664,247	-172,352	0,134	0,003
-663,232	800,000	0,058	-0,123
-662,218	-135,293	0,066	0,006
-661,203	800,000	-0,069	-0,155
-660,189	-122,943	-0,042	0,005
-659,174	-200,000	-0,023	-0,085
-658,159	-200,000	0,009	0,112
-657,145	-5,320	-0,114	-0,057
-656,130	87,384	-0,094	-0,075
-655,116	-84,076	0,041	0,009
-654,101	235,920	-0,037	0,045
-653,086	-200,000	0,055	-0,223
-652,072	-26,635	-0,028	-0,012
-651,057	163,581	-0,092	-0,094
-650,043	-200,000	-0,007	0,036
-649,028	47,845	0,071	-0,048
-648,014	-6,023	-0,014	-0,007
-646,999	203,621	-0,089	-0,100
-645,984	354,363	0,059	0,085
-644,970	-200,000	0,012	-0,071
-643,955	-147,749	-0,079	-0,005
-642,941	-200,000	-0,005	-0,078
-641,926	-200,000	0,028	0,107
-640,911	240,222	0,101	-0,122
-639,897	46,372	0,104	0,070
-638,882	-7,485	-0,151	0,074
-637,868	17,200	-0,182	0,105
-636,853	-138,237	0,067	0,005
-635,838	800,000	0,028	-0,086
-634,824	-200,000	0,040	0,134
-633,809	-200,000	-0,034	-0,114
-632,795	104,101	0,016	-0,013
-631,780	-200,000	0,014	0,060
-630,765	-47,438	-0,122	-0,043
-629,751	-33,862	-0,148	0,059
-628,736	-8,436	0,023	-0,011
-627,722	-53,436	-0,077	-0,025
-626,707	18,931	0,028	-0,016
-625,692	297,664	-0,026	0,035
-624,678	-200,000	0,008	0,163
-623,663	33,414	-0,053	0,033
-622,649	43,406	-0,070	-0,046
-621,634	-11,527	-0,022	-0,011
-620,619	48,146	0,022	0,015
-619,605	-99,169	-0,160	-0,029
-618,590	-109,294	0,156	-0,024
-617,576	-42,497	0,108	0,040
-616,561	-200,000	0,010	-0,116
-615,546	800,000	0,003	-0,007
-614,532	79,592	-0,045	0,035
-613,517	-200,000	-0,014	0,073
-612,503	-200,000	-0,022	0,120
-611,488	-115,637	-0,076	0,010
-610,474	-3,369	0,076	0,038
-609,459	-155,097	-0,091	0,004
-608,444	435,810	-0,036	-0,057
-607,430	-25,676	-0,039	-0,017
-606,415	800,000	-0,025	-0,060
-605,401	76,078	0,146	0,111
-604,386	-1,439	-0,118	0,060
-603,371	-200,000	0,011	0,041
-602,357	-59,051	0,018	0,006
-601,342	-168,157	-0,027	-0,001
-600,328	397,479	-0,051	-0,077
-599,313	-200,000	-0,028	0,109
-598,298	162,221	-0,069	-0,070
-597,284	501,352	-0,024	0,041
-596,269	-200,000	0,002	0,024
-595,255	637,641	0,064	0,118
-594,240	-200,000	-0,016	-0,123
-593,225	427,846	-0,060	-0,094
-592,211	-200,000	-0,011	-0,056
-591,196	29,604	0,025	-0,015
-590,182	-119,244	0,080	0,010
-589,167	150,937	0,098	0,097
-588,152	800,000	-0,009	0,029
-587,138	-200,000	-0,008	-0,102
-586,123	17,661	-0,077	-0,044
-585,109	800,000	0,025	0,062
-584,094	-200,000	-0,016	0,071
-583,079	-200,000	-0,001	0,038
-582,065	172,066	-0,036	0,037
-581,050	-97,172	-0,005	-0,001
-580,036	-200,000	0,000	0,047
-579,021	-200,000	-0,008	-0,027
-578,006	203,965	-0,092	0,103
-576,992	-17,886	0,170	-0,077
-575,977	27,080	-0,194	0,117
-574,963	-67,258	0,066	0,019
-573,948	-105,167	0,011	0,002
-572,934	-200,000	-0,032	-0,110
-571,919	481,707	0,012	-0,019
-570,904	-200,000	0,001	-0,091
-569,890	-66,477	-0,085	0,024
-568,875	798,261	0,043	0,087
-567,861	-92,754	0,047	0,009
-566,846	-200,000	0,005	0,048
-565,831	-200,000	-0,020	-0,073
-564,817	800,000	-0,043	-0,117
-563,802	112,707	0,026	0,022
-562,788	-147,408	-0,113	-0,007
-561,773	194,626	0,063	-0,069
-560,758	-56,324	-0,052	-0,017
-559,744	-126,186	0,134	0,014
-558,729	-200,000	0,006	0,020
-557,715	51,302	-0,130	-0,089
-556,700	303,722	0,071	0,096
-555,685	103,870	-0,047	0,040
-554,671	766,210	-0,075	-0,149
-553,656	-26,522	-0,140	0,059
-552,642	-109,932	0,098	0,015
-551,627	-200,000	-0,053	0,178
-550,612	55,222	-0,061	0,043
-549,598	405,243	-0,023	-0,035
-548,583	371,010	0,020	-0,030
-547,569	-83,169	0,031	0,007
-546,554	-200,000	0,039	0,129
-545,539	382,990	-0,054	-0,081
-544,525	0,714	0,059	0,031
-543,510	800,000	0,041	-0,113
-542,496	172,533	0,039	-0,040
-541,481	-200,000	0,020	0,074
-540,466	-200,000	0,016	0,099
-539,452	323,945	-0,026	-0,035
-538,437	127,062	-0,012	0,011
-537,423	-29,932	-0,048	0,020
-536,408	167,317	-0,031	-0,032
-535,393	406,813	0,055	-0,083
-534,379	-114,120	-0,073	-0,010
-533,364	-55,030	-0,041	0,013
-532,350	800,000	0,072	0,215
-531,335	-91,422	-0,095	-0,019
-530,321	333,911	0,093	-0,131
-529,306	-32,657	-0,048	-0,019
-528,291	-200,000	-0,011	0,081
-527,277	-83,267	-0,095	-0,022
-526,262	230,605	0,033	-0,039
-525,248	161,228	0,110	-0,111
-524,233	527,153	-0,008	-0,014
-523,218	-42,236	0,158	-0,058
-522,204	-43,527	0,033	-0,012
-521,189	169,946	-0,025	0,026
-520,175	-200,000	0,027	-0,162
-519,160	-99,138	0,126	-0,023
-518,145	176,748	-0,079	-0,083
-517,131	30,824	0,069	0,042
-516,116	800,000	0,041	0,130
-515,102	-139,173	0,017	-0,001
-514,087	-200,000	-0,022	0,087
-513,072	800,000	-0,044	0,122
-512,058	800,000	0,026	0,052
-511,043	54,659	-0,100	0,069
-510,029	43,591	0,082	0,054
-509,014	3,137	0,068	0,035
-507,999	363,724	0,046	-0,067
-506,985	-131,548	-0,099	-0,009
-505,970	-82,622	-0,078	-0,018
-504,956	465,384	-0,044	0,071
-503,941	287,033	0,126	0,164
-502,926	457,773	-0,024	-0,038
-501,912	110,809	0,087	0,076
-500,897	-61,926	-0,132	0,039
-499,883	459,954	-0,034	-0,055
-498,868	-200,000	-0,008	-0,194
-497,853	-200,000	-0,015	0,185
-496,839	-200,000	-0,033	-0,110
-495,824	800,000	0,061	0,188
-494,810	260,816	0,063	0,079
-493,795	-200,000	-0,003	-0,161
-492,781	133,815	-0,164	-0,153
-491,766	-136,504	-0,041	-0,003
-490,751	141,198	0,054	-0,052
-489,737	-200,000	0,009	0,163
-488,722	-45,778	0,123	-0,044
-487,708	-63,418	0,122	0,036
-486,693	-20,212	0,086	0,038
-485,678	-23,115	-0,074	-0,032
-484,664	-200,000	-0,006	-0,085
-483,649	208,125	0,028	0,032
-482,635	800,000	-0,021	0,054
-481,620	-165,259	0,083	-0,003
-480,605	-182,202	-0,065	0,001
-479,591	800,000	0,011	0,025
-478,576	-2,502	-0,066	0,033
-477,562	162,130	-0,038	-0,038
-476,547	-65,490	-0,082	0,024
-475,532	-42,982	0,034	-0,012
-474,518	-200,000	0,006	0,051
-473,503	-42,005	0,125	0,046
-472,489	-163,083	0,114	-0,004
-471,474	-120,833	-0,045	-0,005
-470,459	203,979	0,016	0,018
-469,445	-200,000	0,024	-0,142
-468,430	-49,201	0,081	-0,028
-467,416	-43,395	0,088	0,032
-466,401	122,402	0,075	0,067
-465,386	28,910	0,045	-0,027
-464,372	800,000	-0,039	0,124
-463,357	-200,000	-0,004	-0,030
-462,343	-28,996	-0,095	-0,039
-461,328	-200,000	0,007	0,060
-460,313	155,740	0,033	-0,033
-459,299	-98,002	-0,084	0,015
-458,284	568,724	0,060	0,105
-457,270	-33,053	0,139	0,055
-456,255	-200,000	0,007	-0,073
-455,241	324,031	-0,069	0,094
-454,226	-17,889	0,091	-0,041
-453,211	-200,000	-0,012	0,043
-452,197	32,826	0,151	0,094
-451,182	111,283	-0,023	0,020
-450,168	-200,000	0,015	0,078
-449,153	1,722	0,021	-0,011
-448,138	233,990	0,045	0,053
-447,124	96,220	-0,023	-0,019
-446,109	74,606	-0,113	0,085
-445,095	-170,162	0,065	-0,002
-444,080	-200,000	0,011	-0,045
-443,065	-78,333	0,104	-0,025
-442,051	-56,091	-0,148	-0,047
-441,036	417,551	-0,070	-0,108
-440,022	-200,000	0,003	-0,057
-439,007	-200,000	0,036	0,124
-437,992	194,407	-0,035	-0,038
-436,978	2,655	0,043	0,022
-435,963	-74,805	0,018	0,005
-434,949	-200,000	-0,018	0,062
-433,934	-17,443	0,111	-0,050
-432,919	-200,000	0,003	-0,084
-431,905	-103,607	0,138	0,023
-430,890	800,000	0,041	-0,110
-429,876	385,661	0,072	0,108
-428,861	535,497	-0,048	-0,081
-427,846	-21,798	0,040	0,017
-426,832	75,632	0,119	-0,090
-425,817	-60,812	-0,043	-0,013
-424,803	212,685	0,042	-0,047
-423,788	-0,959	-0,010	0,005
-422,773	-51,073	0,133	0,045
-421,759	-134,674	0,041	-0,004
-420,744	151,436	0,090	-0,089
-419,730	800,000	-0,048	-0,097
-418,715	-200,000	-0,028	-0,115
-417,701	48,509	-0,036	-0,024
-416,686	78,169	0,069	-0,053
-415,671	-103,315	0,032	-0,005
-414,657	-200,000	0,004	-0,017
-413,642	285,415	-0,051	0,066
-412,628	-4,894	0,060	0,029
-411,613	416,445	0,040	-0,061
-410,598	207,603	-0,051	-0,057
-409,584	-84,452	0,103	0,023
-408,569	127,268	0,021	0,019
-407,555	629,227	0,048	0,087
-406,540	-103,675	-0,139	-0,023
-405,525	-14,421	0,062	-0,029
-404,511	77,507	-0,017	-0,013
-403,496	-200,000	0,006	0,069
-402,482	-89,982	0,073	-0,015
-401,467	153,217	0,047	-0,047
-400,452	1,850	0,133	0,069
-399,438	-90,369	0,139	-0,029
-398,423	242,097	-0,062	0,075
-397,409	800,000	0,023	-0,072
-396,394	-200,000	0,000	-0,130
-395,379	68,134	0,139	-0,102
-394,365	-12,204	0,102	0,048
-393,350	-14,199	0,112	0,051
-392,336	-200,000	-0,021	0,090
-391,321	-47,330	0,090	0,031
-390,306	-75,501	-0,179	-0,045
-389,292	350,230	0,074	0,105
-388,277	-139,463	0,150	0,011
-387,263	-200,000	0,006	-0,062
-386,248	303,900	0,050	-0,066
-385,233	-3,155	-0,191	0,095
-384,219	-153,629	-0,100	0,005
-383,204	-96,026	-0,078	-0,015
-382,190	-200,000	-0,003	-0,030
-381,175	800,000	-0,023	-0,059
-380,160	-12,958	0,101	0,047
-379,146	332,703	-0,033	0,045
-378,131	-154,466	-0,057	-0,003
-377,117	420,988	0,066	-0,102
-376,102	-132,879	-0,121	-0,011
-375,088	-88,241	0,109	0,023
-374,073	-18,874	-0,041	0,018
-373,058	156,480	0,030	0,030
-372,044	108,888	0,037	0,031
-371,029	-94,713	0,145	0,028
-370,015	34,979	-0,029	-0,018
-369,000	-200,000	0,008	-0,050
-367,985	104,564	0,024	0,020
-366,971	800,000	0,041	0,087
-365,956	-31,098	-0,135	-0,054
-364,942	-200,000	0,026	0,089
-363,927	-200,000	0,017	0,148
-362,912	583,169	-0,057	-0,101
-361,898	58,602	-0,042	-0,029
-360,883	6,157	-0,093	-0,049
-359,869	-200,000	-0,041	0,175
-358,854	800,000	0,020	0,043
-357,839	98,047	0,098	0,081
-356,825	800,000	0,053	0,123
-355,810	-200,000	-0,011	0,060
-354,796	176,125	-0,118	-0,123
-353,781	-144,158	-0,111	-0,007
-352,766	800,000	-0,043	0,107
-351,752	26,109	-0,067	0,040
-350,737	-46,711	0,058	0,020
-349,723	474,288	-0,022	-0,036
-348,708	-200,000	-0,013	-0,057
-347,693	-14,969	-0,011	0,005
-346,679	212,758	0,065	-0,074
-345,664	-62,547	0,057	0,017
-344,650	-126,468	-0,070	0,007
-343,635	-113,364	0,188	-0,026
-342,620	-119,986	-0,019	-0,002
-341,606	800,000	0,053	-0,106
-340,591	354,338	-0,055	-0,079
-339,577	48,146	0,031	-0,021
-338,562	800,000	-0,024	-0,073
-337,548	800,000	-0,029	-0,090
-336,533	-51,157	0,120	0,040
-335,518	800,000	-0,004	0,011
-334,504	-104,143	-0,171	0,028
-333,489	-200,000	-0,006	-0,117
-332,475	60,668	-0,088	0,062
-331,460	-200,000	-0,005	0,047
-330,445	-200,000	-0,037	0,136
-329,431	35,967	-0,040	0,025
-328,416	-82,782	-0,017	-0,004
-327,402	608,551	0,014	0,025
-326,387	-91,674	-0,168	-0,034
-325,372	216,029	-0,034	-0,038
-324,358	36,129	-0,110	-0,069
-323,343	-200,000	0,049	-0,164
-322,329	-200,000	-0,003	0,018
-321,314	800,000	0,037	-0,081
-320,299	-200,000	-0,003	-0,014
-319,285	34,664	-0,067	-0,042
-318,270	42,275	-0,061	-0,040
-317,256	415,627	-0,036	-0,055
-316,241	121,361	-0,070	-0,062
-315,226	33,884	-0,051	0,032
-314,212	43,362	-0,053	-0,035
-313,197	-75,191	0,131	-0,033
-312,183	6,602	-0,159	0,084
-311,168	451,984	-0,117	-0,186
-310,153	-200,000	-0,003	-0,054
-309,139	-10,780	0,104	-0,049
-308,124	800,000	-0,008	0,017
-307,110	178,040	0,071	0,075
-306,095	800,000	0,037	0,089
-305,080	138,084	0,095	-0,089
-304,066	800,000	-0,015	-0,043
-303,051	330,199	-0,066	-0,091
-302,037	-170,468	-0,049	-0,001
-301,022	-46,812	-0,119	-0,041
-300,008	208,434	0,031	-0,035
-298,993	535,980	0,013	0,022
-297,978	800,000	-0,019	0,060
-296,964	-34,324	-0,113	-0,044
-295,949	-129,284	0,017	-0,002
-294,935	50,965	0,080	0,054
-293,920	49,139	0,077	0,052
-292,905	-23,921	0,083	0,036
-291,891	131,505	0,092	-0,084
-290,876	-93,064	-0,056	-0,011
-289,862	800,000	-0,044	-0,088
-288,847	-80,943	-0,058	0,014
-287,832	-41,276	0,040	-0,015
-286,818	-96,023	0,084	-0,016
-285,803	522,928	-0,090	0,151
-284,789	105,366	0,130	0,109
-283,774	-89,951	0,035	0,007
-282,759	-52,494	-0,183	-0,060
-281,745	-18,385	-0,084	-0,037
-280,730	-200,000	0,004	0,028
-279,716	-143,888	0,073	-0,005
-278,701	201,519	0,033	0,037
-277,686	94,478	0,117	0,095
-276,672	37,626	-0,096	0,061
-275,657	-9,751	0,128	0,061
-274,643	172,572	0,009	-0,009
-273,628	246,403	-0,072	-0,087
-272,613	800,000	0,020	-0,045
-271,599	800,000	-0,037	0,087
-270,584	-25,410	-0,007	-0,003
-269,570	179,272	-0,071	-0,075
-268,555	800,000	0,010	-0,022
-267,540	800,000	-0,044	-0,093
-266,526	-200,000	-0,014	-0,084
-265,511	-71,228	0,130	-0,035
-264,497	88,960	-0,098	0,078
-263,482	195,531	0,079	-0,086
-262,467	-200,000	-0,004	-0,065
-261,453	-200,000	-0,005	0,211
-260,438	18,949	-0,076	-0,043
-259,424	-56,422	-0,011	0,004
-258,409	800,000	-0,049	-0,152
-257,395	-200,000	-0,013	0,103
-256,380	280,909	-0,082	0,105
-255,365	-200,000	-0,012	-0,133
-254,351	148,381	0,038	0,037
-253,336	-67,509	-0,032	0,009
-252,322	-200,000	-0,010	-0,036
-251,307	168,763	-0,074	-0,075
-250,292	383,467	0,078	0,115
-249,278	-4,834	0,091	-0,045
-248,263	-200,000	-0,030	0,110
-247,249	-200,000	0,017	0,060
-246,234	-200,000	-0,020	-0,071
-245,219	800,000	0,040	-0,083
-244,205	-76,620	-0,065	-0,016
-243,190	136,985	0,067	0,062
-242,176	265,039	-0,082	0,103
-241,161	800,000	0,047	0,105
-240,146	313,796	0,032	0,043
-239,132	-9,117	-0,112	0,053
-238,117	259,911	-0,056	-0,069
-237,103	98,911	-0,052	-0,043
-236,088	-194,564	-0,099	0,001
-235,073	-27,098	0,126	-0,052
-234,059	217,688	-0,073	-0,083
-233,044	124,465	-0,017	0,016
-232,030	-200,000	0,011	0,048
-231,015	-148,718	-0,025	-0,001
-230,000	517,424	0,073	-0,122
-228,986	620,498	-0,002	0,004
-227,971	-92,872	-0,174	0,034
-226,957	473,946	-0,021	-0,033
-225,942	-200,000	-0,004	-0,049
-224,927	800,000	-0,027	-0,083
-223,913	800,000	0,032	0,064
-222,898	25,814	-0,033	-0,020
-221,884	133,777	-0,064	0,059
-220,869	157,696	0,060	0,059
-219,855	800,000	0,016	0,042
-218,840	-70,915	0,187	0,050
-217,825	793,382	-0,059	-0,117
-216,811	604,893	0,046	-0,081
-215,796	-60,268	-0,137	-0,041
-214,782	-30,223	0,032	0,013
-213,767	332,560	0,004	-0,006
-212,752	298,180	-0,052	-0,068
-211,738	578,761	0,022	-0,039
-210,723	-27,297	0,059	-0,024
-209,709	-17,193	-0,022	-0,010
-208,694	69,556	-0,097	0,071
-207,679	-97,124	-0,070	-0,013
-206,665	181,581	0,056	-0,059
-205,650	-118,259	0,123	-0,015
-204,636	-130,391	-0,024	0,002
-203,621	673,113	-0,076	-0,142
-202,606	12,819	-0,108	0,059
-201,592	-200,000	-0,022	-0,105
-200,577	-200,000	-0,013	0,070
-199,563	732,084	0,030	0,058
-198,548	-175,924	0,023	0,000
-197,533	36,599	0,051	0,032
-196,519	-69,777	0,169	-0,046
-195,504	388,703	-0,019	0,028
-194,490	800,000	-0,039	-0,124
-193,475	44,461	-0,058	-0,038
-192,460	32,310	0,111	-0,068
-191,446	-79,172	0,131	0,031
-190,431	68,951	0,063	0,046
-189,417	800,000	0,012	-0,032
-188,402	-66,577	-0,046	0,013
-187,387	-55,323	-0,108	-0,034
-186,373	-128,651	-0,011	-0,001
-185,358	257,326	-0,064	-0,079
-184,344	326,023	0,087	0,119
-183,329	-200,000	0,001	0,112
-182,315	800,000	0,033	0,101
-181,300	-200,000	0,019	-0,067
-180,285	-200,000	-0,019	-0,064
-179,271	-89,062	-0,137	-0,029
-178,256	-73,061	-0,059	0,015
-177,242	193,777	-0,084	0,091
-176,227	-200,000	0,013	0,135
-175,212	155,799	0,072	0,071
-174,198	-79,169	-0,187	0,045
-173,183	-149,397	-0,045	-0,002
-172,169	-200,000	0,003	0,107
-171,154	-32,400	-0,038	0,015
-170,139	-200,000	0,201	-0,000
-169,125	-38,519	0,210	0,079
-168,110	800,000	0,044	-0,095
-167,096	243,150	-0,012	-0,014
-166,081	-1,204	-0,141	-0,071
-165,066	-87,554	-0,104	0,022
-164,052	-117,668	-0,114	-0,014
-163,037	-68,287	0,030	-0,008
-162,023	-200,000	0,033	0,132
-161,008	-57,806	-0,080	-0,025
-159,993	532,630	0,052	-0,088
-158,979	338,311	0,049	-0,067
-157,964	514,207	-0,043	-0,071
-156,950	-200,000	0,014	-0,061
-155,935	800,000	0,011	0,026
-154,920	124,319	0,053	-0,047
-153,906	-200,000	0,013	0,103
-152,891	-14,484	0,164	-0,075
-151,877	-200,000	0,003	-0,040
-150,862	-4,173	-0,048	0,024
-149,847	400,935	0,107	-0,161
-148,833	-118,920	0,090	0,011
-147,818	260,496	0,082	0,101
-146,804	520,361	0,091	-0,151
-145,789	-200,000	0,000	-0,034
-144,775	81,832	0,058	-0,045
-143,760	-134,387	-0,114	-0,010
-142,745	-120,644	0,113	0,013
-141,731	97,750	0,113	-0,093
-140,716	317,156	0,047	0,064
-139,702	800,000	0,019	0,049
-138,687	-69,541	-0,201	0,054
-137,672	286,677	0,027	0,035
-136,658	118,191	-0,073	0,064
-135,643	-147,497	-0,082	-0,005
-134,629	311,286	0,050	-0,066
-133,614	-200,000	0,009	0,147
-132,599	207,539	0,065	0,072
-131,585	-68,869	0,042	0,012
-130,570	196,221	-0,045	0,049
-129,556	-73,874	0,043	-0,011
-128,541	800,000	0,044	-0,097
-127,526	-41,164	-0,115	-0,042
-126,512	374,118	0,094	0,136
-125,497	412,216	0,080	0,121
-124,483	800,000	0,045	0,095
-123,468	-200,000	0,005	0,078
-122,453	-115,334	-0,051	0,007
-121,439	-71,502	0,146	0,038
-120,424	-70,429	-0,065	0,017
-119,410	-137,909	0,036	-0,003
-118,395	-97,362	-0,144	-0,026
-117,380	-102,190	0,074	-0,013
-116,366	8,565	0,076	0,041
-115,351	-200,000	0,030	-0,097
-114,337	-47,195	0,031	-0,011
-113,322	800,000	0,010	0,024
-112,307	-79,341	0,029	0,007
-111,293	-39,330	0,044	0,016
-110,278	-26,569	0,101	0,042
-109,264	-62,663	-0,117	0,034
-108,249	800,000	-0,062	-0,172
-107,234	-200,000	-0,041	-0,136
-106,220	158,362	0,041	0,040
-105,205	-122,312	-0,049	0,006
-104,191	-52,907	0,061	0,020
-103,176	-87,097	0,107	0,023
-102,162	-129,068	-0,158	0,015
-101,147	133,102	-0,068	-0,062
-100,132	83,264	0,017	-0,013
-99,118	-107,438	-0,086	-0,013
-98,103	-4,665	-0,065	0,032
-97,089	-200,000	0,045	0,220
-96,074	213,782	0,043	-0,048
-95,059	21,056	0,091	-0,052
-94,045	154,625	-0,067	-0,066
-93,030	800,000	0,003	0,007
-92,016	-200,000	0,014	-0,079
-91,001	642,437	-0,025	0,046
-89,986	121,149	0,115	0,101
-88,972	-50,379	0,113	0,038
-87,957	-200,000	0,027	-0,088
-86,943	138,664	-0,073	-0,068
-85,928	-44,255	0,100	-0,035
-84,913	325,463	0,060	-0,081
-83,899	800,000	-0,018	-0,039
-82,884	-29,662	-0,083	-0,033
-81,870	800,000	-0,033	-0,073
-80,855	-62,392	-0,053	0,016
-79,840	-200,000	0,016	-0,080
-78,826	24,946	-0,010	-0,006
-77,811	37,449	-0,062	-0,039
-76,797	800,000	-0,037	0,103
-75,782	-67,210	0,103	0,029
-74,767	-200,000	0,006	-0,100
-73,753	-110,279	0,097	0,014
-72,738	800,000	-0,062	0,173
-71,724	94,883	-0,092	-0,074
-70,709	5,059	-0,070	0,037
-69,694	-112,863	0,019	-0,003
-68,680	-177,235	0,088	-0,002
-67,665	-200,000	-0,000	0,019
-66,651	1,421	0,127	-0,065
-65,636	-74,543	0,093	0,024
-64,622	238,509	-0,044	0,052
-63,607	540,771	-0,036	-0,061
-62,592	529,556	0,051	0,085
-61,578	-200,000	0,032	-0,111
-60,563	205,984	-0,027	0,029
-59,549	131,763	0,012	-0,011
-58,534	88,474	-2,773	-2,181
-57,519	-44,462	0,403	-0,142
-56,505	-200,000	-1,640	-5,559
-55,490	349,563	1,174	1,647
-54,476	800,000	5,392	12,019
-53,461	-200,000	22,348	349,274
-52,446	800,000	760,776	2294,725
-51,432	523,350	1647,138	2752,038
-50,417	66,412	1655,237	1189,857
-49,403	14,689	1574,033	868,770
-48,388	9,475	1526,395	815,917
-47,373	18,651	1520,459	859,125
-46,359	12,974	1508,703	824,004
-45,344	8,015	1504,834	796,949
-44,330	7,919	1502,877	795,401
-43,315	7,822	1501,217	794,002
-42,300	7,818	1499,249	792,911
-41,286	7,832	1497,566	792,061
-40,271	7,827	1496,124	791,242
-39,257	7,836	1494,961	790,639
-38,242	7,858	1493,476	789,932
-37,227	7,863	1491,903	789,095
-36,213	7,840	1490,838	788,384
-35,198	7,789	1489,281	787,275
-34,184	7,847	1487,919	786,811
-33,169	7,833	1486,665	786,047
-32,154	7,880	1484,803	785,267
-31,140	7,877	1483,642	784,605
-30,125	7,884	1482,432	783,971
-29,111	7,866	1481,084	783,138
-28,096	7,873	1479,900	782,518
-27,082	7,810	1479,328	781,869
-26,067	7,837	1477,890	781,214
-25,052	7,847	1476,618	780,557
-24,038	7,769	1475,522	779,562
-23,023	7,812	1474,754	779,338
-22,009	7,826	1473,618	778,778
-20,994	7,878	1472,774	778,556
-19,979	7,871	1471,536	777,834
-18,965	7,811	1470,567	776,998
-17,950	7,836	1469,403	776,472
-16,936	7,822	1468,805	776,057
-15,921	7,783	1467,552	775,176
-14,906	7,763	1466,542	774,513
-13,892	7,748	1465,535	773,879
-12,877	7,692	1464,746	773,157
-11,863	7,696	1463,444	772,454
-10,848	7,682	1462,669	771,947
-9,833	7,779	1461,815	771,939
-8,819	7,758	1460,881	771,314
-7,804	7,721	1459,675	770,467
-6,790	7,752	1459,065	770,267
-5,775	7,819	1458,030	770,012
-4,760	7,789	1457,418	769,516
-3,746	7,728	1456,145	768,514
-2,731	7,646	1454,901	767,433
-1,717	7,590	1454,025	766,665
-0,702	7,595	1453,054	766,149
0,313	7,390	1451,978	765,741
1,327	11,193	1449,086	782,552
2,342	20,278	1209,203	689,425
3,356	16,100	677,764	377,012
4,371	-11,885	459,604	212,490
5,386	-15,122	432,708	195,300
6,400	-16,112	423,743	189,817
7,415	-15,631	420,100	188,852
8,429	-17,211	417,313	185,350
9,444	-17,247	415,881	184,647
10,459	-17,497	414,807	183,803
11,473	-17,504	413,983	183,412
12,488	-17,605	412,808	182,733
13,502	-17,660	412,098	182,327
14,517	-17,758	411,317	181,829
15,531	-17,904	410,549	181,271
16,546	-18,032	409,948	180,811
17,561	-18,054	409,497	180,566
18,575	-17,792	408,665	180,545
19,590	-17,976	408,168	180,056
20,604	-17,926	407,797	179,944
21,619	-18,013	407,202	179,547
22,634	-18,193	406,708	179,065
23,648	-18,142	406,110	178,855
24,663	-18,038	405,694	178,800
25,677	-18,166	405,328	178,446
26,692	-18,060	405,054	178,455
27,707	-17,977	404,408	178,267
28,721	-18,051	404,106	178,017
29,736	-18,033	403,629	177,817
30,750	-18,146	403,162	177,440
31,765	-18,142	402,765	177,255
32,780	-18,122	402,306	177,065
33,794	-18,102	402,144	177,006
34,809	-17,994	401,495	176,849
35,823	-18,149	401,408	176,585
36,838	-18,156	400,781	176,285
37,853	-18,173	400,470	176,109
38,867	-18,235	400,083	175,840
39,882	-18,087	399,673	175,843
40,896	-17,998	399,260	175,767
41,911	-18,057	398,860	175,495
42,926	-18,114	398,457	175,225
43,940	-18,090	398,233	175,144
44,955	-17,975	397,945	175,156
45,969	-18,048	397,517	174,853
46,984	-18,111	397,012	174,532
47,999	-18,063	396,741	174,461
49,013	-18,132	396,486	174,241
50,028	-18,136	396,090	174,046
51,042	-18,202	395,733	173,786
52,057	-18,200	395,271	173,571
53,071	-18,254	394,995	173,362
54,086	-18,114	394,662	173,386
55,101	-18,081	394,357	173,280
56,115	-17,924	393,993	173,314
57,130	-18,026	393,873	173,111
58,144	-17,941	393,361	172,982
59,159	-17,770	392,815	172,953
60,174	-17,846	392,680	172,778
61,188	-17,833	392,370	172,643
62,203	-17,926	391,942	172,317
63,217	-17,922	391,553	172,135
64,232	-17,851	391,363	172,130
65,247	-17,823	390,831	171,918
66,261	-17,965	390,693	171,655
67,276	-18,130	390,230	171,220
68,290	-17,975	389,850	171,240
69,305	-17,923	389,392	171,093
70,320	-18,085	389,145	170,756
71,334	-17,956	388,886	170,797
72,349	-17,842	388,587	170,799
73,363	-17,744	388,116	170,704
74,378	-17,849	387,920	170,466
75,393	-17,991	387,664	170,153
76,407	-17,907	387,113	170,006
77,422	-18,012	386,778	169,707
78,436	-17,796	386,481	169,842
79,451	-17,928	386,279	169,567
80,466	-17,962	385,807	169,301
81,480	-17,974	385,388	169,086
82,495	-18,086	385,371	168,919
83,509	-18,000	384,977	168,841
84,524	-18,107	384,690	168,563
85,539	-17,959	384,325	168,578
86,553	-18,022	384,092	168,379
87,568	-18,106	383,647	168,061
88,582	-18,029	383,350	168,016
89,597	-18,039	383,055	167,858
90,611	-17,962	382,704	167,789
91,626	-17,810	382,424	167,846
92,641	-18,010	382,422	167,573
93,655	-17,939	381,940	167,439
94,670	-17,997	381,542	167,175
95,684	-17,967	381,337	167,109
96,699	-17,894	380,926	167,007
97,714	-17,920	380,636	166,832
98,728	-18,063	380,203	166,444
99,743	-17,964	379,951	166,445
100,757	-18,108	379,778	166,172
101,772	-17,960	379,347	166,156
102,787	-18,010	379,129	165,983
103,801	-17,968	378,762	165,861
104,816	-17,963	378,527	165,749
105,830	-17,863	378,237	165,735
106,845	-17,881	378,082	165,629
107,860	-17,939	377,770	165,404
108,874	-17,757	377,297	165,412
109,889	-17,731	377,025	165,311
110,903	-17,716	376,616	165,136
111,918	-17,856	376,342	164,824
112,933	-17,826	376,121	164,751
113,947	-17,861	376,020	164,647
114,962	-17,759	375,622	164,587
115,976	-17,736	375,138	164,390
116,991	-17,761	374,951	164,261
118,006	-17,903	374,860	164,029
119,020	-17,811	374,497	163,970
120,035	-17,833	374,187	163,793
121,049	-17,753	373,981	163,788
122,064	-17,816	373,699	163,571
123,079	-17,776	373,417	163,483
124,093	-17,857	373,106	163,231
125,108	-17,907	372,730	162,990
126,122	-17,998	372,262	162,657
127,137	-17,920	372,011	162,630
128,151	-17,929	371,732	162,483
129,166	-17,980	371,515	162,310
130,181	-17,887	371,114	162,236
131,195	-17,895	370,757	162,055
132,210	-17,756	370,545	162,121
133,224	-17,892	370,494	161,915
134,239	-17,807	370,058	161,815
135,254	-17,585	369,771	161,950
136,268	-17,797	369,486	161,548
137,283	-17,802	369,122	161,369
138,297	-17,912	368,818	161,086
139,312	-17,951	368,563	160,912
140,327	-17,595	368,102	161,135
141,341	-17,696	367,857	160,889
142,356	-17,589	367,718	160,945
143,370	-17,584	367,402	160,798
144,385	-17,584	367,072	160,639
145,400	-17,649	366,906	160,473
146,414	-17,707	366,528	160,223
147,429	-17,729	366,335	160,097
148,443	-17,697	366,136	160,034
149,458	-17,601	365,821	160,000
150,473	-17,623	365,620	159,871
151,487	-17,676	365,282	159,644
152,502	-17,646	365,082	159,580
153,516	-17,690	364,714	159,351
154,531	-17,599	364,502	159,355
155,546	-17,639	364,237	159,177
156,560	-17,670	363,928	158,989
157,575	-17,622	363,609	158,894
158,589	-17,484	363,276	158,901
159,604	-17,572	363,098	158,704
160,619	-17,600	362,739	158,498
161,633	-17,645	362,452	158,303
162,648	-17,556	362,305	158,333
163,662	-17,551	362,189	158,274
164,677	-17,621	361,877	158,039
165,692	-17,411	361,711	158,207
166,706	-17,465	361,331	157,961
167,721	-17,510	361,128	157,804
168,735	-17,497	360,835	157,678
169,750	-17,575	360,623	157,477
170,764	-17,550	360,374	157,384
171,779	-17,628	360,415	157,294
172,794	-17,596	360,124	157,192
173,808	-17,596	359,741	157,011
174,823	-17,734	359,257	156,619
175,837	-17,775	359,153	156,512
176,852	-17,644	359,023	156,598
177,867	-17,475	358,493	156,555
178,881	-17,591	358,433	156,376
179,896	-17,607	358,127	156,209
180,910	-17,635	358,016	156,113
181,925	-17,519	357,794	156,141
182,940	-17,665	357,582	155,861
183,954	-17,514	357,179	155,850
184,969	-17,579	356,987	155,676
185,983	-17,485	356,709	155,653
186,998	-17,449	356,498	155,589
188,013	-17,537	356,274	155,374
189,027	-17,552	355,940	155,195
190,042	-17,545	355,688	155,080
191,056	-17,461	355,677	155,162
192,071	-17,347	355,413	155,167
193,086	-17,331	355,054	155,015
194,100	-16,997	355,108	155,420
195,115	-16,297	354,971	156,173
196,129	-14,941	355,715	158,092
197,144	-10,851	357,479	163,724
198,159	-7,438	358,986	168,468
199,173	-4,656	360,477	172,477
200,188	-3,812	360,531	173,496
201,202	-3,716	360,542	173,601
202,217	-3,459	360,252	173,752
203,232	-3,134	359,912	173,959
204,246	-3,069	359,684	173,910
205,261	-2,956	359,612	173,995
206,275	-2,828	359,428	174,043
207,290	-2,692	359,089	174,024
208,304	-2,974	359,019	173,640
209,319	-2,792	358,579	173,628
210,334	-2,904	358,445	173,414
211,348	-2,878	358,295	173,357
212,363	-2,654	357,996	173,462
213,377	-2,771	358,061	173,340
214,392	-2,837	357,797	173,118
215,407	-2,779	357,297	172,930
216,421	-2,617	356,962	172,943
217,436	-2,715	356,889	172,777
218,450	-2,719	356,596	172,615
219,465	-2,587	356,353	172,637
220,480	-2,585	356,174	172,538
221,494	-2,750	356,084	172,285
222,509	-2,656	355,717	172,202
223,523	-2,645	355,479	172,085
224,538	-2,646	355,265	171,964
225,553	-2,790	355,018	171,660
226,567	-2,679	354,687	171,616
227,582	-2,699	354,546	171,508
228,596	-2,703	354,518	171,475
229,611	-2,621	354,138	171,371
230,626	-2,756	353,936	171,101
231,640	-2,686	353,428	170,921
232,655	-2,622	353,343	170,940
233,669	-2,657	353,141	170,786
234,684	-2,589	352,811	170,690
235,699	-2,540	352,696	170,677
236,713	-2,545	352,423	170,523
237,728	-2,581	352,252	170,384
238,742	-2,640	351,948	170,154
239,757	-2,681	351,720	169,980
240,772	-2,724	351,480	169,799
241,786	-2,462	351,180	169,943
242,801	-2,534	351,110	169,810
243,815	-2,565	350,922	169,668
244,830	-2,540	350,630	169,541
245,844	-2,618	350,507	169,375
246,859	-2,531	350,164	169,296
247,874	-2,562	349,944	169,138
248,888	-2,745	349,718	168,803
249,903	-2,745	349,615	168,738
250,917	-2,600	349,302	168,739
251,932	-2,498	348,973	168,682
252,947	-2,453	348,755	168,614
253,961	-2,600	348,567	168,339
254,976	-2,624	348,276	168,155
255,990	-2,432	348,014	168,234
257,005	-2,580	347,853	167,973
258,020	-2,669	347,671	167,767
259,034	-2,625	347,513	167,727
260,049	-2,515	347,122	167,648
261,063	-2,574	347,085	167,548
262,078	-2,500	346,720	167,441
263,093	-2,633	346,486	167,162
264,107	-2,608	346,215	167,045
265,122	-2,433	346,078	167,163
266,136	-2,577	345,747	166,824
267,151	-2,468	345,656	166,889
268,166	-2,467	345,269	166,689
269,180	-2,530	345,073	166,507
270,195	-2,578	344,918	166,364
271,209	-2,529	344,764	166,331
272,224	-2,602	344,560	166,134
273,239	-2,333	344,341	166,319
274,253	-2,378	343,936	166,057
275,268	-2,540	343,801	165,794
276,282	-2,535	343,725	165,749
277,297	-2,384	343,290	165,694
278,312	-2,401	343,108	165,572
279,326	-2,538	342,974	165,338
280,341	-2,367	342,832	165,448
281,355	-2,460	342,695	165,263
282,370	-2,397	342,407	165,179
283,384	-2,376	342,101	165,041
284,399	-2,427	341,952	164,897
285,414	-2,477	341,733	164,720
286,428	-2,450	341,474	164,611
287,443	-2,332	341,251	164,621
288,457	-2,541	341,027	164,264
289,472	-2,321	340,727	164,352
290,487	-2,341	340,627	164,266
291,501	-2,449	340,355	163,999
292,516	-2,387	340,232	163,995
293,530	-2,182	339,949	164,073
294,545	-2,313	339,775	163,828
295,560	-2,367	339,547	163,644
296,574	-2,180	339,255	163,696
297,589	-2,378	339,074	163,374
298,603	-2,353	338,769	163,241
299,618	-2,415	338,593	163,072
300,633	-2,367	338,431	163,033
301,647	-2,251	338,370	163,117
302,662	-2,286	338,021	162,896
303,676	-2,226	337,721	162,804
304,691	-2,353	337,490	162,537
305,706	-2,185	337,306	162,620
306,720	-2,263	337,102	162,421
307,735	-2,230	336,886	162,338
308,749	-2,134	336,624	162,304
309,764	-2,289	336,481	162,049
310,779	-2,202	336,294	162,041
311,793	-2,148	336,034	161,960
312,808	-2,266	335,844	161,724
313,822	-2,145	335,726	161,786
314,837	-2,361	335,483	161,417
315,852	-2,272	335,178	161,354
316,866	-1,956	334,938	161,570
317,881	-2,180	334,777	161,233
318,895	-2,177	334,554	161,114
319,910	-2,079	334,223	161,048
320,925	-2,306	334,166	160,759
321,939	-2,255	334,038	160,738
322,954	-2,245	333,778	160,610
323,968	-2,076	333,632	160,709
324,983	-1,952	333,294	160,667
325,997	-2,212	333,173	160,311
327,012	-2,001	332,935	160,412
328,027	-2,203	332,603	160,019
329,041	-2,289	332,513	159,867
330,056	-2,187	332,230	159,828
331,070	-2,188	332,140	159,769
332,085	-1,971	331,800	159,826
333,100	-1,963	331,635	159,742
334,114	-1,920	331,330	159,627
335,129	-2,037	331,170	159,409
336,143	-1,991	330,909	159,319
337,158	-2,145	330,711	159,043
338,173	-2,066	330,483	159,004
339,187	-1,835	330,414	159,206
340,202	-2,045	330,117	158,822
341,216	-1,889	329,730	158,790
342,231	-1,999	329,534	158,564
343,246	-1,975	329,387	158,504
344,260	-1,966	329,279	158,448
345,275	-2,041	329,089	158,262
346,289	-2,035	328,820	158,125
347,304	-2,165	328,613	157,872
348,319	-1,981	328,488	157,994
349,333	-1,932	328,183	157,886
350,348	-1,990	327,902	157,675
351,362	-1,855	327,622	157,671
352,377	-1,917	327,579	157,570
353,392	-1,775	327,345	157,595
354,406	-2,021	327,088	157,194
355,421	194,990	1324,817	1381,636
356,435	159,419	1446,185	1381,468
