DTS Sentinel unit serial number:	SN410029Multiplexer serial number:	ORYXHardware model number:	OX2-SRSoftware version number:	ORYX F/W v4,00 Oryx Data Collector v3.7.2.0data status	okinstallation	B6 Nyhavnadifferential loss correction	single-endedforward channel	channel 2reverse channel	N/Adate	2023/12/07time	22:30:08forward acquisition time	300,00reverse acquisition time	0,00gamma	499,1914k internal	0,3164k external	0,3164temperature offset calibration	1,0000default loss term (dB/km)	0,3820temperature slope calibration	1,0000multiplexer offset coefficient	1,0000multiplexer slope coefficient	1,0000fibre end	0,00T internal ref (°C)	13,56T ext. ref 1 (°C)	-3,33T ext. ref 2 (°C)	-3,32length (m)	temperature (°C)	Stokes	anti-Stokes-744,400	55,321	0,141	0,101
-743,385	-124,527	-0,228	-0,026
-742,371	6,815	0,158	0,086
-741,356	-116,673	-0,211	0,028
-740,342	800,000	0,043	0,107
-739,327	-117,888	-0,322	0,042
-738,312	291,522	0,130	0,174
-737,298	-155,005	-0,332	-0,016
-736,283	-32,333	0,085	0,035
-735,269	-95,691	-0,263	0,051
-734,254	382,539	0,082	0,124
-733,239	11,820	-0,486	-0,274
-732,225	-105,905	0,237	0,039
-731,210	16,228	0,062	-0,036
-730,196	-200,000	0,019	-0,099
-729,181	-101,131	-0,124	-0,022
-728,167	-85,060	-0,117	0,027
-727,152	77,193	-0,031	-0,024
-726,137	800,000	-0,036	-0,081
-725,123	310,128	-0,064	-0,089
-724,108	210,902	-0,128	-0,148
-723,094	328,276	0,058	-0,081
-722,079	-31,131	-0,185	-0,076
-721,064	-50,621	-0,133	-0,046
-720,050	611,516	0,060	0,111
-719,035	-174,289	0,052	-0,001
-718,021	800,000	-0,030	-0,080
-717,006	-200,000	-0,004	-0,118
-715,991	-22,644	-0,181	-0,080
-714,977	227,597	0,070	-0,084
-713,962	-200,000	-0,001	-0,004
-712,948	800,000	0,030	0,074
-711,933	-79,748	0,117	0,029
-710,918	387,695	-0,025	0,038
-709,904	-200,000	-0,004	-0,047
-708,889	-139,987	-0,179	0,014
-707,875	279,722	0,028	-0,037
-706,860	178,212	0,040	0,043
-705,845	-108,056	0,029	0,005
-704,831	-200,000	0,000	-0,068
-703,816	3,390	-0,041	0,022
-702,802	-167,662	-0,049	-0,001
-701,787	197,690	-0,060	-0,068
-700,772	800,000	-0,049	0,109
-699,758	704,171	-0,052	-0,102
-698,743	-54,780	0,095	-0,031
-697,729	800,000	0,065	-0,179
-696,714	99,350	0,074	0,063
-695,699	-200,000	-0,003	-0,127
-694,685	362,837	-0,081	-0,120
-693,670	-200,000	-0,014	-0,171
-692,656	526,889	-0,030	-0,052
-691,641	129,906	0,064	-0,060
-690,627	-200,000	-0,006	-0,024
-689,612	-43,603	0,107	0,039
-688,597	-200,000	-0,021	-0,119
-687,583	107,277	-0,128	-0,112
-686,568	-200,000	-0,058	-0,318
-685,554	95,029	0,100	-0,083
-684,539	-97,216	0,084	0,016
-683,524	800,000	-0,045	-0,143
-682,510	800,000	-0,061	-0,124
-681,495	-54,745	-0,087	-0,029
-680,481	107,130	0,051	0,044
-679,466	-109,824	0,035	-0,005
-678,451	800,000	0,011	-0,026
-677,437	-53,305	0,088	0,029
-676,422	800,000	0,037	0,096
-675,408	-110,988	-0,109	-0,016
-674,393	72,307	0,126	-0,096
-673,378	-200,000	0,042	-0,170
-672,364	-200,000	-0,010	-0,068
-671,349	212,100	0,202	-0,234
-670,335	-58,762	0,106	0,033
-669,320	150,836	-0,119	0,119
-668,305	244,581	-0,086	0,106
-667,291	329,344	0,104	-0,147
-666,276	800,000	-0,048	-0,129
-665,262	143,184	0,073	0,071
-664,247	-65,495	-0,029	0,008
-663,232	800,000	0,016	0,037
-662,218	-200,000	0,029	-0,141
-661,203	-121,374	0,027	0,003
-660,189	67,661	-0,106	0,079
-659,174	-146,619	-0,171	0,011
-658,159	-200,000	0,022	0,089
-657,145	-200,000	0,012	0,046
-656,130	224,357	-0,081	-0,097
-655,116	-71,073	-0,073	0,020
-654,101	-65,588	0,161	0,047
-653,086	-72,949	0,032	0,009
-652,072	-122,730	0,055	-0,006
-651,057	-97,046	-0,048	-0,009
-650,043	-200,000	0,001	-0,051
-649,028	356,844	0,083	-0,122
-648,014	338,713	0,053	0,076
-646,999	-200,000	0,001	0,072
-645,984	71,719	0,056	-0,043
-644,970	800,000	-0,016	-0,037
-643,955	637,129	0,094	-0,176
-642,941	-200,000	-0,012	-0,086
-641,926	800,000	0,038	-0,091
-640,911	87,826	0,020	-0,017
-639,897	-200,000	-0,010	0,166
-638,882	-73,905	0,089	0,024
-637,868	-103,526	-0,071	0,012
-636,853	-64,900	0,032	-0,009
-635,838	61,804	-0,095	-0,069
-634,824	-200,000	-0,014	-0,079
-633,809	80,051	0,029	0,023
-632,795	-49,090	-0,039	0,014
-631,780	-200,000	0,012	0,135
-630,765	-200,000	0,021	-0,070
-629,751	45,612	0,039	-0,027
-628,736	-199,821	-0,028	0,000
-627,722	208,421	0,065	0,074
-626,707	-200,000	0,025	0,129
-625,692	206,708	0,053	0,061
-624,678	-60,696	0,122	0,038
-623,663	800,000	-0,016	0,034
-622,649	-20,851	-0,044	0,020
-621,634	-123,520	-0,135	0,016
-620,619	800,000	-0,028	-0,075
-619,605	800,000	-0,042	-0,093
-618,590	-200,000	0,008	0,053
-617,576	3,872	-0,038	0,020
-616,561	-3,795	0,098	0,050
-615,546	800,000	-0,014	-0,028
-614,532	475,989	-0,055	0,091
-613,517	-125,989	0,103	0,011
-612,503	78,412	-0,024	0,019
-611,488	146,685	0,156	0,154
-610,474	-54,305	0,012	0,004
-609,459	800,000	0,040	0,100
-608,444	-65,353	-0,132	0,039
-607,430	-19,436	-0,064	-0,029
-606,415	-200,000	0,007	0,055
-605,401	-107,279	-0,071	-0,011
-604,386	623,816	-0,065	-0,121
-603,371	86,385	0,045	0,036
-602,357	278,026	-0,031	-0,040
-601,342	141,173	-0,076	0,074
-600,328	179,018	-0,074	0,079
-599,313	481,339	0,067	-0,112
-598,298	-181,396	0,155	-0,002
-597,284	-65,569	-0,182	0,053
-596,269	84,157	0,017	-0,014
-595,255	800,000	0,042	0,111
-594,240	-200,000	0,029	-0,106
-593,225	534,996	-0,063	-0,110
-592,211	-200,000	0,002	0,031
-591,196	-200,000	0,017	-0,069
-590,182	562,037	-0,018	-0,031
-589,167	23,033	0,087	0,052
-588,152	-200,000	-0,007	-0,056
-587,138	-34,935	0,053	0,021
-586,123	645,355	-0,024	-0,044
-585,109	135,085	-0,144	-0,137
-584,094	800,000	-0,045	-0,110
-583,079	114,882	0,021	0,019
-582,065	32,719	0,084	-0,053
-581,050	-12,523	0,111	-0,053
-580,036	-200,000	-0,007	-0,029
-579,021	-200,000	0,009	-0,035
-578,006	109,675	0,068	-0,059
-576,992	-54,041	-0,081	-0,027
-575,977	703,827	-0,043	-0,083
-574,963	693,439	0,034	-0,065
-573,948	800,000	-0,054	0,167
-572,934	-41,908	-0,110	0,041
-571,919	0,890	-0,081	-0,042
-570,904	317,217	-0,056	0,078
-569,890	2,670	-0,143	0,076
-568,875	115,847	0,037	0,033
-567,861	-114,646	0,134	-0,019
-566,846	-59,350	0,016	0,005
-565,831	56,559	-0,022	0,016
-564,817	-25,645	0,067	0,029
-563,802	800,000	-0,017	-0,051
-562,788	615,448	0,078	0,144
-561,773	472,988	0,051	0,083
-560,758	-200,000	-0,002	0,082
-559,744	800,000	-0,050	0,154
-558,729	-42,160	0,051	0,019
-557,715	-200,000	-0,037	-0,126
-556,700	-200,000	0,031	-0,141
-555,685	-200,000	0,013	-0,123
-554,671	-7,529	-0,071	-0,035
-553,656	-73,783	0,149	-0,039
-552,642	89,179	0,128	-0,104
-551,627	62,691	0,141	-0,103
-550,612	-56,548	-0,099	-0,032
-549,598	711,458	0,064	-0,125
-548,583	-200,000	-0,032	-0,166
-547,569	-42,844	0,103	-0,038
-546,554	-90,387	0,088	0,019
-545,539	-200,000	0,029	0,095
-544,525	-200,000	0,020	-0,136
-543,510	393,454	-0,059	-0,090
-542,496	-200,000	-0,040	0,145
-541,481	-200,000	0,005	-0,033
-540,466	235,964	0,046	0,055
-539,452	23,117	0,111	0,066
-538,437	800,000	-0,059	0,142
-537,423	101,745	-0,014	-0,012
-536,408	-200,000	0,013	-0,143
-535,393	-200,000	-0,021	-0,223
-534,379	-200,000	-0,007	-0,089
-533,364	-200,000	-0,035	-0,119
-532,350	137,793	-0,018	0,017
-531,335	-95,044	0,025	-0,005
-530,321	-169,129	0,061	0,002
-529,306	-180,820	-0,216	0,003
-528,291	-30,062	-0,068	-0,028
-527,277	-138,202	-0,196	0,016
-526,262	302,912	0,031	0,041
-525,248	420,073	0,068	0,107
-524,233	56,554	0,113	0,080
-523,218	226,741	-0,037	0,044
-522,204	-135,133	-0,039	0,003
-521,189	-200,000	0,000	-0,061
-520,175	-92,012	-0,158	-0,032
-519,160	800,000	0,039	0,090
-518,145	-200,000	0,001	0,015
-517,131	120,472	0,080	0,073
-516,116	-200,000	0,008	0,120
-515,102	16,070	-0,063	0,036
-514,087	-200,000	0,021	-0,087
-513,072	121,268	-0,058	-0,052
-512,058	-200,000	-0,008	-0,048
-511,043	35,957	-0,183	-0,117
-510,029	82,883	0,021	0,016
-509,014	44,338	-0,059	0,040
-507,999	-200,000	-0,003	0,064
-506,985	81,152	-0,139	0,110
-505,970	209,451	0,059	-0,067
-504,956	-200,000	0,001	-0,155
-503,941	-22,235	-0,129	-0,057
-502,926	-200,000	-0,114	0,000
-501,912	800,000	-0,066	-0,142
-500,897	22,622	-0,048	0,029
-499,883	800,000	-0,043	-0,116
-498,868	13,462	-0,096	-0,054
-497,853	482,653	0,045	-0,075
-496,839	279,115	-0,034	-0,044
-495,824	-200,000	0,005	-0,017
-494,810	63,009	-0,067	0,049
-493,795	-200,000	-0,010	-0,047
-492,781	392,823	0,010	-0,015
-491,766	800,000	0,026	-0,076
-490,751	-69,107	-0,058	-0,016
-489,737	-200,000	-0,023	-0,096
-488,722	-200,000	0,020	0,078
-487,708	800,000	0,065	0,164
-486,693	491,524	-0,028	0,047
-485,678	177,238	-0,026	0,027
-484,664	-64,482	-0,062	0,018
-483,649	800,000	0,009	0,018
-482,635	-34,500	-0,088	-0,035
-481,620	-81,377	0,175	0,042
-480,605	-200,000	0,014	-0,052
-479,591	-200,000	-0,009	0,133
-478,576	162,816	0,053	-0,054
-477,562	169,058	-0,095	-0,098
-476,547	-89,018	-0,032	-0,007
-475,532	675,978	0,051	0,098
-474,518	38,703	-0,074	-0,048
-473,503	-150,327	0,141	-0,008
-472,489	-200,000	0,011	-0,050
-471,474	-87,071	0,081	0,018
-470,459	-138,246	-0,042	-0,003
-469,445	-200,000	0,004	0,063
-468,430	-64,224	-0,083	-0,024
-467,416	28,390	-0,048	0,030
-466,401	703,179	-0,075	0,144
-465,386	-95,563	-0,150	-0,029
-464,372	-200,000	-0,001	0,093
-463,357	-134,071	0,085	0,008
-462,343	-108,217	-0,085	0,013
-461,328	-196,369	-0,114	-0,001
-460,313	550,348	0,086	-0,150
-459,299	146,648	-0,026	-0,025
-458,284	-200,000	-0,003	0,048
-457,270	-80,633	-0,082	0,020
-456,255	-29,177	0,161	0,067
-455,241	332,976	-0,151	-0,213
-454,226	21,067	0,125	-0,074
-453,211	28,035	-0,172	0,105
-452,197	149,640	0,070	0,069
-451,182	453,424	0,021	0,034
-450,168	594,616	0,052	0,095
-449,153	-16,725	0,028	0,013
-448,138	-22,682	0,068	-0,030
-447,124	-200,000	0,001	0,084
-446,109	-200,000	0,011	0,066
-445,095	800,000	-0,025	0,050
-444,080	-154,001	0,073	0,004
-443,065	-76,333	0,077	0,020
-442,051	-155,466	-0,152	0,007
-441,036	-186,827	0,143	-0,001
-440,022	800,000	-0,030	-0,093
-439,007	800,000	0,035	-0,073
-437,992	-200,000	-0,017	0,147
-436,978	-200,000	0,020	0,071
-435,963	1,030	-0,109	0,056
-434,949	800,000	-0,017	0,041
-433,934	175,265	0,006	-0,007
-432,919	81,630	-0,109	0,086
-431,905	216,622	-0,090	0,104
-430,890	46,141	0,079	-0,053
-429,876	800,000	0,034	0,097
-428,861	311,994	0,077	0,105
-427,846	44,217	-0,123	0,082
-426,832	342,137	-0,034	-0,048
-425,817	159,521	0,029	-0,029
-424,803	800,000	-0,016	-0,034
-423,788	302,213	0,072	-0,097
-422,773	-124,262	0,117	-0,013
-421,759	-200,000	-0,025	-0,100
-420,744	458,406	-0,034	-0,055
-419,730	219,959	-0,080	-0,093
-418,715	-60,249	-0,039	-0,012
-417,701	-200,000	-0,013	-0,056
-416,686	225,355	-0,045	0,053
-415,671	-200,000	-0,006	0,123
-414,657	721,434	0,023	0,045
-413,642	-200,000	0,018	0,106
-412,628	-200,000	-0,008	-0,121
-411,613	119,342	-0,109	0,098
-410,598	16,698	0,037	-0,021
-409,584	22,319	0,083	0,049
-408,569	-126,041	-0,132	-0,014
-407,555	800,000	0,031	-0,088
-406,540	-200,000	0,035	0,200
-405,525	71,115	-0,070	0,052
-404,511	62,016	0,012	0,008
-403,496	-200,000	0,007	-0,166
-402,482	800,000	0,056	-0,116
-401,467	68,929	0,116	0,087
-400,452	-96,681	0,119	-0,022
-399,438	-27,435	-0,015	-0,006
-398,423	543,027	0,045	-0,079
-397,409	-200,000	-0,004	-0,017
-396,394	79,703	0,018	-0,014
-395,379	375,270	0,019	0,028
-394,365	-200,000	0,012	0,052
-393,350	3,133	0,041	0,022
-392,336	-30,099	-0,091	0,037
-391,321	-200,000	-0,004	-0,047
-390,306	-80,220	-0,050	0,012
-389,292	34,954	0,144	-0,092
-388,277	62,351	-0,127	0,092
-387,263	141,760	0,051	0,049
-386,248	514,884	0,042	0,071
-385,233	250,672	0,039	0,048
-384,219	800,000	0,030	-0,076
-383,204	321,075	-0,094	-0,129
-382,190	-200,000	-0,002	0,055
-381,175	-16,950	-0,063	-0,029
-380,160	-67,900	0,056	-0,016
-379,146	368,174	-0,043	0,064
-378,131	-200,000	-0,010	0,067
-377,117	-25,284	-0,065	-0,028
-376,102	800,000	-0,043	0,089
-375,088	6,562	-0,088	-0,047
-374,073	-24,084	0,137	0,059
-373,058	-75,668	-0,010	-0,003
-372,044	-102,721	-0,033	-0,006
-371,029	-200,000	-0,040	0,198
-370,015	-165,425	-0,056	-0,002
-369,000	-104,399	-0,101	0,017
-367,985	32,557	0,084	0,052
-366,971	60,299	-0,086	-0,062
-365,956	3,549	0,076	0,040
-364,942	182,248	0,039	0,042
-363,927	800,000	0,046	0,110
-362,912	233,876	0,080	-0,095
-361,898	-91,050	-0,072	-0,015
-360,883	393,436	0,034	0,051
-359,869	-13,078	-0,085	-0,040
-358,854	472,239	0,108	-0,177
-357,839	-187,652	0,128	-0,001
-356,825	115,583	0,121	0,107
-355,810	800,000	0,044	0,124
-354,796	-142,962	-0,113	-0,008
-353,781	-40,341	0,053	-0,020
-352,766	-155,796	-0,090	0,004
-351,752	-82,501	0,056	-0,013
-350,737	-200,000	-0,021	0,116
-349,723	559,710	-0,048	0,085
-348,708	-60,527	0,040	-0,012
-347,693	574,685	-0,067	-0,119
-346,679	39,031	-0,040	0,026
-345,664	-174,050	-0,145	0,003
-344,650	800,000	-0,009	0,019
-343,635	800,000	0,041	-0,102
-342,620	50,308	-0,044	0,030
-341,606	-62,450	-0,103	-0,031
-340,591	132,197	0,059	-0,056
-339,577	-200,000	0,017	0,064
-338,562	-200,000	-0,015	-0,057
-337,548	763,191	0,085	0,169
-336,533	45,435	0,132	0,088
-335,518	149,648	-0,048	-0,047
-334,504	222,468	0,065	-0,076
-333,489	800,000	-0,024	0,072
-332,475	-200,000	0,008	-0,038
-331,460	-121,133	-0,087	-0,010
-330,445	155,269	-0,038	-0,038
-329,431	748,471	0,090	-0,176
-328,416	-122,261	-0,053	-0,006
-327,402	553,775	-0,046	0,080
-326,387	800,000	0,027	0,056
-325,372	13,208	0,035	0,019
-324,358	-92,075	0,078	-0,016
-323,343	272,373	0,032	-0,041
-322,329	112,772	0,120	-0,105
-321,314	-84,266	0,052	-0,012
-320,299	219,189	0,039	-0,046
-319,285	255,975	0,063	-0,079
-318,270	800,000	-0,022	0,062
-317,256	262,181	-0,088	-0,111
-316,241	-75,953	-0,049	0,013
-315,226	216,113	0,050	-0,058
-314,212	-37,169	0,136	-0,052
-313,197	-8,118	0,036	-0,018
-312,183	29,108	0,080	0,049
-311,168	-57,368	0,112	0,035
-310,153	-88,662	-0,145	-0,031
-309,139	-81,515	-0,129	0,030
-308,124	191,132	0,054	-0,059
-307,110	800,000	0,032	0,076
-306,095	714,514	0,060	0,115
-305,080	-200,000	-0,034	-0,126
-304,066	-200,000	-0,002	0,080
-303,051	66,528	-0,049	-0,036
-302,037	332,328	-0,079	-0,111
-301,022	800,000	0,050	-0,104
-300,008	116,178	0,124	0,110
-298,993	57,644	-0,088	-0,062
-297,978	124,032	0,036	-0,033
-296,964	62,448	-0,074	-0,053
-295,949	25,934	-0,089	0,053
-294,935	-200,000	-0,017	-0,114
-293,920	-200,000	-0,011	0,044
-292,905	-52,590	0,054	0,018
-291,891	-58,132	0,111	0,035
-290,876	478,988	0,020	-0,032
-289,862	350,173	0,078	0,111
-288,847	-68,368	-0,096	-0,027
-287,832	-1,655	-0,050	-0,025
-286,818	800,000	0,044	0,108
-285,803	769,288	0,058	-0,115
-284,789	-173,141	0,124	0,003
-283,774	704,255	-0,026	0,049
-282,759	182,730	-0,109	-0,116
-281,745	800,000	0,033	-0,099
-280,730	14,608	-0,039	-0,022
-279,716	-19,052	-0,107	0,048
-278,701	734,607	0,035	-0,069
-277,686	-200,000	-0,015	0,112
-276,672	165,029	0,150	0,153
-275,657	-147,552	0,054	-0,003
-274,643	507,253	-0,070	0,118
-273,628	-54,508	0,069	-0,022
-272,613	1,808	0,027	-0,014
-271,599	-2,045	-0,043	0,022
-270,584	-82,902	0,064	-0,015
-269,570	247,323	0,076	0,093
-268,555	-92,531	-0,207	-0,042
-267,540	800,000	0,038	-0,094
-266,526	-200,000	0,046	-0,190
-265,511	-200,000	0,031	0,180
-264,497	-200,000	0,016	-0,073
-263,482	11,191	0,195	-0,108
-262,467	-102,414	0,065	0,011
-261,453	-200,000	-0,028	-0,194
-260,438	800,000	-0,013	-0,037
-259,424	363,558	-0,059	-0,085
-258,409	1,308	0,089	0,046
-257,395	800,000	0,033	-0,089
-256,380	-136,785	0,064	0,005
-255,365	-66,975	-0,104	0,029
-254,351	282,239	0,055	0,072
-253,336	-200,000	0,013	0,105
-252,322	-10,673	-0,114	-0,054
-251,307	800,000	0,074	-0,151
-250,292	-85,384	0,044	0,010
-249,278	205,723	-0,047	0,053
-248,263	349,244	0,059	0,085
-247,249	548,084	-0,057	-0,099
-246,234	-145,830	-0,154	-0,010
-245,219	213,260	0,076	-0,087
-244,205	-87,998	0,059	-0,013
-243,190	-200,000	-0,029	0,096
-242,176	-76,752	0,030	0,007
-241,161	380,925	0,081	0,120
-240,146	-80,081	0,030	0,007
-239,132	-200,000	0,011	-0,109
-238,117	-19,868	0,023	-0,010
-237,103	-93,067	-0,073	-0,015
-236,088	-200,000	0,030	0,107
-235,073	-200,000	0,033	0,222
-234,059	-200,000	0,002	0,063
-233,044	140,031	0,077	0,074
-232,030	462,789	-0,035	-0,056
-231,015	-200,000	-0,030	0,113
-230,000	800,000	-0,098	-0,216
-228,986	800,000	0,031	-0,090
-227,971	8,592	-0,067	0,036
-226,957	190,529	-0,029	0,031
-225,942	55,543	0,058	0,040
-224,927	-161,994	-0,175	0,006
-223,913	50,305	-0,058	-0,040
-222,898	-46,432	0,149	-0,052
-221,884	-113,120	-0,067	-0,009
-220,869	-115,790	0,035	0,005
-219,855	-200,000	-0,055	0,240
-218,840	-80,988	0,094	-0,022
-217,825	59,623	0,042	0,030
-216,811	194,555	0,004	0,004
-215,796	-200,000	-0,009	0,048
-214,782	37,155	-0,105	-0,067
-213,767	-13,848	-0,122	-0,057
-212,752	-129,697	0,124	0,012
-211,738	-31,514	-0,117	0,047
-210,723	118,525	-0,080	0,071
-209,709	-140,811	0,055	-0,004
-208,694	237,679	0,013	-0,015
-207,679	-54,032	-0,137	-0,045
-206,665	269,062	0,103	0,131
-205,650	-17,043	0,079	0,036
-204,636	-41,734	-0,030	-0,011
-203,621	-200,000	0,048	0,285
-202,606	800,000	0,037	0,083
-201,592	230,913	-0,138	-0,163
-200,577	-23,437	0,041	0,018
-199,563	-80,117	0,040	-0,010
-198,548	-3,824	-0,010	0,005
-197,533	-51,586	-0,090	-0,030
-196,519	-68,590	-0,103	0,029
-195,504	-99,732	-0,114	0,020
-194,490	-42,167	0,043	-0,016
-193,475	93,293	-0,101	-0,082
-192,460	-46,398	-0,090	-0,032
-191,446	115,688	0,118	0,104
-190,431	3,225	0,087	0,046
-189,417	-121,764	0,066	0,008
-188,402	800,000	0,033	0,075
-187,387	88,262	0,059	0,047
-186,373	367,034	-0,083	0,121
-185,358	-45,681	-0,099	-0,035
-184,344	233,016	-0,064	0,076
-183,329	14,084	-0,030	-0,017
-182,315	-103,061	0,120	0,020
-181,300	-37,881	-0,084	-0,032
-180,285	800,000	0,001	-0,001
-179,271	-200,000	-0,011	-0,199
-178,256	43,706	0,033	-0,022
-177,242	329,584	0,059	0,082
-176,227	-200,000	0,014	0,065
-175,212	-200,000	-0,010	0,064
-174,198	-200,000	0,004	-0,042
-173,183	10,691	-0,127	-0,069
-172,169	721,818	0,008	0,016
-171,154	-107,624	-0,201	0,031
-170,139	34,938	0,071	0,045
-169,125	-93,500	0,155	0,031
-168,110	800,000	0,006	-0,016
-167,096	174,958	0,089	0,093
-166,081	389,708	-0,103	-0,155
-165,066	800,000	0,019	-0,060
-164,052	118,111	-0,033	0,029
-163,037	800,000	0,036	-0,104
-162,023	-200,000	-0,000	-0,080
-161,008	742,288	0,055	0,108
-159,993	-200,000	-0,002	0,054
-158,979	-13,698	0,062	-0,029
-157,964	463,636	-0,031	-0,050
-156,950	129,661	0,080	-0,074
-155,935	0,698	0,068	-0,035
-154,920	17,118	0,097	0,055
-153,906	484,672	0,013	0,021
-152,891	270,104	0,114	-0,144
-151,877	-80,257	-0,045	-0,011
-150,862	-184,338	0,029	-0,000
-149,847	192,169	0,082	0,089
-148,833	800,000	-0,045	-0,096
-147,818	-91,252	0,047	0,010
-146,804	369,937	0,092	0,134
-145,789	-200,000	-0,027	0,117
-144,775	228,535	0,061	-0,071
-143,760	800,000	0,046	0,123
-142,745	-200,000	0,002	0,061
-141,731	370,065	0,029	0,043
-140,716	-200,000	-0,002	0,063
-139,702	371,664	0,062	0,091
-138,687	-200,000	0,026	0,106
-137,672	106,300	-0,041	-0,035
-136,658	800,000	0,013	0,030
-135,643	-117,256	-0,024	0,003
-134,629	-200,000	-0,002	0,077
-133,614	158,499	0,046	0,046
-132,599	800,000	0,043	0,099
-131,585	146,471	-0,063	0,061
-130,570	-200,000	-0,016	0,113
-129,556	38,847	0,053	0,034
-128,541	224,128	-0,093	-0,108
-127,526	800,000	-0,035	-0,082
-126,512	-87,444	-0,022	0,005
-125,497	18,138	-0,075	0,043
-124,483	-200,000	0,031	0,103
-123,468	-200,000	-0,017	0,062
-122,453	23,341	-0,123	-0,073
-121,439	-200,000	0,005	-0,130
-120,424	-200,000	-0,014	-0,179
-119,410	-191,294	0,168	-0,001
-118,395	-200,000	0,021	0,124
-117,380	110,002	-0,045	-0,038
-116,366	-200,000	-0,026	-0,095
-115,351	800,000	0,034	-0,099
-114,337	-200,000	-0,023	0,089
-113,322	690,906	0,067	-0,127
-112,307	760,809	0,009	0,017
-111,293	1,226	0,063	0,032
-110,278	-121,120	0,107	-0,013
-109,264	-87,944	0,109	-0,023
-108,249	29,536	-0,061	-0,037
-107,234	92,929	-0,096	0,078
-106,220	190,066	0,022	-0,024
-105,205	442,552	0,048	0,075
-104,191	-200,000	0,018	-0,097
-103,176	-200,000	0,017	0,072
-102,162	800,000	-0,057	0,172
-101,147	288,534	-0,096	0,125
-100,132	487,730	-0,025	-0,041
-99,118	12,572	0,067	-0,037
-98,103	550,778	-0,056	-0,097
-97,089	-152,407	0,147	-0,007
-96,074	398,455	-0,082	-0,124
-95,059	577,214	-0,036	0,063
-94,045	-66,833	-0,112	-0,032
-93,030	-27,462	-0,096	0,040
-92,016	-56,981	0,132	0,042
-91,001	13,096	0,066	-0,036
-89,986	-200,000	0,005	-0,039
-88,972	619,054	0,007	0,013
-87,957	89,748	-0,110	0,088
-86,943	147,815	-0,043	-0,042
-85,928	269,718	0,025	-0,032
-84,913	-65,042	0,065	-0,019
-83,899	483,708	-0,059	-0,097
-82,884	-200,000	0,003	0,014
-81,870	8,586	0,085	0,046
-80,855	333,390	-0,029	0,041
-79,840	6,307	-0,088	0,047
-78,826	229,646	-0,048	0,056
-77,811	-70,150	-0,070	0,019
-76,797	-122,568	0,142	-0,016
-75,782	-200,000	-0,018	-0,103
-74,767	-0,494	-0,139	0,071
-73,753	47,569	-0,068	0,045
-72,738	6,943	0,020	-0,011
-71,724	-111,443	-0,113	-0,016
-70,709	68,009	-0,108	-0,079
-69,694	150,627	0,087	0,085
-68,680	-129,288	0,064	-0,006
-67,665	-200,000	0,005	0,034
-66,651	-200,000	0,004	0,030
-65,636	126,297	0,067	0,061
-64,622	-84,351	-0,110	0,025
-63,607	800,000	0,036	0,075
-62,592	-182,161	-0,207	-0,003
-61,578	436,342	0,029	0,046
-60,563	800,000	0,023	0,063
-59,549	800,000	-0,043	0,117
-58,534	32,288	-2,182	-1,347
-57,519	-200,000	-0,014	-0,772
-56,505	-200,000	-1,471	-5,126
-55,490	80,609	0,926	0,714
-54,476	800,000	5,280	12,200
-53,461	-200,000	18,705	310,194
-52,446	800,000	739,692	2294,339
-51,432	543,004	1652,508	2834,323
-50,417	109,020	1636,205	1401,139
-49,403	72,464	1286,939	959,803
-48,388	29,728	1028,499	625,609
-47,373	19,694	991,158	569,770
-46,359	17,263	978,580	554,545
-45,344	13,918	974,793	541,424
-44,330	14,259	973,488	541,795
-43,315	13,639	971,488	538,635
-42,300	13,566	970,566	537,863
-41,286	13,631	969,529	537,479
-40,271	13,549	968,744	536,754
-39,257	13,570	967,883	536,325
-38,242	13,597	966,970	535,886
-37,227	13,558	966,093	535,251
-36,213	13,601	965,171	534,858
-35,198	13,547	964,239	534,145
-34,184	13,613	963,544	533,954
-33,169	13,573	962,624	533,293
-32,154	13,597	961,519	532,738
-31,140	13,644	960,698	532,414
-30,125	13,603	959,993	531,869
-29,111	13,536	959,296	531,245
-28,096	13,592	958,694	531,074
-27,082	13,643	957,748	530,691
-26,067	13,547	957,362	530,147
-25,052	13,613	956,301	529,752
-24,038	13,575	955,717	529,284
-23,023	13,515	955,183	528,775
-22,009	13,637	954,361	528,690
-20,994	13,604	953,907	528,311
-19,979	13,621	953,185	527,946
-18,965	13,617	952,454	527,507
-17,950	13,630	951,940	527,245
-16,936	13,638	951,412	526,955
-15,921	13,506	950,719	526,130
-14,906	13,537	949,812	525,705
-13,892	13,527	949,309	525,372
-12,877	13,444	948,639	524,718
-11,863	13,492	947,853	524,416
-10,848	13,498	947,311	524,113
-9,833	13,554	947,065	524,133
-8,819	13,550	946,228	523,638
-7,804	13,461	945,772	523,082
-6,790	13,479	945,204	522,805
-5,775	13,549	944,461	522,595
-4,760	13,527	944,074	522,289
-3,746	13,443	943,312	521,583
-2,731	13,354	942,571	520,870
-1,717	13,328	942,034	520,468
-0,702	13,244	941,208	519,726
0,313	13,160	940,679	519,952
1,327	16,548	938,352	529,306
2,342	25,473	789,767	468,991
3,356	21,692	444,288	258,216
4,371	-7,611	296,732	143,055
5,386	-11,535	278,562	130,550
6,400	-12,713	272,876	126,775
7,415	-12,830	270,441	125,523
8,429	-12,817	269,041	124,875
9,444	-12,996	268,028	124,229
10,459	-12,964	267,454	123,982
11,473	-12,918	266,597	123,616
12,488	-13,063	266,196	123,286
13,502	-13,213	265,819	122,964
14,517	-13,157	265,287	122,758
15,531	-12,987	264,855	122,702
16,546	-13,170	264,500	122,361
17,561	-13,155	264,201	122,225
18,575	-12,889	263,803	122,270
19,590	-12,987	263,269	121,923
20,604	-12,921	263,118	121,902
21,619	-13,279	262,862	121,450
22,634	-13,171	262,359	121,304
23,648	-13,159	262,155	121,210
24,663	-13,048	261,736	121,104
25,677	-13,306	261,749	120,869
26,692	-12,980	261,321	120,951
27,707	-13,047	261,033	120,748
28,721	-13,331	260,889	120,417
29,736	-13,098	260,345	120,363
30,750	-13,235	260,251	120,187
31,765	-13,131	259,954	120,131
32,780	-13,247	259,885	119,985
33,794	-13,080	259,531	119,960
34,809	-13,131	259,306	119,800
35,823	-13,143	258,920	119,600
36,838	-13,338	258,818	119,370
37,853	-13,288	258,609	119,307
38,867	-13,157	258,245	119,245
39,882	-13,316	258,024	118,991
40,896	-13,283	257,882	118,944
41,911	-13,309	257,466	118,719
42,926	-13,282	257,297	118,654
43,940	-13,418	256,951	118,365
44,955	-13,435	256,852	118,293
45,969	-13,401	256,477	118,141
46,984	-13,585	256,370	117,920
47,999	-13,744	255,962	117,583
49,013	-13,884	255,874	117,410
50,028	-13,928	255,465	117,173
51,042	-14,098	255,328	116,953
52,057	-14,136	254,987	116,753
53,071	-13,857	254,885	116,937
54,086	-13,715	254,683	116,958
55,101	-13,644	254,424	116,891
56,115	-13,422	254,168	116,954
57,130	-13,112	254,266	117,257
58,144	-12,961	254,142	117,320
59,159	-12,900	253,871	117,237
60,174	-13,180	253,619	116,868
61,188	-12,920	253,245	116,910
62,203	-12,928	253,059	116,807
63,217	-13,006	252,883	116,648
64,232	-13,095	252,809	116,527
65,247	-13,249	252,595	116,286
66,261	-13,093	252,196	116,225
67,276	-13,299	252,021	115,958
68,290	-13,558	251,697	115,577
69,305	-13,652	251,553	115,420
70,320	-13,488	251,387	115,473
71,334	-13,264	251,269	115,601
72,349	-12,991	251,105	115,747
73,363	-12,943	250,766	115,622
74,378	-12,934	250,557	115,523
75,393	-13,102	250,352	115,275
76,407	-13,315	250,280	115,051
77,422	-13,082	249,984	115,103
78,436	-13,041	249,767	115,027
79,451	-13,302	249,686	114,758
80,466	-13,059	249,220	114,739
81,480	-13,312	249,099	114,460
82,495	-13,238	248,889	114,415
83,509	-13,403	248,704	114,181
84,524	-13,415	248,511	114,072
85,539	-13,557	248,238	113,816
86,553	-13,542	247,943	113,684
87,568	-13,451	247,899	113,730
88,582	-13,654	247,737	113,475
89,597	-13,383	247,427	113,551
90,611	-13,116	247,329	113,719
91,626	-13,181	247,180	113,586
92,641	-13,211	246,995	113,466
93,655	-13,099	246,804	113,461
94,670	-13,520	246,573	112,993
95,684	-13,193	246,468	113,208
96,699	-13,245	246,138	113,003
97,714	-13,461	246,086	112,789
98,728	-13,536	245,826	112,598
99,743	-13,554	245,484	112,416
100,757	-13,525	245,335	112,362
101,772	-13,481	245,222	112,336
102,787	-13,548	244,918	112,131
103,801	-13,363	244,865	112,251
104,816	-13,306	244,765	112,243
105,830	-13,210	244,626	112,248
106,845	-13,029	244,264	112,222
107,860	-13,263	244,154	111,968
108,874	-13,319	243,933	111,810
109,889	-13,493	243,712	111,555
110,903	-13,241	243,433	111,625
111,918	-13,344	243,324	111,480
112,933	-13,470	243,309	111,360
113,947	-13,041	243,091	111,603
114,962	-13,334	242,862	111,248
115,976	-13,182	242,803	111,335
116,991	-13,305	242,522	111,095
118,006	-13,185	242,296	111,081
119,020	-13,360	242,170	110,869
120,035	-13,324	242,081	110,848
121,049	-13,111	241,907	110,933
122,064	-13,101	241,710	110,841
123,079	-13,302	241,611	110,621
124,093	-13,248	241,380	110,550
125,108	-13,347	240,922	110,249
126,122	-13,467	240,842	110,105
127,137	-13,753	240,517	109,714
128,151	-13,614	240,388	109,758
129,166	-13,540	240,214	109,729
130,181	-13,429	240,026	109,724
131,195	-13,720	239,938	109,437
132,210	-13,448	239,685	109,533
133,224	-13,485	239,578	109,444
134,239	-13,074	239,487	109,726
135,254	-13,204	239,357	109,551
136,268	-13,220	239,002	109,366
137,283	-13,597	238,791	108,956
138,297	-13,741	238,480	108,688
139,312	-13,513	238,338	108,797
140,327	-13,423	238,309	108,847
141,341	-13,001	238,224	109,138
142,356	-12,952	238,019	109,074
143,370	-12,997	237,962	109,002
144,385	-12,966	237,803	108,944
145,400	-12,895	237,494	108,850
146,414	-12,858	237,215	108,742
147,429	-13,028	237,281	108,626
148,443	-12,893	236,927	108,562
149,458	-13,033	236,854	108,407
150,473	-13,000	236,552	108,286
151,487	-13,043	236,474	108,206
152,502	-12,938	236,303	108,202
153,516	-12,785	236,079	108,212
154,531	-12,790	235,946	108,137
155,546	-12,994	235,687	107,846
156,560	-13,170	235,635	107,673
157,575	-13,273	235,287	107,422
158,589	-13,205	235,108	107,385
159,604	-13,045	235,147	107,520
160,619	-12,796	234,991	107,637
161,633	-12,937	234,854	107,453
162,648	-12,798	234,616	107,444
163,662	-12,810	234,493	107,369
164,677	-13,019	234,378	107,141
165,692	-12,847	234,100	107,141
166,706	-12,604	233,943	107,251
167,721	-12,866	233,880	107,005
168,735	-12,661	233,783	107,113
169,750	-12,677	233,610	107,012
170,764	-12,976	233,402	106,672
171,779	-13,023	233,326	106,591
172,794	-12,563	232,969	106,779
173,808	-13,241	232,846	106,182
174,823	-13,442	232,650	105,925
175,837	-13,431	232,357	105,791
176,852	-12,974	232,268	106,099
177,867	-12,904	232,183	106,105
178,881	-12,864	232,122	106,099
179,896	-12,811	232,046	106,096
180,910	-12,829	231,713	105,920
181,925	-12,862	231,658	105,860
182,940	-12,741	231,501	105,873
183,954	-12,754	231,395	105,805
184,969	-12,799	231,320	105,726
185,983	-12,612	231,175	105,796
186,998	-12,707	230,852	105,565
188,013	-12,892	230,784	105,381
189,027	-12,844	230,569	105,310
190,042	-12,783	230,482	105,308
191,056	-12,728	230,332	105,273
192,071	-12,950	230,134	105,002
193,086	-12,735	230,036	105,114
194,100	-12,628	229,791	105,076
195,115	-13,196	229,348	104,426
196,129	-12,684	229,518	104,889
197,144	-7,387	231,202	109,762
198,159	-2,219	232,922	114,602
199,173	1,794	233,963	118,242
200,188	2,401	233,954	118,701
201,202	2,316	233,829	118,560
202,217	2,489	233,577	118,557
203,232	2,759	233,473	118,704
204,246	2,565	233,457	118,534
205,261	2,415	233,537	118,447
206,275	2,715	233,381	118,591
207,290	2,935	233,134	118,626
208,304	2,708	232,839	118,289
209,319	2,741	232,863	118,317
210,334	2,853	232,479	118,197
211,348	2,552	232,335	117,880
212,363	2,139	232,035	117,399
213,377	1,956	231,891	117,174
214,392	2,141	231,669	117,194
215,407	2,264	231,557	117,221
216,421	2,262	231,379	117,120
217,436	2,305	231,162	117,033
218,450	2,197	231,053	116,883
219,465	1,987	230,759	116,563
220,480	1,760	230,806	116,402
221,494	1,745	230,641	116,297
222,509	2,005	230,510	116,419
223,523	2,332	230,250	116,529
224,538	2,196	230,109	116,343
225,553	2,495	229,977	116,495
226,567	2,136	229,892	116,166
227,582	2,285	229,926	116,287
228,596	2,473	229,751	116,332
229,611	2,395	229,478	116,124
230,626	2,004	229,122	115,635
231,640	2,157	228,948	115,654
232,655	2,394	229,032	115,867
233,669	2,496	228,974	115,904
234,684	2,847	228,837	116,092
235,699	2,275	228,700	115,577
236,713	2,340	228,394	115,462
237,728	2,255	228,251	115,315
238,742	2,083	228,046	115,070
239,757	2,152	227,954	115,066
240,772	2,314	227,752	115,076
241,786	2,041	227,564	114,765
242,801	2,258	227,548	114,910
243,815	2,667	227,502	115,186
244,830	2,695	227,407	115,148
245,844	2,046	227,078	114,482
246,859	2,147	226,914	114,466
247,874	2,216	226,785	114,442
248,888	2,446	226,707	114,566
249,903	2,437	226,534	114,461
250,917	2,319	226,407	114,299
251,932	2,277	226,195	114,149
252,947	2,009	225,932	113,806
253,961	2,010	225,871	113,766
254,976	1,821	225,733	113,545
255,990	2,304	225,630	113,844
257,005	2,208	225,579	113,736
258,020	2,458	225,212	113,728
259,034	2,578	225,251	113,827
260,049	2,585	225,096	113,744
261,063	2,354	224,944	113,485
262,078	2,476	224,966	113,577
263,093	2,622	224,730	113,556
264,107	2,596	224,444	113,383
265,122	2,264	224,483	113,144
266,136	2,706	224,379	113,411
267,151	2,653	224,128	113,235
268,166	2,419	223,790	112,881
269,180	1,826	223,601	112,335
270,195	2,049	223,431	112,405
271,209	2,000	223,414	112,350
272,224	2,125	223,305	112,378
273,239	2,409	223,044	112,446
274,253	2,171	222,984	112,231
275,268	2,028	222,775	112,009
276,282	1,865	222,581	111,782
277,297	1,687	222,472	111,586
278,312	2,075	222,354	111,802
279,326	2,217	222,287	111,863
280,341	2,276	222,160	111,833
281,355	2,169	222,111	111,719
282,370	2,238	221,928	111,669
283,384	1,910	221,655	111,280
284,399	1,963	221,302	111,132
285,414	1,992	221,333	111,158
286,428	1,987	221,358	111,157
287,443	2,290	221,301	111,341
288,457	2,340	221,116	111,275
289,472	2,052	220,898	110,945
290,487	1,880	220,570	110,644
291,501	1,712	220,404	110,428
292,516	1,730	220,347	110,403
293,530	1,751	220,216	110,343
294,545	1,959	220,158	110,456
295,560	1,981	220,092	110,429
296,574	2,264	219,780	110,468
297,589	2,100	219,707	110,303
298,603	2,175	219,703	110,345
299,618	2,238	219,529	110,294
300,633	2,365	219,324	110,273
301,647	2,554	219,258	110,367
302,662	2,644	219,232	110,410
303,676	2,312	219,040	110,063
304,691	2,457	218,927	110,100
305,706	2,583	218,675	110,055
306,720	2,578	218,533	109,970
307,735	2,306	218,293	109,643
308,749	2,194	218,289	109,551
309,764	2,078	218,132	109,378
310,779	2,361	218,028	109,521
311,793	2,287	217,841	109,364
312,808	2,291	217,759	109,316
313,822	2,170	217,546	109,112
314,837	2,303	217,326	109,087
315,852	2,226	217,117	108,918
316,866	2,258	217,096	108,920
317,881	2,439	217,035	109,010
318,895	2,250	216,775	108,735
319,910	2,235	216,678	108,665
320,925	1,844	216,368	108,221
321,939	1,605	216,170	107,941
322,954	1,627	216,146	107,935
323,968	2,052	216,193	108,253
324,983	2,398	216,147	108,467
325,997	2,507	215,988	108,455
327,012	2,384	215,850	108,288
328,027	2,486	215,578	108,214
329,041	2,779	215,541	108,395
330,056	2,629	215,440	108,228
331,070	2,374	215,162	107,898
332,085	1,904	215,004	107,475
333,100	2,191	214,913	107,624
334,114	2,446	214,779	107,728
335,129	2,300	214,517	107,483
336,143	2,143	214,387	107,297
337,158	2,144	214,416	107,303
338,173	2,185	214,079	107,154
339,187	1,912	213,998	106,911
340,202	1,806	213,944	106,800
341,216	2,360	213,808	107,113
342,231	2,445	213,790	107,154
343,246	2,231	213,597	106,897
344,260	2,339	213,418	106,874
345,275	2,432	213,327	106,885
346,289	2,495	213,103	106,807
347,304	2,582	212,828	106,721
348,319	2,010	212,872	106,332
349,333	2,347	212,654	106,450
350,348	2,497	212,491	106,463
351,362	2,647	212,431	106,529
352,377	2,622	212,345	106,459
353,392	2,404	212,309	106,279
354,406	2,336	211,921	106,028
355,421	196,008	1315,496	1390,462
356,435	156,725	1449,903	1390,408
