DTS Sentinel unit serial number:	SN410029Multiplexer serial number:	ORYXHardware model number:	OX2-SRSoftware version number:	ORYX F/W v4,00 Oryx Data Collector v3.7.2.0data status	okinstallation	B6 Nyhavnadifferential loss correction	single-endedforward channel	channel 2reverse channel	N/Adate	2023/12/09time	18:45:08forward acquisition time	300,00reverse acquisition time	0,00gamma	499,1914k internal	0,3130k external	0,3130temperature offset calibration	1,0000default loss term (dB/km)	0,3820temperature slope calibration	1,0000multiplexer offset coefficient	1,0000multiplexer slope coefficient	1,0000fibre end	0,00T internal ref (°C)	21,05T ext. ref 1 (°C)	4,72T ext. ref 2 (°C)	4,72length (m)	temperature (°C)	Stokes	anti-Stokes-744,400	-34,586	0,108	-0,044
-743,385	-114,040	-0,302	0,043
-742,371	677,960	-0,058	0,114
-741,356	14,707	-0,240	0,139
-740,342	-185,297	0,179	-0,002
-739,327	10,852	-0,123	0,070
-738,312	-180,559	0,018	-0,000
-737,298	-23,875	-0,145	0,064
-736,283	-179,471	0,112	-0,002
-735,269	-29,654	-0,223	0,094
-734,254	-85,346	0,070	-0,016
-733,239	-30,317	-0,400	-0,168
-732,225	119,364	0,048	0,044
-731,210	604,167	0,054	-0,100
-730,196	-200,000	0,026	0,093
-729,181	26,141	0,066	0,041
-728,167	800,000	-0,056	0,131
-727,152	108,858	0,035	-0,031
-726,137	164,734	-0,090	-0,094
-725,123	603,180	-0,058	-0,108
-724,108	313,277	-0,105	-0,148
-723,094	800,000	0,045	-0,103
-722,079	58,386	-0,012	0,009
-721,064	-9,567	0,066	0,033
-720,050	-13,815	-0,074	-0,035
-719,035	-200,000	-0,048	0,164
-718,021	-100,195	-0,043	-0,008
-717,006	800,000	-0,026	-0,079
-715,991	-200,000	-0,052	-0,216
-714,977	107,036	-0,155	-0,137
-713,962	729,018	0,035	0,069
-712,948	-117,886	0,147	-0,019
-711,933	-200,000	-0,010	0,105
-710,918	-64,688	0,074	0,022
-709,904	39,955	-0,142	-0,095
-708,889	628,675	0,054	-0,101
-707,875	187,108	-0,059	-0,065
-706,860	-200,000	-0,007	0,056
-705,845	-200,000	-0,015	-0,064
-704,831	-200,000	-0,005	0,065
-703,816	-200,000	-0,017	0,141
-702,802	52,994	0,097	-0,069
-701,787	59,153	-0,146	-0,107
-700,772	88,476	-0,078	0,064
-699,758	-200,000	0,001	0,025
-698,743	-83,094	0,084	-0,020
-697,729	-21,772	0,089	-0,040
-696,714	-178,815	-0,090	0,001
-695,699	-200,000	0,018	0,095
-694,685	355,201	-0,086	-0,127
-693,670	-200,000	0,016	-0,153
-692,656	528,766	-0,020	0,035
-691,641	598,909	0,015	-0,028
-690,627	-100,182	0,109	-0,020
-689,612	251,796	-0,037	0,046
-688,597	-50,568	-0,038	0,013
-687,583	191,474	-0,049	-0,055
-686,568	800,000	0,038	0,081
-685,554	60,508	0,076	-0,056
-684,539	108,988	0,062	0,055
-683,524	67,757	-0,069	-0,052
-682,510	800,000	-0,017	-0,035
-681,495	-50,950	-0,088	0,031
-680,481	614,482	-0,064	0,120
-679,466	-200,000	0,001	-0,131
-678,451	-200,000	0,009	-0,046
-677,437	-200,000	0,000	-0,112
-676,422	192,613	-0,087	0,097
-675,408	-200,000	0,013	-0,106
-674,393	-200,000	-0,009	0,064
-673,378	466,054	-0,054	0,090
-672,364	429,168	0,056	0,090
-671,349	-200,000	0,003	0,015
-670,335	-101,788	0,033	-0,006
-669,320	800,000	-0,049	-0,134
-668,305	18,766	0,137	0,081
-667,291	-157,852	0,096	-0,004
-666,276	51,834	-0,158	0,112
-665,262	-114,616	0,105	-0,015
-664,247	-200,000	-0,116	0,000
-663,232	-103,954	-0,108	0,019
-662,218	-143,193	0,092	0,006
-661,203	676,737	-0,062	-0,119
-660,189	360,208	0,027	0,040
-659,174	455,682	-0,101	-0,167
-658,159	-109,323	-0,168	0,026
-657,145	800,000	-0,050	0,160
-656,130	800,000	-0,032	-0,089
-655,116	34,049	0,080	0,051
-654,101	-200,000	0,012	-0,041
-653,086	26,982	-0,107	-0,066
-652,072	88,289	-0,034	-0,028
-651,057	-200,000	0,012	0,103
-650,043	-200,000	-0,014	-0,165
-649,028	-23,917	-0,050	-0,022
-648,014	30,280	0,102	-0,065
-646,999	-200,000	0,005	-0,062
-645,984	-38,068	0,063	0,025
-644,970	124,511	0,036	0,033
-643,955	743,502	0,030	0,061
-642,941	99,298	0,096	-0,083
-641,926	800,000	0,053	-0,158
-640,911	104,220	-0,085	-0,074
-639,897	800,000	0,031	0,076
-638,882	355,931	0,043	-0,063
-637,868	-125,672	-0,146	-0,016
-636,853	-37,307	-0,127	0,050
-635,838	-200,000	0,000	-0,103
-634,824	-200,000	0,009	-0,090
-633,809	1,856	0,134	-0,071
-632,795	-200,000	-0,021	0,094
-631,780	-200,000	-0,024	0,145
-630,765	-200,000	-0,047	-0,168
-629,751	-200,000	-0,006	0,028
-628,736	123,004	0,076	0,071
-627,722	-200,000	0,000	-0,079
-626,707	-70,925	0,084	-0,023
-625,692	-104,907	-0,088	0,015
-624,678	-200,000	0,034	0,182
-623,663	-200,000	0,000	0,022
-622,649	-200,000	0,018	-0,125
-621,634	155,589	-0,058	0,059
-620,619	66,661	-0,127	0,096
-619,605	360,593	0,056	0,083
-618,590	-65,070	-0,092	0,027
-617,576	800,000	-0,036	0,116
-616,561	-37,431	-0,009	0,004
-615,546	800,000	0,028	0,066
-614,532	-200,000	0,016	-0,171
-613,517	-200,000	-0,005	-0,048
-612,503	-55,087	-0,109	-0,036
-611,488	-57,938	0,113	0,036
-610,474	-111,353	-0,146	-0,022
-609,459	110,902	0,079	-0,070
-608,444	115,684	-0,166	-0,151
-607,430	800,000	-0,038	-0,084
-606,415	-200,000	0,008	-0,043
-605,401	-120,228	-0,075	-0,009
-604,386	145,020	-0,115	0,114
-603,371	-29,328	0,186	-0,079
-602,357	772,834	0,052	-0,106
-601,342	92,984	-0,034	0,029
-600,328	38,800	0,097	0,064
-599,313	-6,507	-0,086	0,043
-598,298	335,759	-0,006	-0,008
-597,284	-200,000	0,017	0,088
-596,269	-83,247	-0,010	0,002
-595,255	-78,982	-0,076	0,019
-594,240	-35,177	0,114	-0,046
-593,225	-200,000	-0,016	-0,152
-592,211	219,624	-0,065	-0,077
-591,196	-200,000	0,019	-0,065
-590,182	-34,662	0,155	-0,062
-589,167	128,804	0,123	0,116
-588,152	-35,809	-0,052	-0,021
-587,138	-53,253	-0,031	0,010
-586,123	20,176	0,116	-0,069
-585,109	-127,057	-0,075	0,008
-584,094	800,000	0,014	-0,030
-583,079	-200,000	-0,020	0,103
-582,065	-30,427	-0,013	0,005
-581,050	-200,000	0,004	0,137
-580,036	-65,923	0,074	-0,022
-579,021	-200,000	-0,058	0,193
-578,006	306,041	0,069	-0,096
-576,992	17,992	-0,028	0,016
-575,977	800,000	-0,030	0,066
-574,963	-168,236	0,124	-0,003
-573,948	-91,444	-0,083	0,017
-572,934	-6,645	0,107	-0,053
-571,919	-200,000	0,025	-0,090
-570,904	-104,113	-0,034	-0,006
-569,890	-109,939	-0,024	0,004
-568,875	306,021	0,021	-0,030
-567,861	-38,392	-0,106	-0,041
-566,846	52,395	-0,020	0,014
-565,831	-200,000	0,012	0,068
-564,817	145,494	-0,070	-0,069
-563,802	800,000	0,045	-0,124
-562,788	-184,871	0,059	-0,001
-561,773	-117,433	-0,043	0,006
-560,758	-2,139	-0,031	-0,016
-559,744	65,845	0,102	0,077
-558,729	10,964	0,065	0,037
-557,715	-200,000	0,018	-0,093
-556,700	-200,000	-0,009	-0,082
-555,685	360,082	0,088	-0,131
-554,671	-200,000	-0,016	-0,133
-553,656	800,000	-0,005	0,012
-552,642	12,465	-0,134	0,076
-551,627	2,357	0,080	0,043
-550,612	-0,684	-0,068	0,036
-549,598	519,550	-0,016	-0,028
-548,583	-200,000	0,002	0,044
-547,569	-67,246	-0,083	0,024
-546,554	-200,000	-0,012	-0,119
-545,539	-20,890	0,073	-0,033
-544,525	66,710	-0,045	0,034
-543,510	36,368	-0,079	-0,052
-542,496	-75,745	0,016	0,004
-541,481	-200,000	-0,001	0,053
-540,466	291,810	-0,036	-0,048
-539,452	-200,000	0,030	0,137
-538,437	421,981	0,094	0,149
-537,423	308,840	-0,085	0,117
-536,408	506,651	-0,030	0,052
-535,393	-107,356	0,057	-0,009
-534,379	-200,000	-0,021	-0,117
-533,364	49,017	-0,112	0,078
-532,350	45,987	0,030	-0,021
-531,335	-128,437	0,129	0,013
-530,321	-200,000	0,011	0,056
-529,306	-200,000	-0,014	-0,177
-528,291	-200,000	-0,031	-0,163
-527,277	-22,434	-0,101	-0,045
-526,262	403,657	0,060	-0,093
-525,248	-10,119	0,008	0,004
-524,233	155,973	0,072	0,074
-523,218	-200,000	-0,001	0,068
-522,204	-107,163	0,173	-0,028
-521,189	-135,342	0,094	0,008
-520,175	800,000	-0,032	-0,071
-519,160	341,060	-0,057	0,082
-518,145	-200,000	-0,000	0,094
-517,131	-163,318	0,130	-0,004
-516,116	-200,000	0,011	0,081
-515,102	-200,000	-0,015	-0,077
-514,087	-61,384	-0,054	0,017
-513,072	-139,325	-0,117	0,009
-512,058	800,000	-0,031	0,065
-511,043	-200,000	-0,002	-0,104
-510,029	-24,594	0,084	-0,037
-509,014	-200,000	-0,009	0,034
-507,999	-200,000	0,008	0,170
-506,985	505,615	-0,037	-0,063
-505,970	91,056	0,112	-0,092
-504,956	-101,235	-0,204	0,036
-503,941	-200,000	-0,024	-0,090
-502,926	372,453	0,092	0,138
-501,912	-200,000	0,026	0,124
-500,897	-200,000	0,004	0,145
-499,883	-200,000	-0,003	-0,022
-498,868	-200,000	0,009	-0,096
-497,853	24,792	-0,038	0,023
-496,839	-200,000	0,015	-0,060
-495,824	-27,857	0,032	-0,014
-494,810	-200,000	0,026	-0,090
-493,795	460,583	-0,019	0,031
-492,781	196,257	0,021	0,023
-491,766	196,349	0,032	0,036
-490,751	577,525	-0,073	-0,131
-489,737	-173,500	-0,048	0,001
-488,722	-29,135	0,160	0,067
-487,708	-200,000	0,002	-0,041
-486,693	71,747	0,032	0,025
-485,678	-120,586	0,112	-0,014
-484,664	-171,495	-0,043	0,001
-483,649	-51,209	-0,112	-0,038
-482,635	408,004	-0,073	-0,115
-481,620	-96,831	0,024	0,005
-480,605	-200,000	0,016	-0,078
-479,591	800,000	-0,031	0,066
-478,576	-149,589	0,075	-0,004
-477,562	-31,680	-0,009	0,004
-476,547	-200,000	0,041	-0,143
-475,532	251,517	-0,072	-0,091
-474,518	-200,000	-0,015	0,082
-473,503	-153,486	0,032	0,002
-472,489	321,282	0,060	0,085
-471,474	-175,207	-0,134	0,003
-470,459	120,028	-0,105	-0,096
-469,445	-161,861	0,105	0,004
-468,430	-89,025	-0,124	0,027
-467,416	-66,834	0,101	-0,029
-466,401	37,708	-0,049	-0,032
-465,386	-132,408	-0,070	0,007
-464,372	-28,917	0,057	0,024
-463,357	59,446	-0,146	-0,106
-462,343	-36,872	0,006	0,003
-461,328	222,537	0,035	-0,042
-460,313	370,566	-0,043	-0,065
-459,299	520,359	0,028	0,049
-458,284	329,147	-0,100	0,141
-457,270	67,071	-0,058	-0,044
-456,255	-41,055	-0,125	-0,047
-455,241	-90,305	0,072	-0,015
-454,226	-166,110	-0,100	0,003
-453,211	-51,278	0,093	0,032
-452,197	-200,000	-0,007	-0,120
-451,182	-83,024	0,025	-0,006
-450,168	800,000	0,022	-0,063
-449,153	3,745	0,062	0,033
-448,138	-200,000	-0,003	-0,018
-447,124	-64,609	0,035	0,010
-446,109	-10,671	-0,060	-0,029
-445,095	450,648	-0,049	-0,080
-444,080	-200,000	0,008	0,026
-443,065	-200,000	0,000	-0,043
-442,051	-64,512	0,123	0,036
-441,036	800,000	0,059	-0,159
-440,022	-28,498	-0,062	-0,026
-439,007	-84,758	0,179	-0,041
-437,992	-64,584	-0,045	-0,013
-436,978	59,717	0,126	0,091
-435,963	800,000	0,021	-0,066
-434,949	57,480	-0,074	0,053
-433,934	-125,069	-0,042	0,005
-432,919	245,106	0,008	-0,010
-431,905	165,775	-0,049	0,051
-430,890	-55,098	-0,095	-0,031
-429,876	800,000	0,058	0,152
-428,861	105,732	0,057	0,050
-427,846	185,133	-0,042	0,046
-426,832	800,000	0,035	-0,073
-425,817	259,364	-0,028	-0,036
-424,803	800,000	0,030	0,088
-423,788	229,155	0,027	-0,032
-422,773	-126,848	-0,093	0,010
-421,759	-76,376	-0,040	0,010
-420,744	-112,482	-0,141	0,020
-419,730	202,433	-0,096	-0,109
-418,715	133,318	-0,029	-0,028
-417,701	-150,193	-0,041	0,002
-416,686	458,262	-0,024	-0,039
-415,671	-200,000	-0,023	0,120
-414,657	800,000	0,018	-0,041
-413,642	-1,720	0,018	-0,009
-412,628	-200,000	0,009	0,042
-411,613	-81,828	-0,147	-0,035
-410,598	-67,878	-0,072	-0,021
-409,584	76,400	0,087	0,068
-408,569	800,000	-0,039	-0,086
-407,555	-24,122	0,118	0,052
-406,540	662,037	-0,046	-0,088
-405,525	480,190	-0,041	-0,069
-404,511	169,389	-0,070	0,074
-403,496	-58,094	0,076	-0,024
-402,482	215,337	0,054	0,063
-401,467	800,000	-0,044	0,108
-400,452	512,192	-0,033	-0,056
-399,438	168,262	-0,008	0,008
-398,423	279,506	-0,073	0,096
-397,409	-128,600	-0,029	0,003
-396,394	-167,084	0,091	0,003
-395,379	160,149	0,062	0,064
-394,365	-73,575	0,069	-0,018
-393,350	-200,000	-0,020	-0,117
-392,336	-200,000	0,033	-0,155
-391,321	271,982	-0,029	0,037
-390,306	-200,000	-0,006	0,101
-389,292	633,387	0,027	-0,050
-388,277	53,423	0,093	0,065
-387,263	528,733	0,052	-0,091
-386,248	-200,000	-0,025	0,095
-385,233	-200,000	0,014	0,113
-384,219	76,273	0,015	-0,012
-383,204	145,365	-0,035	-0,034
-382,190	287,072	-0,056	-0,075
-381,175	-20,661	0,031	0,014
-380,160	800,000	-0,052	0,154
-379,146	80,173	0,137	0,108
-378,131	-82,051	-0,039	-0,009
-377,117	-200,000	-0,003	0,117
-376,102	84,877	-0,065	-0,052
-375,088	-200,000	0,002	-0,019
-374,073	800,000	-0,049	-0,120
-373,058	-19,672	0,022	-0,010
-372,044	10,413	0,202	-0,112
-371,029	129,459	0,077	-0,072
-370,015	-200,000	0,007	0,065
-369,000	-49,616	-0,056	0,020
-367,985	-44,623	-0,070	-0,025
-366,971	-26,871	-0,042	0,018
-365,956	423,584	-0,009	0,013
-364,942	37,869	0,050	0,033
-363,927	-200,000	0,021	0,113
-362,912	-52,927	0,029	0,010
-361,898	-200,000	0,015	0,052
-360,883	53,621	0,066	-0,046
-359,869	800,000	0,016	0,044
-358,854	-38,910	0,120	0,046
-357,839	-13,488	0,140	0,066
-356,825	-200,000	-0,034	0,178
-355,810	-200,000	-0,013	0,146
-354,796	-200,000	0,020	0,067
-353,781	65,542	-0,058	0,043
-352,766	164,058	0,059	-0,061
-351,752	-200,000	0,010	0,122
-350,737	319,938	0,053	0,074
-349,723	-129,520	0,073	-0,007
-348,708	5,840	-0,069	-0,038
-347,693	13,691	-0,063	0,036
-346,679	-71,189	-0,065	-0,018
-345,664	273,356	-0,115	-0,149
-344,650	108,576	0,100	-0,087
-343,635	-33,149	0,144	-0,058
-342,620	800,000	0,017	0,035
-341,606	756,324	-0,030	-0,059
-340,591	514,314	-0,052	-0,089
-339,577	-200,000	0,002	0,037
-338,562	800,000	0,031	-0,074
-337,548	405,327	0,058	-0,090
-336,533	-200,000	-0,008	0,077
-335,518	238,458	-0,029	-0,036
-334,504	124,186	-0,075	0,069
-333,489	-145,174	-0,021	0,001
-332,475	800,000	0,041	0,089
-331,460	-200,000	-0,032	-0,160
-330,445	800,000	0,013	-0,036
-329,431	-18,182	0,089	-0,041
-328,416	363,207	0,024	-0,036
-327,402	-60,381	0,088	0,027
-326,387	-120,939	-0,056	-0,007
-325,372	-36,300	-0,138	0,054
-324,358	-200,000	-0,024	-0,125
-323,343	-128,035	0,139	0,014
-322,329	-200,000	-0,003	0,103
-321,314	127,144	0,143	0,133
-320,299	734,965	-0,082	0,162
-319,285	-200,000	-0,013	-0,044
-318,270	-176,816	0,045	0,001
-317,256	109,617	0,055	0,049
-316,241	-200,000	0,039	0,137
-315,226	41,674	0,113	-0,075
-314,212	-200,000	0,032	0,147
-313,197	139,731	0,088	0,085
-312,183	84,279	0,081	0,065
-311,168	-168,550	0,044	-0,001
-310,153	-60,278	-0,040	0,012
-309,139	-189,084	0,168	-0,001
-308,124	128,475	0,098	0,092
-307,110	-200,000	-0,009	0,052
-306,095	329,329	-0,082	0,116
-305,080	800,000	-0,037	0,112
-304,066	38,038	-0,114	-0,074
-303,051	-200,000	0,003	-0,022
-302,037	-200,000	-0,013	0,111
-301,022	-200,000	-0,005	0,027
-300,008	29,657	0,009	-0,006
-298,993	-45,319	-0,033	0,012
-297,978	57,248	-0,089	-0,064
-296,964	-52,403	-0,077	0,026
-295,949	218,230	-0,067	0,078
-294,935	210,386	0,047	0,054
-293,920	-102,373	-0,097	0,017
-292,905	800,000	0,004	0,011
-291,891	-66,458	-0,018	0,005
-290,876	159,763	-0,072	-0,074
-289,862	11,940	0,043	0,024
-288,847	-144,660	-0,134	-0,009
-287,832	432,687	0,068	-0,108
-286,818	-200,000	0,027	-0,200
-285,803	524,743	0,067	-0,115
-284,789	-7,265	-0,053	-0,026
-283,774	-85,741	0,036	0,008
-282,759	-137,366	0,129	0,011
-281,745	800,000	0,037	-0,106
-280,730	162,271	-0,030	0,030
-279,716	800,000	0,059	-0,128
-278,701	294,059	-0,091	0,121
-277,686	114,129	0,037	-0,033
-276,672	-200,000	-0,009	-0,087
-275,657	-42,978	-0,098	-0,036
-274,643	-200,000	-0,029	-0,135
-273,628	-200,000	-0,017	-0,120
-272,613	-200,000	0,005	-0,068
-271,599	291,210	0,013	0,018
-270,584	800,000	0,044	0,105
-269,570	-200,000	0,023	0,097
-268,555	-154,641	0,129	-0,006
-267,540	10,510	0,048	-0,026
-266,526	1,051	0,134	0,070
-265,511	275,355	0,055	0,071
-264,497	244,629	0,022	0,028
-263,482	146,828	0,055	0,054
-262,467	800,000	-0,040	0,103
-261,453	699,064	-0,059	0,113
-260,438	-22,223	-0,112	-0,050
-259,424	-200,000	0,006	-0,098
-258,409	-92,588	-0,114	0,023
-257,395	-46,068	-0,076	0,027
-256,380	-90,989	0,090	-0,019
-255,365	303,983	0,091	0,124
-254,351	31,640	0,118	-0,074
-253,336	111,558	-0,130	0,115
-252,322	-32,863	0,019	-0,008
-251,307	85,169	0,105	-0,084
-250,292	537,829	-0,039	0,067
-249,278	63,424	0,144	0,105
-248,263	-37,979	-0,128	0,049
-247,249	-81,642	-0,042	0,010
-246,234	-200,000	-0,024	-0,206
-245,219	-200,000	0,028	-0,118
-244,205	399,150	-0,057	0,088
-243,190	-200,000	-0,002	-0,091
-242,176	-155,504	0,078	-0,004
-241,161	-200,000	0,025	-0,086
-240,146	460,612	-0,019	-0,031
-239,132	-200,000	0,038	0,150
-238,117	-43,050	-0,110	-0,041
-237,103	800,000	-0,006	0,014
-236,088	378,655	0,047	-0,070
-235,073	190,843	0,065	0,071
-234,059	800,000	0,035	0,104
-233,044	800,000	0,068	0,144
-232,030	-200,000	0,026	0,087
-231,015	680,368	-0,047	-0,090
-230,000	778,437	-0,020	-0,040
-228,986	206,035	-0,085	-0,097
-227,971	-200,000	-0,000	-0,107
-226,957	65,345	-0,053	0,039
-225,942	-200,000	0,003	0,041
-224,927	75,536	-0,102	0,079
-223,913	99,251	0,029	-0,024
-222,898	-200,000	0,002	-0,017
-221,884	-200,000	0,014	-0,049
-220,869	402,837	0,017	0,026
-219,855	159,297	-0,104	0,105
-218,840	44,339	0,121	0,081
-217,825	-200,000	-0,048	-0,157
-216,811	137,342	-0,027	-0,026
-215,796	800,000	-0,030	-0,079
-214,782	800,000	-0,046	0,093
-213,767	-107,495	-0,113	0,018
-212,752	237,992	0,121	0,147
-211,738	800,000	-0,054	-0,138
-210,723	111,107	-0,061	0,054
-209,709	-16,460	0,076	-0,035
-208,694	800,000	0,015	0,036
-207,679	-200,000	-0,001	-0,018
-206,665	60,527	0,034	-0,025
-205,650	174,168	-0,045	-0,048
-204,636	-44,661	0,040	-0,015
-203,621	10,386	0,030	0,017
-202,606	-28,259	-0,122	-0,051
-201,592	-200,000	-0,029	-0,149
-200,577	127,882	0,057	-0,053
-199,563	-20,444	-0,037	-0,017
-198,548	120,421	-0,064	-0,058
-197,533	84,733	0,052	0,041
-196,519	30,252	0,071	0,044
-195,504	22,716	-0,070	0,042
-194,490	15,534	0,132	-0,075
-193,475	-200,000	-0,004	-0,081
-192,460	-81,423	0,140	0,033
-191,446	-200,000	-0,050	0,169
-190,431	-200,000	-0,002	0,050
-189,417	16,067	-0,094	0,054
-188,402	682,703	0,074	0,141
-187,387	62,810	0,074	0,054
-186,373	800,000	-0,022	-0,048
-185,358	14,367	-0,170	0,096
-184,344	-101,571	0,058	0,010
-183,329	-200,000	0,008	0,119
-182,315	-96,662	0,069	0,013
-181,300	19,133	-0,115	0,067
-180,285	370,694	-0,110	-0,162
-179,271	-109,020	-0,148	0,023
-178,256	-40,062	0,010	-0,004
-177,242	-151,217	-0,043	-0,002
-176,227	-200,000	0,011	-0,073
-175,212	-200,000	0,006	-0,107
-174,198	-200,000	-0,012	-0,057
-173,183	-17,965	-0,173	-0,079
-172,169	-67,444	-0,081	-0,023
-171,154	150,381	-0,079	-0,078
-170,139	-200,000	0,009	-0,083
-169,125	-200,000	0,017	0,167
-168,110	775,083	-0,056	0,111
-167,096	-200,000	-0,006	-0,072
-166,081	-200,000	0,014	0,115
-165,066	164,732	-0,042	-0,043
-164,052	-200,000	-0,000	0,058
-163,037	222,185	-0,097	0,114
-162,023	-200,000	-0,012	-0,093
-161,008	264,026	0,067	-0,086
-159,993	-200,000	-0,010	0,049
-158,979	194,714	-0,033	-0,037
-157,964	800,000	0,029	-0,074
-156,950	-200,000	-0,004	-0,020
-155,935	-130,690	-0,116	0,011
-154,920	521,032	0,053	0,090
-153,906	110,521	0,087	0,076
-152,891	-145,966	0,103	-0,007
-151,877	789,756	-0,053	0,107
-150,862	289,331	-0,089	0,118
-149,847	800,000	0,042	-0,102
-148,833	-200,000	-0,013	0,128
-147,818	140,945	0,056	0,054
-146,804	624,166	-0,025	0,046
-145,789	-20,908	0,087	-0,038
-144,775	162,171	-0,146	0,149
-143,760	-153,249	-0,181	0,009
-142,745	363,680	-0,074	-0,108
-141,731	-80,442	-0,029	-0,007
-140,716	800,000	0,080	0,188
-139,702	-46,011	0,132	0,047
-138,687	-200,000	-0,006	-0,114
-137,672	-200,000	-0,012	-0,063
-136,658	-80,301	-0,068	0,016
-135,643	-142,696	-0,095	0,007
-134,629	-200,000	-0,028	-0,101
-133,614	7,554	0,086	-0,046
-132,599	-43,899	-0,070	-0,026
-131,585	-14,558	-0,092	-0,043
-130,570	245,775	0,085	-0,105
-129,556	-200,000	-0,000	0,049
-128,541	565,654	0,038	0,067
-127,526	-200,000	0,003	0,012
-126,512	273,375	-0,027	-0,035
-125,497	-200,000	-0,026	-0,093
-124,483	-200,000	-0,007	-0,155
-123,468	-200,000	-0,019	-0,065
-122,453	208,341	0,053	0,060
-121,439	469,752	-0,098	-0,161
-120,424	-200,000	0,003	0,066
-119,410	-68,499	-0,135	0,038
-118,395	423,915	0,026	-0,040
-117,380	800,000	0,076	0,163
-116,366	24,919	0,085	0,051
-115,351	800,000	-0,014	-0,033
-114,337	121,960	-0,146	-0,133
-113,322	65,071	0,060	-0,044
-112,307	353,487	0,051	-0,074
-111,293	-140,254	0,155	-0,012
-110,278	-200,000	0,010	0,040
-109,264	65,539	0,100	0,074
-108,249	-112,795	0,107	0,015
-107,234	-77,081	-0,069	-0,017
-106,220	31,958	0,082	0,051
-105,205	339,489	-0,011	0,015
-104,191	-200,000	-0,016	-0,083
-103,176	439,923	0,034	0,054
-102,162	367,337	-0,070	0,103
-101,147	794,073	0,016	-0,031
-100,132	-200,000	-0,014	-0,184
-99,118	27,194	0,119	0,072
-98,103	-147,785	-0,046	-0,003
-97,089	274,395	-0,029	-0,037
-96,074	-144,531	-0,105	-0,007
-95,059	249,758	0,088	-0,109
-94,045	333,076	0,081	-0,114
-93,030	-13,540	-0,091	-0,043
-92,016	-124,382	-0,028	-0,003
-91,001	-199,404	0,161	0,001
-89,986	80,755	0,151	0,118
-88,972	-200,000	0,006	0,038
-87,957	-29,178	0,049	-0,020
-86,943	-18,289	0,055	-0,025
-85,928	43,921	-0,215	-0,142
-84,913	119,286	-0,077	-0,069
-83,899	-200,000	0,006	-0,029
-82,884	-200,000	-0,003	0,029
-81,870	95,079	0,051	-0,042
-80,855	205,161	0,060	0,068
-79,840	761,812	0,030	-0,060
-78,826	-90,220	0,028	0,006
-77,811	607,435	-0,066	-0,119
-76,797	-8,317	0,136	0,066
-75,782	-200,000	-0,008	0,084
-74,767	-138,753	0,218	0,017
-73,753	156,750	-0,052	0,053
-72,738	168,837	0,107	-0,111
-71,724	-200,000	-0,021	-0,127
-70,709	800,000	-0,033	-0,092
-69,694	-200,000	0,024	-0,169
-68,680	46,391	-0,055	0,037
-67,665	148,426	-0,042	0,041
-66,651	-200,000	0,001	-0,022
-65,636	86,086	-0,062	0,050
-64,622	-52,084	-0,082	0,027
-63,607	-26,410	-0,142	0,060
-62,592	-200,000	0,002	-0,089
-61,578	193,039	0,041	-0,045
-60,563	-200,000	0,008	0,131
-59,549	800,000	0,013	0,028
-58,534	-72,707	-1,477	-0,391
-57,519	628,551	-0,748	-1,376
-56,505	-200,000	-0,997	-4,469
-55,490	-65,552	0,503	-0,145
-54,476	800,000	5,036	11,720
-53,461	-200,000	14,465	258,539
-52,446	-200,000	696,084	2234,806
-51,432	566,171	1622,111	2860,439
-50,417	117,715	1629,965	1452,633
-49,403	74,713	1284,151	977,262
-48,388	37,436	1022,418	654,947
-47,373	23,270	981,524	582,241
-46,359	22,399	970,840	573,028
-45,344	21,244	966,684	566,785
-44,330	21,283	965,232	566,037
-43,315	21,096	963,794	564,562
-42,300	21,112	962,694	563,948
-41,286	21,058	961,778	563,215
-40,271	21,106	960,464	562,576
-39,257	21,065	959,758	562,009
-38,242	21,109	958,795	561,565
-37,227	21,037	958,041	560,868
-36,213	21,038	957,219	560,369
-35,198	21,092	956,194	559,919
-34,184	21,082	955,596	559,515
-33,169	20,985	954,654	558,629
-32,154	21,095	953,718	558,413
-31,140	21,130	952,925	558,041
-30,125	21,073	952,184	557,401
-29,111	21,146	951,147	557,006
-28,096	21,130	950,554	556,586
-27,082	21,141	950,012	556,282
-26,067	21,099	949,191	555,644
-25,052	21,059	948,444	555,056
-24,038	21,018	947,895	554,581
-23,023	21,024	947,260	554,206
-22,009	21,082	946,532	553,946
-20,994	21,135	945,810	553,670
-19,979	21,132	945,309	553,343
-18,965	21,079	944,789	552,848
-17,950	21,056	944,186	552,402
-16,936	21,065	943,365	551,927
-15,921	21,044	942,601	551,391
-14,906	20,993	942,003	550,859
-13,892	20,964	941,336	550,355
-12,877	21,005	940,683	550,079
-11,863	20,901	940,223	549,460
-10,848	20,944	939,745	549,296
-9,833	21,002	939,167	549,118
-8,819	21,000	938,683	548,807
-7,804	21,030	937,753	548,336
-6,790	20,933	937,221	547,697
-5,775	21,060	936,657	547,748
-4,760	20,976	936,063	547,114
-3,746	20,962	935,561	546,754
-2,731	20,780	934,897	545,769
-1,717	20,800	933,855	545,202
-0,702	20,825	933,375	544,980
0,313	20,627	932,674	544,770
1,327	23,657	930,850	553,170
2,342	33,027	794,113	496,792
3,356	30,610	450,808	278,364
4,371	0,117	294,509	151,370
5,386	-4,262	275,507	137,441
6,400	-5,596	269,918	133,400
7,415	-5,903	267,491	131,905
8,429	-5,592	266,159	131,523
9,444	-5,563	265,357	131,141
10,459	-5,645	264,829	130,793
11,473	-5,841	264,448	130,415
12,488	-5,810	263,662	130,043
13,502	-5,832	263,229	129,799
14,517	-5,907	262,864	129,539
15,531	-5,774	262,387	129,413
16,546	-5,768	261,975	129,204
17,561	-5,675	261,611	129,096
18,575	-5,749	261,349	128,889
19,590	-5,697	261,095	128,799
20,604	-5,827	260,835	128,542
21,619	-5,656	260,344	128,442
22,634	-5,620	259,929	128,258
23,648	-5,796	259,637	127,946
24,663	-5,826	259,679	127,928
25,677	-5,849	259,222	127,670
26,692	-5,797	259,075	127,633
27,707	-5,929	258,892	127,415
28,721	-5,851	258,630	127,344
29,736	-5,773	258,241	127,210
30,750	-5,992	258,085	126,927
31,765	-5,917	257,758	126,821
32,780	-5,813	257,553	126,801
33,794	-5,744	257,207	126,681
34,809	-5,849	256,957	126,453
35,823	-5,683	256,538	126,383
36,838	-5,659	256,529	126,388
37,853	-5,862	256,189	126,030
38,867	-6,057	256,126	125,817
39,882	-6,019	255,817	125,687
40,896	-5,919	255,714	125,713
41,911	-5,822	255,456	125,661
42,926	-5,723	255,067	125,544
43,940	-6,012	254,885	125,191
44,955	-5,958	254,799	125,185
45,969	-5,982	254,488	124,999
46,984	-6,069	254,100	124,722
47,999	-6,297	253,957	124,441
49,013	-6,389	253,814	124,281
50,028	-6,450	253,419	124,023
51,042	-6,506	253,239	123,875
52,057	-6,588	252,906	123,630
53,071	-6,574	252,855	123,605
54,086	-6,380	252,523	123,601
55,101	-6,518	252,638	123,527
56,115	-6,197	252,302	123,629
57,130	-5,651	252,094	123,988
58,144	-5,647	252,124	123,996
59,159	-5,665	251,812	123,815
60,174	-5,604	251,680	123,792
61,188	-5,803	251,506	123,524
62,203	-5,841	251,311	123,385
63,217	-5,717	250,941	123,299
64,232	-5,784	250,773	123,147
65,247	-5,740	250,593	123,086
66,261	-5,774	250,432	122,966
67,276	-6,107	250,025	122,470
68,290	-6,224	250,041	122,366
69,305	-6,421	249,629	121,986
70,320	-6,260	249,490	122,045
71,334	-5,983	249,408	122,230
72,349	-5,601	249,099	122,395
73,363	-5,584	248,936	122,318
74,378	-5,703	248,697	122,088
75,393	-5,770	248,497	121,922
76,407	-5,668	248,249	121,877
77,422	-5,809	248,231	121,736
78,436	-5,753	248,043	121,681
79,451	-5,793	247,770	121,502
80,466	-5,790	247,526	121,374
81,480	-5,891	247,226	121,131
82,495	-5,976	247,037	120,955
83,509	-6,052	246,946	120,837
84,524	-5,997	246,745	120,773
85,539	-6,132	246,536	120,546
86,553	-6,222	246,415	120,401
87,568	-6,281	246,292	120,280
88,582	-5,920	245,859	120,361
89,597	-6,060	245,858	120,232
90,611	-6,138	245,714	120,086
91,626	-5,818	245,557	120,267
92,641	-5,837	245,196	120,064
93,655	-6,033	245,245	119,912
94,670	-5,921	244,872	119,813
95,684	-6,222	244,786	119,508
96,699	-5,921	244,582	119,650
97,714	-5,806	244,249	119,573
98,728	-6,324	244,209	119,110
99,743	-6,174	243,905	119,076
100,757	-5,928	243,572	119,107
101,772	-6,060	243,532	118,967
102,787	-6,200	243,397	118,775
103,801	-5,946	243,088	118,824
104,816	-6,027	243,087	118,746
105,830	-6,001	242,947	118,689
106,845	-5,717	242,861	118,871
107,860	-5,987	242,607	118,513
108,874	-5,972	242,274	118,352
109,889	-5,952	242,056	118,252
110,903	-6,123	242,024	118,084
111,918	-6,018	241,630	117,968
112,933	-5,973	241,645	118,002
113,947	-5,873	241,485	117,996
114,962	-5,833	241,198	117,877
115,976	-5,873	241,079	117,776
116,991	-5,893	240,831	117,628
118,006	-6,078	240,769	117,435
119,020	-6,001	240,729	117,469
120,035	-5,885	240,524	117,453
121,049	-5,970	240,255	117,242
122,064	-6,019	240,187	117,158
123,079	-6,020	240,081	117,095
124,093	-5,844	239,673	117,030
125,108	-6,097	239,442	116,699
126,122	-6,258	239,227	116,453
127,137	-6,264	238,984	116,319
128,151	-6,243	238,996	116,332
129,166	-6,064	238,740	116,342
130,181	-6,193	238,612	116,165
131,195	-6,247	238,303	115,960
132,210	-6,094	238,203	116,026
133,224	-5,999	238,108	116,046
134,239	-5,751	237,947	116,159
135,254	-5,723	237,806	116,102
136,268	-6,031	237,631	115,757
137,283	-5,820	237,090	115,653
138,297	-6,466	237,198	115,173
139,312	-6,306	237,047	115,220
140,327	-5,966	236,839	115,382
141,341	-5,640	236,812	115,622
142,356	-5,595	236,603	115,546
143,370	-5,541	236,463	115,510
144,385	-5,372	236,233	115,523
145,400	-5,518	236,227	115,393
146,414	-5,550	236,021	115,256
147,429	-5,823	235,871	114,954
148,443	-5,578	235,640	115,028
149,458	-5,507	235,461	114,986
150,473	-5,511	235,152	114,822
151,487	-5,743	235,061	114,581
152,502	-5,663	234,819	114,518
153,516	-5,460	234,834	114,677
154,531	-5,462	234,642	114,572
155,546	-5,641	234,475	114,337
156,560	-5,793	234,261	114,101
157,575	-5,743	234,019	114,013
158,589	-5,791	233,874	113,894
159,604	-5,762	233,816	113,879
160,619	-5,650	233,773	113,937
161,633	-5,461	233,589	113,987
162,648	-5,416	233,271	113,857
163,662	-5,745	233,196	113,549
164,677	-5,657	233,092	113,559
165,692	-5,657	232,875	113,443
166,706	-5,726	232,813	113,348
167,721	-5,306	232,554	113,544
168,735	-5,421	232,451	113,392
169,750	-5,464	232,249	113,250
170,764	-5,547	232,081	113,092
171,779	-5,613	232,082	113,030
172,794	-5,493	231,840	112,997
173,808	-5,573	231,556	112,786
174,823	-5,942	231,209	112,317
175,837	-6,205	231,160	112,077
176,852	-5,684	230,984	112,390
177,867	-5,593	231,010	112,464
178,881	-5,496	230,801	112,428
179,896	-5,347	230,789	112,529
180,910	-5,169	230,404	112,470
181,925	-5,620	230,453	112,132
182,940	-5,495	230,351	112,170
183,954	-5,448	230,083	112,066
184,969	-5,446	230,024	112,029
185,983	-5,395	229,830	111,964
186,998	-5,233	229,503	111,921
188,013	-5,235	229,554	111,934
189,027	-5,429	229,395	111,696
190,042	-5,464	229,172	111,549
191,056	-5,139	228,976	111,697
192,071	-5,200	228,787	111,547
193,086	-5,534	228,807	111,288
194,100	-5,384	228,480	111,235
195,115	-5,629	228,184	110,891
196,129	-6,488	228,118	110,186
197,144	-3,162	228,921	113,143
198,159	1,662	230,116	117,475
199,173	3,915	230,854	119,595
200,188	3,941	230,797	119,575
201,202	3,992	230,635	119,520
202,217	4,266	230,409	119,604
203,232	4,185	230,466	119,561
204,246	4,555	230,238	119,718
205,261	4,449	229,996	119,500
206,275	4,515	229,936	119,509
207,290	4,556	229,908	119,516
208,304	4,560	229,779	119,441
209,319	4,695	229,499	119,389
210,334	4,380	229,299	119,031
211,348	4,164	229,069	118,734
212,363	3,936	228,835	118,427
213,377	3,451	228,702	117,975
214,392	3,531	228,421	117,881
215,407	3,829	228,367	118,072
216,421	3,731	228,155	117,876
217,436	3,660	227,945	117,703
218,450	3,646	227,787	117,601
219,465	3,519	227,680	117,437
220,480	3,610	227,392	117,348
221,494	3,628	227,393	117,351
222,509	3,816	227,252	117,412
223,523	3,787	227,192	117,349
224,538	3,547	226,875	116,991
225,553	3,599	226,856	117,010
226,567	3,809	226,782	117,122
227,582	3,988	226,671	117,190
228,596	4,028	226,673	117,211
229,611	3,758	226,248	116,776
230,626	3,412	225,986	116,368
231,640	3,378	225,968	116,323
232,655	3,934	225,871	116,683
233,669	4,345	225,855	116,976
234,684	4,328	225,749	116,899
235,699	4,106	225,460	116,570
236,713	3,786	225,267	116,218
237,728	3,758	225,063	116,082
238,742	3,502	224,991	115,841
239,757	3,589	224,769	115,781
240,772	3,646	224,563	115,708
241,786	3,644	224,471	115,649
242,801	3,849	224,392	115,752
243,815	4,034	224,421	115,896
244,830	4,132	224,203	115,847
245,844	3,516	223,988	115,262
246,859	3,777	223,883	115,394
247,874	3,892	223,766	115,410
248,888	3,953	223,564	115,341
249,903	3,786	223,404	115,123
250,917	3,582	223,297	114,905
251,932	3,636	223,118	114,843
252,947	3,481	222,824	114,566
253,961	3,582	222,726	114,581
254,976	3,665	222,525	114,529
255,990	3,770	222,498	114,583
257,005	3,816	222,297	114,504
258,020	3,895	222,210	114,507
259,034	4,139	222,173	114,660
260,049	3,961	222,079	114,469
261,063	3,823	221,973	114,301
262,078	4,144	221,604	114,340
263,093	3,913	221,649	114,181
264,107	4,055	221,391	114,143
265,122	3,975	221,301	114,027
266,136	4,188	221,250	114,148
267,151	4,351	220,891	114,073
268,166	3,671	220,758	113,493
269,180	3,486	220,556	113,242
270,195	3,768	220,297	113,306
271,209	3,681	220,261	113,214
272,224	3,627	220,225	113,145
273,239	3,880	220,077	113,245
274,253	3,553	219,867	112,887
275,268	3,423	219,601	112,645
276,282	3,356	219,385	112,475
277,297	3,385	219,445	112,516
278,312	3,418	219,082	112,345
279,326	3,563	219,238	112,521
280,341	3,745	219,059	112,553
281,355	3,841	218,894	112,528
282,370	3,797	218,626	112,347
283,384	3,468	218,567	112,067
284,399	3,149	218,360	111,718
285,414	3,426	218,238	111,848
286,428	3,665	218,122	111,953
287,443	3,944	218,128	112,149
288,457	3,666	218,084	111,913
289,472	3,793	217,793	111,847
290,487	3,074	217,596	111,213
291,501	3,036	217,333	111,041
292,516	3,208	217,291	111,135
293,530	3,269	217,197	111,121
294,545	3,394	217,073	111,138
295,560	3,670	216,974	111,278
296,574	3,634	216,733	111,118
297,589	3,632	216,798	111,140
298,603	3,749	216,530	111,078
299,618	3,680	216,329	110,914
300,633	3,843	216,277	110,996
301,647	3,676	216,084	110,766
302,662	3,646	216,157	110,772
303,676	4,120	215,961	111,003
304,691	4,046	215,846	110,881
305,706	4,077	215,689	110,813
306,720	3,771	215,577	110,525
307,735	3,615	215,319	110,271
308,749	3,361	215,170	110,003
309,764	3,823	215,062	110,269
310,779	3,898	214,959	110,261
311,793	3,975	214,752	110,199
312,808	3,681	214,603	109,903
313,822	3,928	214,297	109,913
314,837	3,530	214,343	109,642
315,852	3,509	214,261	109,575
316,866	3,761	214,056	109,640
317,881	4,153	213,918	109,839
318,895	3,902	213,870	109,626
319,910	3,705	213,673	109,375
320,925	3,427	213,474	109,066
321,939	3,295	213,248	108,847
322,954	3,383	213,121	108,834
323,968	3,813	213,154	109,147
324,983	3,686	213,196	109,069
325,997	3,887	212,964	109,083
327,012	3,847	212,709	108,914
328,027	3,697	212,663	108,775
329,041	4,216	212,570	109,085
330,056	4,279	212,420	109,042
331,070	3,805	212,086	108,527
332,085	3,386	211,891	108,121
333,100	3,690	211,737	108,248
334,114	3,876	211,805	108,405
335,129	3,671	211,591	108,141
336,143	3,414	211,520	107,913
337,158	3,654	211,337	107,979
338,173	3,716	211,251	107,969
339,187	3,363	211,104	107,637
340,202	3,401	210,785	107,491
341,216	3,488	210,649	107,473
342,231	3,365	210,610	107,358
343,246	3,296	210,478	107,232
344,260	3,377	210,464	107,272
345,275	3,562	210,250	107,283
346,289	3,945	210,083	107,456
347,304	3,834	210,029	107,341
348,319	3,561	209,923	107,087
349,333	3,694	209,803	107,109
350,348	3,717	209,703	107,065
351,362	3,842	209,558	107,068
352,377	3,775	209,296	106,878
353,392	3,672	209,255	106,776
354,406	3,791	209,096	106,768
355,421	194,231	1343,383	1429,641
356,435	155,017	1481,657	1429,728
