DTS Sentinel unit serial number:	SN410029Multiplexer serial number:	ORYXHardware model number:	OX2-SRSoftware version number:	ORYX F/W v4,00 Oryx Data Collector v3.7.2.0data status	okinstallation	B6 Nyhavnadifferential loss correction	single-endedforward channel	channel 2reverse channel	N/Adate	2023/12/10time	16:15:08forward acquisition time	300,00reverse acquisition time	0,00gamma	499,1914k internal	0,3123k external	0,3123temperature offset calibration	1,0000default loss term (dB/km)	0,3820temperature slope calibration	1,0000multiplexer offset coefficient	1,0000multiplexer slope coefficient	1,0000fibre end	0,00T internal ref (°C)	22,37T ext. ref 1 (°C)	6,11T ext. ref 2 (°C)	6,09length (m)	temperature (°C)	Stokes	anti-Stokes-744,400	-112,026	0,051	-0,008
-743,385	-178,587	-0,127	-0,002
-742,371	-167,777	0,042	0,001
-741,356	800,000	-0,060	0,134
-740,342	-126,186	0,086	0,010
-739,327	78,895	-0,141	0,113
-738,312	104,693	-0,025	0,022
-737,298	76,287	-0,236	0,186
-736,283	-137,610	0,114	-0,009
-735,269	-26,834	-0,255	0,110
-734,254	1,038	-0,077	-0,041
-733,239	-70,485	-0,339	-0,095
-732,225	24,373	0,039	-0,024
-731,210	-200,000	0,037	-0,155
-730,196	-65,587	-0,018	0,005
-729,181	-41,742	0,059	0,022
-728,167	322,829	0,060	0,086
-727,152	-99,488	0,073	-0,014
-726,137	-200,000	0,007	-0,058
-725,123	68,135	-0,127	-0,096
-724,108	-118,568	-0,208	0,027
-723,094	800,000	0,010	-0,031
-722,079	-200,000	-0,043	-0,167
-721,064	-200,000	0,011	-0,169
-720,050	-129,013	0,036	-0,004
-719,035	15,652	0,146	-0,085
-718,021	-127,830	0,087	-0,009
-717,006	800,000	-0,060	-0,147
-715,991	-200,000	-0,014	-0,129
-714,977	-200,000	-0,015	-0,191
-713,962	-200,000	-0,014	-0,173
-712,948	-200,000	0,007	-0,035
-711,933	-39,122	0,036	-0,014
-710,918	498,259	-0,052	-0,090
-709,904	83,055	-0,022	0,018
-708,889	18,657	-0,154	-0,091
-707,875	591,044	0,041	-0,075
-706,860	-125,926	0,048	-0,005
-705,845	220,278	0,065	-0,077
-704,831	-146,113	-0,090	-0,006
-703,816	-200,000	0,010	-0,128
-702,802	800,000	-0,070	0,145
-701,787	23,827	-0,201	-0,123
-700,772	134,503	0,058	-0,056
-699,758	-200,000	-0,005	0,074
-698,743	186,998	0,110	-0,122
-697,729	539,500	0,040	-0,072
-696,714	-200,000	-0,036	-0,171
-695,699	-200,000	-0,013	-0,133
-694,685	-200,000	-0,001	-0,067
-693,670	-200,000	0,008	-0,181
-692,656	-32,859	-0,028	-0,012
-691,641	-200,000	0,001	0,058
-690,627	279,781	-0,034	0,046
-689,612	165,770	-0,037	0,039
-688,597	172,944	-0,101	-0,108
-687,583	5,050	0,014	0,007
-686,568	103,490	-0,101	0,088
-685,554	800,000	0,052	0,143
-684,539	-62,694	-0,044	-0,013
-683,524	-161,060	0,056	-0,002
-682,510	-94,027	0,048	0,010
-681,495	76,674	0,027	-0,021
-680,481	-1,988	-0,063	-0,033
-679,466	401,814	-0,066	-0,104
-678,451	20,992	-0,130	-0,078
-677,437	787,349	0,072	-0,147
-676,422	213,195	-0,030	0,035
-675,408	27,620	0,087	0,054
-674,393	-200,000	-0,027	-0,149
-673,378	19,454	0,162	-0,097
-672,364	-134,748	-0,010	0,001
-671,349	33,478	0,084	-0,054
-670,335	-89,596	0,060	-0,013
-669,320	-69,264	0,076	-0,022
-668,305	-149,654	-0,082	-0,005
-667,291	-70,510	-0,137	-0,038
-666,276	184,613	-0,021	0,024
-665,262	211,395	0,064	0,075
-664,247	-200,000	0,007	-0,053
-663,232	398,799	-0,049	-0,077
-662,218	-181,114	-0,017	0,000
-661,203	160,689	0,064	-0,066
-660,189	-200,000	0,029	0,155
-659,174	-165,731	-0,080	0,003
-658,159	78,180	-0,056	0,044
-657,145	800,000	-0,006	-0,018
-656,130	-69,765	0,077	0,022
-655,116	404,379	0,042	0,066
-654,101	-200,000	0,016	-0,062
-653,086	-68,355	-0,091	-0,026
-652,072	-110,357	-0,017	0,003
-651,057	-200,000	0,017	-0,134
-650,043	-200,000	-0,001	-0,053
-649,028	-91,910	-0,029	-0,006
-648,014	-200,000	0,005	0,109
-646,999	-62,502	-0,056	-0,017
-645,984	-4,338	0,101	0,052
-644,970	-31,248	-0,104	-0,043
-643,955	-56,725	-0,019	-0,006
-642,941	800,000	0,043	-0,094
-641,926	-200,000	-0,003	-0,073
-640,911	68,028	0,051	0,039
-639,897	-121,814	-0,134	-0,016
-638,882	-134,327	-0,050	0,004
-637,868	288,669	-0,023	0,031
-636,853	-200,000	-0,011	-0,152
-635,838	159,938	-0,030	-0,032
-634,824	-130,243	-0,069	0,007
-633,809	-178,881	-0,031	-0,001
-632,795	-200,000	-0,016	0,065
-631,780	-60,561	0,096	-0,030
-630,765	-83,642	0,049	0,012
-629,751	193,213	-0,082	-0,092
-628,736	81,863	-0,068	-0,055
-627,722	46,814	-0,080	0,055
-626,707	286,405	-0,081	0,109
-625,692	108,800	0,061	0,054
-624,678	288,414	0,104	-0,139
-623,663	68,478	-0,059	0,045
-622,649	48,658	-0,095	-0,066
-621,634	41,420	0,124	-0,083
-620,619	-141,153	-0,084	0,006
-619,605	800,000	0,017	0,048
-618,590	800,000	-0,006	0,015
-617,576	-200,000	-0,022	-0,093
-616,561	-200,000	-0,037	0,147
-615,546	359,392	0,031	-0,046
-614,532	800,000	-0,036	-0,081
-613,517	-96,548	-0,168	0,033
-612,503	-200,000	-0,012	-0,121
-611,488	-200,000	0,004	0,029
-610,474	271,639	0,046	0,061
-609,459	257,951	0,067	-0,085
-608,444	36,826	-0,049	0,032
-607,430	139,582	-0,042	-0,041
-606,415	-1,216	0,081	-0,042
-605,401	6,336	-0,015	-0,008
-604,386	113,396	0,025	-0,023
-603,371	25,679	0,138	0,085
-602,357	92,868	-0,065	0,054
-601,342	-0,392	-0,170	-0,089
-600,328	800,000	-0,007	-0,022
-599,313	339,155	0,038	-0,055
-598,298	-131,734	-0,090	0,009
-597,284	-200,000	0,004	0,047
-596,269	-200,000	-0,009	-0,079
-595,255	-200,000	-0,001	-0,037
-594,240	-37,318	0,119	-0,047
-593,225	452,808	-0,033	-0,055
-592,211	89,042	0,037	-0,031
-591,196	-59,267	-0,121	-0,038
-590,182	-19,240	-0,100	-0,046
-589,167	271,162	-0,089	0,116
-588,152	-200,000	0,016	0,129
-587,138	17,257	-0,116	-0,068
-586,123	282,897	-0,071	-0,095
-585,109	305,978	-0,117	-0,162
-584,094	800,000	0,065	0,163
-583,079	185,144	-0,076	-0,084
-582,065	-146,492	0,056	-0,004
-581,050	-39,412	0,110	0,043
-580,036	-200,000	0,010	0,112
-579,021	-26,254	-0,140	0,060
-578,006	258,885	-0,029	-0,037
-576,992	147,519	0,086	-0,085
-575,977	91,050	0,059	0,049
-574,963	436,222	-0,024	-0,039
-573,948	-200,000	-0,001	-0,033
-572,934	7,835	-0,104	0,058
-571,919	-200,000	0,032	-0,107
-570,904	800,000	-0,054	-0,120
-569,890	-200,000	0,018	-0,120
-568,875	-75,432	0,119	0,031
-567,861	-71,723	0,156	0,043
-566,846	800,000	-0,063	0,135
-565,831	-43,621	0,092	-0,034
-564,817	94,196	-0,142	-0,119
-563,802	-31,017	-0,098	0,041
-562,788	78,791	-0,026	-0,021
-561,773	-200,000	0,040	0,155
-560,758	165,427	0,067	0,070
-559,744	-200,000	-0,015	0,082
-558,729	109,483	0,129	0,115
-557,715	38,193	-0,087	0,057
-556,700	800,000	0,023	0,073
-555,685	137,725	0,083	-0,080
-554,671	800,000	0,036	-0,096
-553,656	22,675	0,085	0,051
-552,642	13,197	0,030	0,017
-551,627	67,785	0,048	0,037
-550,612	-200,000	-0,013	-0,079
-549,598	-172,231	-0,064	-0,001
-548,583	640,346	-0,052	-0,098
-547,569	-200,000	0,020	-0,086
-546,554	-32,247	0,199	0,082
-545,539	60,122	0,072	-0,052
-544,525	-66,982	0,049	-0,014
-543,510	506,388	0,014	-0,024
-542,496	-91,694	0,034	-0,007
-541,481	56,748	-0,144	0,104
-540,466	-200,000	-0,000	0,130
-539,452	-200,000	0,014	0,089
-538,437	-108,341	-0,055	-0,009
-537,423	-200,000	0,001	0,053
-536,408	-84,442	0,126	0,029
-535,393	-200,000	-0,020	0,106
-534,379	800,000	-0,025	-0,081
-533,364	-200,000	-0,006	0,062
-532,350	800,000	-0,016	0,040
-531,335	561,564	-0,021	-0,038
-530,321	348,988	0,041	-0,060
-529,306	18,388	0,054	-0,032
-528,291	-200,000	0,010	0,059
-527,277	-23,571	0,145	0,064
-526,262	-200,000	0,034	-0,144
-525,248	-86,786	-0,127	0,028
-524,233	47,110	-0,110	0,076
-523,218	191,352	0,064	0,071
-522,204	85,535	0,077	0,063
-521,189	-87,089	-0,122	0,027
-520,175	85,109	0,021	0,017
-519,160	-200,000	0,008	0,055
-518,145	-151,277	0,020	0,001
-517,131	-52,862	-0,016	-0,005
-516,116	800,000	-0,038	0,106
-515,102	-107,453	0,102	-0,016
-514,087	-87,427	-0,043	-0,010
-513,072	-168,747	0,105	-0,003
-512,058	-172,685	-0,139	0,003
-511,043	-200,000	0,030	-0,110
-510,029	52,835	0,050	0,035
-509,014	-31,169	-0,043	0,018
-507,999	96,322	0,085	0,072
-506,985	13,604	-0,131	-0,075
-505,970	339,828	-0,067	-0,097
-504,956	-127,687	-0,047	0,005
-503,941	-200,000	-0,001	0,104
-502,926	-5,446	-0,068	0,035
-501,912	-200,000	0,005	0,046
-500,897	-200,000	-0,052	0,193
-499,883	-200,000	-0,014	0,061
-498,868	-41,823	-0,100	-0,038
-497,853	-128,322	0,131	0,014
-496,839	-80,695	0,077	-0,019
-495,824	-114,752	-0,064	0,009
-494,810	-8,684	0,014	-0,007
-493,795	402,514	0,042	0,065
-492,781	-200,000	0,001	-0,085
-491,766	-167,191	-0,065	-0,002
-490,751	800,000	-0,061	-0,182
-489,737	800,000	-0,038	0,092
-488,722	-92,819	0,053	0,011
-487,708	-176,690	0,037	0,001
-486,693	113,577	0,075	0,067
-485,678	-87,459	-0,115	0,025
-484,664	29,872	-0,084	-0,053
-483,649	728,255	-0,038	0,076
-482,635	268,694	-0,073	-0,095
-481,620	-97,351	0,042	-0,008
-480,605	-6,171	0,009	-0,005
-479,591	800,000	0,045	-0,119
-478,576	175,264	-0,035	-0,038
-477,562	736,977	0,056	-0,111
-476,547	397,701	-0,064	-0,099
-475,532	-127,671	0,037	-0,004
-474,518	-200,000	0,035	-0,267
-473,503	86,008	-0,029	-0,024
-472,489	164,648	0,011	0,011
-471,474	34,797	0,089	0,057
-470,459	-200,000	-0,005	-0,032
-469,445	-200,000	0,001	0,068
-468,430	465,567	0,063	0,105
-467,416	-67,413	0,151	0,043
-466,401	-127,695	0,157	-0,016
-465,386	36,510	0,070	0,046
-464,372	-0,154	0,149	0,078
-463,357	-36,412	-0,046	-0,018
-462,343	-63,873	-0,039	0,012
-461,328	95,838	-0,082	-0,069
-460,313	-200,000	0,013	0,076
-459,299	378,931	0,054	0,082
-458,284	231,361	-0,045	-0,054
-457,270	800,000	0,018	0,056
-456,255	800,000	0,060	-0,156
-455,241	-200,000	0,004	-0,079
-454,226	-200,000	0,024	0,140
-453,211	-200,000	0,023	0,081
-452,197	-121,810	0,098	0,012
-451,182	489,443	0,033	-0,056
-450,168	453,826	0,074	0,120
-449,153	345,539	-0,009	-0,013
-448,138	-70,131	-0,083	-0,023
-447,124	106,050	0,125	-0,109
-446,109	-102,571	-0,118	-0,021
-445,095	-200,000	0,000	-0,007
-444,080	321,540	0,057	0,081
-443,065	-41,262	0,124	0,047
-442,051	-200,000	-0,021	-0,084
-441,036	303,665	0,043	-0,059
-440,022	239,248	-0,073	-0,089
-439,007	106,778	-0,061	0,053
-437,992	-200,000	0,006	0,062
-436,978	-147,815	0,083	-0,005
-435,963	-113,979	0,089	-0,013
-434,949	782,625	-0,061	-0,123
-433,934	208,640	-0,067	-0,077
-432,919	800,000	-0,034	-0,083
-431,905	800,000	-0,041	0,098
-430,890	800,000	0,023	-0,053
-429,876	722,096	0,066	0,129
-428,861	-88,134	0,029	0,006
-427,846	-200,000	0,007	0,079
-426,832	-200,000	0,016	0,053
-425,817	-200,000	0,025	-0,081
-424,803	-31,123	0,065	0,027
-423,788	800,000	0,026	0,056
-422,773	-200,000	0,008	0,094
-421,759	800,000	0,011	-0,031
-420,744	800,000	-0,052	0,115
-419,730	41,237	-0,143	-0,095
-418,715	6,293	0,056	-0,031
-417,701	-200,000	-0,001	0,062
-416,686	157,261	-0,088	0,090
-415,671	269,687	0,104	0,135
-414,657	158,935	-0,023	-0,023
-413,642	-96,582	-0,136	0,026
-412,628	626,457	-0,104	-0,195
-411,613	185,751	-0,093	0,101
-410,598	204,669	0,148	-0,169
-409,584	-8,127	0,050	-0,025
-408,569	800,000	-0,002	-0,005
-407,555	-52,337	-0,081	-0,028
-406,540	-152,793	0,063	-0,003
-405,525	29,921	-0,053	0,033
-404,511	-156,599	-0,108	-0,005
-403,496	-200,000	-0,036	-0,162
-402,482	129,804	0,003	0,003
-401,467	-200,000	-0,013	0,120
-400,452	800,000	-0,016	-0,045
-399,438	800,000	0,056	-0,135
-398,423	800,000	-0,071	-0,155
-397,409	74,944	0,025	0,019
-396,394	-127,643	0,081	-0,009
-395,379	-18,455	-0,091	-0,041
-394,365	-27,633	0,063	-0,027
-393,350	-86,291	0,107	0,024
-392,336	654,929	-0,060	0,113
-391,321	-98,338	-0,048	0,009
-390,306	-169,049	-0,078	0,002
-389,292	411,805	0,047	-0,073
-388,277	267,724	0,061	0,079
-387,263	108,734	-0,015	0,013
-386,248	42,699	0,056	0,038
-385,233	-200,000	0,013	0,045
-384,219	-94,854	-0,076	-0,015
-383,204	-116,519	-0,042	-0,006
-382,190	72,357	0,052	-0,040
-381,175	-132,366	0,080	0,007
-380,160	-179,862	0,086	0,001
-379,146	-200,000	-0,001	-0,003
-378,131	-200,000	-0,008	0,159
-377,117	300,586	-0,030	-0,040
-376,102	-200,000	0,017	-0,074
-375,088	-200,000	-0,015	-0,116
-374,073	30,960	-0,066	-0,042
-373,058	-141,554	0,042	0,003
-372,044	-200,000	0,001	-0,024
-371,029	-200,000	-0,029	0,130
-370,015	-200,000	-0,014	0,091
-369,000	665,036	0,080	-0,153
-367,985	86,779	-0,115	-0,093
-366,971	63,262	0,075	-0,055
-365,956	-200,000	0,027	0,117
-364,942	800,000	-0,041	0,116
-363,927	800,000	-0,036	0,101
-362,912	115,435	-0,063	0,056
-361,898	203,254	0,033	-0,038
-360,883	137,034	-0,093	-0,089
-359,869	50,974	0,042	0,030
-358,854	93,843	0,103	0,086
-357,839	17,294	-0,146	0,085
-356,825	116,399	0,025	0,022
-355,810	-138,032	0,075	0,006
-354,796	140,639	-0,030	-0,029
-353,781	598,053	-0,051	-0,094
-352,766	59,594	-0,077	0,056
-351,752	368,253	0,075	0,111
-350,737	-150,995	0,087	-0,005
-349,723	-41,503	0,033	0,012
-348,708	800,000	0,018	-0,049
-347,693	-142,426	-0,104	-0,007
-346,679	7,248	0,125	-0,068
-345,664	-125,045	0,055	0,006
-344,650	33,389	-0,116	0,074
-343,635	-200,000	0,006	0,021
-342,620	339,959	0,039	0,056
-341,606	-100,290	0,184	0,033
-340,591	800,000	0,022	0,044
-339,577	-111,699	-0,076	0,011
-338,562	-200,000	0,014	0,053
-337,548	-200,000	0,004	0,095
-336,533	-200,000	0,106	-0,000
-335,518	-166,625	0,048	0,001
-334,504	-117,789	-0,091	-0,012
-333,489	-200,000	0,001	0,155
-332,475	-138,479	-0,047	0,004
-331,460	190,320	-0,090	-0,099
-330,445	378,544	0,061	0,092
-329,431	22,734	-0,100	0,060
-328,416	629,187	-0,020	-0,037
-327,402	-200,000	0,015	0,093
-326,387	11,522	-0,083	-0,047
-325,372	52,064	-0,045	-0,031
-324,358	-106,203	-0,054	-0,009
-323,343	200,703	0,067	-0,075
-322,329	-120,545	-0,098	-0,012
-321,314	-200,000	-0,021	0,076
-320,299	-123,246	0,057	-0,007
-319,285	-200,000	-0,008	0,035
-318,270	-200,000	0,023	-0,096
-317,256	800,000	-0,067	-0,144
-316,241	-120,522	0,133	-0,016
-315,226	-19,646	0,113	-0,051
-314,212	-200,000	0,006	-0,129
-313,197	116,235	-0,035	-0,032
-312,183	-44,160	-0,063	0,023
-311,168	-72,375	-0,059	-0,016
-310,153	-200,000	-0,005	0,022
-309,139	-200,000	0,016	-0,080
-308,124	-200,000	0,006	0,068
-307,110	-200,000	-0,005	0,118
-306,095	3,823	-0,015	0,008
-305,080	283,353	0,061	-0,080
-304,066	241,253	-0,096	-0,118
-303,051	-46,098	-0,121	-0,043
-302,037	800,000	0,043	0,112
-301,022	-200,000	0,005	-0,110
-300,008	-200,000	-0,002	-0,029
-298,993	376,188	0,128	0,191
-297,978	800,000	-0,050	0,129
-296,964	-5,545	0,091	0,045
-295,949	-200,000	-0,021	0,127
-294,935	-71,896	-0,066	-0,018
-293,920	-200,000	-0,000	-0,014
-292,905	-130,246	0,080	0,008
-291,891	122,035	-0,075	0,069
-290,876	142,240	-0,090	-0,088
-289,862	493,716	-0,047	0,080
-288,847	344,645	-0,104	-0,150
-287,832	-14,221	0,092	-0,043
-286,818	-57,518	-0,099	-0,032
-285,803	-149,418	-0,018	-0,001
-284,789	781,702	0,099	0,199
-283,774	-200,000	0,009	0,057
-282,759	-200,000	0,001	-0,043
-281,745	-200,000	-0,000	-0,098
-280,730	-200,000	-0,024	-0,097
-279,716	-200,000	0,010	0,037
-278,701	800,000	-0,029	0,060
-277,686	-54,349	-0,101	0,034
-276,672	-200,000	0,147	0,000
-275,657	510,252	-0,046	-0,079
-274,643	154,250	0,140	-0,141
-273,628	304,582	0,022	0,030
-272,613	800,000	-0,051	-0,117
-271,599	290,181	-0,046	-0,062
-270,584	800,000	-0,031	-0,086
-269,570	-200,000	0,004	0,019
-268,555	332,257	0,114	0,161
-267,540	-104,777	-0,099	0,017
-266,526	41,390	-0,125	-0,082
-265,511	800,000	-0,029	-0,070
-264,497	800,000	0,037	-0,082
-263,482	78,507	0,092	-0,072
-262,467	8,098	-0,134	0,073
-261,453	-114,142	0,140	-0,020
-260,438	-25,070	0,017	-0,007
-259,424	-127,893	0,071	0,007
-258,409	152,082	-0,039	0,039
-257,395	-111,668	0,209	0,031
-256,380	-43,719	0,160	-0,059
-255,365	-23,423	-0,051	-0,022
-254,351	120,955	-0,107	-0,097
-253,336	800,000	-0,060	-0,140
-252,322	800,000	0,061	-0,194
-251,307	-200,000	-0,038	-0,178
-250,292	-200,000	-0,003	-0,080
-249,278	16,572	0,077	-0,045
-248,263	762,455	0,027	-0,054
-247,249	-64,475	-0,049	0,014
-246,234	-115,047	-0,172	0,024
-245,219	-200,000	-0,009	0,049
-244,205	-200,000	0,000	-0,016
-243,190	-120,974	0,125	-0,015
-242,176	571,748	0,030	0,054
-241,161	204,342	0,086	-0,098
-240,146	800,000	-0,021	0,063
-239,132	85,884	-0,146	-0,118
-238,117	605,545	-0,024	0,044
-237,103	-97,614	-0,100	-0,019
-236,088	176,949	0,079	0,084
-235,073	-200,000	-0,026	0,108
-234,059	800,000	0,038	0,087
-233,044	-163,410	0,064	0,002
-232,030	94,612	-0,150	-0,125
-231,015	-13,750	-0,105	0,049
-230,000	800,000	0,028	0,090
-228,986	-34,831	0,087	-0,035
-227,971	-67,323	0,169	-0,048
-226,957	60,257	0,095	-0,068
-225,942	-135,773	-0,117	0,010
-224,927	187,300	-0,039	-0,043
-223,913	544,404	0,093	0,162
-222,898	-200,000	-0,006	0,057
-221,884	467,460	-0,026	0,042
-220,869	-98,072	-0,042	0,008
-219,855	-135,003	0,111	-0,010
-218,840	-200,000	0,002	0,126
-217,825	130,339	0,100	-0,093
-216,811	247,049	0,084	-0,104
-215,796	112,850	-0,060	-0,053
-214,782	-16,124	-0,051	-0,024
-213,767	83,666	0,036	-0,029
-212,752	731,849	-0,058	0,114
-211,738	31,956	0,055	0,035
-210,723	800,000	0,046	0,123
-209,709	-200,000	-0,018	-0,195
-208,694	-200,000	-0,031	-0,166
-207,679	-200,000	-0,002	-0,033
-206,665	800,000	0,025	0,072
-205,650	-77,560	0,166	-0,042
-204,636	212,259	0,056	-0,064
-203,621	32,670	-0,064	-0,040
-202,606	33,186	-0,022	-0,014
-201,592	-200,000	-0,005	0,032
-200,577	-200,000	-0,014	0,118
-199,563	800,000	0,050	0,125
-198,548	97,912	0,175	0,147
-197,533	-200,000	0,003	-0,110
-196,519	34,364	-0,017	0,011
-195,504	-200,000	-0,023	-0,075
-194,490	-21,777	-0,141	-0,062
-193,475	123,981	-0,060	0,055
-192,460	477,121	0,072	-0,119
-191,446	-200,000	0,005	0,097
-190,431	-200,000	-0,009	0,077
-189,417	800,000	0,016	0,050
-188,402	741,404	-0,079	0,156
-187,387	-138,818	0,054	0,004
-186,373	157,355	0,056	0,057
-185,358	-200,000	0,024	0,151
-184,344	-200,000	0,031	0,103
-183,329	-200,000	-0,004	-0,068
-182,315	466,709	0,062	-0,102
-181,300	56,732	-0,129	-0,091
-180,285	-181,231	0,021	-0,000
-179,271	-32,115	-0,081	-0,033
-178,256	-65,249	0,107	-0,031
-177,242	355,946	0,056	-0,082
-176,227	-139,946	-0,140	0,011
-175,212	-151,055	-0,085	-0,005
-174,198	-200,000	0,006	0,020
-173,183	-23,206	-0,016	0,007
-172,169	168,080	-0,064	-0,067
-171,154	-111,416	0,105	-0,015
-170,139	700,253	0,078	-0,150
-169,125	27,001	-0,090	0,055
-168,110	470,265	0,023	0,038
-167,096	-200,000	0,042	0,185
-166,081	800,000	0,041	0,090
-165,066	-200,000	0,039	0,189
-164,052	-173,966	-0,084	0,002
-163,037	800,000	-0,029	0,094
-162,023	405,940	0,038	0,059
-161,008	14,500	0,062	-0,035
-159,993	-47,684	0,093	-0,033
-158,979	-65,517	-0,114	0,033
-157,964	13,529	-0,038	-0,022
-156,950	-7,937	-0,086	-0,042
-155,935	164,205	0,056	0,058
-154,920	-179,003	-0,072	-0,001
-153,906	-21,083	-0,029	0,013
-152,891	-200,000	-0,005	0,108
-151,877	800,000	-0,048	0,132
-150,862	-56,770	0,090	-0,029
-149,847	-169,741	0,093	0,002
-148,833	800,000	0,026	0,069
-147,818	-61,243	0,128	0,039
-146,804	345,816	0,041	-0,059
-145,789	-200,000	-0,003	0,129
-144,775	-200,000	0,011	-0,108
-143,760	260,319	0,033	-0,041
-142,745	-23,614	-0,097	-0,042
-141,731	-53,952	-0,090	0,030
-140,716	41,162	0,091	-0,060
-139,702	56,508	0,029	-0,020
-138,687	6,745	0,064	-0,034
-137,672	-200,000	0,018	-0,089
-136,658	178,456	0,014	0,014
-135,643	-128,463	-0,034	-0,003
-134,629	-101,648	-0,004	0,001
-133,614	306,267	0,080	-0,109
-132,599	-200,000	-0,001	0,050
-131,585	28,476	0,051	0,031
-130,570	800,000	0,011	-0,025
-129,556	675,615	-0,069	0,131
-128,541	800,000	-0,078	-0,182
-127,526	68,126	-0,065	-0,048
-126,512	-163,335	0,042	0,001
-125,497	162,758	-0,018	-0,019
-124,483	-116,328	0,065	-0,009
-123,468	-39,331	-0,042	0,016
-122,453	16,708	-0,107	-0,061
-121,439	800,000	-0,051	-0,151
-120,424	-200,000	0,021	0,084
-119,410	800,000	-0,077	0,170
-118,395	123,383	-0,022	0,020
-117,380	288,177	0,076	0,100
-116,366	800,000	-0,061	-0,176
-115,351	10,036	0,068	-0,038
-114,337	-37,345	0,060	0,023
-113,322	-18,209	0,129	-0,058
-112,307	-164,104	0,197	0,007
-111,293	-200,000	0,014	0,050
-110,278	-200,000	-0,002	0,055
-109,264	800,000	-0,038	0,095
-108,249	-29,971	0,109	-0,045
-107,234	-12,439	0,100	-0,047
-106,220	-200,000	0,019	-0,065
-105,205	-200,000	0,105	0,000
-104,191	164,470	0,123	-0,126
-103,176	-200,000	-0,012	0,088
-102,162	3,285	0,034	-0,018
-101,147	-27,892	-0,121	0,051
-100,132	291,896	-0,074	0,098
-99,118	391,305	0,032	0,048
-98,103	-200,000	-0,010	-0,190
-97,089	-52,097	0,069	-0,023
-96,074	-93,814	-0,123	-0,024
-95,059	72,141	0,075	-0,057
-94,045	800,000	0,013	0,037
-93,030	800,000	-0,062	-0,130
-92,016	800,000	-0,039	-0,097
-91,001	800,000	0,058	-0,146
-89,986	-200,000	0,009	-0,066
-88,972	-200,000	-0,013	0,117
-87,957	800,000	0,052	0,140
-86,943	261,386	0,009	-0,011
-85,928	229,879	-0,076	-0,091
-84,913	-52,263	-0,132	-0,044
-83,899	38,420	0,048	-0,031
-82,884	68,233	0,128	0,095
-81,870	-59,178	-0,114	0,035
-80,855	156,604	0,174	0,175
-79,840	-63,957	0,101	-0,030
-78,826	-200,000	-0,007	-0,185
-77,811	-200,000	-0,030	0,138
-76,797	-9,541	-0,011	-0,005
-75,782	255,141	0,059	0,074
-74,767	22,191	-0,036	-0,021
-73,753	800,000	-0,015	0,045
-72,738	800,000	0,061	0,157
-71,724	800,000	-0,005	0,013
-70,709	-200,000	0,049	0,000
-69,694	518,267	0,064	-0,109
-68,680	121,729	-0,156	0,141
-67,665	67,876	-0,102	-0,076
-66,651	-200,000	-0,010	0,084
-65,636	800,000	0,045	0,117
-64,622	139,357	-0,044	-0,042
-63,607	-200,000	0,048	-0,210
-62,592	36,914	-0,026	-0,017
-61,578	-194,208	-0,145	-0,001
-60,563	-200,000	-0,003	-0,127
-59,549	144,714	-0,011	-0,011
-58,534	-145,481	-1,276	-0,082
-57,519	494,234	-0,917	-1,533
-56,505	-200,000	-0,993	-4,422
-55,490	39,573	0,562	-0,365
-54,476	800,000	4,943	11,748
-53,461	-200,000	13,530	253,470
-52,446	-200,000	689,679	2260,105
-51,432	591,541	1622,200	2917,567
-50,417	119,363	1634,969	1468,255
-49,403	73,269	1289,108	977,398
-48,388	38,082	1024,349	659,873
-47,373	24,393	981,764	587,429
-46,359	23,570	971,522	578,577
-45,344	22,594	967,400	572,909
-44,330	22,564	965,752	571,815
-43,315	22,461	964,327	570,613
-42,300	22,375	963,320	569,712
-41,286	22,393	962,548	569,293
-40,271	22,402	961,537	568,701
-39,257	22,415	960,466	568,088
-38,242	22,346	959,561	567,307
-37,227	22,417	958,904	567,125
-36,213	22,423	957,698	566,408
-35,198	22,366	956,991	565,784
-34,184	22,443	956,471	565,701
-33,169	22,356	955,514	564,834
-32,154	22,411	954,599	564,449
-31,140	22,456	953,655	564,013
-30,125	22,417	952,879	563,406
-29,111	22,428	952,121	562,969
-28,096	22,433	951,366	562,519
-27,082	22,409	950,782	562,072
-26,067	22,359	950,059	561,463
-25,052	22,354	949,373	561,018
-24,038	22,392	948,697	560,719
-23,023	22,480	947,900	560,506
-22,009	22,469	947,228	560,050
-20,994	22,394	946,772	559,522
-19,979	22,468	946,041	559,301
-18,965	22,419	945,381	558,734
-17,950	22,359	944,872	558,219
-16,936	22,324	944,228	557,704
-15,921	22,380	943,379	557,359
-14,906	22,341	942,726	556,827
-13,892	22,290	942,144	556,299
-12,877	22,287	941,543	555,914
-11,863	22,224	940,918	555,321
-10,848	22,248	940,247	554,979
-9,833	22,405	939,855	555,225
-8,819	22,391	939,357	554,865
-7,804	22,344	938,515	554,197
-6,790	22,304	937,913	553,691
-5,775	22,367	937,284	553,499
-4,760	22,321	936,757	553,018
-3,746	22,271	936,077	552,438
-2,731	22,201	935,453	551,826
-1,717	22,184	934,541	551,215
-0,702	22,113	934,083	550,698
0,313	21,915	933,494	550,558
1,327	25,116	931,451	559,368
2,342	34,832	795,959	503,871
3,356	32,752	451,571	282,703
4,371	1,890	293,757	153,120
5,386	-2,540	274,498	138,879
6,400	-4,204	268,872	134,477
7,415	-4,655	266,332	132,780
8,429	-4,533	265,210	132,321
9,444	-4,327	264,188	131,987
10,459	-4,595	263,575	131,426
11,473	-4,576	263,146	131,217
12,488	-4,712	262,670	130,844
13,502	-4,610	261,977	130,580
14,517	-4,773	261,597	130,232
15,531	-4,565	261,088	130,154
16,546	-4,677	260,842	129,919
17,561	-4,743	260,442	129,649
18,575	-4,489	260,034	129,662
19,590	-4,665	259,842	129,397
20,604	-4,661	259,513	129,225
21,619	-4,879	259,166	128,847
22,634	-4,639	258,769	128,851
23,648	-4,802	258,446	128,534
24,663	-4,666	258,200	128,521
25,677	-4,731	258,001	128,353
26,692	-4,575	257,694	128,327
27,707	-4,783	257,530	128,050
28,721	-4,742	257,303	127,961
29,736	-4,903	257,054	127,684
30,750	-4,723	256,762	127,687
31,765	-4,721	256,541	127,567
32,780	-4,856	256,369	127,351
33,794	-4,667	256,092	127,368
34,809	-4,580	255,805	127,291
35,823	-4,723	255,610	127,057
36,838	-4,794	255,266	126,813
37,853	-4,842	255,145	126,699
38,867	-4,842	254,860	126,546
39,882	-4,723	254,614	126,517
40,896	-4,802	254,587	126,423
41,911	-4,991	254,331	126,119
42,926	-4,885	254,026	126,049
43,940	-4,909	253,767	125,888
44,955	-4,916	253,467	125,723
45,969	-5,069	253,237	125,464
46,984	-5,143	253,175	125,357
47,999	-5,352	252,696	124,927
49,013	-5,497	252,648	124,766
50,028	-5,679	252,183	124,368
51,042	-5,624	252,030	124,329
52,057	-5,663	251,877	124,209
53,071	-5,879	251,741	123,943
54,086	-5,550	251,468	124,082
55,101	-5,456	251,399	124,119
56,115	-5,224	251,119	124,170
57,130	-4,852	251,140	124,491
58,144	-4,627	251,021	124,614
59,159	-4,577	250,680	124,477
60,174	-4,447	250,519	124,497
61,188	-4,771	250,337	124,117
62,203	-4,617	250,087	124,114
63,217	-4,632	249,787	123,942
64,232	-4,677	249,765	123,881
65,247	-4,515	249,333	123,794
66,261	-4,585	249,234	123,674
67,276	-5,018	249,146	123,250
68,290	-5,112	248,600	122,888
69,305	-5,309	248,502	122,660
70,320	-5,161	248,364	122,707
71,334	-5,060	248,331	122,767
72,349	-4,616	248,071	123,006
73,363	-4,579	247,857	122,920
74,378	-4,736	247,796	122,745
75,393	-4,604	247,592	122,745
76,407	-4,774	247,256	122,423
77,422	-4,851	247,210	122,324
78,436	-4,728	246,870	122,249
79,451	-4,621	246,681	122,235
80,466	-4,670	246,355	122,022
81,480	-5,005	246,169	121,636
82,495	-4,982	246,031	121,576
83,509	-4,967	245,732	121,430
84,524	-4,935	245,739	121,449
85,539	-5,187	245,479	121,098
86,553	-5,097	245,229	121,040
87,568	-5,182	245,284	120,985
88,582	-4,888	244,722	120,943
89,597	-5,117	244,695	120,727
90,611	-4,942	244,647	120,839
91,626	-4,681	244,286	120,869
92,641	-4,904	244,365	120,711
93,655	-4,789	244,061	120,645
94,670	-4,991	243,889	120,380
95,684	-4,892	243,735	120,378
96,699	-4,671	243,412	120,391
97,714	-4,998	243,245	120,025
98,728	-4,956	243,119	119,988
99,743	-5,206	242,994	119,707
100,757	-5,140	242,592	119,553
101,772	-5,216	242,447	119,408
102,787	-5,081	242,277	119,425
103,801	-4,695	242,085	119,640
104,816	-4,876	242,090	119,482
105,830	-4,767	241,909	119,472
106,845	-4,907	241,813	119,298
107,860	-4,633	241,435	119,328
108,874	-4,804	241,131	119,025
109,889	-5,048	241,189	118,842
110,903	-4,853	240,875	118,837
111,918	-5,016	240,707	118,610
112,933	-4,908	240,554	118,612
113,947	-4,763	240,291	118,592
114,962	-4,737	240,324	118,618
115,976	-5,080	240,207	118,268
116,991	-4,699	239,898	118,418
118,006	-4,692	239,603	118,268
119,020	-4,588	239,460	118,272
120,035	-4,712	239,666	118,262
121,049	-4,822	239,312	117,987
122,064	-4,771	239,174	117,950
123,079	-4,877	238,922	117,728
124,093	-4,971	238,723	117,543
125,108	-4,865	238,533	117,525
126,122	-5,233	238,393	117,146
127,137	-5,101	238,210	117,153
128,151	-5,285	238,028	116,904
129,166	-5,061	237,930	117,027
130,181	-5,151	237,578	116,770
131,195	-4,968	237,340	116,791
132,210	-5,032	237,324	116,721
133,224	-4,806	237,111	116,790
134,239	-4,895	236,966	116,635
135,254	-4,880	236,844	116,577
136,268	-5,023	236,638	116,349
137,283	-5,179	236,372	116,082
138,297	-5,375	236,087	115,774
139,312	-5,350	236,036	115,759
140,327	-5,078	235,967	115,934
141,341	-4,445	235,928	116,414
142,356	-4,565	235,784	116,236
143,370	-4,473	235,743	116,280
144,385	-4,466	235,400	116,105
145,400	-4,377	235,290	116,112
146,414	-4,316	234,992	116,004
147,429	-4,382	234,886	115,888
148,443	-4,470	234,666	115,699
149,458	-4,480	234,635	115,665
150,473	-4,603	234,490	115,485
151,487	-4,508	234,284	115,449
152,502	-4,659	234,106	115,231
153,516	-4,419	233,898	115,309
154,531	-4,488	233,774	115,183
155,546	-4,521	233,693	115,107
156,560	-4,705	233,400	114,806
157,575	-4,768	233,171	114,633
158,589	-4,624	232,960	114,633
159,604	-4,401	232,848	114,745
160,619	-4,351	232,710	114,706
161,633	-4,464	232,592	114,548
162,648	-4,422	232,514	114,533
163,662	-4,516	232,266	114,326
164,677	-4,652	232,157	114,155
165,692	-4,489	232,102	114,246
166,706	-4,429	231,892	114,180
167,721	-4,308	231,710	114,176
168,735	-4,209	231,631	114,205
169,750	-4,588	231,578	113,870
170,764	-4,313	231,307	113,943
171,779	-4,521	231,154	113,694
172,794	-4,413	230,969	113,677
173,808	-4,416	230,822	113,592
174,823	-4,993	230,412	112,928
175,837	-5,061	230,099	112,712
176,852	-4,570	230,108	113,091
177,867	-4,426	230,116	113,196
178,881	-4,406	230,059	113,174
179,896	-4,394	229,958	113,124
180,910	-4,476	229,589	112,868
181,925	-4,318	229,475	112,925
182,940	-4,276	229,391	112,906
183,954	-4,111	229,203	112,932
184,969	-4,435	229,128	112,634
185,983	-4,287	229,032	112,692
186,998	-4,341	228,780	112,515
188,013	-4,235	228,576	112,488
189,027	-4,312	228,533	112,396
190,042	-4,123	228,288	112,412
191,056	-4,152	228,078	112,276
192,071	-4,226	227,943	112,143
193,086	-4,303	227,849	112,027
194,100	-4,227	227,721	112,013
195,115	-4,543	227,458	111,629
196,129	-5,238	227,212	110,962
197,144	-2,205	228,035	113,701
198,159	1,864	229,117	117,387
199,173	4,060	229,666	119,362
200,188	4,327	229,713	119,583
201,202	4,433	229,484	119,535
202,217	4,301	229,483	119,422
203,232	4,700	229,193	119,568
204,246	4,817	229,100	119,600
205,261	4,705	229,049	119,476
206,275	4,924	228,996	119,607
207,290	4,806	228,785	119,395
208,304	4,792	228,664	119,311
209,319	4,864	228,381	119,207
210,334	4,928	228,203	119,153
211,348	4,565	227,976	118,745
212,363	4,185	227,865	118,385
213,377	3,879	227,505	117,952
214,392	3,869	227,383	117,871
215,407	4,009	227,296	117,923
216,421	4,394	227,181	118,148
217,436	4,318	226,804	117,883
218,450	3,605	226,749	117,299
219,465	3,590	226,642	117,221
220,480	3,845	226,429	117,295
221,494	3,878	226,431	117,311
222,509	4,039	226,271	117,341
223,523	4,137	225,981	117,254
224,538	4,044	225,854	117,108
225,553	4,146	225,730	117,110
226,567	4,193	225,682	117,110
227,582	4,289	225,702	117,183
228,596	4,300	225,630	117,144
229,611	4,268	225,338	116,958
230,626	3,912	225,030	116,517
231,640	3,940	224,790	116,404
232,655	4,161	224,798	116,565
233,669	4,529	224,860	116,866
234,684	4,651	224,702	116,865
235,699	4,584	224,442	116,669
236,713	4,174	224,158	116,201
237,728	4,085	223,954	116,018
238,742	4,132	223,686	115,905
239,757	3,924	223,658	115,724
240,772	4,265	223,383	115,827
241,786	4,027	223,383	115,637
242,801	4,233	223,279	115,728
243,815	4,352	223,259	115,797
244,830	4,246	223,201	115,677
245,844	4,120	222,943	115,439
246,859	4,240	222,745	115,415
247,874	4,315	222,609	115,391
248,888	4,485	222,453	115,427
249,903	4,242	222,293	115,152
250,917	4,039	222,144	114,913
251,932	4,047	222,134	114,903
252,947	4,086	221,858	114,779
253,961	4,032	221,710	114,653
254,976	4,042	221,499	114,541
255,990	4,274	221,363	114,633
257,005	4,191	221,311	114,534
258,020	4,230	221,202	114,496
259,034	4,386	221,134	114,567
260,049	4,366	220,897	114,418
261,063	4,082	220,852	114,174
262,078	4,401	220,689	114,317
263,093	4,460	220,543	114,274
264,107	4,372	220,364	114,106
265,122	4,436	220,218	114,068
266,136	4,498	220,111	114,048
267,151	4,547	219,961	113,996
268,166	4,231	219,804	113,672
269,180	3,773	219,610	113,224
270,195	3,863	219,332	113,137
271,209	3,915	219,135	113,063
272,224	4,078	219,097	113,153
273,239	4,244	218,978	113,203
274,253	4,150	218,733	112,998
275,268	3,794	218,717	112,719
276,282	3,800	218,459	112,580
277,297	3,714	218,318	112,434
278,312	3,806	218,308	112,487
279,326	3,871	218,185	112,461
280,341	4,127	217,897	112,489
281,355	4,246	217,779	112,505
282,370	4,120	217,781	112,404
283,384	4,111	217,522	112,254
284,399	3,999	217,430	112,115
285,414	3,684	217,205	111,759
286,428	4,036	217,080	111,941
287,443	4,369	217,090	112,178
288,457	4,126	216,979	111,934
289,472	4,135	216,715	111,795
290,487	3,737	216,430	111,349
291,501	3,609	216,268	111,163
292,516	3,733	216,284	111,252
293,530	3,947	216,159	111,332
294,545	3,735	215,938	111,055
295,560	3,834	215,908	111,101
296,574	4,155	215,735	111,234
297,589	4,103	215,639	111,137
298,603	4,045	215,516	111,022
299,618	4,138	215,289	110,962
300,633	4,375	215,150	111,051
301,647	4,355	215,129	111,016
302,662	4,006	215,107	110,744
303,676	4,209	214,912	110,779
304,691	4,192	214,807	110,703
305,706	4,282	214,669	110,687
306,720	4,301	214,520	110,614
307,735	3,931	214,470	110,313
308,749	3,866	214,240	110,138
309,764	4,136	214,086	110,242
310,779	4,518	213,883	110,401
311,793	3,909	213,871	109,950
312,808	4,343	213,509	110,064
313,822	4,255	213,454	109,963
314,837	4,140	213,337	109,811
315,852	3,883	213,185	109,539
316,866	3,992	213,101	109,564
317,881	4,362	213,014	109,773
318,895	4,325	212,817	109,635
319,910	4,000	212,753	109,362
320,925	3,745	212,462	109,021
321,939	3,655	212,160	108,793
322,954	3,574	212,189	108,740
323,968	4,173	212,168	109,145
324,983	4,163	211,969	109,025
325,997	4,354	211,987	109,160
327,012	3,957	211,774	108,760
328,027	4,042	211,685	108,764
329,041	4,349	211,650	108,954
330,056	4,696	211,408	109,064
331,070	4,182	211,178	108,574
332,085	3,755	210,966	108,154
333,100	3,793	211,008	108,193
334,114	4,147	210,827	108,339
335,129	4,035	210,661	108,166
336,143	4,045	210,529	108,096
337,158	4,062	210,257	107,959
338,173	4,086	210,235	107,954
339,187	3,949	209,988	107,722
340,202	3,879	209,959	107,649
341,216	3,726	209,815	107,457
342,231	3,919	209,655	107,501
343,246	3,857	209,517	107,377
344,260	3,813	209,385	107,269
345,275	4,202	209,316	107,496
346,289	4,113	209,228	107,379
347,304	4,359	209,012	107,430
348,319	3,874	208,924	107,038
349,333	3,914	208,908	107,048
350,348	4,296	208,681	107,187
351,362	4,205	208,561	107,053
352,377	4,022	208,502	106,886
353,392	4,089	208,364	106,852
354,406	4,181	208,226	106,836
355,421	193,793	1345,107	1433,292
356,435	154,618	1483,723	1433,417
