DTS Sentinel unit serial number:	SN410029Multiplexer serial number:	ORYXHardware model number:	OX2-SRSoftware version number:	ORYX F/W v4,00 Oryx Data Collector v3.7.2.0data status	okinstallation	B6 Nyhavnadifferential loss correction	single-endedforward channel	channel 2reverse channel	N/Adate	2023/12/11time	06:35:08forward acquisition time	300,00reverse acquisition time	0,00gamma	499,1914k internal	0,3126k external	0,3126temperature offset calibration	1,0000default loss term (dB/km)	0,3820temperature slope calibration	1,0000multiplexer offset coefficient	1,0000multiplexer slope coefficient	1,0000fibre end	0,00T internal ref (°C)	19,48T ext. ref 1 (°C)	2,65T ext. ref 2 (°C)	2,68length (m)	temperature (°C)	Stokes	anti-Stokes-744,400	-22,965	0,189	-0,084
-743,385	-56,571	-0,327	0,107
-742,371	-148,151	0,129	-0,008
-741,356	-101,235	-0,305	0,055
-740,342	-22,741	0,094	-0,042
-739,327	4,912	-0,191	0,104
-738,312	336,632	0,048	-0,069
-737,298	-200,000	-0,323	-0,001
-736,283	38,699	0,094	-0,062
-735,269	-35,118	-0,160	0,065
-734,254	227,179	0,032	0,039
-733,239	-62,840	-0,464	-0,142
-732,225	631,716	-0,013	-0,024
-731,210	-200,000	0,007	0,069
-730,196	165,057	-0,059	-0,062
-729,181	800,000	-0,031	-0,065
-728,167	-200,000	0,011	-0,044
-727,152	55,448	-0,145	-0,104
-726,137	229,142	0,081	0,099
-725,123	800,000	-0,018	-0,046
-724,108	81,391	-0,130	-0,104
-723,094	-200,000	-0,044	-0,161
-722,079	591,684	-0,065	-0,120
-721,064	-34,418	-0,087	-0,035
-720,050	27,191	0,044	0,027
-719,035	-41,400	0,043	-0,016
-718,021	-200,000	-0,009	0,054
-717,006	664,309	-0,060	-0,115
-715,991	-200,000	0,033	-0,207
-714,977	222,047	-0,048	-0,058
-713,962	-103,443	0,112	-0,019
-712,948	38,096	0,041	0,027
-711,933	800,000	0,033	-0,078
-710,918	-142,492	0,061	0,004
-709,904	-200,000	-0,025	-0,162
-708,889	69,736	-0,100	-0,077
-707,875	-200,000	-0,006	-0,050
-706,860	800,000	-0,013	-0,034
-705,845	-200,000	-0,004	0,034
-704,831	-200,000	-0,004	0,042
-703,816	362,459	-0,080	-0,119
-702,802	-200,000	-0,016	0,081
-701,787	800,000	-0,056	-0,118
-700,772	-200,000	0,030	0,154
-699,758	-61,894	-0,099	0,031
-698,743	93,764	-0,042	0,035
-697,729	53,267	0,117	0,083
-696,714	-200,000	-0,017	0,093
-695,699	-61,307	-0,063	0,020
-694,685	-200,000	-0,016	-0,093
-693,670	-200,000	-0,014	0,109
-692,656	-200,000	0,000	-0,075
-691,641	800,000	0,032	-0,096
-690,627	-179,122	0,029	0,000
-689,612	194,136	-0,113	0,127
-688,597	-200,000	0,019	0,120
-687,583	236,446	-0,110	-0,136
-686,568	384,712	0,053	-0,082
-685,554	-141,410	0,057	0,004
-684,539	187,000	0,105	0,116
-683,524	470,498	-0,032	-0,054
-682,510	243,057	-0,043	0,054
-681,495	150,653	-0,037	-0,037
-680,481	800,000	0,042	-0,101
-679,466	-137,698	0,065	-0,005
-678,451	-101,155	-0,186	0,034
-677,437	-200,000	-0,003	-0,012
-676,422	-200,000	0,017	-0,070
-675,408	41,683	-0,062	0,042
-674,393	345,511	-0,057	-0,083
-673,378	-200,000	0,031	-0,135
-672,364	-200,000	0,005	0,020
-671,349	800,000	-0,058	-0,124
-670,335	-74,164	0,074	-0,020
-669,320	800,000	-0,033	0,069
-668,305	65,790	-0,191	0,144
-667,291	361,676	-0,086	-0,128
-666,276	-200,000	0,046	-0,175
-665,262	69,456	-0,125	0,095
-664,247	158,115	-0,086	-0,089
-663,232	224,200	0,069	-0,083
-662,218	800,000	-0,033	-0,094
-661,203	-97,766	0,143	0,027
-660,189	800,000	0,024	-0,067
-659,174	162,230	-0,094	0,098
-658,159	-200,000	-0,224	-0,001
-657,145	144,789	-0,023	-0,023
-656,130	-200,000	0,045	0,204
-655,116	372,528	-0,006	0,008
-654,101	666,395	-0,034	-0,066
-653,086	-63,048	-0,130	0,040
-652,072	47,523	-0,012	-0,008
-651,057	-200,000	0,002	-0,017
-650,043	-200,000	0,003	-0,026
-649,028	800,000	0,018	0,042
-648,014	35,534	-0,035	-0,023
-646,999	96,537	-0,043	-0,037
-645,984	-200,000	0,031	0,170
-644,970	-7,021	-0,109	-0,055
-643,955	-0,220	0,101	-0,053
-642,941	506,671	-0,091	-0,158
-641,926	694,319	-0,060	0,116
-640,911	-152,814	0,147	0,008
-639,897	-200,000	0,013	-0,095
-638,882	669,835	-0,038	0,073
-637,868	145,283	0,067	0,067
-636,853	-122,923	-0,142	-0,017
-635,838	800,000	-0,040	-0,113
-634,824	-51,772	-0,060	0,021
-633,809	-200,000	-0,023	0,123
-632,795	-200,000	0,013	-0,147
-631,780	-200,000	-0,020	0,118
-630,765	9,115	-0,104	0,058
-629,751	-21,182	-0,063	-0,028
-628,736	125,109	-0,145	-0,135
-627,722	24,061	-0,063	0,038
-626,707	741,339	-0,023	-0,046
-625,692	-84,897	0,072	0,017
-624,678	766,533	0,051	-0,103
-623,663	800,000	0,083	-0,189
-622,649	-84,242	0,058	-0,013
-621,634	-63,047	-0,130	-0,040
-620,619	17,705	0,032	-0,019
-619,605	-153,061	0,090	-0,005
-618,590	-118,487	0,074	0,010
-617,576	-200,000	0,004	0,104
-616,561	-35,547	0,080	0,032
-615,546	327,544	0,045	-0,064
-614,532	-90,179	-0,089	-0,019
-613,517	525,137	-0,037	-0,065
-612,503	58,138	0,143	-0,104
-611,488	-200,000	-0,019	-0,083
-610,474	83,703	-0,043	0,035
-609,459	-200,000	-0,030	0,143
-608,444	800,000	-0,062	-0,143
-607,430	-118,395	0,043	-0,006
-606,415	170,072	-0,092	-0,097
-605,401	-200,000	-0,037	-0,180
-604,386	91,541	0,072	0,060
-603,371	800,000	0,030	0,077
-602,357	113,912	0,045	0,041
-601,342	800,000	-0,043	-0,093
-600,328	-200,000	0,040	-0,136
-599,313	-57,729	0,044	0,014
-598,298	-149,777	-0,077	-0,004
-597,284	-168,600	-0,065	-0,002
-596,269	-200,000	0,014	-0,095
-595,255	146,044	-0,038	0,038
-594,240	344,147	0,055	-0,080
-593,225	-200,000	-0,023	-0,085
-592,211	81,582	0,034	0,027
-591,196	-134,106	-0,116	-0,010
-590,182	-200,000	0,019	-0,075
-589,167	800,000	0,029	0,081
-588,152	-48,317	-0,060	0,021
-587,138	-78,690	-0,086	0,022
-586,123	-138,329	-0,133	0,011
-585,109	-158,422	-0,055	0,002
-584,094	-200,000	-0,007	0,084
-583,079	379,181	-0,038	0,057
-582,065	-60,518	0,116	0,036
-581,050	748,068	0,009	0,018
-580,036	39,280	0,109	0,072
-579,021	-66,611	-0,098	-0,029
-578,006	412,079	-0,063	-0,099
-576,992	-200,000	-0,023	-0,085
-575,977	-200,000	0,009	0,136
-574,963	800,000	0,019	-0,047
-573,948	-35,129	-0,033	-0,013
-572,934	-85,117	0,039	0,009
-571,919	138,785	-0,069	0,067
-570,904	-110,261	0,087	0,013
-569,890	72,347	-0,040	0,031
-568,875	671,619	-0,047	0,091
-567,861	-200,000	-0,001	-0,009
-566,846	-43,402	-0,038	0,014
-565,831	-70,806	-0,090	0,025
-564,817	226,014	0,062	0,074
-563,802	157,112	-0,112	-0,115
-562,788	800,000	-0,058	-0,123
-561,773	-22,146	0,040	0,018
-560,758	800,000	-0,039	0,125
-559,744	-40,788	0,073	-0,028
-558,729	-200,000	0,008	0,102
-557,715	-200,000	0,000	-0,104
-556,700	98,071	-0,077	-0,065
-555,685	-200,000	0,024	0,080
-554,671	52,212	0,104	0,073
-553,656	-40,365	0,104	0,040
-552,642	-200,000	-0,008	-0,056
-551,627	272,304	-0,061	0,080
-550,612	-170,080	-0,070	-0,002
-549,598	174,832	-0,051	0,054
-548,583	-9,198	-0,134	0,066
-547,569	-103,148	0,071	0,012
-546,554	800,000	-0,059	-0,148
-545,539	127,334	0,123	0,116
-544,525	91,016	0,017	-0,014
-543,510	-129,377	-0,122	-0,012
-542,496	9,301	0,088	-0,049
-541,481	800,000	-0,060	-0,134
-540,466	-200,000	-0,002	0,117
-539,452	288,859	-0,064	0,085
-538,437	220,533	0,018	0,022
-537,423	-70,579	0,143	0,040
-536,408	-48,479	-0,084	-0,030
-535,393	-200,000	0,009	-0,069
-534,379	800,000	0,046	-0,126
-533,364	-200,000	0,016	-0,091
-532,350	14,832	0,095	-0,055
-531,335	800,000	-0,065	0,176
-530,321	389,625	-0,017	0,026
-529,306	-149,772	-0,116	0,007
-528,291	-102,870	0,149	-0,026
-527,277	148,722	-0,047	-0,047
-526,262	217,552	-0,069	0,082
-525,248	-153,517	0,063	0,003
-524,233	-24,735	0,098	0,043
-523,218	332,259	0,057	0,082
-522,204	-51,719	-0,059	0,020
-521,189	-32,214	-0,081	-0,033
-520,175	800,000	0,043	0,091
-519,160	180,312	-0,054	-0,059
-518,145	-115,458	-0,102	0,014
-517,131	31,077	-0,044	0,028
-516,116	-137,057	0,026	0,002
-515,102	262,537	-0,056	0,072
-514,087	-42,180	-0,095	-0,035
-513,072	-200,000	0,023	-0,114
-512,058	611,771	0,056	-0,105
-511,043	-77,336	0,044	-0,011
-510,029	-200,000	-0,012	-0,085
-509,014	-156,217	-0,141	-0,006
-507,999	511,650	-0,016	0,028
-506,985	221,887	-0,042	0,050
-505,970	482,232	-0,062	0,105
-504,956	34,345	0,054	-0,034
-503,941	97,693	0,024	0,021
-502,926	236,840	0,046	0,056
-501,912	-200,000	-0,000	0,021
-500,897	63,418	-0,017	0,013
-499,883	113,129	0,124	0,111
-498,868	-200,000	0,015	-0,080
-497,853	134,101	-0,110	-0,105
-496,839	67,959	0,106	-0,080
-495,824	800,000	0,037	0,085
-494,810	-145,224	0,103	-0,007
-493,795	596,908	0,020	0,037
-492,781	-104,956	-0,109	-0,018
-491,766	25,318	-0,105	-0,064
-490,751	-115,598	0,078	-0,011
-489,737	800,000	0,026	0,078
-488,722	800,000	0,019	0,052
-487,708	-60,829	-0,075	0,023
-486,693	-200,000	-0,018	0,061
-485,678	-125,607	0,214	0,024
-484,664	75,434	0,053	-0,041
-483,649	-200,000	-0,004	0,020
-482,635	-44,497	-0,093	-0,034
-481,620	800,000	0,033	0,094
-480,605	800,000	-0,043	0,109
-479,591	800,000	0,026	0,069
-478,576	-38,706	-0,113	0,044
-477,562	-98,622	0,011	-0,002
-476,547	800,000	-0,008	0,026
-475,532	-200,000	-0,037	-0,141
-474,518	-53,712	0,155	0,052
-473,503	483,138	-0,049	-0,082
-472,489	116,380	0,044	-0,040
-471,474	-35,075	-0,025	0,010
-470,459	-200,000	-0,009	0,066
-469,445	246,718	-0,107	-0,133
-468,430	505,142	0,037	-0,063
-467,416	629,436	-0,062	-0,117
-466,401	-200,000	0,029	-0,150
-465,386	-20,346	0,037	-0,017
-464,372	218,443	0,071	-0,083
-463,357	-109,580	-0,147	-0,023
-462,343	-200,000	0,001	0,147
-461,328	-2,788	-0,101	-0,052
-460,313	669,660	-0,042	0,080
-459,299	77,761	0,032	0,025
-458,284	178,613	0,078	-0,084
-457,270	-128,092	0,068	-0,007
-456,255	-200,000	-0,015	-0,050
-455,241	-13,641	-0,115	-0,055
-454,226	-70,367	-0,091	0,025
-453,211	-200,000	0,020	0,146
-452,197	68,956	0,062	0,047
-451,182	-119,083	0,194	0,025
-450,168	-164,564	0,117	0,004
-449,153	-200,000	-0,015	-0,096
-448,138	-200,000	0,008	-0,076
-447,124	-200,000	-0,002	-0,040
-446,109	-88,838	0,056	-0,012
-445,095	12,341	0,049	-0,028
-444,080	85,087	0,152	0,122
-443,065	800,000	-0,034	-0,104
-442,051	-200,000	0,016	-0,060
-441,036	36,996	0,084	-0,054
-440,022	-90,047	-0,069	-0,015
-439,007	800,000	-0,019	0,057
-437,992	-200,000	-0,016	0,064
-436,978	-24,618	-0,041	0,018
-435,963	206,664	0,021	0,024
-434,949	-200,000	0,004	-0,079
-433,934	800,000	-0,031	-0,073
-432,919	-84,801	-0,108	-0,025
-431,905	-19,964	0,143	-0,065
-430,890	163,562	0,058	-0,060
-429,876	3,417	0,018	-0,010
-428,861	-200,000	-0,001	0,070
-427,846	355,949	0,010	0,015
-426,832	800,000	0,038	-0,092
-425,817	800,000	0,057	-0,166
-424,803	-200,000	0,009	-0,065
-423,788	291,519	0,034	0,045
-422,773	-200,000	-0,001	0,003
-421,759	152,720	-0,099	0,099
-420,744	-101,878	0,072	-0,013
-419,730	-200,000	0,024	-0,099
-418,715	625,248	0,055	-0,102
-417,701	88,557	0,083	-0,068
-416,686	-121,997	0,078	-0,009
-415,671	-88,204	0,145	0,032
-414,657	6,184	-0,037	-0,020
-413,642	-200,000	0,008	-0,088
-412,628	-200,000	0,006	0,047
-411,613	148,668	-0,065	-0,064
-410,598	544,280	0,078	-0,137
-409,584	800,000	0,040	-0,092
-408,569	-200,000	0,017	-0,109
-407,555	-200,000	0,008	0,094
-406,540	-176,251	0,088	0,002
-405,525	-71,076	-0,034	0,009
-404,511	-114,226	-0,134	0,019
-403,496	398,317	-0,042	0,064
-402,482	-0,295	-0,086	0,045
-401,467	-70,956	0,058	-0,016
-400,452	236,327	0,038	0,046
-399,438	-75,940	0,062	0,016
-398,423	128,644	-0,041	0,039
-397,409	-120,800	-0,097	0,012
-396,394	29,465	0,066	-0,041
-395,379	115,894	-0,112	0,101
-394,365	-30,755	0,075	-0,031
-393,350	16,498	0,120	-0,069
-392,336	-200,000	0,007	-0,028
-391,321	-25,687	-0,079	-0,034
-390,306	188,395	-0,045	-0,049
-389,292	-200,000	-0,033	0,135
-388,277	46,611	-0,069	0,047
-387,263	-69,561	0,120	0,034
-386,248	6,564	0,113	-0,062
-385,233	232,143	0,058	0,069
-384,219	142,577	0,149	0,145
-383,204	434,554	-0,065	-0,104
-382,190	-120,015	0,181	0,022
-381,175	666,212	-0,055	-0,104
-380,160	43,732	0,101	0,068
-379,146	800,000	0,056	0,120
-378,131	-81,020	-0,061	-0,015
-377,117	-200,000	-0,001	0,039
-376,102	-200,000	0,026	-0,176
-375,088	254,249	0,055	0,069
-374,073	185,425	-0,118	0,129
-373,058	-200,000	-0,010	0,105
-372,044	93,106	0,075	0,063
-371,029	-126,443	-0,117	0,013
-370,015	323,537	-0,043	-0,060
-369,000	-21,239	0,053	-0,024
-367,985	23,970	-0,109	-0,066
-366,971	131,991	-0,104	0,098
-365,956	376,712	-0,014	-0,020
-364,942	800,000	0,060	0,147
-363,927	800,000	-0,037	0,104
-362,912	94,069	0,100	0,083
-361,898	-63,103	-0,074	-0,022
-360,883	-143,569	-0,051	-0,004
-359,869	800,000	0,005	-0,011
-358,854	-91,137	-0,115	0,024
-357,839	-157,511	0,117	-0,005
-356,825	-200,000	0,003	0,031
-355,810	800,000	-0,050	0,159
-354,796	254,830	-0,077	-0,096
-353,781	36,555	-0,044	0,028
-352,766	-200,000	0,008	0,067
-351,752	-118,411	0,081	-0,010
-350,737	227,223	0,093	0,111
-349,723	800,000	-0,059	0,179
-348,708	-84,189	-0,039	0,009
-347,693	584,202	0,007	-0,013
-346,679	-200,000	0,002	-0,137
-345,664	-200,000	-0,004	-0,119
-344,650	133,845	-0,027	-0,026
-343,635	-200,000	0,010	0,139
-342,620	-200,000	-0,008	0,091
-341,606	-200,000	0,026	0,165
-340,591	-130,337	-0,026	0,003
-339,577	-200,000	-0,008	-0,101
-338,562	-110,505	-0,089	0,013
-337,548	376,599	0,096	0,144
-336,533	207,721	-0,042	-0,048
-335,518	-46,476	0,032	-0,011
-334,504	-200,000	-0,004	0,172
-333,489	270,976	0,065	0,084
-332,475	128,087	-0,137	0,128
-331,460	136,984	0,069	-0,066
-330,445	-165,559	-0,081	0,003
-329,431	-32,051	0,025	-0,010
-328,416	-91,463	0,062	-0,013
-327,402	-63,314	0,047	0,014
-326,387	256,533	-0,112	0,142
-325,372	-73,553	0,058	-0,016
-324,358	-200,000	-0,060	-0,211
-323,343	-51,279	0,021	0,007
-322,329	204,521	-0,076	-0,087
-321,314	448,202	0,020	0,032
-320,299	168,780	0,035	-0,037
-319,285	800,000	-0,017	-0,040
-318,270	-94,576	-0,135	-0,027
-317,256	-4,114	0,030	0,015
-316,241	-200,000	0,008	0,056
-315,226	-200,000	-0,008	-0,043
-314,212	-200,000	-0,010	0,048
-313,197	-36,257	0,169	-0,066
-312,183	-200,000	0,000	-0,110
-311,168	729,593	-0,008	0,016
-310,153	-125,251	-0,064	-0,007
-309,139	-200,000	0,013	-0,112
-308,124	-200,000	-0,014	0,092
-307,110	-94,819	-0,074	-0,015
-306,095	800,000	0,020	0,046
-305,080	181,712	0,082	0,088
-304,066	-137,178	-0,062	0,005
-303,051	156,042	0,062	0,063
-302,037	385,671	-0,060	-0,091
-301,022	-200,000	-0,010	0,045
-300,008	199,643	-0,060	-0,068
-298,993	-200,000	-0,002	0,039
-297,978	-157,900	-0,063	-0,003
-296,964	800,000	-0,046	-0,111
-295,949	-72,829	-0,064	-0,017
-294,935	-200,000	-0,000	0,026
-293,920	800,000	-0,037	-0,086
-292,905	-200,000	-0,019	0,068
-291,891	800,000	0,010	0,028
-290,876	-86,581	-0,176	-0,039
-289,862	-15,271	0,063	-0,030
-288,847	-200,000	-0,038	-0,184
-287,832	82,779	0,074	-0,059
-286,818	131,128	-0,039	-0,037
-285,803	800,000	0,056	0,117
-284,789	251,502	0,052	0,065
-283,774	-200,000	0,030	-0,142
-282,759	110,146	-0,065	0,057
-281,745	-127,035	-0,082	0,009
-280,730	-200,000	-0,030	-0,199
-279,716	-87,274	-0,046	-0,010
-278,701	-200,000	0,010	0,095
-277,686	800,000	0,032	-0,071
-276,672	-200,000	0,017	-0,059
-275,657	-200,000	0,046	-0,164
-274,643	800,000	-0,031	-0,070
-273,628	-96,928	-0,139	0,026
-272,613	-200,000	-0,026	0,094
-271,599	-128,888	0,150	0,015
-270,584	175,696	-0,063	0,067
-269,570	800,000	0,045	0,093
-268,555	182,951	-0,052	0,056
-267,540	-73,715	-0,033	-0,009
-266,526	800,000	-0,020	-0,057
-265,511	-200,000	-0,008	-0,060
-264,497	-139,444	-0,066	0,005
-263,482	54,340	0,096	-0,067
-262,467	-73,921	-0,062	0,016
-261,453	-71,167	0,080	0,022
-260,438	800,000	0,039	-0,084
-259,424	-200,000	0,003	0,049
-258,409	-200,000	-0,014	0,054
-257,395	-200,000	-0,002	-0,021
-256,380	-50,308	0,027	-0,009
-255,365	-53,319	0,090	0,030
-254,351	800,000	-0,052	0,111
-253,336	-200,000	-0,024	0,118
-252,322	577,840	0,046	-0,083
-251,307	-88,919	-0,054	-0,012
-250,292	-200,000	0,016	0,105
-249,278	210,268	0,154	0,177
-248,263	501,738	-0,095	0,162
-247,249	-200,000	-0,014	0,153
-246,234	-200,000	0,002	0,042
-245,219	619,775	-0,083	-0,153
-244,205	-200,000	0,004	-0,075
-243,190	245,029	0,026	0,032
-242,176	-200,000	-0,004	-0,121
-241,161	134,283	-0,058	-0,055
-240,146	-56,712	-0,094	0,030
-239,132	-26,337	-0,057	-0,024
-238,117	-200,000	0,002	-0,054
-237,103	-134,084	-0,072	0,006
-236,088	-29,090	0,013	-0,005
-235,073	-200,000	-0,001	0,046
-234,059	-16,584	0,144	0,066
-233,044	-32,120	0,107	-0,043
-232,030	-200,000	-0,014	0,129
-231,015	800,000	-0,035	0,081
-230,000	-64,749	0,139	0,041
-228,986	-35,169	-0,125	0,050
-227,971	-132,568	0,144	0,013
-226,957	-200,000	0,043	0,238
-225,942	352,024	-0,052	-0,076
-224,927	384,831	0,034	-0,051
-223,913	800,000	-0,046	-0,109
-222,898	800,000	0,061	-0,179
-221,884	378,311	0,060	0,090
-220,869	115,857	0,050	-0,044
-219,855	-144,215	0,163	0,011
-218,840	-114,921	0,114	-0,016
-217,825	-63,843	-0,078	-0,023
-216,811	43,510	0,025	0,017
-215,796	-9,315	-0,154	0,075
-214,782	-115,977	0,076	0,010
-213,767	201,314	0,049	0,055
-212,752	370,462	0,069	0,103
-211,738	61,023	-0,073	-0,053
-210,723	-123,359	0,120	-0,014
-209,709	-135,778	0,126	-0,011
-208,694	800,000	-0,054	0,109
-207,679	168,337	0,041	0,042
-206,665	800,000	-0,006	0,016
-205,650	418,304	-0,035	0,055
-204,636	-45,938	0,068	0,024
-203,621	-200,000	0,009	0,079
-202,606	383,687	-0,040	0,061
-201,592	-200,000	-0,003	-0,016
-200,577	-134,463	0,055	-0,005
-199,563	800,000	0,022	0,053
-198,548	92,483	0,094	0,077
-197,533	-200,000	0,016	-0,198
-196,519	800,000	-0,033	0,106
-195,504	-55,991	-0,118	0,038
-194,490	-8,779	-0,044	0,021
-193,475	61,605	0,068	0,049
-192,460	776,500	-0,089	-0,179
-191,446	-200,000	-0,001	-0,058
-190,431	110,308	0,057	-0,050
-189,417	-68,380	0,126	0,035
-188,402	74,324	0,032	-0,025
-187,387	540,722	-0,022	-0,038
-186,373	522,746	-0,031	-0,053
-185,358	-101,011	-0,101	0,018
-184,344	-54,597	0,084	-0,027
-183,329	-200,000	0,024	0,139
-182,315	800,000	0,014	0,032
-181,300	800,000	-0,049	0,156
-180,285	-200,000	-0,003	-0,138
-179,271	-24,668	-0,102	-0,044
-178,256	-92,677	-0,107	0,022
-177,242	154,351	0,151	0,151
-176,227	-155,182	0,110	-0,005
-175,212	96,896	-0,075	-0,063
-174,198	-200,000	0,029	-0,099
-173,183	793,525	0,067	-0,134
-172,169	-200,000	0,004	-0,043
-171,154	414,113	-0,086	-0,133
-170,139	35,971	0,082	0,052
-169,125	316,148	0,050	0,068
-168,110	80,103	0,132	0,103
-167,096	318,158	0,067	-0,093
-166,081	-36,508	-0,124	-0,048
-165,066	419,704	-0,134	-0,209
-164,052	-200,000	0,000	-0,002
-163,037	-200,000	0,018	-0,077
-162,023	-82,355	-0,078	0,018
-161,008	306,298	0,046	0,063
-159,993	-200,000	-0,017	0,137
-158,979	159,190	-0,084	-0,085
-157,964	-200,000	-0,007	-0,099
-156,950	-43,215	-0,065	0,024
-155,935	32,447	0,097	0,061
-154,920	207,375	0,059	0,067
-153,906	800,000	0,006	-0,012
-152,891	800,000	-0,017	0,037
-151,877	-45,564	-0,103	-0,037
-150,862	95,609	0,050	-0,042
-149,847	-200,000	-0,008	-0,105
-148,833	-153,564	0,060	-0,003
-147,818	-133,253	-0,097	0,009
-146,804	335,175	-0,045	-0,064
-145,789	-200,000	0,011	-0,045
-144,775	71,175	-0,129	0,098
-143,760	4,581	0,203	0,108
-142,745	167,906	-0,106	-0,110
-141,731	245,441	-0,066	0,081
-140,716	800,000	0,051	0,122
-139,702	53,991	0,154	0,108
-138,687	-53,067	-0,096	0,032
-137,672	-96,205	0,076	0,015
-136,658	-142,546	0,135	-0,009
-135,643	-200,000	0,004	-0,063
-134,629	95,049	-0,027	0,022
-133,614	27,191	0,011	-0,006
-132,599	61,970	-0,155	0,112
-131,585	800,000	0,008	0,024
-130,570	498,361	-0,051	-0,086
-129,556	48,474	0,011	-0,008
-128,541	-127,013	-0,196	-0,021
-127,526	-166,429	0,205	-0,006
-126,512	-200,000	0,014	-0,062
-125,497	-88,210	0,143	0,031
-124,483	-140,384	0,118	-0,009
-123,468	101,820	-0,061	-0,051
-122,453	800,000	-0,064	-0,154
-121,439	778,196	-0,050	-0,100
-120,424	361,022	0,048	-0,071
-119,410	-50,455	0,103	0,035
-118,395	800,000	0,007	-0,023
-117,380	-98,099	-0,053	0,010
-116,366	-45,920	0,093	0,033
-115,351	12,456	0,034	-0,019
-114,337	-6,010	-0,036	-0,018
-113,322	404,066	0,059	0,090
-112,307	194,252	-0,076	0,083
-111,293	69,532	-0,108	0,081
-110,278	-200,000	-0,019	0,085
-109,264	252,388	0,014	0,017
-108,249	800,000	0,046	0,102
-107,234	-50,359	-0,118	0,040
-106,220	-200,000	0,014	-0,174
-105,205	-79,548	-0,101	-0,025
-104,191	309,115	0,029	-0,039
-103,176	112,108	0,024	-0,021
-102,162	-200,000	0,008	0,068
-101,147	-200,000	-0,032	-0,115
-100,132	362,370	-0,051	-0,075
-99,118	-200,000	0,005	-0,037
-98,103	800,000	-0,019	-0,043
-97,089	2,396	0,056	0,030
-96,074	-200,000	-0,018	0,121
-95,059	-67,208	-0,121	0,034
-94,045	-110,219	-0,145	0,022
-93,030	-200,000	0,026	0,085
-92,016	169,807	-0,148	-0,154
-91,001	-55,948	0,174	-0,056
-89,986	245,889	0,055	0,067
-88,972	33,197	0,072	0,045
-87,957	-200,000	0,026	0,109
-86,943	117,033	-0,115	0,103
-85,928	-200,000	-0,010	0,035
-84,913	-5,301	-0,073	-0,036
-83,899	125,238	0,031	0,028
-82,884	-200,000	-0,000	-0,062
-81,870	175,556	0,068	0,072
-80,855	800,000	0,012	0,029
-79,840	-42,248	-0,041	0,015
-78,826	-200,000	-0,009	0,044
-77,811	182,808	-0,078	-0,084
-76,797	-63,234	0,069	-0,020
-75,782	45,608	-0,014	-0,009
-74,767	101,704	0,006	0,005
-73,753	-200,000	0,011	-0,092
-72,738	800,000	0,043	-0,108
-71,724	-88,469	-0,103	-0,022
-70,709	800,000	0,015	0,041
-69,694	-200,000	0,008	-0,126
-68,680	129,823	0,087	-0,081
-67,665	-200,000	-0,029	0,104
-66,651	-84,499	-0,054	-0,012
-65,636	800,000	0,057	-0,155
-64,622	-200,000	-0,005	0,042
-63,607	281,010	-0,023	-0,030
-62,592	-200,000	-0,016	0,082
-61,578	-58,588	0,117	0,037
-60,563	-32,387	-0,022	-0,009
-59,549	-10,805	0,062	0,030
-58,534	-51,615	-1,607	-0,541
-57,519	800,000	-0,578	-1,439
-56,505	-200,000	-1,080	-4,663
-55,490	-181,793	0,656	0,009
-54,476	800,000	5,289	12,092
-53,461	-200,000	15,141	271,224
-52,446	-200,000	694,424	2249,842
-51,432	580,570	1615,209	2880,957
-50,417	121,465	1625,640	1468,494
-49,403	81,968	1283,743	1007,405
-48,388	37,507	1024,680	657,544
-47,373	22,244	985,639	582,075
-46,359	21,212	974,385	572,005
-45,344	19,703	970,274	564,616
-44,330	19,765	969,077	564,099
-43,315	19,521	967,515	562,368
-42,300	19,505	966,494	561,699
-41,286	19,647	965,170	561,373
-40,271	19,547	964,255	560,490
-39,257	19,572	963,472	560,094
-38,242	19,591	962,622	559,641
-37,227	19,624	961,775	559,234
-36,213	19,493	961,077	558,378
-35,198	19,415	960,256	557,628
-34,184	19,558	959,460	557,606
-33,169	19,433	958,544	556,646
-32,154	19,520	957,701	556,418
-31,140	19,558	956,680	555,926
-30,125	19,480	956,024	555,270
-29,111	19,529	955,137	554,891
-28,096	19,561	954,509	554,608
-27,082	19,519	953,726	553,993
-26,067	19,557	952,910	553,622
-25,052	19,548	952,123	553,112
-24,038	19,586	951,547	552,878
-23,023	19,504	951,021	552,286
-22,009	19,549	950,197	551,930
-20,994	19,508	949,622	551,444
-19,979	19,499	949,099	551,089
-18,965	19,495	948,468	550,689
-17,950	19,478	947,888	550,276
-16,936	19,458	947,160	549,766
-15,921	19,443	946,427	549,270
-14,906	19,397	945,751	548,709
-13,892	19,416	944,950	548,283
-12,877	19,358	944,606	547,877
-11,863	19,339	943,798	547,326
-10,848	19,411	943,392	547,299
-9,833	19,532	942,727	547,275
-8,819	19,455	942,283	546,751
-7,804	19,394	941,567	546,121
-6,790	19,369	941,040	545,715
-5,775	19,476	940,342	545,627
-4,760	19,407	939,873	545,114
-3,746	19,391	939,245	544,678
-2,731	19,332	938,259	543,897
-1,717	19,217	937,841	543,268
-0,702	19,250	937,051	542,893
0,313	19,034	936,502	542,712
1,327	22,159	934,834	551,580
2,342	31,568	794,373	493,772
3,356	28,827	448,924	274,902
4,371	-1,820	294,259	149,489
5,386	-5,803	275,578	136,200
6,400	-7,251	269,790	131,979
7,415	-7,761	267,522	130,387
8,429	-7,524	266,305	130,000
9,444	-7,484	265,537	129,651
10,459	-7,398	264,768	129,342
11,473	-7,539	264,379	129,011
12,488	-7,516	263,709	128,694
13,502	-7,783	263,315	128,248
14,517	-7,461	262,870	128,312
15,531	-7,317	262,484	128,242
16,546	-7,134	262,242	128,278
17,561	-7,165	261,793	128,019
18,575	-6,949	261,511	128,065
19,590	-7,125	261,188	127,736
20,604	-7,055	260,866	127,630
21,619	-7,306	260,520	127,224
22,634	-7,206	260,343	127,217
23,648	-7,336	260,028	126,935
24,663	-7,288	259,770	126,841
25,677	-7,187	259,547	126,811
26,692	-7,110	259,143	126,671
27,707	-7,456	259,017	126,289
28,721	-7,279	258,658	126,260
29,736	-7,381	258,511	126,086
30,750	-7,410	258,228	125,911
31,765	-7,509	258,006	125,704
32,780	-7,529	257,707	125,529
33,794	-7,294	257,515	125,633
34,809	-7,194	257,250	125,581
35,823	-7,237	256,979	125,399
36,838	-7,457	256,751	125,082
37,853	-7,373	256,647	125,096
38,867	-7,303	256,355	125,003
39,882	-7,403	256,063	124,761
40,896	-7,367	255,930	124,717
41,911	-7,422	255,451	124,424
42,926	-7,363	255,398	124,439
43,940	-7,305	255,109	124,338
44,955	-7,571	255,060	124,070
45,969	-7,543	254,691	123,904
46,984	-7,722	254,683	123,732
47,999	-7,835	254,197	123,386
49,013	-7,786	254,002	123,323
50,028	-7,998	253,723	122,992
51,042	-8,051	253,424	122,790
52,057	-8,063	253,332	122,723
53,071	-8,056	253,037	122,576
54,086	-8,039	252,813	122,471
55,101	-7,816	252,696	122,598
56,115	-7,569	252,648	122,777
57,130	-7,251	252,507	122,975
58,144	-7,230	252,321	122,891
59,159	-7,214	252,151	122,811
60,174	-7,156	251,941	122,749
61,188	-7,420	251,753	122,417
62,203	-7,241	251,433	122,406
63,217	-7,208	251,305	122,361
64,232	-7,366	251,066	122,097
65,247	-7,179	250,869	122,152
66,261	-7,359	250,697	121,902
67,276	-7,450	250,388	121,663
68,290	-7,619	250,070	121,352
69,305	-7,810	249,935	121,111
70,320	-7,719	249,730	121,079
71,334	-7,305	249,528	121,326
72,349	-7,404	249,474	121,204
73,363	-7,155	249,197	121,271
74,378	-7,201	249,000	121,125
75,393	-7,288	248,731	120,910
76,407	-7,232	248,537	120,852
77,422	-7,338	248,441	120,704
78,436	-7,126	248,242	120,778
79,451	-7,204	248,017	120,591
80,466	-7,429	247,846	120,306
81,480	-7,417	247,515	120,144
82,495	-7,504	247,307	119,959
83,509	-7,445	247,164	119,929
84,524	-7,406	246,928	119,837
85,539	-7,630	246,779	119,564
86,553	-7,685	246,666	119,453
87,568	-7,498	246,359	119,451
88,582	-7,500	246,247	119,385
89,597	-7,634	246,092	119,185
90,611	-7,390	245,951	119,312
91,626	-7,295	245,803	119,310
92,641	-7,519	245,622	119,023
93,655	-7,609	245,421	118,839
94,670	-7,444	245,262	118,890
95,684	-7,436	244,877	118,700
96,699	-7,459	244,693	118,580
97,714	-7,552	244,579	118,437
98,728	-7,681	244,541	118,299
99,743	-7,635	244,145	118,136
100,757	-7,781	243,913	117,891
101,772	-7,657	243,727	117,894
102,787	-7,671	243,688	117,853
103,801	-7,512	243,464	117,867
104,816	-7,582	243,375	117,755
105,830	-7,457	243,179	117,754
106,845	-7,386	242,985	117,708
107,860	-7,514	242,805	117,505
108,874	-7,398	242,614	117,498
109,889	-7,498	242,442	117,321
110,903	-7,459	241,986	117,122
111,918	-7,627	242,002	116,980
112,933	-7,671	241,843	116,857
113,947	-7,446	241,631	116,929
114,962	-7,409	241,474	116,875
115,976	-7,632	241,502	116,693
116,991	-7,629	241,238	116,558
118,006	-7,556	241,147	116,563
119,020	-7,474	240,890	116,496
120,035	-7,235	240,729	116,604
121,049	-7,455	240,718	116,408
122,064	-7,520	240,429	116,205
123,079	-7,532	240,270	116,107
124,093	-7,455	240,030	116,044
125,108	-7,845	239,832	115,618
126,122	-7,909	239,532	115,410
127,137	-7,684	239,379	115,511
128,151	-7,692	239,314	115,463
129,166	-7,594	238,979	115,371
130,181	-7,934	238,948	115,068
131,195	-7,769	238,712	115,079
132,210	-7,609	238,599	115,144
133,224	-7,419	238,392	115,189
134,239	-7,558	238,144	114,946
135,254	-7,390	237,901	114,955
136,268	-7,638	237,784	114,686
137,283	-7,694	237,524	114,506
138,297	-7,760	237,379	114,372
139,312	-7,904	237,149	114,134
140,327	-7,623	237,194	114,373
141,341	-7,352	237,041	114,509
142,356	-7,152	236,894	114,589
143,370	-7,257	236,687	114,394
144,385	-7,054	236,645	114,527
145,400	-7,102	236,552	114,433
146,414	-7,025	236,270	114,349
147,429	-7,122	236,071	114,164
148,443	-7,325	235,971	113,942
149,458	-7,239	235,643	113,843
150,473	-7,313	235,458	113,684
151,487	-7,234	235,481	113,748
152,502	-7,204	235,112	113,584
153,516	-6,999	234,909	113,640
154,531	-6,943	234,781	113,613
155,546	-7,354	234,685	113,228
156,560	-7,344	234,499	113,135
157,575	-7,454	234,265	112,925
158,589	-7,582	234,218	112,790
159,604	-7,220	234,006	112,966
160,619	-7,035	233,860	113,033
161,633	-7,059	233,774	112,962
162,648	-7,058	233,806	112,969
163,662	-7,173	233,539	112,738
164,677	-7,177	233,320	112,619
165,692	-7,124	233,051	112,522
166,706	-7,024	232,888	112,512
167,721	-7,033	232,748	112,427
168,735	-7,085	232,836	112,418
169,750	-6,884	232,471	112,392
170,764	-7,118	232,218	112,074
171,779	-6,952	232,158	112,167
172,794	-7,197	232,153	111,960
173,808	-7,185	231,903	111,839
174,823	-7,945	231,644	111,105
175,837	-7,683	231,305	111,139
176,852	-7,378	231,389	111,409
177,867	-7,054	231,068	111,499
178,881	-7,089	230,995	111,427
179,896	-7,155	230,890	111,314
180,910	-6,995	230,804	111,388
181,925	-7,089	230,653	111,232
182,940	-7,008	230,401	111,164
183,954	-7,145	230,387	111,040
184,969	-7,094	230,097	110,930
185,983	-6,905	230,062	111,051
186,998	-6,963	229,879	110,908
188,013	-7,005	229,640	110,750
189,027	-6,939	229,445	110,697
190,042	-6,779	229,272	110,729
191,056	-7,055	229,156	110,448
192,071	-6,936	229,028	110,469
193,086	-7,292	228,883	110,113
194,100	-7,134	228,765	110,168
195,115	-7,413	228,159	109,651
196,129	-7,725	228,372	109,501
197,144	-3,408	229,631	113,459
198,159	0,917	230,953	117,484
199,173	3,947	231,655	120,201
200,188	4,763	231,664	120,831
201,202	4,526	231,489	120,545
202,217	4,482	231,388	120,447
203,232	4,684	231,301	120,549
204,246	4,713	231,191	120,504
205,261	4,777	230,961	120,422
206,275	4,756	230,979	120,405
207,290	5,024	230,793	120,506
208,304	4,869	230,655	120,302
209,319	4,786	230,428	120,109
210,334	4,845	230,263	120,057
211,348	4,617	229,956	119,711
212,363	4,201	229,749	119,270
213,377	4,251	229,393	119,113
214,392	3,931	229,280	118,797
215,407	4,145	229,278	118,950
216,421	4,219	229,290	119,003
217,436	4,319	229,093	118,967
218,450	3,825	228,762	118,404
219,465	3,921	228,325	118,241
220,480	3,799	228,447	118,201
221,494	3,817	228,197	118,074
222,509	3,973	228,231	118,201
223,523	3,969	228,029	118,082
224,538	3,839	227,847	117,878
225,553	3,907	227,775	117,882
226,567	3,991	227,680	117,888
227,582	4,206	227,695	118,049
228,596	4,401	227,526	118,100
229,611	4,244	227,143	117,771
230,626	3,683	226,992	117,254
231,640	4,035	226,806	117,416
232,655	4,405	226,743	117,655
233,669	4,559	226,817	117,801
234,684	4,580	226,670	117,730
235,699	4,421	226,377	117,446
236,713	4,262	226,121	117,182
237,728	4,300	226,018	117,147
238,742	3,998	225,737	116,761
239,757	3,978	225,660	116,696
240,772	4,023	225,546	116,661
241,786	4,123	225,277	116,587
242,801	4,392	225,214	116,747
243,815	4,295	225,254	116,684
244,830	4,377	224,993	116,601
245,844	4,042	224,921	116,300
246,859	4,356	224,655	116,389
247,874	4,326	224,732	116,396
248,888	4,239	224,424	116,161
249,903	4,158	224,275	116,012
250,917	4,277	224,057	115,979
251,932	4,013	223,881	115,679
252,947	3,986	223,763	115,587
253,961	4,100	223,610	115,583
254,976	4,007	223,411	115,400
255,990	4,201	223,415	115,537
257,005	4,290	223,184	115,474
258,020	4,352	223,073	115,453
259,034	4,384	223,067	115,464
260,049	4,244	222,834	115,228
261,063	4,424	222,620	115,241
262,078	4,472	222,712	115,315
263,093	4,508	222,530	115,237
264,107	4,435	222,278	115,042
265,122	4,248	222,225	114,865
266,136	4,561	222,109	115,028
267,151	4,547	221,833	114,864
268,166	4,243	221,699	114,558
269,180	4,175	221,369	114,327
270,195	3,984	221,237	114,107
271,209	3,993	221,060	114,012
272,224	4,103	221,153	114,132
273,239	4,279	220,852	114,097
274,253	3,970	220,746	113,803
275,268	3,859	220,433	113,550
276,282	3,818	220,353	113,468
277,297	3,732	220,216	113,324
278,312	3,779	220,114	113,296
279,326	4,048	220,052	113,452
280,341	4,006	219,891	113,328
281,355	3,911	219,834	113,219
282,370	3,834	219,798	113,133
283,384	3,906	219,437	112,990
284,399	4,020	219,167	112,925
285,414	3,924	219,009	112,763
286,428	3,823	219,129	112,741
287,443	4,054	219,042	112,855
288,457	4,212	218,945	112,911
289,472	3,971	218,646	112,571
290,487	3,602	218,501	112,216
291,501	3,620	218,106	112,016
292,516	3,472	218,163	111,927
293,530	3,897	217,886	112,085
294,545	3,937	217,840	112,081
295,560	3,870	217,771	111,986
296,574	3,923	217,773	112,016
297,589	4,056	217,514	111,970
298,603	3,967	217,507	111,891
299,618	4,226	217,231	111,928
300,633	4,131	217,279	111,873
301,647	4,133	217,152	111,799
302,662	4,397	216,919	111,861
303,676	4,277	216,691	111,647
304,691	4,324	216,609	111,628
305,706	4,521	216,444	111,676
306,720	4,667	216,230	111,660
307,735	4,179	216,111	111,237
308,749	3,864	216,087	110,987
309,764	4,134	215,917	111,085
310,779	4,289	215,914	111,185
311,793	4,285	215,663	111,042
312,808	4,148	215,511	110,857
313,822	4,088	215,425	110,759
314,837	4,080	215,207	110,631
315,852	3,870	214,976	110,352
316,866	4,015	214,947	110,432
317,881	4,236	214,855	110,532
318,895	4,289	214,675	110,468
319,910	4,228	214,450	110,299
320,925	3,979	214,247	110,007
321,939	3,592	214,048	109,618
322,954	3,711	214,031	109,684
323,968	4,327	214,034	110,116
324,983	4,377	213,847	110,046
325,997	4,284	213,669	109,879
327,012	4,042	213,566	109,643
328,027	4,210	213,414	109,675
329,041	4,407	213,339	109,767
330,056	4,698	213,326	109,957
331,070	4,064	212,993	109,326
332,085	3,894	212,886	109,140
333,100	3,888	212,703	109,032
334,114	4,239	212,649	109,244
335,129	4,112	212,575	109,106
336,143	4,153	212,220	108,943
337,158	3,973	212,147	108,768
338,173	4,040	212,018	108,740
339,187	3,812	211,883	108,500
340,202	3,872	211,609	108,393
341,216	3,634	211,490	108,154
342,231	3,712	211,579	108,245
343,246	3,757	211,427	108,189
344,260	3,950	211,124	108,161
345,275	3,914	211,261	108,196
346,289	4,148	211,020	108,227
347,304	4,228	210,928	108,226
348,319	4,288	210,728	108,156
349,333	4,143	210,614	107,987
350,348	4,003	210,477	107,808
351,362	4,181	210,460	107,915
352,377	4,189	210,413	107,887
353,392	4,101	210,087	107,648
354,406	4,043	209,994	107,551
355,421	193,405	1342,348	1427,810
356,435	154,357	1480,357	1427,876
