DTS Sentinel unit serial number:	SN410029Multiplexer serial number:	ORYXHardware model number:	OX2-SRSoftware version number:	ORYX F/W v4,00 Oryx Data Collector v3.7.2.0data status	okinstallation	B6 Nyhavnadifferential loss correction	single-endedforward channel	channel 2reverse channel	N/Adate	2023/12/08time	14:15:08forward acquisition time	300,00reverse acquisition time	0,00gamma	499,1914k internal	0,3159k external	0,3159temperature offset calibration	1,0000default loss term (dB/km)	0,3820temperature slope calibration	1,0000multiplexer offset coefficient	1,0000multiplexer slope coefficient	1,0000fibre end	0,00T internal ref (°C)	15,05T ext. ref 1 (°C)	-1,52T ext. ref 2 (°C)	-1,52length (m)	temperature (°C)	Stokes	anti-Stokes-744,400	-53,624	0,192	-0,064
-743,385	-115,785	-0,308	-0,042
-742,371	-125,175	0,239	0,027
-741,356	-200,000	-0,240	0,000
-740,342	89,889	0,120	0,099
-739,327	-38,909	-0,266	-0,103
-738,312	800,000	-0,033	-0,095
-737,298	-92,981	-0,297	-0,060
-736,283	-99,008	0,074	-0,014
-735,269	-155,541	-0,197	0,009
-734,254	-117,066	0,075	-0,010
-733,239	-129,144	-0,550	-0,056
-732,225	-146,970	0,271	-0,017
-731,210	280,919	-0,094	0,124
-730,196	800,000	-0,042	-0,121
-729,181	-160,739	-0,070	-0,003
-728,167	-6,063	-0,222	0,111
-727,152	-154,786	-0,070	0,003
-726,137	-95,060	-0,104	0,020
-725,123	-36,922	-0,035	0,014
-724,108	-200,000	0,013	-0,070
-723,094	800,000	-0,027	-0,066
-722,079	800,000	0,016	-0,038
-721,064	103,024	0,071	-0,062
-720,050	-97,869	0,060	-0,011
-719,035	-88,736	0,138	-0,030
-718,021	-200,000	0,003	0,039
-717,006	-76,477	-0,187	-0,048
-715,991	187,411	-0,076	-0,083
-714,977	-26,088	0,130	-0,056
-713,962	-200,000	-0,021	-0,191
-712,948	-34,344	-0,169	0,068
-711,933	-110,459	-0,102	-0,015
-710,918	800,000	-0,071	-0,168
-709,904	138,692	-0,087	0,085
-708,889	40,070	-0,071	0,047
-707,875	-200,000	-0,031	-0,120
-706,860	-17,130	0,161	-0,074
-705,845	-159,780	-0,184	0,007
-704,831	-51,552	0,143	-0,049
-703,816	-200,000	-0,006	0,020
-702,802	-200,000	0,010	-0,062
-701,787	70,637	-0,040	0,031
-700,772	-200,000	-0,006	-0,056
-699,758	236,133	-0,030	-0,036
-698,743	180,045	0,083	-0,089
-697,729	121,561	-0,101	0,093
-696,714	514,968	-0,042	-0,072
-695,699	800,000	-0,032	-0,075
-694,685	-200,000	-0,003	0,036
-693,670	-39,853	-0,074	0,028
-692,656	-200,000	0,007	0,127
-691,641	-119,219	-0,019	0,002
-690,627	-200,000	-0,006	0,057
-689,612	-200,000	-0,012	-0,051
-688,597	330,293	-0,027	-0,038
-687,583	800,000	0,023	-0,065
-686,568	800,000	-0,075	-0,156
-685,554	-200,000	-0,004	0,070
-684,539	-9,511	0,116	-0,057
-683,524	74,340	-0,114	-0,088
-682,510	-200,000	-0,025	-0,103
-681,495	-16,108	-0,131	0,061
-680,481	195,143	-0,015	0,016
-679,466	365,688	-0,033	-0,049
-678,451	222,530	0,107	-0,127
-677,437	-55,294	-0,128	0,042
-676,422	800,000	0,074	0,197
-675,408	243,092	-0,049	-0,060
-674,393	-200,000	-0,012	0,072
-673,378	17,807	-0,078	-0,045
-672,364	-200,000	0,004	-0,017
-671,349	-176,863	-0,052	0,001
-670,335	-75,630	0,219	-0,057
-669,320	182,732	-0,072	-0,078
-668,305	-200,000	0,017	0,096
-667,291	-109,332	0,116	-0,018
-666,276	71,559	0,050	0,038
-665,262	511,770	-0,031	0,053
-664,247	-200,000	-0,014	-0,106
-663,232	-83,032	-0,042	-0,010
-662,218	51,192	0,065	0,045
-661,203	800,000	0,030	0,065
-660,189	10,128	-0,047	0,026
-659,174	-10,385	0,062	-0,030
-658,159	107,107	0,046	0,041
-657,145	-200,000	0,008	0,058
-656,130	800,000	0,094	0,191
-655,116	543,002	-0,019	-0,033
-654,101	594,671	-0,036	0,066
-653,086	800,000	0,020	-0,043
-652,072	203,339	0,031	-0,036
-651,057	511,451	0,056	-0,096
-650,043	-200,000	0,015	-0,102
-649,028	-200,000	0,001	-0,103
-648,014	-200,000	0,002	0,019
-646,999	-200,000	-0,012	0,083
-645,984	-154,413	-0,089	-0,004
-644,970	32,896	-0,094	0,060
-643,955	212,031	-0,024	0,028
-642,941	-117,342	-0,104	-0,014
-641,926	-146,977	-0,118	-0,007
-640,911	-31,694	0,061	0,025
-639,897	-24,587	0,155	0,067
-638,882	122,919	-0,087	-0,080
-637,868	-150,389	0,053	0,003
-636,853	-200,000	0,004	-0,185
-635,838	13,971	0,161	-0,092
-634,824	-3,403	-0,006	0,003
-633,809	-111,126	-0,076	0,011
-632,795	3,630	-0,084	0,045
-631,780	-142,134	0,104	0,007
-630,765	79,728	0,090	0,071
-629,751	-200,000	-0,022	-0,098
-628,736	800,000	-0,062	-0,163
-627,722	-8,324	-0,102	-0,050
-626,707	192,486	-0,045	-0,049
-625,692	263,415	0,066	-0,085
-624,678	273,920	-0,110	-0,142
-623,663	-5,451	-0,047	-0,024
-622,649	800,000	0,039	0,098
-621,634	206,738	-0,070	0,080
-620,619	561,734	0,073	-0,130
-619,605	-200,000	0,000	-0,066
-618,590	251,000	0,004	0,004
-617,576	-45,204	0,120	0,043
-616,561	186,156	-0,085	0,093
-615,546	31,139	0,046	-0,029
-614,532	513,798	0,027	-0,046
-613,517	800,000	0,013	-0,027
-612,503	-7,402	-0,164	-0,081
-611,488	82,141	0,098	0,078
-610,474	-29,042	0,123	0,052
-609,459	41,986	0,060	0,040
-608,444	515,990	-0,141	-0,243
-607,430	-33,460	0,068	-0,028
-606,415	-200,000	0,024	-0,093
-605,401	-104,494	-0,066	-0,011
-604,386	-200,000	-0,002	0,103
-603,371	70,032	-0,010	-0,007
-602,357	-89,036	0,040	-0,009
-601,342	7,549	-0,103	0,056
-600,328	-20,288	-0,118	-0,053
-599,313	-200,000	0,018	-0,123
-598,298	-130,723	0,122	0,012
-597,284	-107,632	-0,102	0,016
-596,269	551,289	0,023	0,041
-595,255	244,885	0,082	0,101
-594,240	-114,315	-0,111	0,016
-593,225	-69,532	-0,056	-0,016
-592,211	225,435	-0,023	-0,027
-591,196	-200,000	0,005	0,203
-590,182	800,000	-0,028	-0,088
-589,167	44,356	0,043	0,029
-588,152	442,806	0,049	0,078
-587,138	46,989	0,037	-0,025
-586,123	-27,655	-0,103	0,043
-585,109	60,869	0,020	0,014
-584,094	800,000	0,020	0,053
-583,079	-1,416	0,102	0,052
-582,065	800,000	0,017	-0,047
-581,050	48,470	0,164	0,112
-580,036	-200,000	-0,036	-0,146
-579,021	-82,216	-0,133	0,031
-578,006	800,000	0,013	-0,039
-576,992	553,468	0,011	0,020
-575,977	0,779	0,134	-0,070
-574,963	-27,463	-0,040	0,017
-573,948	-54,037	-0,123	0,041
-572,934	-20,737	-0,063	-0,028
-571,919	-200,000	0,024	0,080
-570,904	800,000	-0,101	-0,239
-569,890	800,000	-0,002	-0,005
-568,875	-200,000	-0,029	-0,125
-567,861	31,690	0,024	-0,015
-566,846	-200,000	-0,005	0,053
-565,831	800,000	0,062	-0,179
-564,817	-200,000	-0,022	-0,075
-563,802	-183,172	-0,105	-0,001
-562,788	-172,905	-0,059	0,001
-561,773	316,614	-0,071	-0,099
-560,758	-116,783	0,103	-0,014
-559,744	-113,071	0,123	-0,018
-558,729	-184,683	-0,096	0,001
-557,715	800,000	0,038	-0,085
-556,700	-78,740	-0,033	-0,008
-555,685	316,428	-0,045	-0,062
-554,671	321,297	0,052	0,073
-553,656	50,196	-0,060	0,041
-552,642	800,000	0,036	0,115
-551,627	-200,000	0,002	-0,024
-550,612	-6,190	0,014	0,007
-549,598	62,489	-0,107	-0,078
-548,583	-33,470	0,092	0,037
-547,569	-200,000	0,015	0,086
-546,554	-70,459	-0,070	-0,019
-545,539	36,093	-0,143	-0,092
-544,525	-52,320	-0,068	-0,023
-543,510	94,654	-0,149	-0,124
-542,496	34,145	-0,156	-0,099
-541,481	-42,495	0,043	-0,016
-540,466	-200,000	-0,018	0,121
-539,452	-92,073	0,190	-0,039
-538,437	-200,000	0,026	0,135
-537,423	-181,735	-0,065	-0,001
-536,408	-113,851	0,054	-0,008
-535,393	-200,000	0,008	-0,080
-534,379	375,947	0,064	-0,096
-533,364	-200,000	-0,003	0,112
-532,350	-40,302	0,085	0,032
-531,335	751,918	0,028	0,056
-530,321	-200,000	-0,017	0,096
-529,306	800,000	-0,022	0,063
-528,291	-4,501	0,113	-0,057
-527,277	800,000	0,025	0,078
-526,262	-200,000	0,001	-0,011
-525,248	169,655	-0,111	0,116
-524,233	129,162	0,051	0,048
-523,218	151,015	0,094	0,094
-522,204	253,619	0,043	-0,053
-521,189	-99,878	-0,139	-0,025
-520,175	28,531	0,101	-0,062
-519,160	738,370	0,056	-0,110
-518,145	-150,346	0,115	-0,006
-517,131	28,365	-0,048	0,030
-516,116	228,729	0,053	0,064
-515,102	800,000	-0,015	0,048
-514,087	67,844	-0,066	0,049
-513,072	-4,934	0,107	0,054
-512,058	-165,904	-0,091	-0,003
-511,043	114,454	0,072	0,064
-510,029	800,000	0,035	-0,097
-509,014	-9,578	0,062	0,030
-507,999	-167,914	0,046	-0,001
-506,985	84,208	-0,025	0,020
-505,970	80,821	0,052	-0,041
-504,956	71,884	-0,115	-0,087
-503,941	13,524	0,006	-0,004
-502,926	34,836	-0,040	0,026
-501,912	241,662	0,118	0,144
-500,897	800,000	-0,014	0,042
-499,883	-12,999	0,143	-0,068
-498,868	73,323	-0,014	0,011
-497,853	-200,000	0,017	-0,101
-496,839	597,386	0,022	-0,041
-495,824	-200,000	0,002	0,023
-494,810	800,000	0,049	0,129
-493,795	-200,000	-0,006	0,125
-492,781	800,000	-0,042	-0,093
-491,766	-134,282	-0,104	0,009
-490,751	800,000	-0,037	0,074
-489,737	131,887	-0,049	-0,046
-488,722	-200,000	0,029	0,226
-487,708	-200,000	-0,003	-0,022
-486,693	-200,000	0,004	0,130
-485,678	2,545	0,076	-0,040
-484,664	-63,224	-0,076	0,023
-483,649	226,339	-0,134	-0,158
-482,635	79,916	0,063	0,050
-481,620	43,037	0,108	0,072
-480,605	-200,000	-0,026	0,129
-479,591	251,561	-0,049	-0,061
-478,576	-200,000	-0,003	-0,020
-477,562	-104,771	-0,037	0,006
-476,547	27,158	0,043	0,026
-475,532	608,447	-0,041	0,075
-474,518	800,000	0,051	0,161
-473,503	-200,000	0,006	-0,086
-472,489	-200,000	-0,005	0,087
-471,474	-200,000	-0,008	-0,058
-470,459	348,543	-0,113	-0,163
-469,445	800,000	0,020	0,063
-468,430	102,657	-0,084	-0,072
-467,416	-82,587	0,122	0,029
-466,401	109,138	0,089	0,077
-465,386	337,795	-0,030	0,042
-464,372	-200,000	-0,006	0,085
-463,357	-200,000	0,047	0,178
-462,343	212,229	0,080	0,092
-461,328	-77,765	-0,118	-0,029
-460,313	-158,904	-0,105	0,004
-459,299	-1,841	-0,119	-0,061
-458,284	27,186	0,116	0,071
-457,270	89,172	0,018	-0,015
-456,255	104,093	-0,062	-0,053
-455,241	367,774	0,046	-0,068
-454,226	-32,347	-0,040	0,016
-453,211	265,023	0,123	0,156
-452,197	-200,000	0,007	0,033
-451,182	800,000	-0,015	0,035
-450,168	574,621	0,088	-0,158
-449,153	-23,673	0,015	-0,007
-448,138	-56,978	-0,045	0,014
-447,124	-200,000	0,002	0,050
-446,109	286,735	-0,068	0,089
-445,095	70,450	0,023	0,017
-444,080	-164,331	0,052	0,002
-443,065	-61,500	-0,003	0,001
-442,051	800,000	-0,040	-0,099
-441,036	97,703	0,028	-0,023
-440,022	177,899	0,070	0,075
-439,007	-200,000	0,004	0,113
-437,992	-200,000	-0,030	0,113
-436,978	800,000	-0,035	0,073
-435,963	-129,610	0,049	0,005
-434,949	-200,000	0,004	0,126
-433,934	-200,000	0,004	0,028
-432,919	416,024	0,053	0,082
-431,905	73,571	0,076	-0,058
-430,890	800,000	0,032	0,088
-429,876	800,000	0,056	-0,118
-428,861	305,560	-0,088	0,120
-427,846	645,949	0,029	-0,055
-426,832	800,000	-0,023	-0,070
-425,817	-2,844	-0,101	0,051
-424,803	-200,000	0,024	-0,143
-423,788	630,118	0,011	0,020
-422,773	-199,027	0,174	0,001
-421,759	485,775	-0,047	0,079
-420,744	-39,470	-0,135	0,051
-419,730	610,396	-0,080	-0,147
-418,715	-200,000	0,001	-0,098
-417,701	800,000	0,051	0,154
-416,686	371,918	-0,024	0,035
-415,671	-149,893	-0,049	-0,003
-414,657	-80,778	0,076	-0,018
-413,642	800,000	-0,018	-0,045
-412,628	-91,358	-0,037	0,008
-411,613	14,599	0,053	0,030
-410,598	719,957	-0,029	0,055
-409,584	674,365	0,050	0,094
-408,569	-82,941	0,092	-0,021
-407,555	101,771	-0,067	0,057
-406,540	251,404	-0,040	0,050
-405,525	-180,507	-0,068	-0,001
-404,511	800,000	0,031	-0,086
-403,496	-110,909	-0,094	-0,014
-402,482	40,580	-0,067	-0,044
-401,467	-200,000	0,028	0,168
-400,452	51,815	-0,074	0,051
-399,438	-200,000	-0,011	0,058
-398,423	202,595	0,023	-0,026
-397,409	800,000	0,011	-0,033
-396,394	-200,000	0,043	-0,186
-395,379	198,755	0,084	-0,094
-394,365	-45,361	0,038	0,014
-393,350	-200,000	0,004	0,088
-392,336	324,607	-0,054	0,075
-391,321	42,960	0,160	-0,106
-390,306	32,076	0,027	0,017
-389,292	-163,156	0,020	-0,001
-388,277	33,251	0,026	-0,017
-387,263	60,016	0,099	-0,071
-386,248	208,854	-0,037	-0,042
-385,233	-134,087	0,138	-0,012
-384,219	113,457	-0,035	0,031
-383,204	742,786	-0,058	0,115
-382,190	-137,972	0,037	0,003
-381,175	800,000	-0,026	0,058
-380,160	-200,000	-0,001	0,012
-379,146	-176,793	0,130	0,002
-378,131	790,845	-0,027	-0,054
-377,117	-99,624	-0,149	0,027
-376,102	-200,000	0,011	-0,110
-375,088	800,000	-0,030	-0,086
-374,073	162,040	-0,039	-0,040
-373,058	281,480	0,033	-0,042
-372,044	-52,329	-0,078	-0,026
-371,029	63,361	0,085	0,062
-370,015	800,000	-0,059	-0,135
-369,000	-200,000	0,004	-0,095
-367,985	-73,038	-0,097	0,026
-366,971	-200,000	0,014	-0,083
-365,956	-129,415	-0,116	-0,012
-364,942	-157,187	0,097	0,004
-363,927	-139,940	0,150	-0,011
-362,912	-200,000	0,003	-0,027
-361,898	-200,000	-0,006	0,070
-360,883	87,976	0,042	-0,033
-359,869	-110,346	-0,021	-0,003
-358,854	-97,037	-0,145	0,027
-357,839	-200,000	0,019	-0,063
-356,825	208,711	0,043	-0,049
-355,810	-200,000	-0,022	-0,092
-354,796	-200,000	-0,010	-0,187
-353,781	583,981	0,033	0,060
-352,766	-93,779	-0,045	0,009
-351,752	-144,765	0,176	-0,012
-350,737	-4,604	-0,085	0,042
-349,723	181,022	0,024	0,026
-348,708	-49,262	0,062	0,021
-347,693	451,038	-0,105	0,169
-346,679	191,945	0,032	-0,036
-345,664	-200,000	-0,005	-0,025
-344,650	-5,324	0,086	-0,043
-343,635	-200,000	0,004	0,031
-342,620	192,143	0,018	0,020
-341,606	-7,633	0,121	-0,059
-340,591	15,499	-0,066	-0,037
-339,577	-133,535	-0,124	0,011
-338,562	156,707	0,026	-0,026
-337,548	-19,423	-0,093	0,042
-336,533	-66,470	0,182	0,052
-335,518	-200,000	-0,057	0,193
-334,504	-3,848	0,059	0,030
-333,489	231,615	0,073	-0,087
-332,475	187,831	0,087	-0,094
-331,460	359,939	0,080	-0,116
-330,445	227,132	-0,120	-0,141
-329,431	-50,945	0,146	0,050
-328,416	800,000	-0,045	0,111
-327,402	-105,340	-0,006	-0,001
-326,387	59,351	0,066	0,047
-325,372	522,310	-0,052	0,088
-324,358	-200,000	0,001	-0,085
-323,343	-121,523	-0,083	0,010
-322,329	562,401	0,014	0,024
-321,314	-200,000	-0,005	0,077
-320,299	-21,576	0,127	0,056
-319,285	257,415	-0,035	-0,044
-318,270	166,105	0,054	-0,056
-317,256	499,333	0,105	-0,175
-316,241	-200,000	0,015	0,048
-315,226	44,963	0,110	-0,074
-314,212	800,000	0,013	0,030
-313,197	564,899	0,091	-0,160
-312,183	633,518	-0,000	-0,001
-311,168	531,906	0,040	0,068
-310,153	537,999	0,031	-0,054
-309,139	-200,000	0,009	-0,104
-308,124	800,000	0,004	-0,011
-307,110	90,643	0,127	0,103
-306,095	800,000	0,060	0,185
-305,080	14,188	-0,066	0,037
-304,066	-0,481	-0,081	0,042
-303,051	-133,871	-0,113	0,010
-302,037	-200,000	0,010	0,049
-301,022	-59,502	0,070	-0,022
-300,008	43,159	0,037	0,025
-298,993	-122,909	0,039	0,004
-297,978	-145,406	-0,105	-0,007
-296,964	800,000	-0,042	0,112
-295,949	223,354	0,055	0,065
-294,935	-200,000	-0,013	0,052
-293,920	-200,000	-0,005	-0,113
-292,905	184,396	0,020	-0,022
-291,891	264,106	-0,030	0,038
-290,876	-25,151	0,006	0,003
-289,862	54,995	-0,077	-0,054
-288,847	-200,000	-0,013	0,046
-287,832	800,000	-0,006	0,020
-286,818	-87,772	-0,155	0,034
-285,803	800,000	0,021	-0,048
-284,789	-200,000	0,000	0,026
-283,774	-148,029	0,195	0,012
-282,759	49,262	-0,133	0,090
-281,745	-80,506	-0,219	0,052
-280,730	79,688	-0,058	0,045
-279,716	448,770	-0,008	-0,012
-278,701	-49,251	0,085	-0,029
-277,686	64,723	-0,090	0,066
-276,672	-200,000	-0,057	0,308
-275,657	-155,249	-0,027	0,001
-274,643	365,982	-0,033	-0,048
-273,628	82,822	-0,094	-0,074
-272,613	800,000	-0,035	0,091
-271,599	-51,615	0,211	-0,071
-270,584	-116,892	-0,120	-0,016
-269,570	800,000	0,051	0,113
-268,555	-106,529	0,062	0,010
-267,540	220,073	-0,069	-0,080
-266,526	800,000	0,026	-0,061
-265,511	406,471	-0,044	0,068
-264,497	800,000	-0,008	0,018
-263,482	169,072	0,033	0,034
-262,467	-200,000	0,014	0,060
-261,453	269,485	0,073	-0,093
-260,438	152,997	-0,097	-0,096
-259,424	-154,120	0,035	0,002
-258,409	-200,000	-0,001	0,040
-257,395	-15,404	0,155	0,071
-256,380	-135,667	-0,073	-0,006
-255,365	80,147	-0,077	0,060
-254,351	438,267	0,014	0,022
-253,336	-117,837	-0,040	-0,005
-252,322	-0,012	0,060	-0,031
-251,307	-44,025	0,102	0,037
-250,292	56,674	-0,052	0,037
-249,278	-36,580	-0,132	0,051
-248,263	-200,000	-0,007	0,036
-247,249	-165,952	0,058	-0,002
-246,234	-103,143	-0,027	-0,005
-245,219	-34,641	-0,074	0,029
-244,205	800,000	-0,028	-0,070
-243,190	167,719	-0,045	-0,046
-242,176	-200,000	0,027	-0,100
-241,161	-133,226	0,098	0,009
-240,146	800,000	-0,035	-0,090
-239,132	-200,000	0,027	0,121
-238,117	-168,539	0,083	-0,002
-237,103	183,262	0,064	-0,068
-236,088	95,311	-0,132	-0,109
-235,073	4,003	0,089	-0,047
-234,059	800,000	0,035	0,086
-233,044	-45,290	0,066	0,023
-232,030	-6,076	-0,121	0,059
-231,015	-95,943	-0,071	0,014
-230,000	348,263	-0,070	-0,100
-228,986	-20,576	0,095	-0,042
-227,971	-200,000	0,000	0,033
-226,957	-105,246	0,146	-0,024
-225,942	800,000	-0,029	-0,059
-224,927	245,223	-0,050	0,061
-223,913	800,000	-0,060	-0,191
-222,898	278,221	-0,119	-0,153
-221,884	665,285	-0,037	0,069
-220,869	-96,622	-0,016	0,003
-219,855	-139,836	0,086	0,006
-218,840	-4,226	0,147	-0,073
-217,825	-30,630	-0,073	0,030
-216,811	-131,122	0,103	0,010
-215,796	-72,891	-0,078	-0,021
-214,782	-200,000	0,018	0,095
-213,767	-13,002	-0,088	-0,041
-212,752	94,501	0,027	0,023
-211,738	800,000	0,031	0,070
-210,723	-91,612	-0,064	0,013
-209,709	9,542	0,080	-0,044
-208,694	140,814	-0,110	0,105
-207,679	-33,729	-0,044	-0,018
-206,665	591,302	0,089	0,158
-205,650	-68,532	-0,087	-0,024
-204,636	-5,208	0,059	-0,029
-203,621	800,000	-0,023	0,057
-202,606	-200,000	-0,019	0,100
-201,592	144,381	-0,072	-0,070
-200,577	-200,000	-0,048	-0,184
-199,563	238,826	0,097	-0,116
-198,548	-200,000	0,000	-0,129
-197,533	-55,684	0,102	0,033
-196,519	72,629	-0,011	0,008
-195,504	-78,468	0,121	-0,030
-194,490	755,561	-0,042	-0,083
-193,475	-23,943	-0,079	-0,034
-192,460	-114,460	-0,035	0,005
-191,446	95,692	0,149	-0,122
-190,431	70,550	-0,096	0,072
-189,417	-5,854	0,017	0,009
-188,402	-200,000	-0,025	0,095
-187,387	32,474	-0,124	-0,077
-186,373	43,825	-0,111	-0,073
-185,358	344,006	0,068	0,096
-184,344	489,408	-0,043	0,071
-183,329	-200,000	-0,022	0,076
-182,315	800,000	-0,050	-0,123
-181,300	87,003	-0,006	-0,005
-180,285	-60,448	-0,066	-0,020
-179,271	123,336	0,021	-0,019
-178,256	92,307	0,059	-0,048
-177,242	-137,466	-0,084	-0,007
-176,227	615,350	0,009	-0,016
-175,212	323,016	-0,045	-0,062
-174,198	-200,000	0,001	-0,150
-173,183	-162,753	0,056	-0,002
-172,169	800,000	-0,049	-0,144
-171,154	508,070	0,025	0,042
-170,139	153,976	-0,064	0,064
-169,125	-117,532	0,054	-0,007
-168,110	-122,163	0,091	0,011
-167,096	-32,845	0,030	0,012
-166,081	-200,000	0,019	-0,134
-165,066	-200,000	-0,003	-0,150
-164,052	-200,000	-0,026	0,185
-163,037	121,368	-0,119	0,107
-162,023	-200,000	0,001	0,071
-161,008	-160,111	-0,009	0,000
-159,993	272,134	0,026	-0,033
-158,979	-154,631	-0,051	0,002
-157,964	-157,295	0,065	0,003
-156,950	250,638	-0,038	-0,046
-155,935	-200,000	-0,005	0,129
-154,920	-200,000	0,005	-0,053
-153,906	-164,242	0,024	-0,001
-152,891	-62,750	0,059	-0,017
-151,877	-136,191	-0,076	-0,006
-150,862	175,598	-0,126	-0,131
-149,847	-17,475	-0,136	0,061
-148,833	218,056	0,073	0,083
-147,818	-200,000	0,003	0,177
-146,804	-105,032	0,067	-0,011
-145,789	257,041	0,093	0,116
-144,775	461,118	0,052	0,084
-143,760	-144,359	0,138	-0,009
-142,745	-200,000	0,010	0,128
-141,731	-200,000	-0,015	0,100
-140,716	-200,000	0,015	-0,056
-139,702	165,318	0,079	0,080
-138,687	800,000	-0,032	0,083
-137,672	-78,042	0,092	-0,023
-136,658	800,000	0,050	-0,108
-135,643	502,556	-0,076	0,127
-134,629	512,387	0,022	-0,037
-133,614	-24,390	0,074	-0,032
-132,599	128,953	0,146	-0,134
-131,585	42,991	0,034	0,022
-130,570	800,000	-0,015	-0,033
-129,556	57,676	0,047	0,033
-128,541	58,105	0,131	0,092
-127,526	-89,860	0,038	0,008
-126,512	138,885	-0,064	0,060
-125,497	443,358	-0,075	0,118
-124,483	-76,031	0,110	0,028
-123,468	-200,000	-0,025	-0,110
-122,453	-39,490	0,084	-0,032
-121,439	539,645	-0,091	0,157
-120,424	71,751	-0,052	-0,039
-119,410	-200,000	-0,012	0,143
-118,395	80,084	0,035	-0,027
-117,380	107,264	0,052	-0,045
-116,366	73,927	0,058	-0,044
-115,351	212,577	0,075	0,085
-114,337	-200,000	-0,024	-0,085
-113,322	800,000	0,014	-0,037
-112,307	179,372	0,132	0,139
-111,293	-200,000	-0,012	0,085
-110,278	388,689	-0,024	0,035
-109,264	123,331	0,088	-0,079
-108,249	32,850	-0,082	-0,051
-107,234	19,418	0,050	-0,029
-106,220	268,857	-0,018	0,023
-105,205	-51,420	0,079	0,026
-104,191	1,330	0,154	0,079
-103,176	-200,000	0,026	0,129
-102,162	-6,672	0,072	0,035
-101,147	54,415	-0,042	0,029
-100,132	-52,937	-0,110	0,036
-99,118	-164,527	-0,056	0,002
-98,103	800,000	-0,020	-0,060
-97,089	245,181	-0,018	0,022
-96,074	-60,422	-0,108	-0,033
-95,059	-11,196	-0,057	0,027
-94,045	-27,785	-0,050	-0,021
-93,030	-79,212	-0,041	-0,010
-92,016	764,137	-0,009	-0,018
-91,001	-200,000	-0,006	0,173
-89,986	800,000	-0,050	0,139
-88,972	166,778	0,039	0,040
-87,957	735,633	-0,014	-0,026
-86,943	-4,716	-0,052	0,026
-85,928	-200,000	-0,011	0,041
-84,913	594,837	0,040	-0,071
-83,899	226,532	-0,089	-0,104
-82,884	-200,000	-0,012	-0,042
-81,870	4,642	0,076	0,040
-80,855	73,126	0,079	0,059
-79,840	-200,000	-0,003	0,120
-78,826	800,000	0,018	0,054
-77,811	-200,000	0,024	-0,161
-76,797	582,607	0,026	0,047
-75,782	123,766	0,070	0,063
-74,767	800,000	0,044	-0,110
-73,753	100,666	0,055	-0,046
-72,738	593,230	-0,022	-0,040
-71,724	-108,202	-0,071	-0,011
-70,709	85,138	-0,026	0,021
-69,694	-200,000	-0,017	0,057
-68,680	-200,000	0,021	-0,081
-67,665	423,986	0,047	0,073
-66,651	800,000	-0,054	0,130
-65,636	-47,266	0,042	0,014
-64,622	-67,730	-0,123	-0,034
-63,607	418,137	-0,079	-0,122
-62,592	-118,705	0,054	0,007
-61,578	675,469	-0,066	-0,124
-60,563	-200,000	0,003	-0,034
-59,549	483,100	0,089	0,147
-58,534	11,519	-2,160	-1,185
-57,519	-200,000	-0,119	-0,755
-56,505	-200,000	-1,273	-5,002
-55,490	91,465	0,861	0,694
-54,476	800,000	5,135	11,414
-53,461	-200,000	17,967	289,116
-52,446	800,000	727,644	2222,497
-51,432	532,511	1640,432	2795,971
-50,417	108,705	1629,890	1396,569
-49,403	72,570	1283,221	959,061
-48,388	31,220	1025,828	630,101
-47,373	19,865	987,918	569,425
-46,359	18,242	975,911	557,170
-45,344	15,404	972,041	545,666
-44,330	15,632	970,490	545,519
-43,315	15,127	968,491	542,729
-42,300	15,072	967,539	541,993
-41,286	15,031	966,761	541,403
-40,271	15,081	965,556	540,869
-39,257	15,092	964,714	540,411
-38,242	15,064	964,063	539,936
-37,227	15,061	963,123	539,379
-36,213	15,126	961,975	538,923
-35,198	15,074	961,359	538,388
-34,184	15,114	960,398	537,959
-33,169	14,997	959,589	537,106
-32,154	15,112	958,623	536,914
-31,140	15,079	957,857	536,360
-30,125	15,130	956,985	536,012
-29,111	15,108	956,256	535,512
-28,096	15,087	955,641	535,080
-27,082	15,142	954,952	534,850
-26,067	15,078	954,082	534,136
-25,052	15,069	953,443	533,725
-24,038	15,086	952,625	533,303
-23,023	15,083	952,131	532,996
-22,009	15,070	951,342	532,490
-20,994	15,068	950,943	532,241
-19,979	15,137	950,217	532,034
-18,965	15,086	949,606	531,507
-17,950	15,045	949,062	531,050
-16,936	15,032	948,273	530,547
-15,921	15,075	947,569	530,267
-14,906	14,988	946,962	529,629
-13,892	14,945	946,360	529,135
-12,877	14,966	945,626	528,770
-11,863	14,941	945,253	528,462
-10,848	14,990	944,461	528,153
-9,833	15,070	944,130	528,203
-8,819	15,063	943,286	527,685
-7,804	14,960	942,874	527,108
-6,790	15,002	942,151	526,817
-5,775	15,011	941,568	526,499
-4,760	15,062	940,875	526,251
-3,746	15,001	940,314	525,724
-2,731	14,873	939,758	524,986
-1,717	14,810	939,162	524,435
-0,702	14,859	938,390	524,138
0,313	14,654	937,722	523,910
1,327	18,186	935,682	533,830
2,342	27,578	789,260	475,005
3,356	24,200	444,335	262,397
4,371	-5,719	295,392	144,558
5,386	-9,758	277,169	131,800
6,400	-11,051	271,501	127,892
7,415	-11,153	269,033	126,625
8,429	-11,289	267,810	125,913
9,444	-11,189	266,904	125,566
10,459	-11,246	266,238	125,191
11,473	-11,435	265,691	124,751
12,488	-11,505	265,145	124,420
13,502	-11,476	264,482	124,124
14,517	-11,506	264,091	123,902
15,531	-11,331	263,761	123,893
16,546	-11,248	263,183	123,686
17,561	-11,430	262,945	123,400
18,575	-11,236	262,618	123,409
19,590	-11,309	262,374	123,218
20,604	-11,211	261,895	123,070
21,619	-11,256	261,693	122,923
22,634	-11,336	261,346	122,678
23,648	-11,354	261,069	122,521
24,663	-11,450	260,750	122,275
25,677	-11,385	260,483	122,197
26,692	-11,220	260,295	122,244
27,707	-11,362	260,006	121,972
28,721	-11,461	259,918	121,832
29,736	-11,477	259,501	121,611
30,750	-11,544	259,051	121,330
31,765	-11,465	258,872	121,306
32,780	-11,630	258,787	121,110
33,794	-11,472	258,457	121,083
34,809	-11,452	258,220	120,980
35,823	-11,475	257,918	120,806
36,838	-11,638	257,687	120,544
37,853	-11,421	257,449	120,613
38,867	-11,424	257,178	120,473
39,882	-11,546	256,884	120,217
40,896	-11,543	256,756	120,149
41,911	-11,732	256,549	119,876
42,926	-11,650	256,298	119,820
43,940	-11,541	256,005	119,767
44,955	-11,513	255,924	119,743
45,969	-11,697	255,609	119,425
46,984	-11,926	255,331	119,085
47,999	-11,955	254,991	118,890
49,013	-12,196	254,679	118,524
50,028	-12,212	254,309	118,328
51,042	-12,435	254,255	118,099
52,057	-12,579	254,187	117,932
53,071	-12,288	253,839	118,012
54,086	-11,991	253,654	118,172
55,101	-11,922	253,515	118,157
56,115	-11,846	253,373	118,146
57,130	-11,472	253,385	118,464
58,144	-11,250	253,228	118,572
59,159	-11,365	253,104	118,404
60,174	-11,229	252,630	118,288
61,188	-11,336	252,441	118,097
62,203	-11,345	252,327	118,026
63,217	-11,498	252,077	117,767
64,232	-11,571	251,941	117,630
65,247	-11,298	251,524	117,658
66,261	-11,401	251,445	117,523
67,276	-11,512	251,069	117,242
68,290	-11,791	250,871	116,901
69,305	-12,044	250,568	116,533
70,320	-11,782	250,361	116,650
71,334	-11,629	250,282	116,733
72,349	-11,306	250,170	116,946
73,363	-11,249	249,942	116,877
74,378	-11,360	249,794	116,703
75,393	-11,382	249,616	116,590
76,407	-11,560	249,361	116,310
77,422	-11,549	248,994	116,138
78,436	-11,428	248,949	116,209
79,451	-11,581	248,773	115,987
80,466	-11,643	248,415	115,758
81,480	-11,603	248,254	115,705
82,495	-11,796	248,088	115,455
83,509	-11,741	247,850	115,381
84,524	-11,653	247,588	115,322
85,539	-11,895	247,318	114,983
86,553	-11,779	247,219	115,024
87,568	-11,799	247,125	114,953
88,582	-11,947	246,904	114,716
89,597	-11,949	246,706	114,613
90,611	-11,596	246,596	114,846
91,626	-11,474	246,352	114,825
92,641	-11,575	246,215	114,666
93,655	-11,624	246,052	114,539
94,670	-11,672	245,702	114,326
95,684	-11,434	245,561	114,449
96,699	-11,563	245,416	114,264
97,714	-11,708	245,204	114,034
98,728	-11,685	244,871	113,888
99,743	-11,914	244,801	113,655
100,757	-11,663	244,393	113,663
101,772	-11,847	244,386	113,497
102,787	-11,565	244,233	113,650
103,801	-11,680	244,012	113,442
104,816	-11,732	243,886	113,330
105,830	-11,518	243,721	113,420
106,845	-11,304	243,515	113,491
107,860	-11,402	243,314	113,306
108,874	-11,362	243,121	113,239
109,889	-11,608	242,956	112,950
110,903	-11,640	242,704	112,797
111,918	-11,633	242,574	112,732
112,933	-11,598	242,320	112,632
113,947	-11,651	242,174	112,511
114,962	-11,504	242,181	112,625
115,976	-11,372	241,831	112,560
116,991	-11,501	241,760	112,411
118,006	-11,402	241,392	112,311
119,020	-11,547	241,457	112,213
120,035	-11,280	241,272	112,335
121,049	-11,353	241,206	112,235
122,064	-11,589	240,988	111,930
123,079	-11,444	240,688	111,899
124,093	-11,680	240,567	111,640
125,108	-11,758	240,248	111,419
126,122	-11,977	239,942	111,090
127,137	-12,098	239,831	110,930
128,151	-11,805	239,731	111,112
129,166	-11,722	239,467	111,047
130,181	-11,889	239,367	110,855
131,195	-12,008	239,117	110,633
132,210	-11,865	239,077	110,721
133,224	-11,605	238,753	110,771
134,239	-11,429	238,699	110,878
135,254	-11,341	238,523	110,858
136,268	-11,524	238,238	110,567
137,283	-12,012	237,904	110,009
138,297	-11,920	237,725	109,991
139,312	-12,018	237,545	109,819
140,327	-11,861	237,602	109,962
141,341	-11,263	237,551	110,409
142,356	-11,356	237,456	110,280
143,370	-11,201	237,217	110,284
144,385	-10,994	236,948	110,315
145,400	-11,055	236,847	110,209
146,414	-11,221	236,661	109,980
147,429	-11,261	236,457	109,844
148,443	-11,099	236,438	109,954
149,458	-11,213	236,042	109,670
150,473	-11,139	235,891	109,648
151,487	-11,307	235,665	109,400
152,502	-11,180	235,582	109,453
153,516	-11,118	235,468	109,439
154,531	-11,376	235,334	109,162
155,546	-11,343	235,034	109,040
156,560	-11,327	234,940	108,998
157,575	-11,288	234,660	108,890
158,589	-11,552	234,578	108,633
159,604	-11,097	234,429	108,914
160,619	-11,060	234,251	108,852
161,633	-10,965	234,078	108,837
162,648	-11,008	233,988	108,751
163,662	-11,220	233,782	108,479
164,677	-11,242	233,644	108,387
165,692	-11,173	233,465	108,349
166,706	-11,094	233,320	108,334
167,721	-10,864	233,226	108,462
168,735	-10,926	233,080	108,336
169,750	-11,335	232,979	107,957
170,764	-11,361	232,834	107,860
171,779	-11,193	232,648	107,897
172,794	-10,966	232,563	108,025
173,808	-11,448	232,299	107,515
174,823	-11,839	231,873	107,003
175,837	-11,981	231,640	106,775
176,852	-11,327	231,703	107,305
177,867	-11,201	231,649	107,369
178,881	-11,303	231,563	107,240
179,896	-11,354	231,357	107,095
180,910	-10,977	231,148	107,283
181,925	-10,946	231,010	107,233
182,940	-11,336	230,980	106,906
183,954	-11,107	230,734	106,961
184,969	-11,080	230,611	106,915
185,983	-10,888	230,428	106,970
186,998	-10,843	230,327	106,949
188,013	-10,906	230,062	106,767
189,027	-11,012	230,000	106,646
190,042	-11,079	229,825	106,504
191,056	-11,109	229,712	106,420
192,071	-11,023	229,385	106,324
193,086	-10,936	229,212	106,302
194,100	-11,087	229,221	106,180
195,115	-11,327	228,794	105,788
196,129	-11,929	228,566	105,210
197,144	-6,386	230,535	110,405
198,159	-0,620	232,235	115,700
199,173	2,747	233,060	118,726
200,188	3,431	233,025	119,229
201,202	3,169	232,798	118,899
202,217	3,297	232,775	118,976
203,232	3,457	232,636	119,019
204,246	3,465	232,563	118,977
205,261	3,748	232,325	119,064
206,275	3,993	232,401	119,282
207,290	3,969	232,161	119,129
208,304	3,902	231,960	118,964
209,319	3,852	231,979	118,924
210,334	3,880	231,635	118,759
211,348	3,570	231,264	118,320
212,363	3,295	231,123	118,025
213,377	2,977	230,884	117,647
214,392	2,890	230,794	117,524
215,407	3,142	230,755	117,687
216,421	3,312	230,572	117,715
217,436	2,991	230,436	117,388
218,450	3,061	229,944	117,181
219,465	3,074	229,836	117,125
220,480	2,982	229,917	117,085
221,494	2,902	229,711	116,909
222,509	3,014	229,633	116,944
223,523	3,132	229,374	116,892
224,538	2,943	229,303	116,701
225,553	3,062	229,050	116,653
226,567	3,147	229,023	116,693
227,582	3,222	229,030	116,744
228,596	3,483	228,835	116,833
229,611	3,265	228,583	116,528
230,626	3,080	228,221	116,192
231,640	2,952	228,223	116,086
232,655	3,306	228,103	116,283
233,669	3,371	228,238	116,391
234,684	3,498	228,014	116,363
235,699	3,445	227,835	116,221
236,713	3,121	227,535	115,812
237,728	2,912	227,477	115,615
238,742	2,913	227,188	115,457
239,757	3,131	226,914	115,473
240,772	3,040	226,834	115,353
241,786	3,051	226,758	115,313
242,801	3,145	226,802	115,395
243,815	3,607	226,681	115,671
244,830	3,377	226,439	115,364
245,844	3,156	226,184	115,058
246,859	2,829	226,168	114,794
247,874	3,275	226,038	115,053
248,888	3,275	225,830	114,937
249,903	3,361	225,622	114,886
250,917	2,960	225,440	114,482
251,932	3,160	225,278	114,539
252,947	2,899	225,156	114,271
253,961	3,065	224,880	114,246
254,976	2,882	224,895	114,106
255,990	3,356	224,758	114,381
257,005	3,294	224,676	114,282
258,020	3,216	224,576	114,163
259,034	3,212	224,437	114,079
260,049	3,273	224,269	114,029
261,063	3,278	224,057	113,915
262,078	3,466	223,782	113,905
263,093	3,441	223,884	113,927
264,107	3,388	223,606	113,737
265,122	3,448	223,464	113,699
266,136	3,590	223,445	113,784
267,151	3,507	223,187	113,582
268,166	3,061	222,972	113,132
269,180	2,693	222,783	112,753
270,195	2,774	222,728	112,776
271,209	3,215	222,479	112,965
272,224	3,256	222,318	112,903
273,239	3,282	222,242	112,874
274,253	2,802	222,074	112,425
275,268	2,954	221,881	112,429
276,282	2,633	221,769	112,126
277,297	2,816	221,636	112,184
278,312	2,989	221,470	112,216
279,326	2,945	221,423	112,151
280,341	3,087	221,329	112,197
281,355	3,132	221,162	112,135
282,370	3,110	220,977	112,015
283,384	2,720	220,805	111,633
284,399	2,659	220,611	111,480
285,414	2,765	220,511	111,497
286,428	3,022	220,411	111,625
287,443	3,147	220,359	111,680
288,457	3,400	220,197	111,772
289,472	3,113	219,900	111,402
290,487	2,500	219,621	110,804
291,501	2,614	219,522	110,828
292,516	2,928	219,435	111,002
293,530	2,699	219,402	110,809
294,545	2,858	219,308	110,867
295,560	3,023	219,129	110,886
296,574	2,952	218,976	110,748
297,589	2,992	218,825	110,690
298,603	3,054	218,860	110,743
299,618	3,293	218,635	110,793
300,633	3,230	218,368	110,602
301,647	3,276	218,498	110,691
302,662	3,149	218,276	110,477
303,676	3,374	218,093	110,537
304,691	3,330	217,956	110,426
305,706	3,263	217,785	110,281
306,720	3,386	217,579	110,255
307,735	3,043	217,479	109,949
308,749	2,904	217,307	109,751
309,764	3,187	217,200	109,891
310,779	3,006	217,171	109,737
311,793	3,062	216,935	109,648
312,808	3,246	216,643	109,622
313,822	3,117	216,652	109,525
314,837	2,943	216,590	109,359
315,852	2,822	216,301	109,116
316,866	3,137	216,247	109,305
317,881	3,248	216,145	109,323
318,895	3,036	215,999	109,088
319,910	3,145	215,768	109,039
320,925	2,891	215,552	108,740
321,939	2,684	215,363	108,487
322,954	2,624	215,510	108,509
323,968	2,948	215,383	108,666
324,983	3,379	215,226	108,883
325,997	3,172	215,163	108,695
327,012	3,283	214,764	108,562
328,027	3,196	214,736	108,477
329,041	3,386	214,731	108,599
330,056	3,499	214,527	108,566
331,070	3,058	214,318	108,139
332,085	2,773	214,030	107,782
333,100	2,898	213,925	107,808
334,114	2,997	213,892	107,851
335,129	3,478	213,776	108,124
336,143	2,873	213,685	107,641
337,158	3,285	213,525	107,841
338,173	3,123	213,363	107,635
339,187	2,878	213,324	107,434
340,202	2,852	213,023	107,254
341,216	2,681	212,824	107,024
342,231	3,147	212,661	107,260
343,246	2,707	212,673	106,948
344,260	2,855	212,550	106,980
345,275	3,103	212,541	107,140
346,289	3,304	212,428	107,214
347,304	3,424	212,170	107,158
348,319	2,905	211,998	106,699
349,333	3,199	211,833	106,811
350,348	3,308	211,664	106,793
351,362	3,229	211,668	106,731
352,377	3,089	211,646	106,612
353,392	3,223	211,366	106,555
354,406	3,169	211,282	106,466
355,421	194,277	1341,167	1414,389
356,435	155,125	1478,801	1414,353
