DTS Sentinel unit serial number:	SN410029Multiplexer serial number:	ORYXHardware model number:	OX2-SRSoftware version number:	ORYX F/W v4,00 Oryx Data Collector v3.7.2.0data status	okinstallation	B6 Nyhavnadifferential loss correction	single-endedforward channel	channel 2reverse channel	N/Adate	2023/12/10time	07:55:08forward acquisition time	300,00reverse acquisition time	0,00gamma	499,1914k internal	0,3123k external	0,3123temperature offset calibration	1,0000default loss term (dB/km)	0,3820temperature slope calibration	1,0000multiplexer offset coefficient	1,0000multiplexer slope coefficient	1,0000fibre end	0,00T internal ref (°C)	22,57T ext. ref 1 (°C)	6,35T ext. ref 2 (°C)	6,35length (m)	temperature (°C)	Stokes	anti-Stokes-744,400	197,518	-0,051	-0,058
-743,385	-17,872	-0,240	0,112
-742,371	-126,668	0,078	-0,008
-741,356	67,493	-0,168	0,128
-740,342	42,086	0,086	-0,058
-739,327	-116,831	-0,188	0,025
-738,312	-121,367	0,156	-0,019
-737,298	-34,542	-0,309	0,126
-736,283	-200,000	0,035	-0,151
-735,269	-52,024	-0,167	0,058
-734,254	-200,000	0,009	0,037
-733,239	-112,147	-0,343	-0,051
-732,225	-53,374	0,111	0,038
-731,210	15,306	0,033	0,020
-730,196	701,336	0,029	-0,057
-729,181	-64,608	-0,049	-0,015
-728,167	-200,000	-0,003	0,032
-727,152	119,098	-0,060	-0,055
-726,137	800,000	-0,017	-0,040
-725,123	310,081	0,046	-0,064
-724,108	187,617	-0,056	-0,062
-723,094	-186,123	-0,110	0,001
-722,079	-200,000	-0,033	-0,162
-721,064	-45,175	-0,097	-0,036
-720,050	-200,000	0,006	0,280
-719,035	-200,000	-0,002	0,066
-718,021	-84,215	-0,045	0,011
-717,006	-200,000	-0,034	-0,152
-715,991	-200,000	-0,017	-0,212
-714,977	742,889	-0,061	-0,122
-713,962	-116,639	-0,184	-0,025
-712,948	-44,436	0,094	0,035
-711,933	800,000	-0,016	-0,044
-710,918	-200,000	-0,005	-0,099
-709,904	800,000	0,085	-0,184
-708,889	689,385	-0,086	-0,169
-707,875	769,948	-0,013	-0,026
-706,860	320,223	-0,063	0,089
-705,845	800,000	-0,031	0,070
-704,831	-136,114	0,138	0,012
-703,816	-200,000	-0,007	0,032
-702,802	91,578	0,065	-0,055
-701,787	-114,724	-0,095	-0,013
-700,772	-125,894	0,050	-0,006
-699,758	302,081	0,057	-0,078
-698,743	-200,000	0,022	0,092
-697,729	-115,305	0,152	0,021
-696,714	-200,000	0,030	0,140
-695,699	-200,000	-0,011	-0,060
-694,685	228,165	0,061	0,075
-693,670	76,637	0,061	0,048
-692,656	800,000	0,012	0,025
-691,641	413,156	-0,070	0,111
-690,627	-200,000	0,029	0,120
-689,612	-25,301	0,039	-0,017
-688,597	30,719	-0,088	0,056
-687,583	-200,000	-0,026	-0,135
-686,568	-32,950	0,144	-0,059
-685,554	137,222	-0,085	0,083
-684,539	580,446	0,060	-0,110
-683,524	57,972	-0,099	0,072
-682,510	98,582	-0,045	0,038
-681,495	-11,131	-0,072	-0,035
-680,481	800,000	-0,013	-0,034
-679,466	800,000	-0,052	-0,112
-678,451	236,721	-0,064	-0,079
-677,437	-200,000	0,033	0,163
-676,422	800,000	-0,026	-0,059
-675,408	-200,000	-0,009	0,060
-674,393	27,610	-0,051	-0,032
-673,378	800,000	0,022	0,058
-672,364	-78,299	0,129	-0,033
-671,349	-9,585	-0,064	-0,032
-670,335	106,351	0,038	-0,033
-669,320	329,980	-0,055	-0,078
-668,305	332,730	-0,090	0,129
-667,291	124,725	0,130	0,122
-666,276	90,302	0,051	-0,042
-665,262	-17,255	-0,250	-0,117
-664,247	-200,000	-0,006	0,079
-663,232	-29,173	-0,111	0,047
-662,218	-200,000	-0,007	0,049
-661,203	800,000	-0,011	0,024
-660,189	-200,000	0,013	-0,056
-659,174	-200,000	0,016	-0,079
-658,159	-58,231	-0,078	0,025
-657,145	12,976	-0,107	-0,061
-656,130	-102,508	-0,092	-0,016
-655,116	410,923	-0,053	0,085
-654,101	590,281	-0,027	-0,050
-653,086	67,036	0,019	-0,015
-652,072	344,855	-0,069	-0,101
-651,057	-26,853	-0,190	-0,082
-650,043	204,942	-0,061	-0,071
-649,028	337,509	0,040	-0,058
-648,014	-200,000	-0,023	-0,122
-646,999	-79,011	0,102	-0,026
-645,984	-26,329	-0,021	0,009
-644,970	-100,064	0,046	-0,008
-643,955	-86,711	-0,069	-0,016
-642,941	-13,778	0,032	0,015
-641,926	209,154	0,052	-0,060
-640,911	11,566	0,127	0,072
-639,897	-200,000	-0,012	0,152
-638,882	-200,000	-0,036	-0,141
-637,868	-200,000	-0,005	-0,086
-636,853	155,258	-0,055	-0,057
-635,838	-40,365	-0,168	0,064
-634,824	-200,000	0,001	-0,082
-633,809	18,549	0,109	-0,065
-632,795	-200,000	0,011	0,108
-631,780	50,200	0,117	0,082
-630,765	111,944	0,129	-0,116
-629,751	-101,752	-0,098	-0,018
-628,736	-94,600	-0,046	0,009
-627,722	-200,000	-0,008	-0,063
-626,707	-200,000	0,004	0,085
-625,692	368,251	0,059	-0,088
-624,678	516,833	0,041	0,071
-623,663	-46,290	-0,090	-0,033
-622,649	515,723	-0,038	-0,067
-621,634	800,000	-0,040	0,104
-620,619	52,881	-0,119	-0,084
-619,605	-200,000	-0,020	-0,080
-618,590	-200,000	-0,023	0,094
-617,576	-169,610	-0,028	0,001
-616,561	10,215	-0,053	0,030
-615,546	508,905	-0,035	-0,060
-614,532	800,000	-0,043	-0,103
-613,517	396,936	-0,073	-0,113
-612,503	-89,776	0,098	-0,021
-611,488	635,966	0,068	-0,129
-610,474	662,103	0,020	-0,038
-609,459	800,000	-0,031	-0,064
-608,444	-25,043	-0,103	-0,045
-607,430	-200,000	-0,025	0,105
-606,415	-121,794	-0,097	0,012
-605,401	-200,000	-0,003	-0,183
-604,386	-200,000	-0,012	-0,059
-603,371	-93,143	-0,102	-0,021
-602,357	-117,560	0,046	0,006
-601,342	-200,000	0,027	-0,092
-600,328	168,609	0,027	-0,029
-599,313	26,200	0,130	-0,081
-598,298	-87,268	0,079	-0,018
-597,284	115,486	0,067	0,061
-596,269	-200,000	-0,009	-0,139
-595,255	-200,000	0,010	0,079
-594,240	-77,704	0,033	0,008
-593,225	133,191	-0,086	-0,083
-592,211	-69,402	-0,085	0,024
-591,196	418,820	-0,056	0,088
-590,182	-87,943	0,104	0,023
-589,167	-36,294	-0,070	-0,028
-588,152	-174,882	0,087	-0,002
-587,138	800,000	-0,040	-0,092
-586,123	240,228	-0,043	-0,053
-585,109	-200,000	0,045	-0,198
-584,094	-41,349	-0,107	0,041
-583,079	-107,307	0,152	-0,025
-582,065	800,000	0,025	0,051
-581,050	-200,000	-0,003	0,051
-580,036	800,000	0,018	-0,055
-579,021	-200,000	0,005	-0,045
-578,006	43,677	-0,069	0,047
-576,992	73,479	-0,104	0,080
-575,977	351,278	-0,046	-0,067
-574,963	258,094	0,062	0,079
-573,948	470,372	0,024	0,040
-572,934	800,000	0,029	-0,070
-571,919	800,000	-0,041	-0,134
-570,904	29,831	-0,050	-0,032
-569,890	44,883	-0,089	-0,061
-568,875	-200,000	-0,001	0,048
-567,861	-24,000	0,102	-0,045
-566,846	-123,233	0,110	0,013
-565,831	101,914	-0,140	0,121
-564,817	-17,112	0,040	-0,019
-563,802	386,513	-0,035	-0,054
-562,788	116,960	-0,120	-0,109
-561,773	-200,000	-0,011	-0,112
-560,758	-200,000	-0,032	-0,143
-559,744	-72,728	0,085	-0,023
-558,729	-200,000	0,008	-0,063
-557,715	582,593	0,008	0,015
-556,700	-200,000	0,014	0,063
-555,685	177,695	-0,047	-0,050
-554,671	192,890	-0,083	-0,092
-553,656	49,696	-0,141	-0,098
-552,642	-200,000	-0,012	0,093
-551,627	-200,000	0,018	-0,070
-550,612	29,039	-0,050	-0,031
-549,598	66,745	0,070	0,053
-548,583	327,019	-0,104	-0,148
-547,569	392,569	-0,071	-0,110
-546,554	201,159	0,040	-0,046
-545,539	800,000	0,035	0,081
-544,525	-133,133	-0,180	-0,017
-543,510	768,734	-0,050	-0,100
-542,496	96,625	-0,076	-0,064
-541,481	-125,141	-0,118	0,013
-540,466	-200,000	-0,008	-0,122
-539,452	33,979	-0,057	-0,037
-538,437	-120,604	0,074	-0,009
-537,423	20,563	-0,018	0,011
-536,408	-48,666	-0,061	-0,022
-535,393	-100,168	0,023	-0,004
-534,379	-200,000	0,005	0,028
-533,364	-7,583	0,024	0,012
-532,350	123,977	0,090	0,084
-531,335	237,570	0,006	-0,007
-530,321	-44,409	0,067	-0,025
-529,306	800,000	0,026	0,075
-528,291	800,000	-0,062	-0,182
-527,277	-200,000	-0,016	-0,056
-526,262	-97,271	-0,065	-0,012
-525,248	-89,366	-0,067	-0,014
-524,233	-200,000	-0,013	0,104
-523,218	174,173	0,060	-0,064
-522,204	83,084	-0,063	-0,051
-521,189	-41,458	-0,056	-0,021
-520,175	800,000	0,014	0,032
-519,160	93,595	0,012	-0,010
-518,145	-108,610	0,123	-0,019
-517,131	-163,384	0,189	-0,007
-516,116	341,272	-0,003	-0,005
-515,102	286,997	-0,023	0,031
-514,087	-6,137	0,170	0,085
-513,072	68,872	-0,036	0,027
-512,058	-200,000	-0,009	-0,059
-511,043	-107,095	0,143	-0,023
-510,029	102,807	-0,084	-0,073
-509,014	-161,654	0,022	0,001
-507,999	-200,000	-0,003	0,167
-506,985	654,312	-0,057	-0,108
-505,970	-200,000	0,001	-0,216
-504,956	-121,868	-0,101	-0,012
-503,941	-23,574	0,011	-0,005
-502,926	-200,000	-0,001	0,139
-501,912	-200,000	0,052	0,186
-500,897	414,950	-0,011	0,017
-499,883	800,000	-0,029	-0,074
-498,868	101,517	0,047	0,040
-497,853	-67,260	-0,031	-0,009
-496,839	-42,115	-0,158	0,059
-495,824	312,887	0,068	0,095
-494,810	-200,000	0,004	0,123
-493,795	61,309	0,096	0,070
-492,781	-200,000	0,008	0,028
-491,766	111,223	-0,013	0,011
-490,751	-200,000	0,018	-0,148
-489,737	111,396	0,037	0,033
-488,722	125,221	-0,012	-0,011
-487,708	30,565	-0,098	0,062
-486,693	-153,931	-0,018	-0,001
-485,678	800,000	0,050	0,123
-484,664	442,991	-0,061	-0,098
-483,649	-200,000	-0,037	-0,129
-482,635	800,000	0,029	-0,090
-481,620	800,000	-0,054	0,112
-480,605	-200,000	0,005	-0,025
-479,591	281,637	0,034	-0,045
-478,576	800,000	0,065	0,188
-477,562	280,257	-0,064	-0,085
-476,547	-200,000	-0,011	-0,064
-475,532	-200,000	0,024	-0,130
-474,518	-200,000	-0,030	-0,139
-473,503	548,824	0,071	-0,127
-472,489	-85,997	0,106	0,024
-471,474	800,000	-0,011	-0,029
-470,459	85,691	-0,102	0,083
-469,445	191,224	0,095	0,105
-468,430	89,992	-0,042	-0,035
-467,416	160,692	-0,087	-0,089
-466,401	-200,000	0,035	0,177
-465,386	-200,000	-0,023	-0,122
-464,372	-69,133	-0,122	0,034
-463,357	-200,000	-0,007	0,050
-462,343	-118,715	-0,051	0,007
-461,328	-146,346	0,124	0,008
-460,313	-64,104	-0,064	0,019
-459,299	167,035	-0,049	-0,051
-458,284	-200,000	-0,008	0,055
-457,270	402,421	-0,058	0,091
-456,255	209,584	-0,053	0,062
-455,241	227,839	-0,013	0,016
-454,226	193,064	0,061	0,068
-453,211	-63,397	0,049	0,015
-452,197	149,038	0,062	0,062
-451,182	-9,859	-0,049	0,024
-450,168	175,971	-0,066	-0,071
-449,153	-200,000	0,011	0,074
-448,138	-10,764	0,042	-0,020
-447,124	-200,000	0,008	0,100
-446,109	7,556	0,095	0,052
-445,095	-108,209	-0,066	-0,010
-444,080	90,555	-0,049	0,041
-443,065	-101,140	0,137	0,024
-442,051	131,801	-0,103	0,098
-441,036	800,000	-0,017	0,038
-440,022	-56,321	-0,063	-0,020
-439,007	-15,648	-0,021	-0,010
-437,992	45,682	0,139	0,094
-436,978	-200,000	0,001	-0,013
-435,963	-200,000	0,010	0,033
-434,949	-200,000	0,004	-0,018
-433,934	800,000	0,045	-0,145
-432,919	800,000	-0,027	-0,064
-431,905	-135,952	-0,031	-0,003
-430,890	-67,324	-0,081	0,023
-429,876	75,026	0,123	0,095
-428,861	-49,384	-0,146	0,051
-427,846	-200,000	0,034	0,126
-426,832	291,903	-0,113	0,152
-425,817	-200,000	0,014	0,081
-424,803	270,467	-0,028	-0,036
-423,788	-130,119	0,058	0,006
-422,773	361,041	-0,063	0,093
-421,759	-200,000	0,023	0,149
-420,744	53,718	-0,131	0,093
-419,730	-200,000	0,001	0,039
-418,715	18,459	-0,087	0,051
-417,701	-200,000	-0,046	-0,169
-416,686	-51,177	0,084	0,029
-415,671	-89,632	0,063	-0,013
-414,657	473,557	0,035	0,059
-413,642	800,000	0,050	0,114
-412,628	-0,780	-0,111	0,058
-411,613	-200,000	-0,018	0,234
-410,598	33,234	-0,045	0,029
-409,584	-67,229	0,137	-0,039
-408,569	-53,494	-0,146	-0,049
-407,555	9,813	0,048	-0,027
-406,540	462,553	-0,025	0,041
-405,525	-0,365	-0,138	-0,072
-404,511	139,672	-0,147	-0,142
-403,496	800,000	-0,046	0,099
-402,482	-200,000	-0,042	0,139
-401,467	-200,000	0,022	0,102
-400,452	-172,414	0,072	-0,002
-399,438	110,870	0,022	-0,020
-398,423	24,774	-0,056	-0,034
-397,409	-200,000	0,026	-0,096
-396,394	141,885	-0,130	-0,126
-395,379	-156,236	0,117	-0,005
-394,365	800,000	0,068	0,157
-393,350	49,957	0,147	0,102
-392,336	-200,000	-0,006	-0,058
-391,321	800,000	-0,044	0,098
-390,306	-200,000	-0,001	0,061
-389,292	-137,190	0,075	0,006
-388,277	-155,732	-0,074	0,003
-387,263	113,487	-0,089	0,079
-386,248	38,732	0,073	-0,048
-385,233	-200,000	0,037	-0,141
-384,219	80,046	-0,081	0,064
-383,204	-200,000	0,011	0,074
-382,190	-124,291	0,168	0,019
-381,175	-200,000	-0,002	0,044
-380,160	-98,654	0,144	-0,027
-379,146	155,362	-0,039	-0,039
-378,131	800,000	0,034	0,095
-377,117	-200,000	-0,001	-0,017
-376,102	-200,000	0,020	-0,105
-375,088	-200,000	-0,018	0,093
-374,073	779,383	0,045	-0,090
-373,058	-200,000	0,029	-0,154
-372,044	-76,083	0,050	0,013
-371,029	800,000	-0,033	0,068
-370,015	544,392	0,083	0,146
-369,000	135,051	0,071	-0,068
-367,985	200,771	0,097	0,109
-366,971	800,000	-0,036	0,084
-365,956	30,997	0,133	-0,084
-364,942	77,730	0,076	0,059
-363,927	-200,000	-0,030	0,101
-362,912	569,704	-0,017	-0,030
-361,898	156,887	-0,078	-0,079
-360,883	800,000	-0,079	-0,169
-359,869	212,706	0,118	-0,137
-358,854	292,748	0,025	-0,033
-357,839	171,000	0,088	0,092
-356,825	332,713	0,019	0,027
-355,810	-200,000	-0,009	0,071
-354,796	-200,000	-0,015	0,054
-353,781	-100,747	0,049	-0,009
-352,766	268,774	0,011	-0,014
-351,752	252,962	0,055	0,069
-350,737	302,389	-0,041	0,056
-349,723	72,580	0,063	0,048
-348,708	-200,000	0,003	-0,122
-347,693	-137,867	0,054	0,004
-346,679	-100,278	0,046	0,008
-345,664	-24,402	0,114	-0,050
-344,650	450,004	0,042	0,068
-343,635	474,777	0,097	0,161
-342,620	205,455	-0,067	0,076
-341,606	-148,213	0,085	0,005
-340,591	213,078	-0,071	0,082
-339,577	114,460	-0,131	-0,117
-338,562	38,330	-0,156	-0,102
-337,548	-46,938	0,053	-0,019
-336,533	-5,257	0,035	-0,018
-335,518	236,583	-0,012	-0,014
-334,504	-200,000	0,021	0,158
-333,489	-42,504	0,018	0,007
-332,475	-51,269	0,088	0,030
-331,460	-200,000	-0,017	0,127
-330,445	233,081	0,093	0,112
-329,431	415,843	-0,091	0,143
-328,416	-93,731	0,102	0,020
-327,402	800,000	-0,054	0,121
-326,387	-66,074	0,095	-0,028
-325,372	63,040	0,041	0,030
-324,358	599,310	0,059	-0,108
-323,343	-200,000	0,010	0,172
-322,329	-200,000	0,049	0,281
-321,314	-200,000	-0,016	0,067
-320,299	-16,509	-0,065	0,030
-319,285	-200,000	-0,012	0,046
-318,270	44,042	-0,042	0,028
-317,256	-126,107	-0,091	-0,010
-316,241	4,530	-0,084	-0,045
-315,226	104,492	0,072	0,062
-314,212	362,194	0,072	0,106
-313,197	-37,255	0,078	0,031
-312,183	-90,623	-0,107	-0,023
-311,168	-96,496	0,006	-0,001
-310,153	320,693	0,014	-0,019
-309,139	222,532	-0,047	-0,056
-308,124	69,311	-0,137	-0,103
-307,110	800,000	0,015	0,040
-306,095	800,000	-0,028	0,064
-305,080	-8,489	-0,082	0,040
-304,066	-30,973	-0,105	-0,043
-303,051	-170,969	0,041	-0,001
-302,037	504,197	0,035	-0,060
-301,022	12,094	-0,120	-0,067
-300,008	-200,000	0,012	-0,073
-298,993	157,586	0,036	-0,036
-297,978	39,076	-0,070	-0,046
-296,964	147,566	0,026	-0,025
-295,949	-200,000	0,022	-0,099
-294,935	800,000	-0,040	0,100
-293,920	336,763	0,109	0,155
-292,905	79,704	-0,033	-0,026
-291,891	-200,000	0,009	0,094
-290,876	-110,180	0,049	-0,007
-289,862	-200,000	0,005	-0,096
-288,847	-200,000	0,033	-0,224
-287,832	258,109	-0,059	-0,075
-286,818	-142,219	-0,130	-0,009
-285,803	-82,288	0,103	0,024
-284,789	56,728	-0,055	0,039
-283,774	222,324	0,079	0,094
-282,759	196,456	0,087	-0,097
-281,745	36,099	0,037	-0,024
-280,730	800,000	0,026	-0,061
-279,716	800,000	-0,075	-0,210
-278,701	800,000	-0,012	0,033
-277,686	-200,000	0,013	0,050
-276,672	-160,009	0,050	-0,002
-275,657	-112,806	-0,085	0,012
-274,643	117,789	-0,151	-0,136
-273,628	800,000	0,021	-0,059
-272,613	-30,283	-0,073	0,030
-271,599	-200,000	-0,004	-0,027
-270,584	480,687	0,050	0,083
-269,570	67,447	0,081	0,060
-268,555	-200,000	-0,006	-0,046
-267,540	-98,787	-0,089	0,016
-266,526	32,865	0,045	-0,028
-265,511	157,230	-0,079	-0,080
-264,497	-50,955	-0,021	-0,007
-263,482	382,805	-0,061	0,092
-262,467	-92,500	0,085	-0,017
-261,453	180,679	-0,100	0,108
-260,438	-200,000	0,025	0,096
-259,424	-154,377	-0,118	0,006
-258,409	-200,000	0,003	0,083
-257,395	-92,592	0,045	0,009
-256,380	-9,130	0,102	0,050
-255,365	556,850	-0,041	-0,072
-254,351	-200,000	0,015	0,136
-253,336	111,364	0,037	0,032
-252,322	-200,000	-0,002	0,036
-251,307	-162,932	0,162	-0,006
-250,292	-80,532	-0,147	0,036
-249,278	800,000	-0,014	-0,036
-248,263	800,000	-0,010	0,023
-247,249	26,549	0,015	0,009
-246,234	-22,282	-0,078	0,034
-245,219	298,735	-0,053	-0,071
-244,205	85,712	0,119	-0,096
-243,190	-79,166	-0,060	0,015
-242,176	2,291	0,026	-0,014
-241,161	-200,000	0,032	-0,155
-240,146	-51,222	0,023	-0,008
-239,132	-123,446	0,060	-0,007
-238,117	44,981	0,069	0,046
-237,103	-200,000	0,015	-0,066
-236,088	131,859	-0,044	0,041
-235,073	78,976	-0,034	-0,027
-234,059	-200,000	-0,032	0,132
-233,044	-99,917	0,070	0,013
-232,030	44,285	0,078	0,052
-231,015	-200,000	0,004	-0,020
-230,000	353,113	-0,033	0,047
-228,986	-200,000	0,011	0,142
-227,971	-200,000	0,002	0,088
-226,957	457,882	0,052	-0,085
-225,942	-78,109	0,051	0,013
-224,927	-200,000	-0,017	-0,123
-223,913	187,461	0,067	0,073
-222,898	481,608	0,039	0,065
-221,884	-200,000	-0,024	-0,106
-220,869	83,096	-0,072	-0,057
-219,855	399,113	0,050	-0,076
-218,840	100,294	-0,085	-0,072
-217,825	30,595	0,068	0,042
-216,811	-23,640	-0,057	-0,025
-215,796	-162,084	0,017	0,001
-214,782	-111,158	0,077	0,011
-213,767	-200,000	0,009	-0,092
-212,752	-200,000	-0,033	0,137
-211,738	41,368	0,052	-0,034
-210,723	50,761	0,023	-0,016
-209,709	131,969	-0,043	-0,040
-208,694	-200,000	-0,006	-0,056
-207,679	24,003	0,152	-0,091
-206,665	259,434	0,068	0,086
-205,650	-200,000	-0,041	0,167
-204,636	-88,723	0,081	-0,017
-203,621	360,913	-0,032	0,047
-202,606	61,835	0,098	-0,071
-201,592	-200,000	-0,001	0,043
-200,577	68,854	-0,029	-0,022
-199,563	169,009	-0,029	-0,030
-198,548	-141,267	0,054	-0,004
-197,533	-200,000	0,014	0,142
-196,519	-110,852	0,051	0,008
-195,504	-103,610	0,109	0,019
-194,490	51,971	-0,128	0,089
-193,475	-67,845	-0,057	-0,016
-192,460	-200,000	0,020	-0,150
-191,446	800,000	0,015	-0,046
-190,431	-142,109	0,153	-0,011
-189,417	509,826	0,078	0,133
-188,402	154,452	-0,068	-0,068
-187,387	410,267	-0,035	-0,054
-186,373	-92,353	0,040	-0,008
-185,358	-200,000	0,016	0,073
-184,344	800,000	-0,048	0,152
-183,329	181,851	0,068	-0,073
-182,315	800,000	0,047	0,114
-181,300	-15,393	-0,047	0,022
-180,285	2,631	-0,115	0,061
-179,271	257,499	0,064	-0,080
-178,256	-94,467	0,023	-0,005
-177,242	-108,628	0,041	-0,006
-176,227	5,009	-0,123	-0,066
-175,212	71,699	0,024	-0,018
-174,198	-42,743	-0,211	0,078
-173,183	-200,000	0,030	-0,171
-172,169	-200,000	-0,007	-0,174
-171,154	145,115	-0,056	-0,055
-170,139	158,145	-0,072	0,072
-169,125	262,304	0,022	-0,028
-168,110	1,741	0,174	-0,091
-167,096	505,815	-0,029	-0,050
-166,081	126,588	-0,081	-0,075
-165,066	-200,000	-0,023	-0,096
-164,052	800,000	-0,013	-0,033
-163,037	-102,689	0,100	-0,017
-162,023	333,238	0,034	0,049
-161,008	122,640	0,063	0,057
-159,993	112,516	-0,019	0,016
-158,979	15,093	0,045	-0,026
-157,964	-38,557	0,103	0,040
-156,950	-200,000	-0,005	-0,099
-155,935	-200,000	0,019	0,095
-154,920	73,140	-0,108	0,082
-153,906	-59,778	0,079	-0,024
-152,891	46,083	-0,085	0,057
-151,877	800,000	0,056	0,166
-150,862	-118,147	0,096	-0,012
-149,847	257,603	-0,071	-0,089
-148,833	340,505	0,054	-0,077
-147,818	67,526	0,120	-0,089
-146,804	10,312	0,004	-0,002
-145,789	-163,617	-0,121	0,004
-144,775	-92,796	0,100	-0,020
-143,760	167,560	0,013	-0,014
-142,745	800,000	-0,022	-0,057
-141,731	-35,874	0,188	-0,074
-140,716	-200,000	0,015	-0,104
-139,702	121,898	0,172	0,156
-138,687	-113,393	0,152	0,021
-137,672	800,000	0,051	-0,123
-136,658	-200,000	0,005	0,039
-135,643	-64,088	0,046	0,014
-134,629	-200,000	0,000	0,157
-133,614	89,885	-0,061	0,049
-132,599	-109,129	-0,106	0,016
-131,585	-200,000	-0,018	0,144
-130,570	330,713	-0,080	-0,113
-129,556	-200,000	-0,009	0,071
-128,541	-71,874	0,052	0,014
-127,526	172,645	-0,079	-0,082
-126,512	800,000	-0,005	-0,013
-125,497	393,905	-0,052	0,079
-124,483	-20,270	-0,093	0,041
-123,468	-165,657	0,114	0,004
-122,453	-120,977	0,206	0,025
-121,439	202,683	0,071	0,080
-120,424	221,325	-0,014	0,016
-119,410	231,058	0,048	-0,057
-118,395	800,000	-0,035	0,088
-117,380	-200,000	0,008	0,194
-116,366	800,000	0,030	0,075
-115,351	531,158	-0,020	-0,034
-114,337	-22,956	-0,117	-0,051
-113,322	-44,677	0,062	-0,022
-112,307	800,000	0,054	-0,140
-111,293	204,694	0,057	0,065
-110,278	-37,838	-0,135	0,052
-109,264	-54,799	-0,151	0,049
-108,249	800,000	-0,011	-0,027
-107,234	153,498	0,111	-0,111
-106,220	-165,264	-0,135	-0,004
-105,205	-88,929	0,087	-0,019
-104,191	-6,263	0,125	0,062
-103,176	117,838	0,044	-0,039
-102,162	800,000	0,016	-0,044
-101,147	-175,514	-0,114	-0,002
-100,132	-174,384	0,036	0,001
-99,118	800,000	-0,031	0,062
-98,103	-65,131	0,102	0,030
-97,089	-97,353	0,058	-0,011
-96,074	-30,553	0,066	-0,027
-95,059	122,029	0,075	0,068
-94,045	800,000	0,009	0,025
-93,030	40,400	-0,184	-0,120
-92,016	68,055	0,029	-0,022
-91,001	-23,236	0,147	0,064
-89,986	800,000	0,030	-0,064
-88,972	800,000	0,026	-0,057
-87,957	296,141	-0,052	-0,070
-86,943	23,296	-0,028	0,017
-85,928	-200,000	0,006	-0,057
-84,913	800,000	-0,049	-0,108
-83,899	207,387	-0,080	-0,091
-82,884	-39,870	-0,145	-0,055
-81,870	128,602	0,108	-0,100
-80,855	800,000	-0,028	-0,069
-79,840	14,985	-0,093	0,053
-78,826	-200,000	-0,001	0,005
-77,811	278,270	-0,021	0,027
-76,797	198,101	-0,035	0,039
-75,782	54,586	0,088	0,061
-74,767	-91,987	0,066	-0,013
-73,753	214,888	-0,062	-0,072
-72,738	587,598	-0,064	-0,114
-71,724	-200,000	0,024	-0,117
-70,709	539,835	0,025	-0,043
-69,694	-116,076	-0,100	0,013
-68,680	-134,097	-0,162	-0,014
-67,665	-22,600	0,141	0,061
-66,651	154,755	0,042	-0,042
-65,636	-80,570	0,089	0,021
-64,622	38,448	0,033	0,021
-63,607	31,830	0,078	0,049
-62,592	800,000	-0,041	-0,106
-61,578	-138,631	0,099	0,008
-60,563	-104,679	-0,019	0,003
-59,549	40,547	-0,049	0,032
-58,534	-158,439	-1,335	-0,055
-57,519	788,268	-0,792	-1,586
-56,505	-200,000	-1,029	-4,403
-55,490	47,493	0,564	-0,381
-54,476	800,000	4,978	11,896
-53,461	-200,000	13,355	253,244
-52,446	-200,000	689,222	2268,775
-51,432	595,359	1623,019	2926,456
-50,417	120,769	1635,955	1475,824
-49,403	73,599	1290,035	979,445
-48,388	38,400	1025,131	661,458
-47,373	24,481	982,606	588,222
-46,359	23,776	972,365	579,756
-45,344	22,825	968,032	574,042
-44,330	22,719	966,531	572,780
-43,315	22,651	965,289	571,800
-42,300	22,618	964,218	571,037
-41,286	22,673	963,158	570,566
-40,271	22,605	962,158	569,730
-39,257	22,559	961,311	569,055
-38,242	22,578	960,321	568,508
-37,227	22,608	959,498	568,096
-36,213	22,547	958,695	567,398
-35,198	22,585	957,733	566,930
-34,184	22,567	957,145	566,501
-33,169	22,532	956,288	565,859
-32,154	22,638	955,329	565,610
-31,140	22,662	954,419	565,127
-30,125	22,570	953,735	564,404
-29,111	22,632	952,911	564,093
-28,096	22,629	952,146	563,608
-27,082	22,623	951,459	563,161
-26,067	22,589	950,796	562,636
-25,052	22,641	949,984	562,300
-24,038	22,616	949,354	561,826
-23,023	22,575	948,763	561,322
-22,009	22,669	948,050	561,179
-20,994	22,651	947,475	560,758
-19,979	22,658	946,730	560,316
-18,965	22,610	946,354	559,918
-17,950	22,611	945,557	559,429
-16,936	22,560	944,983	558,904
-15,921	22,574	944,093	558,399
-14,906	22,535	943,415	557,852
-13,892	22,504	942,814	557,377
-12,877	22,521	942,231	557,062
-11,863	22,528	941,702	556,749
-10,848	22,487	941,167	556,284
-9,833	22,576	940,625	556,224
-8,819	22,582	939,902	555,793
-7,804	22,511	939,169	555,111
-6,790	22,464	938,871	554,763
-5,775	22,517	938,165	554,491
-4,760	22,507	937,452	554,017
-3,746	22,534	936,888	553,749
-2,731	22,354	936,348	552,837
-1,717	22,346	935,518	552,302
-0,702	22,344	934,706	551,794
0,313	22,088	934,163	551,499
1,327	25,229	932,058	560,086
2,342	34,740	796,690	504,089
3,356	32,594	451,859	282,644
4,371	1,807	293,676	152,993
5,386	-2,606	274,663	138,900
6,400	-4,245	268,714	134,361
7,415	-4,665	266,293	132,752
8,429	-4,394	265,173	132,430
9,444	-4,388	264,292	131,983
10,459	-4,209	263,597	131,787
11,473	-4,378	263,003	131,325
12,488	-4,390	262,538	131,070
13,502	-4,632	262,067	130,605
14,517	-4,307	261,496	130,602
15,531	-4,458	261,306	130,359
16,546	-4,400	260,833	130,164
17,561	-4,345	260,456	130,013
18,575	-4,352	260,207	129,871
19,590	-4,439	259,777	129,567
20,604	-4,394	259,530	129,472
21,619	-4,390	259,295	129,347
22,634	-4,520	258,840	128,993
23,648	-4,381	258,633	129,002
24,663	-4,447	258,357	128,794
25,677	-4,427	258,186	128,716
26,692	-4,395	257,789	128,534
27,707	-4,341	257,563	128,458
28,721	-4,611	257,420	128,136
29,736	-4,591	257,131	127,999
30,750	-4,782	256,911	127,709
31,765	-4,481	256,620	127,818
32,780	-4,604	256,452	127,615
33,794	-4,525	256,368	127,631
34,809	-4,423	255,782	127,418
35,823	-4,445	255,608	127,300
36,838	-4,455	255,467	127,210
37,853	-4,378	255,127	127,097
38,867	-4,580	255,023	126,857
39,882	-4,521	254,767	126,770
40,896	-4,466	254,583	126,715
41,911	-4,454	254,305	126,576
42,926	-4,431	254,115	126,490
43,940	-4,646	254,117	126,292
44,955	-4,390	253,571	126,233
45,969	-4,465	253,301	126,022
46,984	-4,627	253,138	125,788
47,999	-4,838	252,888	125,470
49,013	-5,190	252,608	125,013
50,028	-5,444	252,499	124,728
51,042	-5,332	252,140	124,637
52,057	-5,371	252,016	124,530
53,071	-5,332	251,737	124,415
54,086	-5,068	251,573	124,551
55,101	-4,962	251,416	124,554
56,115	-4,856	251,371	124,612
57,130	-4,618	251,356	124,799
58,144	-4,048	251,010	125,108
59,159	-4,248	250,749	124,794
60,174	-4,477	250,662	124,543
61,188	-4,302	250,400	124,552
62,203	-4,270	250,146	124,442
63,217	-4,380	250,002	124,265
64,232	-4,364	249,830	124,182
65,247	-4,227	249,412	124,081
66,261	-4,433	249,464	123,919
67,276	-4,569	249,009	123,565
68,290	-4,642	248,875	123,426
69,305	-5,040	248,588	122,933
70,320	-4,708	248,363	123,094
71,334	-4,541	248,284	123,186
72,349	-4,362	248,197	123,284
73,363	-4,443	248,110	123,161
74,378	-4,313	247,789	123,101
75,393	-4,289	247,458	122,946
76,407	-4,374	247,450	122,858
77,422	-4,352	247,180	122,733
78,436	-4,346	247,003	122,639
79,451	-4,334	246,594	122,435
80,466	-4,419	246,465	122,288
81,480	-4,362	246,213	122,200
82,495	-4,551	246,026	121,937
83,509	-4,584	245,941	121,856
84,524	-4,632	245,779	121,725
85,539	-4,862	245,498	121,381
86,553	-4,950	245,418	121,257
87,568	-4,601	245,208	121,436
88,582	-4,799	244,953	121,132
89,597	-4,861	244,902	121,044
90,611	-4,483	244,710	121,255
91,626	-4,389	244,640	121,289
92,641	-4,430	244,346	121,098
93,655	-4,463	244,078	120,927
94,670	-4,556	244,040	120,819
95,684	-4,363	243,789	120,845
96,699	-4,734	243,529	120,397
97,714	-4,548	243,298	120,426
98,728	-4,462	243,002	120,340
99,743	-4,846	242,934	119,977
100,757	-4,807	242,647	119,857
101,772	-4,935	242,584	119,708
102,787	-4,661	242,303	119,787
103,801	-4,633	242,239	119,768
104,816	-4,552	242,074	119,742
105,830	-4,651	242,043	119,634
106,845	-4,259	241,879	119,867
107,860	-4,224	241,502	119,698
108,874	-4,502	241,360	119,388
109,889	-4,712	241,178	119,114
110,903	-4,610	241,027	119,113
111,918	-4,576	240,742	118,989
112,933	-4,486	240,640	119,003
113,947	-4,540	240,494	118,875
114,962	-4,454	240,397	118,887
115,976	-4,487	240,309	118,806
116,991	-4,511	239,986	118,616
118,006	-4,536	239,863	118,524
119,020	-4,467	239,696	118,488
120,035	-4,201	239,412	118,554
121,049	-4,409	239,405	118,371
122,064	-4,363	239,377	118,383
123,079	-4,330	238,981	118,204
124,093	-4,539	238,755	117,911
125,108	-4,683	238,488	117,652
126,122	-4,925	238,438	117,419
127,137	-5,043	238,139	117,165
128,151	-4,769	237,887	117,254
129,166	-4,492	237,857	117,453
130,181	-4,813	237,538	117,025
131,195	-4,788	237,544	117,037
132,210	-4,817	237,417	116,941
133,224	-4,633	237,308	117,026
134,239	-4,515	237,152	117,035
135,254	-4,387	236,895	117,001
136,268	-4,329	236,616	116,899
137,283	-4,853	236,311	116,315
138,297	-4,864	236,127	116,205
139,312	-5,124	236,109	115,976
140,327	-4,553	235,869	116,308
141,341	-4,287	236,022	116,588
142,356	-4,321	235,847	116,463
143,370	-4,176	235,670	116,482
144,385	-4,140	235,427	116,380
145,400	-4,146	235,297	116,301
146,414	-3,989	235,120	116,329
147,429	-4,191	234,925	116,060
148,443	-4,080	234,684	116,020
149,458	-4,213	234,626	115,875
150,473	-4,069	234,344	115,840
151,487	-4,405	234,247	115,514
152,502	-4,189	234,039	115,573
153,516	-4,017	233,969	115,665
154,531	-4,332	233,807	115,324
155,546	-4,003	233,560	115,454
156,560	-4,413	233,448	115,062
157,575	-4,368	233,151	114,940
158,589	-4,249	233,047	114,974
159,604	-4,127	232,998	115,036
160,619	-4,038	232,766	114,982
161,633	-4,070	232,632	114,880
162,648	-3,995	232,454	114,841
163,662	-4,169	232,390	114,662
164,677	-4,401	232,234	114,391
165,692	-4,066	231,952	114,507
166,706	-3,814	231,824	114,632
167,721	-3,930	231,774	114,506
168,735	-4,162	231,542	114,198
169,750	-4,269	231,625	114,144
170,764	-4,141	231,194	114,022
171,779	-4,222	231,106	113,905
172,794	-4,069	231,025	113,975
173,808	-4,357	230,798	113,627
174,823	-4,372	230,496	113,457
175,837	-4,737	230,200	113,015
176,852	-4,427	230,199	113,247
177,867	-4,279	230,199	113,352
178,881	-3,987	229,987	113,467
179,896	-4,163	229,861	113,257
180,910	-4,057	229,715	113,257
181,925	-4,124	229,545	113,111
182,940	-4,062	229,460	113,108
183,954	-3,953	229,315	113,111
184,969	-3,903	229,040	113,005
185,983	-4,037	229,117	112,928
186,998	-4,034	228,832	112,780
188,013	-4,058	228,693	112,682
189,027	-3,952	228,464	112,641
190,042	-3,937	228,286	112,556
191,056	-4,109	228,229	112,384
192,071	-3,905	227,907	112,373
193,086	-3,926	227,835	112,312
194,100	-4,068	227,772	112,160
195,115	-4,201	227,373	111,851
196,129	-4,617	227,253	111,461
197,144	-1,927	228,038	113,917
198,159	1,699	229,176	117,290
199,173	3,975	229,596	119,260
200,188	4,327	229,389	119,414
201,202	4,340	229,392	119,416
202,217	4,196	229,399	119,297
203,232	4,497	229,198	119,415
204,246	4,904	229,034	119,633
205,261	4,689	228,951	119,413
206,275	4,803	228,783	119,402
207,290	4,744	228,614	119,258
208,304	4,792	228,484	119,216
209,319	4,841	228,286	119,140
210,334	4,773	228,070	118,965
211,348	4,415	227,892	118,586
212,363	3,884	227,816	118,128
213,377	3,802	227,495	117,889
214,392	3,940	227,197	117,829
215,407	4,172	227,066	117,928
216,421	4,104	227,139	117,904
217,436	3,998	226,768	117,620
218,450	3,765	226,577	117,332
219,465	3,898	226,411	117,337
220,480	3,879	226,342	117,276
221,494	3,741	226,102	117,037
222,509	3,796	226,098	117,065
223,523	4,032	225,906	117,136
224,538	3,922	225,748	116,959
225,553	3,817	225,591	116,788
226,567	4,232	225,481	117,036
227,582	4,233	225,597	117,086
228,596	4,245	225,407	116,987
229,611	4,009	225,245	116,713
230,626	3,826	224,733	116,298
231,640	3,908	224,598	116,280
232,655	4,297	224,658	116,595
233,669	4,278	224,731	116,608
234,684	4,639	224,504	116,753
235,699	4,451	224,401	116,547
236,713	4,261	224,111	116,243
237,728	4,009	223,854	115,909
238,742	3,974	223,587	115,734
239,757	3,709	223,472	115,465
240,772	3,874	223,393	115,538
241,786	3,778	223,379	115,449
242,801	4,181	223,241	115,670
243,815	4,410	223,115	115,766
244,830	4,469	223,015	115,748
245,844	3,910	222,733	115,172
246,859	3,910	222,755	115,173
247,874	4,214	222,520	115,269
248,888	4,188	222,359	115,156
249,903	3,999	222,255	114,951
250,917	3,815	222,047	114,696
251,932	3,850	221,877	114,623
252,947	3,938	221,869	114,675
253,961	4,052	221,447	114,531
254,976	3,879	221,390	114,363
255,990	4,142	221,359	114,532
257,005	4,207	221,279	114,529
258,020	4,073	221,146	114,350
259,034	4,248	220,955	114,371
260,049	4,278	220,821	114,314
261,063	4,225	220,566	114,133
262,078	4,278	220,538	114,147
263,093	4,389	220,448	114,173
264,107	4,198	220,154	113,869
265,122	4,220	220,135	113,865
266,136	4,228	220,133	113,860
267,151	4,457	219,940	113,919
268,166	4,125	219,625	113,501
269,180	3,627	219,451	113,034
270,195	3,601	219,369	112,962
271,209	3,795	219,281	113,050
272,224	4,007	218,920	113,009
273,239	4,066	218,932	113,049
274,253	4,038	218,616	112,855
275,268	3,793	218,597	112,656
276,282	3,698	218,285	112,415
277,297	3,553	218,224	112,268
278,312	3,822	218,129	112,405
279,326	4,032	218,066	112,517
280,341	4,073	217,922	112,463
281,355	4,153	217,646	112,369
282,370	4,131	217,468	112,250
283,384	3,826	217,439	112,003
284,399	3,688	217,168	111,753
285,414	3,673	217,025	111,659
286,428	3,881	217,108	111,842
287,443	4,019	217,083	111,920
288,457	3,942	216,768	111,691
289,472	4,146	216,603	111,745
290,487	3,417	216,277	111,038
291,501	3,469	216,217	111,036
292,516	3,857	216,145	111,269
293,530	3,766	215,969	111,103
294,545	3,737	215,831	111,001
295,560	3,784	215,797	111,008
296,574	3,830	215,686	110,974
297,589	3,878	215,463	110,884
298,603	4,103	215,401	111,004
299,618	4,108	215,258	110,924
300,633	3,848	215,166	110,680
301,647	4,148	215,065	110,834
302,662	4,309	215,090	110,953
303,676	4,251	214,772	110,738
304,691	4,162	214,642	110,597
305,706	3,866	214,607	110,356
306,720	4,212	214,356	110,465
307,735	3,915	214,095	110,108
308,749	3,841	213,973	109,983
309,764	4,035	213,903	110,076
310,779	4,110	213,821	110,077
311,793	4,094	213,658	109,972
312,808	4,265	213,420	109,962
313,822	3,927	213,451	109,727
314,837	3,931	213,176	109,579
315,852	3,874	212,942	109,408
316,866	3,877	212,716	109,284
317,881	4,072	212,906	109,511
318,895	4,079	212,791	109,447
319,910	3,766	212,523	109,077
320,925	3,594	212,306	108,834
321,939	3,414	212,074	108,578
322,954	3,665	212,164	108,792
323,968	3,821	212,092	108,856
324,983	4,112	212,047	109,029
325,997	4,161	211,771	108,912
327,012	3,956	211,677	108,709
328,027	3,959	211,536	108,629
329,041	4,650	211,270	108,971
330,056	4,533	211,221	108,853
331,070	3,943	211,130	108,381
332,085	3,768	210,904	108,131
333,100	3,789	210,818	108,092
334,114	4,038	210,630	108,162
335,129	3,961	210,355	107,956
336,143	3,929	210,231	107,861
337,158	3,693	210,198	107,669
338,173	3,860	210,057	107,704
339,187	3,711	209,885	107,502
340,202	3,489	209,705	107,245
341,216	3,430	209,553	107,117
342,231	3,734	209,482	107,283
343,246	3,708	209,398	107,212
344,260	3,974	209,177	107,275
345,275	3,831	209,202	107,178
346,289	4,076	209,144	107,310
347,304	3,908	209,036	107,128
348,319	4,051	208,794	107,094
349,333	3,843	208,617	106,849
350,348	3,758	208,485	106,713
351,362	4,192	208,373	106,947
352,377	4,282	208,318	106,972
353,392	3,882	207,995	106,519
354,406	3,814	208,104	106,518
355,421	193,726	1345,601	1433,597
356,435	154,554	1484,302	1433,726
