DTS Sentinel unit serial number:	SN410029Multiplexer serial number:	ORYXHardware model number:	OX2-SRSoftware version number:	ORYX F/W v4,00 Oryx Data Collector v3.7.2.0data status	okinstallation	B6 Nyhavnadifferential loss correction	single-endedforward channel	channel 2reverse channel	N/Adate	2023/12/09time	17:45:08forward acquisition time	300,00reverse acquisition time	0,00gamma	499,1914k internal	0,3130k external	0,3130temperature offset calibration	1,0000default loss term (dB/km)	0,3820temperature slope calibration	1,0000multiplexer offset coefficient	1,0000multiplexer slope coefficient	1,0000fibre end	0,00T internal ref (°C)	21,01T ext. ref 1 (°C)	4,76T ext. ref 2 (°C)	4,75length (m)	temperature (°C)	Stokes	anti-Stokes-744,400	-5,422	0,094	-0,048
-743,385	-9,481	-0,166	0,082
-742,371	-101,148	0,134	-0,024
-741,356	3,816	-0,311	0,168
-740,342	-124,120	0,096	0,011
-739,327	110,587	-0,258	0,231
-738,312	385,501	-0,066	-0,101
-737,298	-13,096	-0,257	0,124
-736,283	-65,235	0,178	-0,053
-735,269	-129,869	-0,373	0,038
-734,254	277,190	-0,017	0,023
-733,239	-129,878	-0,357	0,036
-732,225	-177,788	0,047	0,001
-731,210	-119,170	-0,092	-0,012
-730,196	-66,509	0,144	0,042
-729,181	397,430	-0,052	-0,081
-728,167	800,000	-0,022	-0,065
-727,152	3,330	-0,089	-0,048
-726,137	-138,814	-0,141	-0,011
-725,123	11,696	-0,038	0,022
-724,108	-200,000	0,008	-0,082
-723,094	-1,933	-0,254	0,132
-722,079	-70,449	0,089	0,025
-721,064	-115,136	-0,023	-0,003
-720,050	-200,000	-0,021	-0,111
-719,035	-200,000	0,002	-0,069
-718,021	335,655	-0,119	-0,171
-717,006	39,074	-0,032	-0,021
-715,991	-11,733	-0,105	0,051
-714,977	-100,911	-0,174	-0,032
-713,962	-200,000	-0,010	-0,102
-712,948	136,339	-0,005	-0,005
-711,933	-200,000	0,000	0,074
-710,918	-200,000	0,013	-0,050
-709,904	777,280	0,063	-0,129
-708,889	-200,000	0,021	-0,081
-707,875	301,804	-0,077	-0,106
-706,860	-200,000	-0,009	-0,033
-705,845	-200,000	0,028	0,103
-704,831	800,000	0,043	0,109
-703,816	420,273	0,036	0,057
-702,802	-55,615	-0,098	0,033
-701,787	-50,736	-0,167	-0,058
-700,772	-102,520	0,011	-0,002
-699,758	-22,003	-0,045	0,020
-698,743	-59,408	0,138	-0,044
-697,729	-200,000	0,003	0,083
-696,714	800,000	-0,091	0,210
-695,699	131,998	0,105	-0,101
-694,685	-110,282	-0,202	0,031
-693,670	800,000	0,031	0,072
-692,656	-200,000	0,029	-0,133
-691,641	76,175	0,041	-0,032
-690,627	460,837	-0,071	-0,118
-689,612	320,146	-0,086	-0,122
-688,597	154,903	-0,065	-0,066
-687,583	-84,245	-0,057	0,013
-686,568	-93,079	-0,108	0,022
-685,554	800,000	0,026	-0,065
-684,539	279,807	0,007	0,010
-683,524	-28,397	-0,152	0,065
-682,510	-200,000	-0,028	0,140
-681,495	-200,000	-0,005	-0,050
-680,481	639,179	0,018	-0,034
-679,466	16,767	-0,095	-0,056
-678,451	196,046	-0,068	-0,076
-677,437	206,277	0,049	0,057
-676,422	-8,936	0,059	0,029
-675,408	-200,000	-0,025	0,118
-674,393	188,762	-0,084	0,094
-673,378	166,604	-0,047	0,050
-672,364	-115,977	0,044	0,006
-671,349	-141,412	0,065	0,005
-670,335	700,678	0,022	0,044
-669,320	800,000	-0,042	-0,107
-668,305	-103,710	-0,171	-0,029
-667,291	800,000	-0,031	0,080
-666,276	54,503	-0,054	-0,039
-665,262	-97,501	-0,023	0,004
-664,247	-77,280	0,008	-0,002
-663,232	165,747	-0,086	-0,091
-662,218	800,000	0,047	-0,113
-661,203	262,071	0,057	0,074
-660,189	298,435	-0,058	0,080
-659,174	-200,000	-0,016	-0,180
-658,159	800,000	-0,036	-0,080
-657,145	642,180	0,062	-0,118
-656,130	541,884	-0,068	-0,121
-655,116	51,670	-0,004	-0,003
-654,101	253,357	-0,028	-0,036
-653,086	-37,999	-0,091	-0,036
-652,072	-156,596	0,043	-0,002
-651,057	800,000	0,024	-0,077
-650,043	463,810	-0,025	-0,041
-649,028	-200,000	0,011	-0,057
-648,014	-58,425	-0,065	0,021
-646,999	-101,771	-0,040	-0,007
-645,984	376,915	-0,037	0,056
-644,970	-36,092	-0,139	-0,056
-643,955	-200,000	-0,007	-0,147
-642,941	147,852	-0,041	-0,041
-641,926	-200,000	-0,013	-0,067
-640,911	418,088	0,065	-0,103
-639,897	-99,652	-0,090	-0,017
-638,882	94,364	0,029	0,024
-637,868	-27,805	0,096	-0,041
-636,853	32,799	-0,131	0,084
-635,838	4,048	0,071	0,038
-634,824	800,000	-0,035	-0,106
-633,809	-42,335	0,121	0,046
-632,795	137,887	-0,074	0,072
-631,780	445,728	-0,014	0,023
-630,765	8,115	0,011	0,006
-629,751	122,488	0,135	-0,125
-628,736	587,593	-0,096	-0,176
-627,722	63,001	0,060	0,044
-626,707	88,238	0,101	-0,083
-625,692	27,123	-0,050	0,031
-624,678	37,433	0,133	0,087
-623,663	800,000	0,025	-0,071
-622,649	-51,617	-0,026	0,009
-621,634	-200,000	0,020	-0,103
-620,619	-47,363	0,141	0,051
-619,605	-53,506	-0,140	0,047
-618,590	-200,000	0,003	-0,101
-617,576	-87,922	0,168	-0,037
-616,561	-200,000	-0,001	0,084
-615,546	16,420	-0,033	0,019
-614,532	-35,541	-0,178	-0,071
-613,517	-200,000	0,015	-0,057
-612,503	800,000	0,013	-0,030
-611,488	-200,000	0,000	0,001
-610,474	-50,077	0,099	-0,035
-609,459	-200,000	-0,029	0,098
-608,444	-135,226	0,070	-0,006
-607,430	800,000	-0,008	-0,018
-606,415	-142,868	0,036	0,003
-605,401	261,652	-0,106	0,137
-604,386	-200,000	0,000	0,145
-603,371	-9,772	0,124	0,061
-602,357	-200,000	0,003	-0,105
-601,342	-200,000	0,009	0,068
-600,328	112,524	-0,032	-0,029
-599,313	-3,025	0,094	-0,048
-598,298	285,114	0,076	-0,102
-597,284	800,000	0,047	0,133
-596,269	-200,000	0,015	-0,111
-595,255	389,513	0,025	0,039
-594,240	543,763	-0,065	-0,116
-593,225	24,583	-0,034	0,021
-592,211	603,469	-0,058	-0,107
-591,196	332,844	-0,076	0,109
-590,182	215,615	0,032	0,037
-589,167	-31,340	-0,023	0,009
-588,152	-115,306	-0,115	0,016
-587,138	217,768	-0,104	0,123
-586,123	800,000	-0,064	-0,153
-585,109	51,285	0,067	-0,047
-584,094	11,544	-0,050	0,028
-583,079	-200,000	-0,020	-0,073
-582,065	68,501	0,052	0,040
-581,050	-200,000	0,033	0,121
-580,036	682,920	-0,027	-0,052
-579,021	-39,023	-0,073	0,028
-578,006	68,454	0,169	-0,128
-576,992	800,000	0,091	-0,234
-575,977	-200,000	0,010	-0,160
-574,963	328,812	0,115	0,163
-573,948	16,043	0,061	0,035
-572,934	800,000	-0,074	0,161
-571,919	260,824	-0,050	-0,063
-570,904	117,254	-0,069	-0,062
-569,890	293,504	0,063	-0,086
-568,875	-200,000	0,018	-0,091
-567,861	-127,955	0,004	0,000
-566,846	800,000	-0,037	0,094
-565,831	-168,199	0,133	-0,004
-564,817	800,000	-0,078	-0,212
-563,802	91,481	-0,054	-0,045
-562,788	-200,000	0,006	-0,074
-561,773	9,342	0,024	0,013
-560,758	-186,894	0,045	0,000
-559,744	-141,874	0,077	0,006
-558,729	-200,000	-0,016	0,078
-557,715	401,674	-0,011	-0,018
-556,700	224,468	-0,084	-0,101
-555,685	-7,424	-0,182	0,091
-554,671	-99,976	-0,127	-0,023
-553,656	326,178	-0,029	-0,042
-552,642	198,568	0,021	0,024
-551,627	-200,000	-0,001	0,056
-550,612	-86,652	0,119	-0,027
-549,598	-91,246	0,106	-0,022
-548,583	-200,000	0,000	-0,186
-547,569	148,571	-0,004	0,004
-546,554	196,332	-0,031	-0,034
-545,539	-120,592	0,029	-0,004
-544,525	272,663	-0,056	0,073
-543,510	-127,126	0,115	0,012
-542,496	55,931	-0,039	-0,028
-541,481	-200,000	0,016	0,096
-540,466	121,498	-0,067	0,062
-539,452	-200,000	-0,014	-0,075
-538,437	9,774	-0,094	-0,053
-537,423	-166,848	-0,020	-0,001
-536,408	-81,667	-0,116	-0,028
-535,393	-200,000	-0,014	-0,184
-534,379	353,229	-0,057	0,084
-533,364	366,292	0,019	0,028
-532,350	252,139	-0,049	0,062
-531,335	-82,935	-0,060	-0,014
-530,321	-160,230	0,149	-0,006
-529,306	800,000	-0,040	0,124
-528,291	186,119	-0,034	0,037
-527,277	172,334	-0,082	-0,087
-526,262	-200,000	0,015	0,110
-525,248	73,618	0,035	0,027
-524,233	-53,797	0,033	-0,011
-523,218	800,000	0,024	0,072
-522,204	-200,000	-0,022	-0,110
-521,189	50,966	-0,132	-0,092
-520,175	-200,000	0,000	0,148
-519,160	117,302	-0,080	-0,072
-518,145	-124,164	-0,081	-0,009
-517,131	-124,966	0,038	0,004
-516,116	166,143	0,081	0,085
-515,102	-200,000	0,011	0,040
-514,087	-4,843	-0,033	0,017
-513,072	-89,299	-0,030	0,006
-512,058	-200,000	-0,014	-0,118
-511,043	-153,225	0,104	0,005
-510,029	446,484	-0,025	-0,041
-509,014	-132,644	-0,042	0,004
-507,999	190,807	-0,014	-0,016
-506,985	-26,756	-0,149	0,064
-505,970	286,967	-0,112	-0,149
-504,956	-200,000	0,007	-0,038
-503,941	413,348	0,031	-0,048
-502,926	198,010	0,074	0,083
-501,912	15,085	-0,132	-0,076
-500,897	-100,010	-0,057	-0,010
-499,883	-200,000	0,006	-0,133
-498,868	17,333	0,178	-0,104
-497,853	800,000	0,025	0,066
-496,839	-103,609	0,097	0,017
-495,824	127,648	-0,075	0,070
-494,810	310,268	0,042	0,059
-493,795	61,248	-0,040	0,029
-492,781	49,758	-0,112	0,077
-491,766	232,769	0,012	-0,014
-490,751	53,796	0,069	-0,049
-489,737	-200,000	-0,017	-0,089
-488,722	-200,000	-0,018	0,132
-487,708	203,744	0,029	0,034
-486,693	-200,000	-0,009	0,074
-485,678	-94,946	-0,093	-0,018
-484,664	-69,481	0,115	-0,032
-483,649	-76,401	-0,069	0,018
-482,635	-200,000	-0,017	-0,080
-481,620	-155,231	-0,110	-0,005
-480,605	-200,000	-0,004	0,079
-479,591	580,475	0,033	-0,060
-478,576	-200,000	-0,032	0,145
-477,562	-200,000	-0,004	0,098
-476,547	-24,959	-0,126	0,055
-475,532	79,961	0,103	0,081
-474,518	39,047	-0,045	0,030
-473,503	546,483	-0,047	0,083
-472,489	-158,269	0,091	-0,004
-471,474	-200,000	-0,004	-0,091
-470,459	-57,590	-0,126	-0,040
-469,445	-200,000	-0,009	-0,058
-468,430	-167,789	-0,161	-0,005
-467,416	10,161	0,168	-0,094
-466,401	-5,012	0,044	0,022
-465,386	-40,869	0,096	0,036
-464,372	380,568	-0,049	0,074
-463,357	449,965	0,081	-0,133
-462,343	13,175	0,140	-0,080
-461,328	207,013	-0,040	-0,046
-460,313	370,869	0,029	-0,043
-459,299	96,733	0,069	0,058
-458,284	-179,157	0,077	-0,001
-457,270	69,190	0,112	0,085
-456,255	14,000	0,051	0,029
-455,241	-200,000	0,005	0,125
-454,226	260,094	-0,075	0,095
-453,211	238,147	0,058	0,071
-452,197	800,000	0,063	0,132
-451,182	-200,000	0,007	0,150
-450,168	-2,998	-0,007	0,004
-449,153	-18,316	0,060	-0,027
-448,138	300,008	-0,042	-0,057
-447,124	-89,296	0,055	0,012
-446,109	800,000	-0,042	-0,103
-445,095	94,329	0,040	-0,033
-444,080	-200,000	-0,036	-0,122
-443,065	-85,382	-0,093	0,021
-442,051	222,045	0,087	-0,103
-441,036	-200,000	-0,009	0,029
-440,022	800,000	-0,024	-0,065
-439,007	500,092	0,057	-0,096
-437,992	-200,000	-0,006	-0,035
-436,978	462,934	0,078	-0,129
-435,963	590,997	0,108	0,197
-434,949	97,048	-0,034	0,028
-433,934	447,968	-0,005	-0,008
-432,919	-200,000	0,021	-0,093
-431,905	-200,000	0,010	-0,100
-430,890	-50,473	0,037	0,013
-429,876	-200,000	-0,001	0,067
-428,861	78,318	-0,017	0,013
-427,846	193,169	-0,067	0,075
-426,832	-151,197	-0,119	-0,006
-425,817	-200,000	0,005	0,022
-424,803	628,627	-0,015	-0,028
-423,788	-200,000	-0,002	-0,119
-422,773	-106,239	-0,025	-0,004
-421,759	55,390	0,061	0,043
-420,744	98,260	0,050	-0,042
-419,730	-131,823	-0,105	0,010
-418,715	784,893	-0,030	0,061
-417,701	-25,211	-0,107	0,046
-416,686	121,011	-0,029	-0,027
-415,671	-200,000	0,018	-0,149
-414,657	389,188	0,049	0,075
-413,642	53,269	-0,127	0,089
-412,628	80,136	-0,028	-0,022
-411,613	-200,000	0,006	-0,050
-410,598	-200,000	-0,030	-0,119
-409,584	-39,304	-0,043	0,017
-408,569	-45,630	0,045	0,016
-407,555	-24,081	-0,046	0,020
-406,540	143,937	0,065	0,063
-405,525	-200,000	0,007	-0,064
-404,511	-200,000	0,015	0,075
-403,496	-142,714	-0,169	0,012
-402,482	-200,000	-0,007	0,081
-401,467	-200,000	0,025	0,090
-400,452	-200,000	0,026	0,094
-399,438	245,937	-0,016	0,020
-398,423	-11,194	-0,076	-0,037
-397,409	-200,000	-0,022	-0,122
-396,394	-200,000	-0,038	-0,124
-395,379	19,779	-0,139	0,082
-394,365	24,046	0,109	-0,066
-393,350	222,644	0,027	0,032
-392,336	72,691	-0,045	0,034
-391,321	84,968	0,085	-0,068
-390,306	-62,345	-0,091	0,028
-389,292	-12,332	-0,094	-0,045
-388,277	-65,455	-0,077	0,023
-387,263	-147,592	0,147	0,009
-386,248	-133,004	0,097	-0,009
-385,233	-34,921	0,046	-0,019
-384,219	91,416	-0,088	-0,072
-383,204	-200,000	-0,014	-0,093
-382,190	-200,000	-0,008	0,111
-381,175	791,298	-0,077	0,157
-380,160	800,000	-0,059	0,137
-379,146	800,000	0,088	0,190
-378,131	83,214	-0,107	0,085
-377,117	-189,137	-0,158	-0,001
-376,102	800,000	-0,030	-0,064
-375,088	-179,921	-0,066	-0,001
-374,073	26,334	-0,186	-0,113
-373,058	253,213	0,131	0,165
-372,044	72,409	-0,023	-0,018
-371,029	800,000	-0,008	-0,018
-370,015	466,539	-0,045	0,074
-369,000	19,767	-0,097	0,057
-367,985	-200,000	0,026	-0,096
-366,971	38,206	-0,074	-0,048
-365,956	-14,229	0,075	-0,035
-364,942	85,109	0,081	0,065
-363,927	800,000	0,043	0,092
-362,912	606,207	0,037	-0,068
-361,898	-200,000	-0,049	-0,177
-360,883	97,242	0,028	0,023
-359,869	425,848	-0,006	0,009
-358,854	-97,501	-0,143	0,027
-357,839	-2,746	0,126	0,064
-356,825	-43,346	-0,106	0,039
-355,810	341,841	-0,032	0,046
-354,796	46,569	-0,131	-0,089
-353,781	-200,000	-0,058	-0,252
-352,766	-39,468	0,080	0,030
-351,752	-200,000	0,029	-0,187
-350,737	17,475	0,068	-0,040
-349,723	149,070	0,055	0,055
-348,708	237,873	-0,071	0,086
-347,693	216,152	0,052	-0,061
-346,679	-83,295	0,082	0,019
-345,664	-91,627	0,110	0,023
-344,650	-200,000	-0,006	0,047
-343,635	360,101	0,026	0,038
-342,620	351,789	-0,068	0,099
-341,606	800,000	-0,029	-0,074
-340,591	736,463	-0,056	0,110
-339,577	-200,000	-0,004	0,036
-338,562	800,000	0,022	0,045
-337,548	-59,885	-0,052	0,016
-336,533	593,162	-0,062	-0,113
-335,518	21,997	-0,079	0,047
-334,504	14,514	-0,102	0,058
-333,489	-44,841	-0,069	0,025
-332,475	-200,000	-0,013	-0,044
-331,460	302,497	-0,063	-0,085
-330,445	-57,370	-0,094	0,030
-329,431	-200,000	-0,036	0,185
-328,416	-126,971	0,107	-0,011
-327,402	72,012	-0,054	0,041
-326,387	-200,000	0,003	-0,065
-325,372	157,276	-0,088	-0,089
-324,358	-122,311	-0,081	0,010
-323,343	-200,000	-0,020	-0,146
-322,329	-200,000	0,027	-0,147
-321,314	722,240	0,042	0,082
-320,299	-106,084	0,031	0,005
-319,285	-200,000	-0,009	0,059
-318,270	547,741	0,088	0,155
-317,256	800,000	0,014	0,033
-316,241	-200,000	0,021	0,099
-315,226	14,734	0,080	0,045
-314,212	-93,272	0,061	0,012
-313,197	-86,364	0,118	0,026
-312,183	149,849	-0,015	0,014
-311,168	-200,000	-0,013	-0,069
-310,153	310,945	-0,041	0,057
-309,139	-200,000	-0,023	0,111
-308,124	-200,000	0,008	0,055
-307,110	668,176	0,062	0,118
-306,095	800,000	0,051	0,121
-305,080	-81,725	0,141	-0,033
-304,066	-48,007	0,048	0,017
-303,051	-200,000	0,039	-0,184
-302,037	-180,494	-0,085	0,001
-301,022	-161,491	0,008	-0,000
-300,008	40,619	0,101	0,066
-298,993	146,976	0,082	0,080
-297,978	-169,112	-0,039	0,001
-296,964	-105,702	-0,092	-0,015
-295,949	-79,643	-0,055	-0,013
-294,935	-29,530	-0,042	0,018
-293,920	618,649	0,059	0,109
-292,905	800,000	-0,047	0,119
-291,891	800,000	0,052	0,106
-290,876	486,239	-0,074	0,124
-289,862	-19,903	-0,075	0,034
-288,847	-67,385	-0,072	0,021
-287,832	-25,544	0,044	-0,019
-286,818	-200,000	0,005	0,018
-285,803	-200,000	0,000	0,142
-284,789	-53,659	0,119	0,040
-283,774	17,721	-0,113	0,065
-282,759	266,424	0,025	0,032
-281,745	-200,000	0,001	-0,143
-280,730	-120,974	-0,114	0,014
-279,716	-67,288	0,019	0,005
-278,701	103,848	-0,084	0,072
-277,686	78,183	0,015	0,011
-276,672	-97,628	-0,118	0,022
-275,657	800,000	0,034	-0,104
-274,643	202,226	-0,059	-0,067
-273,628	800,000	-0,042	-0,116
-272,613	602,316	-0,043	0,078
-271,599	-88,046	0,140	0,031
-270,584	245,947	0,015	-0,018
-269,570	254,540	0,099	0,124
-268,555	800,000	0,042	-0,089
-267,540	387,632	-0,041	-0,062
-266,526	469,668	0,106	-0,175
-265,511	-184,163	-0,033	0,000
-264,497	-16,372	-0,055	-0,025
-263,482	800,000	0,040	0,109
-262,467	-200,000	0,014	0,152
-261,453	108,565	-0,071	0,062
-260,438	800,000	-0,014	-0,032
-259,424	130,953	-0,081	-0,076
-258,409	-150,745	-0,018	0,001
-257,395	-98,874	0,120	0,022
-256,380	-34,766	0,127	0,051
-255,365	-16,670	0,075	-0,034
-254,351	4,015	0,035	0,019
-253,336	-200,000	0,014	-0,213
-252,322	25,443	-0,083	-0,050
-251,307	-200,000	-0,029	-0,151
-250,292	-98,679	0,066	-0,012
-249,278	26,806	0,029	-0,018
-248,263	622,657	-0,028	-0,052
-247,249	131,875	0,081	-0,076
-246,234	-200,000	0,002	-0,133
-245,219	-21,437	0,144	0,064
-244,205	2,507	-0,050	-0,026
-243,190	-63,452	0,050	-0,015
-242,176	222,504	-0,056	0,065
-241,161	288,324	0,056	0,074
-240,146	27,226	0,125	-0,076
-239,132	32,404	0,065	-0,041
-238,117	65,155	-0,120	0,088
-237,103	-200,000	-0,018	0,075
-236,088	186,978	0,047	0,052
-235,073	299,961	0,017	0,023
-234,059	-11,715	0,141	0,067
-233,044	-48,287	0,080	-0,028
-232,030	-134,846	-0,176	-0,015
-231,015	22,560	-0,099	-0,059
-230,000	-36,013	0,092	0,036
-228,986	-68,885	0,070	0,020
-227,971	164,246	0,051	-0,053
-226,957	-64,179	-0,079	-0,023
-225,942	-87,534	0,125	0,027
-224,927	-121,284	0,115	0,014
-223,913	148,317	-0,050	0,049
-222,898	203,313	0,042	0,048
-221,884	159,589	-0,082	-0,083
-220,869	-200,000	0,018	0,062
-219,855	-46,516	0,052	-0,018
-218,840	459,309	0,049	-0,079
-217,825	92,862	-0,090	-0,074
-216,811	498,361	-0,010	-0,017
-215,796	-200,000	0,021	0,118
-214,782	-200,000	-0,034	-0,123
-213,767	32,777	0,106	-0,067
-212,752	800,000	-0,023	-0,059
-211,738	245,509	0,048	0,059
-210,723	-200,000	-0,031	0,100
-209,709	17,827	0,083	-0,048
-208,694	800,000	0,013	-0,033
-207,679	-200,000	0,005	-0,152
-206,665	-14,915	-0,106	0,050
-205,650	-200,000	0,012	0,071
-204,636	26,079	0,062	0,038
-203,621	24,220	0,109	0,065
-202,606	101,159	-0,134	0,114
-201,592	-200,000	0,005	-0,026
-200,577	-200,000	-0,006	0,104
-199,563	402,199	0,018	0,027
-198,548	-60,726	0,150	0,046
-197,533	800,000	-0,024	-0,065
-196,519	-89,184	0,093	-0,020
-195,504	2,765	-0,136	-0,071
-194,490	-139,844	-0,074	-0,006
-193,475	316,408	0,031	-0,043
-192,460	135,256	-0,039	-0,037
-191,446	-81,075	0,154	0,037
-190,431	800,000	0,031	0,079
-189,417	-200,000	-0,003	-0,090
-188,402	-200,000	0,012	-0,164
-187,387	-200,000	0,011	-0,096
-186,373	-28,732	-0,135	-0,056
-185,358	-13,120	0,029	0,014
-184,344	-124,902	0,133	-0,015
-183,329	102,605	0,125	0,106
-182,315	800,000	0,005	-0,015
-181,300	248,143	0,020	0,024
-180,285	-200,000	-0,001	-0,137
-179,271	-200,000	0,001	-0,109
-178,256	-200,000	0,019	-0,096
-177,242	183,156	0,122	0,132
-176,227	-81,349	-0,101	0,024
-175,212	-200,000	0,030	0,113
-174,198	317,999	-0,048	0,066
-173,183	800,000	-0,015	0,033
-172,169	53,297	-0,031	-0,021
-171,154	800,000	0,050	-0,135
-170,139	329,493	-0,039	0,054
-169,125	-200,000	0,074	-0,000
-168,110	411,229	-0,056	0,087
-167,096	108,536	0,092	-0,080
-166,081	800,000	0,040	-0,096
-165,066	-73,649	-0,180	-0,047
-164,052	-94,203	0,136	0,027
-163,037	116,372	0,040	0,036
-162,023	-153,947	0,145	-0,007
-161,008	-200,000	0,017	0,079
-159,993	-58,471	0,032	0,010
-158,979	-200,000	0,004	0,022
-157,964	-200,000	-0,014	0,085
-156,950	800,000	0,024	0,050
-155,935	800,000	0,059	0,120
-154,920	-41,369	-0,124	0,046
-153,906	-100,451	0,072	-0,013
-152,891	-86,922	-0,059	0,013
-151,877	800,000	-0,040	-0,097
-150,862	800,000	-0,049	-0,132
-149,847	98,614	-0,029	-0,024
-148,833	-169,105	-0,094	0,002
-147,818	112,812	0,044	0,039
-146,804	-62,291	0,115	-0,034
-145,789	-200,000	0,035	0,119
-144,775	318,234	-0,035	-0,049
-143,760	-18,845	0,120	-0,054
-142,745	-97,373	-0,144	0,027
-141,731	-118,116	-0,124	0,016
-140,716	-200,000	0,017	-0,082
-139,702	566,268	0,052	-0,092
-138,687	557,184	0,053	0,093
-137,672	-126,715	0,097	0,010
-136,658	-200,000	0,021	-0,068
-135,643	-200,000	-0,011	0,039
-134,629	114,141	-0,021	-0,018
-133,614	112,486	0,076	0,067
-132,599	-72,768	-0,028	-0,007
-131,585	-200,000	0,022	0,106
-130,570	800,000	-0,027	-0,056
-129,556	-71,779	0,180	0,048
-128,541	74,257	-0,069	-0,053
-127,526	-70,650	0,084	0,023
-126,512	181,125	-0,126	0,135
-125,497	56,007	0,094	0,066
-124,483	-200,000	-0,002	0,017
-123,468	-116,889	0,097	0,013
-122,453	-175,887	-0,075	0,001
-121,439	-133,336	-0,085	-0,008
-120,424	28,875	-0,105	0,064
-119,410	226,877	0,130	0,154
-118,395	-200,000	0,040	-0,182
-117,380	-21,747	0,068	-0,030
-116,366	-3,497	-0,049	0,025
-115,351	-174,142	-0,154	0,003
-114,337	400,404	-0,082	-0,125
-113,322	-200,000	-0,009	-0,117
-112,307	-29,846	-0,088	-0,036
-111,293	-200,000	-0,002	0,059
-110,278	-200,000	0,004	0,108
-109,264	63,828	0,044	-0,032
-108,249	5,970	-0,085	-0,046
-107,234	-16,960	0,005	0,002
-106,220	-16,889	-0,113	0,052
-105,205	45,079	-0,060	-0,040
-104,191	-200,000	0,002	0,018
-103,176	-132,053	-0,021	-0,002
-102,162	-50,367	-0,157	0,054
-101,147	800,000	0,066	0,173
-100,132	16,019	-0,089	0,051
-99,118	800,000	0,048	0,151
-98,103	86,592	0,092	0,074
-97,089	316,299	0,080	0,110
-96,074	-107,374	0,065	0,010
-95,059	-200,000	-0,001	0,109
-94,045	123,720	0,079	0,072
-93,030	-200,000	0,005	-0,038
-92,016	54,597	-0,064	0,045
-91,001	740,396	0,052	-0,102
-89,986	-200,000	0,031	0,115
-88,972	21,557	0,074	-0,043
-87,957	-200,000	0,007	0,074
-86,943	-11,332	0,065	-0,031
-85,928	-200,000	-0,042	-0,142
-84,913	-200,000	-0,005	0,031
-83,899	661,568	-0,033	-0,062
-82,884	16,000	0,149	-0,085
-81,870	774,525	0,025	0,051
-80,855	271,147	-0,088	0,113
-79,840	93,703	0,079	-0,065
-78,826	659,679	-0,113	-0,213
-77,811	800,000	-0,044	-0,137
-76,797	-200,000	0,003	0,055
-75,782	78,513	0,009	0,007
-74,767	-200,000	0,005	-0,131
-73,753	-88,665	0,077	-0,016
-72,738	-133,823	-0,015	0,001
-71,724	257,842	-0,088	-0,110
-70,709	219,672	-0,021	0,025
-69,694	-68,905	-0,051	-0,014
-68,680	591,191	0,034	-0,061
-67,665	800,000	-0,007	0,014
-66,651	-200,000	0,017	-0,069
-65,636	225,861	0,029	-0,034
-64,622	268,385	0,064	0,081
-63,607	-1,410	-0,040	0,020
-62,592	31,178	-0,036	-0,022
-61,578	125,016	0,091	-0,083
-60,563	-200,000	-0,020	0,174
-59,549	-200,000	-0,002	0,157
-58,534	-107,898	-1,579	-0,246
-57,519	496,186	-0,849	-1,418
-56,505	-200,000	-0,923	-4,565
-55,490	-100,661	0,631	-0,112
-54,476	800,000	4,972	11,689
-53,461	-200,000	14,592	259,308
-52,446	-200,000	696,316	2234,941
-51,432	565,093	1622,580	2858,649
-50,417	117,667	1630,122	1452,324
-49,403	74,696	1284,238	977,113
-48,388	37,423	1022,578	654,904
-47,373	23,201	981,822	582,100
-46,359	22,389	971,069	573,045
-45,344	21,245	966,714	566,719
-44,330	21,265	965,100	565,816
-43,315	21,022	963,939	564,322
-42,300	21,127	962,724	563,931
-41,286	21,066	961,673	563,093
-40,271	21,081	960,661	562,529
-39,257	21,020	959,853	561,836
-38,242	21,017	958,876	561,231
-37,227	21,022	958,081	560,759
-36,213	20,992	957,339	560,205
-35,198	21,019	956,227	559,620
-34,184	21,062	955,720	559,439
-33,169	20,923	955,020	558,561
-32,154	21,119	953,759	558,432
-31,140	21,082	953,078	557,892
-30,125	21,053	952,340	557,344
-29,111	21,055	951,358	556,753
-28,096	21,013	950,916	556,337
-27,082	21,115	949,877	556,036
-26,067	21,024	949,294	555,381
-25,052	21,053	948,474	554,970
-24,038	21,031	948,035	554,622
-23,023	21,045	947,288	554,206
-22,009	21,023	946,646	553,741
-20,994	21,103	945,940	553,561
-19,979	21,019	945,611	553,078
-18,965	21,037	944,850	552,669
-17,950	21,116	944,002	552,400
-16,936	21,026	943,483	551,788
-15,921	20,957	942,814	551,157
-14,906	20,937	941,907	550,540
-13,892	20,933	941,475	550,255
-12,877	20,909	940,773	549,745
-11,863	20,927	940,145	549,414
-10,848	20,973	939,646	549,246
-9,833	21,035	939,287	549,211
-8,819	21,021	938,609	548,748
-7,804	20,942	938,059	548,155
-6,790	20,927	937,421	547,713
-5,775	20,956	936,927	547,493
-4,760	20,963	936,155	547,044
-3,746	20,972	935,698	546,785
-2,731	20,780	934,873	545,674
-1,717	20,742	934,171	545,125
-0,702	20,730	933,579	544,719
0,313	20,566	932,933	544,647
1,327	23,577	930,919	552,876
2,342	32,798	794,268	496,211
3,356	30,240	450,527	277,591
4,371	-0,087	294,227	150,996
5,386	-4,133	275,217	137,398
6,400	-5,508	269,607	133,308
7,415	-5,900	267,176	131,733
8,429	-5,695	265,974	131,317
9,444	-5,591	265,107	130,972
10,459	-5,623	264,457	130,610
11,473	-5,665	263,842	130,257
12,488	-5,847	263,448	129,885
13,502	-5,974	262,779	129,429
14,517	-5,912	262,513	129,343
15,531	-5,745	262,054	129,255
16,546	-5,594	261,730	129,220
17,561	-5,780	261,291	128,825
18,575	-5,770	261,004	128,681
19,590	-5,819	260,737	128,494
20,604	-5,936	260,630	128,325
21,619	-5,853	260,182	128,167
22,634	-5,749	259,777	128,049
23,648	-5,670	259,385	127,915
24,663	-5,656	259,063	127,757
25,677	-5,759	258,932	127,589
26,692	-5,941	258,676	127,290
27,707	-5,808	258,423	127,272
28,721	-5,977	258,205	127,003
29,736	-5,947	257,819	126,829
30,750	-5,931	257,568	126,708
31,765	-6,070	257,615	126,597
32,780	-5,927	257,225	126,520
33,794	-5,947	256,931	126,347
34,809	-5,862	256,637	126,266
35,823	-5,873	256,414	126,135
36,838	-5,955	256,256	125,974
37,853	-5,890	255,959	125,874
38,867	-5,896	255,729	125,745
39,882	-5,923	255,379	125,538
40,896	-5,854	255,242	125,520
41,911	-5,870	255,014	125,382
42,926	-5,866	254,788	125,263
43,940	-5,919	254,579	125,103
44,955	-5,994	254,274	124,876
45,969	-6,051	254,158	124,759
46,984	-6,166	253,765	124,454
47,999	-6,388	253,726	124,230
49,013	-6,311	253,205	124,031
50,028	-6,598	253,252	123,794
51,042	-6,713	252,945	123,533
52,057	-6,680	252,619	123,391
53,071	-6,618	252,418	123,336
54,086	-6,689	252,324	123,217
55,101	-6,524	252,201	123,289
56,115	-6,272	252,003	123,400
57,130	-5,869	251,907	123,690
58,144	-5,586	251,625	123,785
59,159	-5,628	251,473	123,663
60,174	-5,652	251,374	123,582
61,188	-5,702	251,002	123,345
62,203	-5,560	250,942	123,426
63,217	-5,732	250,615	123,107
64,232	-5,752	250,414	122,980
65,247	-5,830	250,141	122,769
66,261	-5,867	250,005	122,659
67,276	-6,130	249,875	122,358
68,290	-6,235	249,386	122,019
69,305	-6,167	249,257	122,002
70,320	-6,328	249,176	121,814
71,334	-5,845	248,919	122,090
72,349	-5,728	248,863	122,152
73,363	-5,758	248,635	122,004
74,378	-5,886	248,488	121,811
75,393	-5,639	248,165	121,852
76,407	-5,825	248,062	121,633
77,422	-5,621	247,782	121,657
78,436	-6,024	247,550	121,191
79,451	-5,853	247,378	121,241
80,466	-5,857	247,148	121,114
81,480	-6,217	246,945	120,699
82,495	-6,210	246,857	120,652
83,509	-6,067	246,492	120,583
84,524	-6,093	246,403	120,507
85,539	-6,171	246,166	120,314
86,553	-6,157	245,857	120,165
87,568	-6,178	245,932	120,173
88,582	-5,910	245,500	120,176
89,597	-5,958	245,209	119,982
90,611	-5,991	245,268	119,973
91,626	-5,920	245,073	119,926
92,641	-5,929	244,963	119,855
93,655	-5,946	244,734	119,717
94,670	-5,892	244,490	119,633
95,684	-6,115	244,391	119,387
96,699	-5,867	244,065	119,424
97,714	-6,306	244,019	119,025
98,728	-6,101	243,559	118,960
99,743	-6,292	243,539	118,781
100,757	-6,026	243,192	118,823
101,772	-6,238	243,187	118,633
102,787	-6,247	243,071	118,559
103,801	-5,962	242,792	118,648
104,816	-6,001	242,634	118,528
105,830	-5,948	242,634	118,562
106,845	-5,663	242,290	118,619
107,860	-6,006	242,179	118,270
108,874	-6,115	242,045	118,104
109,889	-6,015	241,760	118,037
110,903	-6,024	241,543	117,914
111,918	-6,205	241,417	117,692
112,933	-6,037	241,332	117,778
113,947	-6,031	241,175	117,696
114,962	-5,845	240,882	117,696
115,976	-5,718	240,684	117,693
116,991	-5,865	240,510	117,477
118,006	-5,902	240,436	117,400
119,020	-5,739	240,138	117,377
120,035	-5,952	240,196	117,220
121,049	-5,619	239,830	117,304
122,064	-5,933	239,752	116,998
123,079	-5,802	239,513	116,979
124,093	-5,958	239,463	116,816
125,108	-6,175	239,039	116,422
126,122	-6,305	238,973	116,274
127,137	-6,484	238,909	116,086
128,151	-6,336	238,556	116,025
129,166	-6,166	238,384	116,069
130,181	-6,354	238,314	115,871
131,195	-6,262	238,124	115,844
132,210	-6,185	237,919	115,796
133,224	-5,849	237,838	116,019
134,239	-5,852	237,675	115,926
135,254	-5,715	237,405	115,895
136,268	-6,134	237,270	115,481
137,283	-6,335	237,066	115,208
138,297	-6,274	236,787	115,112
139,312	-6,145	236,463	115,048
140,327	-6,062	236,607	115,174
141,341	-5,706	236,521	115,410
142,356	-5,623	236,318	115,366
143,370	-5,622	236,280	115,339
144,385	-5,600	236,091	115,254
145,400	-5,443	235,794	115,224
146,414	-5,594	235,666	115,030
147,429	-5,499	235,342	114,938
148,443	-5,815	235,324	114,666
149,458	-5,680	235,074	114,642
150,473	-5,859	235,047	114,475
151,487	-5,570	234,584	114,471
152,502	-5,588	234,599	114,453
153,516	-5,691	234,423	114,275
154,531	-5,547	234,356	114,347
155,546	-5,569	234,137	114,212
156,560	-5,809	233,931	113,910
157,575	-5,705	233,623	113,833
158,589	-5,773	233,464	113,692
159,604	-5,559	233,466	113,853
160,619	-5,418	233,340	113,893
161,633	-5,554	233,325	113,767
162,648	-5,315	233,056	113,815
163,662	-5,698	232,775	113,365
164,677	-5,824	232,667	113,203
165,692	-5,599	232,553	113,314
166,706	-5,527	232,282	113,230
167,721	-5,386	232,073	113,228
168,735	-5,268	232,040	113,296
169,750	-5,570	231,836	112,948
170,764	-5,626	231,801	112,877
171,779	-5,650	231,706	112,801
172,794	-5,400	231,407	112,842
173,808	-5,726	231,239	112,494
174,823	-6,126	230,834	111,974
175,837	-6,160	230,662	111,854
176,852	-5,833	230,806	112,170
177,867	-5,506	230,593	112,312
178,881	-5,643	230,470	112,135
179,896	-5,513	230,366	112,176
180,910	-5,622	230,257	112,028
181,925	-5,545	230,174	112,038
182,940	-5,407	229,961	112,031
183,954	-5,552	229,777	111,819
184,969	-5,427	229,647	111,843
185,983	-5,350	229,520	111,831
186,998	-5,306	229,326	111,761
188,013	-5,562	229,181	111,482
189,027	-5,573	229,047	111,398
190,042	-5,449	228,802	111,365
191,056	-5,491	228,732	111,289
192,071	-5,393	228,483	111,233
193,086	-5,487	228,358	111,090
194,100	-5,468	228,051	110,945
195,115	-5,594	227,889	110,759
196,129	-6,117	227,543	110,178
197,144	-3,124	228,618	113,006
198,159	1,218	229,789	116,947
199,173	3,711	230,423	119,195
200,188	3,888	230,446	119,334
201,202	3,842	230,200	119,161
202,217	3,900	230,152	119,170
203,232	4,271	229,877	119,304
204,246	4,129	229,942	119,217
205,261	4,204	229,845	119,214
206,275	4,389	229,710	119,276
207,290	4,419	229,688	119,277
208,304	4,429	229,339	119,094
209,319	4,501	229,238	119,086
210,334	4,477	229,095	118,983
211,348	4,093	228,908	118,579
212,363	4,116	228,414	118,330
213,377	3,681	228,201	117,876
214,392	3,542	228,165	117,739
215,407	3,678	228,014	117,756
216,421	3,773	227,934	117,776
217,436	3,856	227,674	117,695
218,450	3,550	227,402	117,310
219,465	3,589	227,243	117,248
220,480	3,531	227,155	117,148
221,494	3,482	227,118	117,080
222,509	3,632	227,070	117,160
223,523	3,765	226,616	117,016
224,538	3,625	226,655	116,919
225,553	3,514	226,509	116,749
226,567	3,786	226,488	116,935
227,582	3,778	226,576	116,964
228,596	4,225	226,156	117,077
229,611	3,679	226,096	116,620
230,626	3,525	225,711	116,295
231,640	3,576	225,422	116,174
232,655	4,038	225,456	116,531
233,669	4,296	225,527	116,752
234,684	4,521	225,356	116,823
235,699	4,014	225,260	116,380
236,713	3,906	224,835	116,068
237,728	3,847	224,635	115,910
238,742	3,695	224,468	115,699
239,757	3,513	224,456	115,546
240,772	3,601	224,314	115,529
241,786	3,663	224,155	115,483
242,801	3,976	224,030	115,643
243,815	4,076	223,923	115,653
244,830	3,923	223,893	115,512
245,844	3,767	223,637	115,253
246,859	3,765	223,442	115,141
247,874	4,023	223,416	115,310
248,888	3,981	223,212	115,163
249,903	3,780	223,020	114,904
250,917	3,628	222,866	114,701
251,932	3,730	222,708	114,685
252,947	3,685	222,625	114,599
253,961	3,706	222,307	114,441
254,976	3,679	222,181	114,345
255,990	3,724	222,322	114,441
257,005	3,813	222,169	114,418
258,020	4,055	221,966	114,484
259,034	4,160	221,912	114,524
260,049	4,024	221,650	114,277
261,063	3,891	221,581	114,133
262,078	4,153	221,279	114,161
263,093	4,026	221,239	114,037
264,107	4,105	221,071	113,998
265,122	3,995	221,073	113,908
266,136	4,214	220,948	113,995
267,151	4,215	220,703	113,859
268,166	3,701	220,482	113,356
269,180	3,574	220,219	113,117
270,195	3,544	220,052	112,998
271,209	3,477	220,024	112,925
272,224	3,570	219,802	112,869
273,239	3,755	219,808	112,998
274,253	3,661	219,577	112,800
275,268	3,584	219,263	112,572
276,282	3,640	219,113	112,526
277,297	3,148	219,088	112,143
278,312	3,488	218,934	112,303
279,326	3,603	218,859	112,339
280,341	3,395	218,718	112,104
281,355	3,752	218,567	112,278
282,370	3,620	218,433	112,102
283,384	3,586	218,143	111,919
284,399	3,288	218,002	111,620
285,414	3,316	217,938	111,597
286,428	3,286	217,849	111,519
287,443	3,834	217,814	111,891
288,457	3,764	217,802	111,824
289,472	3,721	217,288	111,519
290,487	3,405	217,169	111,218
291,501	3,525	216,971	111,194
292,516	3,271	217,000	111,015
293,530	3,280	216,760	110,889
294,545	3,302	216,597	110,811
295,560	3,665	216,540	111,035
296,574	3,638	216,420	110,944
297,589	3,887	216,310	111,057
298,603	3,884	216,188	110,983
299,618	3,803	216,024	110,831
300,633	3,695	215,897	110,678
301,647	3,675	215,915	110,662
302,662	3,825	215,734	110,668
303,676	3,664	215,588	110,467
304,691	4,204	215,487	110,794
305,706	4,113	215,387	110,667
306,720	3,809	215,309	110,398
307,735	3,797	214,975	110,209
308,749	3,614	214,799	109,978
309,764	3,908	214,641	110,098
310,779	3,864	214,608	110,039
311,793	3,754	214,498	109,895
312,808	3,837	214,311	109,848
313,822	3,615	214,222	109,634
314,837	3,858	213,915	109,641
315,852	3,452	213,911	109,339
316,866	3,443	213,791	109,262
317,881	3,943	213,535	109,477
318,895	3,807	213,589	109,398
319,910	3,608	213,333	109,116
320,925	3,280	213,123	108,766
321,939	3,310	213,041	108,735
322,954	3,225	212,832	108,559
323,968	3,772	212,845	108,943
324,983	4,021	212,653	109,012
325,997	4,081	212,530	108,981
327,012	3,760	212,376	108,666
328,027	3,823	212,187	108,604
329,041	4,023	212,243	108,764
330,056	4,111	212,149	108,769
331,070	3,865	211,786	108,399
332,085	3,436	211,624	108,004
333,100	3,634	211,594	108,119
334,114	3,714	211,500	108,118
335,129	3,818	211,223	108,039
336,143	3,538	211,234	107,839
337,158	3,446	211,062	107,677
338,173	3,502	210,820	107,583
339,187	3,663	210,630	107,590
340,202	3,510	210,598	107,456
341,216	3,457	210,381	107,299
342,231	3,569	210,307	107,330
343,246	3,488	210,062	107,138
344,260	3,415	210,117	107,106
345,275	3,480	209,966	107,065
346,289	3,927	209,837	107,302
347,304	3,724	209,776	107,119
348,319	3,883	209,465	107,062
349,333	3,586	209,526	106,876
350,348	3,677	209,237	106,782
351,362	4,064	209,186	107,016
352,377	3,651	209,090	106,670
353,392	3,716	208,900	106,609
354,406	3,695	208,863	106,566
355,421	194,853	1344,708	1432,868
356,435	155,528	1483,162	1432,955
