DTS Sentinel unit serial number:	SN410029Multiplexer serial number:	ORYXHardware model number:	OX2-SRSoftware version number:	ORYX F/W v4,00 Oryx Data Collector v3.7.2.0data status	okinstallation	B6 Nyhavnadifferential loss correction	single-endedforward channel	channel 2reverse channel	N/Adate	2023/12/08time	11:40:08forward acquisition time	300,00reverse acquisition time	0,00gamma	499,1914k internal	0,3160k external	0,3160temperature offset calibration	1,0000default loss term (dB/km)	0,3820temperature slope calibration	1,0000multiplexer offset coefficient	1,0000multiplexer slope coefficient	1,0000fibre end	0,00T internal ref (°C)	14,97T ext. ref 1 (°C)	-1,46T ext. ref 2 (°C)	-1,47length (m)	temperature (°C)	Stokes	anti-Stokes-744,400	-128,129	0,182	-0,019
-743,385	-137,766	-0,391	-0,032
-742,371	-200,000	0,052	0,188
-741,356	-68,437	-0,419	0,119
-740,342	-200,000	0,063	0,208
-739,327	-47,180	-0,296	-0,106
-738,312	-200,000	-0,027	-0,132
-737,298	24,246	-0,241	-0,146
-736,283	-200,000	-0,002	0,089
-735,269	-44,639	-0,262	0,096
-734,254	-200,000	0,014	-0,127
-733,239	-87,971	-0,397	-0,087
-732,225	230,812	0,064	0,077
-731,210	63,641	0,043	0,032
-730,196	-200,000	-0,011	-0,041
-729,181	-200,000	-0,011	0,064
-728,167	-200,000	-0,012	-0,063
-727,152	117,613	0,080	0,073
-726,137	-200,000	-0,014	-0,053
-725,123	291,700	-0,072	-0,097
-724,108	39,028	-0,090	-0,059
-723,094	216,504	-0,061	-0,072
-722,079	30,640	-0,159	-0,100
-721,064	-92,069	0,008	0,002
-720,050	240,839	-0,083	-0,103
-719,035	800,000	0,038	-0,095
-718,021	-180,472	0,127	-0,002
-717,006	-200,000	-0,020	0,089
-715,991	-12,977	-0,032	-0,015
-714,977	136,798	-0,065	-0,062
-713,962	170,818	-0,070	-0,074
-712,948	800,000	0,022	-0,065
-711,933	-67,899	0,008	-0,002
-710,918	371,184	0,039	-0,059
-709,904	-78,634	-0,008	0,002
-708,889	-200,000	-0,002	0,019
-707,875	800,000	0,022	-0,058
-706,860	-43,974	0,128	-0,047
-705,845	-200,000	0,008	-0,058
-704,831	-200,000	0,014	-0,090
-703,816	145,704	-0,149	-0,147
-702,802	658,711	-0,059	-0,112
-701,787	-200,000	-0,009	-0,067
-700,772	-200,000	-0,013	-0,105
-699,758	243,400	0,036	-0,044
-698,743	-200,000	0,023	0,091
-697,729	-79,024	-0,039	-0,010
-696,714	48,932	0,106	-0,073
-695,699	1,468	-0,118	-0,062
-694,685	-73,480	-0,036	-0,010
-693,670	107,718	-0,090	-0,079
-692,656	44,941	-0,049	-0,033
-691,641	12,259	-0,061	0,034
-690,627	-200,000	-0,001	-0,015
-689,612	53,012	-0,025	0,018
-688,597	-21,737	-0,116	-0,052
-687,583	-90,582	-0,080	-0,017
-686,568	800,000	0,014	0,038
-685,554	149,813	-0,036	-0,035
-684,539	-73,940	0,067	0,018
-683,524	-87,725	0,180	0,040
-682,510	19,097	-0,081	-0,048
-681,495	-200,000	-0,021	0,072
-680,481	211,000	-0,083	-0,096
-679,466	-200,000	-0,008	-0,075
-678,451	136,349	-0,013	-0,013
-677,437	-27,073	0,106	-0,045
-676,422	777,396	0,071	-0,143
-675,408	800,000	0,021	0,056
-674,393	120,987	-0,047	-0,043
-673,378	-154,746	-0,051	0,002
-672,364	-113,889	-0,111	-0,016
-671,349	136,307	0,026	-0,025
-670,335	395,232	-0,098	0,151
-669,320	-105,930	0,091	-0,015
-668,305	800,000	-0,017	-0,037
-667,291	616,752	0,065	0,120
-666,276	-123,653	-0,098	0,011
-665,262	-200,000	-0,002	0,021
-664,247	604,960	0,067	-0,122
-663,232	34,491	-0,220	-0,141
-662,218	-200,000	0,018	-0,094
-661,203	-200,000	-0,015	-0,095
-660,189	-43,830	-0,020	-0,007
-659,174	160,607	-0,114	-0,116
-658,159	-200,000	-0,003	-0,085
-657,145	-200,000	0,002	0,045
-656,130	158,069	-0,066	0,068
-655,116	-44,155	-0,153	-0,056
-654,101	-145,794	0,036	0,002
-653,086	13,535	-0,065	-0,037
-652,072	8,845	-0,068	0,038
-651,057	800,000	0,031	-0,063
-650,043	163,708	-0,046	0,048
-649,028	-200,000	0,028	0,137
-648,014	303,239	0,015	-0,020
-646,999	-47,741	-0,082	-0,029
-645,984	139,249	0,110	0,106
-644,970	-39,289	-0,054	-0,021
-643,955	-200,000	-0,038	-0,131
-642,941	536,946	0,030	-0,053
-641,926	800,000	-0,024	-0,061
-640,911	-200,000	-0,015	0,114
-639,897	-200,000	0,039	0,127
-638,882	436,987	0,071	0,114
-637,868	72,775	0,036	-0,028
-636,853	34,266	-0,061	-0,039
-635,838	-138,400	-0,051	-0,004
-634,824	-200,000	0,039	-0,149
-633,809	800,000	-0,038	-0,081
-632,795	-200,000	0,007	0,028
-631,780	-200,000	0,004	-0,153
-630,765	-94,299	-0,092	0,018
-629,751	5,744	0,028	0,015
-628,736	41,849	-0,104	0,069
-627,722	302,954	-0,065	-0,089
-626,707	-200,000	0,016	-0,068
-625,692	-132,257	0,061	0,006
-624,678	-85,802	0,026	0,006
-623,663	-40,255	-0,035	-0,013
-622,649	27,958	-0,181	0,112
-621,634	-200,000	0,013	-0,114
-620,619	307,054	-0,070	-0,095
-619,605	-67,622	-0,099	0,028
-618,590	146,278	0,092	-0,091
-617,576	-200,000	-0,033	-0,160
-616,561	434,611	-0,038	-0,060
-615,546	135,321	0,058	0,055
-614,532	-140,474	-0,071	0,005
-613,517	800,000	-0,018	0,047
-612,503	-77,050	0,062	0,016
-611,488	-200,000	0,004	-0,040
-610,474	-200,000	-0,026	-0,089
-609,459	227,294	-0,028	-0,033
-608,444	711,188	-0,074	-0,145
-607,430	-38,143	-0,057	0,022
-606,415	-29,578	0,026	-0,011
-605,401	-52,019	-0,092	0,031
-604,386	-200,000	-0,013	0,061
-603,371	427,989	-0,024	0,038
-602,357	-94,468	-0,059	0,012
-601,342	80,753	0,100	-0,079
-600,328	-152,336	-0,194	-0,010
-599,313	-200,000	0,011	-0,154
-598,298	443,445	-0,084	-0,135
-597,284	-54,879	0,032	0,010
-596,269	126,903	-0,097	-0,090
-595,255	800,000	0,030	-0,081
-594,240	800,000	-0,026	-0,071
-593,225	-108,478	-0,116	-0,018
-592,211	-82,901	-0,059	-0,014
-591,196	-200,000	0,029	-0,107
-590,182	122,212	-0,069	0,064
-589,167	180,276	0,037	-0,039
-588,152	-86,128	0,107	-0,024
-587,138	-200,000	-0,000	0,149
-586,123	718,171	-0,029	0,056
-585,109	-36,111	-0,164	0,064
-584,094	-200,000	-0,000	-0,023
-583,079	124,322	0,055	-0,051
-582,065	-119,681	0,103	0,013
-581,050	685,728	-0,012	-0,023
-580,036	-4,199	0,139	-0,070
-579,021	66,588	-0,151	-0,112
-578,006	-101,243	0,043	-0,008
-576,992	-104,385	0,141	-0,024
-575,977	106,830	0,109	0,094
-574,963	-200,000	0,013	-0,083
-573,948	-200,000	0,002	-0,067
-572,934	-200,000	0,027	0,093
-571,919	73,468	-0,083	-0,064
-570,904	-101,675	-0,131	-0,023
-569,890	-111,787	-0,062	-0,009
-568,875	162,363	0,058	-0,060
-567,861	800,000	0,073	0,154
-566,846	-200,000	-0,024	0,084
-565,831	24,148	0,078	-0,047
-564,817	28,042	-0,048	-0,029
-563,802	187,953	-0,071	-0,078
-562,788	800,000	-0,021	0,055
-561,773	800,000	-0,038	0,109
-560,758	233,724	-0,050	0,060
-559,744	70,922	0,142	0,108
-558,729	-42,899	-0,066	0,024
-557,715	748,721	-0,019	0,037
-556,700	40,781	-0,072	-0,048
-555,685	429,938	-0,069	-0,110
-554,671	800,000	-0,024	0,057
-553,656	-182,082	0,173	0,002
-552,642	800,000	-0,028	-0,075
-551,627	-35,249	0,065	-0,026
-550,612	-200,000	-0,008	-0,098
-549,598	-200,000	0,002	0,048
-548,583	11,278	-0,038	-0,021
-547,569	-200,000	0,003	0,012
-546,554	800,000	-0,066	0,168
-545,539	318,700	0,046	0,064
-544,525	-9,984	0,071	0,034
-543,510	-53,621	0,027	0,009
-542,496	43,399	-0,144	-0,096
-541,481	345,661	-0,013	-0,019
-540,466	-12,015	-0,057	0,027
-539,452	-200,000	0,015	0,095
-538,437	-72,760	0,096	-0,026
-537,423	-57,634	-0,073	0,023
-536,408	-200,000	0,016	0,062
-535,393	-200,000	-0,017	-0,141
-534,379	-3,141	0,078	0,040
-533,364	-41,088	-0,044	-0,016
-532,350	662,386	0,052	0,099
-531,335	-200,000	-0,000	0,060
-530,321	221,914	-0,009	0,010
-529,306	-200,000	-0,016	0,096
-528,291	-31,644	-0,089	-0,036
-527,277	800,000	-0,063	-0,135
-526,262	-200,000	-0,020	-0,103
-525,248	-49,046	-0,068	-0,023
-524,233	-108,903	0,057	-0,009
-523,218	-200,000	0,006	-0,043
-522,204	203,884	-0,083	0,094
-521,189	-200,000	0,006	0,159
-520,175	-128,041	-0,036	0,004
-519,160	-200,000	0,003	-0,148
-518,145	366,937	0,077	-0,114
-517,131	197,922	0,157	0,176
-516,116	-74,806	0,074	0,019
-515,102	27,234	0,093	0,057
-514,087	-176,155	-0,031	0,001
-513,072	232,589	-0,054	0,065
-512,058	-200,000	-0,015	0,058
-511,043	-22,420	0,097	0,043
-510,029	-200,000	0,004	0,084
-509,014	800,000	-0,067	0,177
-507,999	800,000	0,029	-0,068
-506,985	187,480	-0,082	-0,090
-505,970	-36,463	0,138	-0,054
-504,956	-160,387	0,088	0,003
-503,941	-200,000	-0,024	0,101
-502,926	24,601	0,093	-0,056
-501,912	341,668	-0,028	0,040
-500,897	-79,453	-0,126	0,031
-499,883	-200,000	0,028	-0,162
-498,868	-36,574	0,094	-0,037
-497,853	-200,000	0,009	-0,103
-496,839	-200,000	-0,001	0,136
-495,824	800,000	0,057	0,163
-494,810	33,695	0,006	0,004
-493,795	412,853	-0,034	0,053
-492,781	800,000	-0,026	0,075
-491,766	-60,287	0,053	0,016
-490,751	-34,247	-0,055	-0,022
-489,737	-86,375	-0,113	0,025
-488,722	-52,781	0,115	0,038
-487,708	-200,000	0,011	0,068
-486,693	-117,541	-0,072	-0,009
-485,678	-200,000	-0,014	-0,052
-484,664	77,549	0,040	0,031
-483,649	194,366	0,075	0,083
-482,635	800,000	0,031	0,087
-481,620	113,589	0,042	0,038
-480,605	-111,480	0,176	0,026
-479,591	-200,000	-0,020	0,074
-478,576	-76,832	-0,096	-0,024
-477,562	-200,000	0,007	-0,146
-476,547	-117,223	-0,038	0,005
-475,532	-80,177	-0,070	-0,017
-474,518	68,719	-0,026	-0,019
-473,503	1,528	0,074	0,039
-472,489	-3,556	0,098	0,050
-471,474	-74,273	0,021	0,006
-470,459	-200,000	-0,028	0,127
-469,445	800,000	0,038	0,083
-468,430	800,000	-0,041	0,097
-467,416	-21,567	-0,066	-0,029
-466,401	800,000	-0,033	0,086
-465,386	-103,462	0,033	0,006
-464,372	-62,818	-0,120	0,036
-463,357	800,000	0,040	-0,105
-462,343	12,541	-0,090	-0,051
-461,328	544,515	-0,048	-0,084
-460,313	-117,727	0,082	0,011
-459,299	497,435	0,066	0,111
-458,284	56,856	0,205	0,145
-457,270	800,000	0,067	0,170
-456,255	179,600	-0,057	-0,061
-455,241	240,750	0,101	0,123
-454,226	211,314	0,029	-0,033
-453,211	99,908	0,037	-0,031
-452,197	94,327	-0,099	-0,082
-451,182	-200,000	0,002	-0,036
-450,168	99,096	-0,058	0,049
-449,153	-200,000	0,006	-0,053
-448,138	-53,053	0,169	-0,056
-447,124	-200,000	0,011	-0,106
-446,109	-200,000	-0,003	-0,141
-445,095	800,000	0,045	0,119
-444,080	72,760	-0,127	0,097
-443,065	212,489	-0,041	0,048
-442,051	800,000	-0,027	0,075
-441,036	462,076	-0,046	-0,074
-440,022	-200,000	-0,049	0,186
-439,007	363,228	-0,055	0,081
-437,992	14,402	-0,070	0,039
-436,978	73,284	0,056	-0,042
-435,963	-200,000	-0,015	-0,119
-434,949	-200,000	-0,035	-0,146
-433,934	800,000	0,059	-0,167
-432,919	-200,000	-0,002	0,082
-431,905	68,693	0,051	0,038
-430,890	-156,012	0,064	-0,003
-429,876	-200,000	0,024	-0,096
-428,861	-114,748	0,058	0,008
-427,846	263,021	-0,076	0,097
-426,832	-200,000	0,001	0,059
-425,817	-200,000	-0,009	0,041
-424,803	-129,731	-0,167	-0,016
-423,788	-43,874	0,066	-0,024
-422,773	-115,355	0,050	0,007
-421,759	-200,000	-0,003	0,019
-420,744	-93,446	0,121	-0,024
-419,730	800,000	-0,009	0,019
-418,715	-7,678	0,067	0,033
-417,701	22,833	-0,053	-0,031
-416,686	-60,462	0,093	0,028
-415,671	-53,760	0,291	0,096
-414,657	800,000	0,029	-0,073
-413,642	316,765	0,045	0,062
-412,628	-112,766	-0,170	-0,024
-411,613	-140,876	0,075	-0,006
-410,598	-42,775	-0,149	-0,055
-409,584	162,873	-0,050	-0,051
-408,569	-65,528	0,074	-0,021
-407,555	-200,000	-0,009	0,035
-406,540	-161,792	-0,133	-0,005
-405,525	-200,000	-0,006	-0,091
-404,511	-88,530	-0,066	-0,014
-403,496	-200,000	-0,028	-0,124
-402,482	15,829	0,080	-0,046
-401,467	-133,101	0,110	0,010
-400,452	61,483	0,024	0,018
-399,438	-127,084	-0,146	-0,015
-398,423	-71,350	0,064	-0,017
-397,409	90,158	-0,178	-0,145
-396,394	86,239	-0,040	-0,032
-395,379	-200,000	0,005	0,125
-394,365	800,000	0,019	0,054
-393,350	-137,525	0,153	0,012
-392,336	-68,708	0,029	0,008
-391,321	99,058	0,104	0,087
-390,306	-200,000	-0,024	-0,080
-389,292	182,800	-0,102	-0,109
-388,277	110,751	0,062	-0,054
-387,263	-132,728	0,128	-0,012
-386,248	139,079	-0,084	0,080
-385,233	86,370	-0,036	0,029
-384,219	-200,000	0,044	0,159
-383,204	192,102	-0,024	0,026
-382,190	-200,000	-0,009	-0,123
-381,175	390,569	0,056	-0,084
-380,160	-133,922	-0,150	0,013
-379,146	118,935	0,032	0,028
-378,131	111,909	-0,050	0,044
-377,117	800,000	-0,022	0,052
-376,102	-200,000	-0,009	0,180
-375,088	-26,904	-0,121	-0,051
-374,073	-23,376	-0,079	0,034
-373,058	-200,000	-0,030	-0,101
-372,044	800,000	-0,018	-0,054
-371,029	7,401	0,053	0,029
-370,015	-27,160	-0,057	-0,024
-369,000	800,000	0,021	-0,063
-367,985	113,129	0,090	-0,079
-366,971	67,955	0,061	0,045
-365,956	402,929	-0,066	-0,101
-364,942	298,930	-0,016	-0,022
-363,927	-112,834	0,068	0,010
-362,912	78,867	0,022	0,017
-361,898	202,297	-0,062	0,069
-360,883	44,560	-0,069	-0,046
-359,869	11,417	0,137	0,076
-358,854	-98,028	-0,018	0,003
-357,839	722,686	0,033	0,064
-356,825	387,981	0,038	-0,057
-355,810	180,053	-0,045	-0,048
-354,796	-200,000	0,012	-0,104
-353,781	147,145	-0,058	0,057
-352,766	-45,589	-0,113	-0,040
-351,752	-170,410	-0,020	-0,001
-350,737	-171,608	-0,058	0,001
-349,723	41,845	-0,021	0,014
-348,708	32,435	0,102	-0,064
-347,693	342,926	0,107	-0,153
-346,679	-200,000	-0,020	-0,115
-345,664	-74,817	-0,084	0,022
-344,650	-200,000	-0,007	-0,038
-343,635	-2,071	0,127	0,065
-342,620	-200,000	-0,016	0,062
-341,606	-140,439	0,047	-0,004
-340,591	21,908	-0,100	0,059
-339,577	182,238	0,060	0,065
-338,562	283,430	0,047	0,061
-337,548	-104,722	-0,073	-0,012
-336,533	-101,783	0,065	-0,011
-335,518	23,286	0,064	-0,038
-334,504	-200,000	0,004	-0,040
-333,489	670,688	0,055	0,104
-332,475	51,103	0,068	0,047
-331,460	800,000	0,035	-0,082
-330,445	-200,000	0,007	0,151
-329,431	297,881	0,060	0,080
-328,416	800,000	0,038	-0,092
-327,402	49,392	-0,054	0,037
-326,387	-200,000	-0,024	-0,111
-325,372	-104,166	0,084	0,014
-324,358	-175,838	-0,169	0,003
-323,343	159,804	-0,030	-0,031
-322,329	-200,000	0,016	-0,069
-321,314	749,409	0,058	-0,115
-320,299	211,981	0,123	0,141
-319,285	-39,136	-0,047	-0,018
-318,270	-200,000	-0,003	0,059
-317,256	-48,425	-0,048	0,017
-316,241	-6,275	0,035	-0,017
-315,226	138,624	-0,068	0,065
-314,212	410,447	0,058	0,090
-313,197	800,000	0,062	0,192
-312,183	19,552	0,138	-0,080
-311,168	-200,000	-0,027	-0,142
-310,153	60,770	-0,089	-0,064
-309,139	113,228	-0,037	-0,032
-308,124	227,751	0,098	0,116
-307,110	-200,000	-0,017	0,182
-306,095	-200,000	0,005	0,094
-305,080	310,871	-0,074	0,101
-304,066	710,604	0,034	-0,066
-303,051	102,078	-0,060	0,050
-302,037	43,337	0,067	-0,045
-301,022	98,350	0,087	-0,073
-300,008	391,664	-0,086	0,129
-298,993	-77,724	0,145	0,036
-297,978	50,286	0,092	0,063
-296,964	-148,205	-0,157	-0,009
-295,949	-130,447	-0,040	-0,004
-294,935	800,000	0,012	0,027
-293,920	754,443	0,041	-0,080
-292,905	87,180	0,093	0,075
-291,891	-31,047	-0,018	-0,007
-290,876	724,594	-0,037	0,072
-289,862	-82,873	-0,159	-0,037
-288,847	800,000	-0,031	-0,091
-287,832	-82,165	0,095	-0,022
-286,818	112,589	0,076	0,066
-285,803	-20,108	-0,094	-0,042
-284,789	800,000	0,012	0,025
-283,774	9,306	-0,168	-0,092
-282,759	800,000	-0,025	-0,073
-281,745	5,380	0,033	0,017
-280,730	12,067	0,045	0,025
-279,716	-155,728	0,086	-0,004
-278,701	-91,097	0,053	0,011
-277,686	-121,773	-0,197	-0,023
-276,672	-36,608	0,159	-0,061
-275,657	79,406	-0,032	-0,025
-274,643	55,354	-0,176	0,123
-273,628	492,836	0,042	-0,070
-272,613	-200,000	0,007	-0,078
-271,599	496,252	0,035	-0,058
-270,584	86,711	0,028	0,022
-269,570	-200,000	-0,003	0,117
-268,555	69,523	0,083	-0,062
-267,540	-200,000	-0,041	-0,210
-266,526	239,197	-0,011	0,013
-265,511	-53,813	0,065	0,021
-264,497	-200,000	0,017	0,088
-263,482	305,101	-0,016	-0,021
-262,467	-200,000	0,004	0,063
-261,453	-200,000	0,055	-0,196
-260,438	17,348	0,036	0,021
-259,424	800,000	0,038	-0,088
-258,409	-36,380	-0,108	-0,042
-257,395	46,439	0,101	0,068
-256,380	-200,000	-0,071	0,000
-255,365	-200,000	0,018	0,089
-254,351	759,565	-0,010	-0,020
-253,336	31,725	0,088	0,055
-252,322	438,951	-0,085	-0,135
-251,307	110,072	-0,080	0,069
-250,292	-30,360	-0,028	0,012
-249,278	-200,000	-0,004	0,104
-248,263	-43,394	-0,077	-0,028
-247,249	154,189	-0,119	0,118
-246,234	-1,072	-0,138	0,070
-245,219	392,970	-0,032	-0,049
-244,205	0,158	-0,142	-0,073
-243,190	420,748	0,026	0,040
-242,176	16,520	-0,175	-0,100
-241,161	6,596	0,066	-0,035
-240,146	-200,000	0,007	0,112
-239,132	800,000	-0,023	-0,046
-238,117	-115,439	-0,078	-0,011
-237,103	208,933	0,065	0,074
-236,088	-121,985	0,151	0,018
-235,073	800,000	-0,054	-0,118
-234,059	-40,340	0,087	0,032
-233,044	-200,000	0,038	0,129
-232,030	800,000	0,041	0,104
-231,015	-200,000	-0,016	0,110
-230,000	-24,365	0,058	-0,025
-228,986	-200,000	-0,006	0,058
-227,971	-200,000	-0,013	0,084
-226,957	-5,560	0,187	0,092
-225,942	136,915	-0,081	0,077
-224,927	-25,395	0,025	-0,011
-223,913	16,458	0,110	-0,063
-222,898	800,000	-0,093	-0,190
-221,884	-200,000	0,002	0,049
-220,869	-200,000	0,006	0,076
-219,855	-56,592	0,089	0,028
-218,840	-133,686	0,116	-0,010
-217,825	800,000	-0,012	0,037
-216,811	-15,545	-0,085	-0,039
-215,796	156,176	-0,088	-0,088
-214,782	-96,851	0,114	-0,021
-213,767	800,000	-0,032	0,074
-212,752	800,000	-0,054	0,123
-211,738	317,009	0,039	0,054
-210,723	8,322	-0,072	-0,039
-209,709	429,962	0,107	-0,167
-208,694	-129,565	-0,069	0,007
-207,679	-200,000	-0,004	-0,074
-206,665	-177,213	0,077	0,001
-205,650	-153,832	0,190	0,009
-204,636	-79,686	0,021	-0,005
-203,621	713,209	0,057	0,109
-202,606	-52,576	0,111	-0,037
-201,592	615,593	-0,113	-0,206
-200,577	-100,306	0,006	0,001
-199,563	-200,000	0,006	-0,092
-198,548	800,000	-0,045	0,115
-197,533	54,552	0,114	-0,079
-196,519	-32,743	-0,106	0,042
-195,504	-115,940	0,017	0,002
-194,490	-40,443	-0,068	-0,025
-193,475	-95,343	-0,056	-0,011
-192,460	-103,067	0,086	0,015
-191,446	-141,034	-0,092	-0,007
-190,431	800,000	0,027	0,060
-189,417	-200,000	0,032	0,189
-188,402	-200,000	0,007	0,035
-187,387	323,459	-0,012	0,017
-186,373	773,346	0,030	-0,058
-185,358	800,000	0,054	-0,130
-184,344	-116,848	-0,086	0,011
-183,329	-108,813	0,055	-0,008
-182,315	-200,000	-0,006	-0,143
-181,300	-200,000	-0,030	0,102
-180,285	-200,000	-0,008	0,043
-179,271	800,000	-0,029	-0,064
-178,256	-16,746	-0,069	-0,031
-177,242	27,260	0,116	0,070
-176,227	-21,334	0,082	-0,036
-175,212	169,272	0,136	0,140
-174,198	298,777	0,017	-0,023
-173,183	-74,046	-0,032	-0,008
-172,169	-81,668	-0,065	0,015
-171,154	-200,000	-0,007	-0,162
-170,139	82,013	0,132	-0,103
-169,125	130,720	-0,067	-0,062
-168,110	154,864	-0,070	-0,069
-167,096	-58,343	0,051	0,016
-166,081	-132,350	-0,106	-0,010
-165,066	-50,632	-0,027	0,009
-164,052	800,000	0,024	-0,072
-163,037	428,111	0,050	0,078
-162,023	405,150	-0,034	-0,052
-161,008	19,172	-0,101	-0,058
-159,993	404,209	-0,052	0,080
-158,979	-200,000	0,002	-0,034
-157,964	160,596	-0,094	-0,095
-156,950	132,272	0,020	-0,019
-155,935	764,100	0,045	-0,088
-154,920	-87,384	0,157	0,034
-153,906	691,465	0,041	0,077
-152,891	-88,753	-0,108	-0,023
-151,877	-92,515	-0,083	-0,017
-150,862	415,006	0,130	-0,199
-149,847	35,341	0,044	0,028
-148,833	467,604	-0,038	-0,061
-147,818	83,268	-0,115	-0,090
-146,804	302,050	-0,025	0,033
-145,789	-16,255	-0,124	0,057
-144,775	562,306	0,051	-0,090
-143,760	-110,719	-0,025	-0,004
-142,745	481,299	0,027	-0,045
-141,731	-132,450	-0,069	0,006
-140,716	-200,000	-0,006	0,092
-139,702	-200,000	-0,009	0,090
-138,687	-200,000	-0,024	0,106
-137,672	-56,517	-0,167	-0,053
-136,658	800,000	-0,062	-0,157
-135,643	-51,151	-0,099	0,033
-134,629	134,358	-0,109	0,102
-133,614	-48,725	0,045	-0,015
-132,599	-70,169	0,108	0,029
-131,585	-200,000	0,015	-0,062
-130,570	734,734	-0,045	-0,087
-129,556	-167,137	0,013	0,000
-128,541	-7,532	0,056	-0,027
-127,526	800,000	-0,027	0,055
-126,512	-33,566	0,054	0,021
-125,497	-52,528	-0,026	-0,009
-124,483	107,501	0,047	-0,041
-123,468	-151,217	0,068	-0,004
-122,453	-9,966	-0,028	0,013
-121,439	366,716	-0,123	-0,179
-120,424	800,000	-0,037	0,098
-119,410	6,165	0,176	0,093
-118,395	-136,389	0,052	-0,004
-117,380	54,394	-0,123	0,085
-116,366	276,976	0,072	0,092
-115,351	51,765	-0,039	-0,027
-114,337	-94,232	-0,163	-0,032
-113,322	-28,386	0,132	-0,055
-112,307	531,317	0,016	-0,027
-111,293	512,694	-0,051	0,086
-110,278	-46,054	0,017	0,006
-109,264	800,000	-0,052	0,143
-108,249	147,852	-0,055	0,053
-107,234	646,822	0,048	-0,089
-106,220	138,226	0,116	-0,109
-105,205	800,000	-0,015	0,043
-104,191	182,452	-0,072	0,076
-103,176	-124,981	0,103	0,011
-102,162	258,762	0,109	-0,135
-101,147	-9,965	-0,084	0,040
-100,132	-43,258	0,109	-0,039
-99,118	123,500	0,072	-0,065
-98,103	-200,000	-0,028	0,095
-97,089	26,428	0,104	-0,062
-96,074	214,594	0,020	0,023
-95,059	80,852	0,080	-0,062
-94,045	-27,236	-0,111	-0,046
-93,030	611,262	0,076	-0,137
-92,016	-97,497	-0,129	0,024
-91,001	121,422	0,053	0,048
-89,986	800,000	0,027	-0,077
-88,972	-200,000	0,008	0,034
-87,957	517,082	0,021	0,035
-86,943	-200,000	-0,001	-0,017
-85,928	-200,000	0,041	-0,130
-84,913	55,810	-0,120	-0,083
-83,899	-23,275	0,051	0,022
-82,884	-113,060	0,120	-0,017
-81,870	-200,000	0,026	-0,108
-80,855	-200,000	0,015	0,119
-79,840	138,878	-0,089	0,084
-78,826	43,870	-0,035	0,023
-77,811	-200,000	0,003	0,014
-76,797	-106,396	-0,032	-0,005
-75,782	572,055	0,066	-0,116
-74,767	800,000	0,051	-0,110
-73,753	-200,000	-0,012	-0,082
-72,738	755,814	0,021	-0,042
-71,724	156,102	0,039	-0,039
-70,709	-200,000	-0,043	-0,230
-69,694	-200,000	-0,005	-0,039
-68,680	-108,968	-0,023	0,003
-67,665	-113,465	0,045	0,006
-66,651	-101,944	0,051	-0,009
-65,636	34,771	0,055	-0,035
-64,622	220,664	-0,031	-0,036
-63,607	53,502	-0,068	-0,047
-62,592	470,547	-0,049	0,079
-61,578	139,453	-0,059	0,056
-60,563	260,897	0,071	0,089
-59,549	-74,074	-0,069	0,018
-58,534	25,531	-2,014	-1,199
-57,519	800,000	-0,228	-0,681
-56,505	-200,000	-1,297	-5,037
-55,490	92,211	0,866	0,700
-54,476	800,000	5,370	12,101
-53,461	-200,000	18,010	290,566
-52,446	800,000	727,919	2222,236
-51,432	531,381	1640,168	2792,037
-50,417	108,613	1629,436	1395,211
-49,403	72,332	1283,027	957,604
-48,388	31,090	1025,421	629,172
-47,373	19,875	987,551	569,033
-46,359	18,141	975,643	556,477
-45,344	15,334	971,542	544,954
-44,330	15,471	970,232	544,643
-43,315	15,047	968,361	542,190
-42,300	14,981	967,356	541,390
-41,286	14,986	966,251	540,768
-40,271	15,045	965,324	540,420
-39,257	15,009	964,482	539,811
-38,242	15,045	963,429	539,315
-37,227	15,010	962,792	538,823
-36,213	15,022	961,911	538,348
-35,198	14,981	961,021	537,696
-34,184	15,028	960,399	537,479
-33,169	14,914	959,404	536,533
-32,154	15,030	958,319	536,278
-31,140	14,984	957,439	535,617
-30,125	15,009	956,828	535,335
-29,111	15,017	955,912	534,826
-28,096	14,991	955,319	534,388
-27,082	14,979	954,614	533,937
-26,067	15,020	953,854	533,622
-25,052	15,042	953,011	533,198
-24,038	15,022	952,278	532,701
-23,023	14,997	951,767	532,315
-22,009	15,082	951,065	532,173
-20,994	15,034	950,408	531,631
-19,979	15,022	949,877	531,277
-18,965	14,996	949,407	530,909
-17,950	15,004	948,636	530,482
-16,936	14,939	948,149	529,980
-15,921	14,964	947,282	529,555
-14,906	14,956	946,486	529,065
-13,892	14,906	945,791	528,496
-12,877	14,891	945,303	528,155
-11,863	14,885	944,654	527,750
-10,848	14,910	944,179	527,544
-9,833	15,012	943,712	527,585
-8,819	14,931	943,132	526,984
-7,804	14,890	942,452	526,452
-6,790	14,896	941,789	526,082
-5,775	14,885	941,507	525,867
-4,760	14,950	940,714	525,609
-3,746	14,927	939,867	525,042
-2,731	14,799	939,272	524,286
-1,717	14,719	938,776	523,735
-0,702	14,782	938,036	523,501
0,313	14,542	937,364	523,158
1,327	18,028	935,375	532,960
2,342	27,302	788,956	473,918
3,356	23,764	444,212	261,580
4,371	-5,717	295,600	144,607
5,386	-9,518	277,156	131,972
6,400	-10,813	271,493	128,062
7,415	-10,986	269,293	126,853
8,429	-10,883	267,776	126,221
9,444	-10,929	266,953	125,780
10,459	-10,995	266,382	125,440
11,473	-11,207	265,727	124,928
12,488	-11,332	265,256	124,581
13,502	-11,475	264,778	124,217
14,517	-11,326	264,228	124,082
15,531	-11,187	263,867	124,027
16,546	-11,175	263,545	123,876
17,561	-11,312	263,291	123,621
18,575	-10,945	262,801	123,710
19,590	-11,266	262,454	123,248
20,604	-11,036	262,236	123,340
21,619	-11,328	261,924	122,922
22,634	-10,958	261,407	122,998
23,648	-11,214	261,168	122,646
24,663	-11,313	260,829	122,389
25,677	-11,187	260,597	122,380
26,692	-11,306	260,241	122,097
27,707	-11,219	260,160	122,125
28,721	-11,354	259,748	121,801
29,736	-11,270	259,436	121,719
30,750	-11,083	259,192	121,759
31,765	-11,531	259,176	121,344
32,780	-11,233	258,706	121,376
33,794	-11,282	258,594	121,270
34,809	-11,412	258,403	121,055
35,823	-11,397	258,100	120,916
36,838	-11,501	257,901	120,719
37,853	-11,578	257,765	120,578
38,867	-11,297	257,217	120,557
39,882	-11,485	257,227	120,386
40,896	-11,461	256,921	120,253
41,911	-11,316	256,582	120,210
42,926	-11,307	256,505	120,171
43,940	-11,450	256,122	119,857
44,955	-11,429	255,854	119,738
45,969	-11,640	255,681	119,463
46,984	-11,705	255,388	119,259
47,999	-12,045	255,274	118,899
49,013	-11,906	254,860	118,816
50,028	-12,179	254,710	118,499
51,042	-12,293	254,436	118,262
52,057	-12,091	254,135	118,286
53,071	-12,005	253,903	118,242
54,086	-12,079	253,713	118,079
55,101	-11,989	253,658	118,121
56,115	-11,790	253,574	118,243
57,130	-11,289	253,407	118,587
58,144	-11,162	253,263	118,619
59,159	-10,979	252,908	118,600
60,174	-10,989	252,830	118,543
61,188	-11,108	252,590	118,319
62,203	-11,339	252,519	118,076
63,217	-11,303	252,210	117,952
64,232	-11,397	251,960	117,744
65,247	-11,363	251,874	117,723
66,261	-11,210	251,523	117,679
67,276	-11,583	251,290	117,241
68,290	-11,695	250,939	116,970
69,305	-11,612	250,716	116,926
70,320	-11,672	250,633	116,826
71,334	-11,613	250,511	116,809
72,349	-11,166	250,292	117,078
73,363	-11,239	250,138	116,933
74,378	-11,199	249,870	116,832
75,393	-11,232	249,690	116,709
76,407	-11,235	249,342	116,533
77,422	-11,107	249,138	116,536
78,436	-11,200	249,042	116,402
79,451	-11,319	248,994	116,269
80,466	-11,235	248,525	116,110
81,480	-11,497	248,283	115,765
82,495	-11,572	248,156	115,633
83,509	-11,564	248,083	115,595
84,524	-11,595	247,802	115,427
85,539	-11,704	247,354	115,116
86,553	-11,642	247,333	115,149
87,568	-11,384	247,093	115,243
88,582	-11,701	246,871	114,864
89,597	-11,582	246,726	114,887
90,611	-11,397	246,685	115,012
91,626	-11,424	246,531	114,907
92,641	-11,355	246,235	114,817
93,655	-11,517	246,130	114,622
94,670	-11,358	245,811	114,596
95,684	-11,509	245,712	114,414
96,699	-11,499	245,496	114,311
97,714	-11,500	245,289	114,204
98,728	-11,651	245,123	113,991
99,743	-11,614	244,800	113,861
100,757	-11,813	244,685	113,632
101,772	-11,736	244,458	113,580
102,787	-11,729	244,350	113,526
103,801	-11,532	244,127	113,576
104,816	-11,450	243,918	113,535
105,830	-11,292	243,873	113,635
106,845	-11,268	243,669	113,550
107,860	-11,254	243,514	113,479
108,874	-11,352	243,160	113,224
109,889	-11,449	243,023	113,069
110,903	-11,705	242,923	112,802
111,918	-11,444	242,654	112,882
112,933	-11,509	242,588	112,787
113,947	-11,626	242,406	112,597
114,962	-11,538	242,260	112,591
115,976	-11,671	242,153	112,422
116,991	-11,623	241,882	112,326
118,006	-11,549	241,688	112,286
119,020	-11,368	241,620	112,393
120,035	-11,332	241,395	112,308
121,049	-11,280	241,189	112,245
122,064	-11,320	241,057	112,140
123,079	-11,208	240,908	112,152
124,093	-11,429	240,615	111,826
125,108	-11,772	240,448	111,458
126,122	-11,654	240,117	111,392
127,137	-11,813	239,887	111,146
128,151	-11,770	239,730	111,098
129,166	-11,655	239,535	111,091
130,181	-11,859	239,534	110,915
131,195	-11,870	239,269	110,773
132,210	-11,436	239,059	111,018
133,224	-11,537	238,819	110,815
134,239	-11,456	238,682	110,807
135,254	-11,592	238,596	110,647
136,268	-11,613	238,307	110,487
137,283	-11,800	238,076	110,218
138,297	-11,804	237,884	110,117
139,312	-11,779	237,647	110,018
140,327	-11,473	237,551	110,209
141,341	-11,111	237,702	110,560
142,356	-11,104	237,500	110,462
143,370	-11,126	237,157	110,275
144,385	-11,115	237,202	110,295
145,400	-10,781	236,896	110,410
146,414	-11,131	236,667	110,014
147,429	-11,260	236,632	109,884
148,443	-10,985	236,389	109,981
149,458	-10,922	236,185	109,927
150,473	-11,029	236,133	109,808
151,487	-11,086	235,911	109,649
152,502	-11,256	235,763	109,435
153,516	-11,166	235,708	109,471
154,531	-10,976	235,511	109,521
155,546	-10,940	235,157	109,375
156,560	-11,149	234,947	109,103
157,575	-11,470	234,868	108,801
158,589	-11,238	234,704	108,899
159,604	-11,098	234,506	108,909
160,619	-10,870	234,404	109,032
161,633	-11,079	234,264	108,792
162,648	-11,132	234,199	108,710
163,662	-11,051	233,887	108,620
164,677	-11,336	233,860	108,373
165,692	-11,220	233,635	108,350
166,706	-10,926	233,544	108,529
167,721	-10,903	233,418	108,480
168,735	-10,824	233,257	108,458
169,750	-10,928	232,998	108,245
170,764	-11,139	232,912	108,030
171,779	-10,972	232,654	108,032
172,794	-10,873	232,582	108,066
173,808	-11,337	232,408	107,613
174,823	-11,552	231,931	107,214
175,837	-11,657	231,739	107,034
176,852	-11,253	231,891	107,410
177,867	-11,107	231,760	107,454
178,881	-10,929	231,536	107,479
179,896	-11,116	231,532	107,322
180,910	-10,915	231,345	107,382
181,925	-11,049	231,231	107,215
182,940	-10,984	231,064	107,179
183,954	-10,991	230,868	107,073
184,969	-10,809	230,850	107,196
185,983	-10,793	230,577	107,073
186,998	-10,735	230,416	107,033
188,013	-10,627	230,213	107,013
189,027	-10,793	230,041	106,795
190,042	-10,712	230,074	106,863
191,056	-10,786	229,818	106,678
192,071	-10,823	229,553	106,517
193,086	-10,802	229,498	106,498
194,100	-11,006	229,292	106,235
195,115	-11,451	229,064	105,777
196,129	-11,197	228,799	105,841
197,144	-6,412	230,598	110,373
198,159	-0,702	231,991	115,472
199,173	2,553	233,068	118,534
200,188	2,995	232,948	118,806
201,202	3,057	232,867	118,802
202,217	3,258	232,612	118,817
203,232	3,331	232,602	118,859
204,246	3,456	232,609	118,949
205,261	3,487	232,587	118,951
206,275	3,869	232,351	119,116
207,290	3,818	232,222	119,000
208,304	3,501	232,203	118,733
209,319	3,624	231,975	118,702
210,334	3,697	231,744	118,629
211,348	3,310	231,499	118,194
212,363	3,250	231,180	117,975
213,377	3,015	230,882	117,631
214,392	2,794	230,778	117,397
215,407	2,945	230,787	117,508
216,421	2,842	230,507	117,276
217,436	2,950	230,379	117,283
218,450	2,770	230,071	116,978
219,465	2,635	230,073	116,865
220,480	2,673	229,934	116,813
221,494	2,905	229,716	116,869
222,509	3,190	229,563	116,999
223,523	3,026	229,520	116,841
224,538	3,029	229,345	116,744
225,553	3,097	229,273	116,749
226,567	2,973	229,180	116,597
227,582	3,196	228,960	116,645
228,596	3,381	228,858	116,723
229,611	3,126	228,665	116,420
230,626	2,933	228,319	116,087
231,640	2,800	228,326	115,979
232,655	3,185	228,270	116,232
233,669	3,485	227,971	116,298
234,684	3,650	227,972	116,413
235,699	3,319	227,818	116,073
236,713	3,064	227,594	115,755
237,728	3,004	227,328	115,564
238,742	3,031	227,131	115,474
239,757	2,782	227,196	115,309
240,772	2,990	226,994	115,353
241,786	2,770	226,767	115,062
242,801	3,071	226,688	115,238
243,815	3,400	226,726	115,496
244,830	3,376	226,589	115,397
245,844	3,144	226,351	115,091
246,859	3,139	226,105	114,952
247,874	3,179	226,017	114,927
248,888	3,181	225,938	114,878
249,903	3,118	225,728	114,714
250,917	3,293	225,494	114,715
251,932	3,066	225,308	114,441
252,947	2,840	225,092	114,152
253,961	3,048	225,062	114,282
254,976	2,839	224,819	113,992
255,990	3,064	224,838	114,160
257,005	3,239	224,669	114,194
258,020	3,000	224,649	113,996
259,034	3,342	224,371	114,099
260,049	3,277	224,240	113,974
261,063	3,126	224,207	113,835
262,078	3,427	223,953	113,919
263,093	3,481	223,857	113,901
264,107	3,339	223,696	113,704
265,122	3,150	223,581	113,494
266,136	3,706	223,341	113,775
267,151	3,485	223,350	113,605
268,166	3,041	223,140	113,160
269,180	2,831	222,636	112,739
270,195	2,900	222,607	112,765
271,209	2,949	222,526	112,750
272,224	2,986	222,354	112,680
273,239	3,188	222,406	112,846
274,253	2,719	222,259	112,415
275,268	2,738	221,991	112,283
276,282	2,794	221,793	112,214
277,297	2,864	221,567	112,142
278,312	2,889	221,530	112,131
279,326	2,846	221,552	112,101
280,341	2,900	221,343	112,024
281,355	3,083	221,153	112,053
282,370	3,209	221,041	112,078
283,384	2,973	220,767	111,757
284,399	2,707	220,740	111,539
285,414	2,692	220,761	111,528
286,428	2,888	220,466	111,513
287,443	3,114	220,440	111,655
288,457	3,137	220,195	111,537
289,472	2,862	219,975	111,215
290,487	2,565	219,690	110,845
291,501	2,523	219,666	110,792
292,516	2,627	219,571	110,810
293,530	2,656	219,351	110,710
294,545	2,329	219,312	110,443
295,560	3,062	219,099	110,858
296,574	3,080	219,013	110,818
297,589	2,907	218,902	110,626
298,603	3,008	218,580	110,527
299,618	2,944	218,788	110,576
300,633	3,017	218,626	110,537
301,647	3,253	218,470	110,619
302,662	3,329	218,396	110,626
303,676	3,043	218,309	110,365
304,691	3,247	217,999	110,346
305,706	3,097	217,935	110,196
306,720	3,352	217,664	110,233
307,735	2,676	217,646	109,727
308,749	2,717	217,367	109,606
309,764	3,239	217,298	109,937
310,779	3,146	217,166	109,793
311,793	3,127	217,021	109,697
312,808	3,173	216,906	109,662
313,822	3,025	216,780	109,482
314,837	2,956	216,537	109,300
315,852	2,992	216,203	109,148
316,866	3,032	216,269	109,200
317,881	3,270	216,197	109,324
318,895	3,160	215,987	109,130
319,910	2,991	215,874	108,942
320,925	2,709	215,590	108,588
321,939	2,458	215,507	108,358
322,954	2,632	215,473	108,455
323,968	3,025	215,371	108,674
324,983	3,155	215,272	108,706
325,997	3,316	215,135	108,742
327,012	3,152	215,061	108,578
328,027	3,095	214,798	108,395
329,041	3,196	214,754	108,435
330,056	3,513	214,573	108,559
331,070	2,880	214,513	108,071
332,085	2,560	214,060	107,606
333,100	2,574	213,925	107,539
334,114	3,063	213,869	107,847
335,129	3,042	213,826	107,800
336,143	2,838	213,672	107,569
337,158	2,934	213,473	107,527
338,173	3,158	213,338	107,607
339,187	2,940	213,204	107,377
340,202	2,909	212,955	107,220
341,216	2,764	212,963	107,112
342,231	2,782	212,880	107,074
343,246	2,884	212,635	107,012
344,260	3,023	212,529	107,047
345,275	3,250	212,435	107,149
346,289	3,094	212,284	106,954
347,304	3,051	212,283	106,914
348,319	3,311	212,072	106,980
349,333	2,972	212,018	106,706
350,348	3,055	211,741	106,615
351,362	3,318	211,680	106,758
352,377	3,304	211,571	106,684
353,392	3,121	211,285	106,403
354,406	3,235	211,238	106,449
355,421	195,984	1337,417	1415,395
356,435	156,575	1474,600	1415,359
