DTS Sentinel unit serial number:	SN410029Multiplexer serial number:	ORYXHardware model number:	OX2-SRSoftware version number:	ORYX F/W v4,00 Oryx Data Collector v3.7.2.0data status	okinstallation	B6 Nyhavnadifferential loss correction	single-endedforward channel	channel 2reverse channel	N/Adate	2023/12/09time	08:50:08forward acquisition time	300,00reverse acquisition time	0,00gamma	499,1914k internal	0,3139k external	0,3139temperature offset calibration	1,0000default loss term (dB/km)	0,3820temperature slope calibration	1,0000multiplexer offset coefficient	1,0000multiplexer slope coefficient	1,0000fibre end	0,00T internal ref (°C)	18,46T ext. ref 1 (°C)	1,95T ext. ref 2 (°C)	1,96length (m)	temperature (°C)	Stokes	anti-Stokes-744,400	-200,000	-0,009	-0,071
-743,385	537,537	-0,111	0,197
-742,371	-123,568	0,126	-0,015
-741,356	134,207	-0,169	0,163
-740,342	-41,028	0,172	0,065
-739,327	-86,421	-0,207	0,047
-738,312	-200,000	0,014	0,126
-737,298	-8,268	-0,344	0,171
-736,283	-31,680	-0,029	-0,012
-735,269	-200,000	-0,283	0,001
-734,254	-200,000	-0,022	0,087
-733,239	-92,936	-0,508	-0,104
-732,225	-27,765	0,035	0,015
-731,210	86,853	-0,029	-0,023
-730,196	89,914	-0,040	-0,033
-729,181	609,944	-0,048	-0,090
-728,167	50,143	0,058	-0,040
-727,152	800,000	0,036	-0,083
-726,137	-66,449	-0,114	-0,033
-725,123	340,447	-0,110	-0,159
-724,108	-200,000	-0,016	-0,064
-723,094	103,079	-0,105	-0,091
-722,079	-200,000	0,025	-0,159
-721,064	75,390	0,108	0,084
-720,050	-168,624	-0,104	0,003
-719,035	165,522	-0,102	-0,107
-718,021	152,632	-0,070	0,071
-717,006	137,318	-0,072	-0,069
-715,991	51,899	-0,060	0,042
-714,977	60,995	-0,092	-0,067
-713,962	-200,000	-0,016	-0,067
-712,948	-18,769	0,041	0,019
-711,933	221,196	0,092	-0,109
-710,918	102,780	0,076	-0,066
-709,904	800,000	-0,043	-0,094
-708,889	789,685	0,036	-0,074
-707,875	800,000	-0,053	-0,149
-706,860	-0,053	-0,156	0,082
-705,845	800,000	0,052	0,127
-704,831	-108,238	-0,079	0,013
-703,816	-116,468	-0,058	-0,008
-702,802	800,000	-0,042	-0,086
-701,787	-37,399	-0,138	-0,054
-700,772	-111,378	-0,041	0,006
-699,758	504,027	0,063	0,108
-698,743	240,952	0,170	0,211
-697,729	-200,000	-0,008	0,147
-696,714	-200,000	0,006	-0,073
-695,699	181,988	-0,032	0,035
-694,685	99,869	-0,088	0,076
-693,670	-134,844	-0,093	0,008
-692,656	18,461	-0,035	0,021
-691,641	-200,000	0,027	0,105
-690,627	38,426	-0,034	-0,022
-689,612	-200,000	-0,038	-0,127
-688,597	-31,536	0,103	0,042
-687,583	174,498	0,039	0,041
-686,568	421,744	-0,062	0,099
-685,554	-98,978	0,019	0,004
-684,539	289,374	0,054	0,073
-683,524	667,470	-0,022	-0,042
-682,510	-53,478	-0,190	-0,064
-681,495	19,760	-0,009	0,005
-680,481	-1,896	-0,091	-0,047
-679,466	-200,000	-0,037	-0,273
-678,451	25,863	0,064	0,039
-677,437	-79,106	0,135	-0,034
-676,422	-10,623	0,032	-0,016
-675,408	80,144	-0,119	-0,095
-674,393	303,897	-0,048	0,066
-673,378	33,390	-0,075	0,048
-672,364	0,664	-0,051	0,027
-671,349	82,167	-0,008	0,007
-670,335	-39,421	-0,178	-0,069
-669,320	-157,423	0,031	-0,001
-668,305	25,088	0,055	0,033
-667,291	-200,000	0,003	-0,012
-666,276	225,206	0,024	-0,029
-665,262	-25,958	0,020	-0,009
-664,247	800,000	-0,020	0,046
-663,232	238,429	0,076	0,093
-662,218	-116,747	0,109	0,015
-661,203	-122,707	0,035	0,004
-660,189	165,802	-0,050	0,052
-659,174	-200,000	-0,001	-0,142
-658,159	214,086	0,045	0,052
-657,145	0,983	-0,141	-0,074
-656,130	-200,000	-0,001	0,017
-655,116	-200,000	-0,009	-0,141
-654,101	-55,911	0,090	-0,030
-653,086	-111,494	-0,081	-0,012
-652,072	262,094	-0,066	-0,085
-651,057	68,464	-0,101	-0,076
-650,043	181,776	-0,094	0,103
-649,028	134,850	0,125	-0,120
-648,014	93,259	0,069	0,057
-646,999	-14,040	-0,048	0,023
-645,984	175,184	0,110	0,118
-644,970	151,511	-0,115	0,116
-643,955	234,794	-0,058	-0,071
-642,941	-8,718	-0,135	-0,066
-641,926	800,000	0,014	0,047
-640,911	257,266	-0,066	-0,084
-639,897	-185,730	0,114	0,001
-638,882	-200,000	-0,002	-0,032
-637,868	-200,000	0,018	-0,109
-636,853	800,000	-0,046	-0,099
-635,838	-13,541	-0,148	-0,070
-634,824	56,085	0,104	-0,074
-633,809	800,000	0,018	-0,044
-632,795	102,883	-0,123	0,107
-631,780	-33,164	-0,034	-0,014
-630,765	-200,000	-0,003	-0,132
-629,751	766,033	0,051	-0,103
-628,736	-43,650	-0,112	-0,042
-627,722	-2,883	-0,073	0,038
-626,707	-165,857	0,071	-0,002
-625,692	800,000	0,061	0,140
-624,678	800,000	0,016	0,038
-623,663	268,408	0,058	-0,075
-622,649	-99,613	0,077	-0,014
-621,634	-100,014	-0,066	-0,012
-620,619	-200,000	0,022	-0,075
-619,605	-200,000	0,036	-0,126
-618,590	154,369	-0,042	-0,043
-617,576	106,704	-0,105	0,092
-616,561	-200,000	0,023	-0,085
-615,546	-51,351	-0,073	-0,025
-614,532	185,631	-0,099	-0,108
-613,517	417,900	0,030	0,047
-612,503	201,893	-0,044	-0,050
-611,488	-98,360	0,129	-0,024
-610,474	184,452	0,065	0,071
-609,459	-71,875	0,056	-0,015
-608,444	800,000	-0,010	-0,031
-607,430	800,000	-0,021	-0,061
-606,415	-72,189	-0,166	0,045
-605,401	-200,000	0,021	0,167
-604,386	136,194	0,161	0,155
-603,371	-200,000	-0,005	-0,081
-602,357	-200,000	0,009	-0,066
-601,342	24,725	-0,045	-0,027
-600,328	122,194	0,046	-0,042
-599,313	335,788	0,023	0,033
-598,298	-200,000	-0,000	-0,064
-597,284	-64,867	0,120	-0,036
-596,269	800,000	0,020	-0,043
-595,255	-154,948	-0,021	0,001
-594,240	800,000	-0,023	0,051
-593,225	-13,288	-0,067	0,032
-592,211	-116,235	-0,125	-0,017
-591,196	800,000	0,027	0,085
-590,182	-200,000	-0,003	0,019
-589,167	162,612	0,138	0,143
-588,152	106,814	-0,033	0,029
-587,138	-134,543	0,080	-0,007
-586,123	292,442	-0,101	-0,136
-585,109	-200,000	-0,010	-0,061
-584,094	-71,783	-0,082	-0,023
-583,079	75,389	0,053	-0,041
-582,065	611,376	0,016	-0,029
-581,050	126,411	0,120	-0,112
-580,036	800,000	-0,032	-0,092
-579,021	14,078	-0,036	-0,021
-578,006	-44,857	-0,088	-0,032
-576,992	66,248	0,138	-0,103
-575,977	-200,000	-0,023	0,142
-574,963	46,538	0,024	0,016
-573,948	148,264	0,076	0,076
-572,934	757,223	-0,030	-0,060
-571,919	800,000	0,067	-0,154
-570,904	324,980	-0,063	-0,088
-569,890	715,403	-0,061	-0,119
-568,875	-109,548	0,040	0,006
-567,861	122,359	0,094	0,087
-566,846	-65,084	-0,052	0,015
-565,831	-81,342	-0,263	-0,063
-564,817	-200,000	0,011	0,119
-563,802	24,679	0,090	-0,055
-562,788	-90,553	-0,142	-0,030
-561,773	-200,000	0,174	-0,000
-560,758	-200,000	-0,008	-0,041
-559,744	53,239	0,047	0,033
-558,729	-47,656	-0,119	0,042
-557,715	-124,501	-0,111	0,013
-556,700	-125,937	-0,095	0,010
-555,685	-16,648	0,051	0,024
-554,671	-200,000	0,019	0,065
-553,656	800,000	0,025	0,059
-552,642	217,314	0,096	0,113
-551,627	-187,289	-0,039	0,000
-550,612	13,291	-0,081	-0,046
-549,598	-0,326	0,050	-0,026
-548,583	427,633	0,065	-0,104
-547,569	-79,871	0,054	0,013
-546,554	257,657	-0,056	0,071
-545,539	14,663	-0,156	-0,090
-544,525	800,000	-0,046	0,123
-543,510	46,230	-0,052	-0,035
-542,496	-59,794	-0,128	-0,040
-541,481	-45,237	-0,025	0,009
-540,466	182,041	-0,082	0,089
-539,452	-200,000	0,027	0,117
-538,437	19,154	0,077	0,046
-537,423	800,000	-0,081	0,166
-536,408	-139,964	0,015	0,001
-535,393	183,775	-0,010	-0,011
-534,379	800,000	-0,077	-0,168
-533,364	45,932	0,055	0,037
-532,350	271,967	0,019	-0,024
-531,335	-200,000	-0,022	0,079
-530,321	-200,000	0,021	-0,072
-529,306	-200,000	0,006	-0,061
-528,291	-86,743	0,060	-0,013
-527,277	432,957	0,038	-0,061
-526,262	800,000	0,008	-0,017
-525,248	0,244	0,201	-0,105
-524,233	-118,285	-0,150	0,019
-523,218	146,689	0,110	0,109
-522,204	800,000	-0,015	0,042
-521,189	103,613	-0,048	0,042
-520,175	242,945	0,042	0,052
-519,160	800,000	0,044	-0,100
-518,145	-200,000	0,016	0,059
-517,131	30,127	0,065	0,041
-516,116	-200,000	0,002	0,011
-515,102	188,847	0,067	-0,074
-514,087	800,000	0,023	-0,047
-513,072	-90,375	-0,045	0,009
-512,058	30,881	0,104	-0,065
-511,043	-80,527	-0,110	-0,027
-510,029	-19,905	0,013	-0,006
-509,014	598,064	0,027	0,049
-507,999	662,799	0,036	-0,068
-506,985	800,000	0,016	-0,049
-505,970	476,689	-0,031	0,051
-504,956	443,813	0,059	-0,096
-503,941	100,668	-0,039	0,034
-502,926	41,848	0,053	0,035
-501,912	-200,000	0,027	0,098
-500,897	82,099	-0,044	0,035
-499,883	93,580	-0,055	-0,045
-498,868	210,341	0,080	-0,093
-497,853	-102,466	-0,129	-0,023
-496,839	-49,270	-0,117	-0,041
-495,824	316,877	-0,037	0,051
-494,810	28,248	-0,020	0,012
-493,795	-106,997	-0,107	0,017
-492,781	-37,857	-0,014	0,005
-491,766	-200,000	-0,002	-0,047
-490,751	-200,000	0,025	-0,105
-489,737	-119,286	0,030	-0,004
-488,722	162,915	0,042	-0,043
-487,708	-42,265	-0,101	0,038
-486,693	230,189	-0,028	0,034
-485,678	-145,303	0,069	-0,004
-484,664	-116,474	-0,170	-0,023
-483,649	768,135	0,030	-0,059
-482,635	-200,000	0,007	0,034
-481,620	708,454	0,037	0,071
-480,605	-200,000	0,020	0,082
-479,591	800,000	-0,038	0,100
-478,576	715,798	0,058	0,114
-477,562	454,544	0,053	0,087
-476,547	800,000	-0,018	0,047
-475,532	-200,000	-0,012	0,077
-474,518	73,128	-0,055	0,042
-473,503	-63,789	0,167	-0,050
-472,489	1,301	-0,086	0,045
-471,474	149,784	0,020	0,020
-470,459	592,359	0,054	-0,099
-469,445	100,918	0,018	-0,016
-468,430	-200,000	0,018	-0,069
-467,416	137,626	0,111	0,106
-466,401	744,531	-0,057	0,113
-465,386	-200,000	0,004	-0,047
-464,372	-95,805	-0,041	0,008
-463,357	800,000	0,059	0,128
-462,343	-109,275	-0,101	-0,016
-461,328	-200,000	-0,015	-0,051
-460,313	39,722	0,050	-0,033
-459,299	776,375	-0,017	0,034
-458,284	-163,143	0,064	0,002
-457,270	-200,000	-0,039	0,220
-456,255	-200,000	0,007	0,041
-455,241	800,000	-0,027	-0,062
-454,226	-200,000	-0,010	-0,047
-453,211	-133,070	-0,052	-0,005
-452,197	16,374	0,041	0,024
-451,182	190,606	-0,125	-0,138
-450,168	-200,000	-0,014	0,073
-449,153	800,000	-0,061	-0,131
-448,138	-200,000	-0,039	-0,127
-447,124	3,204	0,095	0,050
-446,109	-65,104	-0,163	0,048
-445,095	800,000	0,006	-0,018
-444,080	44,275	0,075	-0,050
-443,065	36,894	-0,014	-0,009
-442,051	369,380	0,050	0,074
-441,036	-200,000	-0,013	-0,072
-440,022	-92,483	-0,129	-0,026
-439,007	-200,000	0,004	-0,079
-437,992	-200,000	0,008	0,115
-436,978	800,000	0,029	-0,091
-435,963	-15,127	0,062	-0,029
-434,949	327,070	-0,078	0,110
-433,934	-200,000	-0,017	0,146
-432,919	191,158	-0,088	-0,097
-431,905	-200,000	0,010	-0,170
-430,890	800,000	0,024	0,051
-429,876	-84,827	0,161	0,037
-428,861	-200,000	-0,024	0,120
-427,846	-200,000	-0,003	0,178
-426,832	-42,120	-0,138	-0,051
-425,817	-200,000	0,000	0,073
-424,803	-200,000	0,007	-0,038
-423,788	448,559	-0,058	0,094
-422,773	-68,714	0,059	-0,017
-421,759	800,000	0,052	0,161
-420,744	800,000	-0,013	0,042
-419,730	162,474	0,063	-0,065
-418,715	-200,000	-0,006	-0,024
-417,701	190,795	-0,173	-0,191
-416,686	61,537	0,132	-0,096
-415,671	98,704	0,019	-0,016
-414,657	115,640	-0,101	0,091
-413,642	554,448	-0,051	-0,091
-412,628	-97,131	0,045	-0,008
-411,613	34,317	-0,057	0,037
-410,598	-200,000	-0,017	-0,102
-409,584	-29,778	-0,061	-0,025
-408,569	785,925	0,067	0,134
-407,555	100,265	-0,061	-0,052
-406,540	71,731	-0,051	-0,039
-405,525	161,507	-0,080	0,082
-404,511	232,887	-0,036	-0,043
-403,496	-40,196	-0,168	-0,064
-402,482	-200,000	-0,005	0,022
-401,467	262,135	0,035	0,045
-400,452	48,942	0,108	0,074
-399,438	518,169	-0,068	0,118
-398,423	425,493	0,058	0,092
-397,409	0,940	0,135	-0,070
-396,394	295,561	0,068	-0,091
-395,379	-8,403	-0,067	-0,033
-394,365	-200,000	0,006	0,023
-393,350	-71,849	0,086	-0,023
-392,336	800,000	0,016	-0,046
-391,321	-76,329	0,105	0,027
-390,306	-61,636	-0,113	0,035
-389,292	-102,880	0,047	0,008
-388,277	622,306	0,018	-0,033
-387,263	-51,383	0,094	0,032
-386,248	137,016	-0,062	0,060
-385,233	222,163	0,025	0,029
-384,219	800,000	-0,011	0,027
-383,204	-133,075	0,119	-0,011
-382,190	-6,478	-0,047	0,023
-381,175	-200,000	-0,018	0,129
-380,160	-136,759	0,090	-0,008
-379,146	308,088	0,034	-0,046
-378,131	-200,000	0,000	0,059
-377,117	-77,571	0,058	0,015
-376,102	350,806	0,020	-0,030
-375,088	-86,109	-0,149	0,033
-374,073	136,656	0,109	-0,104
-373,058	193,577	-0,044	-0,048
-372,044	800,000	0,037	0,091
-371,029	-17,238	-0,026	-0,012
-370,015	-51,028	-0,074	-0,025
-369,000	-200,000	0,023	-0,096
-367,985	800,000	-0,043	-0,092
-366,971	443,095	-0,016	0,025
-365,956	-116,220	0,097	-0,013
-364,942	-116,617	-0,082	0,011
-363,927	240,719	-0,032	0,039
-362,912	9,001	0,045	0,025
-361,898	797,111	-0,059	-0,120
-360,883	-197,530	0,134	-0,001
-359,869	-77,784	-0,198	-0,050
-358,854	94,465	0,094	0,078
-357,839	800,000	0,029	0,072
-356,825	-59,610	0,055	-0,017
-355,810	44,710	-0,086	0,058
-354,796	800,000	-0,029	-0,065
-353,781	800,000	-0,043	0,092
-352,766	-4,003	0,126	0,064
-351,752	721,221	0,043	0,085
-350,737	-200,000	0,022	0,077
-349,723	-12,370	0,038	0,018
-348,708	304,881	0,140	0,190
-347,693	68,544	-0,028	-0,021
-346,679	29,873	-0,181	-0,112
-345,664	-200,000	-0,002	-0,040
-344,650	800,000	-0,043	-0,127
-343,635	580,817	0,025	0,045
-342,620	67,826	0,151	0,113
-341,606	-9,299	0,064	0,031
-340,591	398,220	-0,069	0,106
-339,577	-49,458	-0,078	0,027
-338,562	663,760	-0,013	-0,024
-337,548	-200,000	0,016	0,172
-336,533	263,502	-0,055	0,070
-335,518	215,574	0,037	0,043
-334,504	-170,326	0,105	-0,003
-333,489	179,022	0,090	-0,096
-332,475	-200,000	0,012	-0,172
-331,460	-184,789	0,071	0,001
-330,445	-123,164	0,057	0,007
-329,431	-200,000	-0,003	-0,024
-328,416	800,000	0,021	0,063
-327,402	152,207	0,022	-0,022
-326,387	800,000	0,008	-0,023
-325,372	17,594	0,154	-0,089
-324,358	-72,067	-0,090	0,024
-323,343	-88,810	-0,043	-0,009
-322,329	-16,924	0,107	0,049
-321,314	-200,000	0,002	0,093
-320,299	674,544	0,035	-0,066
-319,285	-200,000	0,015	-0,071
-318,270	-32,437	0,043	0,017
-317,256	39,185	0,098	0,064
-316,241	-149,586	-0,081	-0,005
-315,226	800,000	-0,012	0,030
-314,212	-103,350	0,064	-0,011
-313,197	26,639	-0,103	0,063
-312,183	-200,000	-0,008	-0,092
-311,168	586,329	-0,077	-0,138
-310,153	-46,303	-0,050	0,018
-309,139	-30,981	0,039	0,016
-308,124	-113,867	0,187	0,026
-307,110	234,931	-0,079	-0,095
-306,095	800,000	-0,038	-0,107
-305,080	-200,000	-0,003	-0,063
-304,066	-32,437	-0,084	-0,034
-303,051	800,000	0,065	-0,132
-302,037	-200,000	-0,001	-0,041
-301,022	-200,000	-0,011	0,108
-300,008	-1,433	-0,090	0,046
-298,993	-200,000	-0,028	0,151
-297,978	-200,000	-0,005	-0,103
-296,964	-61,192	-0,051	0,015
-295,949	1,149	0,020	-0,010
-294,935	-173,050	-0,145	0,003
-293,920	-200,000	0,013	0,062
-292,905	161,452	-0,057	0,058
-291,891	110,425	0,057	-0,050
-290,876	246,898	-0,025	0,031
-289,862	-200,000	0,017	-0,131
-288,847	-137,425	-0,035	-0,003
-287,832	159,854	-0,051	0,052
-286,818	-200,000	0,010	-0,085
-285,803	-3,351	-0,019	0,010
-284,789	-89,850	0,212	0,045
-283,774	118,689	0,060	0,054
-282,759	39,132	-0,044	-0,028
-281,745	-126,728	-0,137	0,015
-280,730	800,000	0,008	0,023
-279,716	-200,000	0,018	0,141
-278,701	-200,000	0,052	0,171
-277,686	102,831	0,046	0,040
-276,672	-159,196	-0,087	0,004
-275,657	-19,875	0,087	0,039
-274,643	18,124	-0,039	-0,023
-273,628	-200,000	0,008	0,045
-272,613	-110,279	0,180	-0,027
-271,599	-24,872	0,054	0,023
-270,584	85,298	0,049	0,039
-269,570	52,399	0,058	0,040
-268,555	-16,706	-0,086	-0,040
-267,540	-126,769	-0,093	0,010
-266,526	88,872	-0,047	-0,038
-265,511	-100,870	0,076	-0,013
-264,497	800,000	0,018	-0,051
-263,482	-120,945	-0,112	-0,014
-262,467	-164,361	-0,081	0,003
-261,453	-83,930	-0,068	-0,016
-260,438	-200,000	0,001	-0,053
-259,424	220,498	0,050	0,058
-258,409	20,935	-0,029	-0,017
-257,395	67,193	0,062	-0,046
-256,380	-115,610	0,111	0,015
-255,365	-82,590	0,105	-0,025
-254,351	496,870	0,022	-0,037
-253,336	344,828	0,025	0,035
-252,322	4,007	-0,137	0,072
-251,307	181,132	-0,057	0,061
-250,292	55,527	0,098	0,069
-249,278	501,975	-0,040	0,067
-248,263	800,000	0,030	0,085
-247,249	472,278	-0,060	0,099
-246,234	55,906	0,126	-0,089
-245,219	8,192	-0,058	0,032
-244,205	776,495	-0,024	-0,049
-243,190	566,266	0,055	0,097
-242,176	469,404	-0,090	0,147
-241,161	-156,676	0,062	0,003
-240,146	-200,000	0,021	-0,087
-239,132	-200,000	-0,025	0,094
-238,117	800,000	-0,026	0,053
-237,103	282,315	-0,057	-0,075
-236,088	-171,870	-0,031	-0,001
-235,073	62,793	0,154	0,112
-234,059	-94,682	0,090	-0,018
-233,044	800,000	0,020	0,047
-232,030	-42,668	0,044	0,016
-231,015	-200,000	-0,028	-0,124
-230,000	-44,605	-0,017	0,006
-228,986	-68,121	-0,074	0,021
-227,971	-150,518	0,050	0,003
-226,957	-200,000	0,005	0,057
-225,942	-200,000	0,009	0,130
-224,927	-200,000	-0,001	-0,009
-223,913	-101,425	-0,240	0,042
-222,898	-159,629	0,135	-0,005
-221,884	36,072	-0,087	-0,056
-220,869	83,204	0,122	0,097
-219,855	176,502	0,061	0,064
-218,840	469,587	0,013	0,021
-217,825	-200,000	-0,013	-0,064
-216,811	18,029	-0,104	0,060
-215,796	-200,000	0,018	-0,074
-214,782	-19,530	0,072	-0,032
-213,767	145,791	-0,102	0,100
-212,752	800,000	-0,029	-0,061
-211,738	-95,100	-0,044	0,009
-210,723	-200,000	-0,008	-0,033
-209,709	5,091	-0,154	0,082
-208,694	230,449	-0,066	0,078
-207,679	731,602	0,031	-0,061
-206,665	122,218	-0,086	-0,078
-205,650	-131,686	0,061	-0,006
-204,636	43,293	0,058	0,039
-203,621	-200,000	-0,011	-0,075
-202,606	-200,000	-0,025	0,127
-201,592	263,858	0,041	-0,052
-200,577	501,735	-0,064	-0,108
-199,563	-200,000	-0,001	-0,120
-198,548	390,795	-0,042	0,063
-197,533	222,713	0,114	0,134
-196,519	19,855	0,049	0,028
-195,504	-200,000	0,003	-0,076
-194,490	154,448	-0,109	-0,109
-193,475	106,894	0,112	-0,097
-192,460	-200,000	-0,018	-0,134
-191,446	-200,000	-0,004	0,044
-190,431	-12,684	-0,051	-0,024
-189,417	-162,206	0,099	-0,004
-188,402	800,000	-0,020	-0,058
-187,387	280,454	0,031	-0,041
-186,373	-200,000	0,013	0,097
-185,358	-200,000	0,003	0,021
-184,344	-143,909	0,055	0,004
-183,329	-200,000	0,012	0,051
-182,315	4,382	-0,055	0,029
-181,300	89,828	0,017	-0,014
-180,285	59,748	0,110	-0,079
-179,271	-200,000	0,005	-0,056
-178,256	-200,000	0,031	-0,100
-177,242	-40,813	-0,128	-0,048
-176,227	-200,000	-0,014	-0,122
-175,212	-63,282	0,190	-0,056
-174,198	-200,000	0,025	-0,096
-173,183	-158,546	-0,096	-0,004
-172,169	249,833	0,086	-0,106
-171,154	-200,000	0,022	-0,120
-170,139	-99,602	0,083	-0,015
-169,125	-132,351	0,052	-0,005
-168,110	-85,315	-0,072	0,016
-167,096	125,906	-0,086	-0,078
-166,081	-200,000	-0,009	0,061
-165,066	23,735	-0,143	-0,085
-164,052	25,688	0,039	-0,023
-163,037	-102,243	-0,094	-0,016
-162,023	-200,000	0,012	0,078
-161,008	800,000	0,018	0,039
-159,993	-146,451	0,036	0,002
-158,979	54,304	0,023	-0,016
-157,964	-200,000	0,005	0,104
-156,950	-52,664	0,031	-0,010
-155,935	-200,000	-0,008	-0,095
-154,920	130,732	0,031	0,028
-153,906	-200,000	-0,036	0,126
-152,891	168,461	0,059	-0,061
-151,877	-200,000	0,002	-0,021
-150,862	-36,782	0,143	-0,055
-149,847	310,238	-0,084	-0,114
-148,833	-23,634	-0,066	0,028
-147,818	127,122	0,077	0,071
-146,804	536,695	-0,018	0,031
-145,789	208,677	-0,076	-0,086
-144,775	86,826	0,053	-0,042
-143,760	245,355	-0,061	-0,075
-142,745	-183,633	-0,237	-0,003
-141,731	800,000	0,032	0,071
-140,716	-29,111	0,118	-0,049
-139,702	800,000	0,026	0,071
-138,687	195,078	-0,137	0,151
-137,672	185,748	0,037	-0,040
-136,658	42,822	-0,049	-0,033
-135,643	43,511	-0,055	0,036
-134,629	-200,000	-0,013	-0,090
-133,614	345,856	0,066	0,094
-132,599	28,853	0,170	0,104
-131,585	167,365	-0,071	-0,073
-130,570	-38,218	-0,063	-0,024
-129,556	800,000	-0,030	-0,088
-128,541	63,110	-0,073	-0,053
-127,526	0,765	-0,103	-0,053
-126,512	172,896	-0,061	0,063
-125,497	-6,954	-0,093	0,045
-124,483	-88,578	0,088	-0,019
-123,468	800,000	-0,032	0,077
-122,453	15,459	0,099	0,056
-121,439	-133,629	-0,200	-0,018
-120,424	-200,000	0,006	0,044
-119,410	-45,703	-0,085	0,030
-118,395	22,850	-0,050	0,030
-117,380	-200,000	0,014	0,066
-116,366	595,218	-0,018	0,033
-115,351	27,426	0,036	0,022
-114,337	29,390	-0,080	-0,049
-113,322	-200,000	-0,001	0,053
-112,307	800,000	-0,063	0,130
-111,293	-200,000	-0,009	-0,104
-110,278	149,701	-0,019	0,019
-109,264	800,000	0,031	0,080
-108,249	-200,000	0,003	0,022
-107,234	800,000	0,040	-0,106
-106,220	-200,000	-0,015	-0,048
-105,205	162,466	-0,045	0,046
-104,191	-129,423	0,140	0,014
-103,176	-200,000	0,061	0,204
-102,162	800,000	-0,038	0,122
-101,147	-200,000	-0,002	-0,023
-100,132	-39,659	-0,020	0,008
-99,118	-97,603	-0,122	-0,023
-98,103	-200,000	-0,047	-0,153
-97,089	101,976	0,047	-0,040
-96,074	69,075	-0,039	-0,029
-95,059	-200,000	0,032	0,138
-94,045	-143,263	-0,099	0,007
-93,030	-200,000	-0,015	-0,067
-92,016	212,600	-0,069	-0,079
-91,001	-74,978	-0,110	0,028
-89,986	-162,903	0,114	-0,004
-88,972	151,966	-0,085	-0,084
-87,957	800,000	-0,035	-0,089
-86,943	118,086	-0,035	0,031
-85,928	56,419	-0,025	0,018
-84,913	800,000	0,037	0,101
-83,899	602,757	0,049	0,088
-82,884	160,158	0,044	-0,045
-81,870	-10,026	-0,045	0,022
-80,855	244,291	0,051	0,062
-79,840	466,087	-0,038	0,061
-78,826	-180,360	-0,069	-0,001
-77,811	-200,000	-0,031	-0,176
-76,797	455,884	0,053	-0,085
-75,782	57,710	-0,008	0,006
-74,767	-200,000	0,045	0,160
-73,753	-200,000	0,005	-0,192
-72,738	-167,201	-0,167	-0,005
-71,724	-27,761	-0,132	0,055
-70,709	134,447	-0,090	0,085
-69,694	-138,660	-0,064	0,005
-68,680	221,639	0,045	-0,052
-67,665	-171,586	-0,016	0,000
-66,651	-200,000	0,010	-0,033
-65,636	50,887	0,092	0,063
-64,622	466,661	0,032	-0,052
-63,607	-132,368	0,086	0,008
-62,592	800,000	0,022	0,059
-61,578	800,000	0,030	-0,067
-60,563	12,929	0,105	0,059
-59,549	800,000	-0,025	0,061
-58,534	-21,064	-1,647	-0,725
-57,519	-200,000	-0,345	-1,197
-56,505	-200,000	-1,152	-4,830
-55,490	-161,456	0,696	0,025
-54,476	800,000	5,207	12,197
-53,461	-200,000	15,747	279,056
-52,446	-200,000	702,812	2249,788
-51,432	565,370	1618,882	2845,345
-50,417	122,087	1622,951	1462,958
-49,403	83,002	1283,848	1007,456
-48,388	36,929	1028,216	655,139
-47,373	21,544	990,207	580,040
-46,359	20,467	978,970	569,884
-45,344	18,783	974,758	561,871
-44,330	18,851	973,399	561,289
-43,315	18,561	971,614	559,284
-42,300	18,489	970,754	558,534
-41,286	18,492	969,798	557,971
-40,271	18,530	968,778	557,484
-39,257	18,502	968,075	556,966
-38,242	18,537	967,184	556,548
-37,227	18,535	966,459	556,101
-36,213	18,467	965,589	555,358
-35,198	18,490	964,578	554,829
-34,184	18,484	964,037	554,474
-33,169	18,452	962,886	553,688
-32,154	18,557	961,992	553,494
-31,140	18,486	961,410	552,906
-30,125	18,527	960,404	552,436
-29,111	18,536	959,668	552,020
-28,096	18,566	959,045	551,738
-27,082	18,511	958,362	551,145
-26,067	18,462	957,572	550,511
-25,052	18,470	956,777	550,059
-24,038	18,491	956,025	549,673
-23,023	18,478	955,501	549,306
-22,009	18,480	954,872	548,929
-20,994	18,503	954,237	548,616
-19,979	18,481	953,686	548,209
-18,965	18,511	952,804	547,776
-17,950	18,458	952,326	547,309
-16,936	18,401	951,662	546,723
-15,921	18,497	950,927	546,585
-14,906	18,420	950,117	545,852
-13,892	18,378	949,492	545,336
-12,877	18,374	948,922	544,976
-11,863	18,274	948,491	544,387
-10,848	18,380	947,741	544,273
-9,833	18,486	947,188	544,271
-8,819	18,473	946,428	543,771
-7,804	18,414	945,970	543,300
-6,790	18,306	945,561	542,697
-5,775	18,381	944,916	542,545
-4,760	18,308	944,370	541,979
-3,746	18,308	943,578	541,502
-2,731	18,203	943,026	540,829
-1,717	18,242	942,105	540,405
-0,702	18,181	941,509	539,847
0,313	18,001	940,761	539,662
1,327	21,174	938,966	548,632
2,342	30,240	796,616	489,612
3,356	27,248	449,566	271,795
4,371	-2,751	295,634	148,626
5,386	-6,899	276,988	135,292
6,400	-8,115	271,111	131,276
7,415	-8,427	268,935	129,922
8,429	-8,286	267,522	129,357
9,444	-8,205	266,643	128,995
10,459	-8,057	266,117	128,864
11,473	-8,231	265,430	128,362
12,488	-8,422	265,021	127,978
13,502	-8,597	264,316	127,467
14,517	-8,465	263,939	127,394
15,531	-8,353	263,630	127,335
16,546	-8,307	263,129	127,123
17,561	-8,456	262,895	126,864
18,575	-8,160	262,318	126,841
19,590	-8,321	261,970	126,517
20,604	-8,307	261,748	126,411
21,619	-8,427	261,551	126,197
22,634	-8,217	261,086	126,149
23,648	-8,483	260,996	125,856
24,663	-8,523	260,640	125,638
25,677	-8,391	260,369	125,614
26,692	-8,279	260,216	125,628
27,707	-8,382	259,771	125,311
28,721	-8,594	259,602	125,029
29,736	-8,496	259,259	124,940
30,750	-8,585	258,888	124,671
31,765	-8,497	258,780	124,686
32,780	-8,556	258,565	124,519
33,794	-8,523	258,342	124,430
34,809	-8,471	258,126	124,361
35,823	-8,513	257,716	124,115
36,838	-8,650	257,575	123,915
37,853	-8,782	257,352	123,680
38,867	-8,511	256,991	123,734
39,882	-8,747	256,917	123,480
40,896	-8,552	256,593	123,485
41,911	-8,605	256,357	123,313
42,926	-8,685	256,270	123,190
43,940	-8,800	255,946	122,923
44,955	-8,917	255,812	122,745
45,969	-8,885	255,566	122,643
46,984	-9,064	255,391	122,392
47,999	-9,169	255,099	122,149
49,013	-9,214	254,749	121,931
50,028	-9,288	254,452	121,714
51,042	-9,458	254,293	121,479
52,057	-9,562	254,038	121,256
53,071	-9,470	253,759	121,191
54,086	-9,180	253,579	121,347
55,101	-9,155	253,582	121,359
56,115	-8,959	253,371	121,417
57,130	-8,452	253,151	121,741
58,144	-8,448	253,046	121,683
59,159	-8,335	252,893	121,697
60,174	-8,430	252,663	121,492
61,188	-8,318	252,341	121,424
62,203	-8,231	252,214	121,427
63,217	-8,413	252,104	121,207
64,232	-8,444	251,636	120,943
65,247	-8,452	251,656	120,936
66,261	-8,450	251,336	120,773
67,276	-8,575	250,878	120,435
68,290	-8,948	250,735	120,035
69,305	-9,165	250,550	119,750
70,320	-8,888	250,454	119,930
71,334	-8,661	250,252	120,018
72,349	-8,342	250,167	120,239
73,363	-8,482	250,011	120,033
74,378	-8,350	249,585	119,932
75,393	-8,566	249,556	119,722
76,407	-8,437	249,314	119,705
77,422	-8,422	249,021	119,567
78,436	-8,433	248,992	119,533
79,451	-8,590	248,800	119,296
80,466	-8,706	248,478	119,033
81,480	-8,615	248,317	119,022
82,495	-8,779	247,966	118,705
83,509	-8,837	247,887	118,607
84,524	-8,760	247,492	118,473
85,539	-8,719	247,379	118,442
86,553	-8,892	247,203	118,201
87,568	-8,870	247,165	118,192
88,582	-8,884	246,960	118,071
89,597	-8,789	246,581	117,959
90,611	-8,703	246,646	118,053
91,626	-8,597	246,451	118,038
92,641	-8,498	246,250	118,015
93,655	-8,586	246,054	117,836
94,670	-8,711	245,831	117,613
95,684	-8,683	245,642	117,537
96,699	-8,717	245,455	117,407
97,714	-8,750	245,290	117,291
98,728	-8,967	245,006	116,963
99,743	-9,016	244,828	116,827
100,757	-8,870	244,594	116,827
101,772	-8,889	244,454	116,733
102,787	-8,981	244,251	116,549
103,801	-8,654	244,101	116,740
104,816	-8,633	244,061	116,728
105,830	-8,504	243,768	116,684
106,845	-8,575	243,695	116,580
107,860	-8,416	243,525	116,620
108,874	-8,762	243,216	116,175
109,889	-8,556	243,142	116,300
110,903	-8,809	242,781	115,908
111,918	-8,863	242,653	115,791
112,933	-8,802	242,532	115,774
113,947	-8,669	242,321	115,773
114,962	-8,437	242,193	115,893
115,976	-8,535	242,056	115,736
116,991	-8,722	241,824	115,460
118,006	-8,672	241,672	115,419
119,020	-8,702	241,606	115,352
120,035	-8,504	241,451	115,431
121,049	-8,468	241,244	115,352
122,064	-8,663	241,122	115,122
123,079	-8,786	240,754	114,836
124,093	-8,891	240,627	114,678
125,108	-8,822	240,337	114,587
126,122	-9,065	240,258	114,340
127,137	-9,166	240,027	114,137
128,151	-8,896	239,746	114,214
129,166	-8,914	239,610	114,124
130,181	-9,018	239,547	113,999
131,195	-8,854	239,184	113,950
132,210	-8,887	239,151	113,897
133,224	-8,598	239,010	114,055
134,239	-8,549	238,776	113,973
135,254	-8,665	238,714	113,839
136,268	-8,733	238,410	113,629
137,283	-8,862	238,098	113,365
138,297	-8,977	237,835	113,137
139,312	-9,058	237,783	113,037
140,327	-8,601	237,687	113,350
141,341	-8,322	237,716	113,579
142,356	-8,341	237,624	113,511
143,370	-8,588	237,489	113,236
144,385	-8,389	237,311	113,302
145,400	-8,438	237,149	113,175
146,414	-8,155	236,992	113,318
147,429	-8,442	236,798	112,984
148,443	-8,447	236,527	112,840
149,458	-8,300	236,310	112,845
150,473	-8,282	236,241	112,816
151,487	-8,478	235,977	112,523
152,502	-8,386	235,900	112,551
153,516	-8,254	235,665	112,534
154,531	-8,265	235,546	112,458
155,546	-8,287	235,179	112,255
156,560	-8,479	235,194	112,099
157,575	-8,303	234,812	112,047
158,589	-8,466	234,839	111,921
159,604	-8,402	234,776	111,931
160,619	-8,251	234,551	111,934
161,633	-8,335	234,515	111,841
162,648	-8,337	234,382	111,765
163,662	-8,304	234,112	111,653
164,677	-8,454	233,956	111,449
165,692	-8,351	233,656	111,378
166,706	-8,306	233,612	111,383
167,721	-8,134	233,578	111,493
168,735	-7,928	233,384	111,553
169,750	-8,044	233,225	111,376
170,764	-8,527	233,095	110,922
171,779	-8,290	232,925	111,018
172,794	-8,144	232,658	110,996
173,808	-8,345	232,439	110,723
174,823	-8,918	232,119	110,111
175,837	-8,897	231,951	110,038
176,852	-8,733	232,018	110,188
177,867	-8,334	231,948	110,459
178,881	-8,272	231,788	110,421
179,896	-7,989	231,607	110,548
180,910	-8,151	231,414	110,319
181,925	-8,087	231,124	110,221
182,940	-8,167	231,199	110,184
183,954	-8,107	231,028	110,140
184,969	-7,942	230,784	110,142
185,983	-8,111	230,732	109,975
186,998	-8,054	230,612	109,953
188,013	-8,065	230,318	109,795
189,027	-7,981	230,185	109,787
190,042	-8,106	230,072	109,626
191,056	-7,994	229,900	109,622
192,071	-8,008	229,795	109,551
193,086	-8,207	229,674	109,328
194,100	-7,992	229,415	109,362
195,115	-8,611	229,159	108,750
196,129	-9,057	228,852	108,249
197,144	-4,585	230,342	112,429
198,159	0,989	232,116	117,647
199,173	3,076	232,535	119,482
200,188	3,404	232,433	119,675
201,202	3,509	232,279	119,667
202,217	3,902	232,219	119,932
203,232	3,934	232,164	119,918
204,246	4,048	231,983	119,902
205,261	4,169	231,884	119,934
206,275	3,978	231,741	119,701
207,290	4,424	231,537	119,932
208,304	4,125	231,539	119,689
209,319	4,050	231,324	119,510
210,334	3,976	231,035	119,293
211,348	3,970	230,799	119,156
212,363	3,512	230,530	118,651
213,377	3,197	230,396	118,328
214,392	3,419	230,244	118,411
215,407	3,280	229,989	118,163
216,421	3,842	229,864	118,521
217,436	3,118	229,814	117,927
218,450	3,248	229,404	117,806
219,465	3,162	229,358	117,705
220,480	3,345	229,138	117,722
221,494	3,265	229,158	117,661
222,509	3,388	229,042	117,685
223,523	3,420	228,726	117,537
224,538	3,187	228,602	117,284
225,553	3,324	228,675	117,416
226,567	3,388	228,401	117,314
227,582	3,637	228,438	117,513
228,596	3,780	228,287	117,535
229,611	3,463	228,019	117,143
230,626	3,066	227,742	116,688
231,640	3,356	227,618	116,835
232,655	3,515	227,557	116,914
233,669	4,103	227,596	117,373
234,684	4,163	227,363	117,287
235,699	3,693	227,209	116,840
236,713	3,605	226,974	116,642
237,728	3,355	226,816	116,360
238,742	3,354	226,561	116,218
239,757	3,437	226,429	116,204
240,772	3,232	226,347	115,995
241,786	3,236	226,138	115,881
242,801	3,515	225,984	116,003
243,815	3,824	226,044	116,257
244,830	3,818	225,988	116,214
245,844	3,594	225,549	115,808
246,859	3,535	225,459	115,707
247,874	3,685	225,309	115,733
248,888	3,690	225,198	115,669
249,903	3,449	225,006	115,380
250,917	3,153	225,052	115,170
251,932	3,303	224,843	115,165
252,947	3,251	224,619	115,001
253,961	3,211	224,470	114,884
254,976	3,380	224,161	114,842
255,990	3,584	224,189	115,000
257,005	3,458	224,143	114,872
258,020	3,690	223,996	114,960
259,034	3,906	223,820	115,021
260,049	3,611	223,620	114,688
261,063	3,679	223,438	114,634
262,078	3,621	223,431	114,578
263,093	3,781	223,228	114,582
264,107	3,645	223,120	114,415
265,122	3,756	222,990	114,421
266,136	4,035	222,772	114,506
267,151	3,853	222,750	114,349
268,166	3,396	222,407	113,824
269,180	3,200	222,293	113,610
270,195	2,941	222,227	113,374
271,209	3,138	222,066	113,428
272,224	3,324	221,817	113,428
273,239	3,551	221,684	113,518
274,253	3,436	221,440	113,298
275,268	3,164	221,292	113,012
276,282	3,022	221,276	112,888
277,297	2,962	221,050	112,719
278,312	3,081	221,032	112,787
279,326	3,282	220,959	112,888
280,341	3,263	220,686	112,724
281,355	3,363	220,613	112,750
282,370	3,442	220,470	112,725
283,384	3,094	220,191	112,317
284,399	3,179	220,070	112,308
285,414	3,278	219,993	112,331
286,428	3,327	219,751	112,234
287,443	3,652	219,772	112,473
288,457	3,414	219,601	112,200
289,472	3,497	219,348	112,122
290,487	2,977	219,182	111,647
291,501	3,008	219,025	111,580
292,516	3,041	218,953	111,557
293,530	3,140	218,776	111,529
294,545	3,082	218,723	111,450
295,560	3,197	218,673	111,499
296,574	3,281	218,560	111,492
297,589	3,328	218,331	111,400
298,603	3,556	218,324	111,552
299,618	3,412	218,028	111,286
300,633	3,605	217,942	111,373
301,647	3,710	217,813	111,373
302,662	3,487	217,717	111,152
303,676	3,588	217,668	111,190
304,691	3,622	217,519	111,129
305,706	3,761	217,333	111,124
306,720	3,688	217,160	110,973
307,735	3,347	216,937	110,603
308,749	3,156	216,722	110,346
309,764	3,748	216,540	110,670
310,779	3,466	216,655	110,516
311,793	3,481	216,389	110,381
312,808	3,354	216,144	110,155
313,822	3,347	216,127	110,131
314,837	3,364	215,971	110,055
315,852	3,302	215,797	109,911
316,866	3,422	215,637	109,906
317,881	3,536	215,683	110,002
318,895	3,691	215,624	110,073
319,910	3,377	215,188	109,616
320,925	3,360	214,908	109,451
321,939	3,237	214,707	109,251
322,954	2,994	214,898	109,165
323,968	3,591	214,793	109,528
324,983	3,485	214,696	109,394
325,997	3,648	214,607	109,455
327,012	3,610	214,248	109,235
328,027	3,272	214,260	108,990
329,041	3,819	214,233	109,356
330,056	3,879	214,224	109,385
331,070	3,344	213,858	108,808
332,085	3,139	213,544	108,493
333,100	3,338	213,378	108,540
334,114	3,550	213,219	108,599
335,129	3,319	213,245	108,440
336,143	3,148	213,151	108,261
337,158	3,329	212,883	108,244
338,173	3,440	212,816	108,278
339,187	3,411	212,609	108,143
340,202	3,075	212,479	107,830
341,216	2,901	212,510	107,713
342,231	3,051	212,348	107,727
343,246	3,283	212,018	107,713
344,260	3,103	212,008	107,572
345,275	3,102	211,947	107,530
346,289	3,495	211,691	107,667
347,304	3,534	211,676	107,678
348,319	3,324	211,536	107,449
349,333	3,174	211,361	107,246
350,348	3,490	211,174	107,363
351,362	3,571	211,211	107,428
352,377	3,516	211,043	107,295
353,392	3,340	210,806	107,042
354,406	3,472	210,777	107,110
355,421	194,542	1342,618	1425,942
356,435	155,331	1480,542	1425,976
