DTS Sentinel unit serial number:	SN410029Multiplexer serial number:	ORYXHardware model number:	OX2-SRSoftware version number:	ORYX F/W v4,00 Oryx Data Collector v3.7.2.0data status	okinstallation	B6 Nyhavnadifferential loss correction	single-endedforward channel	channel 2reverse channel	N/Adate	2023/12/10time	09:20:08forward acquisition time	300,00reverse acquisition time	0,00gamma	499,1914k internal	0,3123k external	0,3123temperature offset calibration	1,0000default loss term (dB/km)	0,3820temperature slope calibration	1,0000multiplexer offset coefficient	1,0000multiplexer slope coefficient	1,0000fibre end	0,00T internal ref (°C)	22,56T ext. ref 1 (°C)	6,30T ext. ref 2 (°C)	6,31length (m)	temperature (°C)	Stokes	anti-Stokes-744,400	-200,000	-0,011	-0,128
-743,385	-52,882	-0,117	0,040
-742,371	166,738	0,059	-0,062
-741,356	-112,543	-0,268	0,039
-740,342	-162,676	0,103	-0,004
-739,327	-68,302	-0,303	-0,087
-738,312	509,870	-0,013	-0,023
-737,298	58,939	-0,131	0,096
-736,283	40,387	0,118	0,079
-735,269	-22,451	-0,289	0,130
-734,254	415,974	0,022	0,035
-733,239	-44,037	-0,368	-0,137
-732,225	-136,333	-0,082	-0,007
-731,210	800,000	0,020	0,065
-730,196	-145,356	-0,038	-0,002
-729,181	-85,115	-0,099	-0,023
-728,167	-77,800	0,103	0,026
-727,152	800,000	0,014	-0,032
-726,137	800,000	0,009	-0,021
-725,123	64,399	-0,041	-0,031
-724,108	-20,073	-0,143	-0,065
-723,094	-82,797	-0,130	0,031
-722,079	-200,000	-0,003	0,071
-721,064	-108,310	0,095	-0,015
-720,050	-6,802	0,124	-0,063
-719,035	270,435	-0,011	0,015
-718,021	-88,088	-0,187	-0,041
-717,006	45,561	-0,007	0,004
-715,991	56,746	0,131	-0,095
-714,977	-200,000	-0,013	0,074
-713,962	800,000	-0,010	0,028
-712,948	-136,500	-0,048	0,004
-711,933	91,296	-0,075	0,063
-710,918	-85,496	-0,022	-0,005
-709,904	146,362	-0,104	0,104
-708,889	-150,624	-0,103	-0,006
-707,875	-170,352	-0,182	-0,005
-706,860	-115,953	0,020	-0,003
-705,845	9,762	-0,149	0,084
-704,831	800,000	-0,022	-0,048
-703,816	233,707	-0,092	-0,113
-702,802	800,000	-0,041	0,119
-701,787	-32,076	-0,172	0,071
-700,772	-95,678	0,041	-0,008
-699,758	-100,000	-0,090	-0,017
-698,743	171,952	0,090	-0,097
-697,729	128,624	0,065	-0,062
-696,714	-21,709	-0,112	0,051
-695,699	490,534	0,032	0,055
-694,685	-161,924	-0,028	-0,001
-693,670	-200,000	-0,000	-0,148
-692,656	-200,000	0,018	0,091
-691,641	-34,073	0,102	0,041
-690,627	-142,964	-0,092	0,007
-689,612	-200,000	0,010	0,089
-688,597	-200,000	0,019	-0,150
-687,583	553,530	-0,029	0,052
-686,568	-74,082	-0,074	-0,020
-685,554	-103,112	-0,083	0,014
-684,539	-47,318	0,075	-0,027
-683,524	800,000	0,022	0,059
-682,510	-200,000	0,005	0,183
-681,495	162,427	0,073	0,076
-680,481	-200,000	-0,012	0,042
-679,466	16,590	-0,092	-0,054
-678,451	-124,037	-0,070	0,008
-677,437	-200,000	0,008	-0,044
-676,422	-104,387	0,077	-0,013
-675,408	-200,000	-0,012	0,062
-674,393	-31,390	-0,060	-0,025
-673,378	-87,213	-0,136	0,031
-672,364	-56,808	0,119	0,039
-671,349	-200,000	0,004	0,074
-670,335	333,039	-0,068	0,097
-669,320	800,000	-0,031	-0,084
-668,305	30,233	0,067	-0,043
-667,291	-96,895	-0,052	0,010
-666,276	217,183	-0,078	-0,092
-665,262	-119,526	-0,171	-0,022
-664,247	-39,749	-0,067	-0,026
-663,232	269,071	0,027	0,035
-662,218	-57,855	-0,048	0,015
-661,203	176,501	-0,064	0,069
-660,189	-120,720	-0,070	-0,009
-659,174	-110,427	-0,043	0,007
-658,159	-60,928	-0,066	0,021
-657,145	-200,000	0,021	0,082
-656,130	11,963	0,062	0,036
-655,116	-154,935	0,051	0,002
-654,101	-129,966	0,148	0,015
-653,086	263,247	0,139	0,179
-652,072	800,000	-0,081	-0,177
-651,057	-127,884	0,099	-0,010
-650,043	-54,848	-0,019	-0,006
-649,028	800,000	-0,007	-0,021
-648,014	239,561	-0,030	-0,037
-646,999	-200,000	-0,001	0,115
-645,984	-200,000	0,027	0,158
-644,970	-200,000	0,002	0,047
-643,955	-13,917	0,013	0,006
-642,941	94,347	-0,045	0,038
-641,926	87,481	0,117	-0,096
-640,911	-121,213	-0,209	0,026
-639,897	7,572	-0,026	0,014
-638,882	-200,000	0,003	-0,098
-637,868	139,879	-0,061	-0,060
-636,853	-5,261	-0,051	0,026
-635,838	-61,368	0,171	-0,053
-634,824	-85,354	-0,040	-0,009
-633,809	-84,739	0,023	-0,005
-632,795	-71,379	0,065	-0,018
-631,780	262,249	-0,051	0,066
-630,765	180,995	0,048	0,052
-629,751	77,549	-0,218	-0,172
-628,736	222,513	-0,154	-0,185
-627,722	205,442	-0,066	-0,076
-626,707	13,470	0,093	0,053
-625,692	-8,532	-0,076	-0,038
-624,678	677,955	0,028	0,054
-623,663	-200,000	0,010	0,069
-622,649	230,712	-0,023	-0,028
-621,634	-200,000	-0,010	-0,252
-620,619	-124,841	-0,090	0,010
-619,605	1,944	0,066	-0,035
-618,590	36,014	0,131	-0,085
-617,576	-200,000	-0,009	0,067
-616,561	-24,741	-0,150	0,066
-615,546	57,045	0,106	-0,076
-614,532	-75,091	-0,096	-0,025
-613,517	-17,256	-0,076	-0,035
-612,503	-142,310	-0,078	-0,006
-611,488	-200,000	-0,026	0,134
-610,474	-200,000	-0,015	-0,135
-609,459	-200,000	-0,028	-0,138
-608,444	92,986	-0,054	0,046
-607,430	-78,516	0,062	-0,015
-606,415	34,688	-0,140	-0,091
-605,401	319,095	-0,015	0,020
-604,386	40,831	-0,037	-0,025
-603,371	485,546	-0,058	0,098
-602,357	111,462	0,153	0,137
-601,342	79,423	-0,046	-0,036
-600,328	461,554	0,049	0,082
-599,313	800,000	0,036	-0,094
-598,298	584,633	-0,027	-0,050
-597,284	351,681	0,075	0,110
-596,269	-187,187	-0,056	-0,001
-595,255	-54,284	0,059	-0,020
-594,240	800,000	-0,009	0,020
-593,225	-131,588	-0,081	0,008
-592,211	485,967	-0,054	-0,091
-591,196	-138,253	-0,092	0,007
-590,182	-200,000	-0,001	-0,037
-589,167	97,273	-0,073	-0,062
-588,152	223,387	0,096	-0,115
-587,138	-76,803	0,155	0,040
-586,123	-57,711	0,075	0,024
-585,109	-170,011	0,048	-0,001
-584,094	66,916	0,178	-0,134
-583,079	-200,000	0,033	0,111
-582,065	-133,247	0,116	0,011
-581,050	95,394	0,046	0,039
-580,036	-52,880	-0,012	0,004
-579,021	185,803	-0,073	0,080
-578,006	-30,069	-0,019	0,008
-576,992	-200,000	-0,011	0,058
-575,977	-120,743	0,024	0,003
-574,963	523,923	-0,047	0,083
-573,948	6,676	0,134	0,074
-572,934	800,000	-0,053	-0,134
-571,919	131,676	-0,022	-0,021
-570,904	-200,000	0,002	-0,016
-569,890	-139,244	-0,155	0,012
-568,875	-16,176	-0,077	-0,036
-567,861	800,000	-0,007	0,014
-566,846	129,656	0,057	-0,054
-565,831	800,000	-0,030	0,070
-564,817	76,399	-0,035	0,027
-563,802	232,847	-0,046	-0,056
-562,788	800,000	-0,030	-0,084
-561,773	-200,000	-0,020	0,066
-560,758	192,708	-0,060	0,067
-559,744	-65,091	-0,064	-0,019
-558,729	577,929	-0,056	0,102
-557,715	-48,289	-0,151	-0,054
-556,700	-200,000	0,002	-0,201
-555,685	-200,000	-0,011	-0,123
-554,671	800,000	-0,067	0,167
-553,656	-200,000	0,015	-0,051
-552,642	-12,522	0,105	-0,051
-551,627	420,433	-0,036	-0,058
-550,612	-200,000	-0,006	-0,196
-549,598	100,761	-0,097	-0,084
-548,583	-200,000	-0,005	-0,105
-547,569	-200,000	0,036	0,000
-546,554	545,899	0,072	0,127
-545,539	-18,230	-0,119	0,055
-544,525	-200,000	-0,009	-0,095
-543,510	-25,702	-0,116	0,050
-542,496	-48,464	0,064	0,023
-541,481	164,275	-0,094	-0,098
-540,466	36,078	0,094	-0,061
-539,452	-200,000	-0,005	0,024
-538,437	-37,799	-0,012	-0,005
-537,423	-30,871	-0,098	0,041
-536,408	-200,000	-0,002	-0,159
-535,393	800,000	0,013	-0,033
-534,379	89,316	0,021	0,018
-533,364	163,433	-0,022	0,023
-532,350	515,565	-0,030	0,052
-531,335	800,000	0,035	0,080
-530,321	246,777	0,072	0,090
-529,306	-89,082	0,093	-0,020
-528,291	309,626	0,062	-0,086
-527,277	-30,568	-0,082	-0,034
-526,262	-63,692	0,060	-0,018
-525,248	21,193	-0,037	-0,022
-524,233	-167,076	0,013	0,000
-523,218	-200,000	0,045	0,203
-522,204	-200,000	-0,015	0,067
-521,189	-71,847	-0,139	-0,038
-520,175	20,872	-0,060	-0,036
-519,160	265,787	0,066	-0,085
-518,145	-136,387	-0,054	0,005
-517,131	-87,176	0,220	0,049
-516,116	30,692	0,184	-0,116
-515,102	-140,028	-0,170	-0,013
-514,087	-200,000	-0,025	-0,111
-513,072	-38,530	-0,101	-0,039
-512,058	800,000	-0,016	0,041
-511,043	-129,550	0,088	-0,009
-510,029	556,133	-0,020	0,037
-509,014	255,775	-0,034	-0,043
-507,999	126,139	-0,062	0,058
-506,985	800,000	-0,045	-0,098
-505,970	109,280	-0,047	-0,041
-504,956	96,290	0,017	0,014
-503,941	-200,000	-0,034	0,125
-502,926	-44,645	0,075	-0,028
-501,912	461,690	0,112	-0,186
-500,897	476,746	0,031	0,052
-499,883	134,423	0,095	0,091
-498,868	-133,762	-0,076	-0,007
-497,853	-200,000	0,022	-0,133
-496,839	41,654	-0,114	0,076
-495,824	-63,600	0,042	-0,013
-494,810	54,988	0,040	0,028
-493,795	140,654	0,049	-0,048
-492,781	97,157	0,053	0,045
-491,766	113,021	0,087	0,078
-490,751	-200,000	0,007	-0,028
-489,737	-140,813	-0,053	-0,004
-488,722	800,000	-0,027	0,072
-487,708	41,517	0,058	0,039
-486,693	-200,000	0,025	-0,146
-485,678	-200,000	0,013	-0,122
-484,664	-135,512	-0,147	0,013
-483,649	530,832	0,069	0,121
-482,635	-165,208	0,043	0,001
-481,620	130,227	-0,081	-0,076
-480,605	56,202	0,159	0,113
-479,591	121,784	0,080	-0,074
-478,576	-200,000	0,009	-0,062
-477,562	800,000	0,031	-0,083
-476,547	325,188	-0,074	-0,104
-475,532	465,978	-0,065	0,108
-474,518	92,285	0,097	0,081
-473,503	341,589	0,074	0,106
-472,489	-200,000	0,012	0,080
-471,474	-200,000	0,014	-0,056
-470,459	252,641	-0,021	0,027
-469,445	800,000	-0,049	-0,143
-468,430	42,228	-0,083	-0,056
-467,416	0,002	-0,120	0,063
-466,401	275,890	0,098	0,129
-465,386	-200,000	0,025	-0,099
-464,372	0,257	-0,042	0,022
-463,357	800,000	-0,011	-0,024
-462,343	-143,357	0,121	0,008
-461,328	16,900	0,093	-0,054
-460,313	-6,959	-0,057	0,028
-459,299	-200,000	0,028	0,146
-458,284	-63,936	-0,133	-0,040
-457,270	800,000	0,036	0,084
-456,255	-200,000	0,009	-0,035
-455,241	-89,479	-0,016	-0,003
-454,226	108,035	0,139	-0,122
-453,211	-200,000	-0,009	0,148
-452,197	-200,000	-0,000	0,025
-451,182	-200,000	-0,000	0,009
-450,168	800,000	0,018	-0,050
-449,153	-200,000	0,041	-0,167
-448,138	-183,571	-0,124	-0,002
-447,124	-200,000	-0,011	-0,079
-446,109	284,146	0,037	-0,049
-445,095	-200,000	0,006	0,161
-444,080	-75,527	0,117	0,030
-443,065	-200,000	0,021	0,090
-442,051	-58,296	-0,084	-0,027
-441,036	-103,375	-0,104	-0,018
-440,022	-200,000	0,013	-0,077
-439,007	-200,000	0,005	0,213
-437,992	800,000	0,039	0,118
-436,978	-122,729	0,061	-0,007
-435,963	-14,266	-0,102	0,048
-434,949	-200,000	-0,001	0,013
-433,934	-109,663	0,060	0,009
-432,919	191,153	0,040	0,045
-431,905	148,549	-0,067	0,067
-430,890	-39,203	0,074	0,028
-429,876	800,000	-0,086	-0,206
-428,861	-200,000	0,004	-0,070
-427,846	-200,000	0,028	-0,097
-426,832	278,891	-0,039	-0,051
-425,817	-200,000	-0,050	-0,189
-424,803	116,704	-0,134	-0,121
-423,788	800,000	-0,013	-0,041
-422,773	272,070	-0,049	-0,063
-421,759	50,563	-0,040	0,028
-420,744	21,189	-0,101	0,060
-419,730	-140,549	-0,103	-0,008
-418,715	-9,733	-0,143	0,070
-417,701	800,000	0,033	0,105
-416,686	79,862	0,099	-0,078
-415,671	146,297	0,061	0,060
-414,657	-32,320	0,039	-0,016
-413,642	-200,000	-0,004	0,031
-412,628	73,037	-0,015	-0,012
-411,613	19,627	-0,114	-0,067
-410,598	-22,508	-0,107	0,048
-409,584	-66,520	0,075	-0,022
-408,569	-38,325	-0,056	-0,022
-407,555	-68,592	-0,054	0,015
-406,540	-150,181	0,153	-0,009
-405,525	22,041	0,129	-0,077
-404,511	59,851	-0,055	0,040
-403,496	42,173	-0,027	0,018
-402,482	87,674	-0,052	0,043
-401,467	-200,000	0,003	0,179
-400,452	-98,994	-0,035	0,007
-399,438	1,100	-0,068	0,036
-398,423	-200,000	-0,012	0,056
-397,409	-4,382	0,054	-0,028
-396,394	125,654	0,052	0,048
-395,379	-200,000	0,011	-0,037
-394,365	-132,736	0,108	-0,010
-393,350	155,701	0,074	0,075
-392,336	53,729	-0,149	0,105
-391,321	-200,000	0,013	0,102
-390,306	-200,000	0,018	-0,147
-389,292	-4,304	0,134	0,068
-388,277	800,000	-0,096	0,268
-387,263	-66,007	-0,133	0,039
-386,248	87,513	0,064	-0,052
-385,233	-191,654	0,109	-0,001
-384,219	346,452	0,053	-0,077
-383,204	130,365	-0,131	-0,124
-382,190	-56,711	-0,212	0,069
-381,175	-56,249	0,093	0,030
-380,160	-68,533	-0,043	-0,012
-379,146	300,473	0,064	0,087
-378,131	-33,878	0,027	0,011
-377,117	-200,000	0,001	0,023
-376,102	-78,096	0,146	0,037
-375,088	-200,000	0,015	-0,054
-374,073	800,000	-0,034	-0,081
-373,058	-25,153	-0,057	0,025
-372,044	242,675	0,122	0,150
-371,029	-176,607	0,046	0,001
-370,015	800,000	0,073	-0,170
-369,000	800,000	0,036	0,074
-367,985	-50,737	0,065	0,023
-366,971	800,000	-0,076	-0,209
-365,956	214,768	0,075	-0,087
-364,942	123,726	0,025	-0,023
-363,927	335,991	0,037	0,053
-362,912	-9,577	-0,094	0,046
-361,898	5,353	-0,106	0,057
-360,883	-200,000	0,017	-0,076
-359,869	-96,497	-0,031	-0,006
-358,854	-146,654	0,015	0,001
-357,839	-20,300	-0,066	0,030
-356,825	-200,000	0,015	0,088
-355,810	-200,000	0,003	0,140
-354,796	-26,094	-0,048	0,021
-353,781	25,754	-0,089	0,054
-352,766	474,960	0,069	-0,116
-351,752	-107,004	0,091	0,015
-350,737	2,017	0,032	-0,017
-349,723	-200,000	0,011	-0,098
-348,708	-152,265	0,085	0,004
-347,693	800,000	0,039	0,095
-346,679	-12,131	-0,047	-0,022
-345,664	-100,916	0,043	-0,008
-344,650	3,164	-0,128	0,068
-343,635	-200,000	-0,001	0,021
-342,620	-200,000	0,011	0,113
-341,606	188,211	-0,074	0,081
-340,591	298,070	-0,036	-0,048
-339,577	284,369	-0,064	-0,084
-338,562	800,000	0,009	-0,019
-337,548	-200,000	0,005	0,058
-336,533	-200,000	0,007	0,118
-335,518	-20,166	-0,097	0,044
-334,504	97,629	0,183	0,154
-333,489	82,823	0,127	-0,101
-332,475	159,254	-0,033	-0,034
-331,460	65,528	-0,081	-0,060
-330,445	388,495	0,023	0,034
-329,431	-200,000	-0,014	0,088
-328,416	-108,606	0,059	0,009
-327,402	-200,000	0,050	0,163
-326,387	-200,000	-0,001	0,007
-325,372	-200,000	0,009	-0,064
-324,358	258,212	-0,018	-0,022
-323,343	-112,979	0,120	-0,017
-322,329	-143,511	0,136	0,009
-321,314	318,465	-0,101	0,140
-320,299	800,000	0,035	-0,089
-319,285	251,135	0,036	-0,045
-318,270	-128,841	0,083	-0,008
-317,256	-174,069	-0,059	-0,001
-316,241	-47,824	-0,058	-0,020
-315,226	-91,406	-0,070	-0,015
-314,212	-83,284	0,060	-0,014
-313,197	800,000	-0,014	-0,031
-312,183	193,761	0,060	0,066
-311,168	-200,000	0,025	-0,115
-310,153	-102,741	-0,049	-0,009
-309,139	227,511	0,047	-0,056
-308,124	80,049	0,169	0,133
-307,110	-108,101	-0,121	0,019
-306,095	-141,045	0,109	0,008
-305,080	-74,043	-0,037	0,010
-304,066	321,921	0,107	-0,149
-303,051	172,215	0,027	-0,029
-302,037	-200,000	-0,004	-0,015
-301,022	-65,027	-0,082	0,024
-300,008	800,000	0,020	0,058
-298,993	-68,633	-0,094	0,027
-297,978	-126,357	0,129	0,014
-296,964	-200,000	-0,006	0,059
-295,949	800,000	-0,019	0,051
-294,935	543,807	0,077	-0,135
-293,920	306,616	0,085	-0,116
-292,905	800,000	0,050	0,135
-291,891	34,612	-0,032	0,020
-290,876	219,487	0,032	-0,038
-289,862	-55,273	0,121	-0,040
-288,847	268,622	0,072	-0,092
-287,832	-169,332	0,042	-0,001
-286,818	151,190	0,038	0,038
-285,803	800,000	0,030	-0,068
-284,789	584,980	0,009	0,016
-283,774	56,911	0,136	-0,097
-282,759	-200,000	0,007	-0,047
-281,745	152,801	-0,090	0,090
-280,730	-93,667	0,061	-0,012
-279,716	-200,000	0,024	0,123
-278,701	108,093	-0,090	0,078
-277,686	-16,989	-0,068	0,031
-276,672	-79,993	0,033	0,008
-275,657	-200,000	0,004	0,152
-274,643	29,405	-0,075	-0,046
-273,628	-200,000	-0,019	-0,088
-272,613	-148,276	-0,106	-0,006
-271,599	-91,228	0,084	-0,017
-270,584	-117,863	-0,114	0,015
-269,570	-200,000	-0,018	0,176
-268,555	-88,750	0,028	0,006
-267,540	194,568	-0,041	-0,046
-266,526	42,296	-0,159	-0,106
-265,511	317,954	0,062	0,086
-264,497	384,157	0,011	0,017
-263,482	-200,000	0,025	-0,116
-262,467	800,000	0,030	0,073
-261,453	-116,181	-0,035	-0,005
-260,438	236,398	0,106	0,129
-259,424	73,270	0,101	-0,078
-258,409	-200,000	0,023	-0,107
-257,395	-150,396	0,054	0,003
-256,380	-200,000	-0,013	0,246
-255,365	-200,000	0,015	0,189
-254,351	-200,000	-0,003	0,130
-253,336	-115,120	0,061	0,008
-252,322	107,072	0,062	0,054
-251,307	-200,000	0,031	0,116
-250,292	-200,000	0,017	0,133
-249,278	-4,126	0,110	-0,056
-248,263	155,915	-0,087	-0,088
-247,249	-128,217	-0,122	0,013
-246,234	800,000	0,030	0,075
-245,219	800,000	0,058	-0,149
-244,205	-133,053	-0,126	-0,011
-243,190	13,209	-0,064	-0,036
-242,176	23,248	0,162	0,097
-241,161	134,324	-0,050	0,047
-240,146	634,036	0,098	0,182
-239,132	-59,138	-0,065	-0,020
-238,117	-200,000	-0,010	-0,058
-237,103	268,094	-0,108	0,139
-236,088	-76,700	0,047	-0,012
-235,073	388,346	0,027	0,041
-234,059	-200,000	0,000	-0,044
-233,044	165,238	0,016	-0,016
-232,030	-200,000	-0,008	-0,048
-231,015	-72,215	-0,068	0,018
-230,000	575,145	0,060	-0,107
-228,986	-200,000	-0,013	-0,159
-227,971	-26,455	-0,059	-0,025
-226,957	-200,000	-0,013	0,079
-225,942	39,378	-0,036	-0,023
-224,927	-200,000	-0,004	-0,050
-223,913	358,573	-0,097	-0,142
-222,898	-10,536	0,132	-0,064
-221,884	-200,000	0,018	-0,159
-220,869	-64,673	0,064	0,019
-219,855	214,454	0,071	-0,082
-218,840	72,551	0,026	0,019
-217,825	472,980	-0,012	-0,020
-216,811	295,414	0,053	-0,071
-215,796	-119,807	-0,027	0,003
-214,782	-200,000	-0,010	0,078
-213,767	205,085	0,044	0,050
-212,752	-32,607	0,030	0,012
-211,738	800,000	-0,043	0,109
-210,723	-200,000	0,003	-0,022
-209,709	81,050	0,066	-0,052
-208,694	237,687	-0,055	-0,067
-207,679	-200,000	0,006	0,044
-206,665	-200,000	-0,001	0,009
-205,650	-46,020	-0,032	-0,011
-204,636	800,000	-0,042	-0,124
-203,621	63,035	0,124	-0,091
-202,606	108,705	0,033	0,029
-201,592	-120,935	-0,188	0,023
-200,577	-200,000	-0,001	-0,151
-199,563	-144,233	0,078	0,005
-198,548	-200,000	-0,004	0,034
-197,533	37,214	-0,056	-0,036
-196,519	-200,000	0,007	-0,054
-195,504	327,796	0,101	-0,142
-194,490	-118,111	-0,092	-0,012
-193,475	58,352	-0,038	-0,027
-192,460	441,586	-0,046	0,074
-191,446	-200,000	-0,012	0,121
-190,431	-200,000	-0,016	0,192
-189,417	800,000	0,013	0,031
-188,402	146,945	0,009	0,009
-187,387	271,001	0,080	-0,103
-186,373	19,257	-0,096	-0,056
-185,358	29,240	-0,026	-0,016
-184,344	311,372	0,066	-0,091
-183,329	109,438	0,094	0,082
-182,315	-200,000	0,017	0,066
-181,300	-70,076	-0,100	0,027
-180,285	-200,000	-0,009	-0,038
-179,271	101,612	-0,071	-0,061
-178,256	800,000	-0,012	0,027
-177,242	-195,387	0,052	0,000
-176,227	101,491	-0,078	-0,066
-175,212	111,584	0,090	0,079
-174,198	-200,000	-0,006	0,059
-173,183	-111,759	-0,147	0,021
-172,169	33,522	-0,072	-0,045
-171,154	146,726	-0,060	-0,059
-170,139	-27,276	0,114	0,048
-169,125	107,639	0,096	0,084
-168,110	800,000	0,048	0,128
-167,096	109,853	0,047	-0,041
-166,081	-200,000	-0,013	-0,058
-165,066	-197,599	-0,088	0,000
-164,052	723,356	-0,046	-0,089
-163,037	-200,000	-0,012	-0,052
-162,023	41,714	0,092	0,061
-161,008	800,000	0,043	0,126
-159,993	442,487	-0,089	0,143
-158,979	-47,884	-0,066	0,023
-157,964	97,742	-0,085	-0,072
-156,950	127,276	0,066	-0,061
-155,935	210,804	0,060	-0,069
-154,920	-73,883	0,020	0,005
-153,906	-200,000	-0,010	0,119
-152,891	-200,000	0,003	0,073
-151,877	345,026	-0,083	0,118
-150,862	523,111	-0,031	0,053
-149,847	-154,176	-0,122	0,006
-148,833	800,000	0,034	0,092
-147,818	800,000	-0,020	0,060
-146,804	-200,000	0,000	-0,040
-145,789	-200,000	0,005	-0,017
-144,775	-87,324	-0,132	-0,029
-143,760	800,000	0,054	-0,114
-142,745	362,948	0,038	0,056
-141,731	550,492	0,044	-0,077
-140,716	23,502	0,179	-0,107
-139,702	366,997	-0,059	0,087
-138,687	360,286	0,031	-0,045
-137,672	178,035	0,117	0,124
-136,658	-200,000	0,002	-0,057
-135,643	-132,475	0,152	0,014
-134,629	160,555	0,103	-0,104
-133,614	279,365	-0,091	-0,118
-132,599	16,335	0,065	0,037
-131,585	0,629	0,086	0,045
-130,570	-161,063	-0,030	0,001
-129,556	-200,000	0,003	-0,064
-128,541	-62,079	0,078	0,023
-127,526	164,373	-0,050	-0,052
-126,512	-142,086	0,040	-0,003
-125,497	-200,000	0,007	0,083
-124,483	-115,627	-0,061	0,008
-123,468	52,367	0,185	0,128
-122,453	-69,595	-0,236	-0,065
-121,439	-200,000	-0,017	-0,142
-120,424	-32,625	-0,145	-0,059
-119,410	153,050	-0,039	-0,039
-118,395	-7,979	0,115	-0,056
-117,380	7,289	0,071	-0,039
-116,366	205,082	0,021	0,024
-115,351	-174,010	-0,056	0,001
-114,337	800,000	-0,048	0,153
-113,322	-16,810	-0,017	0,008
-112,307	8,511	0,034	-0,018
-111,293	-87,795	0,051	0,011
-110,278	-200,000	0,012	0,047
-109,264	-200,000	-0,009	0,137
-108,249	-50,162	-0,056	-0,019
-107,234	800,000	-0,027	-0,056
-106,220	-200,000	-0,031	0,101
-105,205	84,675	-0,079	-0,063
-104,191	-122,925	0,155	-0,018
-103,176	-200,000	0,001	0,233
-102,162	-200,000	0,006	-0,043
-101,147	800,000	-0,022	-0,067
-100,132	-200,000	-0,054	-0,175
-99,118	32,109	-0,176	0,110
-98,103	65,993	-0,079	0,058
-97,089	60,583	0,077	-0,055
-96,074	142,118	0,022	-0,021
-95,059	22,085	0,136	-0,080
-94,045	-200,000	0,009	-0,036
-93,030	800,000	-0,038	0,095
-92,016	-180,803	0,056	-0,001
-91,001	191,700	0,046	-0,050
-89,986	218,212	0,065	-0,076
-88,972	-196,453	0,042	0,000
-87,957	-200,000	-0,015	0,114
-86,943	86,817	0,025	0,020
-85,928	121,555	-0,069	-0,062
-84,913	-200,000	0,012	-0,120
-83,899	24,650	-0,041	0,024
-82,884	-200,000	-0,016	-0,070
-81,870	384,439	0,014	-0,021
-80,855	144,382	0,034	-0,033
-79,840	-176,514	-0,068	0,001
-78,826	167,795	-0,020	0,020
-77,811	800,000	0,032	-0,092
-76,797	700,490	0,038	0,073
-75,782	-143,285	0,106	0,007
-74,767	800,000	-0,008	-0,024
-73,753	-200,000	-0,020	0,090
-72,738	-141,447	0,028	0,002
-71,724	-49,301	0,097	-0,034
-70,709	260,815	-0,140	-0,177
-69,694	-200,000	-0,033	-0,172
-68,680	210,046	0,082	0,093
-67,665	800,000	-0,008	0,022
-66,651	106,542	0,148	-0,127
-65,636	139,661	-0,020	-0,019
-64,622	-200,000	-0,025	-0,114
-63,607	-61,474	-0,158	-0,048
-62,592	205,208	0,059	-0,067
-61,578	32,774	-0,035	0,022
-60,563	171,808	0,054	-0,056
-59,549	-200,000	0,030	0,118
-58,534	-152,572	-1,259	-0,064
-57,519	742,338	-0,711	-1,394
-56,505	-200,000	-1,007	-4,544
-55,490	93,196	0,511	-0,419
-54,476	800,000	4,998	11,855
-53,461	-200,000	13,309	254,022
-52,446	-200,000	689,058	2268,367
-51,432	595,301	1622,752	2926,110
-50,417	120,627	1635,994	1475,306
-49,403	73,638	1290,077	979,716
-48,388	38,433	1024,833	661,433
-47,373	24,508	982,546	588,326
-46,359	23,713	972,282	579,549
-45,344	22,786	967,955	573,914
-44,330	22,768	966,510	572,976
-43,315	22,558	965,227	571,509
-42,300	22,569	964,098	570,853
-41,286	22,572	963,236	570,331
-40,271	22,537	962,215	569,589
-39,257	22,607	961,191	569,189
-38,242	22,582	960,343	568,583
-37,227	22,568	959,355	567,929
-36,213	22,509	958,723	567,342
-35,198	22,542	957,739	566,843
-34,184	22,580	956,986	566,497
-33,169	22,532	956,125	565,810
-32,154	22,593	955,259	565,474
-31,140	22,567	954,598	564,975
-30,125	22,602	953,713	564,541
-29,111	22,653	952,744	564,111
-28,096	22,565	952,087	563,417
-27,082	22,664	951,218	563,198
-26,067	22,615	950,615	562,661
-25,052	22,588	949,732	562,029
-24,038	22,549	949,273	561,611
-23,023	22,584	948,628	561,317
-22,009	22,628	948,125	561,139
-20,994	22,689	947,292	560,818
-19,979	22,646	946,892	560,421
-18,965	22,631	946,048	559,853
-17,950	22,642	945,324	559,437
-16,936	22,589	944,689	558,869
-15,921	22,519	944,280	558,383
-14,906	22,453	943,414	557,639
-13,892	22,440	942,787	557,203
-12,877	22,432	942,207	556,813
-11,863	22,455	941,478	556,435
-10,848	22,525	941,033	556,372
-9,833	22,552	940,586	556,171
-8,819	22,605	939,844	555,877
-7,804	22,501	939,169	555,127
-6,790	22,481	938,705	554,768
-5,775	22,589	937,829	554,570
-4,760	22,425	937,591	553,887
-3,746	22,436	936,896	553,489
-2,731	22,336	936,184	552,732
-1,717	22,259	935,527	552,077
-0,702	22,285	934,837	551,731
0,313	22,112	933,997	551,521
1,327	25,154	932,103	559,925
2,342	34,713	796,832	504,151
3,356	32,800	452,025	283,083
4,371	1,844	293,823	153,120
5,386	-2,512	274,773	139,057
6,400	-4,147	269,037	134,624
7,415	-4,656	266,560	132,904
8,429	-4,223	265,347	132,684
9,444	-4,424	264,480	132,056
10,459	-4,376	263,955	131,825
11,473	-4,334	263,268	131,508
12,488	-4,593	262,869	131,063
13,502	-4,483	262,209	130,822
14,517	-4,502	261,885	130,631
15,531	-4,479	261,472	130,434
16,546	-4,227	261,000	130,414
17,561	-4,431	260,613	130,025
18,575	-4,299	260,380	130,016
19,590	-4,499	259,925	129,599
20,604	-4,214	259,772	129,766
21,619	-4,522	259,341	129,263
22,634	-4,270	259,000	129,307
23,648	-4,418	258,724	129,026
24,663	-4,570	258,373	128,704
25,677	-4,495	258,242	128,694
26,692	-4,378	258,039	128,686
27,707	-4,521	257,867	128,461
28,721	-4,298	257,370	128,400
29,736	-4,604	257,240	128,052
30,750	-4,534	257,058	128,013
31,765	-4,556	256,785	127,846
32,780	-4,616	256,554	127,665
33,794	-4,574	256,377	127,603
34,809	-4,501	256,231	127,584
35,823	-4,535	255,831	127,343
36,838	-4,652	255,591	127,110
37,853	-4,759	255,381	126,899
38,867	-4,674	255,238	126,892
39,882	-4,674	254,969	126,747
40,896	-4,440	254,637	126,776
41,911	-4,583	254,504	126,572
42,926	-4,683	254,341	126,393
43,940	-4,767	254,052	126,165
44,955	-4,653	253,814	126,135
45,969	-4,768	253,647	125,940
46,984	-4,834	253,369	125,733
47,999	-5,106	252,972	125,288
49,013	-5,140	252,897	125,210
50,028	-5,298	252,556	124,893
51,042	-5,327	252,259	124,710
52,057	-5,258	252,078	124,670
53,071	-5,305	251,992	124,575
54,086	-5,313	251,798	124,461
55,101	-5,182	251,677	124,503
56,115	-4,922	251,560	124,659
57,130	-4,496	251,331	124,903
58,144	-4,354	251,289	124,993
59,159	-4,309	251,002	124,878
60,174	-4,414	250,727	124,640
61,188	-4,414	250,621	124,576
62,203	-4,458	250,350	124,393
63,217	-4,566	250,346	124,286
64,232	-4,421	249,955	124,205
65,247	-4,509	249,782	124,033
66,261	-4,247	249,446	124,079
67,276	-4,724	249,301	123,588
68,290	-4,929	249,097	123,301
69,305	-4,865	248,728	123,162
70,320	-4,957	248,624	123,021
71,334	-4,445	248,442	123,356
72,349	-4,302	248,247	123,371
73,363	-4,205	248,133	123,385
74,378	-4,401	247,967	123,125
75,393	-4,304	247,677	123,052
76,407	-4,396	247,615	122,933
77,422	-4,487	247,376	122,725
78,436	-4,475	247,150	122,613
79,451	-4,353	246,818	122,540
80,466	-4,349	246,718	122,483
81,480	-4,609	246,569	122,179
82,495	-4,579	246,196	122,008
83,509	-4,653	246,158	121,916
84,524	-4,546	245,813	121,824
85,539	-4,700	245,667	121,611
86,553	-4,834	245,400	121,355
87,568	-4,641	245,301	121,458
88,582	-4,786	245,152	121,252
89,597	-4,864	244,954	121,077
90,611	-4,608	244,843	121,227
91,626	-4,494	244,742	121,262
92,641	-4,549	244,600	121,134
93,655	-4,541	244,300	120,982
94,670	-4,681	244,214	120,811
95,684	-4,559	243,941	120,767
96,699	-4,818	243,868	120,503
97,714	-4,698	243,546	120,434
98,728	-4,614	243,370	120,406
99,743	-4,769	242,998	120,083
100,757	-4,808	242,910	119,996
101,772	-4,843	242,773	119,888
102,787	-4,674	242,645	119,955
103,801	-4,644	242,463	119,879
104,816	-4,655	242,272	119,765
105,830	-4,568	242,130	119,756
106,845	-4,326	242,026	119,894
107,860	-4,484	241,832	119,656
108,874	-4,367	241,524	119,591
109,889	-4,581	241,397	119,340
110,903	-4,733	241,249	119,131
111,918	-4,716	241,100	119,061
112,933	-4,628	240,855	119,002
113,947	-4,495	240,638	118,993
114,962	-4,509	240,496	118,901
115,976	-4,587	240,482	118,819
116,991	-4,605	240,300	118,704
118,006	-4,622	239,989	118,526
119,020	-4,583	239,976	118,541
120,035	-4,421	239,723	118,538
121,049	-4,341	239,508	118,487
122,064	-4,574	239,424	118,243
123,079	-4,395	239,313	118,325
124,093	-4,797	239,102	117,881
125,108	-4,683	238,664	117,748
126,122	-4,848	238,569	117,556
127,137	-5,032	238,397	117,311
128,151	-4,807	238,212	117,393
129,166	-4,570	238,083	117,511
130,181	-4,966	237,773	117,026
131,195	-4,943	237,696	116,997
132,210	-4,926	237,574	116,940
133,224	-4,682	237,480	117,082
134,239	-4,325	237,218	117,230
135,254	-4,577	236,993	116,906
136,268	-4,762	236,815	116,657
137,283	-4,857	236,525	116,428
138,297	-4,739	236,295	116,399
139,312	-4,961	236,256	116,191
140,327	-4,727	236,143	116,313
141,341	-4,387	236,193	116,602
142,356	-4,035	235,889	116,724
143,370	-4,165	235,742	116,536
144,385	-4,319	235,814	116,438
145,400	-4,238	235,530	116,352
146,414	-4,330	235,389	116,199
147,429	-4,167	235,155	116,203
148,443	-4,223	234,855	115,999
149,458	-4,342	234,897	115,915
150,473	-4,140	234,633	115,935
151,487	-4,259	234,438	115,734
152,502	-4,204	234,406	115,752
153,516	-4,190	234,188	115,645
154,531	-4,289	234,010	115,468
155,546	-4,280	233,642	115,283
156,560	-4,268	233,599	115,261
157,575	-4,345	233,360	115,072
158,589	-4,438	233,268	114,942
159,604	-4,491	233,356	114,933
160,619	-4,142	232,916	114,983
161,633	-4,111	232,791	114,935
162,648	-4,172	232,794	114,879
163,662	-4,060	232,539	114,831
164,677	-4,439	232,322	114,414
165,692	-4,046	232,269	114,688
166,706	-3,899	232,073	114,697
167,721	-4,149	231,939	114,424
168,735	-4,280	231,876	114,279
169,750	-4,149	231,493	114,183
170,764	-4,227	231,549	114,140
171,779	-4,338	231,399	113,968
172,794	-4,218	231,205	113,957
173,808	-4,316	231,014	113,775
174,823	-4,704	230,649	113,281
175,837	-4,749	230,453	113,139
176,852	-4,576	230,493	113,284
177,867	-4,448	230,493	113,375
178,881	-4,025	230,223	113,563
179,896	-4,028	230,078	113,479
180,910	-4,033	229,941	113,397
181,925	-4,274	229,918	113,187
182,940	-4,045	229,610	113,205
183,954	-4,039	229,361	113,076
184,969	-3,958	229,093	112,997
185,983	-4,187	229,267	112,895
186,998	-4,078	229,000	112,838
188,013	-4,014	228,891	112,823
189,027	-4,060	228,696	112,682
190,042	-3,958	228,496	112,653
191,056	-4,133	228,462	112,490
192,071	-4,033	228,309	112,482
193,086	-4,028	227,986	112,316
194,100	-4,193	228,070	112,221
195,115	-4,367	227,643	111,866
196,129	-4,828	227,545	111,451
197,144	-1,449	228,652	114,604
198,159	2,933	229,581	118,465
199,173	4,303	229,857	119,660
200,188	4,209	229,744	119,518
201,202	4,273	229,546	119,454
202,217	4,332	229,493	119,461
203,232	4,586	229,377	119,586
204,246	4,503	229,375	119,511
205,261	4,782	229,221	119,635
206,275	4,975	229,060	119,690
207,290	4,799	228,862	119,440
208,304	4,774	228,856	119,407
209,319	4,902	228,610	119,366
210,334	4,569	228,419	118,999
211,348	4,446	228,050	118,702
212,363	3,999	228,017	118,330
213,377	3,999	227,743	118,179
214,392	3,846	227,614	117,984
215,407	4,110	227,322	118,024
216,421	4,001	227,434	117,988
217,436	3,843	227,145	117,707
218,450	3,771	226,828	117,477
219,465	3,712	226,779	117,396
220,480	3,861	226,632	117,423
221,494	3,427	226,575	117,051
222,509	3,834	226,268	117,193
223,523	3,872	226,147	117,148
224,538	3,825	226,080	117,067
225,553	3,887	225,842	116,981
226,567	3,982	225,811	117,027
227,582	4,331	225,582	117,163
228,596	4,353	225,615	117,186
229,611	4,088	225,250	116,785
230,626	3,559	225,137	116,316
231,640	3,788	225,030	116,423
232,655	3,982	224,989	116,538
233,669	4,297	224,910	116,726
234,684	4,526	224,802	116,832
235,699	4,367	224,624	116,609
236,713	3,914	224,568	116,227
237,728	3,812	224,172	115,935
238,742	3,947	223,875	115,873
239,757	3,809	223,896	115,769
240,772	4,043	223,680	115,824
241,786	3,959	223,573	115,695
242,801	4,156	223,466	115,777
243,815	4,351	223,443	115,902
244,830	4,344	223,173	115,746
245,844	3,859	222,968	115,265
246,859	3,885	222,971	115,276
247,874	4,073	222,849	115,344
248,888	4,237	222,641	115,348
249,903	3,961	222,436	115,025
250,917	4,005	222,287	114,971
251,932	4,015	222,125	114,884
252,947	3,752	222,037	114,632
253,961	3,820	221,695	114,497
254,976	3,935	221,728	114,589
255,990	4,095	221,576	114,619
257,005	4,050	221,470	114,521
258,020	4,351	221,261	114,626
259,034	4,375	221,439	114,726
260,049	4,211	221,087	114,412
261,063	4,189	220,890	114,283
262,078	4,224	220,899	114,303
263,093	4,445	220,666	114,336
264,107	4,164	220,525	114,046
265,122	4,206	220,448	114,027
266,136	4,370	220,382	114,104
267,151	4,560	220,223	114,152
268,166	3,978	219,950	113,570
269,180	3,510	219,640	113,055
270,195	3,872	219,545	113,263
271,209	3,893	219,408	113,197
272,224	3,669	219,392	113,014
273,239	4,320	219,212	113,390
274,253	3,815	218,945	112,871
275,268	3,883	218,715	112,792
276,282	3,618	218,668	112,563
277,297	3,564	218,440	112,396
278,312	3,577	218,327	112,338
279,326	3,730	218,356	112,455
280,341	3,996	218,100	112,507
281,355	4,147	218,027	112,570
282,370	3,813	217,771	112,184
283,384	3,787	217,615	112,075
284,399	3,739	217,526	111,984
285,414	3,545	217,476	111,807
286,428	3,622	217,413	111,821
287,443	4,081	217,122	111,994
288,457	3,941	217,086	111,864
289,472	3,950	216,757	111,691
290,487	3,338	216,691	111,203
291,501	3,560	216,451	111,231
292,516	3,682	216,363	111,264
293,530	3,848	216,156	111,268
294,545	3,768	215,954	111,096
295,560	3,730	216,038	111,102
296,574	3,829	215,824	111,054
297,589	3,643	215,927	110,963
298,603	3,992	215,702	111,089
299,618	4,076	215,591	111,083
300,633	3,919	215,397	110,860
301,647	4,320	215,328	111,103
302,662	4,226	215,230	110,975
303,676	4,231	215,063	110,882
304,691	4,243	214,915	110,805
305,706	4,067	214,753	110,585
306,720	4,085	214,674	110,547
307,735	4,035	214,308	110,313
308,749	3,975	214,267	110,239
309,764	3,909	214,236	110,166
310,779	4,310	214,005	110,325
311,793	4,263	213,844	110,198
312,808	4,198	213,738	110,087
313,822	4,056	213,534	109,871
314,837	4,013	213,534	109,830
315,852	3,798	213,281	109,537
316,866	3,779	213,233	109,489
317,881	4,407	213,058	109,837
318,895	4,191	212,877	109,580
319,910	3,914	212,817	109,343
320,925	3,677	212,517	109,011
321,939	3,346	212,396	108,704
322,954	3,477	212,403	108,790
323,968	3,810	212,301	108,964
324,983	4,074	212,098	109,038
325,997	4,103	212,062	109,030
327,012	3,821	211,837	108,705
328,027	3,974	211,778	108,773
329,041	4,212	211,714	108,899
330,056	4,480	211,574	109,007
331,070	3,842	211,195	108,352
332,085	3,670	211,145	108,196
333,100	3,867	211,002	108,251
334,114	3,832	210,916	108,172
335,129	3,724	210,774	108,014
336,143	3,654	210,666	107,901
337,158	3,956	210,413	107,973
338,173	3,836	210,336	107,839
339,187	3,553	210,217	107,570
340,202	3,663	209,982	107,518
341,216	3,719	209,785	107,446
342,231	3,536	209,862	107,348
343,246	3,762	209,538	107,331
344,260	3,482	209,472	107,092
345,275	3,542	209,441	107,108
346,289	3,936	209,325	107,315
347,304	4,041	209,187	107,307
348,319	4,004	209,111	107,233
349,333	3,988	208,895	107,101
350,348	4,021	208,724	107,027
351,362	4,045	208,611	106,976
352,377	3,717	208,758	106,814
353,392	3,936	208,332	106,738
354,406	4,160	208,241	106,838
355,421	194,252	1345,034	1434,840
356,435	155,001	1483,641	1434,953
