DTS Sentinel unit serial number:	SN410029Multiplexer serial number:	ORYXHardware model number:	OX2-SRSoftware version number:	ORYX F/W v4,00 Oryx Data Collector v3.7.2.0data status	okinstallation	B6 Nyhavnadifferential loss correction	single-endedforward channel	channel 2reverse channel	N/Adate	2023/12/07time	13:35:08forward acquisition time	300,00reverse acquisition time	0,00gamma	499,1914k internal	0,3202k external	0,3202temperature offset calibration	1,0000default loss term (dB/km)	0,3820temperature slope calibration	1,0000multiplexer offset coefficient	1,0000multiplexer slope coefficient	1,0000fibre end	0,00T internal ref (°C)	12,31T ext. ref 1 (°C)	-1,62T ext. ref 2 (°C)	-1,61length (m)	temperature (°C)	Stokes	anti-Stokes-744,400	306,635	-0,047	-0,064
-743,385	-144,007	-0,345	0,023
-742,371	-200,000	0,021	0,150
-741,356	-192,218	-0,270	-0,002
-740,342	13,577	0,080	0,045
-739,327	-184,849	-0,357	0,004
-738,312	299,620	0,066	0,089
-737,298	-101,551	-0,465	-0,081
-736,283	224,586	0,074	-0,087
-735,269	-85,482	-0,218	-0,049
-734,254	118,495	0,060	0,054
-733,239	8,372	-0,462	-0,252
-732,225	-50,971	0,257	0,087
-731,210	-200,000	-0,025	-0,125
-730,196	406,242	0,051	-0,078
-729,181	191,876	-0,060	0,065
-728,167	-200,000	-0,004	0,020
-727,152	-117,742	-0,185	-0,024
-726,137	-99,407	-0,095	0,017
-725,123	59,242	-0,040	-0,028
-724,108	6,053	-0,038	0,020
-723,094	158,225	-0,018	0,018
-722,079	-9,728	-0,070	-0,034
-721,064	71,643	-0,039	-0,029
-720,050	132,836	-0,084	-0,079
-719,035	-200,000	-0,043	-0,153
-718,021	189,896	-0,036	0,040
-717,006	192,792	-0,076	-0,083
-715,991	-200,000	-0,010	-0,056
-714,977	1,960	-0,110	0,057
-713,962	609,153	0,028	-0,050
-712,948	-165,953	0,096	0,003
-711,933	-185,476	0,011	-0,000
-710,918	-103,360	-0,139	-0,024
-709,904	30,740	-0,072	-0,045
-708,889	-139,179	-0,043	-0,003
-707,875	127,675	-0,055	-0,050
-706,860	-28,912	0,121	0,050
-705,845	-49,039	-0,068	-0,023
-704,831	-200,000	0,002	0,128
-703,816	59,904	-0,154	0,110
-702,802	90,620	0,068	0,055
-701,787	16,243	-0,106	-0,061
-700,772	174,293	0,123	-0,130
-699,758	-200,000	0,003	0,054
-698,743	-63,702	-0,070	-0,021
-697,729	378,529	0,039	-0,058
-696,714	233,088	-0,055	0,066
-695,699	-61,856	-0,211	-0,064
-694,685	-200,000	0,021	-0,115
-693,670	318,404	-0,115	-0,158
-692,656	800,000	-0,034	0,106
-691,641	166,132	-0,037	0,038
-690,627	800,000	0,053	0,150
-689,612	574,335	0,084	0,150
-688,597	251,464	-0,040	0,049
-687,583	126,538	-0,060	-0,055
-686,568	-49,698	0,016	0,006
-685,554	-200,000	-0,027	-0,101
-684,539	-200,000	0,005	-0,114
-683,524	-200,000	-0,038	0,178
-682,510	-20,124	-0,048	0,021
-681,495	-200,000	-0,068	0,000
-680,481	154,854	-0,092	-0,092
-679,466	108,963	-0,102	-0,088
-678,451	800,000	0,032	0,077
-677,437	89,852	0,125	0,101
-676,422	1,577	0,155	-0,080
-675,408	182,772	0,076	-0,082
-674,393	451,900	-0,081	-0,131
-673,378	800,000	0,048	-0,147
-672,364	-152,950	-0,221	-0,011
-671,349	-200,000	-0,013	-0,162
-670,335	447,665	-0,011	-0,018
-669,320	-27,988	0,057	0,024
-668,305	800,000	-0,033	0,070
-667,291	70,829	-0,075	-0,056
-666,276	800,000	-0,028	-0,076
-665,262	-95,120	-0,048	0,009
-664,247	800,000	-0,030	-0,068
-663,232	800,000	0,055	0,135
-662,218	-45,043	-0,059	-0,021
-661,203	-121,011	-0,026	0,003
-660,189	-200,000	-0,005	0,097
-659,174	-15,789	0,118	0,054
-658,159	164,400	-0,002	0,002
-657,145	94,170	-0,064	-0,053
-656,130	43,598	0,052	-0,034
-655,116	-200,000	0,009	0,118
-654,101	-147,282	-0,034	0,002
-653,086	-200,000	0,009	0,036
-652,072	-200,000	-0,029	-0,143
-651,057	119,323	-0,099	-0,089
-650,043	-200,000	0,015	-0,094
-649,028	800,000	-0,043	-0,138
-648,014	-123,206	-0,104	0,012
-646,999	-200,000	-0,014	0,053
-645,984	46,011	0,025	-0,017
-644,970	794,636	-0,042	0,084
-643,955	-200,000	0,007	-0,135
-642,941	295,786	0,032	-0,042
-641,926	-200,000	-0,001	0,075
-640,911	10,951	0,080	-0,044
-639,897	800,000	0,034	0,071
-638,882	190,705	-0,026	0,028
-637,868	-81,272	-0,026	-0,006
-636,853	-99,993	-0,031	-0,006
-635,838	-200,000	-0,001	-0,012
-634,824	15,189	0,026	0,015
-633,809	800,000	-0,054	-0,121
-632,795	64,942	0,048	-0,035
-631,780	40,117	0,069	0,045
-630,765	-78,547	0,093	-0,023
-629,751	800,000	-0,058	-0,165
-628,736	39,849	-0,072	-0,047
-627,722	-200,000	0,010	-0,076
-626,707	-7,520	-0,101	0,049
-625,692	-200,000	-0,072	0,237
-624,678	708,856	-0,078	0,151
-623,663	-82,413	0,091	0,021
-622,649	105,275	-0,063	-0,054
-621,634	800,000	0,016	0,043
-620,619	-155,636	-0,054	0,002
-619,605	69,568	0,048	-0,035
-618,590	-200,000	0,022	-0,078
-617,576	-200,000	-0,006	0,083
-616,561	-40,075	-0,037	0,014
-615,546	247,810	0,021	-0,026
-614,532	31,494	-0,073	-0,045
-613,517	-68,584	-0,040	0,011
-612,503	800,000	0,024	-0,075
-611,488	741,935	-0,046	-0,089
-610,474	17,036	-0,044	-0,025
-609,459	-200,000	-0,024	-0,101
-608,444	-69,174	-0,083	-0,023
-607,430	-200,000	-0,016	-0,063
-606,415	159,296	-0,027	0,027
-605,401	90,702	0,024	-0,020
-604,386	41,436	-0,064	-0,042
-603,371	800,000	0,015	-0,038
-602,357	121,899	0,015	0,014
-601,342	800,000	-0,023	-0,064
-600,328	-200,000	0,001	-0,151
-599,313	-200,000	0,012	-0,078
-598,298	-200,000	-0,011	-0,066
-597,284	177,097	0,052	-0,054
-596,269	-26,570	-0,144	0,061
-595,255	-190,599	0,126	-0,001
-594,240	232,679	0,054	-0,064
-593,225	358,875	0,037	0,054
-592,211	800,000	-0,061	-0,148
-591,196	22,317	0,086	-0,050
-590,182	800,000	-0,019	-0,044
-589,167	-127,664	-0,021	-0,002
-588,152	-4,360	0,078	-0,039
-587,138	242,116	0,133	0,161
-586,123	-200,000	0,043	-0,151
-585,109	-16,291	0,029	0,013
-584,094	-41,957	-0,041	-0,015
-583,079	-35,409	0,114	-0,045
-582,065	800,000	0,068	-0,136
-581,050	19,868	-0,099	-0,057
-580,036	658,021	0,043	0,080
-579,021	-97,680	-0,078	-0,015
-578,006	10,226	0,060	-0,033
-576,992	-100,065	0,040	0,007
-575,977	-39,818	-0,016	0,006
-574,963	681,542	-0,064	-0,121
-573,948	-200,000	0,003	0,029
-572,934	217,289	-0,112	0,129
-571,919	-124,621	0,078	0,009
-570,904	422,285	0,072	-0,111
-569,890	283,671	0,135	-0,176
-568,875	-200,000	-0,017	0,055
-567,861	-115,019	0,044	0,006
-566,846	303,407	-0,050	-0,067
-565,831	800,000	0,019	-0,057
-564,817	631,521	-0,047	-0,086
-563,802	653,501	-0,056	-0,104
-562,788	-90,145	-0,098	-0,020
-561,773	800,000	0,028	-0,085
-560,758	-200,000	-0,018	-0,067
-559,744	606,430	0,031	-0,055
-558,729	38,190	-0,046	-0,029
-557,715	-162,604	-0,096	0,003
-556,700	95,342	-0,035	-0,028
-555,685	254,974	0,027	0,034
-554,671	147,615	0,141	0,137
-553,656	-200,000	-0,012	-0,130
-552,642	54,130	0,037	0,025
-551,627	628,554	-0,033	0,061
-550,612	297,992	-0,014	0,018
-549,598	800,000	-0,023	-0,065
-548,583	800,000	0,027	-0,071
-547,569	-200,000	-0,003	-0,088
-546,554	-80,618	-0,069	0,017
-545,539	-200,000	0,032	0,134
-544,525	119,207	0,126	-0,113
-543,510	40,825	0,062	-0,040
-542,496	-116,583	-0,123	0,016
-541,481	-172,990	-0,095	-0,002
-540,466	31,456	-0,145	-0,089
-539,452	439,793	0,051	0,081
-538,437	-200,000	0,023	0,089
-537,423	-200,000	-0,021	0,112
-536,408	491,671	0,019	0,032
-535,393	-200,000	-0,012	-0,039
-534,379	-200,000	-0,018	-0,091
-533,364	-200,000	-0,002	0,035
-532,350	-200,000	0,008	0,175
-531,335	422,020	0,007	-0,011
-530,321	800,000	0,026	0,069
-529,306	291,174	0,013	0,017
-528,291	-200,000	-0,024	-0,095
-527,277	-76,568	0,057	-0,014
-526,262	444,829	0,048	-0,077
-525,248	581,413	0,031	-0,055
-524,233	75,033	0,094	0,071
-523,218	-200,000	-0,025	0,132
-522,204	-42,388	-0,077	-0,028
-521,189	-79,007	-0,027	-0,007
-520,175	-200,000	0,008	0,025
-519,160	56,524	0,096	0,067
-518,145	-200,000	0,042	0,153
-517,131	303,776	0,088	0,118
-516,116	-83,364	-0,106	0,024
-515,102	143,617	-0,049	-0,048
-514,087	-125,526	-0,151	0,016
-513,072	-79,856	0,157	-0,038
-512,058	800,000	-0,064	-0,171
-511,043	157,614	0,053	-0,053
-510,029	-70,906	0,121	-0,033
-509,014	285,570	0,041	-0,054
-507,999	-200,000	0,018	0,074
-506,985	-200,000	0,048	-0,179
-505,970	800,000	-0,042	-0,104
-504,956	-200,000	-0,011	-0,150
-503,941	-48,245	-0,088	0,030
-502,926	772,708	-0,067	0,132
-501,912	-200,000	0,018	0,160
-500,897	83,634	-0,063	-0,050
-499,883	59,717	-0,036	0,026
-498,868	-200,000	-0,019	-0,061
-497,853	285,985	-0,098	0,127
-496,839	-200,000	-0,012	-0,253
-495,824	3,717	0,133	0,070
-494,810	767,567	0,064	0,125
-493,795	800,000	-0,064	0,173
-492,781	-50,011	-0,044	0,015
-491,766	-200,000	-0,010	-0,080
-490,751	-147,633	-0,082	-0,005
-489,737	548,620	0,049	-0,085
-488,722	800,000	-0,067	0,139
-487,708	-200,000	0,016	0,065
-486,693	39,388	0,081	-0,052
-485,678	47,882	-0,079	0,053
-484,664	74,629	0,091	0,069
-483,649	80,452	-0,091	-0,070
-482,635	202,562	0,109	0,121
-481,620	27,782	0,079	-0,048
-480,605	-63,610	0,055	0,016
-479,591	-78,580	-0,092	-0,023
-478,576	147,132	0,061	-0,060
-477,562	114,685	-0,069	-0,060
-476,547	75,685	-0,098	-0,075
-475,532	-200,000	-0,008	-0,104
-474,518	-99,337	-0,097	-0,017
-473,503	-200,000	0,027	0,115
-472,489	-115,480	0,110	0,015
-471,474	-25,810	-0,103	0,043
-470,459	-200,000	0,012	-0,094
-469,445	-200,000	-0,000	0,013
-468,430	-60,119	-0,040	0,012
-467,416	-200,000	-0,024	0,122
-466,401	529,721	0,033	0,056
-465,386	-60,712	0,130	0,039
-464,372	431,272	-0,024	-0,037
-463,357	-35,763	0,064	0,025
-462,343	-47,291	-0,142	-0,050
-461,328	138,539	-0,051	-0,048
-460,313	-59,937	-0,076	-0,023
-459,299	118,025	0,026	-0,023
-458,284	-42,805	-0,059	-0,021
-457,270	93,217	0,047	0,038
-456,255	800,000	0,026	0,077
-455,241	587,770	-0,036	-0,064
-454,226	238,016	-0,051	0,061
-453,211	-200,000	-0,002	0,064
-452,197	-47,683	0,136	0,047
-451,182	800,000	0,018	0,043
-450,168	800,000	0,044	0,099
-449,153	-24,208	0,064	0,027
-448,138	117,715	-0,001	0,001
-447,124	75,861	-0,049	-0,037
-446,109	-14,859	0,049	-0,022
-445,095	-42,499	0,086	-0,031
-444,080	87,134	0,138	0,109
-443,065	640,419	-0,029	-0,053
-442,051	-200,000	-0,015	-0,072
-441,036	-200,000	0,004	0,014
-440,022	-200,000	0,020	-0,101
-439,007	68,244	0,130	-0,096
-437,992	-200,000	-0,018	0,157
-436,978	-140,603	0,018	0,001
-435,963	-200,000	0,070	0,000
-434,949	632,916	0,084	-0,154
-433,934	755,788	0,008	-0,016
-432,919	-200,000	-0,000	-0,085
-431,905	162,722	0,075	-0,076
-430,890	-142,064	-0,078	-0,005
-429,876	286,517	0,052	-0,067
-428,861	-200,000	-0,045	0,173
-427,846	-200,000	-0,014	0,052
-426,832	-91,655	0,121	-0,024
-425,817	382,560	0,046	-0,069
-424,803	-28,405	-0,131	-0,054
-423,788	5,106	0,082	-0,043
-422,773	89,913	0,039	0,031
-421,759	112,168	0,055	0,047
-420,744	204,425	0,063	-0,070
-419,730	41,555	0,051	0,033
-418,715	234,640	0,079	-0,093
-417,701	-200,000	-0,002	-0,080
-416,686	-200,000	0,039	0,160
-415,671	-51,815	-0,122	0,041
-414,657	-200,000	0,033	-0,119
-413,642	90,598	0,051	-0,041
-412,628	-66,491	0,036	0,010
-411,613	-5,698	-0,178	0,087
-410,598	-14,591	0,135	-0,062
-409,584	-200,000	0,012	-0,088
-408,569	-190,888	-0,047	0,000
-407,555	181,128	0,104	0,110
-406,540	-106,906	0,095	-0,015
-405,525	46,712	-0,131	0,087
-404,511	250,260	-0,043	-0,053
-403,496	-200,000	-0,018	-0,196
-402,482	229,938	0,050	-0,059
-401,467	800,000	0,091	0,206
-400,452	-0,879	-0,039	0,020
-399,438	800,000	-0,050	0,147
-398,423	-59,278	0,073	-0,023
-397,409	-162,503	0,099	0,003
-396,394	-200,000	0,011	0,045
-395,379	280,271	0,005	0,006
-394,365	-64,860	0,024	0,007
-393,350	-188,611	-0,149	0,001
-392,336	-200,000	-0,009	0,040
-391,321	-134,938	0,056	-0,005
-390,306	19,449	-0,176	-0,101
-389,292	-200,000	0,019	-0,085
-388,277	240,989	-0,097	-0,116
-387,263	514,980	-0,056	0,095
-386,248	113,566	-0,044	0,038
-385,233	91,309	-0,049	-0,040
-384,219	391,255	0,009	-0,014
-383,204	261,607	-0,068	-0,085
-382,190	-134,907	-0,116	0,010
-381,175	342,392	-0,058	0,081
-380,160	-200,000	-0,008	-0,079
-379,146	262,502	-0,064	-0,080
-378,131	-154,593	0,102	0,005
-377,117	1,363	0,049	-0,025
-376,102	-200,000	-0,034	-0,160
-375,088	275,446	0,042	0,054
-374,073	-112,947	0,126	0,018
-373,058	-200,000	-0,007	-0,054
-372,044	800,000	-0,031	0,062
-371,029	-114,923	0,158	-0,021
-370,015	-200,000	-0,021	-0,157
-369,000	270,477	-0,102	-0,129
-367,985	-75,376	0,022	-0,006
-366,971	461,737	0,054	-0,087
-365,956	259,298	0,119	0,148
-364,942	-3,327	0,104	0,052
-363,927	800,000	0,057	0,132
-362,912	411,052	-0,061	0,093
-361,898	-28,475	-0,043	0,018
-360,883	399,824	0,003	0,004
-359,869	192,324	-0,035	-0,038
-358,854	-180,709	0,076	-0,001
-357,839	-60,574	0,118	0,036
-356,825	-190,961	0,132	0,001
-355,810	-75,946	0,079	0,020
-354,796	269,779	0,078	0,098
-353,781	20,202	0,016	-0,009
-352,766	464,760	0,028	0,045
-351,752	-48,297	-0,107	0,037
-350,737	303,714	0,051	0,068
-349,723	800,000	0,038	-0,103
-348,708	-200,000	0,020	-0,082
-347,693	135,862	0,098	0,092
-346,679	140,532	-0,104	-0,098
-345,664	126,998	-0,082	-0,074
-344,650	-200,000	-0,016	0,058
-343,635	-26,574	0,063	0,026
-342,620	-129,292	0,031	-0,003
-341,606	-200,000	0,007	0,099
-340,591	-131,205	-0,102	0,010
-339,577	201,084	-0,020	0,022
-338,562	-126,042	0,053	-0,006
-337,548	18,457	-0,139	-0,079
-336,533	800,000	0,036	0,093
-335,518	586,428	-0,042	0,073
-334,504	-200,000	-0,018	0,079
-333,489	-180,716	0,036	-0,001
-332,475	43,708	0,045	-0,030
-331,460	-8,659	0,068	0,032
-330,445	-158,116	-0,102	-0,004
-329,431	74,719	-0,116	0,087
-328,416	-200,000	0,061	0,194
-327,402	-200,000	0,027	0,264
-326,387	-154,606	0,094	0,004
-325,372	24,271	-0,119	-0,070
-324,358	197,424	-0,112	-0,123
-323,343	358,418	0,029	0,042
-322,329	-36,076	-0,054	0,021
-321,314	-1,039	-0,098	-0,049
-320,299	-22,264	-0,059	-0,025
-319,285	-1,081	0,041	0,021
-318,270	-200,000	-0,000	0,075
-317,256	583,563	-0,051	-0,090
-316,241	-134,779	0,043	0,004
-315,226	203,912	-0,052	0,058
-314,212	766,327	-0,049	0,097
-313,197	-200,000	0,015	0,059
-312,183	98,974	-0,069	0,057
-311,168	800,000	0,056	0,133
-310,153	-179,978	-0,146	-0,002
-309,139	116,094	-0,029	-0,026
-308,124	-200,000	-0,014	-0,076
-307,110	110,318	-0,142	-0,122
-306,095	-200,000	-0,009	0,111
-305,080	29,455	0,059	0,036
-304,066	148,899	0,022	-0,021
-303,051	-16,593	-0,061	0,027
-302,037	-200,000	0,021	-0,083
-301,022	534,568	0,074	0,126
-300,008	206,138	0,037	-0,042
-298,993	15,553	0,152	-0,085
-297,978	-67,757	-0,140	0,039
-296,964	273,302	-0,028	-0,036
-295,949	-78,790	-0,138	0,033
-294,935	-99,834	-0,090	-0,016
-293,920	-200,000	0,004	0,045
-292,905	800,000	0,019	0,054
-291,891	-106,838	0,117	-0,018
-290,876	-200,000	-0,005	0,020
-289,862	-49,241	-0,109	-0,037
-288,847	209,114	-0,024	-0,027
-287,832	800,000	0,027	-0,055
-286,818	177,875	0,073	0,076
-285,803	-34,461	0,124	0,048
-284,789	221,969	0,057	0,065
-283,774	556,933	-0,024	0,042
-282,759	-61,067	0,045	0,014
-281,745	146,730	-0,046	-0,045
-280,730	-56,856	-0,099	0,031
-279,716	-174,477	0,141	-0,003
-278,701	800,000	0,020	-0,040
-277,686	135,439	0,078	0,072
-276,672	145,682	0,092	-0,088
-275,657	78,295	0,044	-0,033
-274,643	800,000	0,054	-0,130
-273,628	-200,000	-0,015	0,057
-272,613	-200,000	0,009	0,145
-271,599	-200,000	0,001	0,011
-270,584	-200,000	0,012	0,176
-269,570	529,575	-0,048	0,080
-268,555	142,967	-0,042	0,040
-267,540	34,562	-0,180	0,112
-266,526	76,552	0,038	-0,029
-265,511	800,000	-0,035	0,089
-264,497	800,000	0,010	0,032
-263,482	513,833	0,038	0,064
-262,467	26,535	-0,026	-0,016
-261,453	716,260	-0,030	0,058
-260,438	-139,945	0,099	0,007
-259,424	-73,796	-0,123	0,032
-258,409	-32,531	-0,068	-0,027
-257,395	-200,000	-0,009	0,041
-256,380	778,905	-0,012	0,023
-255,365	-88,848	-0,086	-0,018
-254,351	516,926	0,048	0,080
-253,336	800,000	0,011	-0,025
-252,322	187,611	0,058	-0,062
-251,307	38,090	-0,078	0,049
-250,292	-116,101	-0,120	0,016
-249,278	324,955	0,071	0,097
-248,263	143,717	0,097	0,092
-247,249	-200,000	0,019	-0,087
-246,234	449,527	-0,014	0,022
-245,219	273,399	0,036	0,045
-244,205	224,149	-0,054	0,062
-243,190	-200,000	0,006	0,063
-242,176	74,432	0,108	0,081
-241,161	292,899	-0,008	0,011
-240,146	319,970	0,065	0,089
-239,132	-200,000	-0,001	0,072
-238,117	-58,511	-0,051	-0,016
-237,103	565,450	-0,058	0,100
-236,088	6,588	-0,053	-0,028
-235,073	-135,567	0,051	-0,004
-234,059	175,120	0,080	0,083
-233,044	143,381	0,147	0,140
-232,030	430,340	-0,012	-0,018
-231,015	-43,534	-0,018	-0,006
-230,000	-132,344	-0,057	0,005
-228,986	-84,815	-0,139	0,031
-227,971	-105,818	0,175	-0,028
-226,957	800,000	0,058	-0,158
-225,942	-135,106	0,038	-0,003
-224,927	6,685	-0,031	0,017
-223,913	-200,000	-0,018	-0,221
-222,898	92,248	0,080	0,064
-221,884	-200,000	0,012	-0,091
-220,869	-147,270	-0,094	0,006
-219,855	800,000	-0,025	0,063
-218,840	484,033	0,095	0,155
-217,825	122,562	0,082	-0,073
-216,811	64,398	-0,055	-0,040
-215,796	68,523	0,074	-0,054
-214,782	800,000	0,047	-0,126
-213,767	171,350	0,012	-0,012
-212,752	500,620	0,054	0,089
-211,738	-153,099	-0,109	-0,005
-210,723	-200,000	0,007	0,088
-209,709	19,140	-0,098	0,056
-208,694	259,564	-0,102	-0,125
-207,679	31,440	-0,051	0,031
-206,665	202,528	0,121	-0,134
-205,650	85,433	0,138	-0,108
-204,636	-126,161	-0,148	0,016
-203,621	717,460	0,035	-0,066
-202,606	285,262	0,084	-0,108
-201,592	800,000	-0,056	-0,148
-200,577	800,000	-0,022	-0,048
-199,563	800,000	-0,031	-0,061
-198,548	-200,000	0,020	0,120
-197,533	-200,000	0,006	0,104
-196,519	-200,000	-0,002	0,017
-195,504	800,000	0,024	0,072
-194,490	83,283	0,095	-0,073
-193,475	-200,000	-0,024	-0,089
-192,460	67,757	-0,067	0,049
-191,446	-79,399	0,062	0,015
-190,431	-61,587	-0,116	-0,034
-189,417	-200,000	0,013	0,214
-188,402	-200,000	-0,024	-0,154
-187,387	800,000	0,013	-0,041
-186,373	28,307	0,078	-0,047
-185,358	-32,462	-0,222	-0,088
-184,344	-200,000	0,032	0,138
-183,329	-46,573	-0,275	0,095
-182,315	338,297	0,028	0,039
-181,300	800,000	-0,065	0,134
-180,285	16,941	-0,081	-0,046
-179,271	-155,097	-0,074	0,003
-178,256	-200,000	-0,020	0,081
-177,242	120,020	0,088	0,078
-176,227	325,353	0,051	0,070
-175,212	491,831	0,023	0,038
-174,198	275,407	0,096	-0,121
-173,183	800,000	0,052	0,109
-172,169	-129,353	-0,054	0,005
-171,154	273,253	-0,028	-0,035
-170,139	800,000	-0,047	0,117
-169,125	-200,000	0,006	-0,065
-168,110	618,843	-0,042	0,076
-167,096	-200,000	0,003	-0,057
-166,081	800,000	0,034	-0,101
-165,066	-200,000	-0,018	-0,148
-164,052	-200,000	0,052	-0,000
-163,037	521,547	-0,016	-0,027
-162,023	-77,073	0,037	-0,009
-161,008	800,000	0,052	0,148
-159,993	200,602	0,061	0,067
-158,979	-200,000	-0,001	-0,095
-157,964	-200,000	-0,000	-0,037
-156,950	800,000	-0,066	-0,131
-155,935	-54,381	-0,152	-0,049
-154,920	800,000	-0,018	0,050
-153,906	129,170	-0,057	0,052
-152,891	280,880	0,025	0,032
-151,877	-76,708	-0,053	0,013
-150,862	12,679	0,057	-0,031
-149,847	84,732	-0,067	-0,052
-148,833	-110,874	-0,123	-0,018
-147,818	12,061	-0,149	-0,081
-146,804	339,697	-0,038	0,053
-145,789	-200,000	0,005	0,071
-144,775	-168,931	-0,142	0,004
-143,760	800,000	-0,041	-0,083
-142,745	-28,342	-0,017	0,007
-141,731	283,802	0,093	0,119
-140,716	249,266	-0,055	0,067
-139,702	426,455	-0,081	0,124
-138,687	274,399	-0,040	0,051
-137,672	-200,000	0,013	0,113
-136,658	-200,000	-0,007	0,070
-135,643	-200,000	0,032	0,104
-134,629	-12,106	-0,046	0,021
-133,614	-200,000	-0,002	-0,075
-132,599	800,000	0,044	0,105
-131,585	30,883	0,103	0,063
-130,570	270,788	-0,054	0,067
-129,556	-40,728	-0,108	0,039
-128,541	-10,930	-0,030	-0,014
-127,526	-8,085	0,046	0,022
-126,512	68,332	-0,100	0,073
-125,497	-200,000	-0,029	0,122
-124,483	4,705	0,082	0,043
-123,468	-140,009	-0,188	-0,014
-122,453	-46,758	-0,053	0,018
-121,439	18,069	0,092	0,052
-120,424	-200,000	0,002	0,102
-119,410	409,598	0,018	-0,027
-118,395	462,503	0,097	0,154
-117,380	800,000	0,042	0,106
-116,366	39,201	-0,040	0,026
-115,351	-200,000	0,007	-0,098
-114,337	-96,994	-0,177	-0,033
-113,322	800,000	0,044	-0,121
-112,307	-108,124	0,149	-0,023
-111,293	-200,000	-0,006	-0,030
-110,278	33,859	0,152	0,093
-109,264	177,925	0,146	0,151
-108,249	-125,008	-0,035	0,004
-107,234	76,258	0,128	0,096
-106,220	52,394	-0,087	0,059
-105,205	-99,662	-0,152	0,027
-104,191	-200,000	-0,013	0,073
-103,176	-167,778	0,137	0,004
-102,162	-8,637	0,060	-0,029
-101,147	57,158	-0,022	-0,015
-100,132	-45,118	-0,105	-0,037
-99,118	-32,250	-0,085	-0,033
-98,103	-200,000	0,011	-0,252
-97,089	-67,033	-0,101	-0,028
-96,074	-200,000	0,007	0,134
-95,059	-200,000	0,022	-0,082
-94,045	-200,000	-0,017	-0,057
-93,030	-200,000	0,013	0,085
-92,016	-29,956	-0,052	0,021
-91,001	246,064	0,054	0,065
-89,986	-65,408	0,087	-0,025
-88,972	85,183	0,081	-0,063
-87,957	351,090	-0,025	-0,036
-86,943	-200,000	-0,022	-0,095
-85,928	-45,573	-0,070	-0,025
-84,913	-72,870	-0,111	-0,029
-83,899	-200,000	-0,025	0,093
-82,884	91,999	0,014	-0,011
-81,870	22,610	0,053	0,031
-80,855	113,363	-0,049	-0,042
-79,840	239,748	-0,088	-0,104
-78,826	-76,121	-0,026	0,006
-77,811	800,000	-0,061	-0,135
-76,797	639,239	0,085	-0,155
-75,782	59,742	0,077	-0,054
-74,767	-43,347	0,107	-0,038
-73,753	136,291	0,060	-0,056
-72,738	-82,687	-0,113	0,026
-71,724	800,000	0,073	0,166
-70,709	-200,000	0,017	-0,103
-69,694	-200,000	0,071	-0,230
-68,680	384,755	-0,013	0,019
-67,665	-0,273	0,151	-0,076
-66,651	43,729	0,072	-0,047
-65,636	-46,752	0,136	-0,047
-64,622	-200,000	-0,007	-0,137
-63,607	107,208	-0,048	-0,041
-62,592	1,198	-0,088	-0,045
-61,578	-200,000	0,006	-0,044
-60,563	43,710	0,142	-0,092
-59,549	214,079	-0,043	-0,049
-58,534	50,042	-2,259	-1,507
-57,519	-200,000	0,119	-0,574
-56,505	-200,000	-1,416	-5,312
-55,490	208,286	0,920	1,019
-54,476	800,000	5,414	11,907
-53,461	-200,000	19,065	326,927
-52,446	-200,000	740,895	2316,562
-51,432	549,833	1650,432	2811,923
-50,417	75,035	1677,513	1249,787
-49,403	19,352	1600,210	907,396
-48,388	13,970	1554,402	853,638
-47,373	17,989	1546,114	869,674
-46,359	16,238	1535,556	854,788
-45,344	12,463	1531,107	833,064
-44,330	12,400	1529,131	831,637
-43,315	12,403	1527,224	830,585
-42,300	12,234	1526,030	829,043
-41,286	12,277	1524,699	828,505
-40,271	12,307	1523,056	827,731
-39,257	12,320	1521,244	826,781
-38,242	12,336	1519,983	826,140
-37,227	12,326	1518,838	825,438
-36,213	12,303	1517,554	824,589
-35,198	12,317	1516,006	823,785
-34,184	12,380	1514,823	823,430
-33,169	12,377	1513,231	822,512
-32,154	12,375	1511,910	821,753
-31,140	12,388	1510,622	821,086
-30,125	12,414	1509,024	820,318
-29,111	12,384	1508,056	819,605
-28,096	12,380	1506,994	818,979
-27,082	12,358	1505,999	818,296
-26,067	12,381	1504,650	817,643
-25,052	12,359	1503,360	816,799
-24,038	12,350	1502,284	816,138
-23,023	12,323	1501,480	815,535
-22,009	12,360	1500,271	815,028
-20,994	12,384	1499,318	814,600
-19,979	12,318	1498,367	813,719
-18,965	12,375	1497,106	813,286
-17,950	12,316	1496,415	812,585
-16,936	12,304	1495,230	811,850
-15,921	12,275	1494,022	811,019
-14,906	12,180	1493,169	810,051
-13,892	12,220	1492,064	809,619
-12,877	12,184	1491,035	808,849
-11,863	12,201	1489,743	808,199
-10,848	12,244	1489,138	808,052
-9,833	12,302	1488,225	807,812
-8,819	12,326	1487,018	807,245
-7,804	12,232	1485,954	806,168
-6,790	12,229	1485,375	805,809
-5,775	12,254	1484,517	805,434
-4,760	12,289	1483,547	805,052
-3,746	12,238	1482,509	804,202
-2,731	12,131	1481,435	803,061
-1,717	12,043	1480,328	801,996
-0,702	12,090	1479,509	801,754
0,313	11,862	1478,411	801,246
1,327	15,681	1475,504	818,332
2,342	25,207	1240,673	727,065
3,356	21,809	698,339	401,396
4,371	-7,369	468,007	223,372
5,386	-10,842	439,835	204,753
6,400	-12,112	430,722	198,644
7,415	-12,125	427,028	196,903
8,429	-12,886	424,690	194,717
9,444	-12,948	423,387	194,014
10,459	-13,208	422,194	193,078
11,473	-13,266	421,095	192,476
12,488	-13,577	420,073	191,550
13,502	-13,719	419,103	190,891
14,517	-13,928	418,085	190,115
15,531	-14,154	417,501	189,513
16,546	-14,177	416,716	189,107
17,561	-14,219	416,189	188,793
18,575	-14,301	415,533	188,364
19,590	-14,307	414,962	188,080
20,604	-14,260	414,477	187,908
21,619	-14,322	413,940	187,562
22,634	-14,293	413,448	187,362
23,648	-14,279	412,891	187,113
24,663	-14,432	412,545	186,726
25,677	-14,379	412,072	186,569
26,692	-14,342	411,508	186,349
27,707	-14,365	411,228	186,173
28,721	-14,374	410,521	185,824
29,736	-14,408	410,306	185,663
30,750	-14,421	409,680	185,346
31,765	-14,509	409,370	185,067
32,780	-14,425	408,918	184,962
33,794	-14,515	408,684	184,716
34,809	-14,480	408,279	184,564
35,823	-14,577	407,976	184,278
36,838	-14,463	407,367	184,143
37,853	-14,681	407,082	183,698
38,867	-14,582	406,682	183,636
39,882	-14,584	406,224	183,411
40,896	-14,544	405,931	183,318
41,911	-14,674	405,439	182,902
42,926	-14,732	405,069	182,638
43,940	-14,660	404,555	182,488
44,955	-14,683	404,411	182,376
45,969	-14,723	403,850	182,052
46,984	-14,804	403,394	181,721
47,999	-15,316	403,101	180,877
49,013	-15,199	402,608	180,798
50,028	-15,205	402,142	180,565
51,042	-15,326	401,787	180,226
52,057	-15,373	401,440	179,991
53,071	-15,278	401,157	179,975
54,086	-15,183	400,938	179,990
55,101	-15,167	400,719	179,897
56,115	-14,911	400,506	180,130
57,130	-14,311	400,354	180,854
58,144	-14,101	400,211	181,056
59,159	-13,898	399,769	181,113
60,174	-14,146	399,521	180,651
61,188	-14,072	399,139	180,562
62,203	-14,286	398,726	180,072
63,217	-14,325	398,305	179,814
64,232	-14,224	397,919	179,759
65,247	-14,080	397,807	179,885
66,261	-14,127	397,304	179,579
67,276	-14,553	396,755	178,746
68,290	-14,810	396,224	178,149
69,305	-14,757	395,879	178,048
70,320	-14,769	395,394	177,798
71,334	-14,581	395,419	178,044
72,349	-14,221	395,367	178,482
73,363	-13,999	394,915	178,557
74,378	-14,046	394,575	178,325
75,393	-14,183	394,240	177,977
76,407	-14,242	393,919	177,737
77,422	-14,453	393,587	177,293
78,436	-14,288	393,202	177,321
79,451	-14,378	393,011	177,101
80,466	-14,409	392,418	176,777
81,480	-14,599	392,084	176,361
82,495	-14,772	391,631	175,913
83,509	-14,676	391,556	175,990
84,524	-14,674	390,972	175,715
85,539	-14,875	390,587	175,263
86,553	-14,768	390,273	175,246
87,568	-14,661	390,072	175,281
88,582	-14,521	389,820	175,335
89,597	-14,690	389,463	174,937
90,611	-14,502	389,340	175,112
91,626	-14,337	389,159	175,231
92,641	-14,326	388,801	175,068
93,655	-14,587	388,370	174,519
94,670	-14,522	387,952	174,399
95,684	-14,443	387,716	174,381
96,699	-14,523	387,463	174,147
97,714	-14,481	387,005	173,981
98,728	-14,754	386,663	173,457
99,743	-14,786	386,480	173,319
100,757	-14,875	385,951	172,950
101,772	-14,682	385,732	173,087
102,787	-14,634	385,611	173,080
103,801	-14,581	385,235	172,964
104,816	-14,434	384,978	173,022
105,830	-14,394	384,938	173,039
106,845	-14,261	384,571	173,031
107,860	-14,314	384,278	172,816
108,874	-14,272	383,898	172,684
109,889	-14,308	383,482	172,435
110,903	-14,475	383,275	172,112
111,918	-14,415	382,895	172,003
112,933	-14,264	382,541	172,022
113,947	-14,251	382,480	171,996
114,962	-14,229	382,155	171,863
115,976	-14,466	381,902	171,431
116,991	-14,321	381,459	171,402
118,006	-14,364	381,421	171,313
119,020	-14,341	380,999	171,139
120,035	-14,363	381,018	171,104
121,049	-14,245	380,503	171,008
122,064	-14,151	380,282	171,013
123,079	-14,318	379,942	170,632
124,093	-14,415	379,684	170,378
125,108	-14,563	378,970	169,855
126,122	-14,934	378,675	169,237
127,137	-15,099	378,495	168,933
128,151	-14,884	378,278	169,093
129,166	-14,692	377,851	169,129
130,181	-14,689	377,589	169,001
131,195	-14,733	377,344	168,821
132,210	-14,470	377,127	169,040
133,224	-14,343	376,911	169,089
134,239	-14,258	376,615	169,048
135,254	-14,295	376,466	168,919
136,268	-14,485	376,036	168,472
137,283	-14,696	375,536	167,968
138,297	-14,897	375,153	167,530
139,312	-14,839	374,825	167,441
140,327	-14,520	374,964	167,888
141,341	-13,976	374,868	168,512
142,356	-13,846	374,641	168,557
143,370	-13,875	374,435	168,413
144,385	-13,778	374,063	168,352
145,400	-13,922	373,876	168,073
146,414	-13,933	373,595	167,918
147,429	-13,872	373,094	167,754
148,443	-14,003	372,917	167,496
149,458	-13,911	372,659	167,480
150,473	-13,851	372,290	167,374
151,487	-14,076	372,075	166,983
152,502	-14,030	371,795	166,899
153,516	-13,939	371,561	166,892
154,531	-13,969	371,333	166,737
155,546	-13,870	370,704	166,563
156,560	-14,104	370,643	166,231
157,575	-14,167	370,349	166,007
158,589	-14,014	370,098	166,068
159,604	-13,697	370,062	166,429
160,619	-13,742	369,762	166,223
161,633	-13,707	369,439	166,107
162,648	-13,786	369,163	165,871
163,662	-13,928	368,769	165,503
164,677	-13,948	368,587	165,382
165,692	-13,852	368,461	165,429
166,706	-13,765	368,226	165,416
167,721	-13,789	368,131	165,329
168,735	-13,566	367,905	165,486
169,750	-13,752	367,480	165,052
170,764	-13,797	367,408	164,950
171,779	-13,710	367,069	164,890
172,794	-13,627	366,835	164,871
173,808	-13,922	366,412	164,306
174,823	-14,509	365,768	163,288
175,837	-14,547	365,488	163,102
176,852	-14,026	365,639	163,789
177,867	-13,763	365,490	164,028
178,881	-13,806	365,315	163,883
179,896	-13,812	364,905	163,677
180,910	-13,738	364,758	163,686
181,925	-13,841	364,579	163,466
182,940	-13,559	364,146	163,599
183,954	-13,691	364,129	163,417
184,969	-13,659	363,752	163,272
185,983	-13,537	363,615	163,344
186,998	-13,578	363,257	163,118
188,013	-13,505	362,978	163,067
189,027	-13,573	362,720	162,855
190,042	-13,663	362,502	162,633
191,056	-13,615	362,273	162,574
192,071	-13,476	362,093	162,646
193,086	-13,416	361,865	162,601
194,100	-12,989	361,855	163,096
195,115	-12,427	361,589	163,636
196,129	-12,030	362,128	164,344
197,144	-7,868	363,792	170,111
198,159	-4,579	365,612	174,932
199,173	-1,226	367,060	179,680
200,188	-0,576	366,983	180,415
201,202	-0,692	366,584	180,062
202,217	-0,809	366,443	179,834
203,232	-0,593	366,228	179,975
204,246	-0,358	366,232	180,244
205,261	-0,172	365,896	180,288
206,275	-0,035	365,843	180,411
207,290	-0,137	365,524	180,115
208,304	-0,235	365,268	179,855
209,319	-0,044	364,804	179,839
210,334	-0,264	364,731	179,523
211,348	-0,316	364,323	179,243
212,363	-0,516	363,967	178,812
213,377	-0,529	363,859	178,728
214,392	-0,380	363,748	178,836
215,407	-0,260	363,453	178,818
216,421	-0,099	363,204	178,874
217,436	-0,231	362,945	178,572
218,450	-0,651	362,624	177,896
219,465	-0,493	362,275	177,897
220,480	-0,474	362,087	177,812
221,494	-0,496	361,842	177,650
222,509	-0,204	361,819	177,971
223,523	-0,169	361,465	177,823
224,538	-0,244	361,119	177,547
225,553	-0,403	360,954	177,260
226,567	-0,482	360,642	176,998
227,582	0,046	360,632	177,605
228,596	0,119	360,596	177,658
229,611	-0,139	359,984	177,035
230,626	-0,495	359,755	176,484
231,640	-0,457	359,482	176,380
232,655	-0,015	359,590	176,940
233,669	0,013	359,459	176,894
234,684	0,326	359,043	177,043
235,699	0,069	358,659	176,534
236,713	-0,518	358,510	175,753
237,728	-0,427	358,327	175,755
238,742	-0,399	357,763	175,495
239,757	-0,204	357,510	175,585
240,772	-0,564	357,260	175,023
241,786	-0,536	357,139	174,981
242,801	-0,123	357,095	175,429
243,815	0,229	356,957	175,759
244,830	-0,069	356,554	175,195
245,844	-0,448	356,144	174,534
246,859	-0,499	355,971	174,374
247,874	-0,043	355,824	174,820
248,888	-0,075	355,686	174,700
249,903	-0,202	355,308	174,349
250,917	-0,258	355,287	174,259
251,932	-0,368	354,743	173,848
252,947	-0,683	354,585	173,388
253,961	-0,550	354,320	173,398
254,976	-0,430	353,999	173,365
255,990	-0,157	354,079	173,706
257,005	-0,110	354,001	173,708
258,020	-0,080	353,664	173,561
259,034	-0,076	353,431	173,436
260,049	-0,113	353,279	173,303
261,063	-0,177	352,935	173,044
262,078	0,146	352,766	173,321
263,093	0,351	352,636	173,479
264,107	0,085	352,324	173,002
265,122	-0,052	352,206	172,770
266,136	0,116	351,827	172,762
267,151	0,043	351,572	172,537
268,166	-0,184	351,123	172,041
269,180	-0,536	350,885	171,503
270,195	-0,381	350,598	171,526
271,209	-0,294	350,478	171,551
272,224	-0,253	350,307	171,500
273,239	-0,218	350,253	171,498
274,253	-0,325	349,905	171,190
275,268	-0,587	349,519	170,685
276,282	-0,433	349,199	170,690
277,297	-0,373	349,066	170,679
278,312	-0,375	349,010	170,634
279,326	-0,316	348,824	170,596
280,341	-0,229	348,532	170,537
281,355	-0,065	348,482	170,684
282,370	-0,016	348,098	170,537
283,384	-0,210	347,658	170,085
284,399	-0,417	347,454	169,735
285,414	-0,538	347,267	169,490
286,428	-0,306	347,075	169,646
287,443	-0,144	347,107	169,830
288,457	0,033	346,809	169,870
289,472	-0,164	346,507	169,483
290,487	-0,520	346,059	168,845
291,501	-0,669	345,846	168,557
292,516	-0,378	345,482	168,694
293,530	-0,417	345,532	168,660
294,545	-0,206	345,260	168,750
295,560	-0,400	345,296	168,534
296,574	-0,270	345,006	168,524
297,589	-0,438	344,724	168,181
298,603	-0,203	344,517	168,331
299,618	-0,243	344,229	168,130
300,633	-0,051	344,197	168,316
301,647	0,062	344,128	168,394
302,662	0,058	343,926	168,276
303,676	0,105	343,623	168,165
304,691	0,137	343,233	167,996
305,706	0,012	343,052	167,751
306,720	-0,055	342,903	167,588
307,735	-0,260	342,399	167,097
308,749	-0,324	342,250	166,938
309,764	-0,060	342,244	167,216
310,779	0,025	341,930	167,143
311,793	-0,334	341,664	166,596
312,808	-0,117	341,391	166,691
313,822	-0,021	341,218	166,699
314,837	-0,203	340,975	166,363
315,852	-0,240	340,728	166,186
316,866	0,017	340,610	166,400
317,881	0,143	340,466	166,455
318,895	-0,065	340,249	166,102
319,910	-0,342	339,698	165,511
320,925	-0,606	339,432	165,074
321,939	-0,733	339,239	164,824
322,954	-0,527	339,019	164,932
323,968	-0,083	339,099	165,446
324,983	0,182	338,943	165,650
325,997	0,430	338,741	165,810
327,012	0,195	338,486	165,411
328,027	0,111	338,364	165,243
329,041	0,314	338,137	165,342
330,056	0,261	337,890	165,149
331,070	-0,294	337,616	164,388
332,085	-0,420	337,170	164,018
333,100	-0,169	336,937	164,166
334,114	0,037	336,959	164,388
335,129	0,307	336,755	164,571
336,143	0,120	336,458	164,206
337,158	-0,084	336,356	163,918
338,173	-0,075	336,084	163,780
339,187	-0,121	335,728	163,542
340,202	-0,288	335,561	163,262
341,216	-0,353	335,221	163,012
342,231	-0,066	335,013	163,210
343,246	-0,246	334,877	162,933
344,260	-0,211	334,742	162,891
345,275	0,044	334,499	163,035
346,289	0,064	334,297	162,945
347,304	-0,266	333,944	162,398
348,319	-0,230	333,906	162,404
349,333	0,397	333,737	162,990
350,348	0,359	333,612	162,873
351,362	0,453	333,459	162,886
352,377	0,380	333,303	162,716
353,392	0,163	332,957	162,297
354,406	0,202	332,696	162,198
355,421	197,115	1327,960	1390,714
356,435	161,386	1449,125	1390,642
