DTS Sentinel unit serial number:	SN410029Multiplexer serial number:	ORYXHardware model number:	OX2-SRSoftware version number:	ORYX F/W v4,00 Oryx Data Collector v3.7.2.0data status	okinstallation	B6 Nyhavnadifferential loss correction	single-endedforward channel	channel 2reverse channel	N/Adate	2023/12/10time	18:35:08forward acquisition time	300,00reverse acquisition time	0,00gamma	499,1914k internal	0,3123k external	0,3123temperature offset calibration	1,0000default loss term (dB/km)	0,3820temperature slope calibration	1,0000multiplexer offset coefficient	1,0000multiplexer slope coefficient	1,0000fibre end	0,00T internal ref (°C)	22,36T ext. ref 1 (°C)	5,97T ext. ref 2 (°C)	5,98length (m)	temperature (°C)	Stokes	anti-Stokes-744,400	-200,000	0,030	0,137
-743,385	-62,158	-0,174	0,054
-742,371	800,000	0,027	-0,069
-741,356	128,117	-0,176	0,167
-740,342	-172,180	0,167	0,004
-739,327	55,695	-0,243	0,175
-738,312	-200,000	0,001	-0,068
-737,298	-104,207	-0,263	0,045
-736,283	145,410	-0,092	-0,092
-735,269	-80,716	-0,101	0,025
-734,254	514,287	0,054	0,094
-733,239	-35,454	-0,363	-0,146
-732,225	800,000	-0,012	0,031
-731,210	217,285	0,094	0,111
-730,196	-81,057	-0,089	0,022
-729,181	800,000	-0,021	-0,064
-728,167	-33,854	-0,092	-0,038
-727,152	-172,440	-0,107	-0,002
-726,137	295,675	-0,036	-0,049
-725,123	121,152	-0,079	-0,073
-724,108	610,723	-0,105	-0,196
-723,094	-200,000	-0,026	-0,231
-722,079	800,000	0,069	-0,177
-721,064	800,000	0,024	0,060
-720,050	800,000	-0,014	-0,035
-719,035	-51,913	0,022	-0,007
-718,021	-40,178	-0,112	-0,043
-717,006	-131,089	0,014	0,001
-715,991	800,000	0,025	-0,081
-714,977	364,422	-0,050	-0,075
-713,962	-181,193	-0,192	-0,003
-712,948	-200,000	0,005	0,033
-711,933	190,388	-0,110	0,123
-710,918	56,260	0,028	-0,020
-709,904	-52,032	-0,055	0,019
-708,889	-200,000	0,034	-0,123
-707,875	-72,725	-0,077	0,021
-706,860	-200,000	-0,008	-0,126
-705,845	-45,391	0,035	0,013
-704,831	143,721	-0,096	0,095
-703,816	-145,674	-0,106	0,007
-702,802	-53,601	-0,110	-0,037
-701,787	-200,000	0,025	0,106
-700,772	-200,000	0,005	0,158
-699,758	-200,000	-0,011	0,122
-698,743	-160,553	-0,055	0,002
-697,729	-96,117	0,052	-0,010
-696,714	515,475	-0,092	0,161
-695,699	800,000	0,039	-0,085
-694,685	800,000	-0,061	-0,143
-693,670	-28,150	-0,062	-0,027
-692,656	450,402	-0,067	-0,110
-691,641	800,000	0,046	0,146
-690,627	54,529	0,139	0,100
-689,612	-50,092	-0,029	-0,010
-688,597	800,000	-0,024	0,063
-687,583	-200,000	0,019	-0,063
-686,568	374,546	-0,090	-0,136
-685,554	-200,000	0,012	-0,162
-684,539	-63,072	-0,085	-0,026
-683,524	-19,783	0,103	0,047
-682,510	-36,588	0,068	0,027
-681,495	63,051	-0,147	-0,110
-680,481	287,188	-0,025	-0,034
-679,466	-200,000	-0,010	0,101
-678,451	-78,644	-0,154	0,039
-677,437	-112,564	0,047	0,007
-676,422	-200,000	0,003	-0,029
-675,408	800,000	-0,027	0,058
-674,393	-180,522	-0,058	0,001
-673,378	-30,052	-0,127	-0,054
-672,364	-57,415	-0,146	0,047
-671,349	15,645	0,032	0,019
-670,335	68,480	0,084	-0,064
-669,320	800,000	0,014	0,041
-668,305	-1,174	0,036	-0,019
-667,291	179,248	-0,033	0,036
-666,276	327,639	-0,048	0,068
-665,262	77,966	-0,037	0,029
-664,247	-200,000	0,008	-0,080
-663,232	-79,167	0,143	-0,036
-662,218	800,000	-0,030	0,073
-661,203	344,624	0,054	0,079
-660,189	-42,885	0,128	0,048
-659,174	800,000	0,024	-0,055
-658,159	-47,965	-0,120	0,043
-657,145	280,873	-0,034	-0,045
-656,130	54,861	-0,040	-0,029
-655,116	-100,579	-0,051	0,009
-654,101	195,844	0,020	-0,023
-653,086	-200,000	0,018	0,106
-652,072	-164,374	-0,081	-0,003
-651,057	-200,000	-0,016	0,054
-650,043	-5,935	0,048	-0,024
-649,028	800,000	0,027	0,065
-648,014	61,418	0,110	0,081
-646,999	800,000	0,034	-0,082
-645,984	800,000	0,008	-0,025
-644,970	-100,834	-0,102	-0,018
-643,955	52,132	-0,124	-0,088
-642,941	-200,000	-0,015	-0,119
-641,926	-200,000	0,011	-0,075
-640,911	800,000	0,020	-0,051
-639,897	-90,888	0,130	0,028
-638,882	373,700	-0,042	0,064
-637,868	-200,000	0,012	-0,097
-636,853	191,133	-0,099	-0,111
-635,838	800,000	-0,041	-0,101
-634,824	154,911	-0,039	-0,040
-633,809	-141,485	-0,026	-0,002
-632,795	800,000	0,032	-0,088
-631,780	-136,801	0,182	-0,015
-630,765	800,000	-0,048	0,147
-629,751	-200,000	-0,034	-0,112
-628,736	-200,000	0,007	-0,045
-627,722	14,460	0,114	-0,066
-626,707	-19,697	-0,125	0,057
-625,692	800,000	-0,023	-0,074
-624,678	-200,000	-0,024	-0,114
-623,663	-113,601	-0,099	0,014
-622,649	800,000	-0,008	-0,024
-621,634	26,308	-0,074	-0,046
-620,619	-200,000	0,016	-0,066
-619,605	-160,542	0,119	0,005
-618,590	11,342	0,062	0,035
-617,576	232,490	-0,088	0,108
-616,561	492,183	0,041	-0,070
-615,546	90,185	-0,108	-0,090
-614,532	-200,000	-0,010	-0,046
-613,517	-28,833	-0,096	-0,041
-612,503	-18,868	-0,069	0,032
-611,488	800,000	-0,033	0,089
-610,474	740,968	-0,030	0,061
-609,459	343,967	-0,056	0,082
-608,444	12,432	0,067	0,038
-607,430	336,916	-0,051	-0,074
-606,415	88,022	-0,064	0,053
-605,401	63,151	0,110	0,081
-604,386	5,658	0,096	0,053
-603,371	570,506	0,007	-0,013
-602,357	-200,000	-0,013	0,055
-601,342	-103,916	-0,072	-0,012
-600,328	605,649	-0,063	-0,118
-599,313	30,614	0,025	0,016
-598,298	-13,596	-0,099	-0,047
-597,284	-99,244	0,132	-0,024
-596,269	508,558	0,016	-0,027
-595,255	-200,000	0,011	0,099
-594,240	99,805	0,108	0,093
-593,225	800,000	-0,007	0,017
-592,211	13,291	-0,100	-0,058
-591,196	-200,000	0,004	-0,023
-590,182	-48,199	0,027	-0,010
-589,167	126,582	-0,061	0,057
-588,152	-17,807	0,105	0,048
-587,138	174,185	0,114	0,122
-586,123	131,149	0,064	0,061
-585,109	-200,000	0,023	-0,120
-584,094	59,859	-0,095	0,070
-583,079	325,288	-0,044	-0,062
-582,065	23,502	-0,130	0,079
-581,050	-200,000	0,019	0,067
-580,036	483,386	-0,071	-0,119
-579,021	800,000	-0,009	0,026
-578,006	800,000	-0,026	-0,056
-576,992	123,408	-0,077	0,071
-575,977	397,072	0,073	0,114
-574,963	-101,691	0,030	-0,005
-573,948	-200,000	-0,027	-0,111
-572,934	-78,416	0,051	-0,013
-571,919	-17,509	-0,142	-0,066
-570,904	367,962	-0,039	-0,058
-569,890	415,741	-0,048	-0,076
-568,875	-200,000	0,005	0,065
-567,861	-200,000	0,013	0,061
-566,846	-17,771	0,178	-0,082
-565,831	-200,000	0,002	-0,016
-564,817	44,968	-0,066	0,045
-563,802	800,000	0,025	-0,078
-562,788	482,715	-0,071	-0,119
-561,773	-16,492	-0,064	-0,030
-560,758	31,211	-0,012	-0,007
-559,744	-71,063	0,075	-0,021
-558,729	5,854	-0,046	0,025
-557,715	0,104	-0,164	-0,086
-556,700	607,039	0,033	0,062
-555,685	-200,000	0,030	-0,108
-554,671	800,000	-0,013	-0,037
-553,656	-14,383	0,067	0,032
-552,642	-109,637	0,097	-0,015
-551,627	155,460	-0,052	0,053
-550,612	548,122	0,023	-0,040
-549,598	-9,284	-0,063	-0,031
-548,583	800,000	-0,037	0,081
-547,569	-200,000	-0,021	0,088
-546,554	286,767	-0,121	0,162
-545,539	524,398	0,023	0,041
-544,525	-118,642	0,093	0,012
-543,510	-200,000	-0,017	0,092
-542,496	-200,000	0,014	-0,106
-541,481	-7,292	-0,069	-0,035
-540,466	90,029	0,038	-0,031
-539,452	800,000	0,011	0,031
-538,437	-113,841	0,100	0,014
-537,423	73,730	0,029	-0,023
-536,408	534,694	-0,039	-0,068
-535,393	-200,000	-0,026	-0,124
-534,379	-5,682	-0,077	-0,039
-533,364	593,783	-0,027	-0,050
-532,350	-200,000	0,008	-0,125
-531,335	-200,000	-0,005	-0,104
-530,321	14,482	-0,114	0,066
-529,306	-120,957	0,055	-0,007
-528,291	15,820	0,028	-0,016
-527,277	251,576	-0,033	-0,041
-526,262	-129,021	-0,139	0,014
-525,248	-109,817	0,048	0,007
-524,233	-200,000	-0,004	0,028
-523,218	15,781	-0,104	-0,060
-522,204	616,329	-0,011	0,020
-521,189	176,073	0,119	0,127
-520,175	-200,000	0,024	-0,131
-519,160	-92,357	-0,169	-0,035
-518,145	-109,698	0,027	0,004
-517,131	-162,364	0,133	0,005
-516,116	-200,000	0,002	0,055
-515,102	800,000	-0,062	0,150
-514,087	418,269	-0,075	0,119
-513,072	-4,855	-0,024	-0,012
-512,058	225,037	0,067	-0,080
-511,043	-200,000	-0,010	-0,061
-510,029	63,060	0,070	-0,052
-509,014	97,727	0,075	-0,063
-507,999	-200,000	-0,015	0,135
-506,985	730,140	-0,041	0,082
-505,970	-63,039	0,098	-0,030
-504,956	-101,684	0,114	0,020
-503,941	477,342	-0,046	-0,078
-502,926	800,000	0,018	0,043
-501,912	-200,000	0,042	0,198
-500,897	800,000	0,037	0,081
-499,883	-141,241	-0,066	-0,005
-498,868	386,055	-0,072	-0,110
-497,853	-200,000	0,004	-0,076
-496,839	-200,000	0,019	0,129
-495,824	800,000	-0,019	-0,053
-494,810	132,332	0,050	-0,048
-493,795	146,972	-0,094	0,094
-492,781	-200,000	-0,013	-0,046
-491,766	-151,428	0,084	0,005
-490,751	-48,408	-0,023	0,008
-489,737	-200,000	0,003	-0,038
-488,722	-47,877	0,098	0,035
-487,708	-200,000	0,003	0,034
-486,693	85,735	-0,042	-0,034
-485,678	-200,000	0,004	0,187
-484,664	-200,000	0,006	-0,101
-483,649	-53,662	0,111	-0,037
-482,635	-200,000	0,001	0,072
-481,620	219,022	0,100	-0,119
-480,605	-46,067	0,058	-0,021
-479,591	-200,000	-0,033	0,187
-478,576	-200,000	0,004	-0,093
-477,562	114,559	-0,094	-0,084
-476,547	-200,000	-0,005	-0,034
-475,532	208,415	-0,096	0,111
-474,518	-162,899	0,103	-0,004
-473,503	800,000	0,017	0,036
-472,489	-200,000	0,001	0,075
-471,474	129,754	0,086	0,081
-470,459	52,722	-0,086	0,061
-469,445	33,704	0,074	-0,047
-468,430	-55,384	-0,065	0,022
-467,416	177,033	-0,053	0,057
-466,401	-167,761	0,067	-0,002
-465,386	800,000	0,028	-0,080
-464,372	800,000	-0,015	0,046
-463,357	-95,582	0,066	0,013
-462,343	265,896	-0,016	-0,020
-461,328	-96,979	-0,037	0,007
-460,313	266,110	-0,021	-0,028
-459,299	-70,347	-0,089	0,025
-458,284	-17,325	0,140	0,065
-457,270	171,210	-0,093	-0,098
-456,255	-200,000	0,006	-0,051
-455,241	800,000	0,044	-0,126
-454,226	-200,000	-0,022	0,117
-453,211	800,000	0,038	-0,077
-452,197	118,604	0,090	-0,082
-451,182	-86,810	-0,064	-0,014
-450,168	-163,489	-0,049	-0,002
-449,153	-53,479	-0,024	0,008
-448,138	-200,000	-0,001	0,117
-447,124	-56,515	-0,104	0,034
-446,109	-200,000	-0,018	0,198
-445,095	302,678	0,061	0,083
-444,080	-85,740	0,036	-0,008
-443,065	18,695	0,092	-0,054
-442,051	-53,684	-0,059	-0,020
-441,036	-15,780	0,072	-0,034
-440,022	-89,284	0,035	-0,008
-439,007	-147,134	0,174	-0,011
-437,992	-200,000	-0,000	0,178
-436,978	341,920	-0,034	0,050
-435,963	-39,449	0,052	-0,020
-434,949	293,896	-0,042	-0,057
-433,934	125,333	-0,085	0,079
-432,919	-200,000	-0,004	-0,045
-431,905	-200,000	0,013	0,053
-430,890	-52,395	0,063	-0,021
-429,876	800,000	0,045	0,130
-428,861	-93,739	0,035	0,007
-427,846	-200,000	0,009	-0,119
-426,832	-200,000	0,025	0,122
-425,817	-200,000	-0,050	-0,164
-424,803	263,525	-0,016	-0,020
-423,788	654,424	-0,038	0,071
-422,773	80,483	0,116	-0,092
-421,759	68,781	0,051	0,038
-420,744	63,533	0,064	-0,048
-419,730	-102,061	-0,024	-0,004
-418,715	336,156	0,040	0,058
-417,701	503,033	-0,067	0,114
-416,686	-133,134	0,060	0,006
-415,671	-9,417	0,143	-0,070
-414,657	800,000	0,034	-0,071
-413,642	-200,000	-0,009	0,177
-412,628	-200,000	0,021	-0,094
-411,613	163,335	0,072	-0,075
-410,598	-84,498	0,104	0,024
-409,584	-200,000	0,001	-0,074
-408,569	-53,924	0,048	0,016
-407,555	-200,000	-0,019	-0,088
-406,540	-200,000	-0,002	-0,058
-405,525	181,363	-0,051	0,055
-404,511	800,000	0,012	-0,033
-403,496	3,998	0,106	-0,057
-402,482	-15,138	0,071	-0,033
-401,467	2,535	0,154	0,082
-400,452	-200,000	0,013	0,061
-399,438	519,248	-0,064	0,111
-398,423	30,683	-0,109	-0,068
-397,409	-1,171	0,031	-0,016
-396,394	8,203	-0,066	0,036
-395,379	-200,000	-0,019	-0,090
-394,365	800,000	-0,012	-0,035
-393,350	48,929	0,093	0,064
-392,336	-200,000	-0,007	0,030
-391,321	-1,380	-0,114	-0,059
-390,306	429,577	-0,074	-0,119
-389,292	15,538	-0,056	-0,032
-388,277	-157,558	-0,132	-0,006
-387,263	122,023	0,055	0,050
-386,248	800,000	0,076	0,189
-385,233	-138,633	0,056	0,004
-384,219	201,748	0,068	-0,077
-383,204	-85,011	0,095	0,022
-382,190	376,246	-0,030	-0,045
-381,175	133,202	0,046	-0,044
-380,160	-200,000	-0,002	0,015
-379,146	438,006	-0,050	0,080
-378,131	237,330	0,053	0,064
-377,117	331,346	0,034	0,048
-376,102	244,977	-0,041	-0,051
-375,088	-16,742	-0,092	0,043
-374,073	324,172	0,041	0,058
-373,058	-200,000	-0,025	-0,092
-372,044	459,498	0,051	0,084
-371,029	147,807	-0,031	0,031
-370,015	800,000	0,064	-0,137
-369,000	-200,000	0,008	0,060
-367,985	72,818	-0,006	0,005
-366,971	-169,524	-0,088	0,002
-365,956	-200,000	-0,016	0,175
-364,942	800,000	-0,019	-0,052
-363,927	-200,000	0,007	0,047
-362,912	231,641	-0,027	0,033
-361,898	-55,426	0,044	0,014
-360,883	114,785	-0,098	-0,088
-359,869	118,750	0,045	-0,040
-358,854	-47,522	0,097	0,034
-357,839	-200,000	-0,018	0,072
-356,825	-141,258	0,098	-0,007
-355,810	563,554	-0,022	-0,040
-354,796	-200,000	0,016	0,114
-353,781	-200,000	-0,028	0,097
-352,766	16,309	0,049	0,028
-351,752	800,000	0,026	0,065
-350,737	44,731	-0,048	-0,033
-349,723	307,681	-0,067	0,092
-348,708	800,000	0,047	-0,097
-347,693	-110,049	-0,089	-0,013
-346,679	136,265	0,024	-0,023
-345,664	203,298	-0,007	0,008
-344,650	555,921	0,018	0,031
-343,635	-92,757	-0,050	0,010
-342,620	409,556	0,080	0,125
-341,606	-154,999	0,071	-0,003
-340,591	202,966	-0,032	0,037
-339,577	-200,000	-0,012	-0,102
-338,562	800,000	0,076	-0,180
-337,548	-173,618	-0,085	-0,002
-336,533	-131,509	-0,142	0,014
-335,518	136,548	0,039	0,037
-334,504	800,000	0,068	0,158
-333,489	152,261	-0,129	0,129
-332,475	-200,000	-0,016	-0,084
-331,460	-60,293	-0,066	-0,020
-330,445	569,901	0,009	0,016
-329,431	68,259	-0,024	-0,018
-328,416	266,396	0,077	0,098
-327,402	166,542	0,034	0,036
-326,387	-144,297	-0,100	0,007
-325,372	800,000	0,043	0,113
-324,358	-171,900	-0,178	-0,004
-323,343	-123,006	-0,046	-0,005
-322,329	-48,309	0,029	-0,010
-321,314	-200,000	0,012	0,047
-320,299	197,349	-0,039	0,044
-319,285	-43,760	-0,083	-0,030
-318,270	-200,000	0,003	-0,130
-317,256	389,158	0,042	0,065
-316,241	800,000	-0,042	-0,088
-315,226	231,979	-0,027	-0,032
-314,212	734,425	-0,018	0,035
-313,197	-115,377	0,088	0,012
-312,183	-151,196	0,103	0,006
-311,168	-76,626	-0,078	-0,020
-310,153	245,507	0,098	0,122
-309,139	564,663	0,051	-0,091
-308,124	106,593	0,020	0,017
-307,110	-200,000	-0,020	0,139
-306,095	-200,000	-0,005	0,083
-305,080	-86,507	0,043	0,010
-304,066	-32,192	-0,139	0,057
-303,051	-126,328	-0,062	-0,007
-302,037	800,000	0,065	-0,168
-301,022	80,784	-0,020	0,016
-300,008	-20,755	0,121	0,054
-298,993	434,381	0,013	0,021
-297,978	-200,000	0,016	0,084
-296,964	800,000	0,052	-0,136
-295,949	-143,689	-0,059	0,004
-294,935	-78,569	0,082	0,020
-293,920	19,639	0,009	-0,005
-292,905	800,000	-0,050	0,106
-291,891	-43,546	0,117	0,043
-290,876	119,321	-0,056	0,051
-289,862	717,491	0,031	-0,061
-288,847	166,251	-0,057	-0,059
-287,832	-154,208	-0,043	0,002
-286,818	800,000	0,025	0,081
-285,803	-200,000	-0,013	-0,073
-284,789	-36,193	0,139	0,055
-283,774	4,631	-0,070	0,038
-282,759	156,293	-0,041	-0,041
-281,745	310,466	-0,048	-0,065
-280,730	-155,683	-0,133	-0,006
-279,716	-200,000	0,017	-0,084
-278,701	-200,000	0,020	0,096
-277,686	148,438	0,037	0,036
-276,672	-61,159	0,020	0,006
-275,657	-52,947	0,089	-0,030
-274,643	800,000	-0,016	-0,042
-273,628	-200,000	0,009	-0,061
-272,613	764,578	-0,027	-0,053
-271,599	-137,090	-0,002	-0,000
-270,584	63,370	0,106	-0,078
-269,570	800,000	0,019	0,044
-268,555	-74,370	-0,042	-0,011
-267,540	-117,392	0,031	0,004
-266,526	-200,000	0,008	-0,085
-265,511	800,000	0,014	-0,030
-264,497	-200,000	0,002	0,143
-263,482	-200,000	0,008	0,159
-262,467	165,828	0,077	0,080
-261,453	142,709	-0,108	0,105
-260,438	800,000	-0,050	-0,147
-259,424	0,965	-0,077	-0,040
-258,409	800,000	0,048	-0,144
-257,395	8,524	-0,147	-0,081
-256,380	-164,797	0,111	0,004
-255,365	-200,000	0,001	0,019
-254,351	-97,892	-0,035	-0,007
-253,336	-1,265	-0,092	-0,047
-252,322	691,126	-0,032	0,062
-251,307	-14,147	-0,106	0,050
-250,292	245,888	0,058	-0,072
-249,278	-8,212	0,076	0,038
-248,263	-88,341	-0,048	0,010
-247,249	-114,158	0,038	-0,005
-246,234	-200,000	-0,010	0,055
-245,219	412,362	-0,077	-0,120
-244,205	-200,000	-0,008	0,039
-243,190	112,138	0,073	-0,064
-242,176	-29,272	0,090	-0,038
-241,161	33,599	0,061	0,038
-240,146	65,103	0,092	-0,068
-239,132	-70,954	-0,018	0,005
-238,117	-133,768	0,133	0,012
-237,103	-4,898	-0,009	-0,005
-236,088	-200,000	0,094	-0,000
-235,073	-191,059	-0,078	0,001
-234,059	800,000	0,029	-0,091
-233,044	-200,000	-0,004	-0,075
-232,030	306,803	-0,028	-0,038
-231,015	-200,000	-0,006	-0,081
-230,000	460,843	0,052	-0,086
-228,986	-153,822	-0,120	-0,006
-227,971	-123,467	-0,043	0,005
-226,957	-97,000	0,099	-0,019
-225,942	32,934	0,099	0,063
-224,927	547,688	-0,050	0,087
-223,913	-200,000	-0,010	-0,201
-222,898	276,423	-0,029	0,038
-221,884	354,832	0,100	0,146
-220,869	326,124	-0,037	-0,052
-219,855	-67,653	0,076	-0,021
-218,840	7,285	0,077	-0,042
-217,825	283,884	-0,112	0,148
-216,811	413,439	0,055	-0,085
-215,796	154,621	-0,036	0,036
-214,782	800,000	-0,053	-0,115
-213,767	800,000	0,023	-0,048
-212,752	800,000	0,028	0,074
-211,738	4,977	-0,062	-0,033
-210,723	187,788	-0,062	-0,068
-209,709	-35,295	-0,161	0,063
-208,694	-200,000	-0,032	-0,127
-207,679	-166,073	-0,124	0,004
-206,665	-200,000	0,017	0,107
-205,650	797,002	-0,088	0,177
-204,636	800,000	0,036	0,076
-203,621	-67,617	-0,036	-0,010
-202,606	-176,123	0,203	0,004
-201,592	-84,842	-0,131	-0,030
-200,577	-85,840	0,089	0,020
-199,563	-200,000	0,002	-0,079
-198,548	-200,000	-0,005	0,022
-197,533	148,794	0,060	-0,060
-196,519	313,421	-0,074	-0,102
-195,504	-175,813	0,068	-0,001
-194,490	-67,885	-0,055	0,016
-193,475	63,447	-0,088	-0,064
-192,460	97,288	0,113	0,095
-191,446	-67,462	-0,065	0,018
-190,431	-76,734	0,239	0,061
-189,417	-200,000	-0,007	0,139
-188,402	-19,993	0,011	-0,005
-187,387	-94,956	-0,200	-0,039
-186,373	-67,892	-0,148	-0,042
-185,358	800,000	-0,072	-0,160
-184,344	800,000	0,048	-0,102
-183,329	-51,566	0,096	-0,032
-182,315	172,444	-0,042	-0,044
-181,300	311,969	-0,035	-0,048
-180,285	146,352	-0,076	-0,074
-179,271	-200,000	-0,013	0,125
-178,256	377,500	-0,033	0,050
-177,242	-70,453	-0,057	0,016
-176,227	343,093	0,071	0,102
-175,212	-200,000	0,043	0,155
-174,198	-106,392	-0,192	-0,031
-173,183	547,393	0,033	-0,058
-172,169	80,914	0,053	0,041
-171,154	523,421	0,038	-0,066
-170,139	-139,853	0,063	0,005
-169,125	-200,000	-0,008	-0,058
-168,110	366,555	-0,041	0,061
-167,096	595,272	-0,047	0,084
-166,081	-52,752	0,134	0,045
-165,066	-47,074	-0,085	0,030
-164,052	-57,157	-0,035	0,011
-163,037	-58,682	-0,135	-0,042
-162,023	-200,000	0,022	-0,134
-161,008	800,000	-0,031	0,071
-159,993	-131,860	0,130	0,012
-158,979	-20,532	0,094	-0,042
-157,964	-200,000	-0,013	-0,078
-156,950	-78,932	-0,063	-0,015
-155,935	225,630	0,073	0,086
-154,920	-95,651	0,019	0,004
-153,906	-70,939	0,040	0,011
-152,891	571,127	-0,042	-0,074
-151,877	-77,322	-0,149	0,038
-150,862	-200,000	-0,005	0,027
-149,847	56,162	-0,101	0,071
-148,833	455,803	-0,036	-0,058
-147,818	529,664	0,053	-0,092
-146,804	165,461	0,074	0,076
-145,789	147,238	-0,054	0,053
-144,775	800,000	0,056	-0,118
-143,760	-200,000	0,011	-0,115
-142,745	-200,000	0,027	-0,238
-141,731	295,649	-0,045	0,061
-140,716	-200,000	-0,012	-0,087
-139,702	-200,000	0,008	0,060
-138,687	-103,613	0,100	0,017
-137,672	-200,000	0,009	0,112
-136,658	-200,000	0,013	0,099
-135,643	115,755	-0,061	-0,055
-134,629	127,054	-0,007	0,006
-133,614	800,000	-0,016	0,033
-132,599	-163,977	0,101	-0,003
-131,585	-177,971	0,004	0,000
-130,570	545,302	-0,033	-0,058
-129,556	-200,000	0,023	0,123
-128,541	-200,000	-0,012	-0,124
-127,526	41,512	-0,023	0,015
-126,512	-200,000	0,005	-0,034
-125,497	-175,993	0,048	0,001
-124,483	12,174	0,122	0,068
-123,468	-200,000	0,006	0,082
-122,453	800,000	0,038	-0,097
-121,439	800,000	0,030	-0,063
-120,424	-101,434	-0,050	0,009
-119,410	21,314	0,151	-0,089
-118,395	800,000	0,036	0,083
-117,380	-25,954	0,101	0,043
-116,366	-32,046	0,198	0,080
-115,351	27,356	0,021	0,013
-114,337	394,484	-0,028	0,043
-113,322	-68,621	-0,040	-0,011
-112,307	800,000	-0,023	0,069
-111,293	145,205	0,080	-0,078
-110,278	-107,197	0,174	0,028
-109,264	-2,039	-0,045	0,023
-108,249	-200,000	-0,022	0,155
-107,234	-78,398	-0,193	0,048
-106,220	-61,153	0,077	0,023
-105,205	-200,000	0,005	0,023
-104,191	152,757	-0,035	-0,034
-103,176	108,923	-0,118	0,102
-102,162	-200,000	-0,002	0,054
-101,147	131,110	-0,056	0,053
-100,132	614,586	-0,086	-0,158
-99,118	-23,044	-0,042	-0,018
-98,103	-79,852	0,055	0,013
-97,089	-76,110	0,138	0,035
-96,074	28,040	0,074	0,045
-95,059	800,000	0,016	0,042
-94,045	109,087	-0,077	0,067
-93,030	-200,000	-0,006	-0,029
-92,016	-86,637	-0,075	-0,017
-91,001	174,938	-0,072	0,076
-89,986	24,446	-0,072	-0,043
-88,972	-90,677	-0,037	0,008
-87,957	-200,000	0,003	-0,155
-86,943	800,000	-0,043	-0,134
-85,928	-200,000	0,009	-0,033
-84,913	-200,000	-0,000	0,092
-83,899	-200,000	0,008	0,035
-82,884	310,816	-0,074	0,102
-81,870	-200,000	0,004	0,086
-80,855	68,239	0,058	0,043
-79,840	-200,000	-0,013	-0,058
-78,826	-80,253	0,132	-0,032
-77,811	185,222	0,023	-0,025
-76,797	800,000	0,012	-0,033
-75,782	-10,982	0,034	0,016
-74,767	95,507	0,116	0,096
-73,753	330,341	-0,095	-0,133
-72,738	436,952	0,025	0,040
-71,724	-200,000	0,010	-0,035
-70,709	-75,327	-0,009	0,002
-69,694	83,176	-0,129	0,102
-68,680	171,090	-0,093	0,097
-67,665	361,803	-0,025	0,036
-66,651	-200,000	-0,010	0,106
-65,636	163,033	0,052	0,053
-64,622	-59,495	-0,072	0,022
-63,607	-99,831	-0,102	-0,018
-62,592	-52,423	0,124	0,041
-61,578	213,882	-0,013	0,015
-60,563	361,277	0,049	-0,071
-59,549	233,078	-0,116	0,138
-58,534	-119,121	-1,358	-0,170
-57,519	559,959	-0,811	-1,427
-56,505	-200,000	-1,064	-4,443
-55,490	-6,580	0,631	-0,311
-54,476	800,000	4,959	11,998
-53,461	-200,000	13,570	253,050
-52,446	-200,000	690,132	2258,514
-51,432	590,570	1622,335	2915,954
-50,417	119,165	1634,971	1467,332
-49,403	73,170	1288,941	976,880
-48,388	38,112	1024,135	659,843
-47,373	24,320	981,839	587,238
-46,359	23,573	971,406	578,525
-45,344	22,577	967,203	572,745
-44,330	22,523	965,797	571,715
-43,315	22,340	964,466	570,307
-42,300	22,402	963,394	569,852
-41,286	22,409	962,383	569,254
-40,271	22,371	961,572	568,629
-39,257	22,377	960,405	567,937
-38,242	22,364	959,507	567,338
-37,227	22,415	958,591	566,939
-36,213	22,327	957,869	566,205
-35,198	22,328	956,935	565,634
-34,184	22,386	956,420	565,497
-33,169	22,365	955,440	564,825
-32,154	22,443	954,425	564,454
-31,140	22,398	953,558	563,775
-30,125	22,427	952,858	563,431
-29,111	22,402	952,142	562,906
-28,096	22,404	951,380	562,438
-27,082	22,420	950,441	561,912
-26,067	22,432	950,002	561,670
-25,052	22,420	949,157	561,111
-24,038	22,406	948,467	560,634
-23,023	22,276	948,194	560,036
-22,009	22,461	947,152	559,990
-20,994	22,434	946,621	559,565
-19,979	22,423	946,014	559,150
-18,965	22,442	945,437	558,848
-17,950	22,454	944,670	558,411
-16,936	22,366	944,148	557,800
-15,921	22,336	943,436	557,261
-14,906	22,301	942,567	556,612
-13,892	22,320	942,057	556,352
-12,877	22,227	941,509	555,709
-11,863	22,257	940,734	555,325
-10,848	22,293	940,330	555,181
-9,833	22,337	939,890	555,036
-8,819	22,337	939,286	554,657
-7,804	22,307	938,521	554,090
-6,790	22,220	938,043	553,510
-5,775	22,280	937,271	553,223
-4,760	22,270	936,783	552,881
-3,746	22,293	936,031	552,489
-2,731	22,135	935,509	551,658
-1,717	22,159	934,618	551,186
-0,702	22,099	934,107	550,674
0,313	21,905	933,295	550,415
1,327	25,109	931,281	559,251
2,342	34,841	795,866	503,844
3,356	32,808	451,569	282,790
4,371	1,640	293,840	152,911
5,386	-2,796	274,815	138,799
6,400	-4,352	268,974	134,392
7,415	-4,722	266,483	132,795
8,429	-4,524	265,267	132,359
9,444	-4,594	264,580	131,941
10,459	-4,504	263,739	131,592
11,473	-4,758	263,359	131,159
12,488	-4,496	262,688	131,051
13,502	-4,836	262,233	130,505
14,517	-4,709	261,815	130,399
15,531	-4,740	261,390	130,149
16,546	-4,600	261,039	130,088
17,561	-4,656	260,673	129,844
18,575	-4,454	260,282	129,819
19,590	-4,999	260,152	129,254
20,604	-4,569	259,815	129,460
21,619	-4,615	259,354	129,177
22,634	-4,712	259,171	128,988
23,648	-4,537	258,664	128,881
24,663	-4,790	258,588	128,605
25,677	-4,701	258,331	128,545
26,692	-4,571	257,910	128,440
27,707	-4,666	257,793	128,286
28,721	-4,701	257,537	128,116
29,736	-4,787	257,087	127,805
30,750	-4,929	257,024	127,636
31,765	-4,698	256,747	127,692
32,780	-4,808	256,573	127,496
33,794	-4,769	256,260	127,364
34,809	-4,836	256,039	127,184
35,823	-4,843	255,751	127,023
36,838	-4,785	255,536	126,956
37,853	-4,657	255,222	126,901
38,867	-4,837	255,060	126,651
39,882	-4,933	254,976	126,514
40,896	-4,846	254,753	126,468
41,911	-4,677	254,596	126,527
42,926	-4,723	254,222	126,290
43,940	-4,827	253,897	126,026
44,955	-4,894	253,812	125,915
45,969	-5,087	253,556	125,607
46,984	-4,982	253,229	125,526
47,999	-5,386	252,967	125,033
49,013	-5,415	252,609	124,820
50,028	-5,549	252,460	124,619
51,042	-5,666	252,267	124,410
52,057	-5,766	251,974	124,168
53,071	-5,747	251,826	124,101
54,086	-5,384	251,674	124,329
55,101	-5,377	251,468	124,222
56,115	-5,201	251,401	124,331
57,130	-4,780	251,381	124,673
58,144	-4,557	251,170	124,750
59,159	-4,505	250,830	124,615
60,174	-4,570	250,637	124,452
61,188	-4,560	250,319	124,291
62,203	-4,521	250,273	124,291
63,217	-4,644	250,038	124,057
64,232	-4,652	249,852	123,947
65,247	-4,546	249,712	123,958
66,261	-4,676	249,491	123,726
67,276	-4,942	249,181	123,333
68,290	-5,321	249,094	122,955
69,305	-5,470	248,792	122,667
70,320	-5,188	248,523	122,765
71,334	-4,966	248,458	122,911
72,349	-4,750	248,333	123,022
73,363	-4,380	248,143	123,233
74,378	-4,454	247,896	123,035
75,393	-4,542	247,678	122,842
76,407	-4,798	247,545	122,548
77,422	-4,781	247,263	122,411
78,436	-4,526	247,011	122,492
79,451	-4,676	246,929	122,313
80,466	-4,879	246,654	121,994
81,480	-4,997	246,373	121,745
82,495	-4,847	246,183	121,766
83,509	-4,803	245,984	121,694
84,524	-4,970	245,868	121,485
85,539	-5,035	245,615	121,295
86,553	-5,132	245,408	121,100
87,568	-4,939	245,091	121,095
88,582	-5,070	245,199	121,027
89,597	-5,006	244,964	120,954
90,611	-4,871	244,761	120,957
91,626	-4,799	244,604	120,928
92,641	-4,741	244,373	120,852
93,655	-4,689	244,193	120,796
94,670	-5,006	244,085	120,467
95,684	-5,058	243,937	120,339
96,699	-4,867	243,682	120,362
97,714	-5,029	243,617	120,184
98,728	-5,020	243,240	119,995
99,743	-5,126	243,060	119,807
100,757	-5,186	242,833	119,635
101,772	-5,081	242,708	119,650
102,787	-5,154	242,623	119,537
103,801	-4,897	242,313	119,587
104,816	-4,728	242,007	119,565
105,830	-4,752	242,173	119,616
106,845	-4,719	242,036	119,565
107,860	-4,956	241,699	119,192
108,874	-4,758	241,573	119,283
109,889	-4,983	241,199	118,902
110,903	-4,885	241,144	118,945
111,918	-4,966	240,725	118,661
112,933	-5,065	240,731	118,573
113,947	-4,774	240,639	118,756
114,962	-4,785	240,455	118,645
115,976	-5,014	240,355	118,397
116,991	-4,948	240,156	118,342
118,006	-4,792	239,915	118,342
119,020	-4,740	239,813	118,323
120,035	-4,753	239,731	118,262
121,049	-4,658	239,504	118,216
122,064	-4,676	239,409	118,145
123,079	-4,800	239,075	117,868
124,093	-4,941	238,791	117,602
125,108	-5,105	238,629	117,378
126,122	-5,237	238,423	117,159
127,137	-5,359	238,370	117,024
128,151	-5,026	238,075	117,139
129,166	-5,051	237,984	117,063
130,181	-5,301	237,748	116,734
131,195	-5,229	237,643	116,730
132,210	-5,028	237,395	116,760
133,224	-4,962	237,263	116,739
134,239	-4,695	237,062	116,846
135,254	-4,853	236,967	116,661
136,268	-4,833	236,686	116,528
137,283	-5,265	236,597	116,125
138,297	-5,515	236,353	115,793
139,312	-5,424	236,174	115,769
140,327	-4,775	236,051	116,221
141,341	-4,532	236,178	116,468
142,356	-4,602	235,894	116,262
143,370	-4,373	235,724	116,352
144,385	-4,439	235,517	116,187
145,400	-4,262	235,467	116,293
146,414	-4,396	235,268	116,077
147,429	-4,406	235,012	115,932
148,443	-4,641	234,950	115,703
149,458	-4,600	234,746	115,625
150,473	-4,628	234,642	115,542
151,487	-4,612	234,349	115,400
152,502	-4,486	234,181	115,407
153,516	-4,407	234,110	115,425
154,531	-4,418	233,848	115,277
155,546	-4,526	233,743	115,129
156,560	-4,482	233,517	115,042
157,575	-4,599	233,195	114,781
158,589	-4,597	233,114	114,732
159,604	-4,583	233,163	114,757
160,619	-4,495	232,972	114,723
161,633	-4,454	232,689	114,605
162,648	-4,471	232,679	114,577
163,662	-4,296	232,439	114,587
164,677	-4,702	232,322	114,198
165,692	-4,477	232,192	114,302
166,706	-4,430	232,062	114,265
167,721	-4,448	231,895	114,158
168,735	-4,437	231,782	114,101
169,750	-4,434	231,615	114,011
170,764	-4,465	231,511	113,925
171,779	-4,542	231,217	113,710
172,794	-4,099	231,139	114,010
173,808	-4,466	230,925	113,605
174,823	-4,942	230,497	113,011
175,837	-5,135	230,350	112,778
176,852	-4,614	230,381	113,191
177,867	-4,671	230,295	113,094
178,881	-4,561	230,145	113,096
179,896	-4,306	230,011	113,220
180,910	-4,360	229,818	113,073
181,925	-4,199	229,655	113,108
182,940	-4,325	229,604	112,975
183,954	-4,457	229,384	112,754
184,969	-4,297	229,250	112,802
185,983	-4,206	229,359	112,917
186,998	-4,237	228,975	112,694
188,013	-4,238	228,744	112,569
189,027	-4,156	228,658	112,581
190,042	-4,247	228,418	112,381
191,056	-4,332	228,341	112,268
192,071	-4,225	228,148	112,246
193,086	-4,500	228,179	112,038
194,100	-4,510	227,977	111,921
195,115	-4,520	227,486	111,663
196,129	-5,383	227,371	110,929
197,144	-2,148	228,280	113,869
198,159	1,948	229,409	117,604
199,173	4,343	229,798	119,651
200,188	4,591	229,885	119,879
201,202	4,247	229,773	119,543
202,217	4,588	229,541	119,676
203,232	4,605	229,398	119,604
204,246	4,770	229,424	119,734
205,261	4,809	229,144	119,608
206,275	4,898	229,059	119,621
207,290	4,783	228,979	119,480
208,304	5,134	228,802	119,648
209,319	4,895	228,522	119,307
210,334	4,846	228,428	119,209
211,348	4,678	228,171	118,935
212,363	4,365	227,878	118,531
213,377	4,026	227,700	118,168
214,392	3,819	227,708	118,003
215,407	4,273	227,531	118,249
216,421	4,364	227,301	118,188
217,436	3,866	227,110	117,697
218,450	3,704	226,949	117,479
219,465	3,841	226,778	117,485
220,480	3,970	226,645	117,504
221,494	3,822	226,495	117,303
222,509	3,971	226,377	117,346
223,523	4,052	226,240	117,325
224,538	4,108	226,002	117,234
225,553	4,159	225,928	117,224
226,567	4,358	225,713	117,253
227,582	4,346	225,789	117,273
228,596	4,639	225,537	117,355
229,611	4,151	225,458	116,932
230,626	3,858	225,098	116,513
231,640	3,691	225,147	116,401
232,655	4,418	224,923	116,826
233,669	4,899	224,890	117,162
234,684	4,972	224,833	117,177
235,699	4,426	224,647	116,658
236,713	4,245	224,526	116,448
237,728	4,192	224,192	116,224
238,742	4,026	223,996	115,987
239,757	4,174	223,917	116,047
240,772	3,973	223,751	115,799
241,786	4,016	223,500	115,691
242,801	4,237	223,528	115,862
243,815	4,454	223,455	115,977
244,830	4,265	223,368	115,779
245,844	4,162	222,999	115,501
246,859	4,141	222,865	115,405
247,874	4,369	222,670	115,464
248,888	4,378	222,654	115,453
249,903	4,335	222,474	115,317
250,917	4,215	222,315	115,134
251,932	4,108	222,154	114,961
252,947	4,206	221,955	114,920
253,961	3,933	221,884	114,670
254,976	4,154	221,750	114,755
255,990	4,167	221,742	114,751
257,005	4,447	221,556	114,852
258,020	4,252	221,409	114,621
259,034	4,524	221,355	114,784
260,049	4,290	221,158	114,499
261,063	4,413	220,832	114,411
262,078	4,428	220,671	114,329
263,093	4,668	220,645	114,483
264,107	4,374	220,599	114,230
265,122	4,313	220,448	114,097
266,136	4,488	220,411	114,197
267,151	4,480	220,196	114,070
268,166	4,231	219,896	113,721
269,180	3,929	219,766	113,421
270,195	3,921	219,630	113,334
271,209	3,923	219,508	113,263
272,224	4,140	219,258	113,283
273,239	4,258	219,227	113,344
274,253	3,979	219,102	113,064
275,268	3,997	218,745	112,883
276,282	3,734	218,692	112,653
277,297	3,870	218,554	112,671
278,312	3,965	218,454	112,680
279,326	4,038	218,395	112,693
280,341	4,001	218,143	112,525
281,355	4,095	218,041	112,531
282,370	3,998	217,998	112,429
283,384	4,161	217,752	112,410
284,399	4,006	217,599	112,208
285,414	3,849	217,465	112,015
286,428	4,041	217,435	112,129
287,443	4,168	217,438	112,213
288,457	4,309	217,078	112,120
289,472	4,098	216,952	111,892
290,487	3,668	216,664	111,421
291,501	3,661	216,591	111,368
292,516	3,922	216,505	111,504
293,530	3,920	216,296	111,385
294,545	4,004	216,087	111,328
295,560	3,983	216,057	111,287
296,574	3,967	215,984	111,228
297,589	4,137	215,857	111,276
298,603	4,304	215,678	111,294
299,618	4,266	215,518	111,174
300,633	3,982	215,529	110,965
301,647	4,350	215,427	111,168
302,662	4,281	215,263	111,024
303,676	4,328	215,065	110,945
304,691	4,440	214,912	110,937
305,706	4,509	214,867	110,953
306,720	4,328	214,742	110,749
307,735	4,212	214,484	110,523
308,749	4,286	214,179	110,409
309,764	4,342	214,258	110,480
310,779	4,465	214,128	110,491
311,793	4,338	213,993	110,320
312,808	4,204	213,887	110,161
313,822	4,163	213,858	110,106
314,837	4,107	213,527	109,886
315,852	4,060	213,224	109,687
316,866	4,031	213,380	109,737
317,881	4,320	213,115	109,797
318,895	4,324	213,002	109,731
319,910	4,180	212,708	109,468
320,925	3,782	212,520	109,078
321,939	3,521	212,422	108,834
322,954	3,809	212,373	109,003
323,968	4,175	212,259	109,194
324,983	4,028	212,247	109,074
325,997	4,221	212,137	109,145
327,012	4,121	211,932	108,958
328,027	4,142	211,813	108,903
329,041	4,323	211,724	108,975
330,056	4,561	211,757	109,150
331,070	4,252	211,281	108,677
332,085	3,922	211,171	108,379
333,100	3,914	211,127	108,341
334,114	4,344	211,011	108,574
335,129	4,186	210,819	108,355
336,143	3,946	210,626	108,077
337,158	4,169	210,516	108,167
338,173	4,192	210,378	108,103
339,187	3,900	210,200	107,797
340,202	3,709	210,096	107,600
341,216	3,895	209,917	107,630
342,231	4,042	209,743	107,634
343,246	3,879	209,603	107,438
344,260	3,840	209,547	107,373
345,275	4,104	209,587	107,568
346,289	4,035	209,467	107,448
347,304	4,180	209,352	107,482
348,319	4,162	209,098	107,329
349,333	4,128	208,860	107,174
350,348	4,211	208,796	107,188
351,362	4,340	208,770	107,256
352,377	4,191	208,648	107,079
353,392	4,053	208,510	106,904
354,406	3,996	208,234	106,713
355,421	193,088	1345,968	1431,910
356,435	154,019	1484,694	1432,028
