DTS Sentinel unit serial number:	SN410029Multiplexer serial number:	ORYXHardware model number:	OX2-SRSoftware version number:	ORYX F/W v4,00 Oryx Data Collector v3.7.2.0data status	okinstallation	B6 Nyhavnadifferential loss correction	single-endedforward channel	channel 2reverse channel	N/Adate	2023/12/08time	12:50:08forward acquisition time	300,00reverse acquisition time	0,00gamma	499,1914k internal	0,3159k external	0,3159temperature offset calibration	1,0000default loss term (dB/km)	0,3820temperature slope calibration	1,0000multiplexer offset coefficient	1,0000multiplexer slope coefficient	1,0000fibre end	0,00T internal ref (°C)	15,06T ext. ref 1 (°C)	-1,52T ext. ref 2 (°C)	-1,53length (m)	temperature (°C)	Stokes	anti-Stokes-744,400	110,862	0,086	-0,076
-743,385	-19,012	-0,238	0,109
-742,371	-200,000	0,021	0,207
-741,356	-91,038	-0,230	-0,048
-740,342	-42,565	0,134	0,050
-739,327	-66,412	-0,342	0,099
-738,312	-6,744	0,097	-0,049
-737,298	-113,415	-0,392	-0,056
-736,283	1,639	0,184	0,097
-735,269	-32,902	-0,260	-0,106
-734,254	124,508	0,159	-0,148
-733,239	-127,443	-0,557	-0,059
-732,225	94,313	0,208	0,174
-731,210	800,000	-0,052	0,136
-730,196	-200,000	0,004	0,053
-729,181	-111,764	-0,241	0,035
-728,167	800,000	0,030	-0,062
-727,152	-94,274	-0,047	-0,009
-726,137	-58,189	-0,166	0,053
-725,123	-200,000	-0,003	0,092
-724,108	-164,160	-0,088	0,003
-723,094	417,407	-0,057	-0,090
-722,079	800,000	-0,040	-0,104
-721,064	-72,546	0,036	-0,010
-720,050	800,000	-0,025	0,070
-719,035	0,827	-0,013	-0,007
-718,021	-31,215	-0,137	-0,057
-717,006	44,250	-0,099	-0,066
-715,991	217,615	-0,089	-0,105
-714,977	-200,000	0,020	0,093
-713,962	115,694	-0,045	-0,041
-712,948	-1,282	0,038	-0,020
-711,933	99,149	0,092	-0,078
-710,918	-69,405	-0,089	0,025
-709,904	-106,098	-0,239	-0,039
-708,889	-200,000	-0,031	-0,203
-707,875	-200,000	-0,015	-0,114
-706,860	373,525	0,081	-0,122
-705,845	23,978	0,044	0,027
-704,831	-200,000	0,028	0,098
-703,816	-143,987	0,103	-0,007
-702,802	-104,364	-0,252	-0,042
-701,787	-200,000	0,014	-0,142
-700,772	40,643	-0,059	-0,039
-699,758	166,444	-0,107	-0,111
-698,743	-200,000	-0,013	-0,072
-697,729	201,040	0,065	0,073
-696,714	157,349	0,006	0,006
-695,699	-132,492	0,051	-0,005
-694,685	-200,000	-0,001	-0,098
-693,670	800,000	-0,069	0,148
-692,656	33,868	0,108	0,069
-691,641	-183,034	-0,091	-0,001
-690,627	100,185	-0,077	0,065
-689,612	118,793	0,028	0,026
-688,597	-200,000	0,009	0,068
-687,583	78,609	-0,170	-0,134
-686,568	108,517	-0,062	-0,054
-685,554	-90,603	0,017	-0,004
-684,539	-111,341	0,122	0,018
-683,524	100,410	-0,060	0,051
-682,510	800,000	0,051	-0,111
-681,495	-200,000	-0,012	-0,064
-680,481	178,303	-0,049	-0,053
-679,466	-200,000	0,006	0,072
-678,451	31,878	-0,123	-0,077
-677,437	5,840	0,044	0,024
-676,422	507,872	-0,047	-0,081
-675,408	-200,000	0,002	0,100
-674,393	29,385	-0,052	0,032
-673,378	800,000	-0,053	-0,116
-672,364	407,840	-0,066	-0,104
-671,349	672,139	0,037	-0,072
-670,335	800,000	0,031	0,075
-669,320	-36,655	-0,034	0,014
-668,305	800,000	-0,073	-0,203
-667,291	-175,784	0,114	0,002
-666,276	7,888	-0,133	-0,073
-665,262	-120,875	0,052	-0,006
-664,247	-110,873	0,046	0,007
-663,232	522,387	-0,048	0,082
-662,218	-200,000	0,000	0,082
-661,203	-60,025	0,025	-0,008
-660,189	-60,328	-0,101	-0,031
-659,174	-36,945	-0,071	-0,028
-658,159	75,190	-0,091	-0,071
-657,145	-200,000	0,004	-0,060
-656,130	616,770	0,027	-0,050
-655,116	56,786	0,144	-0,103
-654,101	-28,880	-0,060	0,025
-653,086	800,000	-0,063	0,144
-652,072	-200,000	0,013	-0,065
-651,057	-39,667	-0,101	-0,038
-650,043	211,695	-0,088	0,102
-649,028	82,815	0,050	-0,040
-648,014	800,000	-0,029	-0,091
-646,999	627,932	-0,073	-0,136
-645,984	-200,000	0,013	0,042
-644,970	800,000	0,019	0,041
-643,955	-200,000	-0,034	-0,171
-642,941	243,841	-0,055	-0,068
-641,926	-200,000	-0,021	-0,109
-640,911	11,205	-0,079	0,044
-639,897	-200,000	-0,020	0,160
-638,882	-57,877	-0,037	0,012
-637,868	20,138	-0,069	-0,041
-636,853	-200,000	0,027	-0,096
-635,838	-96,524	-0,080	-0,015
-634,824	-200,000	0,007	0,098
-633,809	800,000	0,041	-0,092
-632,795	-122,619	0,104	-0,012
-631,780	-25,675	-0,127	-0,055
-630,765	-200,000	0,009	0,080
-629,751	64,699	-0,090	-0,066
-628,736	-51,673	0,069	-0,023
-627,722	162,487	-0,092	0,094
-626,707	403,580	0,073	0,113
-625,692	-200,000	0,015	0,059
-624,678	-94,966	-0,093	0,018
-623,663	-38,080	0,020	0,008
-622,649	69,972	-0,076	-0,057
-621,634	-120,857	0,091	-0,011
-620,619	227,275	-0,036	-0,043
-619,605	-157,268	-0,044	0,002
-618,590	-5,689	0,073	0,037
-617,576	-200,000	-0,013	-0,044
-616,561	585,092	-0,021	-0,038
-615,546	-200,000	0,036	-0,130
-614,532	571,650	-0,017	-0,031
-613,517	-119,671	-0,123	-0,015
-612,503	-131,771	-0,079	0,007
-611,488	-111,900	0,121	-0,018
-610,474	-200,000	0,000	0,046
-609,459	215,776	-0,122	0,142
-608,444	25,742	-0,120	-0,073
-607,430	601,903	0,059	-0,108
-606,415	-45,965	-0,084	-0,030
-605,401	-28,729	-0,090	-0,038
-604,386	44,984	0,035	0,024
-603,371	-146,379	-0,059	0,004
-602,357	-12,557	0,122	0,058
-601,342	-47,723	0,047	-0,017
-600,328	378,634	-0,078	-0,118
-599,313	-200,000	-0,033	0,107
-598,298	-200,000	-0,021	0,095
-597,284	-200,000	0,012	-0,098
-596,269	800,000	0,054	-0,116
-595,255	118,283	0,044	-0,040
-594,240	800,000	-0,090	0,193
-593,225	-96,677	-0,090	0,017
-592,211	452,528	-0,043	-0,071
-591,196	133,983	0,093	0,089
-590,182	154,870	-0,085	-0,086
-589,167	32,946	0,119	0,075
-588,152	-200,000	-0,003	0,116
-587,138	800,000	-0,025	0,068
-586,123	32,835	-0,173	-0,110
-585,109	-17,332	-0,057	-0,026
-584,094	-121,664	0,093	-0,011
-583,079	-68,448	0,135	-0,038
-582,065	325,901	-0,039	0,054
-581,050	800,000	-0,030	0,082
-580,036	-200,000	0,023	-0,113
-579,021	223,755	-0,060	0,070
-578,006	800,000	-0,034	0,084
-576,992	-200,000	0,012	-0,111
-575,977	7,094	0,082	0,044
-574,963	510,243	-0,033	0,056
-573,948	-134,900	-0,052	-0,005
-572,934	-200,000	0,029	-0,129
-571,919	-200,000	0,020	-0,114
-570,904	800,000	-0,024	-0,054
-569,890	434,759	-0,011	-0,018
-568,875	-171,603	0,015	-0,000
-567,861	800,000	0,064	0,172
-566,846	800,000	0,022	0,064
-565,831	443,005	-0,070	0,113
-564,817	141,263	-0,042	-0,040
-563,802	567,280	0,075	-0,134
-562,788	-53,472	-0,051	-0,017
-561,773	278,317	-0,028	-0,036
-560,758	-200,000	0,036	0,175
-559,744	-115,345	0,075	0,010
-558,729	461,939	0,029	-0,047
-557,715	-129,129	0,154	-0,016
-556,700	-200,000	0,005	0,045
-555,685	429,921	0,063	-0,101
-554,671	800,000	-0,019	0,045
-553,656	800,000	0,063	0,158
-552,642	72,952	0,104	0,079
-551,627	-200,000	0,002	0,133
-550,612	-200,000	-0,054	0,201
-549,598	800,000	0,009	-0,029
-548,583	392,582	-0,046	-0,070
-547,569	800,000	0,014	-0,038
-546,554	53,189	0,036	0,025
-545,539	560,387	0,060	-0,107
-544,525	-144,644	-0,162	0,011
-543,510	-200,000	-0,027	-0,103
-542,496	-200,000	-0,009	-0,048
-541,481	-149,878	0,117	-0,007
-540,466	174,251	-0,047	-0,049
-539,452	440,344	0,046	0,073
-538,437	800,000	0,031	0,084
-537,423	65,652	0,065	-0,048
-536,408	-82,166	0,083	0,020
-535,393	800,000	-0,039	0,083
-534,379	73,086	0,066	0,051
-533,364	-88,876	-0,109	0,023
-532,350	550,891	0,051	0,090
-531,335	-141,255	0,154	0,011
-530,321	-200,000	0,126	0,000
-529,306	800,000	-0,024	-0,073
-528,291	714,678	-0,003	-0,005
-527,277	188,605	-0,072	-0,079
-526,262	75,045	-0,034	0,026
-525,248	-200,000	0,005	-0,019
-524,233	-108,840	-0,044	-0,007
-523,218	800,000	-0,011	-0,023
-522,204	267,359	0,038	-0,049
-521,189	-200,000	-0,012	-0,070
-520,175	-65,019	-0,053	-0,016
-519,160	52,642	-0,102	0,071
-518,145	431,211	0,022	-0,035
-517,131	-163,392	0,088	-0,003
-516,116	-200,000	0,013	-0,084
-515,102	-32,117	-0,076	0,031
-514,087	-200,000	-0,026	-0,114
-513,072	-119,248	-0,054	0,007
-512,058	-129,930	-0,067	-0,007
-511,043	-200,000	0,001	0,019
-510,029	345,947	-0,090	0,130
-509,014	-52,637	0,221	0,074
-507,999	-84,700	0,126	-0,029
-506,985	-123,110	-0,199	-0,023
-505,970	800,000	-0,040	-0,125
-504,956	-200,000	0,000	0,123
-503,941	-171,633	0,104	0,002
-502,926	-23,792	0,034	-0,015
-501,912	-200,000	0,005	0,118
-500,897	-200,000	-0,014	0,046
-499,883	-200,000	0,033	-0,115
-498,868	118,118	0,048	-0,043
-497,853	-122,466	0,034	-0,004
-496,839	23,587	-0,022	0,013
-495,824	627,383	0,054	0,099
-494,810	-71,326	0,028	0,008
-493,795	82,984	0,037	-0,029
-492,781	251,413	-0,095	-0,118
-491,766	230,754	0,030	-0,036
-490,751	-200,000	-0,022	0,108
-489,737	800,000	0,026	-0,069
-488,722	516,576	-0,033	0,057
-487,708	67,857	0,099	0,074
-486,693	800,000	-0,037	0,075
-485,678	-29,408	-0,103	-0,043
-484,664	-89,763	-0,056	0,012
-483,649	-200,000	0,009	0,061
-482,635	-200,000	-0,006	-0,027
-481,620	15,356	0,051	0,029
-480,605	22,782	0,055	0,033
-479,591	124,736	-0,017	0,015
-478,576	-6,542	-0,047	-0,023
-477,562	-27,623	-0,062	0,026
-476,547	-50,669	-0,106	0,036
-475,532	-200,000	0,002	0,027
-474,518	45,706	-0,057	-0,038
-473,503	97,821	-0,089	0,074
-472,489	-36,832	0,148	0,058
-471,474	-200,000	-0,003	-0,017
-470,459	-200,000	0,006	-0,042
-469,445	800,000	-0,033	-0,088
-468,430	-200,000	0,027	0,160
-467,416	510,383	-0,056	0,096
-466,401	-141,739	0,103	-0,007
-465,386	800,000	-0,010	0,026
-464,372	-200,000	0,005	-0,033
-463,357	695,787	-0,065	-0,124
-462,343	-200,000	-0,001	0,031
-461,328	448,702	-0,013	0,021
-460,313	-160,774	-0,082	-0,003
-459,299	283,823	0,064	0,084
-458,284	-18,950	0,051	-0,023
-457,270	800,000	-0,040	-0,094
-456,255	-200,000	0,003	0,068
-455,241	-56,054	-0,055	0,018
-454,226	-200,000	0,020	-0,078
-453,211	-200,000	-0,038	-0,147
-452,197	-154,298	-0,057	0,003
-451,182	-200,000	-0,038	0,156
-450,168	-91,681	0,080	-0,016
-449,153	469,369	-0,009	0,015
-448,138	800,000	-0,017	0,051
-447,124	-91,897	-0,141	0,029
-446,109	242,897	0,076	-0,093
-445,095	-200,000	0,005	-0,045
-444,080	555,064	-0,027	-0,047
-443,065	354,007	0,036	-0,052
-442,051	800,000	-0,025	-0,077
-441,036	59,425	0,081	-0,058
-440,022	76,288	-0,057	-0,044
-439,007	-88,655	-0,015	0,003
-437,992	-5,545	0,096	0,048
-436,978	101,689	-0,035	-0,030
-435,963	-73,785	0,077	0,020
-434,949	191,659	-0,064	-0,070
-433,934	240,115	-0,072	0,088
-432,919	259,685	-0,041	-0,051
-431,905	-138,839	0,094	0,007
-430,890	-200,000	0,041	0,155
-429,876	-200,000	0,004	0,155
-428,861	10,282	0,034	0,019
-427,846	-200,000	0,018	0,113
-426,832	-98,769	-0,104	-0,019
-425,817	800,000	0,019	-0,042
-424,803	800,000	0,034	-0,079
-423,788	-4,769	0,031	-0,015
-422,773	-200,000	-0,006	0,031
-421,759	800,000	-0,044	0,135
-420,744	383,075	0,042	0,063
-419,730	90,233	-0,087	-0,071
-418,715	6,664	-0,088	-0,047
-417,701	391,748	0,028	-0,042
-416,686	-3,679	0,051	0,026
-415,671	-127,606	-0,020	-0,002
-414,657	-18,099	-0,033	0,015
-413,642	21,646	0,116	0,069
-412,628	145,408	-0,068	-0,066
-411,613	234,620	-0,067	-0,081
-410,598	133,656	-0,123	0,116
-409,584	94,736	-0,064	-0,053
-408,569	-200,000	0,023	0,085
-407,555	51,067	0,119	0,082
-406,540	175,261	0,045	0,048
-405,525	-200,000	0,011	0,077
-404,511	800,000	0,040	0,124
-403,496	184,559	0,054	-0,058
-402,482	-200,000	0,018	-0,149
-401,467	-124,705	-0,109	-0,012
-400,452	250,861	0,052	-0,065
-399,438	50,889	0,090	0,062
-398,423	-200,000	0,002	0,083
-397,409	127,978	0,053	0,049
-396,394	38,394	0,069	0,044
-395,379	-107,917	0,060	-0,009
-394,365	164,219	0,133	0,136
-393,350	-200,000	0,000	0,109
-392,336	80,904	0,113	0,088
-391,321	-200,000	-0,022	0,109
-390,306	-84,492	-0,106	0,024
-389,292	290,151	-0,095	-0,126
-388,277	173,453	0,074	0,078
-387,263	14,470	0,133	-0,075
-386,248	-131,219	-0,140	-0,013
-385,233	97,077	0,008	0,007
-384,219	158,855	0,016	-0,017
-383,204	800,000	0,014	-0,030
-382,190	-200,000	0,008	0,045
-381,175	306,581	0,154	0,208
-380,160	800,000	-0,049	0,105
-379,146	259,895	-0,031	-0,039
-378,131	466,904	0,037	-0,061
-377,117	59,008	0,064	-0,046
-376,102	61,929	0,039	0,028
-375,088	-63,474	-0,079	-0,023
-374,073	95,370	-0,029	0,024
-373,058	800,000	0,021	0,061
-372,044	41,769	0,086	-0,056
-371,029	24,180	0,087	0,052
-370,015	-200,000	-0,011	-0,049
-369,000	83,066	-0,099	0,078
-367,985	270,755	0,066	0,085
-366,971	188,352	-0,101	-0,109
-365,956	-58,136	-0,104	-0,033
-364,942	-51,048	0,056	0,019
-363,927	-200,000	0,008	-0,032
-362,912	-200,000	0,007	0,059
-361,898	-47,881	-0,070	-0,024
-360,883	279,719	0,014	0,019
-359,869	-21,310	-0,097	0,043
-358,854	-104,766	-0,166	-0,028
-357,839	31,479	-0,057	-0,035
-356,825	40,069	0,089	-0,058
-355,810	-85,704	0,077	-0,017
-354,796	-200,000	0,034	0,129
-353,781	52,440	0,055	-0,038
-352,766	-200,000	0,008	-0,076
-351,752	14,447	-0,085	-0,048
-350,737	-200,000	0,013	0,051
-349,723	800,000	-0,018	0,048
-348,708	-120,004	0,128	-0,016
-347,693	216,116	-0,086	-0,099
-346,679	95,186	-0,035	-0,029
-345,664	-78,853	-0,042	-0,010
-344,650	-62,014	-0,067	-0,020
-343,635	-94,960	0,084	-0,016
-342,620	-122,308	0,033	-0,004
-341,606	-142,005	0,059	0,004
-340,591	-143,695	-0,043	-0,003
-339,577	-63,199	-0,033	0,010
-338,562	430,047	-0,073	0,115
-337,548	-200,000	-0,011	0,068
-336,533	44,897	-0,075	-0,050
-335,518	-102,924	-0,097	0,016
-334,504	-61,357	-0,074	0,022
-333,489	-200,000	-0,006	0,046
-332,475	800,000	-0,021	0,047
-331,460	800,000	-0,063	-0,172
-330,445	127,717	-0,106	-0,098
-329,431	-143,377	0,087	-0,006
-328,416	800,000	-0,023	0,052
-327,402	473,502	0,015	-0,024
-326,387	800,000	0,046	-0,108
-325,372	545,901	-0,042	0,074
-324,358	4,570	-0,044	-0,023
-323,343	116,803	0,093	0,083
-322,329	291,584	0,031	0,042
-321,314	424,827	0,018	-0,028
-320,299	-57,610	0,066	-0,021
-319,285	-96,940	0,126	0,024
-318,270	-66,934	-0,060	-0,017
-317,256	800,000	-0,117	-0,249
-316,241	64,397	-0,033	-0,024
-315,226	-37,431	0,050	-0,019
-314,212	-200,000	0,006	0,030
-313,197	23,678	-0,029	0,017
-312,183	800,000	0,016	-0,046
-311,168	800,000	0,041	0,083
-310,153	-76,623	0,054	-0,014
-309,139	-14,674	0,046	-0,022
-308,124	-2,792	-0,054	0,027
-307,110	-200,000	-0,013	-0,126
-306,095	-180,725	0,140	-0,002
-305,080	-200,000	-0,002	0,061
-304,066	-14,186	-0,088	0,041
-303,051	64,640	-0,100	0,073
-302,037	-143,505	0,056	0,004
-301,022	-200,000	-0,014	0,072
-300,008	324,335	0,031	0,043
-298,993	-200,000	-0,014	-0,048
-297,978	-78,938	-0,085	-0,021
-296,964	-107,832	0,095	0,015
-295,949	-200,000	0,003	-0,094
-294,935	9,365	-0,145	-0,079
-293,920	-200,000	0,021	0,095
-292,905	-31,079	0,043	0,017
-291,891	-200,000	0,009	0,085
-290,876	799,121	0,051	0,102
-289,862	800,000	0,020	-0,059
-288,847	-142,635	-0,094	0,007
-287,832	-77,525	-0,087	-0,022
-286,818	341,848	-0,070	-0,099
-285,803	61,093	0,105	0,075
-284,789	800,000	-0,044	0,094
-283,774	250,251	-0,085	-0,105
-282,759	-200,000	0,011	0,041
-281,745	73,865	-0,107	-0,081
-280,730	147,358	-0,069	-0,067
-279,716	-43,781	0,076	0,027
-278,701	-40,672	0,052	-0,020
-277,686	342,282	0,061	0,087
-276,672	44,816	0,087	-0,058
-275,657	165,342	-0,065	-0,066
-274,643	292,565	-0,048	0,063
-273,628	800,000	0,089	-0,182
-272,613	292,358	0,051	0,067
-271,599	-200,000	0,007	-0,028
-270,584	38,937	0,118	0,076
-269,570	119,487	0,076	-0,068
-268,555	800,000	-0,029	-0,075
-267,540	800,000	0,048	-0,128
-266,526	451,905	-0,040	-0,064
-265,511	800,000	0,041	-0,095
-264,497	1,843	0,102	0,053
-263,482	800,000	0,031	0,073
-262,467	800,000	0,060	0,174
-261,453	-80,504	0,079	-0,019
-260,438	-58,631	-0,067	-0,021
-259,424	-200,000	0,023	-0,079
-258,409	451,664	-0,050	0,081
-257,395	513,291	0,030	0,050
-256,380	-73,911	0,014	-0,004
-255,365	-1,225	-0,099	0,050
-254,351	-69,334	0,088	0,024
-253,336	5,775	0,062	0,033
-252,322	167,994	0,011	0,011
-251,307	192,318	0,015	0,017
-250,292	38,601	-0,094	0,061
-249,278	-200,000	-0,038	0,127
-248,263	35,276	0,121	-0,076
-247,249	6,198	-0,073	0,039
-246,234	297,753	0,100	-0,133
-245,219	-200,000	-0,044	-0,204
-244,205	-106,573	-0,109	0,017
-243,190	-200,000	-0,013	-0,165
-242,176	35,044	0,100	0,063
-241,161	800,000	0,039	0,118
-240,146	800,000	0,031	0,072
-239,132	-113,379	0,138	-0,019
-238,117	385,718	0,033	0,049
-237,103	124,592	-0,074	-0,067
-236,088	335,312	-0,089	-0,126
-235,073	-138,099	-0,082	-0,006
-234,059	-200,000	0,005	-0,098
-233,044	152,707	0,107	0,106
-232,030	38,748	0,045	-0,029
-231,015	-20,704	-0,026	0,011
-230,000	-126,900	0,046	0,005
-228,986	443,211	-0,040	0,064
-227,971	-200,000	0,001	0,082
-226,957	96,350	0,099	0,082
-225,942	-38,533	0,150	0,057
-224,927	-30,054	-0,109	0,045
-223,913	141,514	-0,054	0,051
-222,898	-200,000	0,005	0,023
-221,884	157,073	0,057	-0,057
-220,869	800,000	0,032	0,101
-219,855	-200,000	0,002	0,091
-218,840	-104,984	-0,026	0,004
-217,825	205,173	0,039	0,043
-216,811	-200,000	0,023	-0,089
-215,796	-173,359	0,057	-0,001
-214,782	462,467	0,009	-0,015
-213,767	-16,424	0,049	0,023
-212,752	78,984	0,120	-0,093
-211,738	800,000	0,037	-0,112
-210,723	-109,219	-0,064	-0,010
-209,709	288,311	-0,081	0,107
-208,694	-79,721	-0,095	-0,023
-207,679	-57,143	0,120	-0,038
-206,665	118,498	0,031	0,027
-205,650	36,219	0,097	0,062
-204,636	-200,000	0,016	0,095
-203,621	-128,179	-0,063	-0,006
-202,606	800,000	-0,026	-0,083
-201,592	-63,183	-0,032	-0,009
-200,577	-2,739	-0,109	0,055
-199,563	-12,254	0,150	-0,071
-198,548	800,000	-0,071	-0,143
-197,533	198,718	0,043	0,047
-196,519	-200,000	0,023	0,092
-195,504	-23,223	-0,052	0,022
-194,490	-200,000	-0,026	-0,111
-193,475	40,061	0,120	-0,078
-192,460	229,152	0,064	0,075
-191,446	366,673	0,061	-0,089
-190,431	-89,566	-0,047	0,010
-189,417	800,000	0,046	0,114
-188,402	-65,221	0,066	-0,019
-187,387	-99,401	-0,034	-0,006
-186,373	101,677	-0,032	-0,027
-185,358	17,812	-0,104	-0,060
-184,344	28,520	0,040	-0,024
-183,329	-73,921	0,083	0,021
-182,315	177,573	-0,022	0,023
-181,300	53,715	-0,144	-0,100
-180,285	-200,000	0,014	-0,171
-179,271	10,280	-0,221	-0,121
-178,256	800,000	-0,027	-0,081
-177,242	-103,483	0,141	0,024
-176,227	-200,000	0,002	-0,057
-175,212	-121,509	-0,070	0,008
-174,198	-111,150	-0,121	0,018
-173,183	800,000	-0,011	-0,025
-172,169	75,867	-0,028	-0,022
-171,154	244,014	0,051	-0,061
-170,139	800,000	-0,069	-0,145
-169,125	800,000	-0,020	-0,045
-168,110	800,000	0,022	0,054
-167,096	41,885	0,147	-0,096
-166,081	-67,780	0,067	-0,019
-165,066	0,883	-0,038	0,019
-164,052	-64,098	-0,057	0,017
-163,037	800,000	-0,053	-0,115
-162,023	81,525	0,067	-0,052
-161,008	-44,040	0,047	-0,017
-159,993	411,360	-0,084	-0,128
-158,979	800,000	0,026	-0,058
-157,964	800,000	-0,025	0,060
-156,950	-114,814	-0,114	-0,015
-155,935	-200,000	-0,032	0,116
-154,920	57,683	0,067	0,047
-153,906	800,000	0,042	0,127
-152,891	61,234	-0,030	-0,021
-151,877	800,000	0,119	0,244
-150,862	-101,808	-0,042	0,007
-149,847	-200,000	-0,041	-0,177
-148,833	634,896	0,032	0,058
-147,818	-80,188	0,041	0,010
-146,804	523,516	-0,026	0,045
-145,789	64,510	0,038	0,028
-144,775	-200,000	0,000	0,030
-143,760	-200,000	0,023	0,139
-142,745	-127,037	-0,062	0,006
-141,731	269,460	0,035	-0,044
-140,716	2,262	0,085	0,044
-139,702	-200,000	-0,008	0,040
-138,687	74,976	-0,195	-0,147
-137,672	-200,000	-0,011	0,113
-136,658	688,291	0,016	0,029
-135,643	-152,072	-0,140	-0,007
-134,629	800,000	0,009	-0,021
-133,614	-37,199	-0,094	-0,036
-132,599	-200,000	-0,061	0,211
-131,585	70,483	0,100	0,074
-130,570	-35,780	-0,066	0,026
-129,556	-200,000	-0,007	-0,093
-128,541	-88,993	-0,199	0,042
-127,526	95,665	-0,081	-0,066
-126,512	103,861	0,082	0,070
-125,497	581,121	0,035	-0,062
-124,483	256,832	-0,108	0,134
-123,468	-200,000	-0,006	0,038
-122,453	449,103	-0,046	-0,073
-121,439	120,017	-0,077	0,068
-120,424	29,413	-0,149	0,091
-119,410	-200,000	-0,010	0,109
-118,395	26,032	-0,023	-0,014
-117,380	99,308	0,086	0,071
-116,366	-200,000	0,004	-0,017
-115,351	-68,983	0,030	0,008
-114,337	-200,000	0,005	0,069
-113,322	800,000	-0,036	-0,100
-112,307	125,921	-0,052	-0,047
-111,293	-200,000	0,007	0,187
-110,278	-52,334	-0,127	0,042
-109,264	-83,018	0,111	0,026
-108,249	-108,606	-0,073	0,011
-107,234	800,000	0,014	0,040
-106,220	381,233	-0,047	-0,070
-105,205	-42,208	-0,045	-0,017
-104,191	-93,066	-0,024	0,005
-103,176	-200,000	0,016	0,055
-102,162	-122,402	-0,032	-0,004
-101,147	-56,914	0,113	-0,036
-100,132	100,217	-0,102	-0,085
-99,118	11,075	-0,064	-0,035
-98,103	33,543	0,085	0,053
-97,089	740,986	-0,068	0,132
-96,074	43,883	-0,054	0,035
-95,059	145,593	0,044	0,042
-94,045	426,955	-0,035	0,054
-93,030	800,000	0,018	-0,045
-92,016	29,105	0,072	0,044
-91,001	800,000	-0,050	0,129
-89,986	586,526	-0,045	0,079
-88,972	385,317	-0,057	0,084
-87,957	-200,000	-0,025	0,152
-86,943	-200,000	0,006	0,090
-85,928	800,000	0,021	0,043
-84,913	-200,000	0,027	-0,100
-83,899	20,632	-0,103	-0,060
-82,884	82,711	-0,005	-0,004
-81,870	732,946	-0,057	-0,109
-80,855	268,036	-0,027	0,034
-79,840	800,000	-0,031	0,087
-78,826	-50,976	-0,105	-0,035
-77,811	-200,000	0,005	-0,174
-76,797	98,974	-0,020	-0,017
-75,782	-83,484	0,202	0,046
-74,767	766,725	0,038	0,074
-73,753	-200,000	0,003	0,020
-72,738	-70,871	0,070	-0,019
-71,724	135,353	-0,078	-0,073
-70,709	-200,000	0,011	0,058
-69,694	107,100	0,026	0,022
-68,680	-200,000	0,009	0,057
-67,665	404,216	0,050	-0,076
-66,651	-39,061	0,104	0,039
-65,636	-55,916	0,074	0,023
-64,622	-200,000	-0,003	-0,048
-63,607	800,000	0,051	0,141
-62,592	114,500	-0,014	-0,012
-61,578	800,000	-0,055	0,116
-60,563	458,682	0,065	-0,103
-59,549	138,304	-0,158	0,149
-58,534	11,360	-1,879	-1,030
-57,519	-200,000	-0,169	-0,786
-56,505	-200,000	-1,305	-4,929
-55,490	56,961	0,885	0,618
-54,476	800,000	5,145	11,776
-53,461	-200,000	17,868	289,544
-52,446	800,000	727,505	2223,872
-51,432	532,772	1640,313	2796,338
-50,417	108,838	1629,555	1396,923
-49,403	72,492	1283,272	958,791
-48,388	31,188	1025,827	629,995
-47,373	19,823	987,733	569,181
-46,359	18,179	975,812	556,910
-45,344	15,385	972,025	545,598
-44,330	15,588	970,642	545,463
-43,315	15,136	968,637	542,842
-42,300	15,073	967,512	541,985
-41,286	15,032	966,650	541,347
-40,271	15,039	965,527	540,719
-39,257	15,124	964,702	540,510
-38,242	15,115	963,963	540,047
-37,227	15,052	963,079	539,324
-36,213	15,119	962,159	539,005
-35,198	15,039	961,365	538,280
-34,184	15,056	960,728	537,958
-33,169	15,065	959,529	537,295
-32,154	15,104	958,656	536,910
-31,140	15,096	957,826	536,397
-30,125	15,073	957,234	535,970
-29,111	15,036	956,374	535,350
-28,096	15,053	955,737	535,026
-27,082	15,111	954,994	534,776
-26,067	15,185	953,942	534,401
-25,052	15,055	953,450	533,688
-24,038	15,094	952,666	533,354
-23,023	15,044	952,116	532,863
-22,009	15,124	951,333	532,660
-20,994	15,156	950,686	532,379
-19,979	15,156	950,192	532,080
-18,965	15,027	949,634	531,336
-17,950	15,107	948,878	531,149
-16,936	15,018	948,404	530,576
-15,921	15,064	947,701	530,308
-14,906	14,989	946,831	529,563
-13,892	14,926	946,449	529,128
-12,877	15,012	945,573	528,889
-11,863	14,910	945,018	528,235
-10,848	14,962	944,549	528,118
-9,833	15,082	944,014	528,176
-8,819	15,036	943,315	527,619
-7,804	15,009	942,899	527,280
-6,790	14,984	942,280	526,833
-5,775	15,075	941,628	526,738
-4,760	14,940	941,075	525,978
-3,746	14,940	940,498	525,635
-2,731	14,853	939,640	524,861
-1,717	14,848	938,932	524,430
-0,702	14,781	938,498	523,955
0,313	14,624	937,798	523,858
1,327	18,072	935,725	533,499
2,342	27,523	789,164	474,804
3,356	24,081	444,067	262,064
4,371	-5,828	295,033	144,273
5,386	-9,712	276,904	131,718
6,400	-11,016	271,227	127,796
7,415	-11,121	268,851	126,569
8,429	-11,087	267,491	125,948
9,444	-11,018	266,578	125,570
10,459	-11,133	265,946	125,157
11,473	-11,319	265,407	124,723
12,488	-11,215	264,885	124,560
13,502	-11,449	264,252	124,040
14,517	-11,478	264,001	123,886
15,531	-11,236	263,341	123,783
16,546	-11,220	263,194	123,717
17,561	-11,183	262,734	123,523
18,575	-11,068	262,408	123,462
19,590	-11,398	262,019	122,972
20,604	-11,204	261,835	123,048
21,619	-11,367	261,428	122,700
22,634	-11,265	261,015	122,587
23,648	-11,469	260,911	122,346
24,663	-11,340	260,511	122,261
25,677	-11,207	260,242	122,243
26,692	-11,329	259,982	122,001
27,707	-11,352	259,718	121,846
28,721	-11,279	259,625	121,856
29,736	-11,452	259,005	121,402
30,750	-11,453	258,881	121,332
31,765	-11,331	258,721	121,354
32,780	-11,486	258,528	121,115
33,794	-11,439	258,075	120,933
34,809	-11,299	258,026	121,024
35,823	-11,438	257,805	120,786
36,838	-11,474	257,504	120,603
37,853	-11,702	257,355	120,323
38,867	-11,482	257,043	120,359
39,882	-11,334	256,531	120,238
40,896	-11,281	256,531	120,274
41,911	-11,619	256,406	119,909
42,926	-11,454	256,028	119,865
43,940	-11,603	255,825	119,629
44,955	-11,619	255,597	119,498
45,969	-11,485	255,426	119,524
46,984	-11,790	254,973	119,037
47,999	-12,040	254,916	118,782
49,013	-12,101	254,641	118,590
50,028	-12,087	254,220	118,396
51,042	-12,210	253,885	118,122
52,057	-12,290	253,788	117,998
53,071	-12,069	253,427	118,010
54,086	-12,167	253,445	117,924
55,101	-12,182	253,371	117,865
56,115	-11,674	253,119	118,176
57,130	-11,357	253,104	118,432
58,144	-10,978	252,716	118,566
59,159	-11,086	252,657	118,435
60,174	-11,331	252,538	118,158
61,188	-11,268	252,296	118,088
62,203	-11,229	252,131	118,034
63,217	-11,426	251,911	117,751
64,232	-11,186	251,657	117,827
65,247	-11,120	251,482	117,792
66,261	-11,326	251,221	117,483
67,276	-11,557	250,803	117,080
68,290	-11,587	250,548	116,925
69,305	-11,851	250,251	116,551
70,320	-12,069	250,128	116,298
71,334	-11,442	249,978	116,751
72,349	-11,212	250,018	116,955
73,363	-11,172	249,686	116,823
74,378	-11,168	249,659	116,804
75,393	-11,287	249,338	116,542
76,407	-11,316	249,033	116,364
77,422	-11,421	248,903	116,205
78,436	-11,437	248,713	116,092
79,451	-11,345	248,444	116,034
80,466	-11,502	248,093	115,727
81,480	-11,712	248,017	115,504
82,495	-11,606	247,814	115,488
83,509	-11,589	247,736	115,456
84,524	-11,536	247,372	115,321
85,539	-11,728	247,204	115,071
86,553	-11,794	247,065	114,941
87,568	-11,551	246,788	115,005
88,582	-11,649	246,567	114,810
89,597	-11,570	246,422	114,799
90,611	-11,472	246,246	114,788
91,626	-11,363	246,224	114,859
92,641	-11,445	245,951	114,653
93,655	-11,513	245,700	114,468
94,670	-11,555	245,614	114,383
95,684	-11,384	245,335	114,386
96,699	-11,449	245,171	114,244
97,714	-11,725	245,032	113,940
98,728	-11,843	244,643	113,652
99,743	-11,799	244,522	113,621
100,757	-11,848	244,275	113,456
101,772	-11,506	244,092	113,644
102,787	-11,579	243,894	113,482
103,801	-11,534	243,717	113,426
104,816	-11,314	243,577	113,533
105,830	-11,370	243,322	113,358
106,845	-11,225	243,252	113,434
107,860	-11,207	243,020	113,331
108,874	-11,723	242,882	112,831
109,889	-11,670	242,678	112,770
110,903	-11,526	242,425	112,761
111,918	-11,626	242,300	112,611
112,933	-11,525	242,076	112,580
113,947	-11,322	241,967	112,685
114,962	-11,342	241,838	112,599
115,976	-11,285	241,663	112,554
116,991	-11,334	241,395	112,379
118,006	-11,480	241,200	112,159
119,020	-11,565	241,161	112,061
120,035	-11,295	240,996	112,195
121,049	-11,182	240,823	112,197
122,064	-11,254	240,760	112,099
123,079	-11,429	240,562	111,854
124,093	-11,607	240,181	111,522
125,108	-11,644	239,981	111,388
126,122	-11,868	239,838	111,131
127,137	-11,910	239,577	110,965
128,151	-11,702	239,455	111,068
129,166	-11,794	239,219	110,874
130,181	-11,717	239,107	110,875
131,195	-11,701	238,910	110,786
132,210	-11,696	238,810	110,734
133,224	-11,609	238,692	110,740
134,239	-11,665	238,503	110,597
135,254	-11,493	238,170	110,571
136,268	-11,677	238,042	110,354
137,283	-11,734	237,737	110,157
138,297	-11,976	237,567	109,873
139,312	-12,049	237,323	109,692
140,327	-11,448	237,282	110,146
141,341	-11,130	237,305	110,402
142,356	-10,956	237,107	110,439
143,370	-11,037	237,036	110,332
144,385	-11,079	236,892	110,221
145,400	-10,989	236,745	110,215
146,414	-10,970	236,471	110,092
147,429	-11,097	236,253	109,880
148,443	-10,884	236,010	109,927
149,458	-10,991	235,930	109,795
150,473	-11,179	235,874	109,609
151,487	-11,320	235,602	109,361
152,502	-11,143	235,404	109,399
153,516	-11,210	235,368	109,320
154,531	-11,212	235,026	109,150
155,546	-11,026	234,602	109,091
156,560	-11,181	234,742	109,023
157,575	-11,631	234,633	108,606
158,589	-11,307	234,286	108,692
159,604	-11,057	234,225	108,852
160,619	-10,933	234,101	108,883
161,633	-11,035	234,003	108,747
162,648	-10,897	233,752	108,729
163,662	-11,204	233,699	108,453
164,677	-11,105	233,393	108,379
165,692	-11,096	233,258	108,314
166,706	-10,883	233,095	108,396
167,721	-10,884	233,000	108,342
168,735	-11,001	232,937	108,210
169,750	-10,884	232,744	108,203
170,764	-11,226	232,729	107,918
171,779	-11,042	232,477	107,936
172,794	-11,160	232,204	107,707
173,808	-11,204	232,035	107,585
174,823	-11,388	231,643	107,250
175,837	-11,767	231,503	106,879
176,852	-11,497	231,516	107,086
177,867	-11,117	231,517	107,374
178,881	-11,052	231,371	107,348
179,896	-10,995	231,125	107,268
180,910	-10,897	230,924	107,241
181,925	-11,067	230,920	107,098
182,940	-10,980	230,614	107,014
183,954	-10,815	230,461	107,061
184,969	-10,910	230,404	106,952
185,983	-10,786	230,209	106,948
186,998	-10,697	230,118	106,965
188,013	-10,777	229,873	106,780
189,027	-10,996	229,870	106,599
190,042	-10,823	229,586	106,592
191,056	-10,836	229,321	106,449
192,071	-10,722	229,152	106,450
193,086	-11,058	229,130	106,171
194,100	-11,051	228,919	106,068
195,115	-11,311	228,495	105,663
196,129	-11,484	228,450	105,499
197,144	-6,462	230,259	110,214
198,159	-0,623	231,888	115,525
199,173	2,502	232,755	118,380
200,188	3,094	232,786	118,846
201,202	3,134	232,590	118,766
202,217	3,283	232,439	118,794
203,232	3,600	232,280	118,948
204,246	3,552	232,341	118,931
205,261	3,557	232,125	118,814
206,275	3,891	232,075	119,036
207,290	3,883	231,812	118,885
208,304	4,100	231,636	118,951
209,319	3,719	231,512	118,583
210,334	3,625	231,363	118,423
211,348	3,584	231,055	118,224
212,363	3,236	230,795	117,812
213,377	2,936	230,591	117,467
214,392	2,825	230,516	117,333
215,407	3,002	230,375	117,386
216,421	2,884	230,314	117,254
217,436	3,065	230,042	117,245
218,450	2,743	229,842	116,885
219,465	2,586	229,726	116,696
220,480	3,007	229,406	116,845
221,494	2,810	229,328	116,644
222,509	3,214	229,344	116,950
223,523	3,247	229,141	116,862
224,538	2,863	228,994	116,483
225,553	2,851	228,972	116,452
226,567	3,050	228,804	116,509
227,582	3,519	228,673	116,789
228,596	3,372	228,614	116,636
229,611	3,044	228,277	116,204
230,626	2,787	228,055	115,886
231,640	2,804	227,836	115,777
232,655	3,221	227,759	116,044
233,669	3,334	227,753	116,116
234,684	3,377	227,776	116,151
235,699	3,192	227,521	115,870
236,713	3,221	227,256	115,746
237,728	3,169	227,167	115,651
238,742	2,698	227,023	115,212
239,757	2,898	226,775	115,227
240,772	2,831	226,688	115,121
241,786	2,993	226,411	115,093
242,801	3,153	226,365	115,180
243,815	3,231	226,441	115,266
244,830	3,265	226,224	115,171
245,844	3,075	225,943	114,875
246,859	3,008	225,728	114,706
247,874	3,179	225,876	114,899
248,888	3,104	225,606	114,695
249,903	3,071	225,408	114,559
250,917	3,038	225,234	114,437
251,932	3,107	225,009	114,363
252,947	2,811	224,902	114,077
253,961	2,847	224,820	114,053
254,976	3,076	224,452	114,026
255,990	3,149	224,557	114,124
257,005	3,197	224,328	114,034
258,020	3,134	224,339	113,982
259,034	3,444	224,143	114,103
260,049	3,402	223,926	113,951
261,063	3,443	223,738	113,875
262,078	3,492	223,685	113,875
263,093	3,275	223,626	113,673
264,107	3,395	223,367	113,621
265,122	3,189	223,276	113,412
266,136	3,745	223,218	113,784
267,151	3,583	222,884	113,483
268,166	3,168	222,824	113,136
269,180	2,952	222,486	112,795
270,195	3,155	222,377	112,880
271,209	3,005	222,245	112,691
272,224	2,980	222,144	112,612
273,239	2,994	222,058	112,569
274,253	2,966	221,859	112,437
275,268	2,735	221,735	112,195
276,282	2,848	221,585	112,192
277,297	2,734	221,490	112,050
278,312	2,956	221,275	112,094
279,326	2,976	221,185	112,053
280,341	2,973	221,120	112,008
281,355	3,250	220,868	112,073
282,370	3,005	220,698	111,798
283,384	2,858	220,534	111,597
284,399	2,636	220,351	111,332
285,414	2,737	220,423	111,433
286,428	3,010	220,211	111,515
287,443	3,046	220,169	111,510
288,457	2,940	219,987	111,331
289,472	3,092	219,589	111,229
290,487	2,490	219,511	110,743
291,501	2,560	219,308	110,681
292,516	2,736	219,219	110,754
293,530	2,779	219,116	110,723
294,545	2,738	218,871	110,560
295,560	3,019	218,965	110,801
296,574	2,742	218,894	110,555
297,589	2,902	218,593	110,508
298,603	3,257	218,416	110,666
299,618	3,035	218,403	110,489
300,633	3,087	218,254	110,441
301,647	3,308	218,106	110,516
302,662	3,278	217,963	110,412
303,676	3,234	217,780	110,278
304,691	3,380	217,668	110,317
305,706	3,029	217,648	110,044
306,720	3,167	217,472	110,044
307,735	3,021	217,213	109,798
308,749	2,995	217,141	109,734
309,764	2,854	217,138	109,621
310,779	3,333	216,871	109,820
311,793	3,314	216,605	109,662
312,808	3,126	216,589	109,510
313,822	2,946	216,456	109,304
314,837	3,017	216,347	109,289
315,852	3,126	215,963	109,164
316,866	3,202	216,022	109,238
317,881	3,070	216,036	109,141
318,895	3,450	215,691	109,228
319,910	3,054	215,511	108,845
320,925	2,827	215,338	108,586
321,939	2,562	215,201	108,319
322,954	2,504	215,115	108,224
323,968	3,092	215,051	108,601
324,983	3,333	214,837	108,654
325,997	3,432	214,863	108,727
327,012	3,201	214,609	108,425
328,027	3,123	214,608	108,361
329,041	3,193	214,491	108,341
330,056	3,497	214,233	108,416
331,070	3,059	213,945	107,952
332,085	2,723	213,787	107,625
333,100	2,586	213,758	107,505
334,114	2,929	213,596	107,655
335,129	3,020	213,624	107,724
336,143	3,012	213,509	107,650
337,158	2,989	213,398	107,569
338,173	3,245	213,041	107,559
339,187	3,115	212,888	107,381
340,202	2,819	212,716	107,077
341,216	2,741	212,656	106,983
342,231	3,034	212,604	107,152
343,246	2,885	212,279	106,874
344,260	2,925	212,310	106,909
345,275	3,020	212,214	106,917
346,289	3,195	212,152	106,999
347,304	3,180	211,870	106,837
348,319	3,102	211,699	106,687
349,333	3,041	211,662	106,615
350,348	3,142	211,574	106,632
351,362	3,333	211,427	106,681
352,377	3,284	211,271	106,559
353,392	3,008	211,337	106,391
354,406	3,318	211,093	106,474
355,421	196,226	1340,700	1420,186
356,435	156,760	1478,296	1420,157
