DTS Sentinel unit serial number:	SN410029Multiplexer serial number:	ORYXHardware model number:	OX2-SRSoftware version number:	ORYX F/W v4,00 Oryx Data Collector v3.7.2.0data status	okinstallation	B6 Nyhavnadifferential loss correction	single-endedforward channel	channel 2reverse channel	N/Adate	2023/12/07time	18:25:08forward acquisition time	300,00reverse acquisition time	0,00gamma	499,1914k internal	0,3163k external	0,3163temperature offset calibration	1,0000default loss term (dB/km)	0,3820temperature slope calibration	1,0000multiplexer offset coefficient	1,0000multiplexer slope coefficient	1,0000fibre end	0,00T internal ref (°C)	14,25T ext. ref 1 (°C)	-2,70T ext. ref 2 (°C)	-2,70length (m)	temperature (°C)	Stokes	anti-Stokes-744,400	132,671	0,074	-0,070
-743,385	-120,788	-0,174	-0,021
-742,371	158,986	0,128	0,131
-741,356	-97,145	-0,208	0,040
-740,342	44,278	0,109	0,073
-739,327	-54,002	-0,345	0,115
-738,312	800,000	0,017	-0,040
-737,298	-99,611	-0,411	-0,075
-736,283	-112,519	0,144	-0,021
-735,269	358,442	-0,154	0,228
-734,254	-79,067	0,237	-0,059
-733,239	-90,520	-0,565	-0,119
-732,225	-162,691	0,228	0,008
-731,210	-200,000	0,005	0,113
-730,196	-200,000	-0,004	0,144
-729,181	-200,000	-0,029	-0,146
-728,167	434,632	-0,103	-0,165
-727,152	107,149	-0,028	-0,024
-726,137	-47,840	-0,182	-0,064
-725,123	-45,442	-0,136	-0,049
-724,108	332,374	-0,046	-0,066
-723,094	-143,366	-0,203	-0,014
-722,079	569,352	-0,041	0,074
-721,064	698,861	-0,038	-0,074
-720,050	513,794	0,048	-0,082
-719,035	-200,000	-0,002	-0,008
-718,021	-200,000	0,021	-0,106
-717,006	655,260	0,051	0,096
-715,991	-26,240	-0,161	-0,069
-714,977	-84,647	0,105	-0,024
-713,962	800,000	-0,052	0,126
-712,948	148,999	-0,070	-0,070
-711,933	120,493	-0,029	-0,026
-710,918	508,906	-0,060	-0,103
-709,904	-52,774	-0,046	-0,016
-708,889	131,904	0,036	-0,034
-707,875	-43,277	-0,078	-0,029
-706,860	-9,631	0,097	-0,047
-705,845	-138,896	-0,164	0,013
-704,831	188,493	0,104	-0,114
-703,816	-200,000	0,000	-0,061
-702,802	-200,000	-0,038	-0,148
-701,787	206,385	-0,071	-0,081
-700,772	165,023	-0,095	-0,099
-699,758	156,841	0,067	0,069
-698,743	-34,015	-0,151	-0,061
-697,729	21,327	0,055	0,033
-696,714	-111,072	0,094	-0,014
-695,699	129,480	0,111	0,104
-694,685	-170,634	0,141	0,004
-693,670	510,404	-0,034	0,058
-692,656	800,000	-0,067	-0,160
-691,641	800,000	0,020	-0,042
-690,627	118,625	0,132	-0,120
-689,612	-135,685	0,186	0,016
-688,597	-175,393	-0,229	0,004
-687,583	-200,000	-0,033	-0,138
-686,568	521,606	-0,090	-0,156
-685,554	328,661	-0,082	-0,116
-684,539	-140,322	-0,072	0,005
-683,524	-3,472	0,110	-0,056
-682,510	-56,431	-0,058	0,019
-681,495	-200,000	-0,004	-0,020
-680,481	-107,396	-0,094	-0,015
-679,466	-200,000	0,002	-0,047
-678,451	668,074	-0,085	0,162
-677,437	553,635	-0,058	-0,103
-676,422	-102,928	0,152	0,026
-675,408	100,932	-0,022	-0,019
-674,393	42,572	-0,048	0,032
-673,378	377,244	0,015	-0,023
-672,364	-200,000	-0,052	-0,213
-671,349	626,025	0,067	-0,125
-670,335	25,550	-0,027	0,016
-669,320	770,017	0,010	-0,019
-668,305	-200,000	0,013	0,097
-667,291	800,000	-0,028	-0,083
-666,276	-70,529	-0,136	0,037
-665,262	800,000	0,016	0,038
-664,247	-2,959	-0,163	-0,083
-663,232	-70,744	0,064	0,018
-662,218	243,837	0,034	-0,042
-661,203	443,166	0,067	0,108
-660,189	-90,333	-0,084	0,018
-659,174	-90,499	-0,202	-0,043
-658,159	-200,000	0,007	0,035
-657,145	250,348	-0,068	0,085
-656,130	379,634	-0,062	-0,094
-655,116	-200,000	0,037	-0,121
-654,101	-200,000	-0,009	-0,032
-653,086	-200,000	-0,016	-0,104
-652,072	147,372	-0,127	0,125
-651,057	43,665	-0,120	-0,080
-650,043	-114,537	0,017	-0,002
-649,028	22,792	0,122	-0,073
-648,014	56,003	0,132	-0,094
-646,999	800,000	-0,012	0,028
-645,984	-200,000	0,018	-0,105
-644,970	418,224	0,109	0,171
-643,955	143,572	-0,147	-0,144
-642,941	-3,401	-0,033	-0,017
-641,926	275,970	0,017	0,022
-640,911	-200,000	-0,011	0,173
-639,897	-200,000	-0,012	-0,106
-638,882	757,119	-0,052	-0,104
-637,868	406,897	0,029	-0,045
-636,853	-200,000	-0,020	-0,079
-635,838	-200,000	-0,007	-0,077
-634,824	9,188	-0,009	0,005
-633,809	54,252	0,026	0,018
-632,795	-40,784	-0,029	0,011
-631,780	262,047	0,040	-0,050
-630,765	800,000	-0,035	-0,081
-629,751	326,462	-0,026	-0,036
-628,736	402,868	-0,033	-0,051
-627,722	-64,166	-0,033	0,010
-626,707	220,744	-0,017	-0,020
-625,692	-200,000	-0,008	0,059
-624,678	151,955	0,122	-0,122
-623,663	-200,000	0,007	0,037
-622,649	25,321	0,080	-0,049
-621,634	-200,000	0,024	-0,137
-620,619	-200,000	0,002	0,039
-619,605	800,000	-0,059	0,146
-618,590	774,166	-0,040	-0,081
-617,576	22,763	-0,046	-0,028
-616,561	800,000	0,012	0,033
-615,546	321,753	0,038	-0,053
-614,532	95,129	-0,031	0,026
-613,517	-124,784	-0,096	0,011
-612,503	-200,000	-0,001	0,125
-611,488	-89,346	0,126	0,027
-610,474	111,397	-0,034	0,030
-609,459	411,275	-0,017	-0,026
-608,444	-35,284	0,112	0,044
-607,430	290,077	0,047	-0,062
-606,415	3,439	-0,052	-0,027
-605,401	5,734	-0,129	0,069
-604,386	-200,000	0,009	0,047
-603,371	-200,000	-0,022	0,136
-602,357	-200,000	-0,009	0,049
-601,342	352,836	-0,024	-0,035
-600,328	-152,382	0,052	0,003
-599,313	-114,220	-0,088	-0,012
-598,298	800,000	0,062	-0,181
-597,284	50,031	0,076	-0,052
-596,269	586,405	-0,040	0,072
-595,255	45,500	0,037	-0,025
-594,240	268,265	-0,036	-0,047
-593,225	2,013	0,128	-0,067
-592,211	-200,000	0,001	-0,027
-591,196	347,946	-0,050	-0,072
-590,182	345,087	-0,029	-0,042
-589,167	-200,000	-0,015	-0,144
-588,152	-77,136	-0,115	-0,029
-587,138	-200,000	-0,015	-0,140
-586,123	-137,567	-0,024	0,002
-585,109	800,000	0,012	-0,030
-584,094	124,282	0,103	-0,095
-583,079	-27,408	-0,020	0,008
-582,065	229,275	-0,065	0,078
-581,050	457,865	0,032	0,051
-580,036	188,349	0,118	-0,129
-579,021	-159,721	-0,048	0,002
-578,006	398,626	-0,051	-0,079
-576,992	-32,622	0,019	0,008
-575,977	-119,075	0,067	0,009
-574,963	-1,241	-0,157	-0,081
-573,948	-200,000	-0,023	0,082
-572,934	-167,499	0,130	-0,004
-571,919	-54,418	-0,050	-0,016
-570,904	800,000	-0,021	-0,060
-569,890	670,116	0,034	0,064
-568,875	-200,000	-0,006	-0,069
-567,861	184,864	0,050	-0,054
-566,846	-200,000	0,000	-0,023
-565,831	626,119	-0,032	-0,058
-564,817	-5,009	0,072	0,036
-563,802	181,007	0,047	0,051
-562,788	401,805	-0,065	-0,101
-561,773	-158,672	0,103	-0,004
-560,758	213,973	-0,057	-0,066
-559,744	-200,000	0,003	0,054
-558,729	70,008	-0,186	0,140
-557,715	-104,404	-0,097	0,016
-556,700	-200,000	0,033	-0,135
-555,685	192,948	-0,066	-0,073
-554,671	800,000	0,075	-0,157
-553,656	29,485	0,018	0,011
-552,642	149,988	0,094	0,094
-551,627	-27,790	-0,070	0,030
-550,612	367,004	0,024	0,035
-549,598	-15,163	-0,053	-0,025
-548,583	-49,271	0,051	-0,018
-547,569	305,283	-0,074	-0,101
-546,554	80,097	0,024	0,019
-545,539	-44,505	0,037	-0,014
-544,525	-200,000	0,026	0,105
-543,510	800,000	0,023	-0,059
-542,496	120,192	-0,052	-0,047
-541,481	-126,484	-0,143	0,015
-540,466	800,000	-0,042	0,115
-539,452	732,135	-0,039	0,076
-538,437	92,299	0,095	0,078
-537,423	-130,961	0,097	-0,009
-536,408	35,077	-0,077	-0,049
-535,393	30,898	0,101	0,063
-534,379	-200,000	-0,002	-0,042
-533,364	-200,000	-0,004	0,022
-532,350	-200,000	-0,006	-0,043
-531,335	84,014	0,080	-0,064
-530,321	-200,000	-0,002	-0,035
-529,306	-83,035	-0,076	-0,018
-528,291	293,537	0,028	-0,038
-527,277	-39,601	-0,035	0,013
-526,262	764,469	-0,026	0,052
-525,248	-200,000	0,033	-0,146
-524,233	-200,000	-0,016	-0,069
-523,218	190,786	-0,100	0,110
-522,204	800,000	0,026	0,079
-521,189	-200,000	0,004	0,071
-520,175	-115,547	0,084	-0,011
-519,160	57,751	0,095	0,068
-518,145	69,641	-0,097	0,073
-517,131	222,168	0,044	0,052
-516,116	557,598	-0,071	0,125
-515,102	12,570	-0,086	0,048
-514,087	-126,021	-0,142	-0,015
-513,072	-21,677	-0,105	0,046
-512,058	88,209	0,020	-0,016
-511,043	49,241	0,036	0,024
-510,029	800,000	-0,021	0,063
-509,014	-118,503	0,104	-0,013
-507,999	800,000	-0,035	0,089
-506,985	800,000	-0,036	-0,105
-505,970	619,852	0,093	0,172
-504,956	-200,000	-0,007	0,032
-503,941	156,931	0,067	-0,068
-502,926	91,501	0,144	0,118
-501,912	-200,000	-0,033	0,146
-500,897	-200,000	0,016	0,079
-499,883	800,000	0,016	-0,039
-498,868	131,088	-0,069	-0,065
-497,853	272,837	0,027	-0,035
-496,839	231,350	0,015	-0,017
-495,824	800,000	-0,051	0,157
-494,810	74,186	0,062	0,048
-493,795	-200,000	0,005	-0,023
-492,781	197,222	-0,081	-0,090
-491,766	191,163	-0,149	-0,164
-490,751	233,971	-0,057	-0,069
-489,737	-158,785	-0,083	0,003
-488,722	739,019	-0,095	-0,187
-487,708	800,000	-0,003	-0,009
-486,693	800,000	-0,038	0,110
-485,678	87,320	0,073	0,059
-484,664	-118,800	0,057	-0,007
-483,649	213,428	0,033	0,038
-482,635	-16,452	0,084	0,039
-481,620	-74,676	-0,040	-0,010
-480,605	800,000	0,021	0,068
-479,591	800,000	-0,040	0,124
-478,576	-123,873	0,075	0,009
-477,562	322,578	0,042	0,059
-476,547	-69,908	0,086	0,024
-475,532	-200,000	-0,018	0,065
-474,518	-86,224	0,064	-0,014
-473,503	111,299	0,053	0,047
-472,489	-79,581	0,092	-0,022
-471,474	-200,000	0,010	0,033
-470,459	375,350	-0,006	0,008
-469,445	2,168	0,039	-0,020
-468,430	-200,000	0,001	0,109
-467,416	344,683	-0,057	-0,081
-466,401	800,000	-0,050	0,105
-465,386	-28,384	-0,139	-0,058
-464,372	-19,262	-0,094	0,042
-463,357	-83,128	-0,190	-0,044
-462,343	-34,719	0,098	0,039
-461,328	276,266	-0,063	0,082
-460,313	192,608	0,033	-0,036
-459,299	121,475	0,098	-0,089
-458,284	-163,884	0,088	-0,003
-457,270	76,573	-0,127	0,098
-456,255	-67,620	-0,158	-0,045
-455,241	35,875	0,016	0,010
-454,226	800,000	0,029	-0,068
-453,211	-200,000	-0,005	0,045
-452,197	-200,000	0,012	0,071
-451,182	55,504	0,192	-0,135
-450,168	800,000	0,016	0,037
-449,153	52,895	0,086	-0,059
-448,138	-142,565	0,093	0,007
-447,124	-68,099	-0,068	0,019
-446,109	-45,418	-0,134	-0,048
-445,095	281,480	0,124	0,162
-444,080	-79,278	0,074	-0,018
-443,065	800,000	0,020	0,042
-442,051	434,782	-0,060	-0,095
-441,036	-54,359	0,043	0,014
-440,022	-200,000	0,006	-0,111
-439,007	318,576	0,041	0,056
-437,992	-200,000	-0,008	-0,036
-436,978	-64,741	-0,025	-0,007
-435,963	7,907	-0,088	-0,048
-434,949	263,596	-0,124	0,157
-433,934	-20,310	-0,160	-0,071
-432,919	-200,000	-0,021	0,106
-431,905	764,559	-0,029	-0,057
-430,890	-200,000	0,002	0,159
-429,876	-74,422	0,068	0,018
-428,861	-50,747	-0,082	-0,028
-427,846	-200,000	0,001	-0,012
-426,832	186,709	-0,040	0,043
-425,817	241,249	-0,097	-0,118
-424,803	-111,415	0,142	0,021
-423,788	-200,000	0,014	0,152
-422,773	-82,871	0,102	0,024
-421,759	43,274	0,067	-0,045
-420,744	-5,296	0,054	-0,027
-419,730	-30,648	0,126	-0,052
-418,715	-131,523	-0,118	0,011
-417,701	800,000	-0,059	-0,151
-416,686	-48,811	0,107	0,037
-415,671	-200,000	-0,004	0,112
-414,657	-46,339	-0,114	0,040
-413,642	-170,468	0,023	-0,001
-412,628	-0,681	0,091	-0,047
-411,613	800,000	0,030	-0,086
-410,598	-200,000	0,015	-0,069
-409,584	308,627	0,025	0,033
-408,569	-179,148	-0,031	0,000
-407,555	800,000	0,044	0,101
-406,540	-111,616	0,020	0,003
-405,525	-62,874	-0,197	-0,059
-404,511	-200,000	0,014	0,107
-403,496	44,568	0,077	-0,051
-402,482	47,316	-0,036	-0,024
-401,467	525,219	-0,018	0,030
-400,452	99,001	-0,059	0,049
-399,438	-16,261	0,180	-0,083
-398,423	306,833	0,058	0,079
-397,409	-25,968	-0,121	0,051
-396,394	305,893	-0,058	0,078
-395,379	-177,274	-0,038	-0,001
-394,365	-13,102	0,152	0,071
-393,350	-148,637	0,040	0,002
-392,336	-56,061	0,077	0,025
-391,321	-14,855	0,051	0,024
-390,306	-200,000	0,003	-0,079
-389,292	-17,538	-0,122	-0,056
-388,277	28,366	-0,005	-0,003
-387,263	478,936	0,107	0,177
-386,248	-44,245	-0,023	0,008
-385,233	-200,000	0,034	-0,116
-384,219	10,590	0,102	0,057
-383,204	-131,993	-0,192	-0,018
-382,190	15,766	0,096	0,055
-381,175	-12,179	0,137	-0,065
-380,160	-83,897	0,046	-0,011
-379,146	-200,000	-0,020	0,097
-378,131	30,866	-0,135	-0,084
-377,117	-26,569	0,071	-0,030
-376,102	-144,167	-0,143	-0,010
-375,088	224,885	-0,079	0,093
-374,073	-14,663	0,112	0,052
-373,058	-200,000	-0,008	0,111
-372,044	-19,425	0,127	-0,057
-371,029	-3,688	-0,079	0,039
-370,015	273,446	-0,101	0,130
-369,000	-200,000	-0,012	-0,107
-367,985	-200,000	-0,015	-0,101
-366,971	-141,593	-0,145	0,010
-365,956	-74,854	0,077	-0,020
-364,942	-200,000	0,031	0,195
-363,927	-200,000	-0,015	-0,075
-362,912	292,620	0,046	0,061
-361,898	-200,000	-0,003	-0,048
-360,883	39,824	-0,011	0,007
-359,869	125,713	0,082	-0,075
-358,854	800,000	0,095	-0,206
-357,839	95,837	-0,014	0,012
-356,825	800,000	0,046	0,123
-355,810	6,364	-0,104	0,056
-354,796	-46,569	-0,050	0,018
-353,781	341,961	-0,015	0,022
-352,766	48,965	0,020	-0,014
-351,752	188,808	0,078	0,085
-350,737	-114,654	0,072	0,010
-349,723	-129,845	0,144	0,014
-348,708	92,996	-0,085	0,070
-347,693	142,130	-0,088	0,085
-346,679	-200,000	0,025	0,079
-345,664	-78,209	-0,123	-0,030
-344,650	217,220	0,043	-0,050
-343,635	-120,243	-0,250	-0,031
-342,620	37,089	0,077	0,050
-341,606	29,438	0,108	0,066
-340,591	60,260	-0,086	-0,062
-339,577	800,000	-0,029	-0,076
-338,562	393,920	-0,032	-0,048
-337,548	-166,996	-0,035	-0,001
-336,533	-134,379	0,045	-0,004
-335,518	-48,712	0,142	0,049
-334,504	222,749	-0,064	0,075
-333,489	-200,000	-0,008	0,046
-332,475	72,637	-0,013	0,010
-331,460	-136,893	-0,111	-0,009
-330,445	-46,485	0,114	0,040
-329,431	0,700	-0,050	0,026
-328,416	-151,998	0,055	-0,003
-327,402	401,295	0,096	0,147
-326,387	-200,000	0,022	-0,086
-325,372	424,030	-0,107	0,166
-324,358	800,000	-0,018	0,042
-323,343	345,912	0,052	-0,074
-322,329	-61,969	-0,080	0,024
-321,314	293,336	0,062	0,083
-320,299	709,958	-0,112	0,216
-319,285	-24,232	-0,064	0,027
-318,270	66,153	-0,036	0,027
-317,256	-84,004	-0,039	0,009
-316,241	-0,778	-0,112	-0,057
-315,226	-115,095	-0,032	0,004
-314,212	-25,576	0,201	0,086
-313,197	-68,627	-0,076	0,021
-312,183	-20,993	0,194	0,086
-311,168	-23,906	0,044	-0,019
-310,153	236,824	0,033	-0,039
-309,139	45,098	0,054	0,036
-308,124	48,633	0,121	-0,082
-307,110	114,472	0,051	0,045
-306,095	452,170	-0,087	0,139
-305,080	96,711	0,077	-0,063
-304,066	-200,000	0,005	0,044
-303,051	170,841	-0,108	-0,112
-302,037	-200,000	-0,001	-0,051
-301,022	-107,084	0,087	0,014
-300,008	800,000	-0,032	-0,096
-298,993	-110,985	-0,034	0,005
-297,978	-105,948	0,058	-0,009
-296,964	-62,090	0,055	-0,016
-295,949	-200,000	0,005	-0,027
-294,935	-61,111	-0,053	-0,016
-293,920	800,000	-0,056	0,138
-292,905	800,000	0,037	-0,100
-291,891	457,829	-0,106	0,171
-290,876	-139,108	0,092	-0,007
-289,862	-200,000	-0,012	0,051
-288,847	325,355	-0,091	0,126
-287,832	-127,440	-0,072	-0,007
-286,818	32,949	0,032	0,020
-285,803	274,424	-0,083	0,107
-284,789	800,000	-0,049	0,131
-283,774	-200,000	0,019	0,086
-282,759	800,000	0,026	0,073
-281,745	100,545	-0,076	-0,064
-280,730	800,000	-0,070	-0,155
-279,716	248,030	0,043	0,053
-278,701	800,000	0,024	-0,050
-277,686	52,781	0,101	0,069
-276,672	548,959	0,078	-0,136
-275,657	104,991	0,064	0,054
-274,643	52,489	0,139	0,096
-273,628	739,997	-0,066	-0,129
-272,613	-187,332	-0,052	0,000
-271,599	100,578	0,038	-0,032
-270,584	-25,940	0,149	0,063
-269,570	-45,719	-0,051	0,018
-268,555	-37,162	-0,164	-0,063
-267,540	-124,312	0,053	-0,006
-266,526	800,000	0,033	-0,085
-265,511	27,407	0,048	-0,029
-264,497	-200,000	0,032	-0,122
-263,482	-200,000	-0,002	0,054
-262,467	9,932	-0,057	0,031
-261,453	800,000	-0,029	0,068
-260,438	239,457	0,030	0,037
-259,424	-113,753	-0,143	-0,020
-258,409	-200,000	-0,018	-0,153
-257,395	3,563	-0,020	0,011
-256,380	465,062	-0,018	0,029
-255,365	-52,293	-0,116	-0,038
-254,351	-25,850	0,041	-0,017
-253,336	-83,751	-0,104	0,024
-252,322	558,591	-0,055	-0,096
-251,307	800,000	0,014	-0,037
-250,292	800,000	-0,029	0,058
-249,278	-87,533	-0,041	0,009
-248,263	-200,000	0,011	0,107
-247,249	-65,345	-0,041	-0,012
-246,234	-103,382	0,077	-0,013
-245,219	-142,690	0,039	-0,003
-244,205	231,370	0,068	0,081
-243,190	-98,467	0,042	0,008
-242,176	-76,884	-0,031	0,008
-241,161	-14,114	0,094	-0,044
-240,146	-200,000	-0,002	0,085
-239,132	-200,000	-0,005	0,089
-238,117	-149,997	-0,054	-0,003
-237,103	-200,000	-0,020	-0,202
-236,088	800,000	-0,026	-0,077
-235,073	-200,000	0,022	0,123
-234,059	43,084	0,058	0,038
-233,044	-200,000	0,028	-0,113
-232,030	304,332	0,025	0,034
-231,015	412,253	0,023	0,036
-230,000	800,000	-0,042	-0,118
-228,986	-61,895	-0,064	0,019
-227,971	800,000	0,029	-0,061
-226,957	-200,000	-0,028	-0,112
-225,942	-11,812	-0,123	-0,058
-224,927	-73,568	-0,065	-0,017
-223,913	181,250	0,050	-0,053
-222,898	39,997	-0,111	-0,072
-221,884	261,056	0,037	-0,046
-220,869	800,000	0,023	-0,067
-219,855	335,637	-0,043	0,060
-218,840	-114,262	0,063	0,009
-217,825	450,631	0,047	-0,076
-216,811	-200,000	-0,014	0,069
-215,796	800,000	-0,065	-0,142
-214,782	-115,740	-0,095	-0,013
-213,767	325,366	0,048	0,066
-212,752	-173,080	0,188	0,004
-211,738	-200,000	0,004	0,117
-210,723	-46,683	-0,041	0,014
-209,709	282,349	-0,037	-0,048
-208,694	800,000	0,030	-0,072
-207,679	267,051	-0,052	-0,065
-206,665	135,497	0,058	-0,055
-205,650	198,923	0,086	0,095
-204,636	-38,172	0,087	0,033
-203,621	-200,000	0,007	-0,068
-202,606	91,193	-0,122	0,099
-201,592	-124,016	-0,095	0,011
-200,577	-123,783	0,135	-0,015
-199,563	726,925	-0,058	-0,112
-198,548	-38,591	0,065	-0,025
-197,533	105,688	0,051	0,043
-196,519	-133,941	-0,093	-0,008
-195,504	-25,604	-0,060	0,026
-194,490	664,928	0,034	-0,063
-193,475	14,653	-0,123	-0,069
-192,460	-200,000	0,011	-0,047
-191,446	498,552	-0,034	0,057
-190,431	275,273	-0,018	-0,023
-189,417	65,345	0,105	0,077
-188,402	79,080	0,086	0,066
-187,387	103,932	0,069	-0,058
-186,373	-47,705	-0,112	-0,039
-185,358	-200,000	0,016	-0,063
-184,344	134,683	0,049	-0,046
-183,329	45,014	0,032	-0,021
-182,315	593,165	0,048	-0,085
-181,300	31,834	0,104	0,064
-180,285	-3,469	0,022	0,011
-179,271	90,132	0,080	0,065
-178,256	139,263	0,110	-0,104
-177,242	800,000	0,051	-0,104
-176,227	-200,000	0,023	-0,148
-175,212	800,000	-0,012	0,028
-174,198	75,696	-0,040	0,030
-173,183	-8,094	0,095	-0,046
-172,169	85,766	-0,047	0,037
-171,154	62,383	0,032	0,023
-170,139	800,000	-0,041	-0,093
-169,125	-200,000	-0,008	0,027
-168,110	-200,000	-0,007	0,039
-167,096	-122,032	-0,028	0,003
-166,081	800,000	-0,057	0,135
-165,066	-0,552	0,048	0,024
-164,052	338,506	-0,067	-0,094
-163,037	10,473	-0,054	0,029
-162,023	-89,224	-0,083	0,018
-161,008	119,933	0,136	-0,121
-159,993	414,020	0,035	-0,053
-158,979	-28,613	-0,118	-0,049
-157,964	141,843	-0,038	0,037
-156,950	112,349	-0,166	-0,145
-155,935	7,416	0,027	-0,014
-154,920	800,000	0,030	0,075
-153,906	198,412	0,032	0,035
-152,891	-200,000	0,029	-0,109
-151,877	257,240	-0,068	0,084
-150,862	-124,370	-0,025	0,003
-149,847	800,000	0,043	-0,112
-148,833	800,000	0,016	0,045
-147,818	800,000	-0,029	0,060
-146,804	800,000	0,049	0,156
-145,789	-56,155	-0,066	0,021
-144,775	-200,000	0,001	-0,091
-143,760	800,000	0,031	0,095
-142,745	361,923	-0,081	0,118
-141,731	1,985	0,084	-0,044
-140,716	395,493	-0,060	0,090
-139,702	30,276	-0,015	-0,009
-138,687	418,337	0,053	-0,082
-137,672	-200,000	-0,002	-0,115
-136,658	119,416	-0,036	-0,032
-135,643	-185,779	-0,106	-0,001
-134,629	65,073	0,033	-0,024
-133,614	-17,607	-0,094	-0,042
-132,599	5,762	0,112	0,059
-131,585	227,258	0,072	-0,084
-130,570	-58,263	-0,075	0,023
-129,556	-103,599	-0,121	0,020
-128,541	117,453	0,122	-0,108
-127,526	-46,122	-0,070	0,025
-126,512	-45,030	-0,075	-0,027
-125,497	-200,000	-0,003	0,058
-124,483	31,283	-0,089	0,055
-123,468	217,675	-0,009	0,011
-122,453	-200,000	0,013	-0,154
-121,439	460,603	-0,023	-0,037
-120,424	22,251	-0,065	-0,038
-119,410	538,311	0,013	0,023
-118,395	246,221	-0,077	0,093
-117,380	173,334	0,074	0,076
-116,366	283,686	-0,058	-0,075
-115,351	41,053	-0,051	0,033
-114,337	-200,000	0,034	-0,123
-113,322	-9,021	0,070	-0,033
-112,307	-28,702	-0,115	0,047
-111,293	268,110	0,029	-0,036
-110,278	270,760	0,068	0,086
-109,264	137,313	-0,082	-0,077
-108,249	800,000	-0,061	-0,153
-107,234	800,000	-0,074	-0,151
-106,220	454,566	-0,035	-0,056
-105,205	410,166	0,019	0,028
-104,191	572,371	0,027	0,047
-103,176	-88,843	0,103	-0,022
-102,162	646,690	-0,042	-0,078
-101,147	327,453	-0,023	0,031
-100,132	-200,000	-0,001	0,101
-99,118	-138,084	0,113	-0,009
-98,103	310,785	0,033	0,044
-97,089	-102,945	0,051	-0,009
-96,074	444,876	0,061	0,097
-95,059	-200,000	-0,005	-0,128
-94,045	189,033	0,035	0,037
-93,030	675,386	-0,024	0,045
-92,016	96,170	0,060	-0,049
-91,001	52,201	0,066	0,045
-89,986	229,283	0,087	0,101
-88,972	-134,532	-0,057	0,005
-87,957	-28,535	0,103	-0,042
-86,943	-200,000	0,003	-0,093
-85,928	389,392	-0,050	-0,075
-84,913	-200,000	-0,007	0,075
-83,899	-200,000	0,001	0,080
-82,884	162,445	-0,074	0,074
-81,870	-200,000	-0,012	0,042
-80,855	56,152	0,049	0,034
-79,840	-15,922	-0,046	-0,021
-78,826	-200,000	-0,002	-0,017
-77,811	-200,000	-0,020	-0,082
-76,797	646,471	0,017	-0,031
-75,782	-200,000	0,034	0,113
-74,767	78,209	-0,062	-0,047
-73,753	534,033	-0,038	0,064
-72,738	84,893	0,106	0,083
-71,724	771,749	-0,035	0,069
-70,709	334,046	-0,084	-0,117
-69,694	4,403	-0,057	-0,030
-68,680	-123,770	-0,102	-0,011
-67,665	52,851	-0,018	-0,012
-66,651	41,624	0,075	-0,048
-65,636	-200,000	0,014	0,073
-64,622	-200,000	-0,013	0,090
-63,607	-200,000	0,008	-0,057
-62,592	-200,000	0,001	-0,042
-61,578	-200,000	0,004	-0,015
-60,563	173,680	0,034	0,035
-59,549	800,000	0,069	0,142
-58,534	10,922	-2,111	-1,152
-57,519	-200,000	-0,037	-0,811
-56,505	-200,000	-1,387	-5,078
-55,490	42,123	1,022	0,664
-54,476	800,000	5,341	12,132
-53,461	-200,000	18,349	295,967
-52,446	800,000	731,122	2234,136
-51,432	527,881	1644,480	2788,798
-50,417	107,158	1632,942	1389,742
-49,403	71,198	1284,158	952,871
-48,388	30,245	1024,978	625,360
-47,373	19,792	986,895	567,769
-46,359	17,735	974,464	553,879
-45,344	14,568	970,647	541,365
-44,330	14,915	968,977	541,543
-43,315	14,320	967,244	538,619
-42,300	14,239	966,237	537,773
-41,286	14,240	965,284	537,224
-40,271	14,271	964,345	536,780
-39,257	14,302	963,341	536,301
-38,242	14,314	962,448	535,821
-37,227	14,266	961,889	535,335
-36,213	14,286	960,808	534,777
-35,198	14,264	959,884	534,167
-34,184	14,331	959,076	533,913
-33,169	14,259	958,258	533,204
-32,154	14,371	957,120	532,912
-31,140	14,301	956,557	532,353
-30,125	14,329	955,482	531,822
-29,111	14,307	954,850	531,380
-28,096	14,306	954,110	530,943
-27,082	14,303	953,438	530,539
-26,067	14,298	952,907	530,205
-25,052	14,218	952,215	529,542
-24,038	14,287	951,362	529,269
-23,023	14,286	950,606	528,825
-22,009	14,325	950,087	528,639
-20,994	14,283	949,476	528,142
-19,979	14,273	948,947	527,797
-18,965	14,238	948,298	527,303
-17,950	14,277	947,705	527,075
-16,936	14,207	947,036	526,460
-15,921	14,224	946,338	526,105
-14,906	14,219	945,507	525,607
-13,892	14,182	945,034	525,207
-12,877	14,158	944,413	524,764
-11,863	14,121	943,650	524,203
-10,848	14,148	943,228	524,033
-9,833	14,247	942,701	524,033
-8,819	14,233	942,026	523,592
-7,804	14,162	941,537	523,074
-6,790	14,224	940,628	522,745
-5,775	14,214	940,152	522,427
-4,760	14,183	939,580	521,993
-3,746	14,193	939,045	521,705
-2,731	14,055	938,309	520,841
-1,717	14,060	937,497	520,386
-0,702	13,984	936,959	519,826
0,313	13,823	936,377	519,781
1,327	17,327	934,133	529,486
2,342	26,568	786,367	469,940
3,356	22,803	442,006	258,586
4,371	-6,834	294,589	142,835
5,386	-10,903	276,521	130,219
6,400	-12,184	270,603	126,236
7,415	-12,339	268,396	125,054
8,429	-12,363	266,991	124,366
9,444	-12,453	266,167	123,889
10,459	-12,337	265,666	123,749
11,473	-12,652	264,875	123,085
12,488	-12,818	264,416	122,711
13,502	-12,807	263,721	122,388
14,517	-12,763	263,310	122,226
15,531	-12,580	262,850	122,165
16,546	-12,354	262,489	122,189
17,561	-12,574	262,100	121,800
18,575	-12,542	261,875	121,714
19,590	-12,729	261,545	121,383
20,604	-12,534	261,323	121,443
21,619	-12,446	260,915	121,320
22,634	-12,657	260,470	120,915
23,648	-12,573	260,180	120,844
24,663	-12,575	259,899	120,701
25,677	-12,832	259,763	120,399
26,692	-12,628	259,416	120,408
27,707	-12,735	259,288	120,243
28,721	-12,723	258,982	120,101
29,736	-12,693	258,572	119,927
30,750	-12,698	258,289	119,781
31,765	-12,633	257,975	119,682
32,780	-12,694	257,776	119,525
33,794	-12,618	257,610	119,505
34,809	-12,665	257,343	119,329
35,823	-12,786	257,013	119,059
36,838	-12,750	256,896	119,026
37,853	-12,941	256,655	118,736
38,867	-12,944	256,457	118,631
39,882	-12,719	256,120	118,661
40,896	-12,563	256,001	118,732
41,911	-12,769	255,735	118,419
42,926	-12,909	255,574	118,211
43,940	-12,791	255,211	118,135
44,955	-12,769	255,040	118,065
45,969	-12,897	254,738	117,803
46,984	-13,175	254,699	117,534
47,999	-13,023	254,344	117,491
49,013	-13,049	253,900	117,253
50,028	-13,405	253,758	116,869
51,042	-13,585	253,597	116,629
52,057	-13,375	253,140	116,589
53,071	-13,452	253,214	116,547
54,086	-13,257	252,878	116,550
55,101	-13,201	252,732	116,520
56,115	-13,036	252,590	116,586
57,130	-12,655	252,510	116,867
58,144	-12,604	252,443	116,869
59,159	-12,462	252,040	116,793
60,174	-12,540	251,684	116,552
61,188	-12,538	251,586	116,498
62,203	-12,537	251,471	116,435
63,217	-12,523	251,174	116,299
64,232	-12,545	250,948	116,165
65,247	-12,398	250,657	116,145
66,261	-12,865	250,619	115,719
67,276	-12,952	250,445	115,555
68,290	-12,861	249,963	115,399
69,305	-13,109	249,878	115,139
70,320	-12,779	249,504	115,236
71,334	-12,826	249,417	115,146
72,349	-12,552	249,312	115,319
73,363	-12,563	249,015	115,162
74,378	-12,403	248,729	115,155
75,393	-12,687	248,554	114,824
76,407	-12,684	248,524	114,803
77,422	-12,570	248,307	114,788
78,436	-12,742	248,112	114,542
79,451	-12,655	247,757	114,442
80,466	-12,721	247,615	114,311
81,480	-12,643	247,205	114,176
82,495	-12,808	247,205	114,028
83,509	-12,721	246,937	113,967
84,524	-12,773	246,826	113,862
85,539	-13,048	246,688	113,557
86,553	-12,980	246,369	113,457
87,568	-12,813	246,163	113,493
88,582	-12,911	246,002	113,326
89,597	-12,824	245,779	113,286
90,611	-12,605	245,722	113,432
91,626	-12,700	245,560	113,268
92,641	-12,788	245,415	113,118
93,655	-12,794	245,142	112,977
94,670	-12,657	244,810	112,927
95,684	-12,599	244,588	112,864
96,699	-12,942	244,543	112,548
97,714	-12,838	244,413	112,564
98,728	-12,822	244,123	112,434
99,743	-12,776	243,978	112,395
100,757	-12,889	243,693	112,161
101,772	-12,991	243,537	111,994
102,787	-12,850	243,363	112,021
103,801	-13,024	243,323	111,848
104,816	-12,914	243,071	111,813
105,830	-12,624	243,015	112,017
106,845	-12,554	242,712	111,925
107,860	-12,568	242,422	111,770
108,874	-12,663	242,399	111,671
109,889	-12,842	242,179	111,413
110,903	-12,588	241,672	111,377
111,918	-12,855	241,733	111,177
112,933	-12,725	241,656	111,238
113,947	-12,720	241,360	111,096
114,962	-12,726	241,233	111,022
115,976	-12,690	241,025	110,946
116,991	-12,693	240,762	110,813
118,006	-12,802	240,804	110,734
119,020	-12,678	240,442	110,658
120,035	-12,724	240,414	110,599
121,049	-12,661	240,268	110,573
122,064	-12,612	240,082	110,517
123,079	-12,556	239,861	110,451
124,093	-12,683	239,652	110,242
125,108	-12,956	239,408	109,898
126,122	-13,055	239,166	109,697
127,137	-12,919	238,948	109,698
128,151	-12,973	238,770	109,562
129,166	-12,930	238,633	109,525
130,181	-12,965	238,295	109,331
131,195	-12,971	238,255	109,299
132,210	-12,850	238,076	109,304
133,224	-12,554	237,873	109,439
134,239	-12,644	237,782	109,315
135,254	-12,743	237,646	109,163
136,268	-12,651	237,378	109,104
137,283	-13,027	237,240	108,730
138,297	-13,135	236,895	108,475
139,312	-12,962	236,686	108,508
140,327	-12,828	236,701	108,613
141,341	-12,651	236,603	108,699
142,356	-12,422	236,517	108,834
143,370	-12,412	236,224	108,697
144,385	-12,254	236,062	108,739
145,400	-12,470	235,924	108,493
146,414	-12,539	235,806	108,374
147,429	-12,534	235,582	108,265
148,443	-12,852	235,415	107,926
149,458	-12,576	235,303	108,084
150,473	-12,550	235,077	107,991
151,487	-12,830	234,924	107,690
152,502	-12,632	234,765	107,765
153,516	-12,443	234,484	107,775
154,531	-12,245	234,286	107,831
155,546	-12,601	234,108	107,459
156,560	-12,417	233,999	107,544
157,575	-12,623	233,825	107,292
158,589	-12,598	233,682	107,237
159,604	-12,403	233,427	107,263
160,619	-12,128	233,419	107,467
161,633	-12,347	233,192	107,180
162,648	-12,305	233,085	107,155
163,662	-12,494	232,997	106,956
164,677	-12,584	232,965	106,862
165,692	-12,496	232,540	106,726
166,706	-12,353	232,444	106,784
167,721	-12,501	232,482	106,676
168,735	-12,447	232,230	106,594
169,750	-12,530	232,014	106,420
170,764	-12,568	231,974	106,362
171,779	-12,585	231,733	106,229
172,794	-12,382	231,579	106,308
173,808	-12,654	231,360	105,986
174,823	-13,055	231,155	105,569
175,837	-13,125	230,891	105,385
176,852	-12,761	230,859	105,644
177,867	-12,559	230,696	105,717
178,881	-12,788	230,653	105,510
179,896	-12,532	230,433	105,599
180,910	-12,449	230,278	105,583
181,925	-12,456	230,071	105,473
182,940	-12,568	230,021	105,354
183,954	-12,383	229,883	105,424
184,969	-12,423	229,724	105,312
185,983	-12,438	229,629	105,247
186,998	-12,063	229,458	105,448
188,013	-12,376	229,326	105,137
189,027	-12,096	229,047	105,215
190,042	-12,315	228,804	104,926
191,056	-12,348	228,913	104,941
192,071	-12,365	228,764	104,851
193,086	-12,404	228,399	104,644
194,100	-12,334	228,330	104,656
195,115	-12,444	227,701	104,274
196,129	-12,983	227,918	103,951
197,144	-7,595	229,630	108,880
198,159	-2,281	231,269	113,767
199,173	1,365	232,293	117,091
200,188	1,959	232,394	117,593
201,202	1,750	232,111	117,278
202,217	1,852	231,881	117,229
203,232	2,112	231,637	117,297
204,246	2,181	231,500	117,270
205,261	2,196	231,522	117,282
206,275	2,619	231,221	117,446
207,290	2,462	231,218	117,312
208,304	2,394	231,065	117,172
209,319	2,496	230,824	117,118
210,334	2,081	230,792	116,772
211,348	2,107	230,364	116,565
212,363	1,790	230,167	116,211
213,377	1,789	229,882	116,057
214,392	1,634	229,838	115,905
215,407	1,896	229,686	116,019
216,421	1,818	229,666	115,939
217,436	1,657	229,477	115,710
218,450	1,555	229,139	115,452
219,465	1,536	229,050	115,382
220,480	1,745	228,909	115,460
221,494	1,249	228,919	115,076
222,509	1,874	228,690	115,427
223,523	1,818	228,575	115,316
224,538	1,660	228,361	115,078
225,553	1,650	228,281	115,019
226,567	1,937	228,058	115,115
227,582	2,064	228,087	115,215
228,596	1,985	228,040	115,121
229,611	1,975	227,686	114,925
230,626	1,649	227,364	114,506
231,640	1,638	227,395	114,503
232,655	1,997	227,231	114,681
233,669	2,352	227,147	114,897
234,684	2,258	227,083	114,783
235,699	2,003	226,922	114,499
236,713	1,841	226,603	114,206
237,728	2,035	226,567	114,324
238,742	1,709	226,259	113,913
239,757	1,751	226,224	113,916
240,772	1,858	225,872	113,809
241,786	1,561	225,937	113,609
242,801	1,876	225,956	113,845
243,815	2,104	225,745	113,900
244,830	2,161	225,615	113,867
245,844	1,746	225,238	113,355
246,859	1,800	225,108	113,321
247,874	1,745	225,015	113,222
248,888	1,904	224,954	113,301
249,903	1,696	224,747	113,030
250,917	1,756	224,697	113,040
251,932	1,584	224,597	112,852
252,947	1,403	224,244	112,530
253,961	1,612	224,000	112,552
254,976	1,566	223,993	112,504
255,990	1,785	223,985	112,653
257,005	2,049	223,618	112,655
258,020	1,891	223,599	112,519
259,034	1,786	223,517	112,389
260,049	1,685	223,326	112,208
261,063	1,952	223,175	112,320
262,078	1,972	223,223	112,349
263,093	2,230	222,963	112,399
264,107	2,075	222,793	112,189
265,122	2,145	222,632	112,150
266,136	2,443	222,597	112,341
267,151	2,346	222,263	112,091
268,166	1,750	222,106	111,563
269,180	1,549	221,948	111,326
270,195	1,652	221,802	111,318
271,209	1,600	221,705	111,221
272,224	1,900	221,571	111,365
273,239	2,018	221,362	111,337
274,253	1,733	221,287	111,080
275,268	1,370	221,064	110,692
276,282	1,386	220,851	110,587
277,297	1,431	220,725	110,547
278,312	1,710	220,737	110,747
279,326	1,853	220,526	110,736
280,341	1,825	220,378	110,632
281,355	1,983	220,287	110,691
282,370	1,909	220,101	110,534
283,384	1,496	219,956	110,150
284,399	1,446	219,803	110,027
285,414	1,570	219,689	110,051
286,428	1,816	219,627	110,189
287,443	2,053	219,500	110,288
288,457	2,187	219,398	110,324
289,472	1,736	219,045	109,809
290,487	1,264	218,837	109,353
291,501	1,476	218,631	109,394
292,516	1,516	218,557	109,377
293,530	1,356	218,481	109,213
294,545	1,518	218,241	109,200
295,560	1,587	218,354	109,297
296,574	1,880	218,131	109,387
297,589	1,612	218,105	109,171
298,603	1,481	218,070	109,049
299,618	1,547	217,717	108,910
300,633	1,962	217,649	109,165
301,647	1,987	217,567	109,132
302,662	2,125	217,439	109,158
303,676	2,048	217,297	109,022
304,691	2,089	217,130	108,957
305,706	1,994	216,897	108,762
306,720	2,089	216,847	108,796
307,735	1,483	216,679	108,267
308,749	1,632	216,567	108,309
309,764	2,030	216,375	108,488
310,779	2,088	216,272	108,468
311,793	1,907	216,069	108,227
312,808	1,917	215,928	108,154
313,822	1,956	215,718	108,067
314,837	1,854	215,607	107,929
315,852	1,758	215,439	107,767
316,866	1,760	215,387	107,733
317,881	2,077	215,363	107,937
318,895	1,888	215,132	107,677
319,910	1,181	215,043	107,120
320,925	1,455	214,660	107,115
321,939	1,184	214,493	106,830
322,954	1,393	214,497	106,970
323,968	1,993	214,533	107,403
324,983	2,097	214,358	107,380
325,997	2,016	214,236	107,252
327,012	2,006	214,021	107,128
328,027	2,072	213,902	107,105
329,041	2,198	213,825	107,146
330,056	1,972	213,749	106,939
331,070	2,049	213,493	106,856
332,085	1,872	213,261	106,605
333,100	2,075	213,221	106,719
334,114	1,902	213,125	106,540
335,129	2,049	213,033	106,587
336,143	1,871	212,794	106,334
337,158	1,894	212,614	106,250
338,173	2,025	212,521	106,286
339,187	1,415	212,445	105,811
340,202	1,512	212,125	105,710
341,216	1,574	211,957	105,660
342,231	1,592	211,883	105,627
343,246	1,419	211,842	105,476
344,260	1,854	211,831	105,765
345,275	2,631	211,554	106,159
346,289	2,456	211,564	106,032
347,304	2,249	211,538	105,865
348,319	1,905	211,310	105,503
349,333	1,877	211,072	105,355
350,348	1,813	211,069	105,299
351,362	1,993	211,044	105,403
352,377	2,099	210,759	105,324
353,392	1,897	210,591	105,091
354,406	2,111	210,454	105,161
355,421	197,055	1316,800	1395,454
356,435	157,552	1451,557	1395,415
