DTS Sentinel unit serial number:	SN410029Multiplexer serial number:	ORYXHardware model number:	OX2-SRSoftware version number:	ORYX F/W v4,00 Oryx Data Collector v3.7.2.0data status	okinstallation	B6 Nyhavnadifferential loss correction	single-endedforward channel	channel 2reverse channel	N/Adate	2023/12/10time	17:20:08forward acquisition time	300,00reverse acquisition time	0,00gamma	499,1914k internal	0,3123k external	0,3123temperature offset calibration	1,0000default loss term (dB/km)	0,3820temperature slope calibration	1,0000multiplexer offset coefficient	1,0000multiplexer slope coefficient	1,0000fibre end	0,00T internal ref (°C)	22,41T ext. ref 1 (°C)	6,10T ext. ref 2 (°C)	6,11length (m)	temperature (°C)	Stokes	anti-Stokes-744,400	-200,000	-0,007	-0,088
-743,385	37,767	-0,228	0,151
-742,371	44,673	0,125	-0,086
-741,356	2,235	-0,130	0,070
-740,342	-200,000	0,006	0,095
-739,327	-124,745	-0,129	-0,015
-738,312	-30,246	0,138	-0,058
-737,298	140,132	-0,073	0,072
-736,283	-200,000	-0,004	-0,163
-735,269	-18,621	-0,111	0,051
-734,254	-200,000	-0,041	-0,151
-733,239	-98,393	-0,562	-0,106
-732,225	-4,423	0,241	0,124
-731,210	408,707	0,031	0,048
-730,196	-66,101	0,014	0,004
-729,181	800,000	0,028	-0,070
-728,167	41,053	-0,031	0,021
-727,152	800,000	0,013	0,041
-726,137	491,336	-0,065	0,112
-725,123	-200,000	-0,024	-0,250
-724,108	-40,234	0,093	-0,036
-723,094	-43,644	-0,077	-0,029
-722,079	-61,602	0,075	0,023
-721,064	25,127	-0,039	0,024
-720,050	-145,762	-0,051	0,003
-719,035	-200,000	-0,033	-0,138
-718,021	158,540	-0,112	-0,116
-717,006	-158,744	-0,172	-0,007
-715,991	800,000	-0,046	-0,116
-714,977	562,049	-0,031	-0,056
-713,962	-74,360	-0,163	-0,044
-712,948	492,832	0,056	-0,097
-711,933	-200,000	0,023	0,165
-710,918	219,965	-0,123	0,147
-709,904	800,000	-0,091	-0,212
-708,889	800,000	-0,086	-0,194
-707,875	41,945	0,034	0,023
-706,860	8,256	0,095	-0,053
-705,845	-200,000	-0,017	-0,068
-704,831	-50,747	0,081	-0,028
-703,816	673,203	0,060	-0,116
-702,802	156,058	-0,125	-0,128
-701,787	168,463	-0,007	0,007
-700,772	18,727	-0,146	-0,087
-699,758	363,528	-0,101	-0,151
-698,743	-94,437	-0,046	0,009
-697,729	-71,997	-0,105	-0,029
-696,714	-200,000	-0,020	-0,066
-695,699	352,011	-0,032	0,047
-694,685	-200,000	0,008	-0,180
-693,670	21,900	-0,182	-0,110
-692,656	167,794	-0,087	0,093
-691,641	314,840	0,030	0,042
-690,627	90,217	-0,052	-0,044
-689,612	273,869	-0,057	0,075
-688,597	-200,000	0,016	-0,151
-687,583	112,283	-0,065	-0,058
-686,568	800,000	-0,065	-0,210
-685,554	-200,000	-0,008	0,104
-684,539	-200,000	-0,015	0,114
-683,524	-74,326	0,161	-0,043
-682,510	155,151	-0,176	0,180
-681,495	90,267	-0,013	0,011
-680,481	496,057	0,072	-0,124
-679,466	10,898	-0,046	-0,026
-678,451	78,049	-0,080	0,064
-677,437	-200,000	0,003	0,041
-676,422	-200,000	-0,013	-0,079
-675,408	-86,653	-0,099	0,022
-674,393	336,634	0,016	0,023
-673,378	456,372	-0,051	0,085
-672,364	-200,000	-0,013	-0,257
-671,349	-200,000	0,027	0,089
-670,335	-143,345	-0,162	0,011
-669,320	634,604	0,051	0,096
-668,305	-139,410	-0,123	0,010
-667,291	-84,604	-0,116	0,027
-666,276	-45,251	0,013	0,005
-665,262	-200,000	-0,032	-0,128
-664,247	-33,211	-0,060	-0,025
-663,232	-200,000	-0,003	-0,173
-662,218	-200,000	0,001	0,010
-661,203	-15,501	0,118	-0,056
-660,189	-16,997	0,079	-0,037
-659,174	-128,712	0,089	-0,009
-658,159	442,037	-0,033	-0,054
-657,145	-110,147	0,141	0,022
-656,130	800,000	-0,045	0,140
-655,116	-200,000	-0,020	0,133
-654,101	-156,837	0,039	0,002
-653,086	-75,896	-0,096	0,025
-652,072	-45,607	0,046	0,017
-651,057	14,773	-0,153	-0,088
-650,043	23,035	-0,094	0,057
-649,028	-200,000	0,015	-0,139
-648,014	16,555	0,117	-0,068
-646,999	-200,000	-0,020	0,074
-645,984	-112,064	0,118	0,018
-644,970	24,341	-0,045	0,028
-643,955	42,347	-0,093	-0,063
-642,941	208,393	-0,036	-0,042
-641,926	-11,130	-0,094	0,046
-640,911	785,392	0,024	-0,050
-639,897	-200,000	-0,034	0,117
-638,882	-124,598	-0,106	0,012
-637,868	800,000	0,054	0,172
-636,853	-81,456	-0,106	0,026
-635,838	-200,000	-0,008	-0,115
-634,824	-33,509	-0,039	-0,016
-633,809	13,571	-0,092	0,053
-632,795	-16,771	0,099	0,046
-631,780	96,036	0,037	0,032
-630,765	122,063	-0,061	-0,056
-629,751	41,200	0,027	-0,018
-628,736	435,735	0,019	-0,030
-627,722	-200,000	-0,000	0,035
-626,707	-200,000	-0,001	0,038
-625,692	-200,000	-0,039	0,128
-624,678	-200,000	0,006	0,026
-623,663	-200,000	-0,002	0,120
-622,649	800,000	0,020	0,042
-621,634	165,970	-0,090	-0,094
-620,619	-131,449	-0,044	-0,004
-619,605	-128,765	0,044	0,005
-618,590	-186,224	-0,114	-0,001
-617,576	-200,000	-0,015	0,122
-616,561	-200,000	-0,013	-0,078
-615,546	549,098	-0,085	-0,151
-614,532	-102,720	0,059	-0,010
-613,517	23,942	-0,074	-0,045
-612,503	800,000	-0,019	0,052
-611,488	-200,000	0,012	0,138
-610,474	72,589	0,028	0,022
-609,459	385,362	-0,052	0,080
-608,444	800,000	-0,048	-0,152
-607,430	689,714	0,028	0,055
-606,415	800,000	0,026	-0,085
-605,401	-200,000	-0,033	-0,164
-604,386	425,896	0,028	0,045
-603,371	-200,000	-0,001	0,044
-602,357	-200,000	-0,016	0,134
-601,342	800,000	0,029	-0,075
-600,328	-200,000	0,012	-0,071
-599,313	800,000	-0,076	-0,161
-598,298	-200,000	-0,011	-0,108
-597,284	691,132	0,068	0,132
-596,269	-200,000	0,002	0,011
-595,255	64,496	-0,074	0,055
-594,240	-8,198	-0,102	-0,051
-593,225	117,629	0,034	0,031
-592,211	26,765	-0,062	0,039
-591,196	308,220	0,097	0,135
-590,182	-162,401	0,099	-0,004
-589,167	-106,097	0,086	-0,014
-588,152	541,178	-0,036	-0,064
-587,138	-27,387	-0,039	-0,017
-586,123	-200,000	0,028	-0,115
-585,109	624,030	-0,078	-0,146
-584,094	-200,000	0,023	-0,113
-583,079	-127,843	-0,038	-0,004
-582,065	-57,709	0,185	0,060
-581,050	-100,273	0,041	-0,007
-580,036	117,014	-0,140	-0,128
-579,021	-70,510	0,108	-0,030
-578,006	-200,000	0,009	-0,045
-576,992	196,493	-0,096	-0,109
-575,977	64,820	0,083	-0,062
-574,963	128,915	0,058	-0,055
-573,948	228,103	0,026	-0,031
-572,934	-107,579	0,145	-0,023
-571,919	302,196	0,018	-0,025
-570,904	-76,230	0,055	-0,014
-569,890	-34,809	0,047	-0,019
-568,875	-22,856	-0,066	-0,030
-567,861	-200,000	-0,022	-0,145
-566,846	-122,353	0,112	0,013
-565,831	81,823	-0,112	-0,090
-564,817	41,631	0,069	-0,046
-563,802	800,000	-0,028	0,061
-562,788	78,755	-0,157	-0,124
-561,773	102,559	0,017	-0,015
-560,758	-3,936	0,031	0,016
-559,744	-200,000	-0,052	-0,188
-558,729	-65,831	-0,156	0,046
-557,715	136,319	-0,089	0,086
-556,700	68,622	-0,045	-0,034
-555,685	-200,000	-0,001	-0,076
-554,671	800,000	-0,028	0,081
-553,656	-200,000	-0,006	0,096
-552,642	555,607	0,090	0,160
-551,627	221,637	0,016	0,019
-550,612	754,021	-0,046	-0,092
-549,598	-86,105	-0,026	-0,006
-548,583	448,473	-0,044	-0,071
-547,569	644,791	0,032	0,061
-546,554	800,000	-0,033	0,081
-545,539	-200,000	-0,016	-0,094
-544,525	13,569	0,046	0,026
-543,510	-46,735	-0,101	0,036
-542,496	800,000	-0,026	-0,072
-541,481	-200,000	0,012	-0,083
-540,466	-178,475	0,070	-0,001
-539,452	-200,000	-0,052	-0,189
-538,437	-200,000	-0,021	-0,072
-537,423	-73,438	0,057	-0,015
-536,408	-78,337	-0,043	-0,011
-535,393	800,000	-0,051	-0,115
-534,379	522,305	0,034	0,059
-533,364	-162,271	-0,194	-0,007
-532,350	-2,109	-0,058	0,030
-531,335	49,894	-0,071	0,050
-530,321	590,969	0,093	0,171
-529,306	11,990	-0,079	0,045
-528,291	-96,047	-0,051	-0,010
-527,277	175,573	0,059	-0,064
-526,262	253,705	-0,025	-0,032
-525,248	70,789	0,094	-0,072
-524,233	43,565	0,094	0,063
-523,218	47,392	-0,168	-0,116
-522,204	230,016	0,129	0,156
-521,189	-200,000	0,017	0,063
-520,175	643,849	-0,059	-0,111
-519,160	-200,000	-0,011	0,046
-518,145	257,505	-0,046	-0,059
-517,131	104,749	-0,022	0,019
-516,116	119,496	0,081	0,074
-515,102	-200,000	-0,009	0,045
-514,087	527,175	-0,025	-0,044
-513,072	790,013	0,012	-0,024
-512,058	-200,000	0,005	-0,050
-511,043	-200,000	-0,002	-0,018
-510,029	33,406	0,051	0,033
-509,014	-200,000	0,000	0,184
-507,999	-171,854	-0,081	-0,002
-506,985	81,996	0,100	-0,080
-505,970	74,268	0,114	-0,089
-504,956	800,000	0,037	-0,089
-503,941	274,426	0,076	-0,099
-502,926	-200,000	0,029	-0,114
-501,912	-200,000	0,000	0,097
-500,897	800,000	-0,028	0,084
-499,883	-14,972	-0,085	-0,040
-498,868	-200,000	0,001	0,009
-497,853	25,788	-0,046	0,029
-496,839	-200,000	0,022	0,100
-495,824	678,581	0,107	0,207
-494,810	185,547	-0,011	-0,012
-493,795	-200,000	-0,005	0,043
-492,781	-38,352	-0,076	0,029
-491,766	-126,015	-0,076	0,008
-490,751	149,908	0,073	0,073
-489,737	-200,000	0,006	0,034
-488,722	800,000	-0,081	0,179
-487,708	-120,806	-0,040	-0,005
-486,693	-200,000	0,034	0,149
-485,678	-160,362	0,073	0,003
-484,664	-200,000	0,020	0,101
-483,649	21,103	0,049	0,029
-482,635	-48,929	-0,007	0,002
-481,620	800,000	-0,062	0,131
-480,605	-200,000	-0,013	0,135
-479,591	193,926	-0,098	0,110
-478,576	-69,854	-0,045	-0,013
-477,562	-31,909	0,041	-0,017
-476,547	-38,200	-0,082	-0,032
-475,532	800,000	0,028	-0,089
-474,518	598,398	0,036	0,065
-473,503	-200,000	-0,010	0,072
-472,489	800,000	0,024	0,050
-471,474	578,962	0,054	0,097
-470,459	-72,098	-0,072	-0,019
-469,445	402,254	-0,041	-0,063
-468,430	-200,000	0,004	-0,059
-467,416	-200,000	0,007	0,101
-466,401	-81,608	0,023	0,005
-465,386	-64,628	0,112	0,033
-464,372	800,000	0,028	0,074
-463,357	173,268	0,098	-0,104
-462,343	-200,000	0,015	-0,049
-461,328	468,268	-0,096	-0,160
-460,313	-122,139	0,032	0,004
-459,299	-102,845	0,037	0,006
-458,284	-130,155	0,121	-0,012
-457,270	325,045	-0,043	0,061
-456,255	55,414	-0,086	0,061
-455,241	45,354	0,021	0,014
-454,226	-33,164	0,137	-0,056
-453,211	270,191	-0,034	0,045
-452,197	800,000	-0,019	0,060
-451,182	-200,000	0,017	-0,101
-450,168	733,402	-0,067	-0,133
-449,153	-200,000	0,012	-0,139
-448,138	406,956	0,063	-0,098
-447,124	800,000	0,034	-0,107
-446,109	-200,000	0,007	-0,166
-445,095	-58,895	-0,092	0,029
-444,080	-33,776	0,120	-0,048
-443,065	-69,480	0,110	-0,031
-442,051	3,893	-0,099	0,053
-441,036	569,839	-0,050	-0,090
-440,022	-200,000	-0,023	-0,109
-439,007	82,139	0,133	0,107
-437,992	116,075	0,111	0,100
-436,978	283,618	0,085	-0,112
-435,963	-112,047	0,086	0,013
-434,949	326,229	0,041	0,057
-433,934	-200,000	-0,009	0,041
-432,919	-200,000	-0,007	-0,063
-431,905	-55,132	-0,133	0,044
-430,890	800,000	0,036	-0,085
-429,876	496,070	0,030	0,052
-428,861	69,840	-0,074	0,056
-427,846	270,440	-0,079	0,103
-426,832	-200,000	0,006	-0,095
-425,817	-200,000	0,008	-0,124
-424,803	27,135	0,132	-0,082
-423,788	67,407	0,037	-0,028
-422,773	-15,866	0,093	-0,044
-421,759	34,250	0,151	-0,097
-420,744	-54,990	-0,200	0,066
-419,730	-200,000	-0,012	-0,166
-418,715	800,000	0,028	0,062
-417,701	-200,000	0,005	0,084
-416,686	-200,000	-0,011	0,152
-415,671	-55,897	0,149	0,049
-414,657	39,215	-0,090	0,059
-413,642	13,730	-0,130	-0,074
-412,628	13,818	0,034	-0,019
-411,613	769,226	-0,030	0,060
-410,598	127,092	-0,108	-0,101
-409,584	16,233	0,079	0,046
-408,569	46,295	-0,015	0,010
-407,555	-7,710	-0,134	0,067
-406,540	576,476	0,018	0,032
-405,525	-58,697	0,133	0,042
-404,511	800,000	0,046	-0,114
-403,496	-111,648	0,105	0,015
-402,482	-47,509	-0,068	-0,024
-401,467	-19,704	0,100	-0,045
-400,452	-200,000	0,006	-0,079
-399,438	-43,348	-0,027	-0,010
-398,423	-126,404	-0,073	0,008
-397,409	800,000	-0,019	-0,057
-396,394	-32,169	-0,093	-0,038
-395,379	-60,442	0,099	-0,031
-394,365	702,473	0,011	-0,021
-393,350	169,550	-0,052	0,055
-392,336	-117,604	-0,082	0,011
-391,321	2,439	-0,051	-0,027
-390,306	-112,187	0,130	-0,019
-389,292	8,386	-0,094	0,052
-388,277	800,000	-0,005	0,013
-387,263	800,000	0,068	0,166
-386,248	-103,845	0,074	-0,013
-385,233	800,000	0,037	0,083
-384,219	-51,850	0,004	-0,001
-383,204	133,553	0,126	0,120
-382,190	137,416	-0,124	-0,120
-381,175	417,434	0,050	-0,079
-380,160	-32,515	-0,079	0,032
-379,146	-151,191	0,126	-0,007
-378,131	91,064	0,088	-0,073
-377,117	-105,340	-0,142	-0,024
-376,102	800,000	0,023	-0,067
-375,088	-200,000	-0,033	0,206
-374,073	-200,000	-0,004	-0,060
-373,058	-115,597	0,083	-0,011
-372,044	229,173	0,051	-0,061
-371,029	-150,190	-0,062	-0,003
-370,015	-200,000	-0,012	0,056
-369,000	-48,372	-0,131	-0,046
-367,985	-200,000	0,021	-0,074
-366,971	-85,505	-0,062	0,014
-365,956	800,000	0,021	-0,047
-364,942	-200,000	-0,007	0,034
-363,927	446,270	-0,031	0,051
-362,912	800,000	-0,032	0,082
-361,898	419,111	-0,078	-0,124
-360,883	800,000	0,008	-0,019
-359,869	-200,000	0,008	-0,053
-358,854	-44,845	0,050	0,018
-357,839	62,822	0,221	0,162
-356,825	-114,589	-0,112	0,016
-355,810	663,811	-0,046	0,088
-354,796	800,000	-0,073	0,156
-353,781	-200,000	-0,020	0,067
-352,766	800,000	0,014	-0,032
-351,752	-13,606	-0,086	-0,041
-350,737	-119,032	-0,049	-0,006
-349,723	-200,000	-0,023	0,134
-348,708	800,000	0,053	0,135
-347,693	-148,555	0,020	0,001
-346,679	-200,000	0,003	-0,141
-345,664	-0,290	-0,084	-0,044
-344,650	56,698	-0,029	0,021
-343,635	85,682	-0,005	-0,004
-342,620	800,000	0,044	0,137
-341,606	114,892	-0,134	-0,120
-340,591	41,488	-0,036	0,024
-339,577	800,000	0,021	-0,051
-338,562	-200,000	0,019	-0,148
-337,548	-193,543	-0,103	-0,001
-336,533	-47,006	0,096	-0,034
-335,518	-96,826	0,099	-0,019
-334,504	30,240	-0,129	0,080
-333,489	-144,801	-0,169	-0,011
-332,475	-200,000	0,025	-0,091
-331,460	58,005	-0,142	-0,102
-330,445	18,767	-0,130	-0,076
-329,431	-60,006	0,090	0,028
-328,416	-200,000	0,001	0,090
-327,402	116,173	0,113	0,102
-326,387	800,000	-0,013	-0,031
-325,372	-117,337	-0,077	-0,010
-324,358	623,265	0,021	-0,040
-323,343	27,964	0,033	-0,020
-322,329	800,000	0,024	-0,063
-321,314	-200,000	-0,031	0,134
-320,299	705,730	-0,038	0,073
-319,285	-144,004	0,059	-0,004
-318,270	92,221	0,028	-0,023
-317,256	-200,000	0,013	-0,111
-316,241	-200,000	-0,008	-0,115
-315,226	16,517	0,053	0,031
-314,212	-200,000	0,000	-0,091
-313,197	357,412	-0,030	-0,044
-312,183	-59,648	0,047	-0,015
-311,168	-102,074	-0,071	-0,012
-310,153	800,000	0,043	0,131
-309,139	-2,415	-0,073	-0,037
-308,124	105,652	0,044	-0,038
-307,110	85,451	0,086	0,069
-306,095	-200,000	-0,000	0,091
-305,080	12,797	-0,090	0,051
-304,066	122,902	-0,047	0,044
-303,051	-156,328	-0,117	-0,005
-302,037	507,895	-0,040	-0,068
-301,022	107,857	0,165	0,144
-300,008	-173,740	0,172	0,004
-298,993	285,676	0,090	-0,120
-297,978	-0,127	0,093	0,048
-296,964	83,555	0,123	0,098
-295,949	-36,524	0,085	-0,033
-294,935	751,911	0,021	-0,042
-293,920	-73,622	0,109	-0,029
-292,905	-6,091	-0,049	0,024
-291,891	-86,800	0,082	0,018
-290,876	327,507	-0,063	-0,089
-289,862	-200,000	0,009	-0,127
-288,847	21,917	-0,030	-0,018
-287,832	333,486	-0,068	-0,096
-286,818	800,000	0,032	-0,077
-285,803	-139,685	0,117	0,009
-284,789	58,655	0,087	0,062
-283,774	800,000	0,024	0,071
-282,759	94,403	-0,071	0,059
-281,745	800,000	0,035	-0,071
-280,730	19,198	-0,152	0,089
-279,716	-53,727	-0,067	-0,022
-278,701	-200,000	0,020	0,129
-277,686	29,368	0,132	0,082
-276,672	545,368	0,047	0,083
-275,657	291,473	-0,041	0,055
-274,643	800,000	0,051	-0,142
-273,628	-58,951	-0,097	0,031
-272,613	-200,000	0,020	-0,139
-271,599	-200,000	0,003	0,057
-270,584	292,306	-0,021	-0,028
-269,570	136,001	0,058	0,056
-268,555	-200,000	0,002	0,041
-267,540	231,395	0,103	-0,124
-266,526	-200,000	-0,002	0,020
-265,511	-200,000	-0,015	0,052
-264,497	-92,948	-0,041	0,008
-263,482	-200,000	-0,014	0,140
-262,467	-200,000	0,020	0,078
-261,453	344,980	0,066	0,095
-260,438	-200,000	-0,000	-0,017
-259,424	800,000	-0,050	-0,118
-258,409	-130,904	-0,068	-0,007
-257,395	800,000	-0,023	-0,048
-256,380	-178,845	0,105	-0,002
-255,365	800,000	0,094	0,227
-254,351	-64,419	0,124	0,037
-253,336	-61,920	-0,037	-0,011
-252,322	3,143	0,037	0,020
-251,307	728,604	0,050	0,098
-250,292	-11,458	-0,044	0,021
-249,278	62,681	-0,133	0,097
-248,263	800,000	-0,007	-0,017
-247,249	-76,986	-0,033	-0,008
-246,234	613,061	0,042	-0,078
-245,219	598,736	-0,015	-0,028
-244,205	-62,968	-0,085	-0,025
-243,190	-200,000	0,033	-0,122
-242,176	530,752	0,041	-0,071
-241,161	800,000	0,027	-0,082
-240,146	-30,290	-0,036	0,015
-239,132	-119,530	0,100	0,013
-238,117	-47,004	-0,012	0,004
-237,103	800,000	0,037	0,083
-236,088	-200,000	-0,004	0,039
-235,073	239,557	-0,054	-0,066
-234,059	747,539	-0,059	0,116
-233,044	-6,143	0,022	0,011
-232,030	-166,591	0,050	-0,001
-231,015	275,621	0,008	0,010
-230,000	333,011	0,063	-0,089
-228,986	148,877	-0,010	-0,010
-227,971	-200,000	-0,003	0,071
-226,957	147,893	-0,085	0,084
-225,942	-200,000	0,011	0,083
-224,927	-200,000	-0,036	0,124
-223,913	-200,000	0,008	0,098
-222,898	339,477	-0,007	0,010
-221,884	277,092	0,027	0,036
-220,869	-34,141	0,045	0,018
-219,855	772,760	-0,042	0,083
-218,840	86,439	0,080	0,064
-217,825	-200,000	-0,007	-0,048
-216,811	-26,044	-0,089	-0,038
-215,796	-84,177	-0,104	0,024
-214,782	-82,263	-0,143	-0,034
-213,767	800,000	0,034	0,097
-212,752	47,816	0,082	0,056
-211,738	222,262	-0,037	0,044
-210,723	170,023	0,113	0,118
-209,709	-200,000	0,005	-0,154
-208,694	-200,000	-0,005	0,108
-207,679	35,955	0,055	0,035
-206,665	-65,429	0,101	-0,029
-205,650	-104,233	0,132	0,022
-204,636	-94,372	-0,077	-0,015
-203,621	-73,998	-0,128	-0,034
-202,606	-200,000	0,017	0,088
-201,592	800,000	0,028	0,084
-200,577	303,285	0,047	-0,064
-199,563	-200,000	-0,002	-0,036
-198,548	40,858	0,115	0,076
-197,533	-200,000	0,037	0,130
-196,519	-130,481	-0,006	-0,001
-195,504	108,653	0,106	-0,092
-194,490	800,000	-0,051	-0,119
-193,475	-200,000	-0,017	-0,086
-192,460	-200,000	0,005	0,030
-191,446	-76,012	-0,151	-0,039
-190,431	73,070	0,080	0,061
-189,417	-28,254	-0,013	0,006
-188,402	-169,092	0,078	-0,002
-187,387	800,000	-0,040	-0,101
-186,373	-200,000	-0,033	-0,126
-185,358	800,000	-0,068	-0,150
-184,344	188,942	-0,023	-0,025
-183,329	800,000	0,031	-0,086
-182,315	12,747	0,088	0,050
-181,300	-13,729	0,024	0,011
-180,285	3,909	-0,151	0,080
-179,271	-97,785	-0,157	-0,029
-178,256	-31,338	-0,013	0,005
-177,242	327,570	0,097	0,136
-176,227	-24,046	-0,102	-0,044
-175,212	-200,000	-0,033	0,124
-174,198	-55,266	-0,199	0,065
-173,183	41,424	0,069	0,046
-172,169	-200,000	0,027	0,098
-171,154	20,473	0,027	0,016
-170,139	57,625	0,086	-0,061
-169,125	783,127	-0,057	0,114
-168,110	-200,000	0,014	-0,103
-167,096	-31,497	0,082	-0,033
-166,081	185,600	-0,072	-0,078
-165,066	-200,000	-0,016	0,068
-164,052	-200,000	0,020	-0,101
-163,037	119,479	0,101	-0,091
-162,023	68,924	-0,072	0,054
-161,008	800,000	0,043	-0,114
-159,993	723,288	-0,020	0,039
-158,979	-185,079	-0,027	-0,000
-157,964	87,792	-0,043	-0,034
-156,950	13,822	-0,032	0,018
-155,935	-200,000	0,005	0,024
-154,920	-90,895	-0,037	-0,008
-153,906	-200,000	0,005	-0,111
-152,891	503,583	0,057	-0,096
-151,877	179,429	-0,091	-0,097
-150,862	-62,691	-0,115	-0,034
-149,847	-59,012	-0,047	-0,015
-148,833	641,531	0,036	-0,067
-147,818	-108,861	-0,060	0,009
-146,804	-200,000	0,019	-0,076
-145,789	-54,395	0,075	-0,025
-144,775	-200,000	-0,014	-0,102
-143,760	-200,000	0,019	-0,152
-142,745	-0,069	-0,058	0,030
-141,731	87,913	-0,002	-0,002
-140,716	-200,000	-0,010	0,040
-139,702	-99,007	0,092	-0,017
-138,687	-200,000	0,002	0,136
-137,672	-80,223	0,017	0,004
-136,658	31,144	-0,096	-0,060
-135,643	154,946	0,074	0,074
-134,629	-200,000	0,007	-0,118
-133,614	250,359	-0,034	0,042
-132,599	471,446	-0,066	0,108
-131,585	15,135	0,083	-0,047
-130,570	-200,000	-0,017	-0,095
-129,556	173,404	-0,081	-0,085
-128,541	-61,008	-0,197	0,060
-127,526	154,659	0,055	-0,055
-126,512	91,695	0,026	0,021
-125,497	61,774	-0,049	0,036
-124,483	-200,000	0,010	0,122
-123,468	800,000	-0,034	-0,086
-122,453	800,000	0,111	-0,225
-121,439	-99,436	0,138	0,025
-120,424	110,444	-0,004	0,004
-119,410	-122,005	0,185	0,022
-118,395	-102,066	0,037	0,006
-117,380	800,000	-0,058	0,150
-116,366	-168,647	-0,087	-0,002
-115,351	800,000	-0,039	-0,079
-114,337	-200,000	0,002	-0,030
-113,322	128,234	0,057	0,053
-112,307	-200,000	0,006	0,067
-111,293	1,272	0,143	0,074
-110,278	-149,845	0,108	0,006
-109,264	-78,579	-0,084	-0,021
-108,249	-200,000	0,011	-0,117
-107,234	756,683	-0,030	-0,059
-106,220	-200,000	-0,004	0,076
-105,205	-200,000	0,017	0,057
-104,191	417,761	-0,075	0,116
-103,176	800,000	0,028	0,085
-102,162	-24,632	0,039	0,017
-101,147	-200,000	-0,012	0,050
-100,132	-200,000	-0,010	-0,039
-99,118	475,583	-0,076	-0,125
-98,103	-152,287	0,118	0,006
-97,089	28,013	0,094	0,057
-96,074	320,744	-0,064	-0,088
-95,059	46,128	-0,113	-0,076
-94,045	150,302	0,097	0,096
-93,030	-127,196	-0,108	-0,011
-92,016	-200,000	0,047	-0,157
-91,001	592,275	-0,010	0,017
-89,986	34,649	0,087	0,055
-88,972	351,712	0,027	0,039
-87,957	-200,000	-0,012	-0,142
-86,943	-170,471	0,040	-0,001
-85,928	59,790	-0,109	0,078
-84,913	203,192	-0,035	0,040
-83,899	-200,000	0,012	0,046
-82,884	-37,061	0,150	0,058
-81,870	-114,995	0,070	0,010
-80,855	327,532	0,056	0,078
-79,840	-106,070	-0,182	-0,029
-78,826	463,417	0,067	-0,109
-77,811	194,007	-0,090	-0,099
-76,797	800,000	0,034	0,078
-75,782	55,234	-0,062	-0,044
-74,767	-200,000	0,018	-0,106
-73,753	-200,000	0,012	-0,068
-72,738	120,910	0,063	0,056
-71,724	-200,000	0,013	0,049
-70,709	161,944	-0,048	-0,048
-69,694	123,883	-0,063	-0,058
-68,680	-94,015	0,039	-0,008
-67,665	642,753	0,038	0,070
-66,651	-200,000	-0,019	0,134
-65,636	-200,000	-0,008	-0,069
-64,622	-3,299	-0,114	0,058
-63,607	314,089	0,068	0,093
-62,592	563,599	-0,037	0,064
-61,578	-86,332	0,132	-0,029
-60,563	274,769	0,076	0,098
-59,549	-200,000	0,035	0,162
-58,534	-113,119	-1,427	-0,202
-57,519	618,884	-0,766	-1,403
-56,505	-200,000	-0,926	-4,245
-55,490	56,399	0,740	-0,521
-54,476	800,000	4,886	11,831
-53,461	-200,000	13,594	253,114
-52,446	-200,000	689,297	2262,143
-51,432	592,717	1622,443	2920,591
-50,417	119,687	1635,301	1470,243
-49,403	73,421	1289,234	978,214
-48,388	38,165	1024,415	660,263
-47,373	24,333	982,181	587,539
-46,359	23,600	971,827	578,917
-45,344	22,642	967,301	573,066
-44,330	22,597	965,910	572,074
-43,315	22,470	964,622	570,874
-42,300	22,459	963,481	570,141
-41,286	22,449	962,520	569,518
-40,271	22,376	961,650	568,743
-39,257	22,386	960,774	568,234
-38,242	22,387	959,763	567,617
-37,227	22,438	958,759	567,164
-36,213	22,331	958,073	566,391
-35,198	22,381	957,128	565,971
-34,184	22,435	956,397	565,693
-33,169	22,462	955,446	565,193
-32,154	22,442	954,741	564,689
-31,140	22,530	953,743	564,360
-30,125	22,496	952,914	563,738
-29,111	22,482	952,079	563,178
-28,096	22,431	951,510	562,654
-27,082	22,385	950,848	562,092
-26,067	22,467	949,986	561,823
-25,052	22,481	949,386	561,490
-24,038	22,456	948,641	560,947
-23,023	22,414	948,052	560,442
-22,009	22,509	947,407	560,344
-20,994	22,464	946,823	559,831
-19,979	22,466	946,146	559,416
-18,965	22,458	945,607	559,049
-17,950	22,492	944,788	558,651
-16,936	22,371	944,249	557,925
-15,921	22,340	943,517	557,373
-14,906	22,392	942,817	557,102
-13,892	22,334	942,354	556,621
-12,877	22,303	941,657	556,090
-11,863	22,251	941,089	555,565
-10,848	22,323	940,415	555,374
-9,833	22,401	940,019	555,365
-8,819	22,395	939,243	554,868
-7,804	22,355	938,809	554,462
-6,790	22,350	938,013	553,954
-5,775	22,364	937,540	553,697
-4,760	22,374	936,873	553,312
-3,746	22,302	936,363	552,761
-2,731	22,218	935,643	552,050
-1,717	22,184	935,006	551,543
-0,702	22,160	934,078	550,899
0,313	21,933	933,720	550,803
1,327	24,919	931,652	558,927
2,342	34,404	796,265	502,980
3,356	32,420	451,268	282,041
4,371	1,831	293,166	152,767
5,386	-2,697	274,092	138,540
6,400	-4,390	268,282	134,024
7,415	-4,814	265,830	132,398
8,429	-4,524	264,611	132,044
9,444	-4,269	263,707	131,813
10,459	-4,461	263,256	131,401
11,473	-4,601	262,577	130,923
12,488	-4,606	262,173	130,706
13,502	-4,801	261,513	130,190
14,517	-4,746	261,170	130,056
15,531	-4,637	260,800	129,959
16,546	-4,562	260,317	129,774
17,561	-4,554	259,989	129,606
18,575	-4,611	259,598	129,348
19,590	-4,785	259,275	129,021
20,604	-4,467	259,138	129,225
21,619	-4,713	258,736	128,794
22,634	-4,724	258,394	128,603
23,648	-4,751	258,068	128,405
24,663	-4,780	257,815	128,242
25,677	-4,698	257,582	128,187
26,692	-4,801	257,297	127,942
27,707	-4,683	257,179	127,976
28,721	-4,710	256,787	127,746
29,736	-4,820	256,590	127,540
30,750	-4,782	256,207	127,371
31,765	-4,823	256,097	127,269
32,780	-4,754	255,710	127,126
33,794	-4,679	255,615	127,134
34,809	-4,952	255,382	126,767
35,823	-4,955	255,129	126,627
36,838	-4,748	254,859	126,664
37,853	-4,892	254,693	126,443
38,867	-4,837	254,381	126,325
39,882	-4,984	254,329	126,160
40,896	-4,848	254,051	126,129
41,911	-4,754	253,667	126,009
42,926	-4,843	253,424	125,800
43,940	-4,882	253,258	125,673
44,955	-4,829	252,991	125,574
45,969	-4,912	252,776	125,384
46,984	-5,090	252,563	125,113
47,999	-5,355	252,339	124,761
49,013	-5,406	252,042	124,559
50,028	-5,611	251,933	124,316
51,042	-5,690	251,608	124,076
52,057	-5,608	251,313	123,991
53,071	-5,585	251,112	123,900
54,086	-5,468	250,892	123,881
55,101	-5,343	250,852	123,959
56,115	-5,141	250,687	124,040
57,130	-4,714	250,519	124,314
58,144	-4,492	250,397	124,433
59,159	-4,579	250,219	124,259
60,174	-4,655	250,132	124,139
61,188	-4,537	249,783	124,056
62,203	-4,732	249,687	123,830
63,217	-4,792	249,455	123,653
64,232	-4,661	249,153	123,604
65,247	-4,664	248,972	123,501
66,261	-4,816	248,847	123,298
67,276	-4,889	248,533	123,068
68,290	-4,995	248,265	122,835
69,305	-5,152	247,972	122,545
70,320	-5,115	247,929	122,545
71,334	-4,863	247,801	122,685
72,349	-4,568	247,668	122,858
73,363	-4,559	247,427	122,736
74,378	-4,539	247,188	122,623
75,393	-4,790	247,117	122,364
76,407	-4,721	246,746	122,228
77,422	-4,684	246,502	122,128
78,436	-4,713	246,429	122,056
79,451	-4,510	246,139	122,073
80,466	-4,751	246,016	121,797
81,480	-4,899	245,638	121,475
82,495	-4,968	245,483	121,329
83,509	-4,911	245,404	121,327
84,524	-4,904	245,126	121,185
85,539	-5,136	244,936	120,886
86,553	-5,146	244,665	120,732
87,568	-4,957	244,594	120,845
88,582	-5,042	244,487	120,711
89,597	-4,965	244,269	120,656
90,611	-4,825	244,017	120,639
91,626	-4,750	243,839	120,602
92,641	-4,687	243,774	120,612
93,655	-4,833	243,419	120,304
94,670	-4,823	243,252	120,219
95,684	-4,973	243,187	120,051
96,699	-4,877	243,019	120,038
97,714	-5,018	242,852	119,827
98,728	-5,118	242,549	119,584
99,743	-5,063	242,299	119,495
100,757	-5,068	241,994	119,330
101,772	-5,239	242,019	119,190
102,787	-4,910	241,812	119,350
103,801	-5,072	241,667	119,134
104,816	-5,011	241,623	119,152
105,830	-4,810	241,395	119,194
106,845	-4,597	241,286	119,307
107,860	-4,902	241,029	118,917
108,874	-4,811	240,662	118,800
109,889	-4,917	240,537	118,641
110,903	-4,769	240,272	118,621
111,918	-4,814	240,164	118,520
112,933	-4,991	240,145	118,355
113,947	-4,671	239,945	118,508
114,962	-4,874	239,898	118,308
115,976	-4,725	239,567	118,256
116,991	-4,919	239,467	118,038
118,006	-4,986	239,341	117,910
119,020	-4,934	239,262	117,903
120,035	-4,616	239,030	118,038
121,049	-4,669	238,877	117,908
122,064	-4,594	238,578	117,812
123,079	-4,625	238,554	117,764
124,093	-4,642	238,291	117,610
125,108	-4,866	238,018	117,283
126,122	-5,203	237,723	116,853
127,137	-5,145	237,599	116,829
128,151	-4,955	237,357	116,854
129,166	-5,055	237,391	116,779
130,181	-5,306	237,191	116,466
131,195	-5,186	236,968	116,444
132,210	-4,972	236,771	116,510
133,224	-4,937	236,754	116,519
134,239	-4,913	236,605	116,455
135,254	-4,677	236,271	116,470
136,268	-4,870	236,153	116,246
137,283	-4,993	235,979	116,051
138,297	-5,217	235,741	115,744
139,312	-5,226	235,546	115,630
140,327	-4,923	235,423	115,803
141,341	-4,476	235,439	116,160
142,356	-4,453	235,245	116,072
143,370	-4,380	235,049	116,023
144,385	-4,177	234,898	116,101
145,400	-4,470	234,758	115,787
146,414	-4,538	234,700	115,693
147,429	-4,509	234,321	115,520
148,443	-4,608	234,157	115,349
149,458	-4,579	234,026	115,298
150,473	-4,472	233,963	115,342
151,487	-4,530	233,722	115,167
152,502	-4,331	233,601	115,255
153,516	-4,577	233,412	114,956
154,531	-4,340	233,164	115,012
155,546	-4,523	233,077	114,813
156,560	-4,440	232,790	114,727
157,575	-4,581	232,523	114,475
158,589	-4,817	232,520	114,276
159,604	-4,378	232,360	114,535
160,619	-4,248	232,228	114,562
161,633	-4,308	232,216	114,498
162,648	-4,566	231,913	114,135
163,662	-4,425	231,869	114,214
164,677	-4,509	231,594	114,002
165,692	-4,469	231,530	113,993
166,706	-4,263	231,285	114,024
167,721	-4,429	231,193	113,837
168,735	-4,229	231,109	113,943
169,750	-4,325	230,934	113,771
170,764	-4,529	230,850	113,559
171,779	-4,395	230,618	113,540
172,794	-4,395	230,375	113,411
173,808	-4,448	230,266	113,305
174,823	-4,620	229,860	112,961
175,837	-5,072	229,734	112,536
176,852	-4,757	229,724	112,767
177,867	-4,462	229,713	112,982
178,881	-4,309	229,515	112,994
179,896	-4,282	229,391	112,944
180,910	-4,218	229,214	112,897
181,925	-4,364	229,019	112,676
182,940	-4,219	228,828	112,686
183,954	-4,249	228,752	112,615
184,969	-4,393	228,723	112,479
185,983	-4,254	228,510	112,472
186,998	-4,252	228,227	112,324
188,013	-4,362	228,379	112,303
189,027	-4,110	227,953	112,279
190,042	-4,337	227,817	112,026
191,056	-4,300	227,759	112,016
192,071	-4,279	227,632	111,960
193,086	-4,453	227,486	111,744
194,100	-4,357	227,238	111,687
195,115	-4,523	226,885	111,375
196,129	-5,185	226,610	110,721
197,144	-2,460	227,399	113,199
198,159	1,174	228,467	116,534
199,173	3,902	229,169	118,994
200,188	4,389	229,142	119,346
201,202	4,199	229,030	119,130
202,217	4,514	228,813	119,250
203,232	4,774	228,791	119,428
204,246	4,848	228,584	119,366
205,261	4,752	228,593	119,287
206,275	5,009	228,483	119,417
207,290	5,009	228,223	119,270
208,304	4,952	228,180	119,193
209,319	4,810	227,881	118,917
210,334	4,772	227,835	118,854
211,348	4,634	227,562	118,594
212,363	4,338	227,178	118,158
213,377	4,012	226,999	117,804
214,392	3,876	226,976	117,678
215,407	3,877	226,756	117,554
216,421	4,124	226,690	117,698
217,436	4,229	226,357	117,594
218,450	3,728	226,206	117,124
219,465	3,684	226,133	117,041
220,480	3,895	225,866	117,054
221,494	3,932	225,855	117,066
222,509	3,863	225,738	116,942
223,523	3,962	225,591	116,931
224,538	3,967	225,451	116,852
225,553	4,006	225,284	116,784
226,567	3,819	225,285	116,633
227,582	4,187	225,083	116,797
228,596	4,360	224,954	116,850
229,611	4,010	224,970	116,583
230,626	4,001	224,526	116,336
231,640	3,809	224,399	116,114
232,655	4,234	224,423	116,438
233,669	4,659	224,298	116,683
234,684	4,848	224,174	116,751
235,699	4,502	224,065	116,423
236,713	4,309	223,669	116,062
237,728	4,024	223,521	115,760
238,742	4,108	223,254	115,675
239,757	4,076	223,178	115,601
240,772	3,986	223,006	115,434
241,786	3,966	222,932	115,370
242,801	3,988	222,890	115,355
243,815	4,307	222,848	115,562
244,830	4,408	222,549	115,472
245,844	4,343	222,426	115,350
246,859	4,190	222,282	115,150
247,874	4,292	222,222	115,184
248,888	4,342	222,083	115,140
249,903	4,167	221,907	114,908
250,917	4,058	221,817	114,770
251,932	3,843	221,633	114,504
252,947	3,980	221,404	114,478
253,961	4,025	221,203	114,397
254,976	4,047	221,089	114,344
255,990	4,160	221,160	114,455
257,005	4,133	221,014	114,348
258,020	4,458	220,699	114,416
259,034	4,482	220,664	114,406
260,049	4,340	220,376	114,142
261,063	4,267	220,257	114,015
262,078	4,640	220,142	114,221
263,093	4,536	219,937	114,028
264,107	4,445	219,888	113,926
265,122	4,301	219,808	113,768
266,136	4,473	219,671	113,813
267,151	4,393	219,548	113,681
268,166	4,193	219,370	113,431
269,180	3,990	219,034	113,098
270,195	3,765	218,908	112,858
271,209	3,894	218,804	112,888
272,224	3,948	218,729	112,880
273,239	4,066	218,657	112,919
274,253	3,812	218,460	112,621
275,268	3,887	218,242	112,553
276,282	3,855	217,996	112,393
277,297	3,690	217,821	112,172
278,312	3,763	217,807	112,208
279,326	4,112	217,684	112,389
280,341	4,100	217,444	112,247
281,355	4,071	217,472	112,230
282,370	4,094	217,220	112,107
283,384	3,971	217,096	111,943
284,399	4,109	216,888	111,927
285,414	3,766	216,814	111,629
286,428	3,920	216,806	111,727
287,443	4,268	216,657	111,893
288,457	4,152	216,550	111,743
289,472	3,940	216,433	111,519
290,487	3,678	215,985	111,089
291,501	3,643	215,865	110,992
292,516	3,850	215,817	111,107
293,530	3,952	215,719	111,120
294,545	3,921	215,513	110,982
295,560	3,979	215,514	111,014
296,574	3,979	215,409	110,950
297,589	4,012	215,222	110,868
298,603	4,163	215,137	110,923
299,618	4,095	214,888	110,736
300,633	4,063	214,690	110,601
301,647	4,221	214,827	110,776
302,662	4,372	214,520	110,716
303,676	4,280	214,446	110,601
304,691	4,280	214,321	110,527
305,706	4,315	214,130	110,443
306,720	4,251	214,113	110,379
307,735	4,261	213,880	110,256
308,749	3,857	213,824	109,929
309,764	3,969	213,559	109,863
310,779	4,242	213,587	110,062
311,793	4,293	213,288	109,935
312,808	4,190	213,144	109,778
313,822	4,156	213,015	109,677
314,837	4,001	212,882	109,489
315,852	3,894	212,851	109,387
316,866	3,811	212,641	109,210
317,881	4,038	212,612	109,347
318,895	4,146	212,484	109,348
319,910	4,235	212,120	109,214
320,925	3,858	211,900	108,824
321,939	3,712	211,752	108,635
322,954	3,814	211,788	108,716
323,968	3,829	211,801	108,723
324,983	4,333	211,642	108,988
325,997	4,049	211,575	108,743
327,012	4,183	211,291	108,682
328,027	4,105	211,180	108,560
329,041	4,411	211,069	108,709
330,056	4,458	210,948	108,670
331,070	4,268	210,809	108,456
332,085	3,822	210,547	107,997
333,100	3,850	210,511	107,989
334,114	4,159	210,347	108,112
335,129	4,225	210,106	108,025
336,143	4,152	210,107	107,965
337,158	3,951	209,937	107,727
338,173	3,940	209,674	107,575
339,187	3,974	209,581	107,541
340,202	3,615	209,524	107,251
341,216	3,631	209,278	107,128
342,231	4,033	209,339	107,430
343,246	3,693	209,165	107,094
344,260	3,772	209,014	107,061
345,275	3,801	208,890	107,009
346,289	3,991	208,861	107,117
347,304	4,031	208,823	107,115
348,319	4,074	208,506	106,973
349,333	4,110	208,350	106,909
350,348	4,117	208,205	106,830
351,362	4,367	208,137	106,959
352,377	4,245	208,004	106,796
353,392	4,031	207,833	106,551
354,406	4,208	207,767	106,630
355,421	194,228	1343,211	1432,844
356,435	154,976	1481,654	1432,964
