DTS Sentinel unit serial number:	SN410029Multiplexer serial number:	ORYXHardware model number:	OX2-SRSoftware version number:	ORYX F/W v4,00 Oryx Data Collector v3.7.2.0data status	okinstallation	B6 Nyhavnadifferential loss correction	single-endedforward channel	channel 2reverse channel	N/Adate	2023/12/07time	20:20:08forward acquisition time	300,00reverse acquisition time	0,00gamma	499,1914k internal	0,3164k external	0,3164temperature offset calibration	1,0000default loss term (dB/km)	0,3820temperature slope calibration	1,0000multiplexer offset coefficient	1,0000multiplexer slope coefficient	1,0000fibre end	0,00T internal ref (°C)	13,85T ext. ref 1 (°C)	-3,11T ext. ref 2 (°C)	-3,11length (m)	temperature (°C)	Stokes	anti-Stokes-744,400	-200,000	0,012	-0,075
-743,385	-3,777	-0,305	0,155
-742,371	-200,000	0,013	0,143
-741,356	-57,740	-0,383	0,123
-740,342	-8,519	0,236	0,116
-739,327	-80,128	-0,305	-0,075
-738,312	396,886	0,057	-0,088
-737,298	-55,400	-0,213	-0,070
-736,283	188,876	0,090	0,099
-735,269	-89,928	-0,260	-0,055
-734,254	-121,501	0,124	0,015
-733,239	-91,368	-0,564	-0,118
-732,225	-38,241	0,210	0,081
-731,210	248,651	-0,027	-0,033
-730,196	73,661	0,052	0,040
-729,181	509,801	-0,059	-0,102
-728,167	-200,000	-0,031	0,113
-727,152	-200,000	0,012	-0,042
-726,137	498,479	0,046	0,078
-725,123	-200,000	-0,012	-0,104
-724,108	-200,000	0,017	-0,134
-723,094	800,000	0,013	0,039
-722,079	-58,937	-0,131	-0,041
-721,064	-58,897	-0,028	0,009
-720,050	-52,824	-0,114	-0,038
-719,035	-200,000	-0,021	-0,140
-718,021	126,628	-0,039	0,036
-717,006	-28,800	-0,073	-0,031
-715,991	-200,000	-0,049	-0,177
-714,977	228,057	-0,105	-0,126
-713,962	-11,282	0,109	0,053
-712,948	-200,000	-0,009	-0,150
-711,933	76,651	-0,098	0,076
-710,918	494,090	0,058	0,098
-709,904	800,000	-0,019	0,056
-708,889	204,712	-0,077	-0,087
-707,875	-200,000	0,002	-0,215
-706,860	-200,000	-0,016	-0,055
-705,845	-200,000	-0,014	-0,133
-704,831	-4,581	0,061	-0,031
-703,816	-174,944	-0,144	-0,003
-702,802	-200,000	-0,008	-0,141
-701,787	149,840	0,129	-0,128
-700,772	-70,998	0,167	-0,046
-699,758	159,657	-0,116	-0,119
-698,743	-18,876	0,046	-0,021
-697,729	-78,427	-0,034	0,008
-696,714	-200,000	0,027	0,097
-695,699	581,519	-0,008	-0,014
-694,685	-22,969	0,126	-0,055
-693,670	75,659	-0,165	0,128
-692,656	800,000	-0,021	0,044
-691,641	81,668	0,104	-0,083
-690,627	69,946	0,085	0,064
-689,612	-58,398	-0,176	0,056
-688,597	-135,032	0,055	-0,005
-687,583	-24,343	0,069	-0,030
-686,568	23,837	0,065	0,039
-685,554	299,025	0,015	-0,021
-684,539	-44,433	0,190	0,069
-683,524	800,000	0,013	-0,039
-682,510	186,327	0,080	-0,087
-681,495	-200,000	0,024	-0,133
-680,481	-138,264	-0,095	-0,008
-679,466	-134,885	-0,016	-0,001
-678,451	371,088	0,069	-0,103
-677,437	800,000	-0,040	-0,107
-676,422	255,807	0,079	0,099
-675,408	200,279	0,020	0,023
-674,393	119,171	-0,084	-0,076
-673,378	771,048	-0,028	-0,057
-672,364	543,783	-0,035	-0,061
-671,349	-200,000	-0,044	0,170
-670,335	17,705	0,132	0,077
-669,320	-200,000	-0,013	0,151
-668,305	-200,000	-0,000	0,045
-667,291	43,734	-0,088	0,059
-666,276	-200,000	-0,002	-0,065
-665,262	736,951	-0,021	-0,042
-664,247	-200,000	-0,001	0,070
-663,232	34,323	0,037	-0,024
-662,218	45,488	0,102	0,069
-661,203	-200,000	-0,020	0,098
-660,189	577,107	-0,036	-0,066
-659,174	-96,578	-0,076	-0,015
-658,159	328,123	-0,017	-0,023
-657,145	131,791	0,081	-0,077
-656,130	800,000	0,046	-0,111
-655,116	-169,081	0,041	0,001
-654,101	800,000	-0,043	0,139
-653,086	-62,170	-0,058	-0,017
-652,072	46,590	0,069	0,047
-651,057	-133,262	-0,018	0,002
-650,043	576,607	-0,049	-0,087
-649,028	800,000	-0,032	-0,101
-648,014	-21,554	-0,059	0,026
-646,999	142,117	0,068	-0,067
-645,984	-8,767	-0,145	-0,071
-644,970	800,000	0,019	-0,053
-643,955	381,899	-0,089	-0,135
-642,941	42,938	0,033	-0,022
-641,926	-200,000	0,013	-0,147
-640,911	507,245	-0,100	-0,170
-639,897	-127,890	0,076	-0,008
-638,882	-200,000	0,002	0,094
-637,868	-164,731	0,056	0,002
-636,853	-200,000	0,000	-0,004
-635,838	75,962	-0,070	0,054
-634,824	223,524	-0,022	0,026
-633,809	-200,000	-0,008	0,078
-632,795	279,576	0,039	0,051
-631,780	800,000	0,031	0,097
-630,765	-200,000	0,012	-0,113
-629,751	79,871	-0,104	0,082
-628,736	-200,000	-0,033	-0,138
-627,722	-88,198	0,066	0,014
-626,707	-44,545	-0,126	-0,046
-625,692	71,285	-0,089	0,067
-624,678	-90,808	-0,044	0,009
-623,663	17,715	-0,078	-0,045
-622,649	-142,514	-0,207	-0,015
-621,634	440,785	-0,055	-0,088
-620,619	478,714	-0,054	-0,090
-619,605	17,266	0,031	0,018
-618,590	30,229	0,079	-0,049
-617,576	109,727	-0,069	0,060
-616,561	24,731	-0,053	0,032
-615,546	360,064	0,044	-0,065
-614,532	-79,845	-0,078	-0,019
-613,517	377,585	-0,071	0,107
-612,503	85,548	0,042	0,034
-611,488	74,048	-0,033	-0,025
-610,474	-11,511	-0,067	0,032
-609,459	-200,000	0,006	0,060
-608,444	800,000	-0,022	-0,059
-607,430	48,709	-0,062	-0,042
-606,415	28,715	0,070	-0,043
-605,401	-104,086	-0,075	-0,013
-604,386	-200,000	-0,001	-0,049
-603,371	-200,000	-0,020	-0,093
-602,357	-9,536	-0,063	-0,031
-601,342	-55,579	0,112	0,036
-600,328	-77,393	-0,119	0,030
-599,313	-90,468	-0,126	-0,026
-598,298	-200,000	-0,001	0,037
-597,284	-200,000	0,006	0,055
-596,269	-200,000	-0,001	0,149
-595,255	338,596	-0,038	0,055
-594,240	-200,000	-0,004	0,046
-593,225	800,000	0,059	-0,120
-592,211	800,000	-0,017	-0,047
-591,196	-200,000	-0,009	-0,088
-590,182	-77,712	0,086	0,022
-589,167	1,063	-0,120	0,063
-588,152	-156,013	0,128	0,006
-587,138	-169,149	-0,141	0,004
-586,123	800,000	0,031	-0,084
-585,109	-21,287	0,024	0,011
-584,094	800,000	0,053	-0,151
-583,079	-200,000	0,001	0,113
-582,065	39,869	0,105	-0,069
-581,050	427,730	0,073	0,115
-580,036	-200,000	0,005	0,036
-579,021	117,733	-0,069	-0,062
-578,006	800,000	-0,025	0,080
-576,992	-200,000	0,011	-0,052
-575,977	-77,585	0,207	-0,052
-574,963	-200,000	-0,025	0,154
-573,948	13,411	-0,043	0,025
-572,934	-200,000	-0,036	0,135
-571,919	42,509	0,011	0,007
-570,904	258,413	-0,037	0,047
-569,890	-40,772	-0,068	0,026
-568,875	95,807	-0,056	-0,047
-567,861	6,848	-0,088	0,048
-566,846	-200,000	-0,015	0,098
-565,831	141,847	0,045	0,044
-564,817	-44,681	-0,030	-0,011
-563,802	800,000	-0,030	-0,071
-562,788	800,000	-0,060	-0,156
-561,773	-200,000	-0,003	-0,171
-560,758	17,367	0,053	0,030
-559,744	262,829	0,079	0,100
-558,729	-150,546	-0,057	-0,003
-557,715	-200,000	0,023	0,096
-556,700	-200,000	0,001	0,029
-555,685	-94,840	0,116	0,023
-554,671	-138,998	0,032	-0,003
-553,656	800,000	-0,036	0,078
-552,642	31,907	0,060	-0,037
-551,627	132,378	0,043	-0,040
-550,612	-200,000	-0,001	-0,075
-549,598	59,631	-0,076	0,055
-548,583	-28,109	0,095	0,040
-547,569	-200,000	0,004	0,016
-546,554	593,540	-0,059	0,107
-545,539	800,000	0,024	0,068
-544,525	800,000	0,035	-0,076
-543,510	-25,718	0,136	-0,058
-542,496	259,322	-0,074	-0,094
-541,481	334,464	0,008	-0,011
-540,466	800,000	0,037	-0,088
-539,452	148,711	0,127	-0,125
-538,437	400,240	-0,033	0,051
-537,423	-27,659	0,132	0,056
-536,408	800,000	0,026	0,069
-535,393	-200,000	0,017	0,124
-534,379	-50,147	-0,041	0,014
-533,364	311,929	-0,046	0,063
-532,350	-28,294	0,015	-0,006
-531,335	-63,257	-0,047	-0,014
-530,321	-117,575	0,053	-0,007
-529,306	-35,684	-0,103	-0,040
-528,291	-200,000	-0,005	-0,041
-527,277	-46,928	0,101	0,036
-526,262	-200,000	-0,017	0,123
-525,248	319,238	-0,045	-0,062
-524,233	67,200	-0,044	0,032
-523,218	-200,000	-0,218	0,000
-522,204	271,087	-0,034	0,044
-521,189	-117,779	-0,151	0,020
-520,175	800,000	0,028	-0,076
-519,160	87,726	0,098	-0,079
-518,145	367,567	0,043	-0,063
-517,131	-30,276	0,185	0,076
-516,116	-200,000	0,031	0,120
-515,102	800,000	-0,032	-0,096
-514,087	747,839	0,065	0,128
-513,072	-36,530	0,071	0,028
-512,058	185,555	-0,096	0,104
-511,043	162,044	-0,079	0,081
-510,029	-162,136	0,100	-0,004
-509,014	-13,782	-0,160	0,075
-507,999	-200,000	0,019	0,099
-506,985	-43,846	-0,101	-0,037
-505,970	800,000	0,033	0,097
-504,956	112,306	0,086	-0,076
-503,941	14,352	-0,079	-0,045
-502,926	-200,000	0,010	0,046
-501,912	-73,668	-0,072	-0,019
-500,897	800,000	0,060	0,138
-499,883	24,038	-0,083	0,050
-498,868	-200,000	-0,021	-0,121
-497,853	-38,782	-0,022	0,008
-496,839	-200,000	-0,048	0,161
-495,824	321,524	0,079	0,109
-494,810	-200,000	-0,043	0,162
-493,795	-118,451	0,150	0,019
-492,781	-3,681	-0,118	-0,060
-491,766	108,555	-0,038	0,033
-490,751	-141,876	-0,146	-0,010
-489,737	-122,777	-0,024	0,003
-488,722	373,981	0,059	0,088
-487,708	-200,000	-0,002	0,030
-486,693	22,475	-0,042	-0,025
-485,678	200,589	-0,099	-0,111
-484,664	113,459	-0,128	-0,113
-483,649	-200,000	-0,002	-0,192
-482,635	296,199	-0,118	-0,158
-481,620	-128,322	0,067	-0,007
-480,605	-80,079	0,041	-0,010
-479,591	47,621	-0,065	0,044
-478,576	587,336	0,021	-0,038
-477,562	800,000	-0,009	-0,025
-476,547	275,176	-0,063	-0,081
-475,532	142,113	-0,016	0,016
-474,518	-74,013	0,012	0,003
-473,503	501,264	0,064	-0,107
-472,489	-200,000	-0,040	0,180
-471,474	-5,185	0,121	0,060
-470,459	75,903	-0,112	-0,086
-469,445	800,000	0,027	0,077
-468,430	-200,000	0,006	-0,101
-467,416	276,368	0,091	-0,118
-466,401	800,000	0,052	0,118
-465,386	-108,321	-0,075	-0,012
-464,372	-54,365	-0,154	0,051
-463,357	-68,032	0,058	0,016
-462,343	2,801	-0,110	0,058
-461,328	-19,269	0,056	0,025
-460,313	47,741	0,032	0,022
-459,299	800,000	0,040	0,111
-458,284	66,361	-0,097	0,072
-457,270	42,678	0,032	0,021
-456,255	-124,414	0,096	0,011
-455,241	19,837	0,093	-0,054
-454,226	-12,775	-0,107	-0,051
-453,211	-134,878	0,092	-0,008
-452,197	-200,000	0,019	0,165
-451,182	22,855	-0,109	-0,065
-450,168	88,406	0,099	-0,080
-449,153	800,000	0,038	0,105
-448,138	-200,000	-0,013	0,106
-447,124	-200,000	-0,006	-0,036
-446,109	-164,408	0,159	-0,005
-445,095	-3,105	0,111	0,056
-444,080	435,605	0,042	0,067
-443,065	98,846	0,045	0,038
-442,051	-98,571	-0,132	0,024
-441,036	654,283	0,070	-0,132
-440,022	540,970	-0,051	0,088
-439,007	-200,000	0,009	0,053
-437,992	800,000	-0,067	-0,203
-436,978	800,000	0,045	0,121
-435,963	274,464	0,095	-0,122
-434,949	-1,964	-0,148	-0,075
-433,934	800,000	-0,044	-0,105
-432,919	-200,000	0,030	-0,103
-431,905	800,000	-0,080	-0,250
-430,890	-73,527	0,087	-0,023
-429,876	800,000	0,029	0,062
-428,861	149,820	-0,038	0,038
-427,846	-87,815	-0,082	0,018
-426,832	425,962	-0,052	-0,082
-425,817	800,000	0,057	0,132
-424,803	43,038	0,090	-0,060
-423,788	-117,999	-0,043	-0,005
-422,773	-200,000	-0,004	-0,049
-421,759	313,261	0,045	-0,062
-420,744	173,768	0,121	0,127
-419,730	-115,035	0,024	-0,003
-418,715	-200,000	-0,009	-0,032
-417,701	7,241	-0,202	0,109
-416,686	197,152	-0,012	0,013
-415,671	-109,865	0,114	-0,017
-414,657	207,155	-0,023	-0,026
-413,642	192,208	-0,074	0,081
-412,628	219,699	-0,120	-0,139
-411,613	489,982	0,076	-0,127
-410,598	-160,547	0,088	-0,003
-409,584	-107,629	0,117	-0,018
-408,569	197,383	0,097	0,108
-407,555	414,450	0,018	-0,028
-406,540	800,000	0,023	-0,058
-405,525	-87,501	0,085	0,019
-404,511	230,111	-0,066	0,079
-403,496	2,344	-0,123	0,064
-402,482	500,108	-0,041	0,069
-401,467	142,816	-0,114	0,110
-400,452	-21,055	0,157	0,070
-399,438	-9,633	-0,113	0,055
-398,423	-70,940	-0,128	0,035
-397,409	135,106	-0,128	-0,121
-396,394	-54,923	-0,056	0,018
-395,379	296,637	0,026	0,034
-394,365	23,957	0,106	0,064
-393,350	-77,914	-0,076	0,019
-392,336	800,000	0,023	-0,054
-391,321	383,650	0,072	0,108
-390,306	509,369	-0,048	-0,082
-389,292	37,299	0,049	-0,031
-388,277	-137,576	-0,102	-0,008
-387,263	-200,000	0,026	-0,102
-386,248	-38,024	0,109	-0,042
-385,233	-70,960	-0,072	-0,020
-384,219	-200,000	0,030	-0,203
-383,204	533,833	-0,081	-0,139
-382,190	-69,541	-0,045	-0,012
-381,175	261,186	0,054	0,068
-380,160	51,492	0,099	-0,068
-379,146	-184,721	0,113	-0,001
-378,131	800,000	0,059	-0,135
-377,117	-200,000	-0,030	-0,182
-376,102	800,000	-0,078	-0,194
-375,088	-103,187	0,114	0,019
-374,073	-1,045	0,059	-0,030
-373,058	-200,000	-0,001	-0,045
-372,044	-200,000	0,007	0,029
-371,029	391,808	0,086	0,130
-370,015	3,717	0,110	-0,058
-369,000	-73,249	-0,137	-0,036
-367,985	-200,000	0,034	0,139
-366,971	-149,134	0,124	-0,007
-365,956	11,609	-0,036	0,020
-364,942	87,800	0,028	-0,023
-363,927	-44,667	0,180	0,065
-362,912	-97,775	0,050	-0,009
-361,898	800,000	0,027	0,084
-360,883	46,004	0,050	-0,034
-359,869	385,710	0,050	-0,075
-358,854	800,000	-0,024	0,072
-357,839	-200,000	0,025	0,083
-356,825	-200,000	-0,027	0,136
-355,810	274,326	-0,025	0,032
-354,796	-200,000	0,015	-0,065
-353,781	89,054	-0,046	0,037
-352,766	-200,000	-0,008	0,080
-351,752	288,669	0,073	-0,096
-350,737	91,688	0,030	0,025
-349,723	52,844	-0,080	0,055
-348,708	32,658	0,131	-0,082
-347,693	-89,795	0,095	0,020
-346,679	-103,436	-0,061	-0,010
-345,664	-65,550	-0,083	-0,024
-344,650	647,717	-0,054	0,100
-343,635	-200,000	0,009	0,054
-342,620	800,000	-0,059	-0,130
-341,606	2,402	-0,018	-0,009
-340,591	-200,000	0,022	-0,085
-339,577	-90,909	-0,095	0,020
-338,562	48,401	0,029	-0,020
-337,548	-200,000	-0,002	0,044
-336,533	-59,897	0,042	0,013
-335,518	800,000	0,021	-0,053
-334,504	134,115	0,093	0,087
-333,489	-185,013	-0,066	0,001
-332,475	-41,742	0,060	-0,022
-331,460	-103,399	-0,068	-0,011
-330,445	206,895	-0,054	0,061
-329,431	217,385	0,082	0,095
-328,416	149,668	0,070	0,069
-327,402	29,464	0,033	-0,020
-326,387	187,910	0,044	-0,048
-325,372	96,156	-0,092	-0,076
-324,358	696,378	0,060	0,114
-323,343	-200,000	0,005	-0,043
-322,329	-200,000	0,006	-0,080
-321,314	365,779	0,075	0,110
-320,299	136,849	0,123	0,116
-319,285	241,523	-0,092	-0,111
-318,270	-58,783	-0,043	0,013
-317,256	124,752	-0,073	0,067
-316,241	334,897	-0,060	-0,084
-315,226	-200,000	-0,035	-0,120
-314,212	800,000	0,064	-0,158
-313,197	-101,001	0,057	-0,010
-312,183	691,741	-0,046	0,087
-311,168	-119,461	-0,138	0,017
-310,153	445,781	-0,066	-0,105
-309,139	-0,266	-0,169	-0,086
-308,124	14,735	-0,007	-0,004
-307,110	800,000	-0,024	-0,064
-306,095	58,522	0,149	-0,105
-305,080	589,486	-0,035	0,063
-304,066	564,956	-0,015	-0,027
-303,051	18,527	0,100	-0,058
-302,037	67,443	-0,011	-0,008
-301,022	800,000	-0,041	0,083
-300,008	-142,625	-0,074	-0,005
-298,993	-64,821	0,105	-0,031
-297,978	-200,000	0,007	0,108
-296,964	800,000	0,039	0,090
-295,949	-77,574	-0,085	0,021
-294,935	-32,593	0,084	-0,034
-293,920	-200,000	0,015	-0,080
-292,905	-7,181	0,068	0,033
-291,891	-200,000	-0,006	0,029
-290,876	-74,391	-0,070	0,018
-289,862	-200,000	0,027	0,088
-288,847	-64,394	0,082	0,024
-287,832	-200,000	0,045	-0,171
-286,818	191,390	0,016	-0,017
-285,803	-200,000	0,030	-0,127
-284,789	110,954	0,051	0,044
-283,774	629,918	-0,008	-0,015
-282,759	-25,455	-0,024	-0,010
-281,745	483,607	-0,016	0,027
-280,730	-51,480	-0,169	0,057
-279,716	104,136	-0,113	0,096
-278,701	-104,275	0,076	-0,013
-277,686	-46,311	0,055	0,019
-276,672	800,000	-0,050	-0,111
-275,657	-200,000	-0,008	-0,154
-274,643	17,363	0,045	-0,026
-273,628	-131,380	-0,086	0,008
-272,613	800,000	-0,053	-0,166
-271,599	-200,000	0,026	-0,176
-270,584	-5,082	0,124	-0,061
-269,570	88,100	0,059	0,047
-268,555	-90,759	-0,086	-0,018
-267,540	608,909	-0,057	-0,104
-266,526	-147,544	-0,054	-0,003
-265,511	143,441	-0,085	-0,082
-264,497	-80,789	0,095	-0,023
-263,482	800,000	0,067	0,142
-262,467	203,552	0,083	0,092
-261,453	-127,075	0,103	-0,011
-260,438	-21,399	0,173	-0,076
-259,424	-200,000	-0,000	-0,002
-258,409	800,000	0,027	0,057
-257,395	800,000	-0,077	0,208
-256,380	748,703	0,052	0,101
-255,365	-200,000	0,024	0,076
-254,351	-60,101	-0,015	0,005
-253,336	-12,455	0,058	0,027
-252,322	800,000	-0,013	-0,035
-251,307	195,022	0,012	-0,013
-250,292	179,257	-0,123	0,130
-249,278	365,168	0,100	0,145
-248,263	411,256	0,097	0,149
-247,249	79,570	-0,043	0,033
-246,234	-63,677	0,047	-0,014
-245,219	-68,618	-0,093	-0,026
-244,205	-78,126	0,187	-0,046
-243,190	-200,000	0,003	-0,078
-242,176	138,362	0,032	-0,031
-241,161	101,774	0,069	0,058
-240,146	-132,314	0,054	-0,005
-239,132	27,128	-0,127	0,077
-238,117	311,431	-0,074	-0,100
-237,103	154,045	0,096	0,095
-236,088	800,000	0,005	0,013
-235,073	-123,503	-0,016	-0,002
-234,059	800,000	0,060	0,145
-233,044	-112,361	0,045	0,006
-232,030	-159,740	-0,118	0,005
-231,015	226,095	0,055	0,065
-230,000	-18,068	-0,148	-0,067
-228,986	-162,757	0,190	-0,007
-227,971	-200,000	-0,012	0,083
-226,957	105,581	0,051	-0,044
-225,942	-131,065	0,017	0,002
-224,927	71,375	0,064	0,048
-223,913	-101,632	0,127	-0,022
-222,898	-200,000	0,023	-0,111
-221,884	800,000	0,080	-0,165
-220,869	83,809	-0,114	0,090
-219,855	-151,449	0,078	0,004
-218,840	-200,000	0,001	-0,023
-217,825	320,075	-0,105	-0,144
-216,811	-73,476	-0,045	0,012
-215,796	239,748	-0,101	-0,121
-214,782	388,654	0,051	0,076
-213,767	-128,939	0,085	-0,008
-212,752	-74,441	0,126	0,033
-211,738	-44,729	-0,095	0,034
-210,723	62,423	-0,055	-0,040
-209,709	-87,256	-0,147	0,032
-208,694	-200,000	0,003	-0,012
-207,679	85,216	-0,087	-0,069
-206,665	800,000	-0,017	0,039
-205,650	12,415	0,104	0,058
-204,636	236,476	-0,069	0,083
-203,621	104,987	0,053	0,045
-202,606	-20,334	-0,132	0,058
-201,592	-68,646	-0,125	0,035
-200,577	800,000	-0,017	0,036
-199,563	471,712	0,063	0,102
-198,548	56,545	0,066	-0,046
-197,533	413,183	-0,090	0,139
-196,519	264,239	-0,020	-0,025
-195,504	12,371	-0,082	-0,046
-194,490	47,344	-0,035	-0,023
-193,475	13,458	0,057	-0,032
-192,460	-66,323	-0,033	-0,009
-191,446	516,385	0,107	-0,180
-190,431	388,760	0,049	0,073
-189,417	800,000	0,048	0,099
-188,402	451,356	0,077	0,123
-187,387	-156,415	-0,086	-0,004
-186,373	-137,728	0,026	0,002
-185,358	50,533	-0,046	0,031
-184,344	-110,784	0,176	-0,026
-183,329	-200,000	-0,003	-0,111
-182,315	386,939	-0,067	0,100
-181,300	-200,000	0,006	0,040
-180,285	391,361	0,143	0,214
-179,271	-200,000	0,021	0,094
-178,256	347,130	0,087	-0,124
-177,242	800,000	0,047	-0,120
-176,227	-22,019	-0,105	-0,046
-175,212	-200,000	-0,023	0,078
-174,198	-144,876	0,135	0,009
-173,183	42,145	-0,095	0,062
-172,169	-42,886	-0,095	-0,035
-171,154	-92,830	-0,066	-0,013
-170,139	-82,282	0,047	-0,011
-169,125	23,979	-0,074	0,044
-168,110	282,329	-0,045	0,059
-167,096	128,990	-0,054	0,050
-166,081	-45,921	-0,162	0,057
-165,066	-25,091	0,049	-0,021
-164,052	800,000	-0,047	-0,137
-163,037	613,641	-0,076	-0,137
-162,023	-96,786	0,088	-0,017
-161,008	-200,000	0,019	0,146
-159,993	-77,780	0,119	-0,029
-158,979	800,000	-0,032	-0,077
-157,964	-200,000	0,035	-0,113
-156,950	147,112	0,087	-0,084
-155,935	-200,000	0,030	-0,139
-154,920	-111,921	0,093	-0,013
-153,906	-200,000	0,025	0,194
-152,891	-200,000	0,011	-0,064
-151,877	-200,000	-0,031	0,114
-150,862	-200,000	0,026	0,121
-149,847	800,000	0,031	-0,084
-148,833	49,369	-0,025	-0,017
-147,818	-200,000	-0,007	0,068
-146,804	-125,967	0,119	0,013
-145,789	-200,000	0,004	-0,033
-144,775	800,000	-0,017	0,043
-143,760	61,142	0,040	0,028
-142,745	184,963	-0,150	-0,160
-141,731	779,400	0,031	0,060
-140,716	-200,000	-0,009	0,152
-139,702	353,160	0,149	0,212
-138,687	10,477	0,012	-0,007
-137,672	626,835	-0,053	-0,096
-136,658	142,959	0,080	-0,077
-135,643	6,114	-0,008	0,004
-134,629	196,275	0,065	0,072
-133,614	-15,862	0,107	0,049
-132,599	65,047	0,130	0,094
-131,585	-200,000	-0,018	0,146
-130,570	-88,737	-0,169	0,036
-129,556	-200,000	0,031	-0,163
-128,541	-146,471	-0,084	-0,005
-127,526	9,160	-0,089	0,048
-126,512	-63,010	0,059	0,017
-125,497	-200,000	-0,014	0,118
-124,483	515,753	0,062	0,104
-123,468	-78,986	-0,040	-0,010
-122,453	210,871	-0,060	0,067
-121,439	-200,000	0,006	0,113
-120,424	138,075	-0,016	-0,015
-119,410	800,000	-0,024	0,064
-118,395	123,476	-0,026	-0,023
-117,380	-200,000	0,022	0,081
-116,366	244,662	-0,113	-0,137
-115,351	800,000	0,018	-0,050
-114,337	177,070	0,038	-0,040
-113,322	-200,000	0,035	-0,308
-112,307	-85,469	-0,084	0,019
-111,293	6,025	-0,026	0,014
-110,278	264,947	0,022	0,028
-109,264	-200,000	0,019	0,087
-108,249	-200,000	0,001	-0,110
-107,234	-127,086	0,053	0,006
-106,220	-116,349	-0,055	0,007
-105,205	-200,000	-0,007	0,046
-104,191	800,000	-0,085	-0,174
-103,176	499,257	-0,053	0,087
-102,162	222,371	0,053	0,061
-101,147	-200,000	-0,022	-0,125
-100,132	-200,000	0,005	0,016
-99,118	-200,000	-0,046	-0,166
-98,103	-62,717	0,119	-0,035
-97,089	755,429	0,042	-0,081
-96,074	-200,000	-0,021	0,116
-95,059	383,087	-0,116	-0,171
-94,045	-200,000	0,027	-0,164
-93,030	36,103	0,086	-0,054
-92,016	549,941	0,037	0,063
-91,001	106,275	0,057	-0,048
-89,986	-94,834	0,103	0,020
-88,972	82,610	0,058	-0,045
-87,957	212,286	0,065	-0,073
-86,943	-200,000	-0,018	-0,133
-85,928	800,000	-0,025	-0,064
-84,913	236,791	0,031	0,037
-83,899	27,512	-0,068	0,041
-82,884	796,046	0,044	0,086
-81,870	418,826	-0,059	0,090
-80,855	33,196	0,071	0,044
-79,840	800,000	0,030	-0,068
-78,826	251,657	-0,038	0,046
-77,811	67,888	-0,105	-0,077
-76,797	-200,000	-0,035	-0,144
-75,782	-200,000	0,010	-0,044
-74,767	125,142	0,074	0,067
-73,753	-200,000	0,002	0,106
-72,738	75,575	0,040	-0,030
-71,724	38,804	-0,121	0,078
-70,709	-82,755	0,056	0,013
-69,694	-15,012	-0,112	0,051
-68,680	800,000	0,050	-0,128
-67,665	-90,706	0,064	0,013
-66,651	88,745	0,049	-0,039
-65,636	12,307	-0,016	-0,009
-64,622	-200,000	-0,006	0,023
-63,607	241,295	-0,084	0,101
-62,592	800,000	-0,048	-0,117
-61,578	-155,968	-0,042	-0,002
-60,563	-200,000	-0,028	0,112
-59,549	349,179	-0,038	0,054
-58,534	32,468	-2,101	-1,297
-57,519	800,000	-0,391	-0,877
-56,505	-200,000	-1,459	-5,044
-55,490	57,346	0,934	0,652
-54,476	800,000	5,402	12,009
-53,461	-200,000	18,490	303,754
-52,446	800,000	736,887	2262,922
-51,432	532,778	1649,549	2807,162
-50,417	107,883	1634,730	1394,324
-49,403	71,762	1285,582	955,905
-48,388	29,865	1026,811	624,998
-47,373	19,688	988,945	568,432
-46,359	17,434	976,742	554,023
-45,344	14,217	972,723	541,213
-44,330	14,451	971,446	541,244
-43,315	13,951	969,504	538,511
-42,300	13,841	968,467	537,556
-41,286	13,876	967,603	537,167
-40,271	13,871	966,593	536,569
-39,257	13,860	965,822	536,085
-38,242	13,837	964,957	535,510
-37,227	13,879	963,866	535,018
-36,213	13,876	963,121	534,575
-35,198	13,838	962,243	533,942
-34,184	13,870	961,527	533,627
-33,169	13,882	960,526	533,089
-32,154	13,828	959,580	532,370
-31,140	13,848	958,788	531,972
-30,125	13,899	958,013	531,686
-29,111	13,874	957,407	531,248
-28,096	13,910	956,560	530,873
-27,082	13,908	955,882	530,470
-26,067	13,853	955,131	529,854
-25,052	13,849	954,503	529,474
-24,038	13,861	953,802	529,101
-23,023	13,880	952,946	528,666
-22,009	13,906	952,579	528,526
-20,994	13,931	951,886	528,198
-19,979	13,901	951,105	527,650
-18,965	13,872	950,496	527,198
-17,950	13,899	950,010	526,993
-16,936	13,816	949,228	526,274
-15,921	13,854	948,586	526,018
-14,906	13,758	947,928	525,327
-13,892	13,808	947,276	525,104
-12,877	13,802	946,737	524,765
-11,863	13,749	945,902	524,113
-10,848	13,777	945,508	523,963
-9,833	13,848	944,964	523,866
-8,819	13,844	944,429	523,534
-7,804	13,842	943,447	522,964
-6,790	13,771	943,252	522,610
-5,775	13,814	942,584	522,357
-4,760	13,798	941,766	521,832
-3,746	13,808	941,339	521,607
-2,731	13,644	940,676	520,700
-1,717	13,631	940,091	520,313
-0,702	13,674	939,130	519,895
0,313	13,414	938,536	519,533
1,327	16,957	936,693	529,614
2,342	26,255	787,905	469,898
3,356	22,346	442,798	258,297
4,371	-7,070	295,205	142,853
5,386	-11,284	277,180	130,130
6,400	-12,281	271,393	126,477
7,415	-12,442	269,166	125,279
8,429	-12,537	267,556	124,432
9,444	-12,689	266,697	123,883
10,459	-12,767	266,221	123,580
11,473	-12,811	265,520	123,204
12,488	-12,866	264,949	122,877
13,502	-13,008	264,471	122,517
14,517	-12,923	263,961	122,346
15,531	-12,872	263,733	122,276
16,546	-12,844	263,193	122,040
17,561	-12,946	262,863	121,784
18,575	-12,676	262,460	121,829
19,590	-12,862	262,199	121,530
20,604	-12,792	261,943	121,463
21,619	-12,770	261,675	121,347
22,634	-12,769	261,064	121,054
23,648	-12,911	260,809	120,799
24,663	-12,836	260,581	120,750
25,677	-12,818	260,439	120,689
26,692	-12,790	260,066	120,530
27,707	-12,899	259,824	120,311
28,721	-12,979	259,472	120,066
29,736	-12,890	259,166	119,992
30,750	-13,089	259,109	119,779
31,765	-13,024	258,695	119,635
32,780	-12,841	258,440	119,667
33,794	-12,944	258,059	119,390
34,809	-12,854	257,970	119,418
35,823	-13,095	257,793	119,113
36,838	-12,903	257,522	119,145
37,853	-12,886	257,128	118,968
38,867	-13,006	257,008	118,796
39,882	-13,172	256,964	118,619
40,896	-13,069	256,598	118,530
41,911	-12,828	256,373	118,627
42,926	-13,020	256,030	118,290
43,940	-13,022	255,864	118,201
44,955	-12,967	255,624	118,127
45,969	-13,094	255,371	117,889
46,984	-13,214	255,003	117,604
47,999	-13,374	254,866	117,391
49,013	-13,679	254,618	117,002
50,028	-13,789	254,333	116,766
51,042	-13,709	254,074	116,706
52,057	-13,754	253,858	116,558
53,071	-13,617	253,549	116,523
54,086	-13,541	253,528	116,569
55,101	-13,626	253,378	116,416
56,115	-13,462	253,290	116,507
57,130	-12,965	253,156	116,863
58,144	-12,543	252,885	117,091
59,159	-12,786	252,652	116,764
60,174	-12,851	252,485	116,620
61,188	-12,846	252,297	116,527
62,203	-12,857	252,097	116,415
63,217	-12,710	251,828	116,407
64,232	-12,697	251,494	116,253
65,247	-12,861	251,252	115,990
66,261	-12,698	251,169	116,081
67,276	-12,906	251,055	115,840
68,290	-13,220	250,616	115,360
69,305	-13,287	250,396	115,191
70,320	-13,219	250,190	115,144
71,334	-13,143	250,075	115,145
72,349	-12,853	249,842	115,274
73,363	-12,859	249,546	115,122
74,378	-12,817	249,481	115,117
75,393	-12,825	249,213	114,977
76,407	-12,837	249,107	114,907
77,422	-12,863	248,741	114,706
78,436	-12,836	248,666	114,684
79,451	-12,987	248,511	114,475
80,466	-12,979	248,150	114,306
81,480	-13,011	247,988	114,194
82,495	-12,826	247,655	114,185
83,509	-12,854	247,559	114,108
84,524	-13,155	247,338	113,743
85,539	-13,241	247,211	113,602
86,553	-13,145	246,856	113,510
87,568	-13,121	246,827	113,506
88,582	-13,115	246,568	113,382
89,597	-13,105	246,465	113,333
90,611	-12,906	246,148	113,343
91,626	-12,977	246,195	113,296
92,641	-13,040	245,925	113,108
93,655	-12,806	245,750	113,213
94,670	-12,887	245,479	113,010
95,684	-13,017	245,428	112,869
96,699	-12,906	245,071	112,787
97,714	-13,135	245,023	112,564
98,728	-13,294	244,695	112,272
99,743	-13,307	244,499	112,161
100,757	-13,296	244,247	112,044
101,772	-13,263	244,089	111,989
102,787	-13,188	243,919	111,963
103,801	-13,116	243,758	111,939
104,816	-12,919	243,666	112,049
105,830	-12,742	243,416	112,070
106,845	-12,812	243,235	111,920
107,860	-13,003	243,073	111,678
108,874	-13,045	242,925	111,565
109,889	-12,937	242,549	111,471
110,903	-13,056	242,566	111,372
111,918	-13,172	242,258	111,125
112,933	-13,182	242,166	111,065
113,947	-12,957	241,902	111,118
114,962	-12,769	241,568	111,108
115,976	-12,855	241,530	111,010
116,991	-12,981	241,317	110,800
118,006	-12,996	241,308	110,773
119,020	-12,905	241,169	110,774
120,035	-13,004	240,832	110,529
121,049	-12,745	240,687	110,663
122,064	-12,569	240,505	110,713
123,079	-12,878	240,405	110,405
124,093	-13,055	240,087	110,106
125,108	-13,376	239,953	109,774
126,122	-13,236	239,644	109,737
127,137	-13,421	239,462	109,493
128,151	-13,102	239,235	109,638
129,166	-13,215	239,029	109,443
130,181	-13,276	238,940	109,343
131,195	-13,348	238,869	109,243
132,210	-13,088	238,619	109,328
133,224	-12,836	238,483	109,460
134,239	-12,971	238,318	109,265
135,254	-12,921	238,120	109,205
136,268	-13,117	237,803	108,892
137,283	-13,232	237,512	108,657
138,297	-13,319	237,412	108,532
139,312	-13,403	237,222	108,368
140,327	-13,093	237,212	108,602
141,341	-12,694	237,084	108,853
142,356	-12,648	237,013	108,848
143,370	-12,571	236,825	108,813
144,385	-12,636	236,572	108,635
145,400	-12,575	236,339	108,568
146,414	-12,879	236,362	108,326
147,429	-12,886	236,024	108,155
148,443	-12,860	235,955	108,135
149,458	-12,654	235,604	108,129
150,473	-12,779	235,549	107,994
151,487	-12,966	235,426	107,779
152,502	-12,709	235,246	107,891
153,516	-12,830	235,131	107,733
154,531	-12,888	234,936	107,588
155,546	-12,752	234,657	107,559
156,560	-12,758	234,523	107,483
157,575	-12,848	234,291	107,295
158,589	-12,618	234,068	107,365
159,604	-12,775	233,950	107,178
160,619	-12,335	233,831	107,461
161,633	-12,473	233,769	107,314
162,648	-12,551	233,483	107,112
163,662	-12,727	233,362	106,908
164,677	-12,833	233,340	106,805
165,692	-12,641	233,119	106,846
166,706	-12,679	233,060	106,779
167,721	-12,653	232,845	106,691
168,735	-12,490	232,709	106,747
169,750	-12,665	232,621	106,560
170,764	-12,679	232,454	106,464
171,779	-12,607	232,028	106,315
172,794	-12,630	232,054	106,299
173,808	-12,832	231,807	106,020
174,823	-13,143	231,634	105,688
175,837	-13,075	231,295	105,577
176,852	-12,918	231,348	105,714
177,867	-12,743	231,263	105,802
178,881	-12,784	231,076	105,676
179,896	-12,651	230,939	105,706
180,910	-12,645	230,787	105,632
181,925	-12,400	230,439	105,653
182,940	-12,633	230,326	105,411
183,954	-12,648	230,257	105,359
184,969	-12,622	230,233	105,359
185,983	-12,452	229,979	105,365
186,998	-12,673	229,923	105,159
188,013	-12,457	229,610	105,173
189,027	-12,496	229,592	105,125
190,042	-12,436	229,384	105,067
191,056	-12,437	229,076	104,916
192,071	-12,445	229,052	104,889
193,086	-12,454	228,837	104,774
194,100	-12,398	228,777	104,781
195,115	-13,015	228,285	104,072
196,129	-13,408	228,307	103,772
197,144	-7,324	230,192	109,324
198,159	-1,437	232,031	114,762
199,173	1,927	232,734	117,716
200,188	2,313	232,815	118,045
201,202	2,345	232,691	117,997
202,217	2,194	232,463	117,754
203,232	2,325	232,373	117,799
204,246	2,344	232,243	117,737
205,261	2,251	232,171	117,619
206,275	2,739	231,952	117,874
207,290	2,690	231,847	117,772
208,304	2,598	231,761	117,647
209,319	2,735	231,540	117,631
210,334	2,599	231,369	117,428
211,348	2,278	231,165	117,066
212,363	2,002	230,846	116,683
213,377	2,125	230,497	116,590
214,392	1,922	230,500	116,426
215,407	2,019	230,612	116,547
216,421	2,220	230,353	116,559
217,436	2,209	229,999	116,361
218,450	1,835	229,814	115,971
219,465	1,828	229,775	115,935
220,480	1,739	229,479	115,708
221,494	1,823	229,364	115,704
222,509	1,967	229,374	115,808
223,523	2,015	229,370	115,833
224,538	2,026	229,023	115,655
225,553	2,048	228,911	115,606
226,567	2,008	228,867	115,543
227,582	2,177	228,780	115,616
228,596	2,524	228,590	115,774
229,611	2,176	228,410	115,408
230,626	1,926	227,988	114,995
231,640	1,733	228,026	114,858
232,655	2,237	227,838	115,135
233,669	2,428	227,810	115,255
234,684	2,548	227,661	115,260
235,699	2,604	227,451	115,186
236,713	1,856	227,269	114,518
237,728	2,055	227,118	114,583
238,742	1,802	226,821	114,232
239,757	2,112	226,903	114,497
240,772	2,043	226,534	114,248
241,786	1,974	226,533	114,185
242,801	2,106	226,392	114,203
243,815	2,342	226,416	114,384
244,830	2,559	226,187	114,420
245,844	2,233	225,993	114,067
246,859	2,127	225,766	113,863
247,874	2,149	225,703	113,838
248,888	2,463	225,604	114,013
249,903	2,422	225,414	113,876
250,917	2,005	225,313	113,503
251,932	2,199	225,070	113,515
252,947	1,781	224,826	113,070
253,961	1,877	224,719	113,077
254,976	2,110	224,476	113,119
255,990	2,168	224,591	113,210
257,005	2,194	224,407	113,126
258,020	2,286	224,236	113,098
259,034	2,203	224,155	112,986
260,049	2,254	224,079	112,975
261,063	2,164	223,775	112,745
262,078	2,699	223,477	112,981
263,093	2,463	223,516	112,816
264,107	2,267	223,498	112,652
265,122	2,129	223,234	112,407
266,136	2,160	223,290	112,448
267,151	2,153	223,068	112,321
268,166	2,198	222,686	112,151
269,180	1,765	222,455	111,706
270,195	2,107	222,278	111,859
271,209	1,929	222,173	111,666
272,224	2,249	222,028	111,818
273,239	1,976	222,075	111,631
274,253	2,071	221,880	111,593
275,268	1,728	221,537	111,158
276,282	1,880	221,457	111,220
277,297	1,741	221,367	111,063
278,312	2,162	221,334	111,345
279,326	2,122	221,162	111,219
280,341	2,189	221,067	111,210
281,355	2,366	220,869	111,231
282,370	2,237	220,786	111,084
283,384	2,175	220,577	110,924
284,399	1,866	220,356	110,578
285,414	1,827	220,284	110,503
286,428	2,118	220,262	110,694
287,443	2,533	220,151	110,931
288,457	2,669	219,907	110,898
289,472	2,191	219,785	110,478
290,487	1,626	219,338	109,833
291,501	1,694	219,189	109,799
292,516	1,655	219,043	109,687
293,530	1,714	219,092	109,745
294,545	1,697	219,025	109,689
295,560	1,952	219,080	109,892
296,574	2,163	218,746	109,867
297,589	2,035	218,546	109,665
298,603	1,896	218,599	109,580
299,618	2,021	218,431	109,576
300,633	2,042	218,312	109,523
301,647	2,306	218,304	109,699
302,662	2,384	217,992	109,589
303,676	2,126	217,976	109,386
304,691	1,940	217,796	109,151
305,706	2,059	217,571	109,115
306,720	2,378	217,515	109,306
307,735	2,147	217,164	108,954
308,749	1,885	217,172	108,760
309,764	2,068	217,002	108,796
310,779	2,252	217,011	108,924
311,793	2,259	216,660	108,742
312,808	2,140	216,538	108,586
313,822	2,135	216,301	108,455
314,837	2,148	216,123	108,365
315,852	1,959	216,102	108,210
316,866	2,047	216,029	108,227
317,881	2,388	215,836	108,363
318,895	2,383	215,676	108,269
319,910	1,793	215,638	107,821
320,925	1,626	215,375	107,560
321,939	1,512	215,185	107,376
322,954	1,669	215,095	107,433
323,968	2,106	215,186	107,779
324,983	2,387	214,903	107,827
325,997	2,282	214,993	107,787
327,012	2,463	214,627	107,722
328,027	2,380	214,464	107,573
329,041	2,673	214,464	107,770
330,056	2,709	214,290	107,698
331,070	2,158	214,043	107,176
332,085	1,887	213,861	106,884
333,100	2,086	213,797	106,983
334,114	2,152	213,757	107,000
335,129	2,478	213,552	107,117
336,143	2,302	213,278	106,847
337,158	2,015	213,303	106,647
338,173	2,182	213,058	106,633
339,187	1,848	212,920	106,320
340,202	1,848	212,510	106,105
341,216	1,568	212,457	105,873
342,231	1,944	212,557	106,178
343,246	2,156	212,482	106,279
344,260	2,225	212,341	106,248
345,275	2,268	212,200	106,198
346,289	2,425	212,221	106,308
347,304	2,353	211,911	106,093
348,319	2,225	211,805	105,941
349,333	2,157	211,709	105,836
350,348	2,465	211,446	105,909
351,362	2,597	211,425	105,982
352,377	2,193	211,303	105,630
353,392	2,335	211,067	105,602
354,406	1,988	211,057	105,346
355,421	197,619	1315,951	1395,912
356,435	158,047	1450,526	1395,861
