DTS Sentinel unit serial number:	SN410029Multiplexer serial number:	ORYXHardware model number:	OX2-SRSoftware version number:	ORYX F/W v4,00 Oryx Data Collector v3.7.2.0data status	okinstallation	B6 Nyhavnadifferential loss correction	single-endedforward channel	channel 2reverse channel	N/Adate	2023/12/11time	08:10:08forward acquisition time	300,00reverse acquisition time	0,00gamma	499,1914k internal	0,3128k external	0,3128temperature offset calibration	1,0000default loss term (dB/km)	0,3820temperature slope calibration	1,0000multiplexer offset coefficient	1,0000multiplexer slope coefficient	1,0000fibre end	0,00T internal ref (°C)	18,21T ext. ref 1 (°C)	0,46T ext. ref 2 (°C)	0,46length (m)	temperature (°C)	Stokes	anti-Stokes-744,400	-200,000	-0,020	0,127
-743,385	-13,353	-0,304	0,146
-742,371	-132,521	0,158	-0,015
-741,356	50,617	-0,245	0,172
-740,342	298,647	0,081	0,111
-739,327	-11,388	-0,290	0,142
-738,312	-73,513	0,047	-0,013
-737,298	-98,946	-0,297	-0,056
-736,283	-5,366	0,104	-0,053
-735,269	-53,673	-0,303	0,102
-734,254	-113,281	0,145	-0,021
-733,239	-69,797	-0,447	-0,126
-732,225	-13,733	0,177	0,085
-731,210	-24,120	0,077	0,034
-730,196	-200,000	-0,005	-0,132
-729,181	-131,776	0,007	-0,001
-728,167	131,550	0,050	0,048
-727,152	81,137	-0,087	-0,069
-726,137	-7,673	-0,137	0,069
-725,123	-21,333	0,044	-0,020
-724,108	-200,000	-0,030	-0,135
-723,094	-158,759	-0,098	0,004
-722,079	800,000	-0,076	-0,210
-721,064	-22,095	-0,164	-0,074
-720,050	-200,000	-0,008	0,065
-719,035	-200,000	-0,046	-0,175
-718,021	-200,000	-0,019	-0,118
-717,006	-66,668	-0,071	-0,021
-715,991	5,221	-0,106	-0,058
-714,977	623,970	0,015	0,028
-713,962	800,000	0,027	0,066
-712,948	435,695	0,080	-0,129
-711,933	800,000	-0,037	-0,082
-710,918	-35,107	-0,064	0,026
-709,904	-19,584	-0,152	-0,070
-708,889	-88,273	0,068	0,015
-707,875	292,926	-0,039	0,052
-706,860	227,352	-0,044	0,054
-705,845	488,565	-0,030	0,052
-704,831	150,284	0,043	-0,044
-703,816	-5,684	0,048	0,024
-702,802	-62,914	-0,103	-0,031
-701,787	188,291	0,062	-0,069
-700,772	-160,866	-0,137	0,005
-699,758	88,985	-0,086	0,071
-698,743	201,343	-0,080	0,092
-697,729	-200,000	-0,024	0,108
-696,714	-200,000	0,015	0,113
-695,699	-200,000	-0,012	0,069
-694,685	118,728	-0,032	-0,029
-693,670	440,773	-0,035	0,057
-692,656	154,800	-0,024	-0,024
-691,641	-35,437	0,086	0,034
-690,627	375,268	0,062	0,094
-689,612	-164,779	0,171	0,006
-688,597	372,010	-0,056	-0,085
-687,583	-148,478	-0,143	-0,009
-686,568	-68,462	-0,095	-0,027
-685,554	800,000	-0,004	-0,012
-684,539	108,633	0,089	-0,079
-683,524	-73,668	0,058	0,016
-682,510	-109,103	0,039	-0,006
-681,495	34,673	-0,088	0,057
-680,481	-200,000	-0,004	-0,067
-679,466	-200,000	0,002	-0,110
-678,451	-146,434	-0,215	-0,014
-677,437	-23,601	-0,104	0,046
-676,422	391,339	0,083	0,129
-675,408	89,990	-0,072	0,059
-674,393	-200,000	0,033	0,129
-673,378	582,958	0,020	-0,036
-672,364	-200,000	-0,005	-0,040
-671,349	-149,799	0,098	0,006
-670,335	177,940	-0,104	-0,113
-669,320	-200,000	0,007	0,035
-668,305	217,185	0,153	0,181
-667,291	320,337	0,021	-0,029
-666,276	-200,000	0,007	-0,074
-665,262	225,211	-0,091	-0,110
-664,247	-144,532	-0,124	0,008
-663,232	-119,086	-0,115	-0,015
-662,218	-62,810	0,130	-0,040
-661,203	-200,000	-0,012	-0,063
-660,189	195,162	0,037	0,041
-659,174	-60,620	0,027	0,008
-658,159	59,764	0,098	-0,072
-657,145	-18,952	-0,045	0,021
-656,130	468,928	0,050	-0,083
-655,116	-200,000	0,001	-0,069
-654,101	246,342	-0,092	0,115
-653,086	800,000	-0,059	0,127
-652,072	-148,423	-0,057	0,003
-651,057	298,812	-0,072	-0,099
-650,043	-200,000	-0,037	-0,162
-649,028	110,363	0,106	-0,094
-648,014	-200,000	-0,010	-0,088
-646,999	-18,610	-0,059	0,027
-645,984	243,650	0,011	-0,014
-644,970	230,687	-0,051	-0,062
-643,955	333,310	0,007	0,010
-642,941	148,023	-0,084	-0,084
-641,926	48,237	-0,110	-0,076
-640,911	467,806	0,050	0,084
-639,897	371,996	0,063	0,095
-638,882	64,610	-0,022	-0,017
-637,868	-13,905	-0,047	-0,023
-636,853	800,000	0,020	-0,044
-635,838	800,000	-0,049	-0,146
-634,824	13,911	-0,048	0,028
-633,809	365,417	0,055	0,082
-632,795	337,298	0,045	0,066
-631,780	5,510	0,073	0,040
-630,765	800,000	0,027	-0,067
-629,751	-200,000	-0,002	0,014
-628,736	-200,000	0,026	-0,167
-627,722	-200,000	-0,052	-0,170
-626,707	297,671	-0,055	-0,075
-625,692	472,767	0,084	-0,140
-624,678	-10,584	-0,046	0,023
-623,663	-55,202	-0,109	-0,036
-622,649	21,912	-0,167	-0,101
-621,634	50,337	-0,127	-0,089
-620,619	277,526	-0,063	-0,083
-619,605	15,652	0,127	-0,074
-618,590	-41,154	0,002	0,001
-617,576	201,525	0,062	0,070
-616,561	715,114	-0,033	-0,066
-615,546	-200,000	-0,003	0,031
-614,532	-200,000	0,007	0,061
-613,517	614,086	-0,034	-0,064
-612,503	196,423	-0,110	0,124
-611,488	-146,017	0,034	-0,002
-610,474	-200,000	0,007	-0,122
-609,459	-200,000	0,001	-0,047
-608,444	-107,005	-0,069	0,011
-607,430	93,521	-0,040	-0,034
-606,415	-20,756	0,130	-0,059
-605,401	518,733	0,094	0,163
-604,386	-200,000	0,007	0,037
-603,371	-200,000	0,023	0,116
-602,357	-115,110	-0,082	-0,011
-601,342	-81,301	0,020	-0,005
-600,328	-157,407	-0,052	0,002
-599,313	486,542	-0,053	-0,091
-598,298	31,672	-0,084	-0,053
-597,284	800,000	0,018	-0,045
-596,269	-102,035	0,155	-0,027
-595,255	25,881	0,078	-0,048
-594,240	-61,919	0,155	0,048
-593,225	144,592	-0,109	-0,108
-592,211	-200,000	-0,015	-0,114
-591,196	103,195	-0,035	0,031
-590,182	-43,334	0,118	0,044
-589,167	191,297	0,092	-0,102
-588,152	61,164	0,023	0,017
-587,138	-108,025	-0,027	0,004
-586,123	787,833	0,042	-0,085
-585,109	-153,751	0,093	0,005
-584,094	-51,090	-0,186	-0,064
-583,079	127,619	0,137	0,129
-582,065	-200,000	-0,033	0,143
-581,050	-200,000	-0,030	0,138
-580,036	39,144	-0,075	0,050
-579,021	-200,000	0,001	0,046
-578,006	-200,000	0,040	-0,149
-576,992	625,791	0,024	-0,044
-575,977	-73,031	0,087	-0,024
-574,963	-200,000	0,030	0,192
-573,948	27,037	-0,048	-0,030
-572,934	392,387	0,071	0,110
-571,919	-53,765	-0,126	0,042
-570,904	-200,000	-0,015	-0,192
-569,890	162,463	0,054	0,056
-568,875	800,000	-0,059	0,140
-567,861	800,000	-0,041	0,085
-566,846	31,996	0,115	-0,073
-565,831	-200,000	-0,009	-0,036
-564,817	66,011	-0,087	-0,065
-563,802	-150,828	0,114	-0,006
-562,788	-200,000	0,020	0,147
-561,773	-154,967	-0,217	-0,010
-560,758	-181,636	0,172	-0,002
-559,744	166,173	-0,010	-0,010
-558,729	479,582	-0,036	0,060
-557,715	800,000	0,051	-0,133
-556,700	-200,000	0,002	-0,043
-555,685	224,616	0,049	0,058
-554,671	-12,288	0,092	0,044
-553,656	-109,548	-0,024	-0,004
-552,642	-200,000	-0,020	-0,105
-551,627	-200,000	-0,005	0,109
-550,612	-200,000	0,013	0,079
-549,598	466,451	-0,083	-0,138
-548,583	-200,000	-0,034	-0,142
-547,569	800,000	0,014	-0,040
-546,554	-160,048	0,072	-0,003
-545,539	280,928	0,089	0,118
-544,525	492,938	0,050	0,084
-543,510	-92,878	-0,053	0,011
-542,496	68,010	0,037	-0,028
-541,481	800,000	-0,010	-0,031
-540,466	-200,000	0,012	0,119
-539,452	-200,000	-0,005	0,137
-538,437	-124,860	0,114	-0,013
-537,423	-200,000	0,002	0,072
-536,408	-200,000	-0,027	0,126
-535,393	651,422	-0,039	-0,074
-534,379	-74,860	-0,015	-0,004
-533,364	-26,096	-0,036	-0,016
-532,350	800,000	-0,015	0,042
-531,335	-71,294	-0,106	0,029
-530,321	65,610	-0,057	0,043
-529,306	-200,000	-0,009	-0,055
-528,291	370,825	0,009	0,013
-527,277	-200,000	0,013	-0,120
-526,262	-200,000	-0,005	-0,064
-525,248	-200,000	-0,025	0,091
-524,233	-200,000	0,014	0,105
-523,218	-96,826	0,099	0,019
-522,204	86,728	-0,120	0,097
-521,189	-200,000	0,015	-0,118
-520,175	-88,342	-0,145	-0,032
-519,160	-200,000	0,002	0,014
-518,145	-200,000	0,001	0,017
-517,131	-136,709	-0,134	0,011
-516,116	-86,935	0,104	-0,023
-515,102	-119,356	-0,088	-0,011
-514,087	-200,000	0,027	-0,136
-513,072	441,821	0,043	-0,070
-512,058	-200,000	-0,017	-0,182
-511,043	177,841	0,069	-0,074
-510,029	57,320	0,041	0,029
-509,014	146,970	0,060	0,060
-507,999	-40,532	0,056	0,021
-506,985	-160,338	0,091	0,004
-505,970	-147,549	0,090	0,005
-504,956	800,000	-0,035	-0,086
-503,941	25,519	-0,021	0,013
-502,926	-117,515	0,109	-0,014
-501,912	-138,178	-0,065	0,005
-500,897	-112,983	0,039	0,006
-499,883	-119,316	-0,082	-0,010
-498,868	-200,000	0,006	-0,021
-497,853	-94,603	-0,009	0,002
-496,839	286,321	0,061	-0,082
-495,824	-147,942	0,154	-0,009
-494,810	-200,000	-0,009	0,193
-493,795	116,781	-0,087	-0,079
-492,781	-200,000	-0,016	-0,155
-491,766	104,446	0,198	-0,172
-490,751	472,608	0,011	-0,019
-489,737	-98,772	0,141	-0,026
-488,722	800,000	-0,023	0,063
-487,708	222,191	0,084	0,100
-486,693	-1,369	-0,051	-0,027
-485,678	124,931	0,048	0,044
-484,664	-173,420	0,059	0,001
-483,649	-200,000	0,018	-0,075
-482,635	-106,074	0,144	-0,024
-481,620	182,853	-0,081	0,088
-480,605	78,466	0,079	0,063
-479,591	17,222	-0,052	0,030
-478,576	36,871	0,079	0,051
-477,562	800,000	-0,070	0,145
-476,547	459,564	-0,080	-0,131
-475,532	800,000	-0,055	0,135
-474,518	143,180	-0,020	-0,020
-473,503	582,892	-0,060	0,108
-472,489	-200,000	-0,013	0,168
-471,474	800,000	-0,025	0,074
-470,459	-200,000	-0,009	-0,061
-469,445	29,893	-0,094	-0,059
-468,430	-130,238	-0,021	0,002
-467,416	-200,000	0,019	0,103
-466,401	800,000	0,054	0,116
-465,386	800,000	0,056	0,158
-464,372	800,000	0,027	-0,077
-463,357	-95,242	-0,083	-0,016
-462,343	294,196	0,051	-0,069
-461,328	800,000	0,049	-0,124
-460,313	394,812	0,054	-0,083
-459,299	93,782	0,083	0,069
-458,284	503,639	0,030	0,052
-457,270	144,364	-0,053	-0,052
-456,255	131,463	0,041	0,039
-455,241	-200,000	0,045	-0,175
-454,226	-188,297	-0,131	0,001
-453,211	800,000	-0,011	-0,024
-452,197	-200,000	0,047	0,163
-451,182	-200,000	-0,018	0,137
-450,168	53,255	-0,061	-0,043
-449,153	-200,000	-0,011	0,113
-448,138	-66,373	-0,055	0,016
-447,124	-96,136	-0,126	-0,024
-446,109	-200,000	0,012	-0,155
-445,095	229,501	0,066	0,079
-444,080	-46,402	0,180	0,065
-443,065	332,572	-0,104	0,148
-442,051	-200,000	0,011	-0,041
-441,036	569,705	-0,050	0,090
-440,022	138,155	-0,164	-0,158
-439,007	-99,126	0,059	-0,011
-437,992	-200,000	-0,025	-0,087
-436,978	800,000	0,007	0,016
-435,963	265,747	0,032	-0,042
-434,949	116,264	-0,091	-0,082
-433,934	132,745	-0,014	-0,013
-432,919	-77,141	-0,052	-0,013
-431,905	-200,000	0,016	0,055
-430,890	-62,482	0,117	-0,036
-429,876	11,696	0,141	-0,079
-428,861	-200,000	0,011	0,039
-427,846	-200,000	0,014	-0,110
-426,832	-87,088	-0,040	-0,009
-425,817	800,000	-0,054	-0,158
-424,803	-56,094	0,086	-0,028
-423,788	-200,000	0,024	0,078
-422,773	-200,000	-0,006	0,102
-421,759	196,692	0,066	0,074
-420,744	-62,540	-0,102	0,031
-419,730	31,876	-0,054	0,034
-418,715	800,000	0,019	-0,049
-417,701	800,000	-0,041	-0,126
-416,686	6,920	-0,056	0,030
-415,671	-200,000	-0,009	0,045
-414,657	49,954	0,068	0,047
-413,642	-200,000	-0,013	-0,053
-412,628	-200,000	0,015	0,145
-411,613	800,000	0,048	0,116
-410,598	-120,986	-0,054	0,007
-409,584	332,887	-0,038	0,054
-408,569	-108,626	0,127	-0,020
-407,555	-200,000	-0,005	-0,090
-406,540	59,620	0,034	0,024
-405,525	-200,000	-0,007	0,074
-404,511	800,000	0,035	-0,079
-403,496	-18,346	-0,187	-0,086
-402,482	110,882	0,028	-0,025
-401,467	205,614	0,085	-0,097
-400,452	73,399	0,059	0,045
-399,438	42,223	0,073	0,049
-398,423	-49,477	0,101	-0,035
-397,409	800,000	0,024	-0,074
-396,394	-129,183	-0,139	-0,014
-395,379	800,000	-0,038	0,120
-394,365	-200,000	0,014	0,051
-393,350	800,000	-0,025	0,054
-392,336	61,695	-0,085	-0,062
-391,321	67,635	0,082	0,062
-390,306	-200,000	-0,004	0,046
-389,292	649,758	-0,043	-0,082
-388,277	800,000	-0,054	0,136
-387,263	11,682	0,156	0,088
-386,248	-200,000	0,018	0,069
-385,233	800,000	0,022	0,056
-384,219	800,000	0,044	-0,099
-383,204	263,437	0,028	-0,036
-382,190	-200,000	-0,022	-0,106
-381,175	800,000	0,026	0,064
-380,160	430,075	-0,088	-0,140
-379,146	-81,381	0,099	-0,024
-378,131	189,391	0,073	0,081
-377,117	800,000	-0,047	0,117
-376,102	-35,208	-0,093	0,037
-375,088	426,782	-0,035	-0,055
-374,073	-200,000	0,031	-0,105
-373,058	-190,165	0,083	-0,001
-372,044	-10,405	-0,070	-0,034
-371,029	379,307	-0,088	-0,133
-370,015	649,536	0,011	-0,021
-369,000	-74,844	-0,084	0,022
-367,985	-92,134	-0,022	0,005
-366,971	51,859	-0,012	0,009
-365,956	-67,446	-0,024	-0,007
-364,942	-7,328	0,143	-0,071
-363,927	-200,000	-0,032	0,140
-362,912	800,000	0,023	-0,062
-361,898	-3,113	-0,100	-0,051
-360,883	-200,000	0,016	0,054
-359,869	800,000	-0,018	0,048
-358,854	53,061	0,090	-0,063
-357,839	-75,960	0,104	0,027
-356,825	-156,948	-0,100	0,004
-355,810	189,809	-0,027	-0,030
-354,796	-131,257	-0,151	0,014
-353,781	-7,369	0,070	0,035
-352,766	-117,240	-0,083	0,011
-351,752	-78,117	0,074	0,018
-350,737	800,000	-0,005	0,015
-349,723	252,045	-0,064	0,080
-348,708	-147,537	-0,154	0,009
-347,693	-200,000	0,004	0,176
-346,679	-150,990	0,036	0,002
-345,664	-200,000	-0,005	0,070
-344,650	25,817	0,109	0,066
-343,635	-90,018	0,083	0,018
-342,620	-200,000	-0,027	0,124
-341,606	800,000	0,030	-0,089
-340,591	-172,869	-0,087	0,002
-339,577	87,897	-0,045	-0,036
-338,562	476,586	0,069	-0,115
-337,548	-140,678	0,062	-0,005
-336,533	-66,765	-0,043	0,013
-335,518	-150,594	0,107	0,006
-334,504	-179,524	-0,062	-0,001
-333,489	-183,238	0,105	-0,001
-332,475	-74,098	-0,043	-0,011
-331,460	-12,169	0,086	-0,041
-330,445	105,404	-0,043	0,037
-329,431	107,061	-0,078	0,068
-328,416	-20,493	0,134	0,060
-327,402	83,468	0,089	0,071
-326,387	-89,317	0,032	0,007
-325,372	-6,203	-0,063	-0,031
-324,358	-200,000	-0,013	-0,071
-323,343	-200,000	-0,008	-0,055
-322,329	195,681	-0,062	0,070
-321,314	-138,143	-0,042	0,003
-320,299	755,255	0,055	0,110
-319,285	59,082	0,103	0,074
-318,270	-39,313	0,020	-0,008
-317,256	119,368	-0,074	0,067
-316,241	31,165	0,157	0,098
-315,226	-78,112	0,097	0,024
-314,212	-200,000	0,005	0,046
-313,197	-200,000	0,000	0,080
-312,183	203,467	-0,035	0,040
-311,168	-200,000	-0,020	-0,155
-310,153	-200,000	0,010	-0,046
-309,139	800,000	0,018	-0,050
-308,124	-200,000	-0,033	-0,114
-307,110	-200,000	-0,006	0,082
-306,095	741,794	-0,023	-0,046
-305,080	179,796	0,069	0,074
-304,066	18,368	-0,072	0,042
-303,051	800,000	-0,043	-0,108
-302,037	519,372	0,086	-0,148
-301,022	-200,000	-0,002	0,021
-300,008	-31,346	0,064	-0,026
-298,993	800,000	0,010	0,022
-297,978	-83,019	0,012	0,003
-296,964	-109,182	-0,065	0,010
-295,949	800,000	0,045	-0,096
-294,935	-200,000	0,008	0,127
-293,920	103,113	0,066	0,056
-292,905	272,165	-0,057	-0,073
-291,891	387,019	0,045	0,069
-290,876	800,000	-0,015	0,049
-289,862	407,188	0,040	-0,063
-288,847	170,550	-0,022	-0,023
-287,832	-200,000	-0,012	-0,108
-286,818	-200,000	-0,003	-0,158
-285,803	45,072	0,048	-0,032
-284,789	40,156	-0,038	-0,025
-283,774	-32,309	0,061	0,025
-282,759	153,873	-0,071	-0,071
-281,745	629,947	-0,062	-0,115
-280,730	414,414	-0,086	-0,135
-279,716	-200,000	0,009	0,147
-278,701	-112,289	-0,168	0,024
-277,686	370,596	0,053	0,078
-276,672	-114,798	-0,072	-0,010
-275,657	-61,884	-0,062	-0,019
-274,643	695,264	0,061	-0,118
-273,628	80,204	-0,016	0,013
-272,613	800,000	-0,035	-0,109
-271,599	-26,120	0,111	0,047
-270,584	800,000	0,022	0,058
-269,570	-200,000	0,004	0,026
-268,555	-11,116	-0,014	-0,007
-267,540	623,232	-0,062	-0,115
-266,526	14,434	-0,080	-0,046
-265,511	800,000	-0,036	0,097
-264,497	800,000	-0,035	-0,078
-263,482	-200,000	-0,017	0,055
-262,467	800,000	-0,023	0,051
-261,453	800,000	0,059	0,170
-260,438	325,315	-0,065	-0,091
-259,424	800,000	-0,044	0,101
-258,409	-200,000	0,023	-0,120
-257,395	105,356	-0,077	0,067
-256,380	-200,000	-0,019	-0,115
-255,365	800,000	0,058	0,169
-254,351	-124,073	0,060	0,007
-253,336	-153,210	0,019	0,001
-252,322	-32,980	-0,112	-0,045
-251,307	-82,460	-0,196	-0,046
-250,292	154,291	0,164	-0,165
-249,278	40,892	-0,036	-0,024
-248,263	25,195	0,098	-0,060
-247,249	-200,000	0,006	0,026
-246,234	-140,314	0,052	-0,004
-245,219	-100,397	-0,158	-0,028
-244,205	800,000	0,008	0,016
-243,190	104,517	0,050	-0,043
-242,176	-70,374	0,064	0,018
-241,161	800,000	-0,012	0,033
-240,146	-200,000	-0,009	0,104
-239,132	-200,000	0,014	-0,091
-238,117	198,404	-0,112	-0,125
-237,103	-63,848	-0,089	-0,026
-236,088	290,259	-0,004	0,006
-235,073	-6,965	0,106	-0,052
-234,059	-57,475	0,062	-0,020
-233,044	329,408	0,098	0,137
-232,030	-173,734	0,077	-0,002
-231,015	709,224	-0,035	0,069
-230,000	-9,719	-0,174	-0,084
-228,986	217,734	-0,089	0,104
-227,971	63,925	0,138	-0,101
-226,957	118,123	0,113	-0,101
-225,942	-31,260	0,061	0,025
-224,927	-164,129	0,088	-0,003
-223,913	-89,890	-0,220	0,046
-222,898	53,475	-0,099	-0,069
-221,884	-200,000	-0,024	-0,129
-220,869	-200,000	-0,005	-0,042
-219,855	483,555	-0,030	-0,050
-218,840	-156,296	0,140	-0,006
-217,825	92,455	-0,132	-0,109
-216,811	-95,173	0,050	-0,010
-215,796	-101,545	-0,054	-0,010
-214,782	800,000	-0,012	-0,029
-213,767	92,046	0,130	0,106
-212,752	-0,772	0,122	0,063
-211,738	6,303	-0,080	0,043
-210,723	-200,000	0,020	0,145
-209,709	800,000	-0,062	0,166
-208,694	-145,608	-0,060	0,004
-207,679	-87,878	0,152	-0,033
-206,665	393,671	0,033	-0,050
-205,650	-200,000	-0,014	0,210
-204,636	26,166	-0,082	0,050
-203,621	-200,000	-0,000	0,009
-202,606	-18,000	-0,150	-0,068
-201,592	-200,000	0,017	-0,057
-200,577	-59,315	-0,061	0,019
-199,563	328,833	0,033	-0,046
-198,548	-200,000	-0,032	0,127
-197,533	125,718	0,087	0,080
-196,519	339,043	0,109	0,155
-195,504	-200,000	0,014	-0,065
-194,490	800,000	-0,036	-0,084
-193,475	2,151	0,033	-0,017
-192,460	14,307	-0,064	0,036
-191,446	-7,015	0,016	-0,008
-190,431	800,000	-0,018	0,047
-189,417	-174,513	0,121	0,002
-188,402	800,000	0,040	0,120
-187,387	-92,893	0,020	-0,004
-186,373	800,000	-0,045	0,099
-185,358	213,339	-0,080	0,093
-184,344	800,000	0,054	0,171
-183,329	786,524	0,035	-0,070
-182,315	113,675	-0,073	0,064
-181,300	-200,000	-0,007	0,163
-180,285	800,000	0,033	-0,083
-179,271	800,000	-0,078	-0,177
-178,256	-200,000	-0,006	0,029
-177,242	-200,000	-0,021	0,124
-176,227	478,970	0,050	0,083
-175,212	-113,668	-0,065	-0,009
-174,198	513,389	-0,026	-0,044
-173,183	800,000	-0,026	0,074
-172,169	348,059	-0,014	-0,020
-171,154	109,194	-0,077	0,067
-170,139	12,018	0,098	-0,054
-169,125	800,000	-0,042	0,111
-168,110	81,905	-0,081	-0,063
-167,096	293,699	0,029	-0,038
-166,081	-200,000	0,016	0,068
-165,066	-1,751	-0,113	-0,057
-164,052	13,744	-0,087	0,049
-163,037	-200,000	0,016	-0,134
-162,023	167,091	0,041	-0,043
-161,008	800,000	-0,030	-0,084
-159,993	179,539	0,044	0,046
-158,979	-200,000	-0,030	-0,152
-157,964	271,170	0,057	-0,073
-156,950	83,093	-0,078	-0,062
-155,935	35,385	0,012	0,007
-154,920	762,931	-0,027	0,054
-153,906	134,998	-0,092	0,087
-152,891	800,000	-0,024	0,071
-151,877	354,372	-0,041	-0,060
-150,862	-200,000	0,016	-0,123
-149,847	-200,000	-0,022	0,074
-148,833	-200,000	0,005	0,230
-147,818	4,251	-0,182	0,097
-146,804	-74,185	0,081	-0,021
-145,789	632,647	0,046	0,086
-144,775	-200,000	0,017	-0,085
-143,760	-51,436	-0,052	-0,018
-142,745	137,199	-0,093	-0,088
-141,731	270,506	-0,048	0,061
-140,716	66,663	-0,098	0,072
-139,702	299,290	0,089	0,120
-138,687	-199,082	-0,063	-0,000
-137,672	-104,365	0,014	-0,002
-136,658	800,000	-0,024	-0,056
-135,643	800,000	0,041	0,098
-134,629	-200,000	-0,015	-0,070
-133,614	524,004	0,052	-0,089
-132,599	49,315	-0,045	0,031
-131,585	392,620	0,066	0,100
-130,570	217,783	-0,043	0,049
-129,556	-149,369	0,120	0,007
-128,541	-22,276	-0,091	0,040
-127,526	-139,965	0,029	-0,002
-126,512	800,000	0,045	0,121
-125,497	116,327	-0,079	0,071
-124,483	800,000	0,009	-0,019
-123,468	-69,336	0,046	0,013
-122,453	-200,000	0,014	0,053
-121,439	73,571	0,012	-0,009
-120,424	800,000	-0,053	-0,153
-119,410	50,604	-0,035	-0,024
-118,395	366,791	0,043	-0,063
-117,380	-72,526	0,037	0,010
-116,366	-190,801	-0,032	-0,000
-115,351	-200,000	0,015	0,090
-114,337	660,332	0,033	-0,061
-113,322	169,518	-0,095	0,098
-112,307	-200,000	-0,005	-0,025
-111,293	88,134	0,011	0,009
-110,278	-157,660	-0,040	0,002
-109,264	122,824	-0,050	0,046
-108,249	20,908	-0,042	-0,025
-107,234	240,984	-0,030	0,037
-106,220	219,491	0,057	-0,066
-105,205	-94,368	-0,105	-0,021
-104,191	569,281	0,058	0,102
-103,176	747,917	0,008	0,016
-102,162	665,220	0,099	0,187
-101,147	-200,000	0,003	0,048
-100,132	13,315	0,155	-0,087
-99,118	188,477	0,033	-0,036
-98,103	-175,437	0,046	-0,001
-97,089	-53,571	-0,071	0,023
-96,074	45,563	0,069	0,046
-95,059	-58,788	0,114	0,036
-94,045	800,000	-0,062	0,140
-93,030	19,271	-0,014	0,008
-92,016	606,787	0,050	-0,090
-91,001	125,872	0,091	0,084
-89,986	22,571	0,097	0,058
-88,972	-78,032	0,094	-0,023
-87,957	94,484	0,116	0,095
-86,943	55,989	-0,096	0,068
-85,928	-84,928	-0,108	-0,024
-84,913	224,710	-0,072	0,084
-83,899	800,000	-0,012	-0,032
-82,884	0,516	0,089	0,046
-81,870	673,711	-0,032	0,060
-80,855	249,655	0,078	0,097
-79,840	-186,500	-0,034	-0,000
-78,826	-82,300	0,144	-0,034
-77,811	-92,927	-0,155	-0,031
-76,797	-135,077	-0,128	0,011
-75,782	800,000	0,036	0,095
-74,767	-10,037	0,153	0,073
-73,753	208,069	-0,089	0,101
-72,738	53,810	0,114	0,079
-71,724	702,390	-0,036	-0,068
-70,709	-52,743	-0,130	-0,043
-69,694	100,528	0,072	0,061
-68,680	26,923	0,079	0,048
-67,665	37,530	0,028	0,018
-66,651	-38,730	0,117	-0,045
-65,636	-200,000	-0,019	0,085
-64,622	-200,000	-0,001	-0,067
-63,607	-200,000	0,009	-0,067
-62,592	800,000	0,033	-0,074
-61,578	556,316	-0,059	0,103
-60,563	-200,000	-0,011	0,060
-59,549	24,935	0,089	0,053
-58,534	-34,817	-1,664	-0,655
-57,519	800,000	-0,426	-1,141
-56,505	-200,000	-1,077	-4,816
-55,490	-98,209	0,588	0,108
-54,476	800,000	5,113	12,099
-53,461	-200,000	16,117	276,640
-52,446	-200,000	704,273	2254,277
-51,432	581,672	1617,332	2884,404
-50,417	124,314	1619,109	1474,629
-49,403	88,229	1280,567	1028,789
-48,388	37,666	1026,584	658,731
-47,373	21,577	988,931	581,281
-46,359	20,315	977,658	570,463
-45,344	18,530	973,420	562,086
-44,330	18,671	971,998	561,707
-43,315	18,334	970,227	559,554
-42,300	18,287	969,313	558,849
-41,286	18,296	968,447	558,358
-40,271	18,275	967,521	557,733
-39,257	18,292	966,544	557,204
-38,242	18,214	965,735	556,458
-37,227	18,288	964,885	556,188
-36,213	18,232	964,039	555,497
-35,198	18,228	963,030	554,880
-34,184	18,312	962,297	554,709
-33,169	18,268	961,469	554,067
-32,154	18,305	960,607	553,669
-31,140	18,285	959,688	553,050
-30,125	18,332	958,953	552,760
-29,111	18,260	958,094	552,008
-28,096	18,306	957,669	551,890
-27,082	18,244	956,834	551,186
-26,067	18,293	956,050	550,871
-25,052	18,215	955,492	550,276
-24,038	18,245	954,718	549,905
-23,023	18,217	953,868	549,302
-22,009	18,326	953,304	549,310
-20,994	18,216	952,647	548,553
-19,979	18,242	951,954	548,218
-18,965	18,199	951,529	547,811
-17,950	18,227	950,605	547,349
-16,936	18,213	950,129	547,007
-15,921	18,166	949,316	546,365
-14,906	18,072	948,598	545,629
-13,892	18,184	948,003	545,625
-12,877	18,093	947,543	545,048
-11,863	18,048	946,923	544,523
-10,848	18,091	946,388	544,332
-9,833	18,161	945,892	544,249
-8,819	18,199	945,157	543,927
-7,804	18,143	944,470	543,330
-6,790	18,115	943,824	542,849
-5,775	18,148	943,413	542,697
-4,760	18,175	942,558	542,269
-3,746	18,157	942,120	541,936
-2,731	18,030	941,307	541,044
-1,717	18,008	940,662	540,582
-0,702	18,025	939,957	540,209
0,313	17,752	939,346	539,805
1,327	20,788	937,712	548,454
2,342	29,799	794,903	488,973
3,356	26,221	448,302	270,364
4,371	-4,460	294,589	146,846
5,386	-8,459	276,114	133,816
6,400	-9,962	270,274	129,571
7,415	-10,246	267,881	128,149
8,429	-9,966	266,830	127,893
9,444	-9,833	265,904	127,561
10,459	-9,591	265,413	127,535
11,473	-9,509	264,776	127,293
12,488	-9,654	264,380	126,959
13,502	-9,600	263,880	126,756
14,517	-9,598	263,584	126,605
15,531	-9,051	263,281	126,945
16,546	-8,816	262,883	126,955
17,561	-8,983	262,685	126,696
18,575	-8,864	262,290	126,603
19,590	-8,840	261,863	126,407
20,604	-8,741	261,670	126,391
21,619	-8,932	261,204	125,983
22,634	-8,758	260,845	125,956
23,648	-8,901	260,604	125,699
24,663	-9,004	260,472	125,532
25,677	-8,863	260,126	125,480
26,692	-8,860	259,865	125,346
27,707	-8,870	259,627	125,211
28,721	-8,923	259,300	124,995
29,736	-9,005	259,168	124,847
30,750	-8,898	258,824	124,765
31,765	-8,836	258,596	124,699
32,780	-8,901	258,392	124,532
33,794	-8,941	258,104	124,347
34,809	-8,901	257,861	124,254
35,823	-8,765	257,599	124,237
36,838	-8,848	257,435	124,073
37,853	-9,195	257,214	123,649
38,867	-8,920	256,960	123,759
39,882	-8,832	256,733	123,716
40,896	-8,800	256,647	123,692
41,911	-9,036	256,243	123,279
42,926	-8,925	256,114	123,303
43,940	-8,895	255,758	123,147
44,955	-8,983	255,688	123,025
45,969	-8,953	255,361	122,883
46,984	-9,300	255,211	122,495
47,999	-9,098	255,034	122,576
49,013	-9,118	254,613	122,346
50,028	-9,390	254,503	122,044
51,042	-9,388	254,239	121,908
52,057	-9,372	254,061	121,826
53,071	-9,357	253,830	121,717
54,086	-9,365	253,633	121,605
55,101	-9,292	253,459	121,574
56,115	-9,324	253,303	121,461
57,130	-8,995	253,013	121,597
58,144	-9,053	252,907	121,485
59,159	-9,210	252,639	121,209
60,174	-9,101	252,576	121,263
61,188	-9,149	252,296	121,076
62,203	-8,967	252,159	121,157
63,217	-8,961	251,954	121,053
64,232	-8,773	251,454	120,964
65,247	-9,124	251,344	120,598
66,261	-9,062	251,202	120,572
67,276	-9,018	251,010	120,507
68,290	-9,167	250,830	120,282
69,305	-9,341	250,405	119,917
70,320	-9,283	250,302	119,907
71,334	-9,143	250,143	119,940
72,349	-8,927	249,887	119,993
73,363	-9,078	249,658	119,742
74,378	-9,187	249,524	119,574
75,393	-8,909	249,300	119,694
76,407	-8,868	248,939	119,545
77,422	-9,215	249,008	119,271
78,436	-9,041	248,734	119,278
79,451	-9,161	248,499	119,052
80,466	-9,006	248,300	119,078
81,480	-9,170	248,109	118,836
82,495	-9,110	247,898	118,776
83,509	-9,281	247,706	118,528
84,524	-9,077	247,510	118,596
85,539	-9,128	247,311	118,448
86,553	-9,130	247,133	118,350
87,568	-9,218	246,899	118,152
88,582	-9,120	246,691	118,125
89,597	-9,226	246,538	117,952
90,611	-8,976	246,336	118,056
91,626	-8,990	246,275	118,004
92,641	-9,089	246,125	117,839
93,655	-9,113	245,735	117,621
94,670	-9,063	245,561	117,569
95,684	-9,282	245,538	117,364
96,699	-9,110	245,256	117,363
97,714	-9,053	244,984	117,270
98,728	-9,163	244,853	117,105
99,743	-9,048	244,616	117,077
100,757	-9,152	244,621	116,982
101,772	-9,358	244,376	116,682
102,787	-9,317	244,132	116,589
103,801	-9,029	243,941	116,728
104,816	-9,114	243,715	116,539
105,830	-9,097	243,506	116,442
106,845	-9,103	243,355	116,355
107,860	-9,247	243,128	116,117
108,874	-9,213	242,840	115,997
109,889	-9,405	242,733	115,776
110,903	-9,298	242,521	115,754
111,918	-9,513	242,409	115,511
112,933	-9,303	242,186	115,568
113,947	-9,223	242,051	115,560
114,962	-9,136	241,815	115,509
115,976	-9,069	241,773	115,534
116,991	-9,168	241,532	115,327
118,006	-9,351	241,498	115,149
119,020	-9,219	241,444	115,222
120,035	-9,047	241,129	115,203
121,049	-9,216	241,090	115,035
122,064	-9,343	240,877	114,819
123,079	-9,179	240,586	114,805
124,093	-9,247	240,340	114,621
125,108	-9,241	240,102	114,503
126,122	-9,429	240,163	114,367
127,137	-9,155	239,920	114,465
128,151	-9,327	239,830	114,272
129,166	-9,220	239,394	114,142
130,181	-9,405	239,215	113,894
131,195	-9,318	238,929	113,819
132,210	-9,273	238,808	113,788
133,224	-9,081	238,685	113,876
134,239	-9,198	238,538	113,700
135,254	-9,423	238,471	113,475
136,268	-9,514	238,192	113,258
137,283	-9,261	237,876	113,304
138,297	-9,294	237,773	113,217
139,312	-9,229	237,451	113,107
140,327	-9,169	237,375	113,109
141,341	-8,950	237,459	113,316
142,356	-8,954	237,277	113,215
143,370	-9,113	237,087	112,987
144,385	-8,806	236,895	113,133
145,400	-8,698	236,752	113,142
146,414	-8,865	236,561	112,906
147,429	-8,877	236,283	112,753
148,443	-8,880	236,066	112,638
149,458	-9,100	236,010	112,424
150,473	-9,037	235,730	112,331
151,487	-9,228	235,642	112,126
152,502	-9,183	235,607	112,135
153,516	-8,983	235,270	112,125
154,531	-9,072	235,255	112,036
155,546	-9,033	235,050	111,960
156,560	-9,086	234,730	111,755
157,575	-9,200	234,638	111,610
158,589	-9,375	234,423	111,358
159,604	-8,775	234,328	111,782
160,619	-8,844	234,244	111,677
161,633	-8,772	234,092	111,652
162,648	-8,682	233,944	111,643
163,662	-8,997	233,682	111,258
164,677	-9,016	233,507	111,149
165,692	-8,949	233,342	111,114
166,706	-8,891	233,157	111,062
167,721	-8,835	233,123	111,081
168,735	-8,737	232,911	111,047
169,750	-9,008	232,682	110,714
170,764	-9,094	232,490	110,544
171,779	-9,237	232,493	110,423
172,794	-8,974	232,300	110,529
173,808	-9,001	232,129	110,416
174,823	-9,268	231,685	109,985
175,837	-9,258	231,610	109,947
176,852	-9,343	231,629	109,879
177,867	-9,092	231,436	109,976
178,881	-8,990	231,209	109,939
179,896	-8,975	231,166	109,920
180,910	-9,005	231,118	109,864
181,925	-9,066	230,935	109,719
182,940	-9,008	230,553	109,573
183,954	-9,134	230,452	109,416
184,969	-8,749	230,365	109,667
185,983	-8,582	230,272	109,744
186,998	-8,723	230,124	109,554
188,013	-8,821	229,891	109,356
189,027	-8,722	229,730	109,347
190,042	-8,784	229,641	109,247
191,056	-8,943	229,317	108,959
192,071	-8,993	229,243	108,875
193,086	-9,361	229,080	108,501
194,100	-9,992	228,479	107,717
195,115	-11,238	227,855	106,448
196,129	-11,299	228,085	106,499
197,144	-6,563	229,366	110,777
198,159	-1,241	230,848	115,644
199,173	1,776	231,812	118,479
200,188	2,841	231,838	119,315
201,202	3,057	231,899	119,505
202,217	3,366	231,874	119,723
203,232	3,666	231,774	119,895
204,246	3,763	231,640	119,891
205,261	3,922	231,372	119,865
206,275	3,905	231,404	119,858
207,290	3,789	231,102	119,601
208,304	3,820	231,046	119,585
209,319	3,648	230,707	119,265
210,334	3,886	230,585	119,377
211,348	3,081	230,373	118,631
212,363	2,762	230,135	118,251
213,377	2,486	229,840	117,875
214,392	2,316	229,651	117,636
215,407	2,191	229,453	117,428
216,421	2,140	229,354	117,327
217,436	2,215	229,075	117,232
218,450	2,163	228,898	117,091
219,465	1,962	228,844	116,898
220,480	2,257	228,668	117,024
221,494	2,353	228,561	117,033
222,509	2,333	228,503	116,977
223,523	2,493	228,249	116,960
224,538	2,520	228,058	116,873
225,553	2,476	227,919	116,757
226,567	2,255	227,765	116,499
227,582	2,376	227,625	116,509
228,596	2,389	227,643	116,518
229,611	2,114	227,586	116,268
230,626	2,122	227,274	116,104
231,640	2,226	227,049	116,058
232,655	2,329	226,875	116,038
233,669	2,453	226,737	116,051
234,684	2,392	226,575	115,912
235,699	2,370	226,538	115,865
236,713	2,477	226,413	115,873
237,728	2,566	226,226	115,834
238,742	2,639	226,117	115,824
239,757	2,659	225,888	115,712
240,772	2,735	225,811	115,719
241,786	2,642	225,607	115,534
242,801	2,818	225,534	115,619
243,815	3,047	225,582	115,807
244,830	2,613	225,348	115,348
245,844	2,778	225,144	115,358
246,859	2,884	224,932	115,319
247,874	2,837	224,715	115,163
248,888	2,636	224,768	115,028
249,903	2,405	224,567	114,740
250,917	2,667	224,343	114,813
251,932	2,528	224,259	114,655
252,947	2,645	224,163	114,684
253,961	2,640	223,886	114,528
254,976	2,497	223,760	114,346
255,990	2,662	223,705	114,432
257,005	2,758	223,542	114,410
258,020	2,654	223,500	114,300
259,034	2,949	223,318	114,418
260,049	3,027	223,026	114,317
261,063	2,656	223,007	114,019
262,078	2,901	222,683	114,026
263,093	2,830	222,642	113,942
264,107	2,670	222,490	113,735
265,122	2,673	222,380	113,671
266,136	2,526	222,254	113,487
267,151	2,756	221,950	113,493
268,166	2,580	222,044	113,399
269,180	2,541	221,671	113,170
270,195	2,639	221,547	113,169
271,209	2,381	221,461	112,924
272,224	2,651	221,420	113,093
273,239	2,295	221,181	112,697
274,253	2,359	220,972	112,628
275,268	2,613	220,687	112,660
276,282	2,360	220,646	112,442
277,297	2,349	220,549	112,375
278,312	2,435	220,296	112,300
279,326	2,676	220,251	112,444
280,341	2,520	220,118	112,251
281,355	2,658	220,032	112,299
282,370	2,449	219,852	112,043
283,384	2,375	219,749	111,926
284,399	2,335	219,558	111,790
285,414	2,594	219,418	111,898
286,428	2,748	219,328	111,956
287,443	2,465	219,344	111,747
288,457	2,567	219,101	111,687
289,472	2,381	218,974	111,476
290,487	2,428	218,678	111,350
291,501	2,625	218,444	111,365
292,516	2,622	218,469	111,365
293,530	2,593	218,431	111,315
294,545	2,646	218,266	111,260
295,560	2,702	218,051	111,181
296,574	2,695	218,073	111,178
297,589	2,764	217,780	111,068
298,603	2,937	217,743	111,166
299,618	2,908	217,552	111,037
300,633	2,999	217,347	110,988
301,647	2,909	217,395	110,938
302,662	2,790	217,120	110,701
303,676	2,774	217,159	110,700
304,691	2,966	216,920	110,707
305,706	3,018	216,613	110,578
306,720	2,647	216,650	110,319
307,735	2,777	216,347	110,248
308,749	2,839	216,215	110,216
309,764	2,876	216,004	110,126
310,779	2,874	215,862	110,042
311,793	2,873	215,792	109,996
312,808	2,791	215,691	109,875
313,822	2,607	215,478	109,624
314,837	2,733	215,335	109,633
315,852	2,758	215,158	109,551
316,866	2,617	215,288	109,506
317,881	2,841	215,072	109,547
318,895	2,391	214,890	109,122
319,910	2,509	214,696	109,098
320,925	2,574	214,567	109,069
321,939	2,214	214,502	108,768
322,954	2,385	214,253	108,755
323,968	2,633	214,142	108,866
324,983	2,546	214,143	108,795
325,997	2,742	213,858	108,780
327,012	2,824	213,647	108,722
328,027	2,490	213,625	108,462
329,041	2,511	213,442	108,375
330,056	2,510	213,474	108,381
331,070	2,566	213,323	108,335
332,085	2,272	213,202	108,054
333,100	2,406	212,903	107,988
334,114	2,468	212,824	107,983
335,129	2,686	212,646	108,037
336,143	2,436	212,494	107,774
337,158	2,657	212,275	107,809
338,173	2,626	212,156	107,717
339,187	2,589	212,076	107,641
340,202	2,607	211,890	107,550
341,216	2,479	211,901	107,455
342,231	2,534	211,749	107,407
343,246	2,707	211,624	107,456
344,260	2,412	211,544	107,198
345,275	2,426	211,463	107,157
346,289	2,656	211,125	107,139
347,304	2,734	211,081	107,161
348,319	2,658	210,947	107,030
349,333	2,512	210,844	106,866
350,348	2,561	210,580	106,756
351,362	2,362	210,620	106,628
352,377	2,633	210,421	106,707
353,392	2,431	210,276	106,483
354,406	2,448	210,196	106,445
355,421	193,472	1342,359	1426,796
356,435	154,416	1480,326	1426,832
