DTS Sentinel unit serial number:	SN410029Multiplexer serial number:	ORYXHardware model number:	OX2-SRSoftware version number:	ORYX F/W v4,00 Oryx Data Collector v3.7.2.0data status	okinstallation	B6 Nyhavnadifferential loss correction	single-endedforward channel	channel 2reverse channel	N/Adate	2023/12/07time	22:50:08forward acquisition time	300,00reverse acquisition time	0,00gamma	499,1914k internal	0,3164k external	0,3164temperature offset calibration	1,0000default loss term (dB/km)	0,3820temperature slope calibration	1,0000multiplexer offset coefficient	1,0000multiplexer slope coefficient	1,0000fibre end	0,00T internal ref (°C)	13,53T ext. ref 1 (°C)	-3,38T ext. ref 2 (°C)	-3,37length (m)	temperature (°C)	Stokes	anti-Stokes-744,400	247,431	-0,057	0,070
-743,385	-50,191	-0,304	0,105
-742,371	8,099	0,144	0,079
-741,356	-170,212	-0,399	-0,010
-740,342	-0,151	0,083	0,043
-739,327	-99,059	-0,449	-0,083
-738,312	-24,716	0,147	0,064
-737,298	-120,057	-0,309	-0,039
-736,283	16,875	0,220	0,128
-735,269	-70,766	-0,317	-0,087
-734,254	196,034	0,114	-0,128
-733,239	-63,845	-0,547	-0,163
-732,225	-20,464	0,298	0,134
-731,210	-200,000	-0,013	0,092
-730,196	390,898	-0,056	-0,086
-729,181	495,294	-0,045	0,077
-728,167	38,025	0,095	0,062
-727,152	45,689	-0,142	-0,097
-726,137	-85,625	-0,067	0,015
-725,123	194,110	-0,077	0,086
-724,108	-136,051	-0,070	0,006
-723,094	-59,222	-0,120	-0,038
-722,079	635,690	-0,027	0,050
-721,064	-125,057	-0,060	0,007
-720,050	55,388	-0,031	0,022
-719,035	243,632	0,055	-0,068
-718,021	800,000	-0,034	0,089
-717,006	-7,879	0,032	-0,016
-715,991	-84,655	-0,127	-0,029
-714,977	392,804	0,038	-0,058
-713,962	32,434	-0,073	-0,046
-712,948	496,041	0,075	0,128
-711,933	800,000	0,011	-0,028
-710,918	-200,000	-0,016	0,078
-709,904	800,000	0,043	-0,096
-708,889	791,621	-0,023	0,048
-707,875	800,000	0,018	-0,040
-706,860	800,000	0,005	0,013
-705,845	39,621	0,231	0,152
-704,831	800,000	0,006	0,019
-703,816	-49,913	0,184	-0,064
-702,802	688,028	0,059	-0,114
-701,787	222,115	-0,097	-0,114
-700,772	-200,000	0,010	0,043
-699,758	-73,585	-0,047	-0,013
-698,743	-200,000	0,041	-0,137
-697,729	-200,000	-0,005	0,053
-696,714	-54,467	-0,071	-0,024
-695,699	349,619	-0,053	0,078
-694,685	-6,698	-0,080	-0,040
-693,670	-200,000	-0,006	-0,080
-692,656	77,964	-0,086	0,067
-691,641	-200,000	0,005	0,082
-690,627	-53,001	-0,073	-0,025
-689,612	783,473	-0,020	0,039
-688,597	800,000	-0,024	-0,052
-687,583	67,282	0,046	0,035
-686,568	6,040	-0,113	-0,061
-685,554	62,854	-0,076	0,056
-684,539	117,042	0,059	0,054
-683,524	-49,742	-0,093	0,032
-682,510	-64,888	0,105	0,031
-681,495	-200,000	0,026	0,184
-680,481	-200,000	-0,013	0,053
-679,466	-97,421	-0,128	-0,024
-678,451	-200,000	-0,019	-0,083
-677,437	-144,099	-0,209	-0,014
-676,422	-200,000	0,001	0,080
-675,408	-140,391	-0,072	-0,005
-674,393	750,647	0,034	0,067
-673,378	202,929	-0,078	-0,088
-672,364	273,784	0,014	-0,019
-671,349	-200,000	-0,001	-0,023
-670,335	112,024	-0,089	-0,079
-669,320	-200,000	0,043	0,213
-668,305	-79,133	-0,090	0,022
-667,291	500,751	-0,070	-0,119
-666,276	11,093	-0,067	0,037
-665,262	8,332	0,149	0,082
-664,247	800,000	-0,030	0,075
-663,232	-35,029	0,071	-0,028
-662,218	-100,975	-0,141	0,025
-661,203	5,716	-0,030	-0,016
-660,189	-200,000	-0,014	0,083
-659,174	-200,000	0,010	0,106
-658,159	-122,964	0,041	0,005
-657,145	335,691	-0,057	-0,081
-656,130	-62,875	0,140	0,042
-655,116	87,244	-0,087	0,071
-654,101	-200,000	-0,010	-0,057
-653,086	-29,055	-0,118	0,049
-652,072	19,987	0,021	-0,012
-651,057	102,799	0,037	-0,032
-650,043	-55,084	0,071	-0,023
-649,028	-200,000	-0,023	-0,105
-648,014	2,052	0,072	0,038
-646,999	-128,750	-0,112	0,011
-645,984	-137,997	-0,073	0,006
-644,970	-59,124	-0,048	0,015
-643,955	-200,000	-0,000	0,104
-642,941	234,376	-0,096	-0,117
-641,926	45,700	-0,071	0,048
-640,911	-200,000	-0,005	0,132
-639,897	-45,839	0,088	0,032
-638,882	604,471	0,045	0,082
-637,868	-37,344	0,105	0,041
-636,853	320,829	-0,057	-0,080
-635,838	-180,063	-0,072	0,001
-634,824	-200,000	-0,034	-0,134
-633,809	800,000	0,036	0,099
-632,795	60,620	-0,122	0,089
-631,780	-200,000	-0,026	0,118
-630,765	52,687	-0,024	0,017
-629,751	-134,743	-0,047	-0,004
-628,736	-22,975	-0,118	0,052
-627,722	-27,595	-0,091	-0,039
-626,707	-200,000	0,002	-0,149
-625,692	612,882	0,010	-0,019
-624,678	15,110	0,032	-0,018
-623,663	403,607	-0,123	0,191
-622,649	-101,914	-0,065	-0,011
-621,634	260,697	-0,101	0,128
-620,619	800,000	0,024	-0,071
-619,605	-200,000	0,047	-0,158
-618,590	36,884	-0,080	-0,052
-617,576	784,923	0,076	0,153
-616,561	58,587	-0,034	0,025
-615,546	-200,000	-0,031	-0,128
-614,532	-10,592	-0,118	-0,057
-613,517	-10,239	-0,139	-0,067
-612,503	72,571	-0,012	-0,009
-611,488	-200,000	-0,007	-0,057
-610,474	-200,000	-0,021	-0,086
-609,459	42,611	-0,083	-0,055
-608,444	228,952	0,068	0,082
-607,430	-40,268	-0,074	-0,028
-606,415	-19,268	-0,106	-0,048
-605,401	-86,720	-0,117	0,026
-604,386	162,769	0,018	-0,018
-603,371	-38,559	-0,055	-0,021
-602,357	66,364	0,096	0,071
-601,342	-55,733	-0,009	-0,003
-600,328	-39,154	-0,142	0,054
-599,313	80,361	-0,097	-0,077
-598,298	156,684	-0,082	-0,083
-597,284	28,275	0,101	0,062
-596,269	-6,329	0,088	-0,044
-595,255	-60,505	-0,062	0,019
-594,240	46,941	-0,015	-0,010
-593,225	30,299	0,177	-0,110
-592,211	-4,685	0,066	-0,033
-591,196	-130,383	0,066	-0,006
-590,182	-200,000	-0,004	0,021
-589,167	111,593	0,048	0,042
-588,152	800,000	-0,022	-0,066
-587,138	34,373	-0,127	-0,081
-586,123	-200,000	0,011	-0,047
-585,109	800,000	-0,019	-0,041
-584,094	-200,000	-0,012	-0,037
-583,079	144,940	-0,059	-0,058
-582,065	44,856	0,192	0,129
-581,050	-200,000	0,008	0,110
-580,036	-29,485	0,011	0,004
-579,021	-200,000	-0,006	-0,057
-578,006	-200,000	0,001	0,008
-576,992	-200,000	-0,003	-0,048
-575,977	193,053	-0,027	0,030
-574,963	640,976	-0,084	0,157
-573,948	-200,000	-0,009	-0,095
-572,934	-129,444	-0,063	-0,006
-571,919	-30,702	-0,062	0,026
-570,904	282,041	0,021	-0,028
-569,890	-200,000	0,020	0,180
-568,875	800,000	-0,017	-0,047
-567,861	-200,000	-0,003	0,071
-566,846	800,000	0,048	0,130
-565,831	301,540	0,069	0,093
-564,817	800,000	0,024	0,072
-563,802	-11,055	-0,073	0,035
-562,788	97,882	-0,077	0,064
-561,773	467,800	-0,037	0,061
-560,758	-200,000	0,016	0,100
-559,744	668,916	0,085	0,161
-558,729	429,411	-0,038	0,060
-557,715	519,962	0,048	-0,082
-556,700	-200,000	-0,008	-0,035
-555,685	-38,734	0,132	-0,051
-554,671	-200,000	0,007	0,036
-553,656	141,477	-0,048	-0,046
-552,642	-88,443	0,097	-0,021
-551,627	-200,000	0,006	0,037
-550,612	542,543	-0,063	-0,111
-549,598	150,727	-0,100	-0,099
-548,583	193,162	0,079	-0,087
-547,569	-76,881	0,011	0,003
-546,554	-200,000	0,002	0,042
-545,539	-16,522	-0,092	0,042
-544,525	247,511	-0,057	-0,071
-543,510	50,322	-0,090	-0,062
-542,496	-200,000	-0,012	-0,155
-541,481	800,000	0,085	-0,271
-540,466	3,806	0,098	0,052
-539,452	-137,980	-0,183	0,015
-538,437	97,354	0,057	0,048
-537,423	-200,000	0,014	0,128
-536,408	-200,000	0,011	0,101
-535,393	12,374	0,035	0,020
-534,379	-200,000	0,004	-0,019
-533,364	-108,770	-0,159	-0,025
-532,350	-84,817	0,074	0,017
-531,335	-200,000	0,037	-0,123
-530,321	-200,000	-0,002	0,065
-529,306	-29,375	0,186	-0,077
-528,291	118,635	0,053	0,048
-527,277	-200,000	-0,047	-0,182
-526,262	-108,680	0,029	-0,004
-525,248	-200,000	-0,002	0,028
-524,233	800,000	0,033	-0,074
-523,218	-106,861	0,013	0,002
-522,204	-200,000	0,001	-0,162
-521,189	-6,459	-0,017	-0,009
-520,175	800,000	0,039	-0,093
-519,160	-53,592	0,121	-0,040
-518,145	-64,945	0,103	0,030
-517,131	-19,635	0,093	-0,042
-516,116	247,515	-0,060	0,074
-515,102	800,000	-0,040	0,113
-514,087	800,000	0,016	0,037
-513,072	-164,176	-0,052	0,002
-512,058	-23,299	-0,066	-0,029
-511,043	-109,239	-0,018	-0,003
-510,029	-1,913	0,182	0,093
-509,014	212,134	-0,040	0,046
-507,999	-17,288	-0,135	-0,062
-506,985	16,376	0,060	-0,034
-505,970	39,105	0,055	-0,036
-504,956	-200,000	-0,010	-0,110
-503,941	-93,662	0,062	0,012
-502,926	332,804	0,077	-0,108
-501,912	302,331	0,115	0,156
-500,897	-200,000	-0,018	0,149
-499,883	-200,000	-0,009	0,113
-498,868	-81,050	-0,073	0,017
-497,853	800,000	0,018	0,044
-496,839	-103,056	-0,078	-0,013
-495,824	-162,774	-0,139	0,005
-494,810	-149,342	0,023	0,001
-493,795	-200,000	0,001	0,040
-492,781	42,523	0,041	-0,027
-491,766	150,946	-0,110	-0,109
-490,751	482,655	-0,119	-0,198
-489,737	-114,742	0,047	-0,006
-488,722	107,520	0,038	0,033
-487,708	-200,000	0,002	0,101
-486,693	-200,000	0,015	0,050
-485,678	-70,418	0,004	0,001
-484,664	-71,359	-0,135	-0,037
-483,649	55,459	-0,026	0,018
-482,635	-41,573	-0,070	-0,026
-481,620	-124,719	-0,057	0,006
-480,605	-200,000	-0,005	-0,163
-479,591	-26,000	0,146	0,062
-478,576	26,576	-0,091	-0,056
-477,562	50,474	-0,082	-0,056
-476,547	328,943	0,023	-0,033
-475,532	-173,875	-0,107	-0,002
-474,518	-200,000	0,000	0,111
-473,503	-141,060	0,175	0,013
-472,489	-56,870	0,070	0,022
-471,474	-81,938	-0,172	-0,041
-470,459	-200,000	0,010	-0,175
-469,445	-200,000	0,029	-0,121
-468,430	-200,000	-0,023	0,096
-467,416	455,291	0,021	0,034
-466,401	469,640	0,098	0,161
-465,386	35,240	-0,035	-0,022
-464,372	800,000	0,010	0,026
-463,357	171,922	-0,042	-0,044
-462,343	10,804	-0,060	-0,033
-461,328	-13,292	-0,125	-0,059
-460,313	-200,000	-0,004	0,110
-459,299	-54,547	0,145	0,048
-458,284	-24,859	-0,056	0,024
-457,270	526,939	0,047	-0,080
-456,255	368,781	-0,053	-0,078
-455,241	-74,494	0,056	0,014
-454,226	648,737	-0,047	-0,088
-453,211	447,196	-0,067	-0,108
-452,197	-74,283	0,075	0,020
-451,182	-200,000	0,002	0,047
-450,168	-20,608	-0,150	0,067
-449,153	-200,000	0,005	0,037
-448,138	423,484	0,027	-0,042
-447,124	-200,000	-0,008	0,044
-446,109	627,356	0,051	-0,094
-445,095	352,430	0,048	-0,070
-444,080	39,010	0,058	0,038
-443,065	-200,000	0,008	0,086
-442,051	99,233	0,052	0,043
-441,036	50,010	-0,147	0,101
-440,022	-200,000	-0,026	-0,103
-439,007	-47,353	-0,141	0,050
-437,992	800,000	0,032	0,080
-436,978	-26,326	0,024	0,010
-435,963	-200,000	-0,004	-0,094
-434,949	27,393	-0,076	-0,047
-433,934	123,151	0,095	0,086
-432,919	-200,000	-0,032	-0,150
-431,905	78,472	-0,009	0,007
-430,890	65,269	0,033	0,024
-429,876	-200,000	0,045	0,150
-428,861	-23,328	-0,041	0,018
-427,846	407,294	0,024	-0,037
-426,832	-103,332	-0,034	0,006
-425,817	615,143	0,026	-0,048
-424,803	-169,179	0,082	0,002
-423,788	-108,224	-0,096	0,015
-422,773	279,428	-0,031	0,040
-421,759	-121,631	0,058	-0,007
-420,744	-122,080	0,100	0,012
-419,730	-81,273	-0,122	0,029
-418,715	734,048	0,071	-0,140
-417,701	-137,925	-0,049	0,004
-416,686	-130,715	0,114	0,011
-415,671	-200,000	-0,004	-0,131
-414,657	8,888	0,094	-0,051
-413,642	92,766	0,075	0,062
-412,628	-200,000	0,006	-0,047
-411,613	-95,326	-0,107	0,021
-410,598	303,822	0,052	-0,071
-409,584	-76,083	-0,036	0,009
-408,569	22,596	0,112	0,066
-407,555	-27,299	0,074	-0,031
-406,540	-155,675	0,059	-0,003
-405,525	204,484	-0,073	-0,082
-404,511	-53,106	-0,096	0,032
-403,496	491,129	-0,031	-0,052
-402,482	429,805	-0,049	-0,077
-401,467	-200,000	-0,002	-0,026
-400,452	748,570	0,014	0,027
-399,438	125,238	-0,037	0,033
-398,423	-118,104	0,029	0,004
-397,409	-92,115	-0,091	0,019
-396,394	358,786	0,018	-0,025
-395,379	-200,000	0,006	0,046
-394,365	800,000	0,029	0,067
-393,350	763,541	0,037	0,073
-392,336	17,569	0,083	-0,048
-391,321	-200,000	-0,019	-0,090
-390,306	-200,000	-0,004	-0,072
-389,292	-200,000	-0,010	-0,128
-388,277	-103,181	-0,116	-0,020
-387,263	-79,751	0,022	-0,005
-386,248	181,961	0,032	0,035
-385,233	438,809	-0,047	-0,075
-384,219	-15,940	-0,098	-0,045
-383,204	-152,780	0,141	0,007
-382,190	-119,561	-0,049	0,006
-381,175	274,442	0,097	-0,125
-380,160	82,352	-0,101	0,080
-379,146	-200,000	-0,002	0,096
-378,131	248,457	0,037	-0,045
-377,117	425,130	-0,090	-0,141
-376,102	-181,385	0,164	0,002
-375,088	800,000	0,007	-0,021
-374,073	279,412	0,046	-0,060
-373,058	-200,000	0,007	0,041
-372,044	800,000	0,058	-0,146
-371,029	800,000	-0,073	0,198
-370,015	-200,000	0,009	-0,097
-369,000	-200,000	0,021	-0,156
-367,985	-200,000	-0,031	-0,175
-366,971	230,967	0,028	-0,034
-365,956	-200,000	0,008	0,041
-364,942	59,816	0,044	-0,032
-363,927	-48,307	0,146	-0,051
-362,912	-11,804	0,063	-0,030
-361,898	-66,456	0,019	0,005
-360,883	437,589	0,042	-0,066
-359,869	60,385	0,061	-0,044
-358,854	130,366	0,060	0,056
-357,839	800,000	0,050	0,129
-356,825	336,466	0,073	0,104
-355,810	29,555	0,050	0,031
-354,796	-148,086	0,110	0,006
-353,781	-28,759	-0,097	0,040
-352,766	151,501	-0,023	0,022
-351,752	-86,977	0,110	-0,024
-350,737	-200,000	-0,025	0,109
-349,723	-69,615	0,043	-0,012
-348,708	-175,226	-0,138	0,003
-347,693	-37,405	-0,072	0,028
-346,679	192,582	0,070	-0,077
-345,664	-72,978	0,081	-0,021
-344,650	36,141	-0,040	0,025
-343,635	-181,596	0,125	-0,002
-342,620	800,000	0,066	0,155
-341,606	-163,192	0,022	-0,001
-340,591	100,460	-0,051	-0,043
-339,577	-63,136	0,053	0,016
-338,562	-200,000	-0,015	-0,106
-337,548	173,254	0,036	0,037
-336,533	-106,677	0,106	0,017
-335,518	41,487	0,041	0,027
-334,504	-200,000	0,003	0,114
-333,489	-37,596	0,063	0,024
-332,475	-200,000	-0,027	-0,114
-331,460	43,336	0,048	-0,032
-330,445	-53,933	0,116	0,038
-329,431	317,647	0,098	0,134
-328,416	-200,000	0,005	-0,158
-327,402	-200,000	-0,036	-0,143
-326,387	129,882	0,064	0,059
-325,372	-93,332	-0,052	0,010
-324,358	61,815	-0,047	-0,034
-323,343	794,613	-0,015	-0,029
-322,329	-200,000	-0,050	0,185
-321,314	-106,166	-0,086	0,014
-320,299	-148,733	0,058	0,003
-319,285	-12,686	0,013	-0,006
-318,270	2,369	-0,132	-0,069
-317,256	-200,000	-0,019	0,068
-316,241	100,187	0,046	-0,038
-315,226	-200,000	0,027	0,122
-314,212	-129,932	0,081	-0,008
-313,197	271,623	0,059	0,075
-312,183	70,042	0,039	-0,029
-311,168	-200,000	-0,029	0,133
-310,153	-103,030	-0,090	-0,015
-309,139	-200,000	0,002	-0,113
-308,124	12,293	0,089	-0,049
-307,110	-82,098	0,047	-0,011
-306,095	-200,000	0,011	0,141
-305,080	-102,812	0,059	-0,010
-304,066	226,048	-0,048	-0,056
-303,051	506,783	-0,065	0,109
-302,037	368,854	0,071	0,105
-301,022	-118,483	-0,130	-0,016
-300,008	800,000	-0,035	0,087
-298,993	-200,000	0,013	0,050
-297,978	283,144	0,123	0,161
-296,964	38,022	-0,061	-0,039
-295,949	-200,000	0,007	0,101
-294,935	800,000	0,035	-0,110
-293,920	-200,000	0,008	0,080
-292,905	-40,544	-0,086	-0,032
-291,891	83,830	0,122	0,096
-290,876	-200,000	-0,031	0,197
-289,862	-97,641	0,081	0,015
-288,847	-68,649	-0,093	-0,026
-287,832	-98,366	0,058	-0,011
-286,818	166,551	0,169	-0,174
-285,803	62,591	-0,140	-0,101
-284,789	-32,361	0,114	0,046
-283,774	292,714	0,061	0,081
-282,759	-200,000	0,007	-0,032
-281,745	-65,868	0,076	-0,022
-280,730	800,000	-0,017	-0,056
-279,716	-23,981	0,140	-0,060
-278,701	221,699	0,088	-0,103
-277,686	311,641	0,065	-0,089
-276,672	800,000	-0,061	-0,152
-275,657	97,861	-0,053	0,044
-274,643	-155,396	-0,047	-0,002
-273,628	226,209	-0,024	-0,028
-272,613	800,000	-0,054	-0,145
-271,599	385,840	0,092	0,137
-270,584	-200,000	-0,013	-0,045
-269,570	800,000	-0,023	0,047
-268,555	-200,000	0,024	0,101
-267,540	-163,351	0,173	-0,006
-266,526	1,916	-0,048	-0,025
-265,511	-77,163	0,133	0,033
-264,497	-200,000	-0,044	0,189
-263,482	800,000	0,011	0,024
-262,467	-34,644	0,078	-0,031
-261,453	800,000	-0,010	0,027
-260,438	-26,501	0,012	0,005
-259,424	-200,000	-0,026	-0,119
-258,409	143,660	-0,008	0,007
-257,395	800,000	0,023	-0,062
-256,380	800,000	0,026	0,072
-255,365	800,000	-0,035	0,096
-254,351	-1,237	-0,121	0,061
-253,336	-5,375	0,066	-0,033
-252,322	304,695	-0,022	0,030
-251,307	-89,052	-0,116	-0,025
-250,292	-200,000	-0,023	-0,115
-249,278	125,796	-0,105	0,095
-248,263	-89,641	0,005	-0,001
-247,249	-54,345	0,152	0,050
-246,234	607,465	0,026	0,047
-245,219	-200,000	0,009	0,045
-244,205	182,905	-0,059	-0,063
-243,190	-134,067	0,114	0,010
-242,176	349,964	0,084	0,120
-241,161	800,000	-0,001	0,003
-240,146	290,433	-0,023	-0,030
-239,132	578,468	-0,047	0,083
-238,117	-44,888	-0,047	0,017
-237,103	666,642	0,065	-0,122
-236,088	352,911	-0,072	0,103
-235,073	-134,192	0,079	0,007
-234,059	800,000	-0,020	0,049
-233,044	-200,000	-0,007	-0,064
-232,030	800,000	-0,004	-0,009
-231,015	44,668	-0,071	0,047
-230,000	800,000	-0,016	-0,037
-228,986	-172,010	0,023	0,001
-227,971	-116,947	0,052	0,007
-226,957	-102,449	-0,148	0,025
-225,942	-200,000	0,021	-0,073
-224,927	-200,000	-0,057	0,216
-223,913	-200,000	0,021	0,099
-222,898	-200,000	-0,028	-0,111
-221,884	-162,882	-0,088	-0,003
-220,869	294,916	0,033	-0,043
-219,855	50,962	-0,016	0,011
-218,840	-2,016	0,016	0,008
-217,825	-85,419	-0,089	0,020
-216,811	-200,000	-0,042	0,185
-215,796	47,078	0,064	0,043
-214,782	113,822	0,083	-0,073
-213,767	84,495	0,172	-0,136
-212,752	800,000	0,021	-0,064
-211,738	800,000	-0,026	-0,083
-210,723	800,000	-0,045	0,121
-209,709	94,044	-0,073	-0,060
-208,694	-200,000	0,013	-0,168
-207,679	-37,085	-0,098	0,038
-206,665	-123,310	-0,051	0,006
-205,650	-61,633	-0,021	-0,006
-204,636	-22,211	0,045	-0,020
-203,621	-200,000	0,043	0,150
-202,606	-113,273	0,051	-0,007
-201,592	179,773	0,044	-0,046
-200,577	-200,000	-0,030	0,108
-199,563	344,962	0,033	0,046
-198,548	122,147	0,006	0,005
-197,533	267,792	-0,084	-0,107
-196,519	-40,325	-0,041	-0,015
-195,504	-88,328	-0,017	-0,004
-194,490	-200,000	-0,001	0,048
-193,475	-102,628	0,159	-0,027
-192,460	-176,041	-0,209	0,004
-191,446	-200,000	0,015	0,075
-190,431	466,443	0,097	0,157
-189,417	-200,000	-0,014	-0,047
-188,402	-200,000	-0,021	-0,079
-187,387	5,785	-0,050	0,026
-186,373	-200,000	0,004	0,072
-185,358	71,751	-0,054	0,041
-184,344	16,031	0,061	0,034
-183,329	800,000	-0,008	-0,022
-182,315	449,437	-0,035	0,055
-181,300	-20,160	-0,081	-0,036
-180,285	49,429	-0,090	0,061
-179,271	-59,288	-0,122	-0,037
-178,256	604,467	0,034	-0,062
-177,242	295,212	0,053	0,070
-176,227	154,106	-0,084	0,083
-175,212	-35,955	0,117	0,045
-174,198	-73,417	0,018	0,005
-173,183	800,000	-0,041	-0,101
-172,169	38,430	0,097	-0,062
-171,154	450,562	0,088	-0,140
-170,139	-200,000	-0,007	0,063
-169,125	76,800	-0,089	0,068
-168,110	-200,000	-0,032	0,147
-167,096	-200,000	0,005	0,135
-166,081	-200,000	-0,020	-0,151
-165,066	-83,046	-0,046	0,011
-164,052	-98,904	0,121	-0,022
-163,037	-200,000	-0,038	-0,139
-162,023	-200,000	-0,016	0,074
-161,008	47,361	0,095	0,064
-159,993	-200,000	-0,015	0,104
-158,979	247,350	-0,070	-0,086
-157,964	800,000	0,030	-0,064
-156,950	-200,000	0,022	-0,071
-155,935	404,057	0,079	-0,120
-154,920	394,528	-0,086	0,129
-153,906	-118,343	-0,117	-0,015
-152,891	69,362	-0,054	-0,040
-151,877	-122,582	0,081	-0,009
-150,862	-11,461	-0,141	0,067
-149,847	190,512	-0,058	0,062
-148,833	787,405	-0,040	0,078
-147,818	-153,031	0,091	0,005
-146,804	89,987	-0,076	0,061
-145,789	-76,894	0,113	0,028
-144,775	-116,503	-0,083	-0,011
-143,760	-93,953	-0,123	-0,024
-142,745	423,713	-0,066	-0,103
-141,731	429,810	0,045	-0,070
-140,716	-200,000	-0,021	-0,094
-139,702	215,307	0,024	0,027
-138,687	179,244	0,043	0,045
-137,672	277,255	-0,047	-0,060
-136,658	296,516	0,088	-0,116
-135,643	-41,885	-0,044	-0,016
-134,629	-105,795	-0,121	-0,019
-133,614	64,753	-0,030	0,022
-132,599	63,048	0,111	-0,079
-131,585	-200,000	0,009	0,042
-130,570	-140,070	-0,035	-0,003
-129,556	-172,997	-0,059	0,001
-128,541	-23,880	0,026	0,011
-127,526	661,941	0,041	-0,077
-126,512	79,864	-0,039	0,030
-125,497	-200,000	0,032	0,121
-124,483	-200,000	-0,002	-0,034
-123,468	3,406	-0,034	0,017
-122,453	-200,000	0,004	-0,045
-121,439	348,423	0,077	0,110
-120,424	86,003	0,057	0,045
-119,410	-200,000	0,013	0,087
-118,395	271,201	0,061	-0,078
-117,380	-122,167	-0,144	-0,017
-116,366	-68,020	0,049	-0,013
-115,351	-200,000	0,019	0,060
-114,337	3,312	-0,101	-0,052
-113,322	-200,000	-0,018	0,089
-112,307	-200,000	0,002	0,047
-111,293	137,298	-0,031	0,029
-110,278	-97,446	-0,039	0,007
-109,264	-164,093	0,033	-0,001
-108,249	-200,000	-0,032	0,131
-107,234	-43,967	-0,085	-0,031
-106,220	-30,275	0,133	0,054
-105,205	77,246	-0,157	-0,120
-104,191	212,216	0,035	0,040
-103,176	405,196	-0,089	0,135
-102,162	-126,202	-0,068	0,007
-101,147	-200,000	0,013	0,181
-100,132	-200,000	0,010	-0,081
-99,118	252,132	0,045	0,055
-98,103	26,884	0,057	0,034
-97,089	-200,000	0,008	0,047
-96,074	-151,912	0,050	0,003
-95,059	-44,267	0,054	-0,019
-94,045	-200,000	-0,019	-0,176
-93,030	800,000	-0,047	-0,095
-92,016	-152,803	-0,035	0,002
-91,001	-6,536	0,059	-0,029
-89,986	-123,663	-0,155	0,017
-88,972	-200,000	0,024	0,120
-87,957	-200,000	0,023	0,078
-86,943	499,512	-0,013	-0,022
-85,928	-93,630	-0,123	-0,024
-84,913	-51,633	0,068	0,022
-83,899	118,020	0,031	0,027
-82,884	-200,000	0,019	-0,172
-81,870	482,856	-0,007	-0,012
-80,855	180,458	0,105	0,110
-79,840	329,981	0,011	-0,016
-78,826	29,403	0,022	-0,013
-77,811	103,206	0,100	-0,084
-76,797	-200,000	-0,021	-0,083
-75,782	800,000	-0,025	-0,068
-74,767	-107,881	0,062	-0,010
-73,753	-200,000	-0,005	0,111
-72,738	-200,000	-0,012	-0,041
-71,724	21,087	-0,076	-0,044
-70,709	-123,781	-0,059	-0,007
-69,694	572,959	0,030	-0,053
-68,680	800,000	0,020	0,047
-67,665	69,077	-0,081	0,060
-66,651	357,050	0,105	-0,151
-65,636	-136,063	-0,088	-0,007
-64,622	-10,913	-0,139	-0,065
-63,607	-61,897	0,066	0,020
-62,592	800,000	-0,145	0,300
-61,578	-200,000	0,013	0,105
-60,563	123,512	0,066	-0,060
-59,549	25,675	-0,148	-0,088
-58,534	34,758	-2,228	-1,393
-57,519	-200,000	-0,015	-0,659
-56,505	-200,000	-1,392	-5,241
-55,490	87,854	0,845	0,671
-54,476	800,000	5,434	12,199
-53,461	-200,000	18,758	311,657
-52,446	800,000	740,366	2299,652
-51,432	543,779	1653,410	2837,305
-50,417	109,143	1636,548	1401,920
-49,403	72,600	1286,974	960,303
-48,388	29,734	1028,583	625,632
-47,373	19,724	991,230	569,869
-46,359	17,279	978,909	554,743
-45,344	13,890	975,232	541,537
-44,330	14,263	973,457	541,750
-43,315	13,652	971,692	538,750
-42,300	13,560	970,691	537,872
-41,286	13,511	969,879	537,242
-40,271	13,559	968,768	536,762
-39,257	13,592	967,897	536,365
-38,242	13,545	967,088	535,742
-37,227	13,537	966,457	535,347
-36,213	13,532	965,357	534,698
-35,198	13,495	964,406	534,031
-34,184	13,562	963,655	533,811
-33,169	13,477	962,951	533,124
-32,154	13,577	961,779	532,777
-31,140	13,607	960,965	532,402
-30,125	13,585	960,274	531,927
-29,111	13,513	959,617	531,309
-28,096	13,583	958,781	531,053
-27,082	13,559	958,053	530,550
-26,067	13,584	957,229	530,154
-25,052	13,548	956,511	529,620
-24,038	13,542	955,992	529,291
-23,023	13,570	955,194	528,920
-22,009	13,597	954,765	528,748
-20,994	13,540	954,184	528,222
-19,979	13,577	953,515	527,949
-18,965	13,558	952,883	527,518
-17,950	13,593	952,290	527,281
-16,936	13,630	951,507	526,942
-15,921	13,507	950,912	526,201
-14,906	13,492	949,998	525,626
-13,892	13,483	949,407	525,248
-12,877	13,496	948,726	524,891
-11,863	13,497	948,087	524,522
-10,848	13,423	947,743	524,074
-9,833	13,516	947,216	524,060
-8,819	13,528	946,345	523,594
-7,804	13,497	945,863	523,208
-6,790	13,464	945,412	522,834
-5,775	13,514	944,876	522,674
-4,760	13,532	944,005	522,229
-3,746	13,497	943,522	521,829
-2,731	13,355	942,749	520,931
-1,717	13,313	942,202	520,475
-0,702	13,303	941,388	519,975
0,313	13,069	940,978	519,791
1,327	16,678	938,762	529,908
2,342	26,087	789,994	470,705
3,356	22,363	444,697	259,430
4,371	-7,438	297,449	143,565
5,386	-11,543	279,404	130,927
6,400	-12,646	273,686	127,204
7,415	-12,866	271,386	125,919
8,429	-13,009	269,895	125,085
9,444	-12,943	268,958	124,700
10,459	-12,889	268,289	124,428
11,473	-12,973	267,703	124,068
12,488	-12,988	267,076	123,753
13,502	-13,197	266,484	123,278
14,517	-13,166	266,109	123,121
15,531	-13,112	265,545	122,898
16,546	-13,051	265,105	122,739
17,561	-13,063	264,986	122,662
18,575	-12,937	264,560	122,568
19,590	-13,073	264,285	122,307
20,604	-12,878	263,997	122,339
21,619	-13,069	263,604	121,974
22,634	-12,998	263,180	121,831
23,648	-13,135	262,893	121,564
24,663	-13,217	262,706	121,393
25,677	-13,109	262,555	121,409
26,692	-13,020	261,997	121,220
27,707	-13,224	261,957	121,008
28,721	-13,204	261,678	120,887
29,736	-13,051	261,273	120,824
30,750	-13,278	261,171	120,565
31,765	-13,237	260,829	120,432
32,780	-13,118	260,552	120,400
33,794	-13,071	260,376	120,349
34,809	-13,267	260,181	120,074
35,823	-13,280	259,836	119,893
36,838	-13,269	259,546	119,758
37,853	-13,182	259,222	119,675
38,867	-13,243	259,169	119,586
39,882	-13,188	258,731	119,421
40,896	-13,077	258,465	119,386
41,911	-13,055	258,231	119,286
42,926	-13,113	258,066	119,148
43,940	-13,334	257,921	118,877
44,955	-13,156	257,568	118,860
45,969	-13,340	257,430	118,625
46,984	-13,347	256,960	118,391
47,999	-13,411	256,865	118,280
49,013	-13,717	256,448	117,810
50,028	-13,748	256,060	117,595
51,042	-14,028	256,035	117,329
52,057	-14,118	255,846	117,153
53,071	-13,886	255,748	117,300
54,086	-13,982	255,485	117,085
55,101	-13,786	255,311	117,166
56,115	-13,492	255,035	117,284
57,130	-13,138	255,057	117,591
58,144	-12,743	254,968	117,882
59,159	-12,966	254,570	117,494
60,174	-12,857	254,313	117,459
61,188	-13,134	254,413	117,255
62,203	-13,040	253,972	117,123
63,217	-13,130	253,814	116,962
64,232	-13,077	253,612	116,905
65,247	-13,240	253,423	116,666
66,261	-13,147	253,116	116,594
67,276	-13,159	252,684	116,375
68,290	-13,405	252,568	116,100
69,305	-13,497	252,319	115,895
70,320	-13,622	252,299	115,769
71,334	-13,200	252,018	115,991
72,349	-13,199	251,966	115,958
73,363	-13,062	251,594	115,894
74,378	-12,965	251,336	115,847
75,393	-13,267	251,221	115,526
76,407	-13,177	251,036	115,508
77,422	-13,143	250,821	115,427
78,436	-13,098	250,751	115,423
79,451	-13,071	250,325	115,240
80,466	-13,195	250,186	115,060
81,480	-13,241	249,855	114,859
82,495	-13,344	249,716	114,697
83,509	-13,459	249,620	114,545
84,524	-13,374	249,295	114,458
85,539	-13,473	248,997	114,227
86,553	-13,336	248,704	114,198
87,568	-13,264	248,720	114,256
88,582	-13,446	248,540	114,010
89,597	-13,359	248,226	113,929
90,611	-13,214	248,257	114,055
91,626	-12,926	247,803	114,079
92,641	-12,983	247,677	113,963
93,655	-13,213	247,716	113,777
94,670	-13,433	247,408	113,441
95,684	-13,238	247,133	113,468
96,699	-13,127	246,946	113,465
97,714	-13,417	246,943	113,210
98,728	-13,301	246,538	113,112
99,743	-13,494	246,395	112,875
100,757	-13,386	245,998	112,773
101,772	-13,505	245,953	112,643
102,787	-13,342	245,820	112,708
103,801	-13,187	245,711	112,777
104,816	-13,335	245,538	112,564
105,830	-13,161	245,416	112,643
106,845	-13,096	245,148	112,564
107,860	-13,236	245,068	112,401
108,874	-13,365	244,759	112,143
109,889	-13,245	244,571	112,146
110,903	-13,363	244,384	111,952
111,918	-13,537	244,211	111,719
112,933	-13,206	243,933	111,856
113,947	-13,150	243,887	111,871
114,962	-13,006	243,662	111,876
115,976	-13,091	243,334	111,645
116,991	-13,127	243,170	111,531
118,006	-13,243	243,104	111,395
119,020	-13,175	242,956	111,373
120,035	-13,024	242,767	111,401
121,049	-13,050	242,748	111,361
122,064	-12,967	242,460	111,287
123,079	-13,215	242,311	111,005
124,093	-13,167	242,037	110,909
125,108	-13,308	241,789	110,670
126,122	-13,618	241,582	110,312
127,137	-13,744	241,434	110,131
128,151	-13,533	241,199	110,187
129,166	-13,455	241,020	110,159
130,181	-13,501	240,873	110,044
131,195	-13,687	240,686	109,798
132,210	-13,344	240,473	109,969
133,224	-13,296	240,344	109,940
134,239	-13,230	240,144	109,892
135,254	-13,118	239,953	109,885
136,268	-13,311	239,812	109,655
137,283	-13,715	239,498	109,174
138,297	-13,728	239,350	109,087
139,312	-13,744	239,237	109,012
140,327	-13,525	239,082	109,109
141,341	-12,952	238,959	109,506
142,356	-12,960	238,758	109,398
143,370	-12,880	238,634	109,396
144,385	-12,796	238,514	109,399
145,400	-12,827	238,267	109,251
146,414	-12,869	238,132	109,145
147,429	-13,045	237,923	108,898
148,443	-12,960	237,719	108,863
149,458	-12,941	237,637	108,831
150,473	-13,042	237,513	108,684
151,487	-13,133	237,372	108,537
152,502	-12,869	237,001	108,569
153,516	-12,980	236,924	108,435
154,531	-12,920	236,605	108,327
155,546	-12,923	236,495	108,265
156,560	-12,797	236,213	108,227
157,575	-12,996	236,191	108,048
158,589	-13,025	236,040	107,947
159,604	-12,798	235,750	107,985
160,619	-12,672	235,740	108,071
161,633	-12,787	235,571	107,892
162,648	-12,616	235,466	107,971
163,662	-12,906	235,284	107,646
164,677	-12,748	235,097	107,678
165,692	-13,001	234,913	107,382
166,706	-12,862	234,755	107,411
167,721	-12,751	234,668	107,449
168,735	-12,882	234,686	107,345
169,750	-12,915	234,392	107,174
170,764	-13,032	234,194	106,982
171,779	-12,769	234,099	107,136
172,794	-12,689	233,946	107,119
173,808	-12,962	233,703	106,785
174,823	-13,516	233,441	106,219
175,837	-13,609	233,246	106,048
176,852	-13,174	233,279	106,395
177,867	-12,803	233,089	106,590
178,881	-12,856	233,011	106,504
179,896	-12,792	232,789	106,443
180,910	-12,527	232,539	106,526
181,925	-12,616	232,261	106,320
182,940	-12,889	232,212	106,075
183,954	-12,661	232,092	106,189
184,969	-12,624	231,998	106,165
185,983	-12,681	232,059	106,139
186,998	-12,347	231,593	106,177
188,013	-12,641	231,438	105,867
189,027	-12,803	231,422	105,724
190,042	-12,700	231,178	105,684
191,056	-12,450	230,958	105,767
192,071	-12,620	230,800	105,554
193,086	-12,641	230,709	105,486
194,100	-12,614	230,539	105,420
195,115	-13,233	230,041	104,705
196,129	-13,172	230,089	104,764
197,144	-7,701	232,008	109,892
198,159	-1,975	233,712	115,173
199,173	1,945	234,873	118,811
200,188	2,617	234,859	119,320
201,202	2,549	234,543	119,096
202,217	2,625	234,541	119,144
203,232	2,737	234,288	119,091
204,246	2,773	234,196	119,063
205,261	2,700	234,160	118,977
206,275	3,105	234,013	119,207
207,290	3,115	233,971	119,183
208,304	2,989	233,746	118,959
209,319	2,865	233,578	118,767
210,334	2,873	233,268	118,606
211,348	2,649	233,152	118,362
212,363	2,449	232,674	117,953
213,377	2,348	232,514	117,784
214,392	2,039	232,611	117,583
215,407	2,515	232,179	117,722
216,421	2,362	232,271	117,640
217,436	2,157	232,155	117,412
218,450	2,231	231,815	117,287
219,465	1,974	231,613	116,976
220,480	2,016	231,534	116,958
221,494	1,841	231,418	116,754
222,509	2,476	231,243	117,144
223,523	2,410	231,248	117,085
224,538	2,419	230,836	116,873
225,553	2,540	230,751	116,912
226,567	2,194	230,745	116,633
227,582	2,443	230,639	116,760
228,596	2,649	230,482	116,829
229,611	2,578	230,240	116,641
230,626	2,180	229,962	116,185
231,640	2,122	229,884	116,091
232,655	2,657	229,791	116,443
233,669	2,843	229,655	116,506
234,684	2,607	229,658	116,317
235,699	2,611	229,479	116,219
236,713	2,477	229,130	115,930
237,728	2,391	229,031	115,804
238,742	2,116	228,696	115,415
239,757	2,258	228,763	115,546
240,772	2,201	228,496	115,358
241,786	2,259	228,379	115,332
242,801	2,571	228,342	115,540
243,815	2,819	228,284	115,689
244,830	2,622	228,148	115,460
245,844	2,045	228,054	114,965
246,859	2,207	227,661	114,879
247,874	2,403	227,712	115,043
248,888	2,435	227,594	114,998
249,903	2,464	227,267	114,844
250,917	2,299	227,068	114,608
251,932	2,129	227,119	114,496
252,947	2,018	226,753	114,218
253,961	2,166	226,510	114,196
254,976	2,107	226,482	114,128
255,990	2,418	226,372	114,296
257,005	2,413	226,134	114,162
258,020	2,450	226,135	114,179
259,034	2,484	226,066	114,160
260,049	2,523	225,847	114,069
261,063	2,294	225,741	113,834
262,078	2,654	225,580	114,012
263,093	2,933	225,457	114,148
264,107	2,651	225,313	113,854
265,122	2,702	225,174	113,812
266,136	2,751	225,058	113,780
267,151	2,843	224,857	113,736
268,166	2,322	224,564	113,190
269,180	2,202	224,290	112,953
270,195	2,270	224,309	113,002
271,209	2,289	224,186	112,945
272,224	2,307	224,022	112,865
273,239	2,347	223,861	112,804
274,253	2,259	223,841	112,719
275,268	2,141	223,539	112,469
276,282	2,027	223,411	112,310
277,297	2,047	223,288	112,253
278,312	2,287	223,123	112,337
279,326	2,172	223,004	112,183
280,341	2,512	222,857	112,350
281,355	2,607	222,773	112,368
282,370	2,448	222,597	112,151
283,384	2,355	222,413	111,981
284,399	1,919	222,158	111,521
285,414	2,156	222,064	111,638
286,428	2,190	222,050	111,646
287,443	2,472	221,911	111,774
288,457	2,489	221,809	111,725
289,472	2,443	221,412	111,481
290,487	2,155	221,362	111,235
291,501	1,779	221,114	110,826
292,516	1,791	221,169	110,852
293,530	1,880	220,978	110,811
294,545	1,887	220,753	110,693
295,560	2,151	220,767	110,884
296,574	2,315	220,576	110,898
297,589	2,211	220,412	110,729
298,603	2,653	220,247	110,958
299,618	2,293	220,193	110,659
300,633	2,528	220,019	110,733
301,647	2,614	220,027	110,789
302,662	2,643	219,879	110,726
303,676	2,462	219,627	110,458
304,691	2,671	219,519	110,546
305,706	2,460	219,394	110,320
306,720	2,836	219,137	110,453
307,735	2,334	219,094	110,058
308,749	2,235	218,952	109,905
309,764	2,550	218,725	110,009
310,779	2,767	218,679	110,133
311,793	2,412	218,463	109,758
312,808	2,367	218,392	109,680
313,822	2,377	218,292	109,627
314,837	2,377	218,070	109,506
315,852	1,899	218,050	109,142
316,866	2,358	217,796	109,335
317,881	2,483	217,743	109,389
318,895	2,522	217,550	109,311
319,910	2,182	217,221	108,891
320,925	1,939	217,085	108,639
321,939	1,826	216,902	108,457
322,954	1,872	216,773	108,416
323,968	2,228	216,852	108,701
324,983	2,511	216,721	108,827
325,997	2,781	216,649	108,975
327,012	2,687	216,434	108,790
328,027	2,264	216,341	108,431
329,041	2,712	216,327	108,735
330,056	2,572	216,197	108,560
331,070	2,232	215,950	108,184
332,085	2,072	215,755	107,963
333,100	2,287	215,653	108,055
334,114	2,318	215,486	107,983
335,129	2,477	215,290	107,988
336,143	2,170	215,044	107,638
337,158	2,335	214,998	107,722
338,173	2,147	214,925	107,542
339,187	2,233	214,554	107,408
340,202	2,040	214,563	107,266
341,216	2,381	214,637	107,535
342,231	2,671	214,356	107,589
343,246	2,330	214,200	107,261
344,260	2,312	214,069	107,173
345,275	2,629	214,019	107,363
346,289	2,724	213,845	107,332
347,304	2,742	213,753	107,289
348,319	2,330	213,575	106,900
349,333	2,041	213,407	106,604
350,348	2,439	213,308	106,825
351,362	2,623	213,163	106,871
352,377	2,566	213,160	106,820
353,392	2,610	212,923	106,723
354,406	2,470	212,855	106,581
355,421	196,245	1315,831	1391,461
356,435	156,951	1450,157	1391,399
