DTS Sentinel unit serial number:	SN410029Multiplexer serial number:	ORYXHardware model number:	OX2-SRSoftware version number:	ORYX F/W v4,00 Oryx Data Collector v3.7.2.0data status	okinstallation	B6 Nyhavnadifferential loss correction	single-endedforward channel	channel 2reverse channel	N/Adate	2023/12/11time	07:10:08forward acquisition time	300,00reverse acquisition time	0,00gamma	499,1914k internal	0,3127k external	0,3127temperature offset calibration	1,0000default loss term (dB/km)	0,3820temperature slope calibration	1,0000multiplexer offset coefficient	1,0000multiplexer slope coefficient	1,0000fibre end	0,00T internal ref (°C)	19,24T ext. ref 1 (°C)	1,97T ext. ref 2 (°C)	2,03length (m)	temperature (°C)	Stokes	anti-Stokes-744,400	-200,000	0,002	-0,072
-743,385	-101,547	-0,273	-0,049
-742,371	-180,786	0,034	0,000
-741,356	-158,330	-0,347	0,015
-740,342	103,839	-0,018	0,016
-739,327	-148,696	-0,177	0,011
-738,312	615,191	0,114	-0,214
-737,298	-159,351	-0,297	-0,012
-736,283	355,550	0,067	0,100
-735,269	-184,877	-0,239	0,003
-734,254	-22,406	0,212	-0,095
-733,239	-144,336	-0,506	-0,034
-732,225	800,000	0,071	0,150
-731,210	-200,000	-0,003	-0,035
-730,196	472,256	0,025	-0,041
-729,181	254,502	-0,079	-0,100
-728,167	-200,000	0,010	-0,107
-727,152	-200,000	-0,024	-0,089
-726,137	-54,939	-0,046	0,015
-725,123	255,380	0,029	-0,037
-724,108	22,119	-0,153	-0,092
-723,094	-2,073	-0,055	-0,029
-722,079	150,102	-0,105	-0,106
-721,064	800,000	-0,068	-0,194
-720,050	-20,833	-0,123	-0,056
-719,035	5,377	-0,035	-0,019
-718,021	-200,000	-0,017	-0,080
-717,006	-200,000	0,002	-0,149
-715,991	-200,000	0,005	-0,071
-714,977	-74,175	-0,112	0,030
-713,962	616,346	0,029	0,054
-712,948	-127,868	0,200	0,021
-711,933	2,077	-0,012	-0,007
-710,918	717,174	-0,011	-0,021
-709,904	154,209	-0,101	-0,104
-708,889	0,153	0,060	-0,032
-707,875	-106,449	-0,132	0,022
-706,860	88,715	0,142	0,117
-705,845	-112,672	-0,092	0,013
-704,831	-92,163	0,154	-0,032
-703,816	-50,294	0,122	0,043
-702,802	-15,214	-0,109	-0,052
-701,787	321,397	-0,023	0,032
-700,772	85,013	-0,096	0,078
-699,758	44,873	0,098	-0,067
-698,743	212,032	-0,034	0,040
-697,729	-64,894	0,157	-0,047
-696,714	-200,000	0,015	0,074
-695,699	-46,719	-0,048	-0,018
-694,685	65,905	-0,072	0,054
-693,670	800,000	-0,027	0,055
-692,656	-200,000	0,006	-0,154
-691,641	651,817	-0,039	0,075
-690,627	744,566	-0,016	0,033
-689,612	-100,855	0,107	0,019
-688,597	-82,559	0,035	0,008
-687,583	800,000	0,017	0,045
-686,568	-100,305	-0,108	-0,020
-685,554	608,311	-0,027	-0,049
-684,539	-200,000	0,005	0,034
-683,524	-200,000	0,031	0,150
-682,510	800,000	0,059	0,160
-681,495	24,710	-0,123	0,075
-680,481	184,009	0,072	0,079
-679,466	49,325	0,074	-0,052
-678,451	800,000	0,063	-0,147
-677,437	-106,400	0,020	0,003
-676,422	-200,000	-0,010	0,039
-675,408	-200,000	0,027	0,151
-674,393	-126,139	0,129	-0,014
-673,378	8,167	-0,152	-0,084
-672,364	68,684	0,055	0,042
-671,349	-126,527	0,065	-0,007
-670,335	34,794	-0,106	-0,069
-669,320	449,133	-0,076	-0,124
-668,305	94,947	0,049	-0,042
-667,291	195,333	-0,031	-0,036
-666,276	800,000	-0,060	-0,180
-665,262	-138,538	-0,146	0,012
-664,247	800,000	0,040	-0,103
-663,232	613,820	0,033	0,062
-662,218	376,133	-0,119	0,181
-661,203	-200,000	0,019	0,073
-660,189	-99,288	0,135	-0,025
-659,174	-48,525	-0,259	-0,092
-658,159	376,419	0,069	-0,104
-657,145	73,789	-0,045	-0,035
-656,130	121,476	0,042	0,038
-655,116	-200,000	0,015	-0,094
-654,101	-41,054	-0,142	0,054
-653,086	340,216	0,038	0,055
-652,072	386,303	0,084	0,128
-651,057	-58,598	-0,177	0,057
-650,043	800,000	-0,026	-0,081
-649,028	-27,313	-0,075	-0,032
-648,014	-161,904	-0,048	-0,002
-646,999	82,894	0,028	0,022
-645,984	37,224	0,113	-0,074
-644,970	-200,000	0,050	0,200
-643,955	-200,000	-0,021	-0,124
-642,941	800,000	-0,055	-0,174
-641,926	800,000	0,032	-0,071
-640,911	-200,000	0,027	-0,130
-639,897	35,023	0,098	0,063
-638,882	234,232	-0,046	-0,056
-637,868	-200,000	-0,037	-0,234
-636,853	-108,452	-0,095	-0,015
-635,838	-200,000	0,030	0,116
-634,824	-2,015	0,053	0,027
-633,809	-136,690	-0,234	0,020
-632,795	-200,000	-0,002	-0,078
-631,780	-58,463	0,105	0,034
-630,765	-200,000	-0,011	0,042
-629,751	-99,620	-0,091	0,017
-628,736	-130,711	0,203	-0,020
-627,722	618,906	0,024	0,044
-626,707	-9,937	0,074	0,036
-625,692	-200,000	-0,018	0,199
-624,678	-200,000	-0,000	-0,014
-623,663	-200,000	0,004	-0,032
-622,649	-200,000	0,003	-0,047
-621,634	-200,000	0,005	0,052
-620,619	800,000	0,024	0,068
-619,605	-58,037	0,123	-0,039
-618,590	585,820	0,049	0,091
-617,576	-200,000	0,008	0,055
-616,561	56,910	0,072	-0,052
-615,546	-200,000	0,011	-0,050
-614,532	-200,000	-0,020	-0,113
-613,517	458,362	-0,052	-0,085
-612,503	70,527	-0,112	0,086
-611,488	-129,626	0,041	0,004
-610,474	-41,136	-0,110	0,042
-609,459	268,336	-0,082	0,106
-608,444	26,260	-0,136	-0,084
-607,430	-13,266	-0,061	-0,029
-606,415	331,133	-0,027	-0,039
-605,401	63,766	0,080	-0,059
-604,386	800,000	0,010	-0,028
-603,371	-170,319	-0,032	0,001
-602,357	135,638	-0,045	0,044
-601,342	487,238	0,036	-0,062
-600,328	11,394	-0,091	-0,051
-599,313	800,000	-0,010	0,030
-598,298	-200,000	-0,033	-0,147
-597,284	-200,000	-0,003	0,020
-596,269	800,000	0,079	0,184
-595,255	-40,564	-0,080	-0,030
-594,240	8,801	-0,108	-0,060
-593,225	66,241	-0,042	0,031
-592,211	800,000	-0,016	-0,050
-591,196	-200,000	-0,023	-0,084
-590,182	-132,339	0,089	-0,008
-589,167	-200,000	-0,050	0,213
-588,152	-99,621	-0,135	0,025
-587,138	-31,570	0,057	0,024
-586,123	-119,477	-0,087	0,011
-585,109	102,657	-0,060	-0,052
-584,094	-200,000	-0,003	-0,088
-583,079	273,058	0,105	0,137
-582,065	259,848	0,107	0,137
-581,050	-41,995	-0,093	-0,035
-580,036	14,624	0,198	-0,114
-579,021	-103,225	-0,186	-0,032
-578,006	-131,645	-0,101	-0,010
-576,992	264,305	-0,012	0,015
-575,977	199,486	0,045	-0,051
-574,963	366,396	-0,010	0,016
-573,948	-163,844	-0,017	-0,001
-572,934	-89,757	0,140	-0,030
-571,919	212,350	-0,085	0,099
-570,904	-200,000	0,002	0,179
-569,890	-65,604	0,076	-0,022
-568,875	245,889	0,071	-0,089
-567,861	-110,809	0,068	0,010
-566,846	-162,835	-0,038	0,001
-565,831	-168,085	-0,052	0,001
-564,817	96,707	-0,127	-0,108
-563,802	-136,845	0,095	0,008
-562,788	52,366	-0,074	-0,052
-561,773	-200,000	-0,014	0,065
-560,758	266,311	0,088	0,114
-559,744	258,466	0,078	-0,099
-558,729	-157,856	-0,067	0,003
-557,715	107,398	0,101	0,089
-556,700	544,156	0,050	-0,089
-555,685	36,101	-0,088	0,057
-554,671	-200,000	0,003	-0,092
-553,656	800,000	-0,023	0,056
-552,642	-80,673	0,091	0,022
-551,627	-94,061	-0,078	0,016
-550,612	72,636	-0,062	-0,047
-549,598	800,000	-0,054	0,141
-548,583	270,006	0,069	-0,090
-547,569	62,079	0,105	-0,077
-546,554	68,428	-0,059	-0,044
-545,539	165,813	-0,051	-0,053
-544,525	691,438	-0,003	-0,006
-543,510	-200,000	0,010	0,092
-542,496	-200,000	-0,001	-0,113
-541,481	800,000	-0,067	-0,144
-540,466	-62,517	0,070	-0,021
-539,452	-111,784	0,101	0,015
-538,437	-200,000	0,008	0,150
-537,423	800,000	-0,030	0,064
-536,408	67,818	-0,077	0,058
-535,393	-29,269	-0,117	0,049
-534,379	-45,971	0,088	-0,032
-533,364	-200,000	-0,003	-0,025
-532,350	-57,747	0,137	0,044
-531,335	-17,962	0,130	0,060
-530,321	505,703	0,021	0,036
-529,306	-56,915	0,122	0,040
-528,291	96,095	-0,018	0,015
-527,277	25,756	-0,087	-0,053
-526,262	257,415	0,056	-0,071
-525,248	-200,000	-0,010	-0,122
-524,233	4,435	0,031	0,017
-523,218	22,033	-0,089	0,054
-522,204	156,512	0,060	-0,061
-521,189	-79,728	-0,151	-0,037
-520,175	472,043	0,040	-0,066
-519,160	-26,637	0,042	0,018
-518,145	-123,325	0,027	0,003
-517,131	-200,000	0,008	0,037
-516,116	8,606	0,094	0,052
-515,102	-200,000	-0,013	-0,077
-514,087	437,949	-0,088	0,142
-513,072	800,000	0,046	-0,109
-512,058	-200,000	-0,019	0,076
-511,043	-200,000	0,019	0,076
-510,029	488,922	0,042	0,070
-509,014	-176,824	0,103	-0,002
-507,999	67,226	-0,092	-0,069
-506,985	-123,557	0,031	-0,004
-505,970	133,332	-0,054	-0,052
-504,956	-55,624	0,065	-0,021
-503,941	-64,374	0,146	-0,044
-502,926	247,501	0,077	-0,097
-501,912	169,070	-0,081	-0,085
-500,897	221,279	0,075	0,089
-499,883	113,174	0,080	0,071
-498,868	800,000	0,013	0,034
-497,853	-200,000	0,003	0,162
-496,839	-71,474	0,174	-0,048
-495,824	-45,747	0,132	0,048
-494,810	166,558	-0,089	0,093
-493,795	-159,992	0,108	-0,004
-492,781	-200,000	-0,006	-0,062
-491,766	46,985	-0,166	-0,113
-490,751	388,331	0,132	-0,202
-489,737	27,647	0,059	-0,036
-488,722	800,000	0,017	-0,044
-487,708	-57,196	0,057	-0,018
-486,693	-149,988	-0,045	-0,003
-485,678	-92,991	0,057	-0,012
-484,664	-200,000	-0,013	-0,081
-483,649	-1,915	-0,050	-0,026
-482,635	250,756	0,031	0,039
-481,620	201,232	-0,071	-0,081
-480,605	28,878	0,088	0,055
-479,591	81,582	-0,037	0,029
-478,576	800,000	-0,061	0,163
-477,562	-74,083	0,080	0,021
-476,547	800,000	-0,028	0,066
-475,532	-128,597	-0,104	-0,011
-474,518	-13,973	0,214	-0,101
-473,503	-69,891	-0,020	0,006
-472,489	-51,438	-0,062	-0,021
-471,474	-99,164	0,077	0,014
-470,459	-12,079	-0,083	-0,040
-469,445	522,184	-0,018	-0,031
-468,430	800,000	0,016	-0,050
-467,416	-168,351	-0,088	0,002
-466,401	-116,678	-0,122	0,016
-465,386	368,275	0,076	-0,113
-464,372	-44,916	-0,067	0,025
-463,357	263,984	-0,038	-0,049
-462,343	800,000	-0,014	0,035
-461,328	-200,000	-0,015	-0,074
-460,313	81,516	-0,065	0,051
-459,299	507,842	0,065	0,112
-458,284	725,934	0,052	0,102
-457,270	197,105	-0,076	-0,086
-456,255	171,555	-0,091	-0,096
-455,241	800,000	-0,052	-0,108
-454,226	8,328	-0,164	0,091
-453,211	-200,000	-0,002	0,059
-452,197	-156,894	0,081	-0,004
-451,182	90,671	0,101	0,083
-450,168	672,673	-0,048	0,092
-449,153	800,000	0,038	-0,097
-448,138	-147,862	-0,151	-0,009
-447,124	205,069	0,024	0,027
-446,109	-86,178	-0,055	-0,012
-445,095	-200,000	-0,001	0,026
-444,080	280,574	0,047	0,062
-443,065	-200,000	0,021	0,107
-442,051	-200,000	-0,030	-0,118
-441,036	800,000	-0,054	-0,156
-440,022	538,863	-0,012	-0,020
-439,007	284,359	-0,083	0,110
-437,992	800,000	-0,022	0,057
-436,978	-96,898	0,193	-0,037
-435,963	-99,349	-0,110	-0,020
-434,949	-200,000	0,009	-0,073
-433,934	7,518	-0,124	0,068
-432,919	274,396	-0,093	-0,121
-431,905	96,831	-0,059	0,050
-430,890	-166,791	0,067	0,002
-429,876	-127,895	-0,073	-0,008
-428,861	309,817	-0,028	0,038
-427,846	-60,995	0,074	-0,023
-426,832	800,000	-0,061	-0,142
-425,817	-121,922	-0,042	-0,005
-424,803	-159,613	0,053	-0,002
-423,788	-38,587	0,208	-0,080
-422,773	145,292	0,028	0,027
-421,759	-137,729	0,178	-0,015
-420,744	-116,902	0,117	0,016
-419,730	-23,442	-0,026	-0,011
-418,715	-200,000	0,003	-0,149
-417,701	-200,000	-0,008	0,072
-416,686	-58,240	-0,121	-0,038
-415,671	79,748	0,016	-0,013
-414,657	19,386	-0,171	0,101
-413,642	-200,000	-0,007	-0,119
-412,628	160,729	0,048	0,050
-411,613	82,296	0,089	-0,071
-410,598	-107,805	-0,182	-0,029
-409,584	-200,000	0,004	-0,222
-408,569	-119,821	0,069	-0,009
-407,555	-200,000	-0,020	0,092
-406,540	28,434	-0,057	0,036
-405,525	533,343	-0,038	-0,067
-404,511	-200,000	-0,006	-0,145
-403,496	742,108	0,028	0,055
-402,482	110,056	-0,042	0,037
-401,467	560,260	0,039	0,069
-400,452	800,000	0,035	0,078
-399,438	360,500	0,011	0,016
-398,423	-143,888	0,089	0,006
-397,409	800,000	0,024	-0,062
-396,394	45,425	-0,122	0,083
-395,379	-200,000	-0,035	0,130
-394,365	-200,000	-0,009	0,141
-393,350	-200,000	-0,001	0,032
-392,336	-200,000	0,027	-0,095
-391,321	348,830	-0,071	-0,103
-390,306	188,268	0,141	-0,155
-389,292	-33,954	0,059	-0,024
-388,277	-60,166	0,021	-0,007
-387,263	248,107	0,053	0,066
-386,248	-54,578	0,142	0,047
-385,233	-136,735	0,067	0,006
-384,219	-48,514	-0,190	-0,067
-383,204	800,000	-0,043	0,131
-382,190	-147,039	0,015	0,001
-381,175	71,989	-0,028	-0,021
-380,160	800,000	-0,007	-0,016
-379,146	800,000	-0,055	-0,126
-378,131	1,021	-0,034	-0,018
-377,117	-200,000	0,017	-0,125
-376,102	-156,974	-0,028	-0,001
-375,088	334,115	0,043	-0,061
-374,073	-189,039	-0,044	-0,000
-373,058	391,179	-0,103	0,157
-372,044	-61,471	-0,054	-0,016
-371,029	-200,000	-0,024	0,135
-370,015	766,239	-0,085	0,170
-369,000	19,131	0,110	0,064
-367,985	-200,000	0,003	0,094
-366,971	-192,445	-0,136	-0,001
-365,956	-200,000	0,001	-0,016
-364,942	800,000	-0,020	0,046
-363,927	-110,640	0,151	0,023
-362,912	-150,880	0,086	-0,005
-361,898	-60,144	-0,100	0,031
-360,883	100,983	0,058	0,049
-359,869	245,816	-0,083	0,103
-358,854	406,784	0,002	0,003
-357,839	-64,994	0,076	0,023
-356,825	-200,000	0,004	0,059
-355,810	143,836	0,103	0,101
-354,796	-31,735	-0,115	0,047
-353,781	-200,000	0,019	-0,081
-352,766	586,234	0,063	-0,114
-351,752	217,534	0,051	0,059
-350,737	312,422	0,082	0,113
-349,723	-60,979	0,079	0,024
-348,708	112,546	0,055	0,049
-347,693	-73,883	-0,136	0,036
-346,679	169,517	0,061	0,064
-345,664	731,696	0,015	-0,031
-344,650	741,945	-0,030	0,059
-343,635	-200,000	-0,004	0,151
-342,620	-99,875	0,079	-0,014
-341,606	394,707	0,150	-0,230
-340,591	130,351	-0,057	-0,054
-339,577	-118,035	-0,115	0,015
-338,562	218,580	-0,130	0,152
-337,548	81,219	0,037	0,029
-336,533	800,000	0,023	-0,062
-335,518	139,943	0,109	0,105
-334,504	800,000	0,036	-0,078
-333,489	-14,994	-0,092	-0,043
-332,475	-200,000	-0,006	0,038
-331,460	271,761	0,039	-0,050
-330,445	-200,000	-0,001	-0,113
-329,431	511,621	-0,035	-0,060
-328,416	800,000	0,036	0,077
-327,402	277,066	-0,040	-0,052
-326,387	-35,605	-0,039	0,016
-325,372	-34,111	-0,134	0,054
-324,358	-19,901	-0,029	-0,013
-323,343	-200,000	0,013	0,066
-322,329	800,000	0,033	0,072
-321,314	69,568	0,096	0,072
-320,299	-122,755	0,090	0,011
-319,285	79,737	-0,044	-0,034
-318,270	800,000	-0,041	0,121
-317,256	42,070	-0,031	-0,020
-316,241	-120,515	0,070	-0,009
-315,226	12,157	-0,068	0,038
-314,212	-81,687	-0,119	0,028
-313,197	286,200	0,148	0,196
-312,183	-200,000	-0,008	-0,095
-311,168	800,000	-0,024	0,051
-310,153	-43,304	0,163	-0,060
-309,139	32,669	-0,058	-0,036
-308,124	81,440	-0,039	-0,031
-307,110	24,026	-0,024	0,015
-306,095	102,319	-0,013	0,011
-305,080	800,000	0,019	0,040
-304,066	-200,000	-0,009	-0,086
-303,051	-200,000	-0,069	-0,238
-302,037	-71,371	-0,227	0,062
-301,022	303,618	-0,078	-0,106
-300,008	800,000	0,044	-0,109
-298,993	-65,256	-0,152	-0,044
-297,978	-200,000	-0,008	-0,051
-296,964	-200,000	-0,007	0,122
-295,949	-60,761	-0,039	0,012
-294,935	800,000	0,060	-0,136
-293,920	-0,363	-0,086	-0,045
-292,905	-28,845	0,054	-0,023
-291,891	131,768	0,090	-0,085
-290,876	-200,000	0,009	-0,075
-289,862	-200,000	0,013	0,142
-288,847	34,435	0,049	0,031
-287,832	800,000	0,030	-0,078
-286,818	107,338	-0,058	-0,050
-285,803	800,000	-0,011	-0,032
-284,789	716,420	0,072	0,140
-283,774	81,324	0,152	0,120
-282,759	-137,721	0,093	-0,008
-281,745	-170,512	-0,136	-0,003
-280,730	85,459	-0,112	-0,090
-279,716	-23,061	0,068	-0,030
-278,701	58,517	-0,069	0,049
-277,686	118,511	0,130	-0,117
-276,672	800,000	0,054	0,121
-275,657	-200,000	0,022	0,111
-274,643	-74,002	0,054	0,014
-273,628	-200,000	-0,035	-0,193
-272,613	800,000	-0,053	-0,108
-271,599	565,821	0,065	-0,117
-270,584	104,406	0,049	-0,042
-269,570	-200,000	-0,014	0,226
-268,555	149,381	0,054	0,054
-267,540	43,973	-0,034	-0,023
-266,526	206,989	-0,040	0,045
-265,511	-200,000	-0,006	-0,084
-264,497	1,952	0,081	0,043
-263,482	534,523	0,024	0,043
-262,467	800,000	-0,025	0,051
-261,453	-200,000	0,003	0,071
-260,438	65,287	-0,160	-0,118
-259,424	-200,000	0,025	-0,089
-258,409	-200,000	0,000	-0,072
-257,395	-200,000	0,014	-0,065
-256,380	430,639	0,025	0,039
-255,365	-200,000	0,037	0,213
-254,351	-157,521	0,069	0,003
-253,336	800,000	-0,053	0,122
-252,322	-105,762	-0,165	0,027
-251,307	697,259	-0,019	-0,037
-250,292	-200,000	0,006	-0,062
-249,278	-200,000	-0,004	0,055
-248,263	-17,927	0,061	0,028
-247,249	-200,000	0,013	0,081
-246,234	-200,000	-0,027	0,107
-245,219	800,000	0,010	0,027
-244,205	-200,000	0,009	-0,041
-243,190	-146,001	0,028	0,002
-242,176	174,635	-0,041	0,044
-241,161	-200,000	-0,002	-0,016
-240,146	86,243	-0,013	-0,010
-239,132	640,928	0,027	-0,050
-238,117	800,000	-0,086	-0,185
-237,103	-200,000	-0,016	0,107
-236,088	88,843	0,131	-0,107
-235,073	-89,429	0,053	0,011
-234,059	4,866	0,132	0,070
-233,044	800,000	-0,059	-0,137
-232,030	83,207	-0,075	-0,060
-231,015	-200,000	0,002	0,049
-230,000	145,829	0,097	-0,095
-228,986	261,057	0,062	-0,078
-227,971	7,711	-0,146	-0,080
-226,957	683,134	-0,016	0,030
-225,942	442,711	-0,057	0,092
-224,927	-200,000	0,001	-0,113
-223,913	335,037	0,040	-0,056
-222,898	142,206	-0,025	-0,024
-221,884	-200,000	0,030	-0,110
-220,869	-116,233	0,041	0,005
-219,855	296,578	0,013	0,017
-218,840	-200,000	0,029	0,120
-217,825	32,135	0,116	0,073
-216,811	9,028	-0,039	-0,021
-215,796	-73,460	0,093	-0,025
-214,782	281,780	-0,061	-0,079
-213,767	-91,664	0,162	-0,033
-212,752	-92,472	0,092	0,019
-211,738	-200,000	0,009	0,185
-210,723	-200,000	-0,016	-0,102
-209,709	298,564	0,022	0,029
-208,694	-200,000	-0,020	-0,109
-207,679	129,486	-0,065	-0,061
-206,665	312,367	-0,012	0,017
-205,650	-200,000	-0,008	-0,045
-204,636	111,957	-0,037	-0,033
-203,621	96,887	-0,150	0,125
-202,606	-200,000	-0,026	-0,086
-201,592	58,486	-0,076	0,054
-200,577	-48,161	-0,087	-0,031
-199,563	-200,000	-0,040	-0,130
-198,548	-200,000	0,022	0,101
-197,533	800,000	0,026	0,067
-196,519	43,109	0,114	0,076
-195,504	-70,234	-0,067	-0,018
-194,490	28,493	-0,081	-0,050
-193,475	-200,000	0,007	0,032
-192,460	800,000	-0,058	-0,129
-191,446	-200,000	0,021	0,162
-190,431	133,774	0,064	0,061
-189,417	-200,000	-0,001	0,029
-188,402	247,886	-0,046	-0,056
-187,387	-67,415	-0,162	0,046
-186,373	275,433	-0,052	-0,067
-185,358	800,000	0,074	0,160
-184,344	-200,000	-0,024	0,146
-183,329	6,847	0,043	-0,023
-182,315	-161,654	-0,060	-0,002
-181,300	566,882	-0,055	-0,097
-180,285	-10,320	-0,088	0,042
-179,271	300,573	0,049	-0,066
-178,256	38,508	0,094	-0,061
-177,242	246,950	-0,041	0,050
-176,227	-6,412	-0,036	0,018
-175,212	132,700	0,086	0,081
-174,198	-52,508	0,067	0,022
-173,183	-200,000	0,039	-0,153
-172,169	-200,000	-0,009	-0,035
-171,154	444,951	-0,031	0,049
-170,139	18,677	-0,125	-0,072
-169,125	800,000	0,020	0,061
-168,110	800,000	-0,029	0,060
-167,096	277,761	0,043	0,056
-166,081	-200,000	-0,001	0,031
-165,066	703,830	-0,051	-0,098
-164,052	139,683	-0,011	-0,011
-163,037	-200,000	0,010	0,102
-162,023	800,000	0,055	0,142
-161,008	-2,157	0,108	0,055
-159,993	-102,589	-0,071	-0,012
-158,979	-112,958	0,071	-0,010
-157,964	21,430	0,160	0,095
-156,950	-61,739	-0,148	-0,045
-155,935	-200,000	0,009	0,050
-154,920	-113,803	-0,039	0,005
-153,906	-68,135	0,054	-0,015
-152,891	590,506	0,072	0,130
-151,877	-200,000	-0,055	0,000
-150,862	-99,979	-0,053	0,009
-149,847	800,000	-0,058	0,134
-148,833	800,000	0,043	-0,087
-147,818	-200,000	0,019	0,078
-146,804	-132,853	-0,047	-0,004
-145,789	-200,000	0,015	0,132
-144,775	-200,000	0,001	-0,018
-143,760	800,000	0,019	0,042
-142,745	-97,924	-0,074	-0,014
-141,731	48,514	0,093	0,063
-140,716	-51,014	0,221	0,075
-139,702	-123,719	0,107	0,012
-138,687	3,319	-0,034	-0,018
-137,672	800,000	0,014	0,029
-136,658	70,966	0,049	0,037
-135,643	800,000	0,014	-0,030
-134,629	-107,771	-0,064	0,010
-133,614	87,031	-0,033	-0,026
-132,599	-200,000	0,027	0,095
-131,585	1,732	0,080	0,042
-130,570	-200,000	-0,031	-0,182
-129,556	-37,333	0,051	-0,020
-128,541	-86,416	0,129	-0,029
-127,526	-200,000	0,029	0,131
-126,512	-159,224	0,031	-0,001
-125,497	-95,838	0,053	0,010
-124,483	606,848	0,089	0,163
-123,468	563,952	-0,020	0,035
-122,453	-44,446	-0,092	-0,033
-121,439	37,054	-0,093	0,060
-120,424	278,062	-0,058	-0,076
-119,410	351,236	0,045	0,065
-118,395	40,117	-0,046	-0,030
-117,380	6,824	0,014	-0,008
-116,366	-200,000	-0,026	-0,086
-115,351	800,000	-0,056	-0,135
-114,337	800,000	0,078	-0,215
-113,322	349,713	-0,093	-0,134
-112,307	-200,000	-0,009	0,043
-111,293	-91,425	0,105	-0,022
-110,278	7,761	-0,020	-0,011
-109,264	800,000	-0,024	-0,074
-108,249	-200,000	-0,016	-0,071
-107,234	-81,824	-0,025	-0,006
-106,220	171,983	0,092	-0,096
-105,205	-130,358	-0,054	-0,005
-104,191	-181,055	0,080	0,001
-103,176	-200,000	-0,002	0,047
-102,162	41,616	-0,066	-0,043
-101,147	389,446	-0,034	-0,051
-100,132	-8,769	0,093	-0,045
-99,118	-200,000	-0,019	-0,091
-98,103	449,609	0,045	0,072
-97,089	-200,000	-0,025	0,171
-96,074	177,372	-0,079	0,084
-95,059	167,193	0,073	0,075
-94,045	668,940	0,061	0,116
-93,030	-200,000	-0,005	-0,064
-92,016	264,375	0,082	-0,103
-91,001	193,564	-0,090	-0,099
-89,986	760,452	0,072	0,143
-88,972	-200,000	0,010	0,057
-87,957	581,916	-0,037	-0,066
-86,943	181,822	0,019	0,020
-85,928	-200,000	-0,032	0,237
-84,913	54,694	0,064	-0,045
-83,899	-54,663	-0,161	-0,052
-82,884	800,000	-0,024	-0,057
-81,870	22,656	-0,091	0,054
-80,855	800,000	0,013	0,032
-79,840	-200,000	-0,015	-0,087
-78,826	800,000	0,072	-0,161
-77,811	539,351	-0,030	0,052
-76,797	315,218	0,020	0,028
-75,782	-200,000	0,004	-0,024
-74,767	-29,227	0,071	-0,029
-73,753	-200,000	0,001	-0,056
-72,738	159,363	0,078	-0,078
-71,724	-200,000	-0,041	-0,186
-70,709	-200,000	0,050	-0,191
-69,694	203,256	-0,054	-0,061
-68,680	155,196	-0,018	-0,018
-67,665	-18,384	0,017	-0,008
-66,651	11,557	0,140	0,077
-65,636	702,918	-0,055	0,105
-64,622	800,000	0,043	0,102
-63,607	-155,385	0,064	-0,003
-62,592	508,336	-0,046	0,077
-61,578	-141,741	-0,010	-0,001
-60,563	800,000	-0,061	-0,159
-59,549	38,902	-0,037	0,024
-58,534	-17,962	-1,554	-0,703
-57,519	759,778	-0,666	-1,315
-56,505	-200,000	-0,995	-4,725
-55,490	-146,763	0,647	-0,040
-54,476	800,000	5,319	12,178
-53,461	-200,000	15,444	277,792
-52,446	-200,000	696,762	2271,924
-51,432	587,248	1615,638	2893,971
-50,417	122,656	1623,947	1472,123
-49,403	83,531	1282,944	1012,698
-48,388	37,542	1025,177	657,787
-47,373	22,099	986,690	582,039
-46,359	21,122	975,261	572,052
-45,344	19,516	971,319	564,439
-44,330	19,587	969,791	563,764
-43,315	19,319	968,462	562,090
-42,300	19,280	967,326	561,280
-41,286	19,287	966,342	560,709
-40,271	19,276	965,267	560,026
-39,257	19,326	964,443	559,691
-38,242	19,310	963,489	559,061
-37,227	19,292	962,845	558,606
-36,213	19,228	961,917	557,837
-35,198	19,267	960,935	557,375
-34,184	19,272	960,350	557,029
-33,169	19,218	959,377	556,267
-32,154	19,321	958,360	555,990
-31,140	19,369	957,513	555,630
-30,125	19,244	956,967	554,886
-29,111	19,280	956,085	554,472
-28,096	19,368	955,422	554,349
-27,082	19,321	954,691	553,749
-26,067	19,266	954,082	553,197
-25,052	19,346	953,166	552,903
-24,038	19,302	952,525	552,368
-23,023	19,253	951,905	551,827
-22,009	19,329	951,090	551,578
-20,994	19,280	950,607	551,117
-19,979	19,298	949,961	550,779
-18,965	19,351	949,251	550,517
-17,950	19,235	948,702	549,803
-16,936	19,198	948,003	549,258
-15,921	19,247	947,289	548,979
-14,906	19,182	946,641	548,374
-13,892	19,116	946,040	547,793
-12,877	19,113	945,392	547,386
-11,863	19,146	944,648	547,041
-10,848	19,099	944,268	546,646
-9,833	19,259	943,543	546,718
-8,819	19,237	943,136	546,390
-7,804	19,180	942,475	545,802
-6,790	19,037	942,029	545,068
-5,775	19,159	941,339	545,034
-4,760	19,140	940,757	544,616
-3,746	19,118	940,257	544,234
-2,731	19,045	939,266	543,407
-1,717	18,985	938,614	542,820
-0,702	18,938	938,060	542,327
0,313	18,784	937,538	542,355
1,327	21,810	935,730	550,839
2,342	31,081	794,873	492,644
3,356	28,037	449,564	274,021
4,371	-2,744	295,260	149,013
5,386	-6,952	276,622	135,578
6,400	-8,321	270,854	131,459
7,415	-8,720	268,686	130,025
8,429	-8,322	267,534	129,824
9,444	-8,141	266,666	129,558
10,459	-8,176	266,048	129,214
11,473	-8,222	265,518	128,903
12,488	-8,147	265,088	128,751
13,502	-8,317	264,481	128,289
14,517	-8,202	264,123	128,210
15,531	-7,828	263,921	128,441
16,546	-7,443	263,553	128,600
17,561	-7,542	263,204	128,328
18,575	-7,409	262,939	128,308
19,590	-7,457	262,507	128,043
20,604	-7,492	262,093	127,798
21,619	-7,609	261,830	127,552
22,634	-7,548	261,637	127,503
23,648	-7,757	261,290	127,134
24,663	-7,757	261,112	127,036
25,677	-7,668	260,734	126,920
26,692	-7,556	260,530	126,910
27,707	-7,488	260,210	126,805
28,721	-7,599	259,991	126,586
29,736	-7,485	259,796	126,582
30,750	-7,487	259,472	126,411
31,765	-7,572	259,267	126,225
32,780	-7,774	259,122	125,963
33,794	-7,635	258,807	125,922
34,809	-7,633	258,537	125,781
35,823	-7,552	258,139	125,648
36,838	-7,770	258,008	125,379
37,853	-7,616	257,842	125,424
38,867	-7,668	257,582	125,241
39,882	-7,843	257,468	125,018
40,896	-7,853	257,152	124,846
41,911	-7,685	256,908	124,865
42,926	-7,756	256,742	124,710
43,940	-7,588	256,344	124,653
44,955	-7,669	256,233	124,517
45,969	-7,866	256,076	124,256
46,984	-7,883	255,799	124,096
47,999	-8,176	255,510	123,687
49,013	-8,036	255,279	123,687
50,028	-8,334	255,108	123,332
51,042	-8,251	254,811	123,250
52,057	-8,242	254,522	123,107
53,071	-8,283	254,404	123,002
54,086	-8,299	254,200	122,879
55,101	-8,168	254,021	122,896
56,115	-8,116	253,943	122,892
57,130	-7,789	253,865	123,129
58,144	-7,538	253,553	123,186
59,159	-7,574	253,352	123,047
60,174	-7,731	253,139	122,795
61,188	-7,584	252,875	122,784
62,203	-7,680	252,746	122,627
63,217	-7,494	252,462	122,640
64,232	-7,637	252,290	122,421
65,247	-7,986	252,115	122,023
66,261	-7,633	251,928	122,227
67,276	-7,806	251,626	121,920
68,290	-8,156	251,366	121,481
69,305	-8,246	250,959	121,196
70,320	-7,876	250,964	121,507
71,334	-7,792	250,776	121,477
72,349	-7,451	250,662	121,704
73,363	-7,675	250,381	121,364
74,378	-7,613	250,154	121,297
75,393	-7,696	249,988	121,135
76,407	-7,651	249,743	121,043
77,422	-7,778	249,700	120,903
78,436	-7,658	249,271	120,788
79,451	-7,827	249,204	120,599
80,466	-7,623	248,965	120,648
81,480	-7,935	248,738	120,261
82,495	-7,905	248,583	120,200
83,509	-7,721	248,469	120,291
84,524	-7,764	248,197	120,112
85,539	-8,018	248,066	119,822
86,553	-8,112	247,876	119,640
87,568	-7,695	247,413	119,759
88,582	-7,951	247,451	119,550
89,597	-8,041	247,221	119,351
90,611	-7,905	247,024	119,361
91,626	-7,872	247,047	119,389
92,641	-7,744	246,882	119,408
93,655	-7,804	246,672	119,244
94,670	-7,906	246,394	119,014
95,684	-7,811	246,098	118,939
96,699	-7,902	246,106	118,856
97,714	-7,947	245,882	118,700
98,728	-7,973	245,683	118,571
99,743	-8,104	245,451	118,338
100,757	-8,017	245,146	118,254
101,772	-8,057	244,966	118,123
102,787	-7,981	244,836	118,113
103,801	-8,103	244,694	117,932
104,816	-8,118	244,626	117,876
105,830	-7,996	244,404	117,861
106,845	-7,835	244,190	117,882
107,860	-7,897	243,913	117,686
108,874	-7,914	243,801	117,607
109,889	-7,959	243,534	117,430
110,903	-7,890	243,310	117,369
111,918	-8,228	243,253	117,050
112,933	-8,153	242,888	116,926
113,947	-7,858	242,793	117,115
114,962	-7,946	242,652	116,964
115,976	-7,855	242,540	116,975
116,991	-7,835	242,397	116,912
118,006	-7,920	242,163	116,718
119,020	-7,855	242,081	116,722
120,035	-7,694	241,926	116,770
121,049	-7,984	241,724	116,422
122,064	-7,806	241,546	116,473
123,079	-7,833	241,327	116,335
124,093	-7,841	241,083	116,201
125,108	-7,978	240,841	115,960
126,122	-8,077	240,646	115,775
127,137	-7,869	240,467	115,850
128,151	-8,073	240,307	115,595
129,166	-7,865	240,053	115,633
130,181	-8,189	240,073	115,366
131,195	-8,272	239,803	115,158
132,210	-7,982	239,591	115,284
133,224	-7,951	239,413	115,213
134,239	-8,034	239,179	115,022
135,254	-7,785	239,041	115,149
136,268	-7,966	238,934	114,940
137,283	-8,240	238,798	114,641
138,297	-8,210	238,557	114,539
139,312	-8,092	238,378	114,538
140,327	-8,046	238,287	114,522
141,341	-7,669	238,224	114,788
142,356	-7,975	238,131	114,485
143,370	-7,748	237,794	114,496
144,385	-7,469	237,677	114,656
145,400	-7,491	237,462	114,524
146,414	-7,481	237,266	114,428
147,429	-7,596	237,098	114,243
148,443	-7,528	236,862	114,175
149,458	-7,692	236,820	114,012
150,473	-7,680	236,677	113,942
151,487	-7,812	236,534	113,757
152,502	-7,611	236,333	113,813
153,516	-7,474	236,202	113,849
154,531	-7,844	235,965	113,427
155,546	-7,694	235,774	113,446
156,560	-7,739	235,599	113,315
157,575	-8,033	235,301	112,926
158,589	-8,038	235,245	112,885
159,604	-7,624	235,137	113,155
160,619	-7,452	234,950	113,192
161,633	-7,408	234,907	113,197
162,648	-7,550	234,762	113,004
163,662	-7,723	234,468	112,714
164,677	-7,679	234,168	112,595
165,692	-7,584	234,178	112,665
166,706	-7,536	234,010	112,612
167,721	-7,323	234,029	112,781
168,735	-7,364	233,878	112,666
169,750	-7,547	233,562	112,358
170,764	-7,954	233,248	111,874
171,779	-7,622	233,118	112,065
172,794	-7,565	233,132	112,107
173,808	-7,855	232,877	111,745
174,823	-8,117	232,638	111,413
175,837	-8,143	232,332	111,235
176,852	-8,047	232,275	111,274
177,867	-7,754	232,284	111,500
178,881	-7,677	232,266	111,542
179,896	-7,752	231,973	111,332
180,910	-7,631	231,853	111,360
181,925	-7,656	231,603	111,211
182,940	-7,490	231,412	111,240
183,954	-7,546	231,250	111,107
184,969	-7,489	231,223	111,130
185,983	-7,229	231,050	111,241
186,998	-7,292	230,986	111,150
188,013	-7,357	230,769	110,985
189,027	-7,535	230,542	110,727
190,042	-7,362	230,296	110,734
191,056	-7,483	230,230	110,598
192,071	-7,623	230,100	110,417
193,086	-7,631	229,870	110,289
194,100	-8,182	229,376	109,613
195,115	-9,660	228,578	108,074
196,129	-9,903	228,704	107,935
197,144	-5,315	230,210	112,223
198,159	-0,343	231,735	116,859
199,173	3,338	232,693	120,225
200,188	3,798	232,724	120,591
201,202	4,491	232,497	121,007
202,217	4,373	232,592	120,953
203,232	4,549	232,358	120,958
204,246	4,626	232,263	120,958
205,261	4,500	232,076	120,752
206,275	4,705	231,848	120,783
207,290	4,647	231,702	120,650
208,304	4,361	231,725	120,428
209,319	4,593	231,319	120,387
210,334	4,505	231,285	120,290
211,348	4,130	231,062	119,872
212,363	3,946	230,738	119,549
213,377	3,502	230,408	119,023
214,392	3,543	230,237	118,957
215,407	3,389	230,331	118,874
216,421	3,466	230,066	118,787
217,436	3,536	229,687	118,635
218,450	3,171	229,622	118,308
219,465	3,322	229,395	118,297
220,480	3,246	229,425	118,244
221,494	3,298	229,211	118,163
222,509	3,422	229,122	118,202
223,523	3,380	229,012	118,102
224,538	3,428	228,880	118,061
225,553	3,390	228,815	117,988
226,567	3,483	228,637	117,957
227,582	3,580	228,420	117,909
228,596	3,492	228,271	117,754
229,611	3,422	228,156	117,630
230,626	3,373	227,939	117,471
231,640	3,246	227,730	117,255
232,655	3,404	227,639	117,319
233,669	3,545	227,518	117,354
234,684	3,754	227,415	117,450
235,699	3,499	227,321	117,196
236,713	3,649	226,988	117,128
237,728	3,412	227,037	116,962
238,742	3,506	226,830	116,917
239,757	3,606	226,577	116,853
240,772	3,409	226,533	116,669
241,786	3,561	226,480	116,747
242,801	3,759	226,321	116,806
243,815	4,053	226,187	116,950
244,830	3,919	225,959	116,720
245,844	3,728	225,820	116,492
246,859	3,698	225,746	116,421
247,874	3,700	225,606	116,340
248,888	3,822	225,321	116,275
249,903	3,697	225,120	116,066
250,917	3,524	224,996	115,861
251,932	3,570	224,925	115,849
252,947	3,538	224,805	115,753
253,961	3,461	224,675	115,617
254,976	3,621	224,506	115,641
255,990	3,596	224,271	115,491
257,005	3,793	224,227	115,606
258,020	3,764	224,155	115,536
259,034	3,840	223,985	115,496
260,049	4,011	223,768	115,501
261,063	3,943	223,546	115,326
262,078	3,643	223,593	115,115
263,093	3,915	223,356	115,187
264,107	3,742	223,278	115,007
265,122	3,609	223,125	114,817
266,136	3,921	222,910	114,930
267,151	4,029	222,840	114,964
268,166	3,811	222,567	114,651
269,180	3,417	222,345	114,232
270,195	3,572	222,292	114,310
271,209	3,743	222,051	114,304
272,224	3,472	222,034	114,083
273,239	3,751	221,939	114,232
274,253	3,602	221,649	113,962
275,268	3,532	221,392	113,767
276,282	3,248	221,385	113,543
277,297	3,387	221,240	113,562
278,312	3,223	221,195	113,407
279,326	3,632	221,054	113,627
280,341	3,698	220,932	113,603
281,355	3,499	220,761	113,358
282,370	3,562	220,538	113,279
283,384	3,359	220,338	113,018
284,399	3,325	220,331	112,978
285,414	3,553	220,091	113,014
286,428	3,616	220,048	113,028
287,443	3,612	219,999	112,989
288,457	3,666	219,811	112,923
289,472	3,781	219,508	112,841
290,487	3,622	219,267	112,590
291,501	3,312	219,141	112,288
292,516	3,291	219,114	112,250
293,530	3,615	218,845	112,339
294,545	3,379	218,852	112,159
295,560	3,563	218,873	112,295
296,574	3,600	218,680	112,213
297,589	3,822	218,325	112,183
298,603	3,539	218,542	112,077
299,618	3,658	218,194	111,976
300,633	3,588	218,146	111,890
301,647	3,906	218,021	112,048
302,662	4,038	217,873	112,058
303,676	3,846	217,692	111,816
304,691	3,603	217,734	111,650
305,706	3,803	217,430	111,630
306,720	3,757	217,245	111,491
307,735	3,675	217,071	111,332
308,749	3,643	216,872	111,197
309,764	3,502	216,817	111,057
310,779	3,855	216,763	111,275
311,793	3,815	216,626	111,166
312,808	3,789	216,479	111,062
313,822	3,750	216,248	110,905
314,837	3,427	216,143	110,608
315,852	3,515	215,917	110,546
316,866	3,932	215,762	110,757
317,881	3,684	215,817	110,597
318,895	3,828	215,500	110,529
319,910	3,729	215,376	110,384
320,925	3,121	215,346	109,921
321,939	3,366	215,024	109,923
322,954	3,360	214,963	109,877
323,968	3,719	214,800	110,042
324,983	3,704	214,700	109,970
325,997	3,601	214,573	109,822
327,012	3,507	214,539	109,727
328,027	3,407	214,423	109,587
329,041	3,673	214,289	109,699
330,056	3,798	214,191	109,728
331,070	3,312	214,111	109,330
332,085	3,279	213,758	109,117
333,100	3,582	213,647	109,266
334,114	3,673	213,520	109,255
335,129	3,696	213,241	109,120
336,143	3,510	213,239	108,977
337,158	3,447	213,043	108,822
338,173	3,698	212,807	108,870
339,187	3,227	212,746	108,495
340,202	3,236	212,564	108,399
341,216	3,337	212,532	108,445
342,231	3,637	212,161	108,458
343,246	3,513	212,105	108,332
344,260	3,329	212,137	108,209
345,275	3,434	212,025	108,216
346,289	3,820	211,961	108,446
347,304	3,894	211,834	108,423
348,319	3,716	211,441	108,087
349,333	3,572	211,371	107,941
350,348	3,764	211,313	108,037
351,362	3,757	211,253	107,991
352,377	3,425	211,188	107,715
353,392	3,675	211,050	107,811
354,406	3,686	210,764	107,662
355,421	192,376	1342,299	1423,961
356,435	153,513	1480,209	1424,016
