DTS Sentinel unit serial number:	SN410029Multiplexer serial number:	ORYXHardware model number:	OX2-SRSoftware version number:	ORYX F/W v4,00 Oryx Data Collector v3.7.2.0data status	okinstallation	B6 Nyhavnadifferential loss correction	single-endedforward channel	channel 2reverse channel	N/Adate	2023/12/07time	11:55:08forward acquisition time	300,00reverse acquisition time	0,00gamma	499,1914k internal	0,3203k external	0,3203temperature offset calibration	1,0000default loss term (dB/km)	0,3820temperature slope calibration	1,0000multiplexer offset coefficient	1,0000multiplexer slope coefficient	1,0000fibre end	0,00T internal ref (°C)	9,22T ext. ref 1 (°C)	-4,62T ext. ref 2 (°C)	-4,60length (m)	temperature (°C)	Stokes	anti-Stokes-744,400	-101,174	0,208	0,037
-743,385	-67,769	-0,463	-0,131
-742,371	305,474	0,124	0,168
-741,356	-75,555	-0,379	-0,097
-740,342	53,109	0,130	0,091
-739,327	-35,434	-0,451	-0,177
-738,312	-130,296	0,171	0,017
-737,298	25,355	-0,272	-0,164
-736,283	-20,317	0,219	0,097
-735,269	-94,540	-0,293	-0,057
-734,254	-112,283	0,098	0,014
-733,239	-60,679	-0,541	-0,166
-732,225	-115,750	0,240	0,032
-731,210	800,000	-0,027	0,057
-730,196	-147,866	0,124	-0,007
-729,181	164,343	0,057	-0,058
-728,167	104,252	-0,037	0,031
-727,152	189,537	-0,058	0,063
-726,137	509,272	-0,048	0,080
-725,123	800,000	0,029	-0,068
-724,108	-200,000	-0,028	0,221
-723,094	407,288	-0,060	-0,092
-722,079	-73,320	-0,098	-0,026
-721,064	315,305	0,062	-0,085
-720,050	72,592	0,053	0,040
-719,035	-152,698	-0,268	-0,014
-718,021	-117,875	-0,087	0,011
-717,006	-200,000	0,019	0,073
-715,991	-200,000	-0,008	-0,141
-714,977	87,575	-0,032	-0,026
-713,962	778,333	0,025	-0,050
-712,948	800,000	-0,031	0,095
-711,933	69,994	-0,032	-0,024
-710,918	65,843	-0,051	-0,037
-709,904	-80,994	0,005	-0,001
-708,889	-157,565	0,091	0,004
-707,875	400,692	-0,060	0,092
-706,860	21,614	0,039	-0,023
-705,845	24,803	0,108	0,065
-704,831	-134,165	0,065	0,006
-703,816	618,666	0,024	0,044
-702,802	297,893	-0,047	0,063
-701,787	-200,000	-0,008	-0,037
-700,772	-200,000	-0,005	0,020
-699,758	800,000	0,034	-0,100
-698,743	-65,944	0,087	-0,025
-697,729	-28,604	-0,102	0,042
-696,714	-32,285	0,070	0,028
-695,699	-122,879	-0,060	-0,007
-694,685	232,836	-0,080	0,095
-693,670	174,415	0,040	0,042
-692,656	287,880	-0,064	0,084
-691,641	-200,000	-0,004	-0,072
-690,627	28,128	0,057	0,035
-689,612	407,260	0,033	0,051
-688,597	-90,799	-0,120	0,025
-687,583	-82,860	-0,104	0,024
-686,568	343,504	-0,113	-0,161
-685,554	573,083	-0,042	-0,075
-684,539	-172,026	0,033	-0,001
-683,524	12,498	-0,014	0,008
-682,510	-200,000	0,009	0,053
-681,495	-151,706	-0,186	0,010
-680,481	734,105	-0,011	-0,021
-679,466	5,976	0,103	-0,055
-678,451	-30,102	-0,096	0,039
-677,437	-67,923	0,055	0,015
-676,422	415,014	-0,091	-0,140
-675,408	-13,298	0,059	-0,027
-674,393	-40,722	-0,121	-0,045
-673,378	800,000	-0,043	-0,106
-672,364	-111,677	-0,106	0,015
-671,349	26,301	0,174	-0,105
-670,335	-49,205	-0,141	0,048
-669,320	-200,000	0,004	0,025
-668,305	154,410	0,071	0,070
-667,291	343,621	-0,038	-0,054
-666,276	488,233	0,051	-0,084
-665,262	341,178	-0,127	-0,180
-664,247	-16,196	0,048	-0,022
-663,232	-200,000	0,001	0,146
-662,218	-121,865	0,206	-0,024
-661,203	800,000	0,075	-0,165
-660,189	800,000	-0,044	-0,099
-659,174	800,000	0,019	-0,038
-658,159	-200,000	-0,042	-0,145
-657,145	-200,000	-0,032	-0,154
-656,130	-132,172	0,090	-0,008
-655,116	29,866	-0,076	-0,047
-654,101	635,023	0,040	0,074
-653,086	-72,551	0,113	0,030
-652,072	800,000	-0,020	-0,047
-651,057	-200,000	-0,025	-0,161
-650,043	220,630	-0,040	0,047
-649,028	800,000	0,069	0,177
-648,014	765,867	-0,018	0,037
-646,999	-200,000	-0,003	-0,238
-645,984	259,096	0,062	0,077
-644,970	-117,320	-0,139	0,018
-643,955	283,496	0,026	-0,034
-642,941	-28,064	0,099	-0,041
-641,926	-95,471	-0,112	0,021
-640,911	-200,000	0,006	0,131
-639,897	188,183	0,061	0,066
-638,882	-91,699	-0,061	0,012
-637,868	-200,000	0,036	-0,126
-636,853	275,173	-0,061	-0,078
-635,838	-200,000	-0,063	-0,230
-634,824	-43,267	0,072	0,026
-633,809	800,000	0,035	-0,091
-632,795	-143,827	0,049	-0,003
-631,780	367,490	-0,056	0,083
-630,765	68,620	0,044	0,033
-629,751	-63,507	-0,095	0,028
-628,736	-200,000	-0,027	-0,260
-627,722	138,353	-0,105	-0,100
-626,707	-200,000	0,002	0,100
-625,692	49,152	0,045	0,031
-624,678	-36,242	-0,072	-0,028
-623,663	148,225	0,061	-0,060
-622,649	180,187	-0,105	-0,112
-621,634	587,264	0,102	-0,182
-620,619	-139,123	0,099	-0,008
-619,605	-52,501	-0,072	0,024
-618,590	273,583	0,073	0,094
-617,576	284,978	-0,090	0,118
-616,561	108,978	0,034	-0,029
-615,546	-6,095	-0,108	-0,053
-614,532	-44,033	0,044	0,016
-613,517	-69,975	-0,142	-0,039
-612,503	-35,036	0,018	0,007
-611,488	-15,267	0,106	0,049
-610,474	-184,097	-0,069	-0,001
-609,459	-130,230	-0,098	0,010
-608,444	-96,602	-0,127	0,024
-607,430	35,932	-0,040	-0,025
-606,415	-25,519	-0,179	-0,076
-605,401	2,589	0,151	-0,079
-604,386	-200,000	-0,014	0,069
-603,371	-3,832	0,179	0,089
-602,357	-99,590	0,101	-0,018
-601,342	-200,000	0,007	0,089
-600,328	29,148	-0,083	-0,051
-599,313	800,000	0,019	-0,047
-598,298	37,548	-0,098	-0,062
-597,284	800,000	0,017	0,037
-596,269	136,815	-0,024	0,023
-595,255	689,781	0,049	-0,092
-594,240	-88,547	-0,229	0,049
-593,225	800,000	0,072	-0,157
-592,211	800,000	0,028	-0,059
-591,196	279,983	-0,061	0,079
-590,182	-200,000	0,019	-0,078
-589,167	297,565	-0,029	0,039
-588,152	-200,000	-0,017	-0,160
-587,138	72,221	0,070	0,053
-586,123	-200,000	-0,025	-0,235
-585,109	28,424	-0,142	-0,087
-584,094	-200,000	-0,041	-0,143
-583,079	-50,720	0,136	-0,046
-582,065	-200,000	-0,011	-0,049
-581,050	-200,000	-0,004	-0,138
-580,036	800,000	0,045	-0,112
-579,021	-200,000	-0,007	0,036
-578,006	-200,000	-0,002	0,048
-576,992	-92,813	-0,108	-0,022
-575,977	54,846	0,034	-0,024
-574,963	457,033	-0,006	0,010
-573,948	-172,001	-0,059	-0,001
-572,934	107,414	-0,073	-0,062
-571,919	44,139	-0,142	-0,094
-570,904	800,000	-0,015	0,036
-569,890	-200,000	0,000	-0,090
-568,875	159,406	0,105	-0,105
-567,861	411,517	0,064	0,098
-566,846	-200,000	-0,010	0,080
-565,831	-200,000	-0,124	-0,000
-564,817	-158,604	-0,100	-0,004
-563,802	63,216	0,039	-0,028
-562,788	-36,819	0,134	-0,052
-561,773	-22,337	-0,109	0,048
-560,758	67,930	-0,137	0,101
-559,744	-200,000	0,007	-0,042
-558,729	366,492	0,011	-0,016
-557,715	-200,000	0,007	0,049
-556,700	-67,160	0,053	0,015
-555,685	-15,196	-0,151	-0,069
-554,671	800,000	-0,019	-0,042
-553,656	15,460	0,145	-0,082
-552,642	800,000	0,021	0,049
-551,627	-190,878	0,168	0,001
-550,612	704,720	-0,057	-0,110
-549,598	-174,771	0,127	-0,003
-548,583	800,000	-0,029	-0,088
-547,569	58,011	-0,032	-0,023
-546,554	-200,000	0,001	-0,097
-545,539	89,231	-0,081	0,065
-544,525	194,571	0,077	-0,084
-543,510	157,375	-0,119	-0,119
-542,496	-120,889	0,098	-0,012
-541,481	379,739	-0,054	0,080
-540,466	-95,051	0,036	0,007
-539,452	144,276	0,074	0,071
-538,437	-86,437	-0,035	-0,008
-537,423	-200,000	0,009	0,171
-536,408	7,684	0,057	0,031
-535,393	-106,113	-0,169	0,027
-534,379	-41,575	-0,105	0,039
-533,364	-200,000	-0,019	0,128
-532,350	594,053	0,090	0,161
-531,335	-84,843	0,118	0,027
-530,321	114,323	0,012	0,011
-529,306	6,782	0,115	-0,061
-528,291	-112,672	0,024	0,003
-527,277	-88,533	0,131	0,028
-526,262	800,000	-0,022	-0,053
-525,248	389,497	0,075	-0,113
-524,233	-200,000	-0,016	0,055
-523,218	52,003	0,086	0,059
-522,204	64,489	-0,123	0,089
-521,189	800,000	0,007	-0,016
-520,175	800,000	-0,037	-0,078
-519,160	-200,000	0,027	-0,098
-518,145	167,807	0,030	0,031
-517,131	-51,627	-0,070	-0,023
-516,116	491,658	-0,039	0,064
-515,102	-111,625	-0,022	0,003
-514,087	200,278	0,087	0,096
-513,072	207,601	0,065	-0,073
-512,058	274,348	-0,052	-0,067
-511,043	800,000	-0,041	-0,116
-510,029	293,776	-0,068	0,090
-509,014	-73,105	0,051	-0,013
-507,999	-96,387	-0,071	-0,013
-506,985	800,000	-0,018	-0,044
-505,970	800,000	-0,009	-0,018
-504,956	78,658	-0,059	-0,045
-503,941	-104,744	0,126	-0,021
-502,926	-200,000	0,005	0,101
-501,912	-92,490	0,049	0,010
-500,897	-62,811	0,120	0,036
-499,883	-200,000	0,011	-0,085
-498,868	-31,450	-0,121	-0,049
-497,853	-200,000	-0,005	0,055
-496,839	-139,408	-0,093	-0,007
-495,824	-33,923	-0,162	-0,064
-494,810	800,000	0,029	0,069
-493,795	800,000	-0,010	0,029
-492,781	-200,000	-0,010	-0,041
-491,766	-200,000	0,018	0,060
-490,751	-200,000	-0,006	-0,024
-489,737	-200,000	0,012	0,166
-488,722	764,973	-0,035	-0,069
-487,708	114,737	-0,023	0,020
-486,693	-200,000	-0,017	-0,118
-485,678	-77,409	0,070	-0,017
-484,664	225,110	-0,016	-0,019
-483,649	61,489	-0,068	0,049
-482,635	-49,454	-0,054	-0,018
-481,620	-36,511	0,078	-0,030
-480,605	325,854	0,019	0,026
-479,591	93,877	0,081	0,066
-478,576	220,954	0,059	-0,068
-477,562	254,385	0,024	-0,030
-476,547	800,000	0,018	-0,054
-475,532	800,000	0,018	-0,045
-474,518	800,000	-0,056	0,137
-473,503	-19,491	0,042	0,019
-472,489	-17,078	0,132	0,059
-471,474	388,711	-0,008	-0,012
-470,459	-47,188	-0,067	0,023
-469,445	22,437	-0,107	-0,063
-468,430	-200,000	0,040	0,134
-467,416	-2,029	-0,063	0,032
-466,401	99,496	-0,080	0,066
-465,386	3,146	0,074	0,039
-464,372	-66,273	-0,151	-0,043
-463,357	139,830	-0,037	0,035
-462,343	168,418	-0,133	0,136
-461,328	-36,537	0,085	0,033
-460,313	800,000	0,020	-0,047
-459,299	-200,000	-0,000	0,063
-458,284	800,000	0,034	0,088
-457,270	354,145	-0,095	-0,136
-456,255	307,504	0,039	0,053
-455,241	-200,000	-0,012	-0,060
-454,226	640,787	0,061	-0,113
-453,211	-17,889	-0,056	-0,025
-452,197	-200,000	-0,005	-0,142
-451,182	-8,601	0,120	0,058
-450,168	800,000	-0,022	0,043
-449,153	2,182	-0,058	-0,030
-448,138	-2,604	0,091	-0,045
-447,124	-200,000	0,002	-0,155
-446,109	279,454	-0,090	-0,115
-445,095	-129,337	0,043	-0,004
-444,080	105,955	0,061	0,052
-443,065	287,990	-0,053	0,069
-442,051	-200,000	-0,009	0,051
-441,036	-66,889	-0,087	-0,025
-440,022	98,058	0,082	-0,068
-439,007	259,848	0,068	0,085
-437,992	107,537	0,099	-0,085
-436,978	86,124	0,152	-0,120
-435,963	-84,371	-0,072	-0,016
-434,949	-75,173	-0,050	-0,013
-433,934	603,385	-0,026	0,047
-432,919	800,000	0,038	-0,117
-431,905	272,669	0,062	0,078
-430,890	-27,138	0,155	-0,065
-429,876	-200,000	0,013	0,057
-428,861	-200,000	-0,001	-0,007
-427,846	-200,000	0,007	-0,029
-426,832	59,065	-0,145	-0,102
-425,817	-95,752	-0,077	0,015
-424,803	-200,000	0,024	-0,158
-423,788	-87,051	-0,102	-0,022
-422,773	800,000	-0,054	0,111
-421,759	124,811	-0,058	0,052
-420,744	725,652	-0,025	0,048
-419,730	73,527	0,004	0,003
-418,715	-173,760	0,042	0,001
-417,701	-200,000	-0,013	-0,049
-416,686	-106,288	-0,083	-0,013
-415,671	185,055	0,070	-0,074
-414,657	319,953	-0,057	-0,078
-413,642	-56,178	-0,042	0,013
-412,628	55,550	-0,122	-0,085
-411,613	28,625	-0,095	-0,057
-410,598	121,871	0,024	0,021
-409,584	-200,000	-0,000	0,121
-408,569	126,799	-0,038	0,034
-407,555	-57,242	0,094	-0,030
-406,540	-200,000	0,005	-0,055
-405,525	110,003	-0,073	-0,063
-404,511	-133,903	-0,047	-0,004
-403,496	-104,590	-0,038	0,006
-402,482	-119,006	0,092	-0,011
-401,467	-200,000	-0,009	0,071
-400,452	800,000	-0,018	0,042
-399,438	-200,000	0,004	-0,032
-398,423	152,629	0,060	-0,059
-397,409	146,183	-0,082	-0,079
-396,394	-29,184	-0,059	-0,024
-395,379	-91,610	-0,112	0,023
-394,365	43,141	0,164	0,107
-393,350	-200,000	-0,022	0,147
-392,336	86,503	0,032	0,025
-391,321	-135,378	-0,063	0,005
-390,306	-102,693	0,093	0,016
-389,292	75,484	0,073	0,055
-388,277	-200,000	-0,023	-0,076
-387,263	236,541	-0,075	0,090
-386,248	302,409	0,091	-0,121
-385,233	237,272	0,112	0,134
-384,219	-200,000	-0,007	-0,110
-383,204	-200,000	-0,004	-0,029
-382,190	-53,895	-0,046	-0,015
-381,175	800,000	0,005	0,012
-380,160	-26,718	-0,027	0,011
-379,146	-180,122	0,099	0,001
-378,131	24,013	0,043	0,026
-377,117	-200,000	-0,026	-0,090
-376,102	-200,000	-0,012	-0,046
-375,088	197,269	0,023	-0,026
-374,073	-166,284	0,065	-0,002
-373,058	53,880	0,120	-0,082
-372,044	-200,000	-0,002	0,075
-371,029	-133,879	-0,102	0,009
-370,015	-200,000	0,003	-0,097
-369,000	250,557	-0,030	-0,036
-367,985	-118,194	-0,042	-0,005
-366,971	50,782	-0,036	0,024
-365,956	-4,171	0,056	0,027
-364,942	212,883	0,050	0,057
-363,927	800,000	-0,025	0,057
-362,912	387,116	-0,100	-0,149
-361,898	-60,407	-0,116	-0,035
-360,883	800,000	-0,032	-0,090
-359,869	-16,186	0,111	-0,050
-358,854	-200,000	0,014	0,057
-357,839	800,000	0,013	0,030
-356,825	479,167	-0,027	0,045
-355,810	800,000	-0,047	0,110
-354,796	-200,000	-0,018	0,061
-353,781	-19,367	-0,147	-0,065
-352,766	-200,000	0,011	-0,102
-351,752	-200,000	0,020	0,159
-350,737	-152,572	0,123	0,006
-349,723	-200,000	0,022	-0,077
-348,708	-200,000	0,001	-0,055
-347,693	-200,000	0,007	0,181
-346,679	-82,971	-0,083	-0,019
-345,664	19,639	-0,062	0,036
-344,650	401,761	-0,069	0,103
-343,635	-3,582	0,038	0,019
-342,620	-42,637	0,089	0,032
-341,606	659,884	0,017	0,032
-340,591	171,235	-0,022	-0,022
-339,577	-16,853	-0,094	-0,042
-338,562	77,129	0,091	0,069
-337,548	800,000	-0,025	-0,064
-336,533	-6,223	-0,036	0,018
-335,518	-200,000	-0,003	-0,040
-334,504	59,808	0,099	-0,070
-333,489	248,813	-0,074	0,090
-332,475	-200,000	-0,024	0,091
-331,460	-144,580	-0,096	-0,006
-330,445	800,000	0,077	-0,184
-329,431	-73,005	-0,080	-0,021
-328,416	-170,172	0,137	-0,003
-327,402	-200,000	0,015	0,054
-326,387	142,919	0,034	0,032
-325,372	158,782	-0,051	0,051
-324,358	-200,000	0,039	0,130
-323,343	-200,000	-0,015	0,129
-322,329	-43,582	0,213	0,076
-321,314	529,353	0,054	0,092
-320,299	9,078	-0,068	0,036
-319,285	-9,112	0,064	0,031
-318,270	229,053	0,031	0,036
-317,256	-77,638	0,097	0,024
-316,241	-66,143	-0,112	-0,032
-315,226	800,000	-0,052	0,164
-314,212	39,870	0,116	0,074
-313,197	177,353	-0,098	0,102
-312,183	148,389	-0,024	-0,023
-311,168	-200,000	0,013	0,058
-310,153	54,897	-0,139	-0,096
-309,139	-28,014	0,024	0,010
-308,124	-104,463	-0,012	-0,002
-307,110	71,342	0,102	-0,076
-306,095	67,764	-0,070	0,051
-305,080	-90,121	0,073	0,015
-304,066	752,961	-0,017	-0,033
-303,051	-200,000	0,016	-0,117
-302,037	-51,945	-0,155	0,051
-301,022	-94,448	-0,077	0,015
-300,008	800,000	-0,027	0,067
-298,993	141,518	-0,132	0,125
-297,978	305,049	-0,038	-0,051
-296,964	36,253	0,066	-0,041
-295,949	644,257	-0,049	-0,090
-294,935	-200,000	-0,006	-0,052
-293,920	289,805	0,060	0,078
-292,905	348,617	-0,044	-0,063
-291,891	800,000	0,040	-0,085
-290,876	-137,708	0,096	0,008
-289,862	-200,000	-0,005	0,086
-288,847	800,000	0,039	-0,096
-287,832	554,355	0,027	-0,047
-286,818	-200,000	0,051	0,190
-285,803	147,361	-0,004	-0,004
-284,789	25,943	0,028	0,016
-283,774	-200,000	0,006	-0,066
-282,759	75,956	0,090	0,068
-281,745	-200,000	0,012	-0,076
-280,730	-151,404	-0,147	0,008
-279,716	-200,000	0,011	0,166
-278,701	-71,137	0,039	0,010
-277,686	-80,726	0,124	0,029
-276,672	800,000	0,074	0,163
-275,657	-0,318	0,078	0,039
-274,643	-76,166	-0,069	-0,017
-273,628	305,444	-0,052	0,069
-272,613	800,000	-0,054	0,143
-271,599	525,419	0,085	0,143
-270,584	497,311	0,016	-0,026
-269,570	28,178	0,060	0,036
-268,555	-123,339	-0,109	0,012
-267,540	-8,984	0,058	-0,028
-266,526	-200,000	-0,025	-0,137
-265,511	-5,125	0,034	0,017
-264,497	102,373	0,061	-0,051
-263,482	746,508	0,055	0,106
-262,467	-117,421	-0,079	0,010
-261,453	-165,923	-0,139	0,004
-260,438	-7,233	-0,050	0,024
-259,424	-200,000	-0,019	0,150
-258,409	-200,000	0,003	-0,080
-257,395	-96,967	0,180	-0,033
-256,380	-94,470	0,090	0,017
-255,365	-48,901	-0,102	-0,035
-254,351	-16,561	0,069	0,031
-253,336	112,515	0,015	-0,013
-252,322	-170,094	-0,061	0,002
-251,307	-151,158	0,034	0,002
-250,292	-200,000	0,026	0,090
-249,278	-96,012	0,116	-0,022
-248,263	0,392	0,153	0,078
-247,249	375,201	0,079	0,116
-246,234	-200,000	0,025	-0,132
-245,219	-200,000	0,026	-0,106
-244,205	800,000	-0,022	-0,067
-243,190	16,326	0,055	0,031
-242,176	-200,000	0,012	0,124
-241,161	-72,819	0,104	-0,027
-240,146	-200,000	-0,002	-0,155
-239,132	9,900	-0,110	0,059
-238,117	233,737	0,007	-0,009
-237,103	-200,000	0,003	-0,130
-236,088	800,000	-0,025	-0,058
-235,073	-75,481	-0,062	0,016
-234,059	-90,952	0,094	-0,019
-233,044	-62,947	0,075	-0,022
-232,030	204,532	0,029	0,032
-231,015	9,870	-0,128	-0,069
-230,000	800,000	-0,015	-0,030
-228,986	95,044	0,028	-0,022
-227,971	519,851	-0,061	0,102
-226,957	800,000	0,048	0,115
-225,942	44,135	0,028	-0,018
-224,927	800,000	-0,060	0,126
-223,913	208,067	-0,037	0,041
-222,898	-200,000	0,009	-0,087
-221,884	151,250	-0,011	-0,010
-220,869	-154,711	-0,087	-0,004
-219,855	362,174	-0,099	0,142
-218,840	-130,254	0,253	0,024
-217,825	-200,000	-0,001	-0,038
-216,811	-200,000	0,031	-0,108
-215,796	112,413	-0,078	0,068
-214,782	-200,000	-0,013	0,055
-213,767	41,514	0,079	-0,051
-212,752	-12,685	0,125	-0,058
-211,738	-80,396	0,070	0,017
-210,723	38,326	-0,076	0,048
-209,709	258,384	-0,039	-0,048
-208,694	434,224	0,037	0,057
-207,679	195,875	-0,024	-0,026
-206,665	103,470	0,123	0,103
-205,650	274,808	-0,051	0,064
-204,636	118,604	0,075	-0,066
-203,621	-200,000	0,004	-0,083
-202,606	-120,848	0,058	0,007
-201,592	539,739	-0,010	-0,017
-200,577	109,490	-0,114	0,097
-199,563	160,604	-0,018	-0,018
-198,548	427,204	0,047	0,073
-197,533	161,784	-0,035	-0,035
-196,519	396,012	-0,047	0,070
-195,504	-200,000	-0,015	-0,054
-194,490	800,000	-0,021	0,042
-193,475	280,910	0,038	0,048
-192,460	83,804	-0,076	-0,059
-191,446	-200,000	-0,013	0,059
-190,431	540,302	0,137	0,233
-189,417	-24,178	-0,071	-0,030
-188,402	-200,000	0,023	-0,098
-187,387	800,000	-0,012	-0,032
-186,373	355,923	0,077	0,109
-185,358	-85,623	0,116	0,025
-184,344	-200,000	0,005	0,198
-183,329	800,000	0,034	0,073
-182,315	299,134	0,074	-0,097
-181,300	-200,000	0,069	-0,222
-180,285	-3,163	-0,082	0,041
-179,271	800,000	0,038	0,074
-178,256	-200,000	0,001	0,007
-177,242	800,000	0,026	0,071
-176,227	-200,000	0,001	-0,005
-175,212	32,402	0,043	0,026
-174,198	-200,000	-0,033	-0,133
-173,183	4,304	0,019	-0,010
-172,169	-44,940	-0,133	-0,047
-171,154	110,680	0,099	0,084
-170,139	-200,000	0,017	0,059
-169,125	61,012	0,040	0,028
-168,110	72,312	0,057	0,042
-167,096	-200,000	-0,027	-0,088
-166,081	297,213	-0,072	0,094
-165,066	236,752	-0,078	0,092
-164,052	800,000	0,013	-0,038
-163,037	800,000	0,073	-0,162
-162,023	-200,000	0,001	-0,131
-161,008	-200,000	0,009	0,144
-159,993	-117,506	0,127	0,016
-158,979	-88,958	0,061	0,013
-157,964	-3,161	-0,162	-0,080
-156,950	67,461	-0,105	0,076
-155,935	-200,000	0,013	0,115
-154,920	445,038	-0,031	-0,048
-153,906	-92,783	-0,089	-0,018
-152,891	389,802	0,070	0,103
-151,877	203,542	-0,069	0,076
-150,862	-131,005	-0,031	-0,003
-149,847	800,000	0,040	-0,116
-148,833	-193,194	0,090	0,001
-147,818	95,598	0,080	0,065
-146,804	19,787	-0,032	-0,018
-145,789	-200,000	0,017	-0,102
-144,775	-154,884	-0,049	-0,002
-143,760	238,920	-0,077	-0,091
-142,745	-60,887	0,119	-0,035
-141,731	-200,000	0,024	0,123
-140,716	-130,735	0,023	0,002
-139,702	-200,000	0,015	0,083
-138,687	400,718	0,110	-0,165
-137,672	99,978	0,028	-0,023
-136,658	53,052	-0,177	0,120
-135,643	159,000	-0,029	0,029
-134,629	483,084	-0,019	-0,031
-133,614	800,000	-0,044	0,132
-132,599	-124,141	0,076	-0,008
-131,585	323,264	0,024	-0,033
-130,570	259,335	-0,088	-0,107
-129,556	46,841	-0,037	-0,024
-128,541	507,191	-0,050	-0,083
-127,526	1,291	-0,013	-0,007
-126,512	429,217	0,022	0,034
-125,497	89,646	-0,067	0,053
-124,483	-82,424	-0,061	-0,014
-123,468	-132,352	-0,063	0,006
-122,453	-200,000	0,037	-0,116
-121,439	169,880	0,120	-0,121
-120,424	-78,600	0,041	-0,010
-119,410	768,078	-0,054	0,104
-118,395	800,000	-0,028	-0,085
-117,380	230,082	0,032	-0,038
-116,366	244,646	-0,011	-0,013
-115,351	352,802	-0,046	-0,065
-114,337	64,065	-0,170	-0,121
-113,322	-120,941	-0,170	-0,020
-112,307	-82,501	0,100	-0,023
-111,293	-15,733	-0,026	0,012
-110,278	-200,000	-0,032	0,178
-109,264	800,000	-0,063	0,161
-108,249	46,000	0,115	-0,075
-107,234	800,000	0,011	-0,024
-106,220	-200,000	0,033	-0,142
-105,205	85,522	0,083	-0,065
-104,191	303,933	0,007	0,009
-103,176	-100,146	-0,112	-0,019
-102,162	222,754	-0,034	0,039
-101,147	-177,486	-0,067	0,001
-100,132	244,552	0,060	-0,072
-99,118	800,000	-0,005	-0,011
-98,103	145,475	-0,025	0,024
-97,089	-200,000	-0,022	0,120
-96,074	-200,000	-0,020	0,072
-95,059	-65,736	0,034	0,010
-94,045	-200,000	-0,014	-0,066
-93,030	-85,370	0,052	0,012
-92,016	-31,485	-0,071	0,028
-91,001	-200,000	-0,001	0,033
-89,986	334,579	-0,059	-0,081
-88,972	-25,819	0,109	0,045
-87,957	18,911	0,068	-0,039
-86,943	-66,157	-0,060	-0,017
-85,928	-200,000	0,016	0,070
-84,913	-200,000	-0,032	0,105
-83,899	-75,522	0,044	0,011
-82,884	758,560	-0,048	-0,093
-81,870	-200,000	-0,013	0,053
-80,855	266,868	-0,109	0,136
-79,840	129,015	-0,100	-0,090
-78,826	104,902	0,013	-0,011
-77,811	421,941	-0,068	-0,104
-76,797	53,063	-0,041	0,028
-75,782	15,562	0,069	0,038
-74,767	729,257	0,037	-0,071
-73,753	800,000	-0,042	-0,085
-72,738	112,908	0,083	-0,071
-71,724	608,139	0,047	-0,083
-70,709	-200,000	-0,006	0,018
-69,694	61,973	-0,050	0,036
-68,680	404,787	0,077	0,115
-67,665	-66,421	0,087	0,024
-66,651	137,342	-0,030	0,028
-65,636	-200,000	0,028	0,118
-64,622	341,506	0,037	0,052
-63,607	408,369	-0,078	-0,117
-62,592	122,904	0,030	-0,026
-61,578	-92,070	0,085	-0,017
-60,563	-105,431	0,036	0,006
-59,549	-200,000	-0,041	0,149
-58,534	69,518	-2,489	-1,812
-57,519	217,442	0,303	-0,342
-56,505	-200,000	-1,681	-5,368
-55,490	287,619	1,143	1,466
-54,476	800,000	5,447	12,079
-53,461	-200,000	21,388	345,873
-52,446	800,000	764,937	2339,773
-51,432	534,278	1664,600	2801,546
-50,417	69,764	1672,880	1218,489
-49,403	16,146	1592,466	885,592
-48,388	10,836	1545,477	832,142
-47,373	18,775	1539,053	869,223
-46,359	14,327	1527,790	840,298
-45,344	9,402	1523,625	812,993
-44,330	9,297	1521,964	811,540
-43,315	9,254	1520,058	810,271
-42,300	9,254	1518,505	809,415
-41,286	9,226	1516,830	808,344
-40,271	9,241	1515,487	807,676
-39,257	9,277	1513,661	806,852
-38,242	9,268	1512,410	806,108
-37,227	9,240	1511,272	805,329
-36,213	9,192	1509,835	804,289
-35,198	9,246	1508,460	803,794
-34,184	9,287	1507,138	803,263
-33,169	9,259	1505,758	802,357
-32,154	9,300	1504,215	801,708
-31,140	9,293	1502,887	800,933
-30,125	9,310	1501,406	800,196
-29,111	9,295	1500,415	799,561
-28,096	9,275	1499,344	798,861
-27,082	9,332	1498,223	798,518
-26,067	9,258	1496,938	797,428
-25,052	9,256	1495,896	796,833
-24,038	9,194	1494,822	795,924
-23,023	9,193	1493,877	795,383
-22,009	9,245	1492,837	795,056
-20,994	9,257	1491,831	794,548
-19,979	9,269	1490,723	793,987
-18,965	9,257	1489,670	793,334
-17,950	9,287	1488,677	792,923
-16,936	9,213	1487,958	792,143
-15,921	9,193	1486,553	791,260
-14,906	9,169	1485,376	790,483
-13,892	9,119	1484,260	789,612
-12,877	9,101	1483,579	789,132
-11,863	9,109	1482,430	788,527
-10,848	9,129	1481,541	788,120
-9,833	9,207	1480,761	788,061
-8,819	9,204	1479,648	787,423
-7,804	9,137	1478,596	786,502
-6,790	9,130	1478,160	786,201
-5,775	9,184	1477,097	785,872
-4,760	9,167	1476,148	785,255
-3,746	9,120	1475,068	784,416
-2,731	9,007	1473,698	783,103
-1,717	8,955	1472,805	782,340
-0,702	9,022	1471,903	782,159
0,313	8,840	1470,717	781,818
1,327	12,490	1468,032	798,174
2,342	21,621	1228,808	705,209
3,356	17,585	689,821	386,652
4,371	-10,210	466,133	217,886
5,386	-13,538	438,599	200,069
6,400	-14,638	429,728	194,409
7,415	-14,400	426,328	193,195
8,429	-15,801	423,400	189,847
9,444	-15,920	422,021	189,043
10,459	-16,069	420,625	188,188
11,473	-16,188	419,772	187,621
12,488	-16,247	418,673	187,030
13,502	-16,314	417,968	186,603
14,517	-16,514	417,124	185,928
15,531	-16,727	416,378	185,279
16,546	-16,944	415,599	184,611
17,561	-16,879	415,228	184,522
18,575	-16,812	414,456	184,256
19,590	-16,986	414,075	183,827
20,604	-16,786	413,427	183,801
21,619	-16,966	413,027	183,356
22,634	-17,053	412,427	182,954
23,648	-17,119	411,886	182,605
24,663	-17,016	411,392	182,512
25,677	-17,025	411,097	182,353
26,692	-16,916	410,696	182,310
27,707	-17,082	410,215	181,851
28,721	-16,960	409,725	181,786
29,736	-17,084	409,186	181,359
30,750	-17,045	408,882	181,261
31,765	-17,030	408,369	181,039
32,780	-16,996	408,171	180,981
33,794	-16,950	407,575	180,765
34,809	-16,989	407,177	180,519
35,823	-17,205	406,852	180,062
36,838	-16,986	406,354	180,125
37,853	-17,136	406,103	179,792
38,867	-17,222	405,801	179,525
39,882	-17,122	405,168	179,367
40,896	-17,125	404,890	179,223
41,911	-17,083	404,530	179,105
42,926	-17,090	404,050	178,867
43,940	-17,135	403,695	178,632
44,955	-17,099	403,369	178,522
45,969	-17,244	403,040	178,163
46,984	-17,205	402,702	178,050
47,999	-17,317	402,301	177,705
49,013	-17,271	401,781	177,522
50,028	-17,399	401,446	177,185
51,042	-17,329	401,105	177,114
52,057	-17,577	400,673	176,572
53,071	-17,378	400,312	176,665
54,086	-17,387	400,043	176,519
55,101	-17,143	399,876	176,759
56,115	-17,121	399,638	176,667
57,130	-16,762	399,281	176,976
58,144	-16,730	399,016	176,886
59,159	-16,700	398,659	176,752
60,174	-16,744	398,280	176,509
61,188	-16,670	397,684	176,327
62,203	-16,765	397,541	176,122
63,217	-16,863	397,158	175,805
64,232	-16,796	396,804	175,723
65,247	-16,755	396,553	175,651
66,261	-16,733	396,069	175,450
67,276	-17,020	395,550	174,823
68,290	-17,236	395,323	174,419
69,305	-17,097	394,930	174,415
70,320	-17,097	394,646	174,274
71,334	-17,058	394,419	174,210
72,349	-16,850	394,138	174,346
73,363	-16,663	393,966	174,502
74,378	-16,742	393,552	174,199
75,393	-16,773	392,993	173,895
76,407	-16,966	392,779	173,530
77,422	-16,842	392,399	173,509
78,436	-16,767	392,017	173,425
79,451	-16,767	391,814	173,319
80,466	-16,935	391,204	172,813
81,480	-17,019	390,917	172,561
82,495	-17,154	390,649	172,249
83,509	-16,946	390,416	172,404
84,524	-16,985	389,824	172,077
85,539	-17,225	389,695	171,690
86,553	-17,111	389,214	171,612
87,568	-17,057	389,138	171,633
88,582	-16,936	388,838	171,644
89,597	-17,156	388,541	171,211
90,611	-16,948	388,329	171,373
91,626	-16,749	387,802	171,384
92,641	-16,865	387,595	171,127
93,655	-16,929	387,178	170,843
94,670	-17,093	387,044	170,556
95,684	-17,039	386,665	170,444
96,699	-16,980	386,379	170,380
97,714	-17,052	386,161	170,176
98,728	-16,960	385,670	170,063
99,743	-17,024	385,294	169,799
100,757	-17,141	385,093	169,544
101,772	-17,038	384,866	169,562
102,787	-16,962	384,580	169,519
103,801	-16,915	384,340	169,459
104,816	-16,791	383,791	169,361
105,830	-16,638	383,629	169,471
106,845	-16,687	383,376	169,281
107,860	-16,825	383,201	169,012
108,874	-16,816	382,689	168,783
109,889	-16,753	382,487	168,759
110,903	-16,840	382,130	168,475
111,918	-16,810	381,917	168,404
112,933	-16,726	381,603	168,358
113,947	-16,786	381,398	168,177
114,962	-16,726	381,006	168,064
115,976	-16,784	380,818	167,894
116,991	-16,825	380,372	167,629
118,006	-16,833	380,286	167,566
119,020	-16,772	379,947	167,479
120,035	-16,800	379,826	167,375
121,049	-16,740	379,463	167,277
122,064	-16,593	379,148	167,310
123,079	-16,726	378,908	167,021
124,093	-16,799	378,502	166,734
125,108	-16,972	378,093	166,320
126,122	-17,144	377,765	165,943
127,137	-17,230	377,390	165,655
128,151	-17,062	377,064	165,709
129,166	-16,926	377,013	165,843
130,181	-16,910	376,545	165,642
131,195	-16,971	376,130	165,369
132,210	-16,685	375,930	165,626
133,224	-16,619	375,754	165,616
134,239	-16,774	375,599	165,339
135,254	-16,560	375,309	165,465
136,268	-16,782	374,854	164,972
137,283	-16,980	374,453	164,533
138,297	-16,995	374,169	164,373
139,312	-16,980	373,836	164,232
140,327	-16,781	373,689	164,402
141,341	-16,602	373,497	164,525
142,356	-16,526	373,334	164,533
143,370	-16,400	373,081	164,565
144,385	-16,311	372,547	164,424
145,400	-16,538	372,468	164,093
146,414	-16,476	372,103	163,994
147,429	-16,691	371,830	163,593
148,443	-16,558	371,538	163,615
149,458	-16,636	371,351	163,421
150,473	-16,573	370,999	163,330
151,487	-16,490	370,770	163,317
152,502	-16,435	370,430	163,221
153,516	-16,617	370,277	162,914
154,531	-16,476	369,895	162,906
155,546	-16,489	369,713	162,794
156,560	-16,549	369,334	162,539
157,575	-16,490	369,136	162,511
158,589	-16,425	368,894	162,469
159,604	-16,334	368,606	162,440
160,619	-16,500	368,230	162,056
161,633	-16,578	368,001	161,844
162,648	-16,408	367,789	161,946
163,662	-16,495	367,511	161,702
164,677	-16,453	367,438	161,707
165,692	-16,434	367,085	161,561
166,706	-16,426	366,804	161,432
167,721	-16,395	366,583	161,358
168,735	-16,333	366,378	161,329
169,750	-16,357	366,085	161,157
170,764	-16,377	366,031	161,095
171,779	-16,391	365,816	160,968
172,794	-16,424	365,513	160,781
173,808	-16,519	365,088	160,463
174,823	-16,682	364,752	160,104
175,837	-16,858	364,376	159,711
176,852	-16,552	364,380	160,069
177,867	-16,406	364,148	160,131
178,881	-16,409	364,015	160,054
179,896	-16,376	363,705	159,944
180,910	-16,375	363,314	159,758
181,925	-16,356	363,094	159,670
182,940	-16,257	362,987	159,729
183,954	-16,280	362,676	159,550
184,969	-16,315	362,270	159,315
185,983	-16,415	362,185	159,143
186,998	-16,276	361,950	159,192
188,013	-16,211	361,636	159,119
189,027	-16,265	361,377	158,925
190,042	-16,328	360,955	158,650
191,056	-16,078	360,787	158,863
192,071	-16,131	360,517	158,666
193,086	-16,140	360,435	158,604
194,100	-15,538	360,505	159,343
195,115	-14,727	360,527	160,309
196,129	-13,748	361,091	161,721
197,144	-9,838	363,031	167,288
198,159	-6,486	364,447	171,975
199,173	-3,720	365,585	175,844
200,188	-3,280	365,572	176,354
201,202	-3,139	365,301	176,378
202,217	-3,070	365,335	176,462
203,232	-2,870	365,057	176,553
204,246	-2,728	364,815	176,591
205,261	-2,361	364,591	176,909
206,275	-2,298	364,773	177,058
207,290	-2,340	364,254	176,740
208,304	-2,545	363,884	176,299
209,319	-2,517	363,590	176,174
210,334	-2,583	363,408	175,991
211,348	-2,603	363,216	175,858
212,363	-2,460	362,975	175,897
213,377	-2,286	362,653	175,933
214,392	-2,366	362,579	175,786
215,407	-2,263	362,468	175,840
216,421	-1,998	362,160	175,992
217,436	-2,096	361,848	175,707
218,450	-2,374	361,586	175,233
219,465	-2,358	361,305	175,100
220,480	-2,502	361,088	174,807
221,494	-2,346	360,888	174,880
222,509	-2,085	360,743	175,105
223,523	-2,139	360,478	174,897
224,538	-2,225	360,135	174,613
225,553	-2,276	360,052	174,497
226,567	-2,204	359,811	174,450
227,582	-1,889	359,599	174,704
228,596	-1,944	359,504	174,577
229,611	-1,975	359,072	174,315
230,626	-2,328	358,730	173,717
231,640	-2,248	358,567	173,717
232,655	-2,028	358,366	173,864
233,669	-1,939	358,324	173,933
234,684	-1,814	358,106	173,959
235,699	-2,009	357,777	173,554
236,713	-2,361	357,387	172,935
237,728	-2,190	356,959	172,913
238,742	-2,445	356,889	172,564
239,757	-2,406	356,623	172,467
240,772	-2,210	356,243	172,497
241,786	-2,360	356,197	172,283
242,801	-2,165	355,872	172,340
243,815	-2,099	355,802	172,368
244,830	-2,220	355,497	172,063
245,844	-2,254	355,144	171,837
246,859	-2,282	354,962	171,701
247,874	-2,108	354,889	171,854
248,888	-2,127	354,543	171,648
249,903	-2,089	354,417	171,616
250,917	-2,191	354,096	171,327
251,932	-2,091	353,989	171,376
252,947	-2,215	353,600	171,028
253,961	-2,154	353,453	171,013
254,976	-2,207	353,021	170,727
255,990	-2,222	352,938	170,654
257,005	-2,136	352,754	170,650
258,020	-2,194	352,642	170,513
259,034	-2,142	352,298	170,392
260,049	-2,033	351,955	170,336
261,063	-2,208	351,785	170,037
262,078	-2,186	351,777	170,044
263,093	-1,819	351,486	170,311
264,107	-1,846	351,181	170,117
265,122	-2,103	350,923	169,681
266,136	-2,063	350,739	169,623
267,151	-1,948	350,503	169,626
268,166	-2,164	350,144	169,189
269,180	-2,348	349,956	168,871
270,195	-2,140	349,703	168,974
271,209	-2,132	349,423	168,832
272,224	-2,105	349,235	168,757
273,239	-2,142	349,125	168,646
274,253	-2,119	348,849	168,524
275,268	-2,206	348,511	168,246
276,282	-2,182	348,522	168,264
277,297	-2,195	348,257	168,107
278,312	-2,081	347,923	168,061
279,326	-2,127	347,713	167,892
280,341	-2,127	347,553	167,800
281,355	-2,120	347,260	167,651
282,370	-2,014	347,073	167,666
283,384	-2,135	346,864	167,412
284,399	-2,109	346,483	167,243
285,414	-2,361	346,374	166,890
286,428	-2,028	346,228	167,182
287,443	-1,987	346,105	167,155
288,457	-1,687	345,835	167,350
289,472	-2,016	345,384	166,744
290,487	-2,159	345,250	166,502
291,501	-2,227	344,928	166,255
292,516	-2,163	344,816	166,259
293,530	-2,003	344,398	166,223
294,545	-2,128	344,452	166,093
295,560	-2,100	344,280	166,027
296,574	-1,990	343,992	165,998
297,589	-2,078	343,818	165,799
298,603	-2,072	343,507	165,641
299,618	-2,014	343,277	165,581
300,633	-1,839	343,029	165,643
301,647	-2,025	342,971	165,392
302,662	-1,917	342,783	165,407
303,676	-1,905	342,430	165,236
304,691	-1,829	342,292	165,240
305,706	-1,972	341,872	164,862
306,720	-1,903	341,795	164,887
307,735	-2,024	341,703	164,693
308,749	-1,835	341,296	164,694
309,764	-1,901	341,217	164,567
310,779	-1,864	340,841	164,412
311,793	-1,911	340,596	164,227
312,808	-1,924	340,545	164,173
313,822	-2,011	340,170	163,881
314,837	-1,994	339,980	163,794
315,852	-1,937	339,737	163,726
316,866	-1,783	339,579	163,805
317,881	-1,982	339,463	163,514
318,895	-1,812	339,211	163,567
319,910	-1,935	338,975	163,301
320,925	-2,044	338,785	163,075
321,939	-1,879	338,464	163,089
322,954	-1,756	338,370	163,164
323,968	-1,758	338,222	163,077
324,983	-1,580	337,898	163,103
325,997	-1,658	337,682	162,897
327,012	-1,609	337,475	162,837
328,027	-1,579	337,225	162,735
329,041	-1,540	337,199	162,751
330,056	-1,524	336,897	162,608
331,070	-1,782	336,715	162,222
332,085	-1,798	336,264	161,972
333,100	-1,710	336,169	162,009
334,114	-1,624	335,838	161,930
335,129	-1,820	335,781	161,673
336,143	-1,915	335,620	161,477
337,158	-1,814	335,290	161,414
338,173	-1,729	335,008	161,357
339,187	-1,696	334,814	161,286
340,202	-1,704	334,536	161,128
341,216	-1,729	334,395	161,018
342,231	-1,893	334,352	160,805
343,246	-1,904	333,979	160,600
344,260	-1,779	333,675	160,574
345,275	-1,750	333,531	160,522
346,289	-1,806	333,372	160,371
347,304	-1,725	333,097	160,312
348,319	-1,817	332,871	160,089
349,333	-1,837	332,901	160,068
350,348	-1,548	332,594	160,219
351,362	-1,497	332,488	160,209
352,377	-1,536	332,128	159,979
353,392	-1,502	331,916	159,899
354,406	-1,579	331,756	159,725
355,421	197,033	1325,757	1387,374
356,435	161,302	1446,696	1387,223
