DTS Sentinel unit serial number:	SN410029Multiplexer serial number:	ORYXHardware model number:	OX2-SRSoftware version number:	ORYX F/W v4,00 Oryx Data Collector v3.7.2.0data status	okinstallation	B6 Nyhavnadifferential loss correction	single-endedforward channel	channel 2reverse channel	N/Adate	2023/12/09time	01:55:08forward acquisition time	300,00reverse acquisition time	0,00gamma	499,1914k internal	0,3156k external	0,3156temperature offset calibration	1,0000default loss term (dB/km)	0,3820temperature slope calibration	1,0000multiplexer offset coefficient	1,0000multiplexer slope coefficient	1,0000fibre end	0,00T internal ref (°C)	15,87T ext. ref 1 (°C)	-0,43T ext. ref 2 (°C)	-0,44length (m)	temperature (°C)	Stokes	anti-Stokes-744,400	-200,000	-0,001	0,023
-743,385	100,971	-0,219	-0,188
-742,371	-107,850	0,385	-0,061
-741,356	-108,844	-0,288	0,045
-740,342	-179,730	0,182	0,003
-739,327	-176,069	-0,270	0,005
-738,312	-200,000	0,014	-0,081
-737,298	-128,963	-0,277	0,028
-736,283	80,476	0,117	0,093
-735,269	-150,090	-0,355	0,020
-734,254	116,985	0,043	-0,039
-733,239	0,889	-0,403	-0,212
-732,225	-135,662	0,197	0,017
-731,210	-2,007	-0,138	0,071
-730,196	-125,596	-0,145	-0,016
-729,181	16,114	-0,044	0,026
-728,167	-200,000	-0,008	0,080
-727,152	800,000	-0,024	0,054
-726,137	20,956	-0,090	-0,054
-725,123	-16,456	-0,177	-0,082
-724,108	-71,351	-0,128	-0,035
-723,094	-3,710	-0,058	-0,030
-722,079	241,344	0,038	-0,047
-721,064	184,592	-0,083	-0,090
-720,050	-15,699	-0,067	0,031
-719,035	-114,664	-0,128	0,018
-718,021	301,859	-0,043	-0,058
-717,006	120,876	-0,092	0,085
-715,991	98,109	-0,049	0,041
-714,977	215,918	-0,076	-0,089
-713,962	800,000	-0,070	-0,145
-712,948	76,783	0,011	-0,008
-711,933	-57,707	-0,007	0,002
-710,918	-151,796	-0,092	-0,005
-709,904	-69,554	-0,103	0,029
-708,889	-200,000	-0,023	0,077
-707,875	646,399	-0,037	-0,071
-706,860	-99,205	0,126	0,023
-705,845	-78,743	0,085	-0,021
-704,831	-200,000	0,004	-0,019
-703,816	10,040	0,028	-0,015
-702,802	6,196	-0,057	0,031
-701,787	48,369	-0,185	-0,127
-700,772	-28,021	0,111	0,047
-699,758	-128,766	0,178	0,018
-698,743	121,848	-0,153	0,141
-697,729	-200,000	0,025	0,176
-696,714	-200,000	0,014	0,085
-695,699	70,543	-0,046	-0,035
-694,685	-46,655	-0,120	-0,043
-693,670	49,388	-0,054	0,037
-692,656	-17,236	-0,063	0,029
-691,641	270,447	0,077	0,100
-690,627	42,424	-0,089	0,059
-689,612	273,611	-0,018	-0,024
-688,597	565,654	-0,028	0,050
-687,583	-200,000	-0,021	-0,129
-686,568	-90,750	-0,137	0,029
-685,554	42,648	-0,041	-0,027
-684,539	-200,000	0,001	0,052
-683,524	-22,053	-0,087	0,039
-682,510	800,000	0,048	-0,129
-681,495	-69,788	0,033	-0,009
-680,481	410,150	-0,064	-0,099
-679,466	661,774	0,059	-0,113
-678,451	-127,956	-0,105	0,011
-677,437	630,477	0,032	-0,059
-676,422	-27,167	-0,035	0,015
-675,408	70,098	-0,054	-0,041
-674,393	-200,000	-0,022	0,108
-673,378	20,538	-0,187	-0,111
-672,364	800,000	0,016	0,033
-671,349	-38,400	-0,189	-0,073
-670,335	-18,977	0,109	-0,050
-669,320	57,627	0,102	-0,073
-668,305	527,393	0,012	-0,022
-667,291	48,740	-0,082	0,057
-666,276	-200,000	0,014	-0,111
-665,262	217,351	-0,026	-0,031
-664,247	-29,780	-0,120	-0,050
-663,232	79,968	0,086	-0,068
-662,218	192,971	0,058	0,064
-661,203	-172,929	-0,052	-0,001
-660,189	-39,360	-0,154	-0,059
-659,174	276,696	-0,045	-0,058
-658,159	18,593	-0,127	-0,074
-657,145	800,000	-0,065	-0,174
-656,130	7,123	-0,072	0,039
-655,116	-61,047	0,075	-0,023
-654,101	83,957	0,031	0,025
-653,086	25,807	0,072	0,044
-652,072	-145,419	-0,124	0,008
-651,057	-105,645	-0,048	-0,008
-650,043	317,949	0,036	-0,050
-649,028	-66,890	-0,078	0,023
-648,014	261,219	0,086	0,109
-646,999	20,475	-0,050	-0,030
-645,984	78,320	-0,101	0,079
-644,970	800,000	0,016	0,047
-643,955	-184,738	-0,043	0,000
-642,941	176,419	-0,161	-0,173
-641,926	-57,916	-0,074	0,023
-640,911	354,759	0,039	-0,057
-639,897	-86,908	0,157	0,035
-638,882	17,355	-0,024	0,014
-637,868	800,000	-0,063	0,156
-636,853	800,000	-0,037	-0,102
-635,838	-200,000	-0,036	-0,125
-634,824	-200,000	0,044	0,000
-633,809	-86,221	-0,032	0,007
-632,795	-106,008	-0,030	0,005
-631,780	-33,805	0,041	0,016
-630,765	148,942	-0,154	0,153
-629,751	182,257	-0,063	0,068
-628,736	800,000	-0,018	0,040
-627,722	261,124	0,025	0,032
-626,707	800,000	0,032	0,091
-625,692	-77,392	0,155	0,039
-624,678	15,026	-0,150	-0,086
-623,663	-100,250	0,114	-0,021
-622,649	-29,490	-0,091	-0,038
-621,634	800,000	-0,034	0,078
-620,619	254,830	-0,031	0,039
-619,605	37,006	0,121	0,078
-618,590	800,000	0,049	0,121
-617,576	-36,753	0,161	0,063
-616,561	-2,791	0,115	0,059
-615,546	-200,000	0,012	-0,052
-614,532	169,821	-0,105	-0,111
-613,517	-29,289	-0,028	-0,012
-612,503	800,000	-0,035	-0,095
-611,488	57,150	0,039	-0,028
-610,474	1,138	0,096	-0,051
-609,459	-70,508	0,089	-0,025
-608,444	364,122	-0,045	-0,066
-607,430	-31,481	-0,066	-0,027
-606,415	-135,196	-0,093	0,008
-605,401	141,080	-0,082	0,080
-604,386	-200,000	-0,000	0,051
-603,371	542,245	0,082	-0,144
-602,357	-194,915	-0,023	0,000
-601,342	-200,000	0,006	0,073
-600,328	-200,000	-0,025	-0,162
-599,313	-23,507	-0,059	0,026
-598,298	-11,009	0,083	-0,040
-597,284	395,408	-0,069	-0,106
-596,269	-67,546	0,081	-0,023
-595,255	39,822	0,093	-0,061
-594,240	-200,000	-0,000	-0,019
-593,225	258,136	0,033	-0,042
-592,211	800,000	0,040	-0,082
-591,196	800,000	-0,047	-0,114
-590,182	213,217	0,016	0,019
-589,167	-183,744	0,226	-0,003
-588,152	-103,151	-0,134	-0,023
-587,138	284,502	0,007	-0,010
-586,123	-200,000	-0,003	0,025
-585,109	-200,000	-0,008	0,054
-584,094	800,000	0,059	-0,171
-583,079	-32,696	0,132	0,053
-582,065	-167,966	0,195	-0,005
-581,050	-50,409	-0,022	-0,008
-580,036	-50,167	0,079	-0,027
-579,021	216,749	0,093	-0,108
-578,006	248,439	-0,084	-0,104
-576,992	800,000	0,044	0,104
-575,977	396,858	0,083	-0,128
-574,963	-200,000	0,004	0,137
-573,948	-200,000	-0,017	0,130
-572,934	678,262	-0,024	-0,046
-571,919	20,655	-0,146	-0,086
-570,904	4,922	-0,074	0,040
-569,890	26,762	0,038	0,023
-568,875	759,395	0,038	-0,077
-567,861	13,262	0,046	0,026
-566,846	76,944	0,055	0,043
-565,831	-34,495	0,006	0,003
-564,817	523,251	0,033	0,058
-563,802	-200,000	-0,007	-0,058
-562,788	-11,044	-0,195	0,094
-561,773	-200,000	0,026	0,086
-560,758	564,353	-0,013	0,023
-559,744	800,000	-0,044	0,138
-558,729	-63,314	-0,101	-0,030
-557,715	-200,000	0,002	-0,052
-556,700	800,000	-0,073	-0,154
-555,685	-140,143	-0,082	-0,006
-554,671	-56,541	0,079	0,026
-553,656	800,000	0,022	-0,048
-552,642	538,811	0,029	0,051
-551,627	-149,167	0,156	0,009
-550,612	-200,000	-0,020	-0,133
-549,598	119,560	-0,160	0,145
-548,583	58,495	0,050	-0,036
-547,569	-10,586	0,014	-0,007
-546,554	47,044	-0,070	-0,048
-545,539	-200,000	-0,022	0,173
-544,525	-200,000	0,014	0,051
-543,510	-73,389	-0,062	0,016
-542,496	239,852	0,057	-0,070
-541,481	-1,971	-0,158	0,081
-540,466	-200,000	0,006	-0,067
-539,452	800,000	0,044	-0,101
-538,437	7,862	-0,063	0,034
-537,423	472,616	0,025	-0,041
-536,408	84,970	-0,041	-0,033
-535,393	800,000	-0,024	-0,073
-534,379	-80,517	-0,144	0,035
-533,364	-200,000	0,001	0,069
-532,350	-131,971	0,128	0,012
-531,335	259,663	-0,042	0,054
-530,321	-200,000	0,018	0,093
-529,306	31,157	0,046	0,029
-528,291	-93,556	-0,023	-0,005
-527,277	800,000	0,017	-0,039
-526,262	800,000	-0,055	-0,156
-525,248	-200,000	0,034	0,141
-524,233	413,101	-0,034	-0,054
-523,218	-200,000	0,001	-0,108
-522,204	-33,724	-0,046	0,018
-521,189	-200,000	0,008	0,064
-520,175	-81,112	0,046	0,011
-519,160	-36,921	-0,092	-0,036
-518,145	486,580	0,071	-0,119
-517,131	-14,851	0,098	-0,046
-516,116	128,256	0,127	0,119
-515,102	-45,163	0,054	0,020
-514,087	-37,680	-0,078	-0,030
-513,072	-200,000	-0,002	-0,134
-512,058	800,000	0,046	-0,130
-511,043	51,094	0,139	-0,096
-510,029	-85,085	-0,050	0,011
-509,014	312,053	0,128	0,177
-507,999	87,763	0,199	0,161
-506,985	236,878	0,011	-0,013
-505,970	-6,857	-0,054	-0,027
-504,956	-200,000	0,006	0,074
-503,941	190,795	0,089	0,098
-502,926	146,937	0,115	0,113
-501,912	-200,000	0,033	0,167
-500,897	-200,000	0,017	-0,104
-499,883	393,005	-0,090	0,137
-498,868	-46,691	-0,221	-0,079
-497,853	-65,149	0,152	0,044
-496,839	-137,113	0,049	0,004
-495,824	-95,403	0,031	-0,006
-494,810	-200,000	0,008	0,051
-493,795	45,949	-0,074	-0,050
-492,781	47,435	-0,101	0,068
-491,766	99,250	-0,082	0,069
-490,751	-200,000	0,004	-0,167
-489,737	305,279	-0,024	-0,032
-488,722	-20,487	-0,109	-0,049
-487,708	-200,000	0,006	0,098
-486,693	-69,991	0,052	0,014
-485,678	-200,000	0,022	0,139
-484,664	-200,000	-0,003	0,019
-483,649	-200,000	-0,009	-0,088
-482,635	-64,039	0,097	-0,029
-481,620	-152,711	-0,084	0,004
-480,605	120,151	-0,035	-0,031
-479,591	38,403	0,100	-0,065
-478,576	-200,000	-0,014	-0,126
-477,562	437,736	-0,041	-0,065
-476,547	-151,086	-0,148	0,008
-475,532	-181,453	0,012	0,000
-474,518	18,043	0,062	0,036
-473,503	-97,998	-0,050	0,009
-472,489	-103,724	0,075	0,013
-471,474	336,814	-0,015	0,021
-470,459	-164,147	-0,117	-0,004
-469,445	-56,073	0,034	0,011
-468,430	-33,958	0,100	0,040
-467,416	653,643	0,015	0,028
-466,401	735,074	-0,036	-0,071
-465,386	-69,217	-0,086	-0,024
-464,372	800,000	-0,042	-0,098
-463,357	28,479	-0,045	-0,028
-462,343	35,125	0,036	0,023
-461,328	61,266	0,091	-0,066
-460,313	-200,000	0,000	-0,088
-459,299	1,371	0,102	0,053
-458,284	23,231	0,093	-0,056
-457,270	-200,000	0,003	0,026
-456,255	-125,822	-0,063	-0,007
-455,241	218,330	-0,058	-0,068
-454,226	441,467	0,012	0,019
-453,211	-116,886	-0,073	-0,010
-452,197	-200,000	-0,001	0,065
-451,182	-90,346	0,057	-0,012
-450,168	109,138	0,070	-0,061
-449,153	800,000	-0,069	0,154
-448,138	-200,000	-0,016	-0,116
-447,124	173,055	-0,120	-0,126
-446,109	-30,816	0,068	0,028
-445,095	504,806	-0,034	-0,057
-444,080	253,436	-0,036	0,045
-443,065	162,474	0,075	0,077
-442,051	800,000	0,029	0,075
-441,036	-114,847	-0,166	0,023
-440,022	142,808	-0,050	-0,048
-439,007	419,193	-0,132	-0,207
-437,992	-51,686	0,076	0,026
-436,978	63,514	0,153	0,112
-435,963	240,369	0,041	0,050
-434,949	-200,000	-0,010	-0,061
-433,934	22,168	0,103	-0,061
-432,919	800,000	0,021	-0,050
-431,905	-200,000	0,009	-0,098
-430,890	800,000	0,033	-0,083
-429,876	-200,000	0,033	-0,110
-428,861	-113,743	-0,042	-0,006
-427,846	-98,583	0,190	-0,035
-426,832	-200,000	-0,052	0,000
-425,817	762,214	0,064	-0,127
-424,803	98,855	-0,107	-0,090
-423,788	137,837	0,062	0,059
-422,773	659,858	-0,057	0,107
-421,759	132,634	0,052	0,049
-420,744	160,048	0,076	-0,078
-419,730	336,100	-0,088	-0,125
-418,715	-200,000	0,022	-0,115
-417,701	300,334	-0,042	0,056
-416,686	608,902	-0,021	-0,038
-415,671	773,366	-0,046	0,093
-414,657	800,000	0,032	0,072
-413,642	-200,000	0,018	0,064
-412,628	-200,000	0,013	0,058
-411,613	-15,794	0,106	-0,049
-410,598	25,487	-0,050	-0,030
-409,584	-200,000	-0,028	0,122
-408,569	-50,126	0,093	0,032
-407,555	800,000	-0,040	-0,123
-406,540	800,000	0,024	0,052
-405,525	147,910	0,011	0,011
-404,511	54,678	-0,025	0,018
-403,496	-200,000	-0,028	0,095
-402,482	-46,028	0,144	0,052
-401,467	46,984	0,105	-0,071
-400,452	327,131	0,065	-0,091
-399,438	-200,000	0,007	0,115
-398,423	-43,350	0,034	-0,013
-397,409	-101,271	-0,071	-0,013
-396,394	-5,626	0,138	0,069
-395,379	752,790	0,017	0,033
-394,365	-51,715	-0,073	0,025
-393,350	-200,000	-0,037	0,160
-392,336	-200,000	0,012	0,066
-391,321	-200,000	0,002	0,051
-390,306	-200,000	0,005	-0,034
-389,292	-111,956	-0,021	0,003
-388,277	-200,000	-0,027	0,097
-387,263	-36,694	0,069	0,027
-386,248	-83,501	-0,088	0,020
-385,233	42,991	0,060	-0,040
-384,219	-169,022	0,026	-0,001
-383,204	102,367	0,044	0,038
-382,190	480,657	-0,033	0,054
-381,175	721,233	-0,056	-0,109
-380,160	-200,000	0,040	-0,211
-379,146	-200,000	-0,000	0,024
-378,131	222,033	0,076	0,089
-377,117	70,297	0,034	0,026
-376,102	-200,000	-0,010	-0,080
-375,088	-53,152	-0,040	-0,013
-374,073	-200,000	-0,016	0,052
-373,058	-200,000	0,025	0,106
-372,044	118,095	0,108	0,097
-371,029	-65,754	0,128	-0,037
-370,015	-140,760	-0,134	0,010
-369,000	-16,883	-0,031	0,014
-367,985	98,990	-0,051	-0,042
-366,971	120,976	-0,024	0,021
-365,956	174,068	0,068	-0,072
-364,942	667,299	-0,030	0,056
-363,927	34,495	0,046	-0,029
-362,912	-200,000	0,023	-0,076
-361,898	147,912	-0,113	-0,111
-360,883	224,061	0,090	-0,105
-359,869	-200,000	-0,013	-0,131
-358,854	800,000	0,049	0,105
-357,839	-200,000	0,007	-0,085
-356,825	144,511	-0,051	0,050
-355,810	-47,360	0,095	0,034
-354,796	146,505	-0,056	-0,054
-353,781	26,169	-0,055	0,033
-352,766	-18,706	-0,093	-0,042
-351,752	800,000	0,008	0,017
-350,737	800,000	0,047	0,123
-349,723	-200,000	-0,025	-0,084
-348,708	-95,911	0,082	-0,016
-347,693	-200,000	-0,001	-0,013
-346,679	-31,220	-0,115	-0,047
-345,664	-6,677	-0,094	-0,046
-344,650	-186,964	-0,098	-0,001
-343,635	800,000	0,019	0,045
-342,620	60,785	0,063	-0,046
-341,606	-33,836	0,067	0,027
-340,591	-52,306	0,049	0,016
-339,577	-200,000	0,003	-0,117
-338,562	-200,000	-0,008	-0,228
-337,548	-200,000	-0,021	-0,171
-336,533	168,652	0,063	-0,065
-335,518	26,047	0,090	0,054
-334,504	158,360	-0,083	0,084
-333,489	73,624	0,123	0,094
-332,475	800,000	-0,038	0,096
-331,460	-114,340	-0,036	-0,005
-330,445	187,957	0,062	-0,067
-329,431	27,119	-0,071	-0,043
-328,416	584,299	-0,044	-0,079
-327,402	-69,785	0,088	-0,024
-326,387	-200,000	0,012	0,076
-325,372	289,608	-0,116	0,153
-324,358	119,992	-0,098	-0,089
-323,343	505,378	0,058	-0,098
-322,329	82,744	-0,156	-0,123
-321,314	355,089	0,032	0,047
-320,299	130,350	0,057	0,053
-319,285	186,702	0,101	-0,109
-318,270	-200,000	-0,008	-0,152
-317,256	-200,000	0,005	-0,029
-316,241	144,762	-0,054	0,052
-315,226	-79,125	0,141	0,035
-314,212	0,479	-0,117	0,061
-313,197	800,000	0,046	0,119
-312,183	753,652	0,006	0,013
-311,168	-88,989	0,155	-0,033
-310,153	-50,954	0,064	0,022
-309,139	800,000	-0,029	-0,092
-308,124	-93,648	-0,025	-0,005
-307,110	617,517	0,057	0,104
-306,095	56,135	0,153	0,107
-305,080	-20,819	-0,089	-0,039
-304,066	800,000	0,026	-0,067
-303,051	-19,104	-0,047	-0,021
-302,037	-124,585	-0,083	-0,009
-301,022	-200,000	-0,012	-0,054
-300,008	-0,519	0,032	-0,016
-298,993	-44,936	-0,047	-0,017
-297,978	-200,000	-0,004	0,024
-296,964	-83,878	0,040	0,009
-295,949	-200,000	-0,010	-0,035
-294,935	64,673	-0,047	0,034
-293,920	-111,287	-0,254	-0,037
-292,905	25,675	-0,094	0,056
-291,891	-26,034	0,125	-0,053
-290,876	13,824	0,070	-0,040
-289,862	-50,030	-0,046	0,016
-288,847	-125,549	-0,040	0,004
-287,832	231,798	0,063	-0,075
-286,818	-133,224	-0,032	0,003
-285,803	-200,000	-0,001	0,170
-284,789	415,246	0,048	0,074
-283,774	29,798	-0,192	0,118
-282,759	129,618	-0,055	-0,051
-281,745	388,273	-0,046	0,070
-280,730	0,683	-0,129	-0,067
-279,716	-200,000	0,048	0,199
-278,701	17,161	-0,053	0,030
-277,686	156,829	0,056	-0,056
-276,672	-200,000	0,028	-0,153
-275,657	-91,069	0,050	-0,010
-274,643	-62,661	-0,062	-0,019
-273,628	800,000	-0,042	-0,093
-272,613	-48,731	-0,114	-0,040
-271,599	408,244	0,052	0,079
-270,584	-66,520	-0,167	-0,048
-269,570	10,669	-0,078	0,043
-268,555	195,932	0,084	0,093
-267,540	266,540	-0,063	-0,080
-266,526	-52,636	-0,081	0,027
-265,511	518,472	-0,058	-0,099
-264,497	800,000	-0,040	0,110
-263,482	-200,000	-0,036	0,125
-262,467	227,632	0,081	0,095
-261,453	26,802	-0,139	-0,084
-260,438	-20,198	-0,097	-0,043
-259,424	-39,178	0,202	-0,077
-258,409	141,150	-0,080	0,077
-257,395	160,205	0,031	-0,031
-256,380	-200,000	0,014	0,044
-255,365	149,559	-0,113	0,110
-254,351	-200,000	0,014	-0,101
-253,336	480,226	-0,008	-0,014
-252,322	-115,571	0,054	0,007
-251,307	153,191	-0,072	-0,071
-250,292	669,737	0,080	0,151
-249,278	121,652	0,067	0,061
-248,263	-200,000	-0,005	-0,076
-247,249	800,000	-0,048	0,101
-246,234	-200,000	0,031	0,171
-245,219	534,422	-0,034	0,059
-244,205	147,022	-0,096	-0,093
-243,190	-25,820	0,075	-0,032
-242,176	-200,000	0,018	-0,092
-241,161	-167,937	0,112	-0,003
-240,146	-17,909	-0,042	-0,019
-239,132	-88,806	0,162	0,034
-238,117	-17,313	-0,141	-0,064
-237,103	336,201	0,047	-0,066
-236,088	-49,686	-0,111	0,038
-235,073	-144,379	0,121	-0,008
-234,059	-200,000	0,018	0,071
-233,044	800,000	0,031	0,091
-232,030	-200,000	-0,002	0,008
-231,015	389,580	-0,023	0,034
-230,000	-172,436	-0,050	-0,001
-228,986	-68,207	-0,051	0,014
-227,971	-200,000	-0,009	-0,110
-226,957	350,129	0,057	-0,081
-225,942	229,874	0,037	-0,043
-224,927	-0,503	0,067	0,034
-223,913	279,401	-0,067	0,087
-222,898	626,741	0,024	0,044
-221,884	35,609	-0,071	0,045
-220,869	-24,125	0,037	0,016
-219,855	800,000	0,040	0,128
-218,840	-200,000	0,026	-0,157
-217,825	186,583	0,044	-0,047
-216,811	382,811	-0,033	0,049
-215,796	26,391	-0,231	-0,139
-214,782	35,209	-0,032	-0,020
-213,767	-8,866	-0,095	-0,046
-212,752	17,924	0,059	0,034
-211,738	284,275	0,052	0,068
-210,723	-200,000	-0,003	0,095
-209,709	0,383	0,113	0,058
-208,694	-200,000	-0,024	-0,083
-207,679	800,000	-0,013	-0,035
-206,665	450,798	-0,007	-0,012
-205,650	224,986	-0,036	0,043
-204,636	-200,000	0,013	0,064
-203,621	87,942	-0,066	-0,053
-202,606	-200,000	-0,021	0,109
-201,592	-94,692	-0,126	-0,025
-200,577	800,000	0,048	-0,132
-199,563	419,916	-0,036	0,056
-198,548	-200,000	0,010	0,047
-197,533	800,000	-0,050	0,113
-196,519	96,272	0,137	0,113
-195,504	-200,000	-0,020	0,103
-194,490	36,105	-0,132	0,084
-193,475	-7,344	0,026	0,013
-192,460	-200,000	0,018	0,107
-191,446	-33,523	0,117	0,047
-190,431	9,204	-0,019	-0,010
-189,417	132,305	0,122	-0,114
-188,402	-200,000	0,046	-0,180
-187,387	-9,420	0,068	-0,033
-186,373	685,607	-0,039	-0,073
-185,358	-200,000	0,004	-0,047
-184,344	800,000	0,052	-0,109
-183,329	-200,000	0,001	0,034
-182,315	212,975	0,060	0,068
-181,300	800,000	0,016	-0,040
-180,285	72,271	-0,018	0,013
-179,271	800,000	0,020	-0,051
-178,256	78,934	-0,146	0,113
-177,242	800,000	-0,033	0,069
-176,227	98,811	0,079	0,065
-175,212	60,619	0,060	-0,042
-174,198	-200,000	0,015	0,095
-173,183	308,196	0,009	0,012
-172,169	800,000	-0,058	0,159
-171,154	-200,000	-0,005	-0,105
-170,139	-200,000	-0,002	0,061
-169,125	-66,609	0,047	-0,013
-168,110	-200,000	-0,026	0,092
-167,096	-200,000	0,026	0,112
-166,081	90,540	0,135	-0,109
-165,066	62,380	-0,053	-0,038
-164,052	156,477	-0,053	0,053
-163,037	-82,298	-0,062	0,015
-162,023	800,000	0,029	0,071
-161,008	-81,005	-0,033	-0,008
-159,993	-133,743	-0,040	0,004
-158,979	171,555	-0,029	-0,030
-157,964	-77,302	-0,124	0,031
-156,950	-38,759	0,037	-0,014
-155,935	139,877	-0,096	-0,092
-154,920	606,472	0,078	0,140
-153,906	-200,000	0,005	0,054
-152,891	-200,000	0,008	-0,045
-151,877	577,642	0,014	0,026
-150,862	289,780	-0,087	0,114
-149,847	-200,000	0,000	-0,129
-148,833	-27,214	-0,049	-0,020
-147,818	800,000	0,034	-0,106
-146,804	255,641	-0,072	-0,090
-145,789	800,000	0,063	0,186
-144,775	744,016	-0,058	0,113
-143,760	367,819	-0,024	0,035
-142,745	-2,580	-0,102	0,051
-141,731	-36,921	0,049	0,019
-140,716	435,186	0,038	0,059
-139,702	183,511	-0,080	0,086
-138,687	-200,000	-0,017	-0,075
-137,672	-60,886	0,036	-0,011
-136,658	-200,000	-0,014	0,091
-135,643	800,000	0,039	0,094
-134,629	79,822	-0,060	0,046
-133,614	392,187	-0,049	-0,074
-132,599	-137,588	0,067	-0,005
-131,585	-200,000	-0,018	-0,057
-130,570	5,406	0,070	-0,037
-129,556	-138,548	-0,050	0,004
-128,541	800,000	-0,054	0,119
-127,526	-107,534	0,100	-0,016
-126,512	390,465	-0,052	0,077
-125,497	107,942	0,083	0,072
-124,483	760,579	0,016	0,032
-123,468	-59,539	-0,189	0,058
-122,453	152,580	-0,050	-0,049
-121,439	-39,729	0,048	0,018
-120,424	800,000	0,009	0,024
-119,410	800,000	-0,066	0,137
-118,395	-118,804	-0,061	-0,008
-117,380	-200,000	0,016	-0,076
-116,366	800,000	0,037	0,091
-115,351	615,395	-0,038	-0,069
-114,337	-200,000	0,011	-0,109
-113,322	46,941	-0,141	-0,094
-112,307	-162,904	0,039	0,001
-111,293	-35,962	-0,064	-0,025
-110,278	564,705	-0,006	0,011
-109,264	-131,180	0,107	-0,010
-108,249	-63,357	-0,138	0,041
-107,234	800,000	-0,072	0,149
-106,220	422,948	-0,029	-0,045
-105,205	490,745	-0,089	0,146
-104,191	-200,000	-0,027	-0,088
-103,176	220,915	0,129	0,149
-102,162	-200,000	-0,040	-0,136
-101,147	-13,446	0,059	0,027
-100,132	-75,796	0,040	-0,010
-99,118	44,854	-0,122	-0,080
-98,103	49,810	-0,058	-0,039
-97,089	-115,936	0,106	-0,014
-96,074	-200,000	0,010	0,146
-95,059	58,680	0,056	-0,040
-94,045	89,425	-0,143	0,114
-93,030	165,566	-0,056	0,057
-92,016	199,897	0,051	0,056
-91,001	-200,000	-0,026	-0,155
-89,986	-200,000	0,020	0,088
-88,972	229,961	0,109	0,129
-87,957	-200,000	0,009	-0,094
-86,943	800,000	-0,014	-0,034
-85,928	141,722	-0,084	-0,080
-84,913	306,340	-0,070	-0,094
-83,899	-40,155	0,045	0,017
-82,884	18,072	0,051	-0,029
-81,870	800,000	0,001	-0,004
-80,855	-43,675	-0,071	0,026
-79,840	117,059	0,035	-0,031
-78,826	-167,391	-0,259	-0,007
-77,811	-35,664	-0,059	-0,023
-76,797	113,546	0,091	0,080
-75,782	-200,000	0,008	0,034
-74,767	7,781	0,044	-0,023
-73,753	78,759	0,103	0,079
-72,738	-41,672	0,081	-0,030
-71,724	-200,000	-0,017	-0,168
-70,709	58,233	0,120	-0,085
-69,694	-115,573	-0,050	0,007
-68,680	-77,235	-0,094	0,023
-67,665	556,002	0,032	-0,056
-66,651	-54,175	-0,133	0,043
-65,636	800,000	-0,019	0,055
-64,622	-74,630	-0,183	0,047
-63,607	-68,780	-0,191	0,053
-62,592	-200,000	0,004	0,092
-61,578	800,000	-0,047	0,097
-60,563	34,075	0,049	0,031
-59,549	-200,000	-0,003	-0,050
-58,534	-13,608	-2,075	-0,961
-57,519	800,000	-0,303	-0,740
-56,505	-200,000	-1,415	-4,922
-55,490	-60,402	0,832	0,253
-54,476	800,000	5,428	12,255
-53,461	-200,000	17,404	283,418
-52,446	800,000	722,260	2215,331
-51,432	535,746	1635,404	2796,891
-50,417	111,426	1627,464	1408,745
-49,403	74,718	1284,974	969,865
-48,388	32,575	1029,355	637,467
-47,373	20,053	991,305	572,529
-46,359	18,668	979,542	561,158
-45,344	16,154	975,808	550,749
-44,330	16,329	974,441	550,532
-43,315	15,954	972,414	548,138
-42,300	15,852	971,523	547,280
-41,286	15,925	970,169	546,733
-40,271	15,916	969,399	546,249
-39,257	15,912	968,533	545,723
-38,242	15,943	967,550	545,250
-37,227	15,915	966,907	544,776
-36,213	15,932	966,147	544,382
-35,198	15,897	964,955	543,576
-34,184	15,927	964,411	543,344
-33,169	15,909	963,435	542,713
-32,154	15,946	962,264	542,152
-31,140	15,934	961,632	541,736
-30,125	15,933	960,591	541,125
-29,111	15,925	959,916	540,698
-28,096	15,947	959,334	540,418
-27,082	15,899	958,734	539,906
-26,067	15,874	957,976	539,375
-25,052	15,880	957,174	538,923
-24,038	15,910	956,593	538,672
-23,023	15,849	955,929	538,077
-22,009	15,952	954,972	537,851
-20,994	15,959	954,373	537,513
-19,979	15,952	953,799	537,145
-18,965	15,900	953,439	536,755
-17,950	15,887	952,693	536,271
-16,936	15,860	951,949	535,746
-15,921	15,792	951,361	535,176
-14,906	15,785	950,610	534,710
-13,892	15,784	950,162	534,433
-12,877	15,816	949,280	534,020
-11,863	15,766	948,672	533,495
-10,848	15,746	948,318	533,210
-9,833	15,901	947,674	533,321
-8,819	15,887	947,135	532,954
-7,804	15,807	946,470	532,303
-6,790	15,744	945,799	531,705
-5,775	15,839	945,304	531,707
-4,760	15,832	944,645	531,293
-3,746	15,839	943,904	530,877
-2,731	15,713	943,387	530,166
-1,717	15,662	942,740	529,619
-0,702	15,637	942,046	529,131
0,313	15,481	941,201	528,960
1,327	18,932	939,406	538,803
2,342	28,208	793,567	479,699
3,356	25,060	446,949	265,466
4,371	-4,747	296,476	146,207
5,386	-8,926	278,232	133,220
6,400	-10,118	272,678	129,436
7,415	-10,295	270,297	128,131
8,429	-10,156	268,709	127,495
9,444	-10,310	268,016	127,013
10,459	-10,235	267,117	126,645
11,473	-10,374	266,537	126,231
12,488	-10,375	266,031	125,980
13,502	-10,531	265,661	125,651
14,517	-10,659	265,197	125,305
15,531	-10,507	264,722	125,207
16,546	-10,434	264,371	125,096
17,561	-10,452	263,874	124,833
18,575	-10,545	263,779	124,693
19,590	-10,572	263,347	124,453
20,604	-10,413	263,059	124,449
21,619	-10,402	262,650	124,255
22,634	-10,378	262,275	124,088
23,648	-10,761	262,050	123,627
24,663	-10,624	261,845	123,642
25,677	-10,693	261,537	123,424
26,692	-10,617	261,353	123,394
27,707	-10,513	260,940	123,281
28,721	-10,687	260,752	123,026
29,736	-10,559	260,420	122,972
30,750	-10,690	260,047	122,669
31,765	-10,557	259,907	122,709
32,780	-10,560	259,645	122,572
33,794	-10,682	259,438	122,355
34,809	-10,739	259,222	122,193
35,823	-10,797	258,973	122,012
36,838	-10,769	258,760	121,926
37,853	-10,691	258,485	121,854
38,867	-10,674	258,249	121,748
39,882	-10,869	257,871	121,386
40,896	-10,892	257,823	121,333
41,911	-10,914	257,595	121,195
42,926	-10,882	257,295	121,071
43,940	-10,787	257,004	121,007
44,955	-10,904	256,867	120,829
45,969	-10,876	256,561	120,699
46,984	-11,259	256,500	120,325
47,999	-11,426	255,985	119,926
49,013	-11,521	255,838	119,764
50,028	-11,597	255,597	119,573
51,042	-11,695	255,179	119,282
52,057	-11,505	255,061	119,382
53,071	-11,531	254,901	119,274
54,086	-11,615	254,676	119,085
55,101	-11,357	254,465	119,199
56,115	-11,152	254,455	119,361
57,130	-10,760	254,479	119,703
58,144	-10,330	254,214	119,941
59,159	-10,367	253,913	119,756
60,174	-10,299	253,626	119,668
61,188	-10,446	253,507	119,475
62,203	-10,584	253,228	119,214
63,217	-10,495	253,089	119,214
64,232	-10,584	252,935	119,054
65,247	-10,671	252,864	118,935
66,261	-10,458	252,255	118,821
67,276	-10,924	252,208	118,388
68,290	-11,112	251,873	118,058
69,305	-11,279	251,720	117,833
70,320	-11,027	251,364	117,871
71,334	-10,841	251,306	117,994
72,349	-10,367	251,215	118,346
73,363	-10,499	250,968	118,106
74,378	-10,551	250,836	117,989
75,393	-10,528	250,563	117,870
76,407	-10,849	250,416	117,517
77,422	-10,508	249,958	117,581
78,436	-10,499	249,904	117,553
79,451	-10,876	249,863	117,202
80,466	-10,762	249,360	117,053
81,480	-10,837	249,223	116,915
82,495	-10,863	248,902	116,731
83,509	-10,841	248,768	116,677
84,524	-11,012	248,561	116,424
85,539	-11,197	248,379	116,173
86,553	-11,191	248,147	116,059
87,568	-11,044	248,103	116,152
88,582	-11,201	247,934	115,930
89,597	-11,185	247,690	115,819
90,611	-10,874	247,468	115,967
91,626	-10,709	247,264	116,000
92,641	-10,568	247,058	116,010
93,655	-10,874	247,023	115,727
94,670	-10,843	246,648	115,568
95,684	-10,908	246,604	115,482
96,699	-10,715	246,313	115,497
97,714	-10,942	246,335	115,307
98,728	-10,980	245,882	115,052
99,743	-10,985	245,651	114,930
100,757	-11,015	245,484	114,817
101,772	-11,008	245,276	114,715
102,787	-11,366	245,241	114,390
103,801	-10,989	245,155	114,654
104,816	-10,918	244,841	114,555
105,830	-10,919	244,874	114,560
106,845	-10,593	244,631	114,707
107,860	-10,627	244,418	114,569
108,874	-10,791	244,121	114,284
109,889	-10,894	243,963	114,114
110,903	-10,767	243,671	114,072
111,918	-10,909	243,580	113,902
112,933	-10,951	243,493	113,817
113,947	-10,715	243,221	113,874
114,962	-10,853	242,957	113,627
115,976	-11,023	243,039	113,514
116,991	-10,704	242,674	113,596
118,006	-10,645	242,608	113,604
119,020	-10,692	242,489	113,499
120,035	-10,638	242,404	113,494
121,049	-10,831	242,308	113,281
122,064	-10,515	241,996	113,383
123,079	-10,744	241,760	113,076
124,093	-10,894	241,553	112,845
125,108	-11,120	241,300	112,532
126,122	-11,379	241,062	112,200
127,137	-11,411	240,885	112,081
128,151	-11,252	240,752	112,139
129,166	-11,173	240,643	112,143
130,181	-11,091	240,343	112,059
131,195	-11,159	240,072	111,868
132,210	-10,826	240,037	112,112
133,224	-10,806	239,911	112,060
134,239	-10,757	239,708	111,995
135,254	-10,729	239,581	111,948
136,268	-10,776	239,220	111,732
137,283	-11,059	239,006	111,393
138,297	-11,385	238,780	111,014
139,312	-11,439	238,684	110,916
140,327	-11,107	238,690	111,177
141,341	-10,431	238,499	111,624
142,356	-10,445	238,439	111,574
143,370	-10,412	238,382	111,564
144,385	-10,391	238,097	111,438
145,400	-10,177	237,999	111,554
146,414	-10,305	237,730	111,315
147,429	-10,429	237,621	111,155
148,443	-10,380	237,452	111,105
149,458	-10,434	237,222	110,945
150,473	-10,461	237,016	110,817
151,487	-10,421	236,801	110,738
152,502	-10,458	236,681	110,643
153,516	-10,450	236,511	110,560
154,531	-10,296	236,337	110,591
155,546	-10,322	236,163	110,480
156,560	-10,556	235,969	110,192
157,575	-10,790	235,728	109,884
158,589	-10,740	235,624	109,865
159,604	-10,324	235,533	110,144
160,619	-10,186	235,289	110,130
161,633	-10,495	235,387	109,920
162,648	-10,226	235,031	109,957
163,662	-10,328	234,893	109,802
164,677	-10,674	234,762	109,457
165,692	-10,496	234,726	109,572
166,706	-10,333	234,544	109,606
167,721	-10,477	234,374	109,403
168,735	-10,166	234,184	109,550
169,750	-10,202	233,988	109,420
170,764	-10,394	233,786	109,165
171,779	-10,231	233,736	109,260
172,794	-10,114	233,622	109,289
173,808	-10,329	233,329	108,973
174,823	-10,993	232,875	108,229
175,837	-11,175	232,751	108,019
176,852	-10,651	232,767	108,428
177,867	-10,383	232,737	108,615
178,881	-10,329	232,656	108,610
179,896	-10,304	232,554	108,572
180,910	-10,222	232,251	108,485
181,925	-10,443	232,041	108,205
182,940	-10,284	231,849	108,230
183,954	-10,313	231,788	108,169
184,969	-10,384	231,752	108,087
185,983	-10,015	231,439	108,220
186,998	-10,123	231,360	108,089
188,013	-10,137	231,101	107,947
189,027	-10,279	231,052	107,804
190,042	-9,911	230,822	107,974
191,056	-10,147	230,765	107,754
192,071	-10,101	230,539	107,675
193,086	-10,269	230,397	107,468
194,100	-10,092	230,159	107,484
195,115	-10,318	229,873	107,166
196,129	-10,503	229,958	107,053
197,144	-5,553	231,605	111,668
198,159	-0,023	233,413	116,862
199,173	3,180	233,998	119,652
200,188	3,599	233,998	119,969
201,202	3,526	233,944	119,873
202,217	3,725	233,838	119,963
203,232	3,892	233,827	120,078
204,246	4,055	233,473	120,012
205,261	4,099	233,368	119,982
206,275	4,337	233,232	120,087
207,290	4,224	233,175	119,959
208,304	4,271	232,916	119,851
209,319	4,227	232,707	119,699
210,334	4,098	232,532	119,498
211,348	4,064	232,339	119,362
212,363	3,583	231,932	118,770
213,377	3,410	231,761	118,538
214,392	3,285	231,746	118,423
215,407	3,364	231,577	118,387
216,421	3,560	231,394	118,435
217,436	3,308	231,208	118,134
218,450	3,189	230,898	117,874
219,465	3,202	230,893	117,871
220,480	3,429	230,651	117,911
221,494	3,185	230,575	117,674
222,509	3,297	230,498	117,710
223,523	3,325	230,401	117,672
224,538	3,471	230,134	117,637
225,553	3,249	229,946	117,361
226,567	3,583	229,903	117,584
227,582	3,657	229,897	117,627
228,596	3,779	229,807	117,664
229,611	3,607	229,556	117,393
230,626	3,131	229,241	116,858
231,640	3,277	229,062	116,868
232,655	3,621	229,020	117,099
233,669	3,897	229,030	117,304
234,684	4,030	228,936	117,346
235,699	3,719	228,666	116,961
236,713	3,573	228,441	116,725
237,728	3,523	228,214	116,560
238,742	3,288	228,099	116,312
239,757	3,524	227,989	116,425
240,772	3,535	227,840	116,346
241,786	3,403	227,598	116,113
242,801	3,613	227,728	116,328
243,815	3,887	227,444	116,380
244,830	3,733	227,461	116,262
245,844	3,711	227,179	116,091
246,859	3,323	227,062	115,728
247,874	3,866	226,878	116,033
248,888	3,614	226,778	115,781
249,903	3,684	226,559	115,712
250,917	3,496	226,330	115,444
251,932	3,424	226,143	115,283
252,947	3,340	225,974	115,124
253,961	3,237	225,951	115,025
254,976	3,348	225,777	115,009
255,990	3,683	225,533	115,126
257,005	3,775	225,473	115,154
258,020	3,698	225,340	115,018
259,034	3,970	225,310	115,196
260,049	3,500	225,176	114,766
261,063	3,449	225,013	114,634
262,078	3,760	224,869	114,783
263,093	3,689	224,814	114,692
264,107	3,689	224,522	114,532
265,122	3,864	224,297	114,538
266,136	3,751	224,420	114,506
267,151	3,761	224,107	114,344
268,166	3,519	223,875	114,035
269,180	3,310	223,597	113,728
270,195	3,332	223,373	113,620
271,209	3,164	223,480	113,540
272,224	3,282	223,424	113,589
273,239	3,392	223,104	113,498
274,253	3,378	223,094	113,472
275,268	3,294	222,812	113,257
276,282	3,209	222,595	113,073
277,297	3,234	222,545	113,056
278,312	3,240	222,376	112,965
279,326	3,324	222,319	112,987
280,341	3,551	222,201	113,085
281,355	3,524	222,085	112,996
282,370	3,169	221,957	112,659
283,384	3,359	221,629	112,622
284,399	3,036	221,565	112,342
285,414	3,207	221,300	112,324
286,428	3,239	221,375	112,375
287,443	3,487	221,244	112,481
288,457	3,392	221,140	112,349
289,472	3,508	220,888	112,295
290,487	2,876	220,653	111,703
291,501	2,804	220,428	111,526
292,516	3,256	220,361	111,812
293,530	3,140	220,282	111,678
294,545	2,946	220,154	111,461
295,560	3,112	220,245	111,619
296,574	3,433	219,798	111,617
297,589	3,603	219,655	111,658
298,603	3,399	219,684	111,514
299,618	3,354	219,609	111,433
300,633	3,425	219,385	111,361
301,647	3,844	219,341	111,633
302,662	3,984	219,190	111,648
303,676	3,733	219,059	111,390
304,691	3,502	218,863	111,113
305,706	3,659	218,773	111,171
306,720	3,670	218,673	111,117
307,735	3,372	218,421	110,764
308,749	3,404	218,213	110,672
309,764	3,662	218,020	110,750
310,779	3,671	218,110	110,793
311,793	3,542	217,813	110,539
312,808	3,712	217,542	110,514
313,822	3,513	217,471	110,324
314,837	3,323	217,448	110,167
315,852	3,234	217,339	110,038
316,866	3,468	217,084	110,067
317,881	3,423	217,078	110,022
318,895	3,517	216,870	109,974
319,910	3,362	216,603	109,718
320,925	2,877	216,480	109,298
321,939	2,895	216,164	109,141
322,954	3,203	216,223	109,382
323,968	3,898	216,204	109,859
324,983	3,724	216,150	109,698
325,997	3,923	215,971	109,739
327,012	3,592	215,698	109,355
328,027	3,461	215,621	109,213
329,041	4,043	215,464	109,538
330,056	3,707	215,593	109,354
331,070	3,490	215,195	108,988
332,085	3,267	215,050	108,746
333,100	3,408	214,799	108,710
334,114	3,248	214,809	108,592
335,129	3,744	214,488	108,771
336,143	3,591	214,485	108,652
337,158	3,255	214,461	108,393
338,173	3,469	214,221	108,412
339,187	3,252	214,069	108,173
340,202	3,038	214,039	107,997
341,216	3,252	213,725	107,979
342,231	3,165	213,627	107,859
343,246	3,265	213,479	107,845
344,260	3,298	213,289	107,763
345,275	3,171	213,418	107,729
346,289	3,411	213,223	107,790
347,304	3,630	212,966	107,804
348,319	3,327	212,930	107,563
349,333	3,581	212,734	107,633
350,348	3,350	212,692	107,440
351,362	3,518	212,513	107,458
352,377	3,440	212,509	107,392
353,392	3,442	212,307	107,281
354,406	3,688	212,157	107,368
355,421	196,176	1341,451	1422,124
356,435	156,751	1479,016	1422,115
