DTS Sentinel unit serial number:	SN410029Multiplexer serial number:	ORYXHardware model number:	OX2-SRSoftware version number:	ORYX F/W v4,00 Oryx Data Collector v3.7.2.0data status	okinstallation	B6 Nyhavnadifferential loss correction	single-endedforward channel	channel 2reverse channel	N/Adate	2023/12/11time	06:55:08forward acquisition time	300,00reverse acquisition time	0,00gamma	499,1914k internal	0,3125k external	0,3125temperature offset calibration	1,0000default loss term (dB/km)	0,3820temperature slope calibration	1,0000multiplexer offset coefficient	1,0000multiplexer slope coefficient	1,0000fibre end	0,00T internal ref (°C)	19,31T ext. ref 1 (°C)	2,38T ext. ref 2 (°C)	2,44length (m)	temperature (°C)	Stokes	anti-Stokes-744,400	498,379	0,059	-0,102
-743,385	-183,800	-0,294	-0,004
-742,371	-87,422	-0,026	0,006
-741,356	329,364	-0,082	0,118
-740,342	-200,000	0,003	0,040
-739,327	-127,797	-0,252	0,027
-738,312	-200,000	-0,036	-0,170
-737,298	-117,058	-0,222	0,030
-736,283	-200,000	0,016	0,081
-735,269	-84,178	-0,182	-0,043
-734,254	39,666	0,122	0,081
-733,239	-154,340	-0,455	-0,022
-732,225	166,632	0,127	0,134
-731,210	182,071	-0,108	0,118
-730,196	-94,667	-0,123	-0,025
-729,181	15,173	-0,070	0,041
-728,167	-144,545	0,164	0,011
-727,152	299,679	-0,022	0,030
-726,137	-121,527	0,034	0,004
-725,123	-45,271	-0,135	0,050
-724,108	162,623	-0,023	-0,024
-723,094	38,739	0,045	0,030
-722,079	-6,629	-0,095	-0,048
-721,064	515,587	-0,046	0,080
-720,050	800,000	0,005	-0,011
-719,035	-102,245	-0,118	0,021
-718,021	-21,509	0,082	0,037
-717,006	-92,952	-0,093	-0,019
-715,991	167,448	-0,081	-0,086
-714,977	-200,000	0,019	-0,088
-713,962	-129,014	-0,054	-0,006
-712,948	800,000	0,021	-0,060
-711,933	442,977	0,039	-0,064
-710,918	-23,221	0,117	0,052
-709,904	-3,337	-0,111	-0,057
-708,889	498,131	-0,080	-0,138
-707,875	-9,043	-0,079	0,039
-706,860	-200,000	0,004	-0,035
-705,845	-129,524	0,043	-0,004
-704,831	27,091	-0,038	0,024
-703,816	346,268	-0,090	-0,132
-702,802	-23,569	0,197	-0,088
-701,787	38,984	-0,162	-0,108
-700,772	800,000	0,058	-0,138
-699,758	111,347	0,069	0,062
-698,743	63,164	0,127	0,094
-697,729	800,000	-0,031	0,076
-696,714	-200,000	0,017	-0,113
-695,699	-200,000	0,026	-0,098
-694,685	-142,177	-0,071	0,005
-693,670	-56,073	0,086	0,028
-692,656	55,685	0,033	-0,024
-691,641	-200,000	0,025	0,098
-690,627	605,371	-0,020	-0,038
-689,612	424,271	0,022	0,035
-688,597	350,737	-0,012	-0,018
-687,583	550,596	-0,062	-0,110
-686,568	470,046	-0,065	-0,109
-685,554	73,311	0,056	0,044
-684,539	-13,153	0,087	0,042
-683,524	-200,000	-0,002	-0,007
-682,510	800,000	-0,032	-0,072
-681,495	-4,919	-0,099	-0,050
-680,481	-200,000	-0,029	-0,097
-679,466	-200,000	-0,011	-0,091
-678,451	-154,869	-0,203	0,010
-677,437	800,000	-0,003	-0,009
-676,422	-169,367	0,075	0,002
-675,408	99,393	0,071	0,061
-674,393	647,468	0,038	-0,072
-673,378	-139,044	-0,050	0,004
-672,364	800,000	-0,058	-0,123
-671,349	412,474	0,053	-0,085
-670,335	248,272	-0,098	0,124
-669,320	220,314	0,031	0,036
-668,305	-200,000	0,035	0,131
-667,291	75,625	0,045	-0,035
-666,276	254,980	-0,070	0,089
-665,262	-200,000	-0,015	-0,053
-664,247	-200,000	-0,023	0,121
-663,232	215,037	0,087	-0,103
-662,218	174,106	-0,093	0,100
-661,203	-60,435	0,144	0,045
-660,189	4,284	-0,085	0,046
-659,174	-131,292	0,084	0,008
-658,159	13,188	-0,058	-0,033
-657,145	-34,161	-0,031	0,013
-656,130	37,568	0,064	0,042
-655,116	-26,907	0,029	0,013
-654,101	123,047	0,072	-0,067
-653,086	-200,000	0,020	0,143
-652,072	-200,000	0,033	-0,241
-651,057	18,111	-0,049	0,029
-650,043	-12,072	-0,136	0,066
-649,028	605,385	-0,011	-0,021
-648,014	-200,000	-0,007	0,099
-646,999	-116,486	0,104	0,014
-645,984	-200,000	-0,010	-0,075
-644,970	329,245	0,043	-0,062
-643,955	-7,914	-0,072	-0,036
-642,941	86,918	-0,102	-0,084
-641,926	800,000	-0,043	-0,095
-640,911	178,638	-0,031	-0,034
-639,897	-200,000	-0,037	0,139
-638,882	800,000	-0,029	-0,081
-637,868	800,000	-0,064	-0,139
-636,853	87,432	-0,062	-0,051
-635,838	85,454	0,092	-0,075
-634,824	171,344	-0,064	-0,068
-633,809	123,405	0,051	-0,047
-632,795	800,000	-0,015	-0,036
-631,780	800,000	0,023	0,059
-630,765	-136,004	0,063	0,005
-629,751	-79,562	-0,066	0,016
-628,736	-200,000	-0,026	-0,091
-627,722	-200,000	0,007	0,082
-626,707	-200,000	-0,020	-0,098
-625,692	-200,000	0,021	0,088
-624,678	-0,291	0,069	0,036
-623,663	-200,000	-0,011	0,115
-622,649	59,696	-0,174	-0,127
-621,634	-14,910	0,048	-0,023
-620,619	-102,073	0,148	-0,026
-619,605	-200,000	0,009	0,039
-618,590	-97,429	0,094	-0,018
-617,576	-157,803	-0,131	-0,006
-616,561	795,039	-0,049	0,100
-615,546	800,000	0,047	-0,111
-614,532	-128,968	-0,031	-0,003
-613,517	-200,000	0,022	-0,124
-612,503	222,508	0,039	-0,047
-611,488	-200,000	0,010	0,046
-610,474	203,123	-0,061	-0,070
-609,459	-200,000	-0,011	0,123
-608,444	-200,000	0,007	-0,054
-607,430	213,356	-0,053	-0,062
-606,415	-36,062	0,127	0,051
-605,401	-106,017	0,023	-0,004
-604,386	-184,214	0,218	-0,003
-603,371	485,306	0,110	0,186
-602,357	166,988	-0,022	-0,023
-601,342	-136,843	-0,014	-0,001
-600,328	-200,000	-0,002	0,067
-599,313	106,726	0,052	-0,045
-598,298	-200,000	0,006	0,032
-597,284	86,446	-0,033	-0,027
-596,269	-157,639	0,122	-0,005
-595,255	-52,286	-0,050	0,017
-594,240	-156,098	-0,082	-0,004
-593,225	-200,000	0,017	0,087
-592,211	403,242	0,032	0,050
-591,196	800,000	0,055	-0,178
-590,182	-157,559	0,114	-0,005
-589,167	-65,833	0,116	-0,034
-588,152	200,162	0,039	0,045
-587,138	-106,754	0,067	0,011
-586,123	-200,000	0,017	-0,160
-585,109	41,815	-0,115	-0,077
-584,094	694,843	-0,040	-0,078
-583,079	-65,808	0,060	-0,018
-582,065	68,540	-0,019	-0,015
-581,050	-200,000	-0,016	-0,068
-580,036	800,000	0,019	-0,054
-579,021	571,182	-0,054	0,097
-578,006	159,354	-0,173	-0,178
-576,992	224,742	0,023	0,027
-575,977	-93,460	0,035	0,007
-574,963	-42,719	0,042	-0,016
-573,948	-20,631	0,090	-0,041
-572,934	-93,639	0,102	0,021
-571,919	302,637	0,028	0,038
-570,904	98,177	-0,070	-0,060
-569,890	643,708	-0,044	0,084
-568,875	-75,160	-0,064	-0,017
-567,861	-64,946	-0,053	-0,016
-566,846	800,000	0,016	-0,050
-565,831	-200,000	0,017	0,084
-564,817	81,454	0,087	0,069
-563,802	-17,155	0,082	0,038
-562,788	67,183	0,024	-0,018
-561,773	136,688	-0,116	-0,112
-560,758	-35,035	-0,067	0,027
-559,744	-200,000	-0,004	-0,116
-558,729	33,912	-0,067	0,043
-557,715	-200,000	-0,003	-0,098
-556,700	-152,231	-0,167	0,009
-555,685	45,943	-0,080	-0,055
-554,671	-200,000	0,021	0,172
-553,656	-37,648	0,114	0,045
-552,642	97,036	-0,150	0,127
-551,627	549,336	0,142	0,252
-550,612	-135,775	-0,068	-0,006
-549,598	499,687	0,035	-0,061
-548,583	-155,576	-0,096	0,004
-547,569	-190,788	-0,084	0,001
-546,554	-169,783	0,027	0,001
-545,539	26,999	0,141	-0,087
-544,525	-67,399	0,017	-0,005
-543,510	-52,277	-0,107	0,036
-542,496	-200,000	-0,016	-0,080
-541,481	722,411	-0,100	-0,197
-540,466	-87,174	0,088	-0,020
-539,452	118,280	0,062	0,056
-538,437	-200,000	-0,003	-0,019
-537,423	-176,453	-0,076	-0,001
-536,408	303,265	-0,068	0,093
-535,393	196,332	-0,040	-0,045
-534,379	800,000	-0,036	-0,075
-533,364	-200,000	-0,013	-0,068
-532,350	-173,260	0,154	0,003
-531,335	-80,061	-0,053	-0,013
-530,321	800,000	-0,030	0,073
-529,306	585,373	0,051	0,094
-528,291	-14,639	-0,164	-0,078
-527,277	-71,173	-0,129	-0,036
-526,262	-3,002	-0,102	0,053
-525,248	-200,000	0,038	0,154
-524,233	475,710	-0,011	0,019
-523,218	-8,178	-0,040	-0,020
-522,204	-200,000	0,021	0,119
-521,189	-200,000	-0,011	-0,116
-520,175	14,415	0,079	-0,046
-519,160	89,842	0,098	0,081
-518,145	82,046	-0,190	-0,152
-517,131	800,000	0,054	0,172
-516,116	249,334	0,106	-0,133
-515,102	-105,776	-0,082	-0,014
-514,087	-89,070	-0,059	-0,013
-513,072	-200,000	-0,015	-0,084
-512,058	-29,037	-0,076	0,032
-511,043	54,459	0,049	0,035
-510,029	-71,652	-0,155	-0,042
-509,014	-200,000	0,004	0,092
-507,999	-147,637	0,073	-0,004
-506,985	-200,000	-0,002	0,139
-505,970	-9,906	0,022	0,011
-504,956	800,000	0,023	-0,049
-503,941	52,256	0,080	-0,056
-502,926	64,431	0,129	-0,095
-501,912	427,080	-0,049	0,078
-500,897	800,000	0,056	-0,144
-499,883	800,000	-0,024	-0,077
-498,868	40,731	-0,037	-0,024
-497,853	-121,176	-0,145	-0,018
-496,839	-200,000	0,008	-0,217
-495,824	5,537	0,181	0,098
-494,810	-28,093	-0,153	-0,065
-493,795	-44,933	0,072	0,026
-492,781	-200,000	0,005	0,033
-491,766	800,000	-0,037	-0,096
-490,751	-200,000	0,000	0,006
-489,737	279,406	-0,062	-0,081
-488,722	-179,254	0,101	0,002
-487,708	-188,445	0,138	0,001
-486,693	800,000	0,029	-0,073
-485,678	-3,418	0,087	-0,045
-484,664	-200,000	0,000	-0,083
-483,649	341,536	-0,034	0,050
-482,635	71,217	-0,056	-0,043
-481,620	-200,000	0,022	-0,077
-480,605	128,549	-0,056	0,053
-479,591	-23,188	-0,057	-0,025
-478,576	-71,845	-0,166	-0,045
-477,562	-200,000	-0,004	-0,284
-476,547	161,615	-0,072	-0,074
-475,532	104,607	0,015	-0,013
-474,518	-200,000	0,020	0,072
-473,503	287,815	0,112	-0,149
-472,489	168,637	0,102	0,107
-471,474	36,583	-0,049	-0,032
-470,459	-11,151	-0,025	-0,012
-469,445	-68,059	0,062	0,018
-468,430	123,127	-0,034	-0,032
-467,416	56,997	-0,015	-0,010
-466,401	800,000	0,035	0,075
-465,386	122,598	-0,114	0,105
-464,372	50,542	-0,085	-0,059
-463,357	668,768	-0,069	0,133
-462,343	-200,000	-0,048	-0,165
-461,328	800,000	-0,046	-0,134
-460,313	348,771	-0,049	0,072
-459,299	800,000	-0,025	0,071
-458,284	800,000	0,068	0,141
-457,270	437,327	0,068	0,110
-456,255	-119,728	-0,210	0,026
-455,241	800,000	0,014	0,037
-454,226	257,746	0,075	0,095
-453,211	-129,315	0,049	-0,005
-452,197	-200,000	0,025	-0,131
-451,182	-139,239	0,084	-0,007
-450,168	69,051	0,095	0,071
-449,153	36,751	0,069	-0,045
-448,138	79,811	-0,054	0,043
-447,124	99,437	-0,113	-0,096
-446,109	-107,764	-0,044	0,007
-445,095	-200,000	-0,002	0,034
-444,080	277,068	-0,105	0,138
-443,065	-200,000	0,023	-0,077
-442,051	800,000	0,053	-0,122
-441,036	247,690	-0,036	-0,045
-440,022	-200,000	0,026	0,088
-439,007	800,000	0,019	-0,055
-437,992	168,560	0,051	-0,054
-436,978	632,070	0,092	0,173
-435,963	-63,661	-0,115	0,034
-434,949	13,566	-0,084	0,048
-433,934	72,921	0,099	-0,076
-432,919	118,697	-0,090	-0,082
-431,905	116,878	-0,121	0,110
-430,890	23,894	-0,023	0,014
-429,876	148,160	-0,026	0,026
-428,861	-200,000	-0,037	0,172
-427,846	-200,000	0,012	0,097
-426,832	800,000	0,097	-0,278
-425,817	-6,696	-0,162	-0,081
-424,803	55,340	-0,107	-0,076
-423,788	800,000	0,008	0,025
-422,773	800,000	-0,035	0,094
-421,759	-74,042	-0,099	0,026
-420,744	-200,000	0,016	0,129
-419,730	-200,000	-0,002	0,029
-418,715	-200,000	0,017	0,083
-417,701	358,009	-0,090	-0,133
-416,686	-148,524	0,038	-0,002
-415,671	50,911	0,050	0,035
-414,657	308,810	-0,073	-0,100
-413,642	92,729	-0,014	0,012
-412,628	-109,333	-0,167	0,026
-411,613	-49,797	-0,066	-0,023
-410,598	-200,000	0,024	-0,081
-409,584	-200,000	0,007	0,040
-408,569	353,560	-0,043	-0,062
-407,555	-200,000	0,036	0,147
-406,540	92,112	0,055	-0,046
-405,525	-200,000	-0,001	0,061
-404,511	87,839	-0,058	0,047
-403,496	-200,000	0,001	-0,066
-402,482	-200,000	0,010	0,055
-401,467	800,000	0,055	0,158
-400,452	-171,058	0,223	0,005
-399,438	180,250	0,046	-0,049
-398,423	800,000	-0,037	-0,112
-397,409	260,853	0,072	0,092
-396,394	-200,000	0,006	0,026
-395,379	800,000	-0,039	0,093
-394,365	-1,275	-0,042	0,022
-393,350	-106,437	0,077	-0,012
-392,336	276,897	0,020	0,026
-391,321	-49,309	-0,071	0,025
-390,306	-46,073	-0,069	-0,025
-389,292	-116,210	0,033	0,004
-388,277	202,982	0,033	0,038
-387,263	74,689	0,056	-0,043
-386,248	-200,000	0,019	-0,143
-385,233	-23,536	-0,042	-0,018
-384,219	-200,000	0,038	0,154
-383,204	-200,000	0,012	-0,046
-382,190	270,341	-0,027	0,035
-381,175	167,259	-0,021	0,022
-380,160	-200,000	-0,001	0,090
-379,146	-15,331	0,229	0,107
-378,131	512,167	-0,017	0,029
-377,117	82,466	0,060	-0,048
-376,102	78,996	0,031	-0,024
-375,088	-61,862	-0,068	-0,021
-374,073	264,908	0,054	0,069
-373,058	-200,000	0,007	0,053
-372,044	61,466	0,025	-0,018
-371,029	-140,401	0,116	0,009
-370,015	403,743	0,077	-0,120
-369,000	-200,000	-0,014	-0,071
-367,985	632,331	-0,058	0,108
-366,971	8,979	-0,169	0,094
-365,956	740,563	0,012	-0,025
-364,942	800,000	-0,020	0,050
-363,927	-200,000	0,009	-0,114
-362,912	-200,000	0,025	-0,104
-361,898	-200,000	0,002	-0,142
-360,883	326,710	-0,087	-0,122
-359,869	-120,520	-0,029	-0,004
-358,854	81,580	-0,061	-0,049
-357,839	-200,000	-0,019	0,090
-356,825	281,546	0,025	0,033
-355,810	-141,194	-0,087	0,006
-354,796	125,718	-0,054	0,050
-353,781	143,828	-0,061	0,059
-352,766	-67,142	0,106	-0,030
-351,752	314,836	0,029	-0,040
-350,737	800,000	0,049	0,123
-349,723	-4,649	0,124	0,063
-348,708	161,119	-0,081	0,083
-347,693	-200,000	-0,013	0,051
-346,679	605,969	0,072	-0,132
-345,664	-143,015	-0,126	0,009
-344,650	325,629	0,119	0,167
-343,635	137,285	0,088	0,084
-342,620	-200,000	-0,003	-0,180
-341,606	566,990	0,017	0,031
-340,591	-72,744	-0,042	0,011
-339,577	-200,000	-0,011	-0,073
-338,562	514,511	-0,036	0,061
-337,548	137,049	-0,086	0,083
-336,533	-95,055	0,099	-0,019
-335,518	15,344	0,199	0,114
-334,504	-200,000	0,003	0,082
-333,489	-82,891	-0,036	-0,008
-332,475	-200,000	-0,035	-0,123
-331,460	165,744	-0,028	-0,030
-330,445	68,363	-0,022	0,016
-329,431	-56,502	-0,082	0,026
-328,416	418,763	0,064	0,101
-327,402	51,570	0,045	-0,031
-326,387	-200,000	-0,020	-0,104
-325,372	-47,617	0,087	-0,031
-324,358	608,955	-0,081	-0,148
-323,343	-200,000	-0,025	0,120
-322,329	115,836	-0,063	-0,056
-321,314	89,748	0,077	0,063
-320,299	253,031	-0,030	-0,038
-319,285	584,821	-0,019	0,034
-318,270	800,000	-0,026	-0,080
-317,256	800,000	-0,027	-0,062
-316,241	-173,323	0,019	0,000
-315,226	-47,223	0,101	0,036
-314,212	-94,736	-0,126	-0,025
-313,197	-200,000	0,015	0,118
-312,183	9,782	-0,113	0,063
-311,168	-200,000	0,007	-0,026
-310,153	189,150	-0,015	-0,016
-309,139	-152,414	-0,111	0,006
-308,124	-85,060	0,066	0,015
-307,110	535,928	0,077	-0,134
-306,095	155,954	0,100	0,101
-305,080	800,000	-0,029	-0,065
-304,066	-72,649	0,101	-0,027
-303,051	800,000	0,023	0,054
-302,037	18,193	-0,057	-0,033
-301,022	112,273	-0,039	-0,034
-300,008	-22,546	0,095	-0,042
-298,993	423,212	-0,042	0,067
-297,978	-21,190	0,030	0,013
-296,964	297,490	-0,034	-0,045
-295,949	800,000	0,013	-0,026
-294,935	800,000	-0,027	-0,085
-293,920	-178,240	0,057	0,001
-292,905	800,000	0,009	0,026
-291,891	20,636	-0,089	0,052
-290,876	608,857	-0,023	-0,042
-289,862	65,390	-0,046	0,034
-288,847	-200,000	0,014	0,046
-287,832	401,967	-0,051	-0,078
-286,818	-130,249	-0,085	0,008
-285,803	-200,000	0,023	0,188
-284,789	-92,868	0,163	0,033
-283,774	672,631	0,019	-0,037
-282,759	-200,000	-0,008	0,097
-281,745	-102,419	-0,149	0,026
-280,730	800,000	0,003	0,011
-279,716	-126,465	0,024	0,003
-278,701	800,000	0,011	0,034
-277,686	-200,000	0,002	-0,033
-276,672	-200,000	0,009	0,033
-275,657	776,225	-0,034	-0,068
-274,643	113,568	-0,027	0,024
-273,628	-198,789	-0,190	0,001
-272,613	-157,300	-0,083	-0,004
-271,599	-200,000	0,032	0,128
-270,584	159,404	0,030	0,031
-269,570	-200,000	-0,014	0,078
-268,555	64,773	0,056	-0,041
-267,540	485,168	-0,080	0,133
-266,526	-74,409	0,038	-0,010
-265,511	524,549	0,012	-0,020
-264,497	82,812	0,034	0,027
-263,482	-77,212	0,081	-0,021
-262,467	-200,000	-0,020	-0,170
-261,453	196,832	0,049	0,055
-260,438	127,074	-0,110	-0,102
-259,424	215,092	0,032	0,037
-258,409	-22,366	-0,127	-0,056
-257,395	554,365	-0,027	0,048
-256,380	-26,522	0,089	0,038
-255,365	-109,463	0,137	0,021
-254,351	-62,557	0,038	0,012
-253,336	730,453	-0,099	-0,194
-252,322	13,872	-0,133	-0,075
-251,307	-200,000	-0,006	-0,026
-250,292	168,685	-0,084	0,087
-249,278	-84,736	0,047	-0,011
-248,263	-200,000	0,003	0,029
-247,249	78,002	0,056	-0,043
-246,234	-30,528	0,043	-0,018
-245,219	-200,000	-0,021	-0,072
-244,205	-125,893	0,012	-0,001
-243,190	350,354	0,071	0,102
-242,176	-145,004	0,070	0,005
-241,161	-9,412	0,028	-0,014
-240,146	-200,000	-0,013	-0,097
-239,132	133,493	0,124	0,118
-238,117	55,657	-0,072	-0,051
-237,103	-72,375	-0,054	-0,015
-236,088	-200,000	-0,010	0,114
-235,073	800,000	-0,075	0,169
-234,059	272,574	0,101	0,131
-233,044	136,065	0,028	-0,027
-232,030	-51,628	0,056	-0,019
-231,015	-82,330	-0,148	0,035
-230,000	-127,968	0,138	0,014
-228,986	251,845	0,036	0,045
-227,971	-200,000	-0,008	0,051
-226,957	-200,000	0,015	0,093
-225,942	800,000	0,059	0,121
-224,927	23,252	0,095	-0,057
-223,913	-29,863	-0,048	0,020
-222,898	233,166	-0,043	-0,052
-221,884	438,129	0,031	0,050
-220,869	-200,000	-0,008	-0,096
-219,855	207,424	-0,073	-0,083
-218,840	-89,238	0,140	0,030
-217,825	-200,000	0,017	-0,077
-216,811	202,862	-0,047	-0,053
-215,796	-200,000	0,002	-0,055
-214,782	258,029	-0,054	0,067
-213,767	800,000	0,030	-0,064
-212,752	22,891	0,039	0,023
-211,738	84,412	0,053	0,042
-210,723	-78,851	0,090	0,022
-209,709	425,962	0,015	-0,023
-208,694	251,905	-0,056	-0,070
-207,679	243,211	0,075	-0,092
-206,665	66,519	-0,131	0,097
-205,650	2,433	0,089	0,047
-204,636	175,356	0,051	0,054
-203,621	272,484	-0,114	0,147
-202,606	11,584	-0,100	-0,056
-201,592	-116,910	0,033	-0,004
-200,577	800,000	-0,026	-0,083
-199,563	-200,000	-0,001	-0,028
-198,548	103,478	-0,081	-0,069
-197,533	191,068	-0,027	0,030
-196,519	524,048	0,064	0,109
-195,504	-63,734	-0,076	-0,023
-194,490	-191,251	-0,091	-0,001
-193,475	-154,434	0,138	-0,007
-192,460	214,009	-0,047	0,054
-191,446	-61,898	-0,068	-0,020
-190,431	26,292	0,104	-0,063
-189,417	132,365	-0,059	-0,056
-188,402	-5,631	0,090	-0,045
-187,387	-200,000	-0,008	-0,048
-186,373	332,839	-0,098	0,138
-185,358	-121,868	0,116	-0,014
-184,344	-200,000	0,015	0,051
-183,329	-124,445	0,056	0,006
-182,315	-102,277	0,128	0,022
-181,300	-200,000	-0,021	-0,248
-180,285	-93,776	0,107	0,021
-179,271	40,873	0,029	0,019
-178,256	5,198	0,117	0,063
-177,242	-52,125	0,152	0,051
-176,227	-200,000	-0,037	0,220
-175,212	27,503	0,108	0,066
-174,198	-51,015	0,097	-0,033
-173,183	-72,353	-0,033	-0,009
-172,169	800,000	0,027	0,072
-171,154	10,388	0,084	-0,047
-170,139	-93,415	-0,049	0,010
-169,125	538,209	-0,065	0,112
-168,110	-200,000	0,011	0,112
-167,096	-25,106	-0,044	0,019
-166,081	-200,000	-0,024	-0,083
-165,066	-67,284	-0,096	-0,027
-164,052	130,485	-0,044	-0,041
-163,037	-133,781	0,071	0,006
-162,023	66,075	0,119	0,088
-161,008	59,598	0,055	0,039
-159,993	-56,839	-0,023	0,007
-158,979	800,000	-0,026	-0,057
-157,964	800,000	-0,034	-0,086
-156,950	-200,000	0,016	0,088
-155,935	800,000	0,015	-0,037
-154,920	-200,000	-0,025	0,111
-153,906	59,327	0,084	0,060
-152,891	93,390	0,047	0,039
-151,877	730,249	0,035	-0,069
-150,862	199,568	0,049	0,054
-149,847	750,897	0,028	-0,056
-148,833	-70,811	0,077	-0,021
-147,818	800,000	0,024	0,049
-146,804	-39,910	0,125	-0,047
-145,789	-33,513	-0,097	0,039
-144,775	-141,738	0,032	-0,002
-143,760	-200,000	0,003	0,088
-142,745	-200,000	-0,020	0,149
-141,731	112,115	0,229	0,201
-140,716	800,000	0,040	0,129
-139,702	-112,901	0,186	-0,026
-138,687	101,346	-0,054	0,046
-137,672	-142,137	0,106	-0,008
-136,658	88,378	-0,118	-0,096
-135,643	-200,000	0,014	-0,084
-134,629	-200,000	-0,003	-0,031
-133,614	800,000	0,010	0,026
-132,599	-200,000	-0,007	0,080
-131,585	342,312	-0,029	-0,041
-130,570	-112,250	0,101	-0,015
-129,556	57,427	-0,088	-0,063
-128,541	-5,766	-0,055	0,027
-127,526	-92,004	0,164	-0,033
-126,512	-126,081	-0,056	0,006
-125,497	-86,805	0,118	-0,026
-124,483	52,772	-0,037	0,026
-123,468	8,082	-0,013	0,007
-122,453	97,448	0,018	-0,015
-121,439	397,032	-0,044	-0,068
-120,424	55,673	-0,089	-0,062
-119,410	-66,037	0,083	0,024
-118,395	800,000	-0,039	0,097
-117,380	-127,797	-0,017	-0,002
-116,366	800,000	-0,052	0,120
-115,351	414,807	-0,062	-0,096
-114,337	141,855	-0,042	-0,040
-113,322	-72,825	-0,042	-0,011
-112,307	8,816	0,018	-0,010
-111,293	-156,786	0,062	-0,003
-110,278	42,271	0,031	0,020
-109,264	135,936	-0,127	-0,120
-108,249	111,610	-0,053	-0,046
-107,234	-91,131	-0,003	-0,001
-106,220	130,634	0,016	-0,015
-105,205	-200,000	0,026	0,090
-104,191	-54,493	-0,081	-0,026
-103,176	-200,000	-0,002	-0,053
-102,162	43,876	-0,023	-0,015
-101,147	-123,422	0,116	-0,013
-100,132	800,000	0,026	0,052
-99,118	-200,000	0,001	0,097
-98,103	10,600	-0,042	0,023
-97,089	-200,000	0,018	0,073
-96,074	-31,471	-0,097	0,040
-95,059	-15,768	0,048	-0,022
-94,045	-51,824	0,133	-0,045
-93,030	800,000	-0,033	0,080
-92,016	-102,351	0,209	0,036
-91,001	23,834	-0,193	0,115
-89,986	-99,007	0,055	-0,010
-88,972	-200,000	0,001	0,173
-87,957	800,000	-0,022	-0,047
-86,943	-95,328	-0,066	0,013
-85,928	800,000	-0,020	0,060
-84,913	-200,000	-0,003	-0,012
-83,899	-130,686	-0,054	-0,005
-82,884	800,000	-0,008	-0,022
-81,870	-200,000	0,005	-0,086
-80,855	800,000	-0,039	-0,080
-79,840	93,320	0,107	-0,087
-78,826	59,247	-0,082	0,059
-77,811	-31,871	0,079	0,032
-76,797	-136,465	0,135	-0,011
-75,782	8,900	-0,037	-0,020
-74,767	303,538	0,086	0,116
-73,753	586,410	-0,018	0,031
-72,738	800,000	-0,018	0,047
-71,724	-200,000	0,022	-0,093
-70,709	20,496	0,082	0,048
-69,694	22,595	-0,025	-0,015
-68,680	-66,707	-0,108	-0,031
-67,665	-147,882	0,133	0,008
-66,651	-116,363	-0,029	-0,004
-65,636	-39,895	0,085	-0,032
-64,622	122,696	-0,053	-0,048
-63,607	-200,000	0,011	-0,098
-62,592	-200,000	-0,019	0,068
-61,578	800,000	-0,104	0,213
-60,563	272,177	-0,066	0,085
-59,549	-200,000	-0,019	0,095
-58,534	-68,124	-1,570	-0,441
-57,519	655,736	-0,618	-1,157
-56,505	-200,000	-1,086	-4,720
-55,490	-193,911	0,633	0,004
-54,476	800,000	5,168	12,042
-53,461	-200,000	15,380	275,309
-52,446	-200,000	695,380	2262,600
-51,432	584,166	1615,128	2888,122
-50,417	121,924	1624,418	1469,665
-49,403	82,567	1283,092	1009,362
-48,388	37,394	1024,955	657,388
-47,373	22,152	985,968	582,008
-46,359	21,064	975,028	571,942
-45,344	19,572	970,735	564,499
-44,330	19,624	969,500	563,927
-43,315	19,390	968,057	562,300
-42,300	19,371	966,826	561,499
-41,286	19,342	965,885	560,835
-40,271	19,366	964,739	560,226
-39,257	19,352	964,015	559,739
-38,242	19,368	963,213	559,303
-37,227	19,331	962,405	558,690
-36,213	19,358	961,586	558,280
-35,198	19,242	960,612	557,316
-34,184	19,355	959,908	557,254
-33,169	19,292	958,972	556,481
-32,154	19,387	958,191	556,314
-31,140	19,334	957,157	555,522
-30,125	19,412	956,439	555,333
-29,111	19,355	955,665	554,680
-28,096	19,370	955,034	554,339
-27,082	19,385	954,211	553,887
-26,067	19,347	953,499	553,330
-25,052	19,339	952,931	552,952
-24,038	19,333	952,095	552,426
-23,023	19,367	951,398	552,111
-22,009	19,366	950,771	551,720
-20,994	19,381	950,154	551,391
-19,979	19,348	949,547	550,910
-18,965	19,332	948,889	550,455
-17,950	19,361	948,235	550,146
-16,936	19,270	947,654	549,496
-15,921	19,297	947,050	549,210
-14,906	19,242	946,234	548,538
-13,892	19,245	945,576	548,146
-12,877	19,182	944,923	547,542
-11,863	19,160	944,290	547,085
-10,848	19,243	943,762	547,020
-9,833	19,342	943,225	547,004
-8,819	19,236	942,724	546,353
-7,804	19,280	942,009	546,057
-6,790	19,218	941,447	545,514
-5,775	19,236	940,967	545,270
-4,760	19,244	940,177	544,816
-3,746	19,193	939,692	544,353
-2,731	19,067	938,875	543,456
-1,717	19,015	938,244	542,904
-0,702	19,008	937,757	542,578
0,313	18,904	936,923	542,586
1,327	21,922	935,392	551,202
2,342	31,212	794,507	492,951
3,356	28,246	449,061	274,134
4,371	-2,438	294,747	149,121
5,386	-6,686	276,031	135,594
6,400	-8,117	270,418	131,488
7,415	-8,426	268,035	130,031
8,429	-7,914	266,922	129,952
9,444	-7,690	265,981	129,688
10,459	-7,564	265,403	129,510
11,473	-7,742	264,911	129,096
12,488	-7,997	264,410	128,608
13,502	-8,092	263,776	128,201
14,517	-7,921	263,629	128,274
15,531	-7,487	263,108	128,403
16,546	-7,265	262,735	128,412
17,561	-7,404	262,495	128,156
18,575	-7,428	262,330	128,042
19,590	-7,350	261,743	127,815
20,604	-7,131	261,489	127,877
21,619	-7,557	261,274	127,376
22,634	-7,263	260,803	127,400
23,648	-7,548	260,613	127,040
24,663	-7,410	260,257	126,979
25,677	-7,508	259,904	126,708
26,692	-7,337	259,776	126,787
27,707	-7,645	259,648	126,438
28,721	-7,586	259,350	126,334
29,736	-7,676	259,169	126,154
30,750	-7,501	258,644	126,043
31,765	-7,408	258,549	126,069
32,780	-7,578	258,327	125,798
33,794	-7,441	258,097	125,796
34,809	-7,465	257,973	125,704
35,823	-7,595	257,686	125,437
36,838	-7,353	257,314	125,459
37,853	-7,577	257,146	125,168
38,867	-7,949	257,087	124,799
39,882	-7,518	256,780	125,020
40,896	-7,447	256,495	124,932
41,911	-7,438	256,213	124,792
42,926	-7,516	255,962	124,589
43,940	-7,538	255,631	124,398
44,955	-7,661	255,528	124,229
45,969	-7,758	255,321	124,032
46,984	-7,792	254,999	123,835
47,999	-8,020	254,805	123,529
49,013	-8,164	254,649	123,317
50,028	-8,222	254,400	123,134
51,042	-8,111	254,125	123,086
52,057	-8,291	253,986	122,851
53,071	-8,262	253,758	122,755
54,086	-7,960	253,504	122,884
55,101	-8,049	253,387	122,740
56,115	-7,905	253,185	122,757
57,130	-7,548	253,053	122,992
58,144	-7,501	252,840	122,919
59,159	-7,345	252,665	122,958
60,174	-7,480	252,484	122,741
61,188	-7,457	252,239	122,632
62,203	-7,407	252,017	122,556
63,217	-7,378	251,746	122,438
64,232	-7,366	251,556	122,346
65,247	-7,595	251,371	122,047
66,261	-7,367	251,165	122,132
67,276	-7,754	251,063	121,739
68,290	-7,705	250,658	121,573
69,305	-7,852	250,465	121,342
70,320	-7,907	250,247	121,179
71,334	-7,720	250,087	121,251
72,349	-7,492	249,942	121,365
73,363	-7,463	249,827	121,324
74,378	-7,349	249,619	121,310
75,393	-7,344	249,436	121,214
76,407	-7,599	249,323	120,930
77,422	-7,606	249,043	120,778
78,436	-7,613	248,781	120,634
79,451	-7,618	248,609	120,535
80,466	-7,532	248,327	120,461
81,480	-7,674	248,138	120,238
82,495	-7,930	247,918	119,902
83,509	-7,808	247,823	119,950
84,524	-7,631	247,562	119,963
85,539	-7,709	247,439	119,827
86,553	-7,823	247,141	119,576
87,568	-7,821	247,038	119,516
88,582	-7,864	246,864	119,385
89,597	-7,907	246,581	119,201
90,611	-7,666	246,496	119,353
91,626	-7,522	246,442	119,438
92,641	-7,436	246,161	119,364
93,655	-7,513	245,828	119,127
94,670	-7,857	245,787	118,807
95,684	-7,740	245,428	118,721
96,699	-7,613	245,225	118,719
97,714	-7,784	245,170	118,538
98,728	-7,821	244,953	118,391
99,743	-7,993	244,847	118,185
100,757	-7,892	244,570	118,125
101,772	-7,713	244,250	118,110
102,787	-7,981	244,223	117,863
103,801	-7,765	243,956	117,903
104,816	-7,712	243,780	117,852
105,830	-7,468	243,584	117,950
106,845	-7,560	243,505	117,825
107,860	-7,717	243,273	117,572
108,874	-7,779	243,069	117,411
109,889	-8,030	242,956	117,137
110,903	-7,646	242,594	117,271
111,918	-7,965	242,512	116,956
112,933	-7,713	242,430	117,116
113,947	-7,644	242,316	117,107
114,962	-7,848	241,986	116,768
115,976	-7,523	241,817	116,945
116,991	-7,721	241,821	116,773
118,006	-7,678	241,389	116,589
119,020	-7,613	241,413	116,644
120,035	-7,537	241,288	116,636
121,049	-7,790	241,198	116,374
122,064	-7,637	240,966	116,377
123,079	-7,659	240,805	116,271
124,093	-8,043	240,470	115,782
125,108	-7,819	240,207	115,830
126,122	-7,684	239,988	115,824
127,137	-7,892	239,789	115,548
128,151	-8,039	239,841	115,442
129,166	-7,953	239,703	115,436
130,181	-7,851	239,392	115,359
131,195	-7,890	238,964	115,111
132,210	-7,942	238,973	115,063
133,224	-7,760	238,773	115,105
134,239	-7,652	238,713	115,153
135,254	-7,699	238,508	115,006
136,268	-7,954	238,141	114,611
137,283	-7,893	237,953	114,560
138,297	-7,900	237,869	114,503
139,312	-8,120	237,667	114,218
140,327	-8,003	237,605	114,273
141,341	-7,420	237,510	114,690
142,356	-7,401	237,292	114,590
143,370	-7,387	237,208	114,550
144,385	-7,205	236,965	114,569
145,400	-7,357	236,913	114,411
146,414	-7,319	236,741	114,349
147,429	-7,502	236,563	114,105
148,443	-7,541	236,341	113,956
149,458	-7,568	236,216	113,864
150,473	-7,378	236,030	113,917
151,487	-7,605	235,766	113,597
152,502	-7,576	235,727	113,591
153,516	-7,460	235,525	113,577
154,531	-7,528	235,397	113,451
155,546	-7,518	235,143	113,326
156,560	-7,692	234,876	113,048
157,575	-7,787	234,758	112,905
158,589	-7,941	234,633	112,712
159,604	-7,370	234,451	113,071
160,619	-7,262	234,341	113,094
161,633	-7,064	234,194	113,170
162,648	-7,234	233,927	112,896
163,662	-7,361	233,815	112,731
164,677	-7,689	233,712	112,410
165,692	-7,190	233,384	112,639
166,706	-7,122	233,376	112,679
167,721	-7,004	233,300	112,726
168,735	-7,341	233,199	112,399
169,750	-7,303	232,883	112,267
170,764	-7,501	232,813	112,067
171,779	-7,486	232,693	112,011
172,794	-7,409	232,608	112,021
173,808	-7,510	232,358	111,811
174,823	-7,952	231,949	111,255
175,837	-8,073	231,745	111,052
176,852	-7,918	231,677	111,131
177,867	-7,667	231,604	111,284
178,881	-7,639	231,563	111,277
179,896	-7,265	231,406	111,486
180,910	-7,447	231,290	111,277
181,925	-7,354	231,020	111,210
182,940	-7,338	230,846	111,129
183,954	-7,285	230,737	111,108
184,969	-7,253	230,602	111,058
185,983	-7,227	230,568	111,052
186,998	-7,314	230,424	110,905
188,013	-7,213	230,212	110,872
189,027	-7,218	229,961	110,737
190,042	-7,419	229,848	110,516
191,056	-7,371	229,576	110,413
192,071	-7,408	229,441	110,309
193,086	-7,394	229,124	110,158
194,100	-8,071	228,884	109,506
195,115	-9,271	228,172	108,225
196,129	-9,164	228,316	108,366
197,144	-4,888	229,814	112,405
198,159	0,435	231,150	117,217
199,173	3,724	232,046	120,239
200,188	4,186	232,130	120,633
201,202	4,493	232,024	120,807
202,217	4,571	231,901	120,794
203,232	4,541	231,774	120,693
204,246	4,652	231,672	120,716
205,261	4,808	231,353	120,661
206,275	4,677	231,336	120,539
207,290	4,813	231,170	120,548
208,304	4,539	231,201	120,339
209,319	4,627	230,912	120,247
210,334	4,733	230,551	120,131
211,348	4,516	230,411	119,879
212,363	4,055	230,095	119,346
213,377	3,980	229,750	119,099
214,392	3,652	229,731	118,824
215,407	3,522	229,681	118,687
216,421	3,727	229,356	118,667
217,436	3,684	229,274	118,581
218,450	3,764	228,992	118,486
219,465	3,436	228,710	118,077
220,480	3,482	228,784	118,140
221,494	3,564	228,680	118,139
222,509	3,521	228,512	118,008
223,523	3,715	228,380	118,078
224,538	3,824	228,222	118,070
225,553	3,637	228,085	117,845
226,567	3,793	227,960	117,890
227,582	3,822	227,901	117,871
228,596	3,838	227,838	117,840
229,611	3,821	227,591	117,689
230,626	3,733	227,340	117,482
231,640	3,673	227,288	117,398
232,655	3,936	227,015	117,448
233,669	4,165	226,946	117,576
234,684	4,170	226,882	117,537
235,699	4,009	226,777	117,349
236,713	3,852	226,448	117,049
237,728	3,605	226,332	116,790
238,742	3,825	226,092	116,823
239,757	3,772	226,014	116,732
240,772	3,837	225,830	116,676
241,786	3,676	225,895	116,577
242,801	3,965	225,717	116,694
243,815	4,337	225,606	116,908
244,830	4,155	225,452	116,680
245,844	3,991	225,133	116,380
246,859	3,932	225,025	116,270
247,874	4,156	225,018	116,425
248,888	4,126	224,747	116,252
249,903	3,918	224,560	115,988
250,917	3,670	224,605	115,814
251,932	3,854	224,275	115,772
252,947	3,946	224,099	115,740
253,961	3,747	224,076	115,568
254,976	3,805	223,839	115,479
255,990	4,040	223,700	115,573
257,005	3,883	223,732	115,462
258,020	3,970	223,606	115,452
259,034	4,076	223,438	115,434
260,049	4,083	223,427	115,423
261,063	4,120	223,060	115,251
262,078	4,184	223,106	115,313
263,093	4,320	222,865	115,280
264,107	4,288	222,583	115,100
265,122	4,112	222,415	114,871
266,136	3,984	222,488	114,803
267,151	4,071	222,239	114,729
268,166	4,047	221,879	114,515
269,180	3,568	221,825	114,121
270,195	3,572	221,706	114,053
271,209	3,653	221,538	114,016
272,224	3,934	221,431	114,160
273,239	3,922	221,431	114,140
274,253	3,630	221,042	113,713
275,268	3,887	221,030	113,887
276,282	3,803	220,690	113,640
277,297	3,392	220,797	113,381
278,312	3,552	220,437	113,304
279,326	3,603	220,394	113,310
280,341	3,986	220,239	113,502
281,355	3,944	220,101	113,390
282,370	3,875	219,948	113,251
283,384	3,656	219,829	113,017
284,399	3,603	219,643	112,873
285,414	3,568	219,671	112,851
286,428	3,975	219,340	112,970
287,443	4,054	219,442	113,071
288,457	3,916	219,236	112,853
289,472	3,895	219,060	112,737
290,487	3,492	218,784	112,290
291,501	3,440	218,652	112,174
292,516	3,604	218,373	112,141
293,530	3,520	218,376	112,071
294,545	3,652	218,244	112,090
295,560	3,911	218,257	112,275
296,574	3,861	218,175	112,187
297,589	3,877	217,920	112,057
298,603	3,861	217,787	111,967
299,618	3,871	217,691	111,915
300,633	3,944	217,682	111,954
301,647	3,962	217,529	111,878
302,662	4,047	217,447	111,888
303,676	4,049	217,089	111,695
304,691	4,023	216,982	111,611
305,706	4,181	216,910	111,679
306,720	4,016	216,740	111,462
307,735	3,888	216,532	111,252
308,749	3,819	216,376	111,112
309,764	3,777	216,252	111,009
310,779	3,867	216,307	111,092
311,793	3,919	216,095	111,010
312,808	3,918	215,925	110,912
313,822	4,068	215,701	110,896
314,837	3,697	215,561	110,547
315,852	3,679	215,338	110,409
316,866	3,860	215,329	110,525
317,881	4,054	215,176	110,576
318,895	3,862	215,161	110,421
319,910	3,676	214,844	110,115
320,925	3,574	214,548	109,880
321,939	3,510	214,532	109,816
322,954	3,517	214,510	109,801
323,968	3,767	214,376	109,901
324,983	3,792	214,308	109,874
325,997	3,950	214,086	109,864
327,012	3,837	213,971	109,714
328,027	4,065	213,740	109,748
329,041	4,334	213,653	109,885
330,056	4,400	213,608	109,899
331,070	3,952	213,371	109,449
332,085	3,527	213,178	109,038
333,100	3,729	213,080	109,121
334,114	4,046	212,906	109,248
335,129	3,818	212,843	109,044
336,143	3,776	212,561	108,860
337,158	3,588	212,496	108,684
338,173	3,719	212,524	108,782
339,187	3,768	212,157	108,618
340,202	3,420	212,038	108,302
341,216	3,523	211,893	108,291
342,231	3,657	211,897	108,378
343,246	3,625	211,707	108,249
344,260	3,584	211,614	108,162
345,275	3,464	211,600	108,061
346,289	3,834	211,436	108,228
347,304	4,035	211,342	108,311
348,319	3,816	211,199	108,075
349,333	3,837	210,928	107,941
350,348	3,761	210,844	107,835
351,362	3,894	210,758	107,875
352,377	4,261	210,584	108,033
353,392	3,964	210,400	107,722
354,406	4,049	210,245	107,692
355,421	192,945	1343,423	1427,559
356,435	153,971	1481,535	1427,621
