DTS Sentinel unit serial number:	SN410029Multiplexer serial number:	ORYXHardware model number:	OX2-SRSoftware version number:	ORYX F/W v4,00 Oryx Data Collector v3.7.2.0data status	okinstallation	B6 Nyhavnadifferential loss correction	single-endedforward channel	channel 2reverse channel	N/Adate	2023/12/09time	06:25:08forward acquisition time	300,00reverse acquisition time	0,00gamma	499,1914k internal	0,3141k external	0,3141temperature offset calibration	1,0000default loss term (dB/km)	0,3820temperature slope calibration	1,0000multiplexer offset coefficient	1,0000multiplexer slope coefficient	1,0000fibre end	0,00T internal ref (°C)	18,43T ext. ref 1 (°C)	2,27T ext. ref 2 (°C)	2,30length (m)	temperature (°C)	Stokes	anti-Stokes-744,400	159,007	0,061	0,063
-743,385	-114,834	-0,278	0,039
-742,371	-58,513	0,111	-0,035
-741,356	136,255	-0,229	0,221
-740,342	-118,428	0,224	0,029
-739,327	-106,061	-0,316	-0,052
-738,312	95,361	0,111	-0,094
-737,298	-90,473	-0,226	0,048
-736,283	-200,000	0,011	-0,086
-735,269	-176,911	-0,235	-0,004
-734,254	-98,937	0,038	-0,007
-733,239	-30,270	-0,427	-0,179
-732,225	26,559	0,150	0,093
-731,210	800,000	0,021	0,062
-730,196	-132,340	-0,064	-0,006
-729,181	-158,089	0,042	-0,002
-728,167	-200,000	-0,004	-0,104
-727,152	-200,000	0,003	0,018
-726,137	406,312	-0,054	-0,084
-725,123	203,859	-0,051	0,058
-724,108	131,237	-0,095	-0,091
-723,094	800,000	-0,029	-0,077
-722,079	800,000	0,049	-0,103
-721,064	-63,173	-0,084	0,026
-720,050	-110,948	-0,103	-0,016
-719,035	-31,574	-0,178	0,074
-718,021	-200,000	-0,027	0,175
-717,006	187,638	0,061	0,068
-715,991	75,092	0,038	-0,029
-714,977	306,601	0,036	-0,049
-713,962	800,000	0,032	0,069
-712,948	-28,282	-0,033	-0,014
-711,933	-200,000	-0,028	0,124
-710,918	-155,084	0,188	-0,009
-709,904	-200,000	-0,003	-0,017
-708,889	800,000	0,018	-0,043
-707,875	-200,000	-0,010	0,099
-706,860	-200,000	0,004	0,143
-705,845	800,000	-0,026	0,074
-704,831	48,913	0,133	0,092
-703,816	-186,000	-0,101	-0,001
-702,802	-47,068	-0,116	0,042
-701,787	-14,495	-0,022	0,010
-700,772	-200,000	-0,003	-0,124
-699,758	-143,199	0,085	-0,006
-698,743	100,722	0,174	-0,150
-697,729	-50,477	-0,080	0,028
-696,714	800,000	-0,009	-0,025
-695,699	800,000	-0,034	-0,112
-694,685	-74,831	-0,102	-0,027
-693,670	-200,000	0,019	0,145
-692,656	800,000	-0,010	0,026
-691,641	55,510	0,087	-0,062
-690,627	-7,797	-0,049	0,025
-689,612	-137,211	0,143	0,012
-688,597	193,958	-0,127	0,142
-687,583	-69,828	0,108	-0,030
-686,568	783,064	-0,031	0,063
-685,554	800,000	-0,033	-0,087
-684,539	493,538	0,022	0,038
-683,524	17,798	0,049	-0,029
-682,510	105,120	0,108	0,094
-681,495	143,710	-0,058	-0,057
-680,481	54,739	-0,038	0,027
-679,466	232,200	-0,039	-0,048
-678,451	82,951	0,049	0,039
-677,437	-200,000	-0,016	0,134
-676,422	75,742	-0,097	0,075
-675,408	-37,059	0,013	0,005
-674,393	2,446	-0,111	-0,059
-673,378	-200,000	0,008	0,124
-672,364	-114,224	-0,123	0,017
-671,349	7,801	-0,053	-0,029
-670,335	-200,000	0,013	-0,204
-669,320	19,337	-0,130	-0,077
-668,305	-200,000	-0,018	0,119
-667,291	235,593	-0,058	-0,071
-666,276	-115,186	0,083	0,011
-665,262	-200,000	0,015	-0,115
-664,247	87,089	-0,040	-0,032
-663,232	455,152	-0,053	0,087
-662,218	800,000	0,049	-0,117
-661,203	293,052	0,047	-0,063
-660,189	291,888	-0,063	0,086
-659,174	74,761	-0,155	-0,120
-658,159	178,485	0,054	-0,059
-657,145	150,220	-0,048	-0,048
-656,130	-200,000	0,007	-0,043
-655,116	368,721	0,015	0,022
-654,101	61,097	0,106	0,078
-653,086	-200,000	-0,003	0,141
-652,072	174,022	0,045	-0,048
-651,057	553,965	-0,013	0,024
-650,043	49,393	-0,106	0,073
-649,028	-200,000	0,000	-0,009
-648,014	559,340	0,041	-0,074
-646,999	347,012	0,084	0,122
-645,984	-200,000	0,038	0,153
-644,970	800,000	-0,048	-0,126
-643,955	21,465	-0,097	-0,058
-642,941	279,620	-0,076	-0,101
-641,926	-200,000	0,027	-0,134
-640,911	-200,000	0,008	-0,038
-639,897	-200,000	-0,053	0,175
-638,882	41,901	0,107	0,071
-637,868	99,076	-0,069	-0,059
-636,853	-102,409	0,136	-0,024
-635,838	-30,440	0,031	0,013
-634,824	-200,000	0,022	0,085
-633,809	590,635	0,053	0,096
-632,795	-124,243	-0,138	-0,016
-631,780	475,310	-0,078	-0,130
-630,765	-200,000	-0,011	0,054
-629,751	-200,000	0,003	0,086
-628,736	95,891	-0,065	-0,055
-627,722	772,609	-0,039	-0,079
-626,707	160,318	-0,038	-0,039
-625,692	-200,000	0,049	0,175
-624,678	298,003	-0,063	-0,086
-623,663	89,210	0,108	-0,089
-622,649	-164,715	-0,102	-0,003
-621,634	-50,728	0,106	0,037
-620,619	107,832	-0,033	-0,029
-619,605	-19,204	-0,030	-0,013
-618,590	-61,358	0,073	0,022
-617,576	331,782	-0,046	-0,065
-616,561	-124,917	-0,031	0,003
-615,546	466,786	0,101	-0,168
-614,532	5,307	-0,029	0,016
-613,517	-13,087	0,116	0,055
-612,503	-200,000	0,000	0,001
-611,488	189,789	-0,124	0,137
-610,474	-114,343	0,038	-0,005
-609,459	-104,587	0,011	-0,002
-608,444	498,153	-0,024	-0,041
-607,430	117,472	-0,089	0,080
-606,415	-125,352	0,085	-0,009
-605,401	68,793	0,020	0,015
-604,386	50,530	0,050	-0,035
-603,371	-89,231	-0,173	-0,037
-602,357	323,102	0,065	-0,091
-601,342	-7,833	-0,066	0,033
-600,328	-169,057	-0,036	0,001
-599,313	-117,055	0,117	-0,016
-598,298	800,000	-0,019	-0,043
-597,284	-101,973	0,098	0,017
-596,269	237,362	0,054	0,066
-595,255	-200,000	-0,018	0,079
-594,240	800,000	0,052	-0,112
-593,225	655,093	0,032	-0,060
-592,211	800,000	0,006	-0,018
-591,196	-107,707	-0,104	0,017
-590,182	-147,243	0,075	0,005
-589,167	-200,000	0,007	0,094
-588,152	485,626	-0,044	-0,074
-587,138	800,000	-0,059	-0,122
-586,123	-75,199	-0,226	-0,059
-585,109	134,027	-0,033	-0,031
-584,094	143,144	0,075	0,073
-583,079	381,551	0,028	0,042
-582,065	800,000	0,028	-0,057
-581,050	-58,850	-0,051	0,016
-580,036	-200,000	0,033	0,113
-579,021	-200,000	-0,037	-0,131
-578,006	531,646	0,040	-0,069
-576,992	252,252	-0,034	0,043
-575,977	-200,000	0,002	0,060
-574,963	-91,165	-0,068	-0,014
-573,948	48,027	0,032	0,022
-572,934	-32,708	-0,072	-0,029
-571,919	-89,700	-0,048	-0,010
-570,904	-177,822	-0,067	-0,001
-569,890	-25,938	0,053	-0,023
-568,875	78,325	0,035	-0,027
-567,861	16,596	-0,037	0,021
-566,846	-25,681	0,092	-0,040
-565,831	323,195	0,045	-0,064
-564,817	-89,060	-0,144	-0,031
-563,802	-200,000	-0,008	-0,033
-562,788	-200,000	0,005	-0,153
-561,773	-119,656	0,094	-0,012
-560,758	46,085	-0,082	-0,056
-559,744	-7,674	-0,067	0,033
-558,729	-48,088	0,038	0,013
-557,715	48,855	-0,057	-0,039
-556,700	800,000	0,038	-0,089
-555,685	293,831	-0,036	-0,049
-554,671	300,906	0,015	0,020
-553,656	211,995	-0,097	0,113
-552,642	800,000	0,030	0,082
-551,627	159,657	0,054	-0,055
-550,612	-116,141	0,100	0,014
-549,598	-200,000	-0,021	-0,083
-548,583	104,848	0,058	-0,050
-547,569	-200,000	-0,012	-0,076
-546,554	-200,000	-0,007	-0,067
-545,539	-200,000	0,000	0,009
-544,525	-200,000	0,013	-0,098
-543,510	282,405	-0,055	0,072
-542,496	460,982	0,069	-0,114
-541,481	-200,000	0,028	-0,132
-540,466	255,008	0,097	-0,122
-539,452	280,112	0,007	-0,009
-538,437	-47,000	0,102	0,036
-537,423	-19,543	-0,076	0,034
-536,408	800,000	-0,061	-0,134
-535,393	78,725	-0,025	0,020
-534,379	-200,000	-0,004	-0,030
-533,364	-80,078	-0,094	-0,023
-532,350	-200,000	0,012	0,054
-531,335	82,185	0,099	0,079
-530,321	-200,000	-0,021	0,121
-529,306	-54,502	-0,096	0,032
-528,291	-108,210	0,043	0,007
-527,277	2,759	-0,083	-0,044
-526,262	-200,000	-0,022	-0,155
-525,248	-200,000	-0,003	-0,052
-524,233	-200,000	-0,003	0,091
-523,218	-15,285	-0,079	0,037
-522,204	-185,370	0,096	-0,001
-521,189	800,000	-0,048	0,115
-520,175	-95,145	-0,141	0,028
-519,160	463,475	0,059	0,097
-518,145	-14,635	0,042	-0,020
-517,131	90,164	-0,078	-0,064
-516,116	-111,996	0,047	0,007
-515,102	421,354	0,082	-0,129
-514,087	582,586	-0,063	-0,113
-513,072	-84,276	-0,132	0,031
-512,058	133,282	-0,045	-0,042
-511,043	-103,092	0,091	-0,016
-510,029	-83,386	-0,054	-0,013
-509,014	240,202	-0,062	0,076
-507,999	-37,483	0,049	0,019
-506,985	-145,798	0,079	-0,005
-505,970	-200,000	-0,005	-0,187
-504,956	181,807	0,007	0,008
-503,941	-200,000	0,005	0,092
-502,926	-57,449	-0,024	-0,008
-501,912	-186,803	0,100	0,001
-500,897	-200,000	0,012	0,103
-499,883	-18,129	-0,042	0,019
-498,868	800,000	0,040	-0,117
-497,853	800,000	-0,024	0,064
-496,839	-131,105	-0,077	-0,007
-495,824	-200,000	-0,030	0,154
-494,810	-200,000	-0,004	0,040
-493,795	36,214	0,132	0,085
-492,781	800,000	-0,026	-0,072
-491,766	800,000	0,021	-0,063
-490,751	636,777	-0,047	0,089
-489,737	-200,000	0,008	-0,049
-488,722	-103,824	0,133	-0,023
-487,708	800,000	-0,033	-0,075
-486,693	286,185	0,073	-0,097
-485,678	800,000	-0,049	0,103
-484,664	-144,915	-0,134	-0,009
-483,649	46,148	-0,112	0,076
-482,635	-200,000	-0,006	0,097
-481,620	-94,339	0,180	0,036
-480,605	-200,000	0,030	-0,103
-479,591	388,715	0,071	-0,108
-478,576	-72,180	-0,144	0,039
-477,562	-40,159	0,075	-0,029
-476,547	-200,000	-0,009	-0,165
-475,532	-200,000	-0,015	0,099
-474,518	-200,000	0,013	0,046
-473,503	-200,000	-0,001	0,095
-472,489	76,026	-0,068	-0,052
-471,474	281,770	-0,045	0,060
-470,459	41,947	0,055	0,037
-469,445	55,282	-0,051	0,036
-468,430	345,274	0,022	0,031
-467,416	55,090	-0,049	-0,034
-466,401	-14,172	-0,047	0,022
-465,386	-54,732	0,052	0,017
-464,372	-2,026	-0,106	0,054
-463,357	-200,000	-0,004	-0,088
-462,343	92,892	-0,099	-0,082
-461,328	-152,265	0,052	0,003
-460,313	-80,628	-0,059	0,014
-459,299	-67,512	0,108	0,031
-458,284	19,357	-0,168	0,099
-457,270	-200,000	-0,028	0,131
-456,255	673,940	-0,060	0,115
-455,241	-98,811	0,053	0,010
-454,226	800,000	-0,038	-0,083
-453,211	158,099	0,040	-0,041
-452,197	-82,227	0,123	-0,029
-451,182	-200,000	0,015	0,084
-450,168	103,402	-0,104	-0,090
-449,153	95,016	0,031	0,026
-448,138	-200,000	0,009	-0,070
-447,124	-41,216	-0,104	-0,039
-446,109	-200,000	0,023	-0,087
-445,095	154,710	-0,033	-0,034
-444,080	-200,000	-0,005	-0,040
-443,065	-48,517	0,058	-0,020
-442,051	-19,310	0,067	0,030
-441,036	197,141	-0,055	-0,061
-440,022	800,000	0,014	-0,040
-439,007	59,804	0,034	0,024
-437,992	-136,748	0,090	0,007
-436,978	706,308	0,058	0,113
-435,963	487,722	-0,075	0,126
-434,949	297,671	-0,062	-0,083
-433,934	202,017	-0,029	0,033
-432,919	-119,829	0,053	-0,007
-431,905	217,018	-0,077	0,090
-430,890	276,121	-0,036	0,047
-429,876	97,922	0,035	-0,030
-428,861	-59,326	0,114	0,036
-427,846	-39,619	-0,064	0,025
-426,832	-200,000	0,022	-0,110
-425,817	-100,828	-0,054	-0,010
-424,803	211,710	-0,043	-0,049
-423,788	-200,000	0,010	0,136
-422,773	128,663	0,097	0,091
-421,759	88,052	-0,096	0,078
-420,744	39,167	-0,043	-0,028
-419,730	-71,536	0,040	-0,011
-418,715	-200,000	-0,002	-0,153
-417,701	-73,092	0,062	0,016
-416,686	800,000	0,014	-0,035
-415,671	-90,576	-0,077	-0,016
-414,657	-200,000	-0,004	0,217
-413,642	53,891	0,070	0,049
-412,628	-200,000	-0,003	-0,036
-411,613	677,388	-0,076	-0,146
-410,598	-46,919	-0,080	-0,029
-409,584	367,022	0,033	-0,049
-408,569	112,591	0,148	0,131
-407,555	136,531	-0,056	0,054
-406,540	-200,000	0,032	0,143
-405,525	55,053	-0,147	0,103
-404,511	-200,000	-0,187	0,000
-403,496	-32,766	-0,034	-0,014
-402,482	152,861	0,048	-0,048
-401,467	-200,000	-0,010	-0,041
-400,452	800,000	0,056	0,140
-399,438	-29,450	0,091	0,038
-398,423	800,000	-0,012	0,032
-397,409	71,844	-0,069	0,052
-396,394	405,528	-0,109	-0,169
-395,379	800,000	-0,021	0,057
-394,365	800,000	0,029	0,082
-393,350	800,000	0,028	0,086
-392,336	800,000	-0,058	0,140
-391,321	-97,009	0,056	-0,011
-390,306	800,000	0,012	-0,034
-389,292	137,263	0,031	-0,030
-388,277	-53,638	-0,124	-0,041
-387,263	321,942	-0,049	0,068
-386,248	138,975	-0,059	0,057
-385,233	-200,000	0,028	0,114
-384,219	62,415	0,110	-0,080
-383,204	238,814	-0,024	0,029
-382,190	167,698	0,022	-0,023
-381,175	29,696	-0,070	0,044
-380,160	-200,000	0,004	-0,018
-379,146	-174,133	-0,088	-0,002
-378,131	-200,000	-0,026	0,114
-377,117	-184,678	0,189	0,002
-376,102	800,000	-0,027	0,085
-375,088	65,998	0,165	-0,122
-374,073	281,751	0,050	0,065
-373,058	-59,574	0,120	-0,037
-372,044	-51,765	-0,152	0,052
-371,029	709,234	0,024	-0,046
-370,015	390,852	-0,044	-0,067
-369,000	102,601	0,067	-0,057
-367,985	-200,000	0,006	-0,024
-366,971	202,758	-0,022	0,025
-365,956	800,000	-0,035	0,071
-364,942	53,698	-0,054	0,038
-363,927	57,512	-0,054	0,038
-362,912	-58,241	0,105	-0,033
-361,898	489,508	-0,084	0,142
-360,883	146,230	-0,069	0,068
-359,869	-200,000	0,004	0,036
-358,854	-200,000	-0,030	0,108
-357,839	-200,000	-0,003	0,016
-356,825	87,156	0,102	0,082
-355,810	83,770	0,056	-0,045
-354,796	-116,935	-0,017	0,002
-353,781	74,098	-0,133	-0,101
-352,766	12,601	0,078	0,044
-351,752	232,406	-0,079	-0,094
-350,737	699,711	-0,046	0,088
-349,723	-119,752	0,058	-0,007
-348,708	-16,575	0,044	0,020
-347,693	-200,000	-0,061	-0,215
-346,679	-124,343	-0,076	-0,009
-345,664	219,605	-0,042	0,049
-344,650	309,649	0,036	-0,049
-343,635	800,000	-0,040	0,122
-342,620	-94,320	0,116	-0,023
-341,606	21,686	0,034	-0,020
-340,591	173,477	0,051	0,054
-339,577	-126,666	0,126	-0,013
-338,562	59,086	-0,057	-0,041
-337,548	-200,000	-0,001	-0,025
-336,533	-200,000	-0,016	0,106
-335,518	-95,047	0,099	0,019
-334,504	284,661	0,153	0,202
-333,489	-156,113	-0,207	-0,009
-332,475	17,582	0,051	0,030
-331,460	-200,000	0,015	0,065
-330,445	-200,000	0,002	0,014
-329,431	-110,514	0,115	0,017
-328,416	283,076	0,057	-0,075
-327,402	116,509	-0,042	0,038
-326,387	56,184	0,057	-0,040
-325,372	800,000	-0,028	0,060
-324,358	-200,000	0,000	0,083
-323,343	283,768	0,009	-0,011
-322,329	-144,748	0,096	-0,006
-321,314	-168,290	-0,152	-0,004
-320,299	-59,030	-0,053	0,017
-319,285	-52,627	-0,086	0,029
-318,270	-200,000	-0,006	-0,064
-317,256	-200,000	0,012	0,087
-316,241	450,922	0,052	-0,083
-315,226	-48,558	-0,095	0,033
-314,212	63,773	0,097	-0,071
-313,197	345,488	0,014	0,019
-312,183	46,553	-0,084	0,057
-311,168	59,515	-0,064	-0,046
-310,153	512,466	0,061	-0,104
-309,139	-46,225	-0,119	0,043
-308,124	220,007	0,046	0,054
-307,110	800,000	0,013	-0,040
-306,095	38,120	-0,082	-0,053
-305,080	143,258	0,046	-0,045
-304,066	670,852	-0,056	-0,106
-303,051	629,851	-0,042	-0,078
-302,037	18,533	-0,117	-0,068
-301,022	-200,000	0,000	-0,052
-300,008	-25,151	0,076	0,033
-298,993	133,279	0,067	0,063
-297,978	-126,739	0,080	-0,009
-296,964	224,337	0,038	-0,044
-295,949	-200,000	0,005	-0,077
-294,935	-33,642	0,046	0,018
-293,920	800,000	-0,038	0,097
-292,905	800,000	0,042	-0,120
-291,891	441,460	0,044	0,070
-290,876	-148,917	0,042	0,002
-289,862	8,836	-0,063	-0,034
-288,847	52,967	-0,098	-0,068
-287,832	107,663	0,095	0,083
-286,818	72,625	0,059	0,045
-285,803	-113,830	0,101	0,014
-284,789	-87,507	0,089	-0,020
-283,774	800,000	0,019	0,055
-282,759	46,815	-0,007	0,005
-281,745	-50,437	-0,136	0,046
-280,730	220,409	0,007	0,008
-279,716	194,573	0,069	-0,076
-278,701	45,540	-0,030	0,020
-277,686	115,882	0,145	0,129
-276,672	800,000	0,082	0,173
-275,657	800,000	-0,054	0,114
-274,643	97,544	0,093	-0,077
-273,628	-200,000	-0,014	-0,063
-272,613	-58,759	-0,035	0,011
-271,599	-37,652	0,080	0,031
-270,584	-6,078	0,062	0,031
-269,570	-53,083	0,153	-0,051
-268,555	800,000	0,012	-0,027
-267,540	250,141	-0,029	0,036
-266,526	187,331	-0,086	0,093
-265,511	127,144	0,134	0,124
-264,497	87,832	0,070	-0,056
-263,482	-39,380	0,116	-0,044
-262,467	-113,524	-0,069	-0,010
-261,453	175,759	-0,047	0,050
-260,438	-117,024	-0,040	-0,005
-259,424	-200,000	-0,000	-0,040
-258,409	-14,949	-0,104	-0,048
-257,395	582,674	0,035	-0,062
-256,380	-200,000	0,016	0,063
-255,365	188,949	-0,022	-0,024
-254,351	185,972	-0,062	0,068
-253,336	-121,616	-0,096	-0,011
-252,322	-200,000	-0,014	-0,049
-251,307	-53,998	-0,048	-0,016
-250,292	-200,000	-0,045	0,190
-249,278	488,217	0,061	0,102
-248,263	71,806	-0,050	-0,038
-247,249	-200,000	-0,020	0,112
-246,234	68,889	0,140	-0,105
-245,219	284,207	-0,043	-0,057
-244,205	242,594	0,051	0,062
-243,190	476,895	0,073	-0,121
-242,176	418,576	0,137	0,213
-241,161	-35,639	0,111	0,044
-240,146	145,217	0,043	-0,042
-239,132	-200,000	-0,003	0,034
-238,117	-137,927	0,085	-0,007
-237,103	800,000	0,036	-0,085
-236,088	38,699	-0,150	-0,097
-235,073	-128,871	0,050	-0,005
-234,059	800,000	0,042	-0,102
-233,044	800,000	-0,010	-0,025
-232,030	460,620	0,028	-0,045
-231,015	84,577	-0,119	-0,095
-230,000	800,000	0,029	-0,068
-228,986	312,015	-0,018	0,025
-227,971	-85,522	0,072	0,016
-226,957	-200,000	0,014	-0,050
-225,942	220,402	-0,008	0,010
-224,927	-33,378	-0,064	-0,026
-223,913	5,307	-0,037	-0,020
-222,898	130,542	0,037	-0,034
-221,884	204,972	-0,095	0,108
-220,869	800,000	0,008	0,024
-219,855	-200,000	0,011	0,045
-218,840	-200,000	-0,017	-0,085
-217,825	-141,291	-0,071	-0,005
-216,811	-200,000	0,013	-0,069
-215,796	135,723	0,032	0,031
-214,782	293,755	-0,027	-0,036
-213,767	-138,821	-0,081	-0,006
-212,752	158,670	0,126	-0,127
-211,738	569,129	-0,021	0,038
-210,723	-200,000	0,002	-0,057
-209,709	-150,698	-0,052	0,003
-208,694	1,845	0,029	0,015
-207,679	200,710	0,043	-0,048
-206,665	30,457	0,082	0,051
-205,650	-200,000	0,004	0,092
-204,636	98,273	0,057	0,048
-203,621	-200,000	0,015	-0,106
-202,606	168,817	-0,023	-0,023
-201,592	677,261	-0,042	0,079
-200,577	100,044	-0,125	-0,105
-199,563	290,669	0,068	-0,090
-198,548	128,549	0,085	-0,079
-197,533	206,809	-0,063	0,072
-196,519	187,158	-0,047	-0,051
-195,504	-200,000	0,006	-0,041
-194,490	385,143	-0,111	-0,167
-193,475	-42,197	-0,037	0,014
-192,460	800,000	0,036	0,074
-191,446	125,452	-0,100	0,092
-190,431	165,202	0,040	0,041
-189,417	-117,352	0,101	-0,013
-188,402	-1,399	-0,014	0,007
-187,387	800,000	-0,076	-0,187
-186,373	-200,000	0,009	0,062
-185,358	-12,882	0,040	-0,019
-184,344	61,373	0,107	0,077
-183,329	4,500	0,119	-0,063
-182,315	-200,000	-0,013	0,078
-181,300	-59,731	-0,114	0,035
-180,285	-200,000	-0,000	-0,049
-179,271	-15,172	0,099	-0,046
-178,256	-200,000	0,024	0,207
-177,242	-200,000	-0,016	0,142
-176,227	-200,000	0,015	-0,087
-175,212	97,928	0,082	-0,069
-174,198	-107,645	-0,065	-0,010
-173,183	-200,000	-0,001	-0,102
-172,169	75,701	0,047	-0,036
-171,154	-36,455	0,134	-0,052
-170,139	-30,642	-0,085	-0,035
-169,125	-168,610	0,193	0,005
-168,110	-21,739	-0,049	-0,021
-167,096	53,801	-0,031	-0,021
-166,081	579,200	-0,050	-0,089
-165,066	508,673	-0,032	-0,055
-164,052	465,882	-0,096	0,157
-163,037	800,000	-0,044	0,090
-162,023	249,561	0,039	0,048
-161,008	-200,000	0,015	0,057
-159,993	-148,577	-0,111	-0,006
-158,979	-200,000	0,015	-0,105
-157,964	-104,295	0,049	-0,008
-156,950	-58,064	-0,031	0,010
-155,935	-11,636	-0,105	0,050
-154,920	179,340	0,117	-0,124
-153,906	208,371	0,069	0,078
-152,891	197,613	-0,010	0,011
-151,877	-200,000	0,005	-0,107
-150,862	64,975	-0,083	-0,061
-149,847	-65,775	-0,089	0,026
-148,833	-200,000	0,010	-0,100
-147,818	-200,000	-0,010	0,088
-146,804	-161,373	0,071	0,003
-145,789	223,656	0,050	0,058
-144,775	-146,907	0,117	0,007
-143,760	-90,918	0,052	0,011
-142,745	-149,982	-0,070	0,004
-141,731	-135,338	-0,147	0,013
-140,716	601,606	-0,074	0,134
-139,702	-200,000	0,019	-0,088
-138,687	800,000	0,059	0,154
-137,672	-200,000	0,023	0,085
-136,658	-200,000	0,037	-0,174
-135,643	-200,000	-0,003	-0,038
-134,629	-200,000	-0,007	0,097
-133,614	-137,573	0,131	-0,011
-132,599	-79,193	-0,049	0,012
-131,585	-142,672	-0,067	-0,005
-130,570	-60,586	0,155	0,047
-129,556	64,734	0,076	-0,056
-128,541	395,511	0,030	-0,045
-127,526	-200,000	-0,034	0,141
-126,512	29,923	-0,027	-0,017
-125,497	363,539	-0,059	0,086
-124,483	19,796	-0,116	0,067
-123,468	-200,000	-0,005	-0,076
-122,453	-107,185	-0,061	0,010
-121,439	353,738	0,028	-0,040
-120,424	181,086	-0,094	-0,101
-119,410	150,978	0,045	0,044
-118,395	-16,901	-0,081	0,037
-117,380	-121,008	-0,077	0,009
-116,366	-200,000	0,004	-0,015
-115,351	161,124	-0,116	0,117
-114,337	464,058	-0,098	-0,159
-113,322	-200,000	0,009	-0,068
-112,307	800,000	0,031	0,062
-111,293	84,027	-0,047	-0,037
-110,278	182,769	-0,048	-0,051
-109,264	-200,000	0,029	0,094
-108,249	11,431	-0,176	-0,097
-107,234	-121,440	-0,128	0,015
-106,220	638,743	0,016	-0,030
-105,205	-114,543	0,060	0,008
-104,191	800,000	0,065	0,141
-103,176	37,100	0,064	0,041
-102,162	96,121	-0,031	-0,026
-101,147	-200,000	0,009	0,056
-100,132	202,199	-0,030	-0,033
-99,118	159,097	-0,047	-0,047
-98,103	75,643	-0,085	0,065
-97,089	800,000	0,028	-0,066
-96,074	-91,075	-0,028	-0,006
-95,059	-176,017	-0,046	0,001
-94,045	-200,000	-0,036	-0,189
-93,030	-82,765	-0,041	0,009
-92,016	-54,445	-0,181	-0,059
-91,001	800,000	0,026	0,079
-89,986	800,000	0,035	0,110
-88,972	800,000	-0,028	-0,073
-87,957	353,814	-0,049	-0,070
-86,943	22,850	-0,128	0,076
-85,928	62,200	-0,069	0,049
-84,913	-61,676	-0,117	-0,035
-83,899	800,000	0,058	-0,132
-82,884	-112,908	-0,047	0,007
-81,870	-154,103	0,112	-0,005
-80,855	800,000	-0,041	0,125
-79,840	74,823	-0,077	-0,058
-78,826	42,842	-0,079	-0,052
-77,811	800,000	0,087	-0,180
-76,797	800,000	-0,058	0,162
-75,782	-93,937	0,064	-0,013
-74,767	800,000	0,042	-0,105
-73,753	241,221	-0,092	0,111
-72,738	-108,902	-0,151	0,023
-71,724	-200,000	-0,006	-0,024
-70,709	-63,557	0,040	-0,012
-69,694	-200,000	0,005	0,127
-68,680	800,000	0,031	-0,078
-67,665	148,779	0,015	0,015
-66,651	61,692	-0,048	0,034
-65,636	581,945	-0,036	0,065
-64,622	-136,043	-0,132	-0,011
-63,607	800,000	-0,079	-0,171
-62,592	-13,629	0,115	-0,054
-61,578	800,000	-0,011	0,035
-60,563	-200,000	0,001	0,087
-59,549	167,433	0,028	0,028
-58,534	-43,895	-1,771	-0,640
-57,519	752,318	-0,627	-1,228
-56,505	-200,000	-1,227	-4,801
-55,490	-140,595	0,820	-0,060
-54,476	800,000	5,222	12,310
-53,461	-200,000	15,937	278,546
-52,446	-200,000	703,831	2244,679
-51,432	560,851	1620,246	2836,728
-50,417	121,440	1623,742	1459,693
-49,403	82,082	1284,264	1003,479
-48,388	36,712	1028,765	654,327
-47,373	21,437	990,794	579,650
-46,359	20,403	979,273	569,479
-45,344	18,709	975,115	561,470
-44,330	18,769	973,797	560,885
-43,315	18,493	972,204	559,039
-42,300	18,461	971,060	558,254
-41,286	18,512	969,955	557,765
-40,271	18,412	969,182	556,970
-39,257	18,487	968,170	556,610
-38,242	18,477	967,423	556,126
-37,227	18,493	966,808	555,805
-36,213	18,444	965,865	555,079
-35,198	18,413	964,940	554,424
-34,184	18,519	964,124	554,280
-33,169	18,470	963,232	553,587
-32,154	18,477	962,412	553,115
-31,140	18,496	961,537	552,651
-30,125	18,578	960,631	552,373
-29,111	18,555	959,915	551,866
-28,096	18,522	959,345	551,411
-27,082	18,505	958,691	550,956
-26,067	18,480	957,926	550,414
-25,052	18,504	956,964	549,917
-24,038	18,496	956,318	549,500
-23,023	18,464	955,818	549,088
-22,009	18,487	955,015	548,678
-20,994	18,466	954,528	548,308
-19,979	18,405	953,936	547,751
-18,965	18,432	953,386	547,499
-17,950	18,444	952,682	547,113
-16,936	18,404	952,015	546,578
-15,921	18,387	951,437	546,170
-14,906	18,345	950,729	545,608
-13,892	18,345	949,982	545,158
-12,877	18,280	949,300	544,536
-11,863	18,274	948,649	544,122
-10,848	18,296	948,187	543,907
-9,833	18,436	947,681	544,043
-8,819	18,380	947,013	543,457
-7,804	18,371	946,364	543,035
-6,790	18,321	945,997	542,642
-5,775	18,356	945,333	542,352
-4,760	18,383	944,436	541,902
-3,746	18,325	944,010	541,451
-2,731	18,185	943,225	540,536
-1,717	18,157	942,410	539,957
-0,702	18,175	941,873	539,687
0,313	17,933	941,372	539,444
1,327	21,102	939,395	548,299
2,342	30,207	796,759	489,294
3,356	27,210	449,759	271,677
4,371	-2,177	295,830	149,210
5,386	-6,420	277,157	135,743
6,400	-7,553	271,290	131,801
7,415	-7,986	269,097	130,323
8,429	-7,890	267,663	129,706
9,444	-7,987	266,825	129,199
10,459	-7,906	266,155	128,937
11,473	-8,204	265,608	128,389
12,488	-8,175	265,162	128,188
13,502	-8,276	264,675	127,849
14,517	-8,156	263,990	127,616
15,531	-8,213	263,649	127,389
16,546	-8,157	263,285	127,251
17,561	-8,328	263,044	126,969
18,575	-8,155	262,705	126,951
19,590	-8,381	262,440	126,607
20,604	-8,059	262,067	126,706
21,619	-8,331	261,612	126,230
22,634	-8,237	261,337	126,171
23,648	-8,329	260,893	125,862
24,663	-8,192	260,681	125,872
25,677	-8,097	260,493	125,854
26,692	-8,349	260,321	125,536
27,707	-8,345	259,962	125,355
28,721	-8,373	259,572	125,131
29,736	-8,462	259,552	125,030
30,750	-8,486	259,326	124,889
31,765	-8,504	258,956	124,684
32,780	-8,537	258,838	124,587
33,794	-8,537	258,504	124,414
34,809	-8,373	258,220	124,412
35,823	-8,572	258,082	124,158
36,838	-8,531	257,788	124,042
37,853	-8,702	257,707	123,841
38,867	-8,454	257,213	123,811
39,882	-8,601	257,067	123,600
40,896	-8,527	256,894	123,571
41,911	-8,451	256,606	123,489
42,926	-8,473	256,346	123,333
43,940	-8,755	256,100	122,956
44,955	-8,490	255,972	123,116
45,969	-8,459	255,472	122,892
46,984	-8,890	255,354	122,447
47,999	-9,101	255,026	122,095
49,013	-9,152	254,760	121,912
50,028	-9,252	254,599	121,737
51,042	-9,448	254,419	121,469
52,057	-9,555	254,308	121,311
53,071	-9,487	253,964	121,196
54,086	-9,172	253,809	121,385
55,101	-9,236	253,693	121,263
56,115	-8,912	253,590	121,485
57,130	-8,469	253,382	121,758
58,144	-8,279	253,391	121,916
59,159	-8,189	253,123	121,854
60,174	-8,094	252,805	121,773
61,188	-8,288	252,725	121,556
62,203	-8,458	252,513	121,296
63,217	-8,515	252,312	121,139
64,232	-8,396	252,046	121,103
65,247	-8,205	251,807	121,143
66,261	-8,387	251,592	120,872
67,276	-8,522	251,215	120,564
68,290	-8,785	250,941	120,196
69,305	-8,956	250,881	120,009
70,320	-8,749	250,453	119,972
71,334	-8,456	250,403	120,188
72,349	-8,268	250,381	120,327
73,363	-8,340	250,373	120,251
74,378	-8,108	249,829	120,178
75,393	-8,270	249,812	120,020
76,407	-8,378	249,536	119,785
77,422	-8,427	249,268	119,604
78,436	-8,353	249,094	119,572
79,451	-8,338	248,823	119,444
80,466	-8,417	248,606	119,262
81,480	-8,634	248,374	118,956
82,495	-8,622	248,310	118,925
83,509	-8,658	248,122	118,795
84,524	-8,672	247,968	118,698
85,539	-8,830	247,579	118,368
86,553	-8,800	247,441	118,317
87,568	-8,785	247,206	118,206
88,582	-8,632	247,050	118,250
89,597	-8,723	246,940	118,110
90,611	-8,594	246,748	118,116
91,626	-8,420	246,564	118,164
92,641	-8,408	246,491	118,129
93,655	-8,392	246,123	117,956
94,670	-8,688	246,127	117,698
95,684	-8,554	245,727	117,608
96,699	-8,739	245,676	117,419
97,714	-8,859	245,510	117,228
98,728	-8,840	245,188	117,080
99,743	-8,734	244,845	116,995
100,757	-8,884	244,730	116,804
101,772	-8,829	244,591	116,773
102,787	-8,718	244,360	116,744
103,801	-8,705	244,293	116,713
104,816	-8,534	244,088	116,747
105,830	-8,531	244,020	116,706
106,845	-8,397	243,804	116,704
107,860	-8,385	243,614	116,613
108,874	-8,328	243,367	116,531
109,889	-8,547	243,166	116,244
110,903	-8,573	243,038	116,150
111,918	-8,622	242,834	116,002
112,933	-8,520	242,672	115,998
113,947	-8,439	242,509	115,978
114,962	-8,591	242,537	115,855
115,976	-8,694	242,385	115,686
116,991	-8,463	241,944	115,656
118,006	-8,474	241,799	115,568
119,020	-8,673	241,727	115,359
120,035	-8,346	241,726	115,618
121,049	-8,409	241,559	115,475
122,064	-8,537	241,299	115,236
123,079	-8,665	241,055	115,004
124,093	-8,470	240,818	115,040
125,108	-8,663	240,547	114,743
126,122	-8,988	240,298	114,348
127,137	-9,225	240,137	114,067
128,151	-8,937	240,066	114,259
129,166	-8,672	239,827	114,351
130,181	-8,980	239,830	114,091
131,195	-8,861	239,407	113,976
132,210	-8,673	239,200	114,021
133,224	-8,568	239,183	114,088
134,239	-8,418	239,020	114,122
135,254	-8,632	238,914	113,888
136,268	-8,835	238,627	113,576
137,283	-9,107	238,343	113,210
138,297	-8,841	238,228	113,361
139,312	-8,986	238,005	113,128
140,327	-8,742	238,000	113,312
141,341	-8,065	237,739	113,725
142,356	-8,451	237,878	113,469
143,370	-8,341	237,729	113,477
144,385	-8,353	237,502	113,348
145,400	-8,085	237,397	113,504
146,414	-7,970	237,013	113,404
147,429	-8,162	236,968	113,217
148,443	-8,131	236,686	113,097
149,458	-8,341	236,617	112,885
150,473	-8,357	236,414	112,765
151,487	-8,406	236,263	112,644
152,502	-8,194	236,000	112,679
153,516	-8,309	235,926	112,541
154,531	-8,208	235,624	112,468
155,546	-8,314	235,388	112,260
156,560	-8,133	235,336	112,370
157,575	-8,537	235,111	111,930
158,589	-8,474	235,018	111,926
159,604	-8,113	234,897	112,146
160,619	-7,803	234,727	112,302
161,633	-8,218	234,651	111,926
162,648	-8,059	234,452	111,947
163,662	-8,123	234,277	111,802
164,677	-8,256	234,087	111,596
165,692	-8,174	234,065	111,641
166,706	-7,845	233,789	111,760
167,721	-7,937	233,785	111,676
168,735	-7,767	233,583	111,704
169,750	-8,043	233,457	111,415
170,764	-8,228	233,212	111,142
171,779	-8,171	233,098	111,122
172,794	-8,004	232,834	111,119
173,808	-8,153	232,678	110,917
174,823	-8,568	232,283	110,392
175,837	-8,859	232,194	110,111
176,852	-8,359	232,292	110,541
177,867	-8,028	232,054	110,678
178,881	-7,999	231,945	110,639
179,896	-7,999	231,743	110,533
180,910	-7,937	231,613	110,510
181,925	-7,930	231,493	110,448
182,940	-8,177	231,305	110,155
183,954	-8,029	231,164	110,194
184,969	-8,025	231,065	110,140
185,983	-7,915	230,986	110,178
186,998	-7,971	230,725	110,000
188,013	-7,883	230,542	109,972
189,027	-7,688	230,430	110,061
190,042	-7,784	230,268	109,899
191,056	-7,762	230,129	109,840
192,071	-7,799	229,949	109,715
193,086	-7,789	229,871	109,676
194,100	-7,852	229,695	109,533
195,115	-8,000	229,272	109,207
196,129	-8,351	229,208	108,895
197,144	-4,587	230,428	112,395
198,159	0,273	231,922	116,914
199,173	3,312	232,692	119,669
200,188	3,503	232,546	119,733
201,202	3,712	232,495	119,858
202,217	3,891	232,247	119,859
203,232	4,079	232,363	120,056
204,246	3,996	232,222	119,907
205,261	3,793	232,035	119,642
206,275	4,152	231,930	119,857
207,290	4,428	231,686	119,934
208,304	4,167	231,583	119,668
209,319	4,207	231,332	119,558
210,334	4,074	231,249	119,401
211,348	3,922	230,889	119,087
212,363	3,464	230,862	118,708
213,377	3,419	230,458	118,455
214,392	3,250	230,379	118,273
215,407	3,522	230,183	118,372
216,421	3,862	230,006	118,532
217,436	3,582	229,782	118,191
218,450	3,277	229,616	117,860
219,465	2,985	229,578	117,605
220,480	3,235	229,430	117,711
221,494	3,168	229,427	117,648
222,509	3,359	229,185	117,660
223,523	3,408	228,990	117,587
224,538	3,149	228,847	117,304
225,553	3,165	228,762	117,262
226,567	3,339	228,749	117,379
227,582	3,643	228,535	117,491
228,596	3,659	228,556	117,504
229,611	3,359	228,153	117,057
230,626	3,236	227,824	116,784
231,640	3,199	227,726	116,695
232,655	3,418	227,719	116,848
233,669	3,958	227,752	117,267
234,684	3,814	227,614	117,075
235,699	3,775	227,365	116,907
236,713	3,571	227,140	116,626
237,728	3,326	226,918	116,315
238,742	3,038	226,796	116,023
239,757	3,283	226,536	116,066
240,772	3,296	226,379	115,985
241,786	3,463	226,203	116,011
242,801	3,360	226,376	116,011
243,815	3,925	226,165	116,320
244,830	4,023	225,848	116,221
245,844	3,382	225,826	115,716
246,859	3,395	225,655	115,626
247,874	3,572	225,397	115,618
248,888	3,580	225,437	115,634
249,903	3,632	225,185	115,534
250,917	3,316	225,145	115,265
251,932	3,453	224,790	115,176
252,947	3,378	224,634	115,029
253,961	3,392	224,702	115,064
254,976	3,349	224,270	114,801
255,990	3,728	224,414	115,148
257,005	3,709	224,206	115,017
258,020	3,636	224,177	114,937
259,034	3,910	224,002	115,043
260,049	3,919	223,775	114,923
261,063	3,358	223,760	114,485
262,078	3,825	223,555	114,719
263,093	3,849	223,400	114,647
264,107	3,805	223,208	114,505
265,122	3,584	223,173	114,312
266,136	3,802	223,001	114,376
267,151	3,935	222,844	114,384
268,166	3,527	222,618	113,955
269,180	3,117	222,330	113,493
270,195	3,159	222,270	113,484
271,209	3,472	222,196	113,668
272,224	3,371	222,162	113,566
273,239	3,469	221,946	113,518
274,253	3,364	221,651	113,278
275,268	3,106	221,600	113,052
276,282	3,132	221,294	112,906
277,297	3,165	221,141	112,841
278,312	3,269	221,152	112,914
279,326	3,350	221,090	112,931
280,341	3,414	220,920	112,882
281,355	3,398	220,740	112,768
282,370	3,222	220,638	112,576
283,384	3,212	220,223	112,347
284,399	3,166	220,201	112,292
285,414	3,221	220,091	112,267
286,428	3,487	220,013	112,412
287,443	3,312	220,001	112,267
288,457	3,645	219,814	112,406
289,472	3,449	219,615	112,151
290,487	3,180	219,360	111,814
291,501	2,887	219,245	111,531
292,516	3,193	219,137	111,690
293,530	2,937	218,921	111,383
294,545	3,122	218,857	111,476
295,560	3,273	218,661	111,475
296,574	3,389	218,629	111,533
297,589	3,233	218,546	111,368
298,603	3,597	218,257	111,475
299,618	3,644	218,246	111,493
300,633	3,613	218,105	111,389
301,647	3,779	218,074	111,484
302,662	3,499	217,908	111,186
303,676	3,494	217,713	111,073
304,691	3,656	217,591	111,118
305,706	3,790	217,484	111,151
306,720	3,712	217,234	110,957
307,735	3,419	217,060	110,646
308,749	3,289	216,997	110,510
309,764	3,543	216,798	110,582
310,779	3,554	216,720	110,541
311,793	3,507	216,511	110,390
312,808	3,448	216,474	110,319
313,822	3,417	216,315	110,206
314,837	3,116	216,122	109,882
315,852	2,910	215,887	109,605
316,866	3,088	215,881	109,719
317,881	3,566	215,712	109,966
318,895	3,640	215,654	109,980
319,910	3,517	215,372	109,738
320,925	3,370	215,181	109,526
321,939	3,245	214,912	109,290
322,954	2,979	215,151	109,211
323,968	3,580	214,961	109,535
324,983	3,724	214,747	109,519
325,997	3,636	214,664	109,404
327,012	3,600	214,492	109,281
328,027	3,418	214,434	109,112
329,041	3,678	214,342	109,240
330,056	3,984	214,300	109,427
331,070	3,355	213,959	108,796
332,085	2,945	213,869	108,449
333,100	3,212	213,625	108,505
334,114	3,463	213,618	108,670
335,129	3,630	213,355	108,645
336,143	3,437	213,082	108,360
337,158	3,421	213,146	108,372
338,173	3,422	213,026	108,302
339,187	3,337	212,775	108,105
340,202	3,027	212,710	107,843
341,216	3,131	212,408	107,753
342,231	3,104	212,405	107,723
343,246	3,302	212,181	107,739
344,260	3,380	212,208	107,798
345,275	3,307	212,166	107,717
346,289	3,242	212,079	107,617
347,304	3,564	211,861	107,723
348,319	3,338	211,674	107,459
349,333	3,447	211,592	107,485
350,348	3,477	211,467	107,432
351,362	3,547	211,318	107,396
352,377	3,366	211,200	107,200
353,392	3,402	211,030	107,129
354,406	3,454	210,966	107,124
355,421	194,152	1341,736	1422,814
356,435	155,011	1479,539	1422,845
