DTS Sentinel unit serial number:	SN410029Multiplexer serial number:	ORYXHardware model number:	OX2-SRSoftware version number:	ORYX F/W v4,00 Oryx Data Collector v3.7.2.0data status	okinstallation	B6 Nyhavnadifferential loss correction	single-endedforward channel	channel 2reverse channel	N/Adate	2023/12/10time	08:20:08forward acquisition time	300,00reverse acquisition time	0,00gamma	499,1914k internal	0,3123k external	0,3123temperature offset calibration	1,0000default loss term (dB/km)	0,3820temperature slope calibration	1,0000multiplexer offset coefficient	1,0000multiplexer slope coefficient	1,0000fibre end	0,00T internal ref (°C)	22,57T ext. ref 1 (°C)	6,33T ext. ref 2 (°C)	6,33length (m)	temperature (°C)	Stokes	anti-Stokes-744,400	-200,000	-0,018	-0,106
-743,385	-118,163	-0,234	0,031
-742,371	56,623	0,114	0,083
-741,356	148,313	-0,178	0,179
-740,342	579,556	0,084	0,153
-739,327	102,532	-0,200	0,174
-738,312	-128,978	0,029	-0,003
-737,298	-36,488	-0,328	0,131
-736,283	145,110	0,067	-0,067
-735,269	345,792	-0,157	0,231
-734,254	-200,000	-0,020	-0,151
-733,239	-20,222	-0,461	-0,211
-732,225	-185,628	0,068	0,001
-731,210	141,090	0,031	0,031
-730,196	194,599	-0,068	-0,077
-729,181	-56,975	-0,018	0,006
-728,167	800,000	0,081	-0,183
-727,152	-50,776	0,053	-0,018
-726,137	43,501	0,023	0,016
-725,123	729,702	-0,039	-0,078
-724,108	-9,674	-0,062	-0,030
-723,094	325,845	-0,075	-0,107
-722,079	122,548	-0,015	-0,014
-721,064	-200,000	0,048	0,205
-720,050	271,761	-0,049	0,065
-719,035	-200,000	0,035	-0,139
-718,021	-200,000	-0,017	-0,080
-717,006	-200,000	0,016	-0,059
-715,991	64,116	0,039	0,029
-714,977	-66,212	-0,204	0,060
-713,962	111,185	0,145	-0,130
-712,948	14,261	0,063	0,037
-711,933	800,000	0,003	-0,007
-710,918	-95,792	-0,171	-0,034
-709,904	-200,000	0,014	-0,115
-708,889	-97,756	-0,101	-0,019
-707,875	-7,639	-0,048	0,024
-706,860	-200,000	-0,004	-0,057
-705,845	195,208	0,073	-0,083
-704,831	-200,000	-0,008	-0,090
-703,816	800,000	-0,033	-0,086
-702,802	-108,837	-0,154	-0,024
-701,787	95,629	-0,120	-0,102
-700,772	-43,932	0,008	-0,003
-699,758	-42,707	0,110	-0,042
-698,743	699,040	-0,033	-0,064
-697,729	800,000	0,029	-0,084
-696,714	-200,000	0,002	-0,031
-695,699	-118,136	0,131	0,017
-694,685	-80,768	-0,114	-0,028
-693,670	35,097	0,082	-0,053
-692,656	-64,167	0,026	0,008
-691,641	-168,335	0,135	-0,004
-690,627	800,000	0,032	0,091
-689,612	19,230	-0,089	0,053
-688,597	800,000	-0,017	-0,054
-687,583	-148,472	-0,056	-0,003
-686,568	-83,456	-0,156	0,037
-685,554	176,721	-0,011	-0,012
-684,539	687,446	-0,046	-0,091
-683,524	800,000	0,024	0,051
-682,510	-200,000	0,008	-0,033
-681,495	-8,507	-0,043	0,021
-680,481	-200,000	-0,016	-0,097
-679,466	-9,911	-0,062	-0,031
-678,451	37,216	0,029	0,019
-677,437	-200,000	-0,005	0,079
-676,422	717,830	-0,035	-0,069
-675,408	28,586	-0,168	0,106
-674,393	109,690	0,037	-0,033
-673,378	393,981	-0,094	-0,146
-672,364	-117,369	-0,212	0,028
-671,349	5,282	-0,087	-0,048
-670,335	-81,938	0,050	-0,012
-669,320	10,652	-0,066	0,038
-668,305	464,279	0,038	0,064
-667,291	23,336	-0,115	0,070
-666,276	-110,742	-0,133	-0,020
-665,262	-109,536	-0,176	-0,027
-664,247	800,000	0,027	-0,073
-663,232	118,925	0,033	0,030
-662,218	-200,000	-0,022	0,099
-661,203	-65,302	-0,015	-0,004
-660,189	-200,000	0,020	0,079
-659,174	-43,528	0,041	-0,015
-658,159	8,257	-0,198	-0,110
-657,145	-182,239	0,103	0,001
-656,130	-43,674	0,025	-0,009
-655,116	-57,759	-0,056	0,018
-654,101	-77,617	-0,146	-0,037
-653,086	538,576	0,056	-0,099
-652,072	91,023	-0,116	-0,096
-651,057	-200,000	-0,013	-0,093
-650,043	712,826	0,015	-0,029
-649,028	663,871	0,040	-0,078
-648,014	-68,539	0,066	-0,019
-646,999	739,505	0,024	0,048
-645,984	240,968	0,044	-0,055
-644,970	325,453	-0,110	-0,157
-643,955	-200,000	0,030	-0,108
-642,941	-123,866	-0,119	-0,014
-641,926	800,000	0,064	0,152
-640,911	672,545	0,023	0,045
-639,897	-200,000	0,016	-0,060
-638,882	-200,000	-0,003	-0,062
-637,868	-200,000	-0,006	0,077
-636,853	-114,115	-0,198	-0,028
-635,838	-172,843	-0,065	0,001
-634,824	-185,506	0,089	-0,001
-633,809	800,000	0,023	0,047
-632,795	-48,690	-0,029	0,010
-631,780	-200,000	0,020	0,079
-630,765	-134,273	-0,099	0,009
-629,751	800,000	-0,019	-0,046
-628,736	-87,350	0,097	0,022
-627,722	800,000	-0,029	-0,082
-626,707	298,531	0,017	-0,024
-625,692	800,000	-0,042	-0,099
-624,678	-102,763	0,067	-0,012
-623,663	-197,616	-0,253	-0,001
-622,649	-200,000	0,040	0,141
-621,634	24,177	-0,113	0,069
-620,619	-200,000	-0,001	0,120
-619,605	20,948	0,121	0,072
-618,590	-200,000	-0,008	-0,131
-617,576	288,971	-0,035	0,047
-616,561	-147,984	-0,069	0,004
-615,546	-200,000	0,001	-0,075
-614,532	104,721	-0,037	-0,032
-613,517	2,930	-0,085	-0,046
-612,503	120,559	0,033	0,030
-611,488	-55,771	-0,172	0,057
-610,474	-124,955	0,059	0,007
-609,459	-105,392	0,106	0,018
-608,444	-78,951	-0,063	-0,016
-607,430	329,720	0,056	0,080
-606,415	279,378	0,015	0,019
-605,401	-9,829	-0,059	0,029
-604,386	-24,902	0,016	-0,007
-603,371	490,962	0,069	-0,117
-602,357	265,494	-0,054	-0,070
-601,342	117,675	-0,062	-0,056
-600,328	800,000	-0,006	-0,019
-599,313	166,681	0,037	0,039
-598,298	119,076	-0,031	-0,029
-597,284	800,000	-0,052	0,133
-596,269	113,706	0,065	0,058
-595,255	656,784	0,021	-0,041
-594,240	47,218	0,111	0,076
-593,225	-200,000	-0,004	0,063
-592,211	455,769	0,055	-0,090
-591,196	-126,476	-0,127	-0,014
-590,182	-200,000	0,011	0,212
-589,167	66,235	-0,130	0,098
-588,152	0,109	0,042	-0,022
-587,138	-63,887	-0,207	0,062
-586,123	-168,159	-0,068	0,002
-585,109	15,672	0,119	-0,069
-584,094	-23,821	-0,111	0,049
-583,079	178,968	-0,031	0,034
-582,065	412,711	0,020	0,031
-581,050	72,715	-0,100	-0,077
-580,036	-200,000	0,011	0,065
-579,021	-200,000	0,001	-0,084
-578,006	-32,273	-0,064	-0,026
-576,992	800,000	0,011	-0,032
-575,977	-142,622	0,080	0,006
-574,963	-43,738	-0,049	-0,018
-573,948	-103,308	-0,035	-0,006
-572,934	-130,479	-0,121	-0,012
-571,919	800,000	0,078	-0,161
-570,904	-200,000	0,002	0,011
-569,890	296,905	-0,091	-0,125
-568,875	800,000	0,014	0,046
-567,861	-142,740	0,111	0,008
-566,846	423,121	-0,015	0,024
-565,831	-61,016	-0,054	-0,017
-564,817	22,023	-0,138	0,083
-563,802	-200,000	-0,024	-0,130
-562,788	106,126	-0,036	-0,031
-561,773	575,633	0,050	-0,091
-560,758	183,705	-0,077	0,084
-559,744	-200,000	-0,030	0,103
-558,729	787,449	-0,021	0,044
-557,715	-18,320	-0,054	-0,025
-556,700	544,143	-0,076	-0,134
-555,685	100,486	-0,078	-0,067
-554,671	-200,000	0,009	-0,134
-553,656	800,000	0,031	0,075
-552,642	800,000	0,022	0,048
-551,627	84,499	0,074	-0,060
-550,612	800,000	-0,055	0,114
-549,598	-117,037	0,045	0,006
-548,583	389,388	-0,079	-0,121
-547,569	455,206	0,022	-0,036
-546,554	319,491	0,066	0,093
-545,539	129,182	-0,036	-0,034
-544,525	295,954	0,003	-0,004
-543,510	-83,982	-0,073	-0,017
-542,496	800,000	-0,034	0,097
-541,481	-109,019	-0,146	-0,023
-540,466	-89,878	-0,137	0,029
-539,452	76,365	0,047	0,036
-538,437	-200,000	0,006	0,040
-537,423	800,000	-0,020	0,046
-536,408	800,000	0,043	0,139
-535,393	-200,000	0,012	-0,072
-534,379	-200,000	0,021	-0,100
-533,364	-12,994	-0,052	-0,025
-532,350	800,000	0,059	0,122
-531,335	800,000	0,019	0,062
-530,321	-200,000	0,001	-0,120
-529,306	-200,000	-0,015	-0,109
-528,291	800,000	0,044	-0,093
-527,277	-79,525	-0,023	-0,006
-526,262	800,000	-0,021	-0,055
-525,248	297,652	0,029	0,039
-524,233	468,172	0,043	0,072
-523,218	76,818	0,108	-0,084
-522,204	10,181	0,132	-0,074
-521,189	-200,000	-0,031	-0,171
-520,175	-200,000	0,015	0,087
-519,160	-85,730	-0,139	-0,032
-518,145	-200,000	-0,004	0,023
-517,131	20,087	0,078	0,047
-516,116	557,353	0,046	-0,081
-515,102	354,174	-0,033	-0,048
-514,087	734,587	0,043	0,086
-513,072	459,577	-0,022	-0,036
-512,058	42,369	0,099	0,067
-511,043	-75,236	0,207	0,054
-510,029	-169,541	-0,052	0,001
-509,014	229,630	-0,069	-0,084
-507,999	-3,918	0,030	-0,015
-506,985	-200,000	0,022	-0,172
-505,970	-200,000	-0,015	-0,073
-504,956	-67,183	-0,131	0,038
-503,941	24,323	0,050	-0,030
-502,926	-60,479	0,041	-0,013
-501,912	-83,973	-0,006	-0,001
-500,897	-55,164	-0,100	0,033
-499,883	344,003	-0,015	0,022
-498,868	-125,967	-0,151	0,017
-497,853	-200,000	0,012	-0,067
-496,839	637,361	-0,073	-0,138
-495,824	27,800	-0,054	-0,034
-494,810	-28,866	0,084	0,036
-493,795	-151,043	0,072	-0,004
-492,781	-11,770	-0,038	-0,018
-491,766	242,889	0,056	0,069
-490,751	-200,000	0,011	-0,066
-489,737	-200,000	0,015	-0,076
-488,722	16,172	0,105	-0,061
-487,708	-94,072	-0,048	-0,010
-486,693	-200,000	-0,004	0,017
-485,678	-52,656	-0,038	0,013
-484,664	-123,203	-0,200	-0,023
-483,649	-89,702	-0,137	-0,029
-482,635	-200,000	0,011	0,050
-481,620	-107,429	0,153	0,025
-480,605	-200,000	0,011	0,102
-479,591	-100,027	0,109	0,020
-478,576	-200,000	-0,014	0,076
-477,562	-93,111	0,058	0,012
-476,547	-4,078	-0,212	0,108
-475,532	128,518	0,052	0,049
-474,518	395,372	-0,025	-0,038
-473,503	-75,475	-0,130	0,034
-472,489	-107,676	-0,103	0,016
-471,474	800,000	0,023	0,050
-470,459	-133,283	-0,067	-0,006
-469,445	-77,786	-0,149	0,038
-468,430	-200,000	0,040	-0,165
-467,416	-200,000	-0,029	-0,110
-466,401	800,000	0,054	0,133
-465,386	-200,000	0,087	-0,000
-464,372	-150,032	-0,028	0,002
-463,357	353,470	-0,015	-0,022
-462,343	61,079	-0,103	0,075
-461,328	-200,000	-0,002	-0,069
-460,313	-39,025	0,115	-0,044
-459,299	15,817	0,097	0,056
-458,284	-154,763	0,119	-0,006
-457,270	-200,000	-0,001	0,012
-456,255	-103,831	-0,101	-0,017
-455,241	-148,995	0,132	-0,008
-454,226	-200,000	-0,014	-0,084
-453,211	261,957	0,029	0,037
-452,197	440,041	0,012	-0,019
-451,182	65,174	-0,034	-0,025
-450,168	-150,712	0,109	0,006
-449,153	-26,793	0,056	0,024
-448,138	-200,000	-0,011	-0,068
-447,124	800,000	0,018	0,055
-446,109	54,705	-0,051	0,036
-445,095	800,000	0,031	-0,100
-444,080	800,000	0,019	0,045
-443,065	-200,000	0,023	0,170
-442,051	21,430	0,073	0,044
-441,036	14,066	-0,155	0,089
-440,022	26,668	-0,101	-0,062
-439,007	114,021	0,073	0,065
-437,992	-200,000	0,011	0,073
-436,978	800,000	0,035	0,077
-435,963	-200,000	-0,011	-0,070
-434,949	-200,000	-0,030	-0,113
-433,934	144,381	0,097	-0,095
-432,919	376,794	-0,006	-0,009
-431,905	-200,000	0,006	0,052
-430,890	56,286	0,115	0,082
-429,876	800,000	0,055	0,126
-428,861	285,380	-0,092	0,123
-427,846	7,746	0,042	0,023
-426,832	53,650	-0,106	-0,075
-425,817	-200,000	-0,024	-0,094
-424,803	212,896	0,043	0,050
-423,788	431,774	-0,044	-0,070
-422,773	800,000	-0,025	-0,080
-421,759	135,081	0,054	0,052
-420,744	554,949	0,034	0,061
-419,730	-120,802	-0,191	-0,023
-418,715	-200,000	0,003	0,025
-417,701	247,159	-0,086	0,107
-416,686	10,827	-0,093	-0,052
-415,671	-42,970	0,116	0,043
-414,657	800,000	0,033	-0,079
-413,642	-200,000	0,030	0,133
-412,628	378,678	-0,050	-0,075
-411,613	120,950	0,080	-0,073
-410,598	800,000	0,036	-0,093
-409,584	53,208	0,047	0,033
-408,569	-200,000	0,041	-0,172
-407,555	524,119	0,039	-0,067
-406,540	188,267	0,089	0,097
-405,525	18,413	-0,066	0,039
-404,511	181,565	-0,081	-0,088
-403,496	-200,000	0,007	-0,040
-402,482	-200,000	0,021	-0,112
-401,467	786,880	0,037	0,075
-400,452	28,082	-0,039	-0,024
-399,438	800,000	0,052	0,109
-398,423	-200,000	-0,013	0,056
-397,409	-200,000	-0,016	0,121
-396,394	-200,000	0,019	-0,072
-395,379	-200,000	0,019	-0,114
-394,365	-14,771	0,088	-0,041
-393,350	281,191	-0,078	0,102
-392,336	-200,000	-0,026	0,179
-391,321	374,149	0,017	-0,026
-390,306	48,543	-0,089	-0,061
-389,292	-160,996	0,109	-0,004
-388,277	-13,787	-0,052	-0,025
-387,263	-55,751	0,104	-0,034
-386,248	-200,000	-0,001	0,009
-385,233	107,143	0,082	0,071
-384,219	330,732	0,027	-0,039
-383,204	-200,000	0,007	-0,074
-382,190	136,872	-0,018	0,017
-381,175	-200,000	0,017	0,116
-380,160	-200,000	0,012	0,139
-379,146	-200,000	-0,005	0,101
-378,131	800,000	-0,027	0,057
-377,117	67,019	0,083	0,062
-376,102	175,475	0,091	0,097
-375,088	-128,723	0,171	0,017
-374,073	-22,876	0,077	0,034
-373,058	-143,518	0,033	0,002
-372,044	722,471	0,030	0,060
-371,029	-88,305	-0,086	0,019
-370,015	50,110	0,119	-0,083
-369,000	67,465	-0,054	-0,041
-367,985	-133,615	-0,019	-0,002
-366,971	60,427	-0,076	0,055
-365,956	160,778	-0,091	0,093
-364,942	75,707	0,073	0,057
-363,927	-194,145	-0,068	0,000
-362,912	141,731	0,096	-0,094
-361,898	-54,334	-0,091	-0,030
-360,883	-53,358	0,022	-0,007
-359,869	-200,000	-0,001	-0,127
-358,854	58,651	0,150	0,108
-357,839	151,178	0,079	0,079
-356,825	21,099	0,078	-0,046
-355,810	145,719	0,057	0,056
-354,796	-99,326	-0,133	-0,024
-353,781	338,724	0,030	0,043
-352,766	800,000	-0,010	-0,029
-351,752	-200,000	-0,013	-0,048
-350,737	-93,767	0,123	-0,025
-349,723	-200,000	0,019	0,075
-348,708	-38,280	-0,073	-0,028
-347,693	-101,263	0,099	-0,018
-346,679	800,000	-0,084	-0,212
-345,664	-200,000	0,008	-0,157
-344,650	-162,906	-0,152	-0,005
-343,635	402,659	-0,032	0,050
-342,620	-200,000	0,003	0,030
-341,606	-200,000	-0,026	-0,107
-340,591	74,793	-0,057	-0,044
-339,577	-200,000	0,014	0,124
-338,562	431,420	0,043	0,069
-337,548	-170,350	0,036	-0,001
-336,533	4,615	0,080	0,043
-335,518	-200,000	0,036	0,128
-334,504	-200,000	0,001	0,056
-333,489	-200,000	-0,007	-0,062
-332,475	-200,000	0,012	-0,089
-331,460	800,000	-0,010	-0,021
-330,445	-200,000	-0,001	0,097
-329,431	-34,960	0,149	-0,059
-328,416	39,529	0,061	-0,040
-327,402	643,257	0,038	-0,072
-326,387	800,000	0,021	-0,062
-325,372	-200,000	-0,017	-0,148
-324,358	-200,000	0,017	-0,066
-323,343	-13,674	-0,107	-0,050
-322,329	-88,677	0,035	-0,007
-321,314	800,000	0,042	0,115
-320,299	-200,000	0,027	0,096
-319,285	-200,000	0,007	-0,038
-318,270	168,277	0,042	-0,044
-317,256	-200,000	0,013	0,081
-316,241	-84,627	0,058	-0,013
-315,226	370,428	-0,034	-0,051
-314,212	-103,848	0,079	-0,013
-313,197	-200,000	0,012	0,059
-312,183	472,884	0,049	0,082
-311,168	-200,000	0,015	-0,079
-310,153	800,000	-0,036	0,102
-309,139	800,000	-0,042	-0,102
-308,124	-139,160	0,123	0,010
-307,110	800,000	-0,082	-0,181
-306,095	-46,331	0,153	-0,055
-305,080	85,061	-0,047	-0,038
-304,066	159,720	-0,055	-0,056
-303,051	149,473	-0,107	-0,106
-302,037	-90,878	0,038	-0,008
-301,022	800,000	-0,041	-0,092
-300,008	-28,704	0,080	-0,034
-298,993	130,001	0,049	-0,046
-297,978	-61,355	0,063	0,019
-296,964	800,000	-0,027	0,063
-295,949	57,954	0,033	0,024
-294,935	367,323	-0,023	-0,034
-293,920	-200,000	0,003	-0,059
-292,905	-47,280	0,167	0,059
-291,891	-200,000	0,047	0,219
-290,876	-200,000	0,048	0,157
-289,862	182,401	-0,121	0,130
-288,847	-124,271	-0,095	-0,011
-287,832	-200,000	0,002	0,036
-286,818	448,501	-0,037	-0,060
-285,803	-34,995	-0,090	0,036
-284,789	-200,000	-0,025	0,105
-283,774	-52,485	-0,035	0,012
-282,759	10,382	0,012	-0,007
-281,745	707,735	0,074	-0,145
-280,730	-92,165	0,089	0,018
-279,716	-8,232	-0,141	-0,069
-278,701	6,665	0,094	0,051
-277,686	-95,051	-0,081	0,016
-276,672	543,502	0,030	0,053
-275,657	-88,036	0,104	-0,023
-274,643	108,160	0,030	0,026
-273,628	-46,047	0,046	-0,017
-272,613	-121,508	0,035	0,004
-271,599	363,626	0,031	0,046
-270,584	-90,310	0,052	0,011
-269,570	389,963	-0,060	0,091
-268,555	450,165	0,029	-0,048
-267,540	-200,000	0,003	-0,059
-266,526	268,801	-0,050	0,065
-265,511	-200,000	0,021	-0,117
-264,497	800,000	0,018	-0,037
-263,482	-124,331	0,092	0,010
-262,467	800,000	-0,029	0,078
-261,453	-94,726	-0,060	-0,012
-260,438	-74,262	-0,096	0,025
-259,424	8,627	0,107	-0,059
-258,409	-15,075	0,040	0,019
-257,395	-200,000	0,005	0,090
-256,380	-200,000	0,019	-0,079
-255,365	88,342	0,048	-0,039
-254,351	800,000	0,046	0,096
-253,336	-146,139	-0,167	-0,011
-252,322	-200,000	0,008	0,075
-251,307	-39,319	0,113	-0,043
-250,292	-200,000	-0,003	-0,046
-249,278	800,000	0,040	0,108
-248,263	-196,210	-0,095	-0,000
-247,249	-26,125	0,110	0,047
-246,234	305,089	-0,079	0,107
-245,219	103,616	-0,092	0,079
-244,205	-200,000	-0,004	0,062
-243,190	38,815	-0,058	-0,038
-242,176	-120,470	0,116	0,014
-241,161	219,052	-0,015	0,018
-240,146	106,738	0,059	-0,051
-239,132	-200,000	0,004	-0,018
-238,117	-111,386	-0,092	0,014
-237,103	-60,028	-0,057	-0,018
-236,088	4,625	0,106	0,057
-235,073	-30,303	-0,067	0,028
-234,059	29,965	0,066	0,041
-233,044	14,907	-0,049	0,028
-232,030	800,000	-0,021	0,058
-231,015	297,095	-0,097	-0,130
-230,000	17,045	-0,056	-0,032
-228,986	-62,113	-0,040	-0,012
-227,971	-38,234	-0,026	-0,010
-226,957	-82,422	0,049	0,011
-225,942	-17,837	-0,010	0,004
-224,927	-200,000	-0,003	-0,054
-223,913	-200,000	0,019	-0,066
-222,898	-118,934	-0,219	0,028
-221,884	-200,000	-0,028	0,100
-220,869	5,871	-0,082	-0,044
-219,855	223,970	-0,054	0,064
-218,840	800,000	0,041	0,122
-217,825	-200,000	0,007	0,029
-216,811	-66,283	-0,068	0,020
-215,796	-70,618	0,058	-0,016
-214,782	-200,000	0,011	-0,050
-213,767	800,000	0,047	-0,118
-212,752	-200,000	-0,006	0,183
-211,738	-93,965	0,167	-0,033
-210,723	128,136	0,115	0,107
-209,709	-16,696	-0,109	0,050
-208,694	276,453	-0,026	0,033
-207,679	195,116	0,128	0,143
-206,665	-10,649	0,070	-0,034
-205,650	-200,000	0,003	-0,014
-204,636	-17,865	-0,060	-0,028
-203,621	-200,000	0,005	-0,031
-202,606	1,049	-0,066	-0,035
-201,592	800,000	-0,036	-0,075
-200,577	347,077	-0,021	-0,030
-199,563	-62,727	-0,074	-0,022
-198,548	20,658	0,213	0,126
-197,533	273,569	0,070	0,090
-196,519	-85,930	0,109	0,024
-195,504	-3,019	0,070	-0,036
-194,490	255,601	0,036	-0,046
-193,475	708,024	0,021	-0,040
-192,460	-140,073	-0,151	-0,011
-191,446	226,873	0,024	0,028
-190,431	283,603	0,032	-0,042
-189,417	-200,000	0,003	-0,099
-188,402	-200,000	0,001	-0,015
-187,387	-13,763	0,114	-0,053
-186,373	-106,834	-0,083	0,013
-185,358	-196,937	-0,149	-0,001
-184,344	-83,971	-0,061	0,014
-183,329	312,804	0,093	-0,127
-182,315	-167,975	-0,065	0,002
-181,300	154,017	-0,012	-0,012
-180,285	129,169	-0,085	-0,079
-179,271	800,000	0,027	-0,063
-178,256	161,490	-0,019	-0,020
-177,242	800,000	0,013	-0,034
-176,227	800,000	0,027	0,066
-175,212	-200,000	0,021	-0,073
-174,198	-200,000	0,012	-0,058
-173,183	55,852	-0,066	-0,047
-172,169	240,001	-0,077	0,094
-171,154	29,228	0,020	-0,012
-170,139	111,258	0,145	0,128
-169,125	-164,127	0,074	0,002
-168,110	-200,000	0,038	-0,195
-167,096	303,580	-0,021	0,028
-166,081	-200,000	0,012	0,064
-165,066	-145,807	-0,047	0,003
-164,052	-200,000	0,021	0,087
-163,037	-200,000	0,025	-0,141
-162,023	-200,000	0,003	-0,060
-161,008	-200,000	0,007	0,072
-159,993	10,428	0,022	0,012
-158,979	-42,104	-0,032	-0,012
-157,964	800,000	0,016	0,034
-156,950	-117,392	-0,181	-0,024
-155,935	-67,351	0,135	0,038
-154,920	-87,038	0,058	-0,013
-153,906	-141,790	-0,200	-0,014
-152,891	-157,224	0,090	-0,004
-151,877	42,153	0,027	-0,018
-150,862	800,000	0,043	-0,122
-149,847	-200,000	0,006	-0,023
-148,833	33,929	-0,015	0,010
-147,818	-33,585	0,037	-0,015
-146,804	417,510	0,044	-0,068
-145,789	198,737	0,061	0,068
-144,775	800,000	-0,052	0,152
-143,760	258,208	-0,034	0,043
-142,745	708,024	-0,068	-0,132
-141,731	-200,000	-0,010	-0,086
-140,716	-3,446	0,106	-0,053
-139,702	800,000	0,064	0,151
-138,687	35,802	-0,049	0,031
-137,672	225,774	-0,029	0,034
-136,658	-91,433	-0,147	-0,030
-135,643	-108,335	-0,110	-0,017
-134,629	36,350	0,074	0,047
-133,614	-49,157	0,099	0,034
-132,599	189,610	0,122	-0,133
-131,585	-81,042	0,025	-0,006
-130,570	27,025	-0,079	0,048
-129,556	800,000	0,021	-0,043
-128,541	-200,000	0,010	0,126
-127,526	-123,684	0,014	0,002
-126,512	-58,536	0,018	-0,006
-125,497	-0,923	0,153	0,078
-124,483	-132,795	-0,057	-0,005
-123,468	-74,795	-0,067	0,017
-122,453	362,809	-0,067	-0,099
-121,439	-100,484	-0,095	-0,017
-120,424	-93,535	-0,022	-0,004
-119,410	800,000	0,010	-0,030
-118,395	-64,837	0,094	0,027
-117,380	-200,000	0,025	0,089
-116,366	-200,000	0,004	0,023
-115,351	131,503	0,038	0,036
-114,337	11,401	0,112	-0,062
-113,322	29,019	-0,068	0,042
-112,307	-200,000	0,034	-0,144
-111,293	325,993	-0,033	0,047
-110,278	-49,644	-0,053	0,018
-109,264	20,643	0,089	-0,052
-108,249	-97,044	0,074	-0,014
-107,234	500,832	-0,035	-0,059
-106,220	800,000	-0,027	-0,075
-105,205	342,628	0,092	0,131
-104,191	-44,149	0,096	0,035
-103,176	800,000	-0,033	0,081
-102,162	-66,953	0,054	0,015
-101,147	140,891	-0,010	0,009
-100,132	800,000	-0,056	0,157
-99,118	200,470	0,046	-0,051
-98,103	383,165	0,036	0,053
-97,089	-104,355	-0,081	-0,014
-96,074	5,038	0,167	0,089
-95,059	-200,000	0,015	0,091
-94,045	682,271	-0,054	0,104
-93,030	-200,000	0,006	0,068
-92,016	800,000	-0,085	0,232
-91,001	38,379	-0,037	0,024
-89,986	800,000	0,063	0,171
-88,972	-2,603	0,203	0,103
-87,957	154,751	-0,075	0,074
-86,943	800,000	-0,015	0,034
-85,928	453,223	-0,027	-0,043
-84,913	-120,734	0,100	0,012
-83,899	150,885	0,078	-0,077
-82,884	-51,667	0,060	-0,020
-81,870	800,000	-0,029	0,082
-80,855	-159,579	0,112	-0,004
-79,840	-200,000	-0,003	0,080
-78,826	-54,549	-0,105	0,034
-77,811	56,754	-0,082	-0,058
-76,797	388,661	-0,042	0,064
-75,782	-114,818	0,075	-0,010
-74,767	-37,416	0,126	0,049
-73,753	800,000	-0,033	0,066
-72,738	119,029	0,087	-0,078
-71,724	193,117	-0,051	0,056
-70,709	-200,000	0,025	-0,145
-69,694	800,000	0,018	0,050
-68,680	800,000	0,051	0,146
-67,665	264,496	-0,007	0,009
-66,651	-15,590	0,073	0,034
-65,636	800,000	0,023	-0,063
-64,622	273,709	0,062	-0,079
-63,607	-200,000	0,027	0,102
-62,592	113,951	0,086	-0,076
-61,578	-15,449	0,043	-0,020
-60,563	-121,811	0,069	-0,008
-59,549	-195,753	-0,029	-0,000
-58,534	-130,764	-1,413	-0,136
-57,519	549,194	-0,821	-1,434
-56,505	-200,000	-0,892	-4,550
-55,490	-1,819	0,654	-0,333
-54,476	800,000	5,037	11,907
-53,461	-200,000	13,510	253,638
-52,446	-200,000	689,255	2269,022
-51,432	595,595	1623,149	2927,279
-50,417	120,737	1636,290	1476,040
-49,403	73,551	1290,334	979,518
-48,388	38,319	1025,236	661,280
-47,373	24,500	982,589	588,303
-46,359	23,696	972,443	579,564
-45,344	22,760	968,272	573,995
-44,330	22,739	966,632	572,932
-43,315	22,606	965,376	571,731
-42,300	22,590	964,256	570,992
-41,286	22,583	963,342	570,405
-40,271	22,576	962,257	569,719
-39,257	22,596	961,301	569,193
-38,242	22,540	960,556	568,548
-37,227	22,605	959,627	568,188
-36,213	22,480	958,720	567,223
-35,198	22,519	957,942	566,866
-34,184	22,567	957,242	566,585
-33,169	22,554	956,286	565,956
-32,154	22,606	955,409	565,581
-31,140	22,545	954,741	564,966
-30,125	22,664	953,687	564,702
-29,111	22,564	952,987	563,946
-28,096	22,658	952,226	563,776
-27,082	22,609	951,468	563,146
-26,067	22,606	950,749	562,689
-25,052	22,618	950,065	562,301
-24,038	22,646	949,306	561,919
-23,023	22,532	949,006	561,354
-22,009	22,628	948,109	561,106
-20,994	22,671	947,590	560,914
-19,979	22,603	946,977	560,313
-18,965	22,643	946,303	560,019
-17,950	22,635	945,675	559,599
-16,936	22,592	944,935	559,002
-15,921	22,578	944,158	558,477
-14,906	22,481	943,588	557,807
-13,892	22,409	943,260	557,362
-12,877	22,521	942,308	557,134
-11,863	22,467	941,760	556,615
-10,848	22,525	941,064	556,369
-9,833	22,604	940,783	556,431
-8,819	22,610	940,021	555,975
-7,804	22,602	939,154	555,417
-6,790	22,501	938,722	554,817
-5,775	22,516	938,197	554,533
-4,760	22,488	937,755	554,163
-3,746	22,521	936,940	553,762
-2,731	22,339	936,324	552,802
-1,717	22,309	935,514	552,207
-0,702	22,330	934,809	551,833
0,313	22,137	934,162	551,675
1,327	25,193	932,096	560,023
2,342	34,776	796,783	504,266
3,356	32,810	451,856	282,981
4,371	1,915	293,748	153,147
5,386	-2,537	274,559	138,920
6,400	-4,183	268,886	134,509
7,415	-4,544	266,360	132,902
8,429	-4,129	265,254	132,719
9,444	-4,372	264,340	132,028
10,459	-4,259	263,684	131,792
11,473	-4,419	263,069	131,327
12,488	-4,211	262,449	131,194
13,502	-4,651	262,102	130,611
14,517	-4,513	261,710	130,528
15,531	-4,504	261,338	130,340
16,546	-4,526	260,880	130,080
17,561	-4,213	260,422	130,121
18,575	-4,310	260,390	130,007
19,590	-4,433	259,913	129,646
20,604	-4,396	259,621	129,522
21,619	-4,357	259,258	129,364
22,634	-4,318	258,909	129,214
23,648	-4,191	258,556	129,139
24,663	-4,512	258,389	128,758
25,677	-4,544	258,310	128,679
26,692	-4,333	257,955	128,678
27,707	-4,489	257,679	128,390
28,721	-4,566	257,446	128,194
29,736	-4,557	257,193	128,065
30,750	-4,473	256,750	127,907
31,765	-4,484	256,664	127,843
32,780	-4,381	256,312	127,748
33,794	-4,266	256,087	127,726
34,809	-4,528	255,987	127,433
35,823	-4,423	255,633	127,338
36,838	-4,577	255,357	127,054
37,853	-4,503	255,270	127,065
38,867	-4,616	255,040	126,840
39,882	-4,598	254,841	126,745
40,896	-4,502	254,553	126,674
41,911	-4,456	254,356	126,606
42,926	-4,486	254,062	126,422
43,940	-4,623	253,783	126,152
44,955	-4,577	253,705	126,142
45,969	-4,637	253,391	125,922
46,984	-4,817	253,106	125,613
47,999	-4,940	252,891	125,388
49,013	-5,087	252,661	125,135
50,028	-5,136	252,443	124,973
51,042	-5,348	252,320	124,717
52,057	-5,287	251,984	124,593
53,071	-5,309	251,948	124,545
54,086	-5,385	251,675	124,333
55,101	-5,092	251,570	124,523
56,115	-4,746	251,295	124,675
57,130	-4,738	251,402	124,723
58,144	-4,350	251,107	124,901
59,159	-4,331	250,857	124,782
60,174	-4,372	250,854	124,734
61,188	-4,393	250,434	124,496
62,203	-4,210	250,152	124,503
63,217	-4,327	250,070	124,350
64,232	-4,109	249,850	124,416
65,247	-4,251	249,594	124,156
66,261	-4,268	249,276	123,972
67,276	-4,746	249,303	123,565
68,290	-4,737	248,803	123,314
69,305	-4,854	248,585	123,095
70,320	-4,770	248,463	123,095
71,334	-4,548	248,360	123,223
72,349	-4,185	248,291	123,487
73,363	-4,319	248,042	123,238
74,378	-4,307	247,784	123,109
75,393	-4,402	247,767	123,009
76,407	-4,304	247,503	122,950
77,422	-4,503	247,283	122,661
78,436	-4,404	247,052	122,620
79,451	-4,327	246,739	122,519
80,466	-4,597	246,643	122,232
81,480	-4,625	246,352	122,053
82,495	-4,837	246,060	121,718
83,509	-4,646	246,087	121,882
84,524	-4,689	245,807	121,696
85,539	-4,801	245,517	121,447
86,553	-4,695	245,315	121,425
87,568	-4,754	245,169	121,294
88,582	-4,663	245,020	121,285
89,597	-4,728	244,813	121,117
90,611	-4,614	244,694	121,143
91,626	-4,471	244,514	121,163
92,641	-4,253	244,258	121,208
93,655	-4,326	244,163	121,088
94,670	-4,609	244,047	120,783
95,684	-4,429	243,718	120,761
96,699	-4,430	243,522	120,652
97,714	-4,579	243,498	120,505
98,728	-4,601	243,202	120,329
99,743	-4,899	243,101	120,021
100,757	-4,908	242,902	119,904
101,772	-4,976	242,762	119,768
102,787	-4,906	242,451	119,662
103,801	-4,566	242,219	119,819
104,816	-4,586	242,181	119,772
105,830	-4,577	242,109	119,734
106,845	-4,359	241,914	119,807
107,860	-4,451	241,623	119,576
108,874	-4,405	241,362	119,474
109,889	-4,548	241,150	119,241
110,903	-4,847	241,149	118,983
111,918	-4,821	240,977	118,909
112,933	-4,495	240,755	119,057
113,947	-4,434	240,618	119,029
114,962	-4,430	240,334	118,881
115,976	-4,607	240,284	118,701
116,991	-4,699	240,105	118,525
118,006	-4,448	239,909	118,624
119,020	-4,481	239,741	118,504
120,035	-4,407	239,543	118,456
121,049	-4,301	239,470	118,496
122,064	-4,331	239,258	118,356
123,079	-4,466	239,128	118,171
124,093	-4,710	238,832	117,815
125,108	-4,699	238,575	117,686
126,122	-5,091	238,445	117,293
127,137	-5,080	238,295	117,218
128,151	-4,869	238,064	117,265
129,166	-4,923	237,910	117,135
130,181	-4,664	237,726	117,244
131,195	-4,680	237,540	117,129
132,210	-4,742	237,265	116,932
133,224	-4,592	237,253	117,038
134,239	-4,670	237,213	116,944
135,254	-4,496	236,928	116,933
136,268	-4,759	236,802	116,649
137,283	-4,845	236,534	116,437
138,297	-4,949	236,316	116,236
139,312	-4,838	236,120	116,218
140,327	-4,665	236,040	116,308
141,341	-4,173	236,019	116,684
142,356	-4,253	235,863	116,531
143,370	-4,403	235,692	116,316
144,385	-4,178	235,487	116,385
145,400	-4,033	235,241	116,369
146,414	-4,098	235,176	116,275
147,429	-4,238	234,969	116,050
148,443	-4,521	234,833	115,745
149,458	-4,343	234,719	115,822
150,473	-4,131	234,438	115,842
151,487	-4,145	234,341	115,772
152,502	-4,275	234,117	115,548
153,516	-4,287	233,999	115,470
154,531	-3,943	233,748	115,610
155,546	-4,034	233,631	115,469
156,560	-4,248	233,453	115,201
157,575	-4,441	233,346	114,984
158,589	-4,520	233,204	114,841
159,604	-3,962	232,863	115,105
160,619	-4,330	232,953	114,848
161,633	-4,073	232,596	114,865
162,648	-3,968	232,408	114,845
163,662	-4,134	232,315	114,657
164,677	-4,261	232,318	114,548
165,692	-3,978	232,048	114,629
166,706	-4,214	231,949	114,383
167,721	-3,964	231,776	114,484
168,735	-4,124	231,713	114,317
169,750	-3,949	231,478	114,329
170,764	-4,340	231,375	113,960
171,779	-3,908	231,082	114,145
172,794	-3,872	230,910	114,078
173,808	-4,425	230,923	113,640
174,823	-4,662	230,488	113,230
175,837	-4,862	230,294	112,969
176,852	-4,353	230,232	113,326
177,867	-4,162	230,319	113,508
178,881	-4,249	229,993	113,270
179,896	-4,211	229,862	113,224
180,910	-4,231	229,896	113,215
181,925	-4,105	229,664	113,190
182,940	-3,922	229,399	113,192
183,954	-4,113	229,270	112,969
184,969	-3,802	229,036	113,086
185,983	-3,886	228,922	112,954
186,998	-3,902	228,663	112,804
188,013	-3,798	228,652	112,870
189,027	-3,769	228,479	112,796
190,042	-4,167	228,511	112,493
191,056	-4,129	228,337	112,427
192,071	-4,007	228,152	112,420
193,086	-4,082	228,056	112,305
194,100	-4,149	227,769	112,102
195,115	-4,165	227,421	111,908
196,129	-4,730	227,260	111,383
197,144	-1,668	228,118	114,163
198,159	1,734	229,296	117,383
199,173	3,816	229,610	119,149
200,188	4,104	229,571	119,341
201,202	4,093	229,511	119,291
202,217	4,318	229,311	119,351
203,232	4,669	229,240	119,574
204,246	4,615	229,135	119,467
205,261	4,527	228,912	119,272
206,275	4,692	228,906	119,387
207,290	4,560	228,835	119,237
208,304	4,655	228,557	119,154
209,319	4,860	228,300	119,168
210,334	4,501	228,181	118,819
211,348	4,411	227,916	118,601
212,363	4,213	227,555	118,251
213,377	3,886	227,462	117,941
214,392	3,742	227,450	117,814
215,407	3,884	227,381	117,876
216,421	4,223	226,997	117,926
217,436	3,892	226,884	117,604
218,450	3,768	226,682	117,394
219,465	3,618	226,519	117,184
220,480	3,665	226,392	117,145
221,494	3,645	226,356	117,100
222,509	3,785	226,148	117,088
223,523	4,033	226,000	117,190
224,538	3,810	225,743	116,877
225,553	3,691	225,734	116,771
226,567	3,891	225,683	116,887
227,582	4,224	225,498	117,033
228,596	4,529	225,301	117,152
229,611	4,093	225,129	116,722
230,626	3,777	224,925	116,366
231,640	3,775	224,885	116,334
232,655	4,097	224,738	116,491
233,669	4,427	224,760	116,741
234,684	4,715	224,502	116,814
235,699	4,474	224,410	116,574
236,713	4,265	224,135	116,263
237,728	3,842	223,851	115,787
238,742	3,701	223,718	115,602
239,757	3,850	223,607	115,647
240,772	3,912	223,404	115,577
241,786	3,916	223,323	115,528
242,801	4,250	223,323	115,769
243,815	4,439	223,194	115,833
244,830	4,489	223,001	115,761
245,844	3,839	222,828	115,174
246,859	4,050	222,778	115,296
247,874	4,258	222,595	115,346
248,888	4,013	222,597	115,154
249,903	3,694	222,400	114,803
250,917	4,026	222,192	114,933
251,932	3,989	221,954	114,772
252,947	3,764	221,677	114,451
253,961	4,089	221,514	114,599
254,976	4,026	221,492	114,530
255,990	4,302	221,484	114,721
257,005	4,365	221,326	114,676
258,020	4,192	221,273	114,509
259,034	4,509	221,068	114,629
260,049	4,382	220,752	114,361
261,063	4,135	220,744	114,163
262,078	4,276	220,510	114,136
263,093	4,384	220,395	114,146
264,107	3,936	220,358	113,785
265,122	4,200	220,023	113,797
266,136	4,354	220,103	113,942
267,151	4,236	220,048	113,817
268,166	3,903	219,630	113,345
269,180	3,889	219,450	113,232
270,195	3,782	219,378	113,105
271,209	3,779	219,160	112,981
272,224	3,827	219,132	112,991
273,239	3,803	219,055	112,925
274,253	4,068	218,740	112,946
275,268	3,879	218,479	112,663
276,282	3,748	218,500	112,567
277,297	3,782	218,245	112,451
278,312	3,754	218,156	112,375
279,326	3,969	218,101	112,494
280,341	3,690	218,187	112,324
281,355	4,048	217,876	112,415
282,370	4,026	217,718	112,308
283,384	3,548	217,362	111,766
284,399	3,638	217,300	111,789
285,414	3,619	217,199	111,714
286,428	3,768	217,190	111,808
287,443	4,007	217,163	111,957
288,457	4,115	216,974	111,929
289,472	3,930	216,676	111,630
290,487	3,440	216,427	111,137
291,501	3,542	216,279	111,126
292,516	3,688	216,297	111,230
293,530	3,760	216,184	111,214
294,545	3,653	215,891	110,976
295,560	3,631	215,901	110,956
296,574	3,732	215,759	110,946
297,589	3,807	215,617	110,918
298,603	4,011	215,386	110,936
299,618	4,105	215,378	110,990
300,633	3,894	215,216	110,744
301,647	4,005	215,243	110,828
302,662	4,225	215,012	110,857
303,676	4,148	214,696	110,629
304,691	3,873	214,686	110,416
305,706	4,250	214,547	110,605
306,720	4,016	214,617	110,464
307,735	3,781	214,289	110,117
308,749	3,606	214,160	109,915
309,764	3,980	213,948	110,064
310,779	4,281	213,872	110,231
311,793	4,179	213,764	110,093
312,808	4,119	213,453	109,879
313,822	4,165	213,299	109,823
314,837	3,788	213,365	109,579
315,852	3,820	212,990	109,399
316,866	3,953	212,897	109,436
317,881	4,198	212,720	109,510
318,895	4,199	212,791	109,537
319,910	3,999	212,515	109,243
320,925	3,583	212,383	108,871
321,939	3,556	212,086	108,689
322,954	3,679	212,161	108,806
323,968	3,802	212,054	108,828
324,983	4,055	211,865	108,900
325,997	4,213	211,872	109,006
327,012	4,157	211,707	108,872
328,027	4,075	211,572	108,735
329,041	4,324	211,448	108,837
330,056	4,308	211,273	108,726
331,070	3,938	211,001	108,316
332,085	3,839	210,795	108,130
333,100	3,977	210,771	108,206
334,114	3,881	210,711	108,098
335,129	3,722	210,582	107,910
336,143	3,676	210,452	107,802
337,158	3,756	210,234	107,736
338,173	3,778	210,157	107,702
339,187	3,835	209,833	107,567
340,202	3,785	209,741	107,475
341,216	3,541	209,639	107,243
342,231	3,426	209,667	107,167
343,246	3,520	209,506	107,142
344,260	3,797	209,305	107,222
345,275	3,664	209,271	107,102
346,289	4,052	209,052	107,251
347,304	4,333	208,908	107,363
348,319	3,916	208,809	107,013
349,333	3,889	208,682	106,919
350,348	4,027	208,484	106,904
351,362	4,077	208,394	106,883
352,377	3,745	208,371	106,631
353,392	3,716	208,170	106,498
354,406	3,722	208,120	106,468
355,421	194,252	1346,266	1436,097
356,435	154,996	1485,028	1436,220
