DTS Sentinel unit serial number:	SN410029Multiplexer serial number:	ORYXHardware model number:	OX2-SRSoftware version number:	ORYX F/W v4,00 Oryx Data Collector v3.7.2.0data status	okinstallation	B6 Nyhavnadifferential loss correction	single-endedforward channel	channel 2reverse channel	N/Adate	2023/12/07time	19:40:08forward acquisition time	300,00reverse acquisition time	0,00gamma	499,1914k internal	0,3164k external	0,3164temperature offset calibration	1,0000default loss term (dB/km)	0,3820temperature slope calibration	1,0000multiplexer offset coefficient	1,0000multiplexer slope coefficient	1,0000fibre end	0,00T internal ref (°C)	13,95T ext. ref 1 (°C)	-3,01T ext. ref 2 (°C)	-2,99length (m)	temperature (°C)	Stokes	anti-Stokes-744,400	-122,822	0,183	-0,022
-743,385	-89,325	-0,280	0,060
-742,371	-99,505	0,305	0,056
-741,356	-84,853	-0,387	-0,089
-740,342	-90,486	0,179	0,038
-739,327	-25,037	-0,187	-0,081
-738,312	-14,999	0,196	0,092
-737,298	-150,393	-0,303	-0,017
-736,283	33,057	0,274	0,174
-735,269	-177,506	-0,175	-0,003
-734,254	800,000	0,050	0,106
-733,239	-25,938	-0,511	-0,220
-732,225	-171,612	0,223	-0,005
-731,210	441,431	0,028	0,046
-730,196	-128,966	-0,109	-0,011
-729,181	605,342	-0,045	-0,083
-728,167	390,317	0,037	-0,056
-727,152	-200,000	-0,017	-0,081
-726,137	-155,550	-0,158	-0,007
-725,123	-200,000	0,000	0,009
-724,108	-94,077	-0,090	-0,018
-723,094	145,737	-0,027	0,027
-722,079	36,260	-0,118	-0,077
-721,064	-121,323	-0,056	-0,007
-720,050	-29,276	0,039	0,016
-719,035	-200,000	-0,012	0,093
-718,021	-47,504	-0,005	-0,002
-717,006	-12,957	-0,047	-0,022
-715,991	-144,368	-0,176	0,012
-714,977	800,000	0,060	-0,162
-713,962	800,000	0,003	0,010
-712,948	-200,000	0,009	-0,037
-711,933	379,878	0,057	-0,087
-710,918	345,686	-0,074	-0,107
-709,904	118,932	-0,131	-0,119
-708,889	-200,000	0,020	-0,127
-707,875	-200,000	-0,039	-0,139
-706,860	16,091	0,089	0,052
-705,845	59,662	-0,041	0,030
-704,831	8,650	0,044	-0,024
-703,816	168,034	-0,018	-0,018
-702,802	268,944	0,028	0,037
-701,787	135,288	-0,022	0,021
-700,772	374,871	0,017	0,026
-699,758	-64,602	-0,027	-0,008
-698,743	-200,000	-0,004	0,040
-697,729	-200,000	-0,032	0,169
-696,714	250,173	0,092	0,115
-695,699	25,317	-0,053	-0,033
-694,685	800,000	-0,051	0,125
-693,670	800,000	0,013	-0,040
-692,656	800,000	-0,119	-0,304
-691,641	-200,000	0,018	-0,110
-690,627	-200,000	-0,018	0,089
-689,612	778,663	-0,082	-0,164
-688,597	523,798	0,042	-0,073
-687,583	-200,000	0,003	-0,024
-686,568	-200,000	-0,054	-0,190
-685,554	8,422	-0,083	0,046
-684,539	504,842	0,045	-0,077
-683,524	-200,000	-0,016	0,186
-682,510	-6,928	-0,059	-0,029
-681,495	-13,662	-0,088	0,041
-680,481	800,000	-0,048	-0,117
-679,466	186,636	0,005	0,006
-678,451	-21,059	-0,068	-0,030
-677,437	23,105	0,113	0,068
-676,422	206,130	0,037	0,043
-675,408	523,917	-0,035	0,060
-674,393	99,573	0,039	-0,033
-673,378	-42,624	-0,125	-0,046
-672,364	52,583	0,031	0,022
-671,349	-99,282	-0,107	-0,020
-670,335	117,028	0,097	0,087
-669,320	-110,463	-0,037	0,006
-668,305	-200,000	0,007	-0,056
-667,291	-68,859	-0,116	-0,033
-666,276	459,710	-0,015	-0,024
-665,262	-68,173	0,059	-0,017
-664,247	227,403	0,092	-0,110
-663,232	30,947	-0,111	0,069
-662,218	-75,401	0,136	0,035
-661,203	-43,389	-0,137	0,050
-660,189	641,780	-0,020	0,037
-659,174	-13,452	-0,048	-0,023
-658,159	-200,000	-0,025	0,114
-657,145	75,966	-0,025	-0,019
-656,130	-118,976	0,074	-0,009
-655,116	257,280	-0,023	-0,029
-654,101	-61,131	0,086	0,027
-653,086	-200,000	-0,002	-0,029
-652,072	-5,699	0,094	0,047
-651,057	-36,814	-0,068	0,027
-650,043	-49,004	-0,085	-0,030
-649,028	-99,544	-0,110	0,020
-648,014	-200,000	0,034	0,115
-646,999	72,708	0,110	0,084
-645,984	800,000	-0,029	-0,062
-644,970	-132,280	-0,170	-0,016
-643,955	800,000	0,032	0,086
-642,941	103,042	0,040	0,034
-641,926	-200,000	0,007	0,110
-640,911	628,965	0,046	-0,086
-639,897	320,746	0,058	-0,081
-638,882	376,976	-0,017	0,026
-637,868	-20,167	0,066	-0,030
-636,853	86,931	-0,027	0,022
-635,838	-200,000	-0,013	-0,151
-634,824	83,207	-0,057	-0,046
-633,809	418,201	-0,057	-0,090
-632,795	-200,000	0,009	-0,037
-631,780	141,253	0,070	-0,068
-630,765	-200,000	-0,023	0,141
-629,751	57,595	-0,074	0,053
-628,736	-200,000	-0,002	0,033
-627,722	-200,000	-0,003	0,078
-626,707	19,037	-0,209	0,123
-625,692	22,357	-0,117	0,070
-624,678	89,655	0,078	-0,064
-623,663	328,665	-0,055	0,077
-622,649	132,984	-0,082	0,077
-621,634	-70,937	0,085	-0,023
-620,619	-136,261	-0,101	-0,009
-619,605	-81,510	0,157	-0,038
-618,590	185,607	0,054	0,059
-617,576	0,579	0,020	-0,010
-616,561	-52,684	-0,106	0,036
-615,546	-11,090	-0,072	-0,035
-614,532	792,463	-0,048	0,097
-613,517	308,592	-0,066	0,091
-612,503	-200,000	0,015	0,118
-611,488	136,291	0,027	0,026
-610,474	-41,995	-0,034	-0,013
-609,459	800,000	0,069	0,155
-608,444	-200,000	-0,005	-0,148
-607,430	-31,533	-0,069	-0,028
-606,415	-31,010	-0,163	-0,067
-605,401	268,675	-0,007	-0,009
-604,386	163,064	0,095	0,098
-603,371	-50,244	0,182	0,063
-602,357	-200,000	0,012	-0,079
-601,342	-34,369	-0,145	-0,058
-600,328	-125,306	-0,093	-0,010
-599,313	-200,000	0,017	-0,075
-598,298	-200,000	-0,007	-0,051
-597,284	259,282	-0,076	0,096
-596,269	53,414	0,128	-0,090
-595,255	190,715	0,075	-0,083
-594,240	628,086	-0,044	-0,083
-593,225	800,000	-0,033	-0,100
-592,211	151,785	-0,043	0,043
-591,196	-53,305	0,114	-0,038
-590,182	-200,000	0,014	-0,126
-589,167	-200,000	0,004	0,128
-588,152	-200,000	-0,004	0,070
-587,138	-81,739	-0,117	-0,028
-586,123	-146,347	-0,075	0,005
-585,109	168,120	0,110	-0,115
-584,094	164,346	0,058	-0,060
-583,079	-124,236	-0,080	-0,009
-582,065	-149,529	0,035	-0,002
-581,050	344,869	-0,057	0,082
-580,036	-163,973	0,093	0,003
-579,021	-200,000	-0,022	0,095
-578,006	19,736	-0,193	-0,113
-576,992	-178,483	-0,029	-0,000
-575,977	-152,599	0,106	-0,005
-574,963	-120,732	0,065	0,008
-573,948	309,958	-0,022	0,031
-572,934	698,016	0,025	0,049
-571,919	-200,000	-0,001	0,095
-570,904	-200,000	0,000	0,044
-569,890	83,628	-0,108	0,086
-568,875	-20,925	0,141	-0,063
-567,861	192,046	-0,051	0,057
-566,846	800,000	0,058	-0,121
-565,831	-151,570	0,023	-0,001
-564,817	550,236	-0,033	0,058
-563,802	164,691	0,027	-0,028
-562,788	800,000	0,024	0,071
-561,773	251,890	-0,092	0,114
-560,758	800,000	0,037	0,078
-559,744	-120,624	0,115	-0,014
-558,729	-86,127	0,030	0,007
-557,715	72,705	-0,041	-0,032
-556,700	800,000	0,011	0,034
-555,685	-78,705	0,145	-0,036
-554,671	-200,000	-0,012	-0,126
-553,656	287,373	0,044	0,058
-552,642	481,086	0,058	0,096
-551,627	29,177	-0,064	0,039
-550,612	34,228	-0,048	-0,031
-549,598	-200,000	-0,025	-0,218
-548,583	56,283	-0,044	-0,031
-547,569	197,314	0,094	0,105
-546,554	257,645	0,006	-0,008
-545,539	-155,330	0,012	-0,001
-544,525	370,226	0,039	0,058
-543,510	-28,492	-0,189	-0,079
-542,496	484,971	-0,024	0,040
-541,481	65,805	0,109	0,080
-540,466	7,466	-0,061	0,033
-539,452	39,557	0,074	-0,048
-538,437	232,527	0,098	0,118
-537,423	256,525	0,090	0,113
-536,408	-200,000	-0,020	-0,099
-535,393	78,487	-0,107	0,083
-534,379	-107,055	-0,088	0,014
-533,364	800,000	-0,030	-0,081
-532,350	77,699	-0,052	-0,040
-531,335	185,805	-0,042	-0,046
-530,321	-81,846	-0,016	0,004
-529,306	-200,000	-0,038	-0,189
-528,291	-200,000	0,000	-0,097
-527,277	-200,000	-0,003	-0,080
-526,262	-124,092	0,035	-0,004
-525,248	-98,808	0,062	-0,011
-524,233	-43,519	0,031	0,012
-523,218	-107,696	0,191	0,030
-522,204	-140,472	-0,093	-0,007
-521,189	-74,549	-0,083	-0,022
-520,175	-200,000	-0,001	0,027
-519,160	388,539	0,043	-0,065
-518,145	-20,775	-0,103	-0,046
-517,131	-158,237	0,098	0,004
-516,116	-200,000	-0,025	0,097
-515,102	800,000	-0,019	-0,048
-514,087	303,325	0,042	-0,057
-513,072	22,464	-0,059	-0,035
-512,058	-83,050	-0,145	-0,034
-511,043	421,203	0,045	-0,071
-510,029	131,333	-0,070	0,065
-509,014	-200,000	-0,021	-0,085
-507,999	27,287	0,129	-0,079
-506,985	800,000	-0,042	-0,087
-505,970	-53,058	-0,082	0,027
-504,956	-200,000	-0,003	-0,077
-503,941	800,000	0,010	-0,028
-502,926	-100,911	-0,102	0,018
-501,912	-110,198	0,138	0,021
-500,897	316,393	0,098	-0,136
-499,883	55,046	-0,113	-0,079
-498,868	745,693	-0,040	0,079
-497,853	-200,000	-0,018	-0,058
-496,839	222,708	0,040	-0,047
-495,824	-200,000	0,025	0,089
-494,810	-70,711	0,099	0,027
-493,795	800,000	0,042	0,100
-492,781	296,662	0,091	0,122
-491,766	112,480	-0,053	-0,046
-490,751	-30,830	-0,107	0,044
-489,737	-106,539	0,105	0,017
-488,722	-200,000	-0,008	-0,098
-487,708	800,000	-0,045	0,099
-486,693	-91,219	0,043	-0,009
-485,678	189,534	-0,106	0,116
-484,664	800,000	-0,045	-0,092
-483,649	-108,257	-0,133	-0,021
-482,635	59,301	-0,150	-0,107
-481,620	617,466	0,058	-0,106
-480,605	-200,000	-0,014	0,080
-479,591	-200,000	-0,024	0,088
-478,576	44,175	0,015	-0,010
-477,562	66,386	-0,057	0,042
-476,547	-17,938	-0,067	-0,030
-475,532	800,000	-0,017	-0,040
-474,518	-7,496	0,101	0,049
-473,503	164,120	0,068	0,070
-472,489	-200,000	0,003	0,081
-471,474	-129,945	0,036	0,004
-470,459	800,000	-0,024	-0,072
-469,445	87,207	-0,058	-0,046
-468,430	800,000	-0,017	0,051
-467,416	-200,000	-0,005	-0,176
-466,401	-200,000	-0,008	0,106
-465,386	-200,000	0,018	-0,061
-464,372	-90,873	-0,057	-0,012
-463,357	25,330	0,083	-0,050
-462,343	8,955	0,162	0,089
-461,328	-93,177	-0,100	0,020
-460,313	-200,000	0,046	-0,160
-459,299	25,224	0,053	-0,032
-458,284	64,757	0,076	-0,056
-457,270	-200,000	-0,009	-0,088
-456,255	2,757	-0,049	-0,026
-455,241	800,000	0,011	-0,030
-454,226	124,671	-0,104	0,095
-453,211	-72,222	0,142	-0,038
-452,197	233,428	0,089	0,106
-451,182	-27,035	-0,098	-0,042
-450,168	112,018	0,112	-0,099
-449,153	-120,555	0,072	-0,009
-448,138	-23,225	-0,073	0,032
-447,124	172,131	-0,050	0,052
-446,109	180,577	0,030	-0,032
-445,095	800,000	0,039	-0,115
-444,080	-45,706	0,138	0,049
-443,065	-200,000	0,019	0,094
-442,051	34,992	0,069	0,044
-441,036	-95,621	-0,077	0,015
-440,022	800,000	0,092	-0,202
-439,007	-200,000	-0,006	-0,191
-437,992	122,875	0,132	0,120
-436,978	-122,346	0,099	0,012
-435,963	-72,285	-0,073	0,020
-434,949	-200,000	0,023	0,116
-433,934	-200,000	-0,002	-0,028
-432,919	147,567	-0,121	-0,119
-431,905	-71,848	0,064	0,017
-430,890	-130,464	-0,058	-0,006
-429,876	70,140	0,076	0,057
-428,861	-122,651	-0,062	0,007
-427,846	137,133	-0,045	-0,042
-426,832	4,557	-0,119	-0,063
-425,817	-131,831	-0,020	-0,002
-424,803	27,428	0,131	-0,080
-423,788	78,383	-0,069	0,053
-422,773	148,769	0,040	0,039
-421,759	30,554	-0,102	0,063
-420,744	62,068	0,078	0,057
-419,730	-90,204	-0,081	-0,017
-418,715	-200,000	0,020	-0,155
-417,701	800,000	-0,059	-0,133
-416,686	344,904	0,080	-0,115
-415,671	800,000	0,026	-0,059
-414,657	326,356	-0,062	0,086
-413,642	739,946	0,024	0,046
-412,628	218,135	-0,099	-0,115
-411,613	-73,711	-0,148	-0,039
-410,598	-23,777	-0,088	-0,038
-409,584	609,995	0,053	0,096
-408,569	22,321	0,015	-0,009
-407,555	297,273	0,080	0,107
-406,540	378,292	0,025	0,037
-405,525	332,112	-0,028	0,039
-404,511	-118,896	-0,081	-0,010
-403,496	146,976	-0,042	0,041
-402,482	178,860	-0,051	0,054
-401,467	135,942	0,053	0,050
-400,452	158,244	0,049	-0,049
-399,438	-200,000	0,012	-0,058
-398,423	5,679	-0,046	-0,025
-397,409	-56,528	-0,084	0,027
-396,394	714,701	-0,040	-0,078
-395,379	3,279	-0,056	0,030
-394,365	365,828	-0,027	-0,040
-393,350	800,000	-0,035	0,089
-392,336	-36,706	-0,163	0,063
-391,321	791,725	-0,049	0,098
-390,306	-200,000	-0,002	-0,074
-389,292	53,189	-0,123	-0,085
-388,277	-159,394	0,162	0,006
-387,263	127,529	-0,083	-0,077
-386,248	61,902	0,030	0,022
-385,233	800,000	-0,032	0,089
-384,219	800,000	0,071	-0,191
-383,204	-36,613	-0,087	-0,034
-382,190	800,000	-0,019	-0,049
-381,175	-200,000	0,023	-0,184
-380,160	96,923	0,027	0,023
-379,146	-149,843	-0,080	-0,004
-378,131	-90,636	0,130	0,027
-377,117	800,000	0,034	0,083
-376,102	108,023	-0,022	-0,019
-375,088	-78,658	-0,110	0,027
-374,073	-200,000	0,010	0,070
-373,058	-200,000	-0,091	0,000
-372,044	-200,000	-0,009	0,034
-371,029	-0,833	-0,048	-0,025
-370,015	-122,568	-0,083	0,010
-369,000	2,462	0,100	0,052
-367,985	724,662	0,061	-0,119
-366,971	-173,412	0,082	-0,002
-365,956	24,377	-0,109	0,065
-364,942	800,000	-0,012	-0,035
-363,927	-200,000	-0,001	-0,041
-362,912	800,000	-0,017	-0,049
-361,898	463,705	-0,044	-0,072
-360,883	106,923	0,061	-0,052
-359,869	-200,000	0,009	-0,106
-358,854	29,843	-0,048	0,029
-357,839	-55,992	-0,058	0,019
-356,825	-6,350	-0,127	0,063
-355,810	324,636	-0,027	-0,037
-354,796	800,000	-0,027	-0,079
-353,781	-200,000	0,028	-0,109
-352,766	-200,000	0,018	-0,062
-351,752	147,911	0,065	-0,064
-350,737	-113,647	-0,065	0,009
-349,723	800,000	0,036	0,077
-348,708	-200,000	-0,012	-0,072
-347,693	-100,046	-0,151	0,027
-346,679	-40,811	0,059	-0,022
-345,664	-128,945	0,085	0,008
-344,650	-121,201	0,154	0,018
-343,635	-175,718	0,088	0,002
-342,620	603,430	-0,021	0,039
-341,606	126,558	0,082	-0,075
-340,591	141,069	-0,089	-0,086
-339,577	111,396	0,023	-0,020
-338,562	-200,000	-0,038	-0,129
-337,548	-200,000	-0,010	0,069
-336,533	-200,000	0,001	-0,026
-335,518	117,068	0,044	0,039
-334,504	-200,000	0,017	-0,093
-333,489	356,544	0,057	0,082
-332,475	-75,462	-0,083	-0,021
-331,460	-55,257	-0,050	-0,016
-330,445	-200,000	-0,029	0,100
-329,431	-105,010	0,111	-0,018
-328,416	-76,331	0,148	-0,037
-327,402	-200,000	0,002	0,022
-326,387	-25,285	-0,127	-0,054
-325,372	499,213	0,059	0,099
-324,358	350,310	-0,035	-0,050
-323,343	-200,000	-0,014	-0,127
-322,329	390,398	0,058	0,088
-321,314	800,000	0,054	0,121
-320,299	122,246	-0,088	-0,080
-319,285	-200,000	-0,027	0,142
-318,270	-2,095	-0,031	0,016
-317,256	-54,062	-0,089	-0,029
-316,241	-63,455	0,122	-0,036
-315,226	58,452	-0,128	0,091
-314,212	70,091	0,027	0,020
-313,197	186,739	0,031	-0,033
-312,183	-200,000	0,029	0,150
-311,168	-10,823	-0,078	-0,037
-310,153	-90,859	-0,064	-0,013
-309,139	-20,987	-0,127	-0,056
-308,124	-200,000	-0,018	0,059
-307,110	-67,378	0,076	0,022
-306,095	45,544	0,121	0,081
-305,080	-97,078	0,122	-0,023
-304,066	-193,348	0,049	0,000
-303,051	436,172	0,004	0,006
-302,037	-176,546	0,099	0,002
-301,022	-200,000	-0,028	0,186
-300,008	-88,875	-0,052	-0,011
-298,993	-200,000	0,056	-0,305
-297,978	-45,818	0,122	-0,043
-296,964	-71,584	0,085	0,023
-295,949	426,732	0,009	0,014
-294,935	-26,442	-0,093	-0,039
-293,920	310,661	-0,040	-0,054
-292,905	-46,089	-0,080	0,028
-291,891	-200,000	0,001	-0,045
-290,876	30,247	-0,084	0,052
-289,862	-65,976	-0,085	0,024
-288,847	693,808	-0,047	0,090
-287,832	-25,583	0,081	-0,034
-286,818	288,985	0,109	-0,144
-285,803	-15,979	0,152	0,070
-284,789	37,242	-0,105	-0,067
-283,774	-200,000	0,017	-0,057
-282,759	-190,327	-0,104	-0,001
-281,745	-19,900	-0,072	0,032
-280,730	-120,557	0,015	0,002
-279,716	800,000	-0,034	0,070
-278,701	98,354	0,158	0,131
-277,686	-200,000	0,007	-0,027
-276,672	259,937	-0,039	0,048
-275,657	-76,277	0,048	0,012
-274,643	-67,335	0,072	0,020
-273,628	167,153	0,024	-0,025
-272,613	-107,635	0,200	-0,031
-271,599	-47,647	0,157	-0,055
-270,584	-200,000	-0,018	0,096
-269,570	7,638	0,122	-0,066
-268,555	477,464	-0,041	-0,067
-267,540	800,000	0,032	0,073
-266,526	341,882	0,034	0,048
-265,511	244,733	-0,047	-0,057
-264,497	-105,675	0,084	0,014
-263,482	-128,838	-0,058	-0,006
-262,467	-200,000	0,000	0,158
-261,453	713,718	0,039	0,075
-260,438	89,563	0,040	0,032
-259,424	-97,538	0,079	-0,015
-258,409	-68,620	-0,054	0,015
-257,395	-200,000	0,006	-0,024
-256,380	240,012	0,037	-0,045
-255,365	-49,377	0,087	0,030
-254,351	-18,701	-0,076	-0,034
-253,336	349,374	-0,045	0,064
-252,322	-111,602	0,073	0,011
-251,307	296,612	0,045	0,060
-250,292	-50,156	0,064	-0,022
-249,278	-200,000	-0,009	0,259
-248,263	246,453	-0,049	-0,060
-247,249	48,068	-0,132	-0,089
-246,234	107,256	-0,060	0,052
-245,219	-75,638	-0,141	0,036
-244,205	-200,000	0,005	-0,067
-243,190	200,521	-0,041	-0,045
-242,176	800,000	0,045	-0,128
-241,161	112,438	-0,019	-0,017
-240,146	-200,000	0,005	0,133
-239,132	304,431	-0,105	-0,141
-238,117	595,599	-0,061	-0,110
-237,103	38,629	0,024	-0,015
-236,088	199,266	-0,043	-0,047
-235,073	-92,217	0,180	-0,036
-234,059	-200,000	0,014	0,195
-233,044	-200,000	0,003	0,036
-232,030	-200,000	0,001	-0,005
-231,015	132,299	-0,087	-0,081
-230,000	-20,888	-0,044	-0,019
-228,986	800,000	-0,020	-0,045
-227,971	-200,000	0,007	0,029
-226,957	-200,000	-0,006	-0,041
-225,942	-24,731	-0,055	0,023
-224,927	294,370	-0,012	-0,016
-223,913	800,000	-0,023	0,068
-222,898	13,933	0,073	0,041
-221,884	-15,730	0,129	-0,059
-220,869	-26,150	-0,035	-0,015
-219,855	-116,502	0,018	-0,002
-218,840	374,810	-0,029	0,043
-217,825	131,466	-0,028	-0,026
-216,811	-200,000	-0,050	-0,203
-215,796	3,803	-0,189	-0,099
-214,782	204,490	0,054	0,060
-213,767	-102,879	0,131	-0,022
-212,752	-58,203	0,131	0,041
-211,738	523,438	-0,038	0,064
-210,723	-200,000	-0,034	-0,124
-209,709	-200,000	-0,013	-0,050
-208,694	21,193	-0,033	-0,019
-207,679	109,479	-0,033	0,028
-206,665	41,993	0,085	-0,055
-205,650	-182,862	0,108	0,001
-204,636	345,509	-0,039	0,055
-203,621	15,814	0,030	-0,017
-202,606	800,000	-0,030	-0,061
-201,592	-60,403	0,102	0,031
-200,577	-200,000	0,004	-0,033
-199,563	800,000	-0,061	-0,179
-198,548	-160,673	0,139	-0,005
-197,533	11,333	0,079	0,043
-196,519	-200,000	0,010	0,071
-195,504	-9,624	-0,036	-0,017
-194,490	7,579	-0,059	0,032
-193,475	145,555	0,032	0,031
-192,460	160,824	0,124	0,125
-191,446	-200,000	-0,017	0,056
-190,431	95,684	-0,056	0,046
-189,417	800,000	0,015	0,037
-188,402	-8,418	-0,028	-0,014
-187,387	-200,000	-0,012	0,101
-186,373	-200,000	0,003	0,084
-185,358	800,000	-0,031	0,085
-184,344	107,515	0,081	0,069
-183,329	-200,000	-0,017	-0,062
-182,315	122,310	0,105	0,094
-181,300	-200,000	0,014	0,090
-180,285	-38,730	0,056	-0,021
-179,271	52,833	0,019	0,013
-178,256	-53,960	0,015	0,005
-177,242	-200,000	-0,007	0,034
-176,227	-200,000	-0,003	0,125
-175,212	232,130	-0,048	0,057
-174,198	57,580	-0,071	-0,050
-173,183	140,290	0,093	0,089
-172,169	119,482	0,021	-0,019
-171,154	116,281	-0,030	-0,026
-170,139	477,014	0,074	0,121
-169,125	302,118	0,071	0,095
-168,110	284,541	-0,022	0,028
-167,096	421,579	0,024	-0,036
-166,081	22,045	0,122	0,071
-165,066	-122,790	-0,070	-0,008
-164,052	-132,912	0,087	0,008
-163,037	57,825	-0,138	0,097
-162,023	-200,000	0,003	0,070
-161,008	-200,000	0,013	0,146
-159,993	-106,897	-0,042	0,007
-158,979	-200,000	0,002	0,040
-157,964	800,000	-0,027	-0,063
-156,950	-200,000	-0,012	0,043
-155,935	311,532	0,103	0,139
-154,920	284,522	0,008	0,010
-153,906	-5,240	-0,052	0,026
-152,891	104,449	0,055	-0,047
-151,877	-200,000	-0,002	-0,016
-150,862	63,059	-0,027	-0,019
-149,847	-200,000	-0,038	0,141
-148,833	324,806	-0,065	0,089
-147,818	-148,074	0,089	-0,005
-146,804	-200,000	0,003	-0,037
-145,789	507,965	-0,042	0,070
-144,775	177,769	0,069	-0,073
-143,760	-200,000	-0,015	-0,130
-142,745	800,000	0,055	-0,157
-141,731	-7,210	-0,072	0,035
-140,716	800,000	-0,041	-0,098
-139,702	-200,000	0,041	-0,202
-138,687	-200,000	0,021	0,085
-137,672	449,778	0,086	-0,136
-136,658	17,067	-0,066	-0,038
-135,643	371,928	-0,047	-0,068
-134,629	316,145	-0,015	-0,020
-133,614	-102,154	-0,114	-0,019
-132,599	-200,000	-0,007	-0,028
-131,585	549,869	0,003	0,005
-130,570	-200,000	-0,023	0,161
-129,556	-97,804	0,083	0,015
-128,541	-200,000	0,023	0,103
-127,526	16,188	-0,117	0,066
-126,512	-140,414	-0,062	0,005
-125,497	110,590	0,095	0,082
-124,483	18,646	-0,043	0,025
-123,468	714,621	0,048	-0,091
-122,453	240,435	0,025	-0,030
-121,439	-131,078	-0,108	-0,010
-120,424	-200,000	-0,012	-0,080
-119,410	-200,000	-0,011	0,042
-118,395	379,957	-0,082	0,121
-117,380	-108,987	0,049	-0,007
-116,366	-142,247	0,090	-0,006
-115,351	109,956	-0,041	0,036
-114,337	800,000	0,079	0,160
-113,322	-126,460	0,084	0,009
-112,307	-39,779	-0,052	0,019
-111,293	-200,000	-0,022	0,130
-110,278	122,473	0,044	0,039
-109,264	-109,378	0,119	0,018
-108,249	-200,000	0,001	-0,081
-107,234	-81,985	-0,195	-0,045
-106,220	-84,402	-0,125	-0,028
-105,205	465,641	0,052	-0,084
-104,191	-200,000	-0,004	0,110
-103,176	-23,334	0,069	0,030
-102,162	-200,000	-0,008	0,067
-101,147	-200,000	-0,022	0,101
-100,132	800,000	0,041	0,086
-99,118	98,132	-0,179	-0,148
-98,103	-141,240	0,110	-0,008
-97,089	155,294	-0,044	0,044
-96,074	-14,362	0,058	0,027
-95,059	-200,000	0,019	0,118
-94,045	212,813	-0,027	0,031
-93,030	497,575	0,053	-0,088
-92,016	-199,053	-0,041	-0,000
-91,001	528,088	-0,016	0,027
-89,986	-200,000	0,014	0,147
-88,972	34,279	0,090	0,056
-87,957	-200,000	0,064	0,216
-86,943	192,711	-0,033	0,036
-85,928	170,662	-0,078	-0,080
-84,913	-0,926	0,046	-0,023
-83,899	252,395	0,078	-0,095
-82,884	-200,000	-0,025	0,083
-81,870	-131,976	0,118	-0,011
-80,855	37,719	0,073	0,046
-79,840	428,931	-0,069	-0,107
-78,826	488,412	0,074	-0,122
-77,811	-76,835	-0,113	-0,028
-76,797	-68,008	-0,062	0,017
-75,782	14,051	0,031	0,017
-74,767	-27,166	0,158	-0,066
-73,753	-200,000	-0,017	0,089
-72,738	-37,404	0,062	-0,024
-71,724	-80,247	-0,117	-0,028
-70,709	128,946	-0,099	-0,091
-69,694	-17,571	0,105	-0,047
-68,680	24,611	-0,066	-0,039
-67,665	-200,000	0,039	0,149
-66,651	-200,000	-0,024	0,080
-65,636	-122,070	-0,090	0,010
-64,622	-175,354	-0,198	-0,004
-63,607	-200,000	-0,005	0,092
-62,592	-150,508	-0,048	-0,003
-61,578	-200,000	-0,008	-0,111
-60,563	226,618	0,061	0,071
-59,549	-38,216	0,085	0,032
-58,534	14,656	-2,142	-1,196
-57,519	-200,000	0,090	-0,714
-56,505	-200,000	-1,492	-5,098
-55,490	96,496	0,901	0,738
-54,476	800,000	5,373	12,027
-53,461	-200,000	18,419	301,255
-52,446	800,000	734,774	2252,430
-51,432	530,474	1647,826	2799,730
-50,417	107,484	1634,324	1392,299
-49,403	71,490	1285,009	954,549
-48,388	29,953	1025,956	624,882
-47,373	19,683	988,289	568,136
-46,359	17,537	976,001	554,033
-45,344	14,439	971,849	541,543
-44,330	14,574	970,545	541,234
-43,315	14,021	968,607	538,332
-42,300	13,970	967,607	537,589
-41,286	13,961	966,763	537,068
-40,271	13,952	965,809	536,487
-39,257	14,015	965,006	536,226
-38,242	13,995	964,180	535,682
-37,227	13,976	963,240	535,075
-36,213	13,996	962,276	534,585
-35,198	13,931	961,449	533,894
-34,184	14,055	960,858	533,943
-33,169	13,987	959,645	533,029
-32,154	13,977	958,754	532,480
-31,140	13,964	957,943	531,969
-30,125	14,058	957,099	531,782
-29,111	13,947	956,306	530,960
-28,096	14,035	955,566	530,814
-27,082	14,037	954,875	530,414
-26,067	14,000	954,304	529,957
-25,052	14,046	953,514	529,645
-24,038	14,001	952,950	529,165
-23,023	13,974	952,275	528,684
-22,009	13,967	951,673	528,305
-20,994	13,947	951,052	527,878
-19,979	14,052	950,126	527,677
-18,965	14,015	949,498	527,190
-17,950	14,008	949,002	526,871
-16,936	13,928	948,375	526,247
-15,921	13,907	947,612	525,735
-14,906	13,813	947,018	525,086
-13,892	13,859	946,361	524,848
-12,877	13,818	945,806	524,388
-11,863	13,852	945,101	524,084
-10,848	13,879	944,641	523,893
-9,833	13,948	944,151	523,820
-8,819	13,928	943,509	523,379
-7,804	13,912	942,871	522,954
-6,790	13,832	942,473	522,460
-5,775	13,893	941,717	522,212
-4,760	13,874	941,204	521,848
-3,746	13,855	940,507	521,382
-2,731	13,730	939,981	520,673
-1,717	13,767	938,907	520,175
-0,702	13,700	938,565	519,754
0,313	13,502	937,839	519,512
1,327	16,857	935,847	528,912
2,342	25,760	787,758	468,595
3,356	21,787	443,290	257,801
4,371	-7,181	296,076	143,186
5,386	-11,089	277,979	130,712
6,400	-12,268	272,183	126,878
7,415	-12,489	269,865	125,583
8,429	-12,424	268,244	124,876
9,444	-12,741	267,497	124,228
10,459	-12,677	266,869	123,984
11,473	-12,567	266,190	123,757
12,488	-12,845	265,700	123,266
13,502	-12,954	265,376	123,006
14,517	-12,914	264,830	122,778
15,531	-12,666	264,322	122,756
16,546	-12,730	264,020	122,547
17,561	-12,855	263,645	122,249
18,575	-12,544	263,271	122,344
19,590	-12,779	262,880	121,941
20,604	-12,581	262,732	122,040
21,619	-12,588	262,228	121,788
22,634	-12,699	261,909	121,530
23,648	-12,718	261,502	121,313
24,663	-12,742	261,321	121,197
25,677	-12,717	261,054	121,084
26,692	-12,583	260,627	120,995
27,707	-12,823	260,438	120,683
28,721	-12,799	260,366	120,661
29,736	-12,789	260,107	120,538
30,750	-12,887	259,740	120,270
31,765	-13,007	259,545	120,063
32,780	-12,679	259,278	120,219
33,794	-12,839	259,114	119,991
34,809	-12,968	258,822	119,731
35,823	-12,762	258,482	119,744
36,838	-12,645	258,215	119,713
37,853	-12,864	258,079	119,447
38,867	-12,908	257,741	119,241
39,882	-12,800	257,485	119,206
40,896	-12,918	257,491	119,096
41,911	-12,819	257,025	118,956
42,926	-12,874	256,852	118,817
43,940	-12,909	256,593	118,656
44,955	-12,879	256,265	118,520
45,969	-12,866	256,173	118,478
46,984	-13,125	255,838	118,088
47,999	-13,386	255,740	117,804
49,013	-13,423	255,377	117,594
50,028	-13,554	255,192	117,385
51,042	-13,571	254,811	117,184
52,057	-13,673	254,632	117,003
53,071	-13,638	254,421	116,926
54,086	-13,494	254,318	116,993
55,101	-13,367	254,163	117,021
56,115	-13,283	253,997	117,007
57,130	-12,944	254,004	117,293
58,144	-12,564	253,557	117,404
59,159	-12,695	253,546	117,275
60,174	-12,721	253,134	117,051
61,188	-12,546	252,741	117,010
62,203	-12,747	252,756	116,834
63,217	-12,714	252,514	116,740
64,232	-12,868	252,387	116,538
65,247	-12,830	252,060	116,410
66,261	-12,662	251,765	116,407
67,276	-12,829	251,558	116,158
68,290	-13,132	251,419	115,824
69,305	-13,145	251,063	115,639
70,320	-13,230	250,967	115,512
71,334	-13,009	250,818	115,621
72,349	-12,785	250,737	115,765
73,363	-12,510	250,466	115,863
74,378	-12,791	250,285	115,530
75,393	-12,613	250,052	115,564
76,407	-12,798	249,748	115,256
77,422	-12,679	249,509	115,236
78,436	-12,661	249,407	115,194
79,451	-12,845	249,172	114,920
80,466	-12,841	248,930	114,801
81,480	-12,910	248,580	114,571
82,495	-13,216	248,730	114,371
83,509	-12,988	248,469	114,434
84,524	-12,997	248,311	114,343
85,539	-13,047	247,950	114,125
86,553	-13,062	247,605	113,943
87,568	-12,893	247,456	114,006
88,582	-12,994	247,396	113,883
89,597	-12,858	247,133	113,867
90,611	-13,059	247,054	113,651
91,626	-12,825	246,886	113,760
92,641	-12,608	246,639	113,817
93,655	-12,743	246,361	113,566
94,670	-13,014	246,329	113,315
95,684	-12,797	246,013	113,340
96,699	-13,105	245,931	113,036
97,714	-12,894	245,581	113,041
98,728	-12,948	245,442	112,922
99,743	-13,171	245,372	112,694
100,757	-12,965	244,930	112,652
101,772	-13,123	244,877	112,486
102,787	-12,900	244,665	112,564
103,801	-12,953	244,476	112,423
104,816	-12,828	244,273	112,423
105,830	-12,853	244,209	112,363
106,845	-12,731	244,152	112,427
107,860	-12,837	243,846	112,189
108,874	-13,069	243,699	111,920
109,889	-12,910	243,409	111,907
110,903	-12,928	243,134	111,757
111,918	-13,007	243,043	111,640
112,933	-12,873	242,888	111,669
113,947	-12,742	242,675	111,668
114,962	-12,856	242,619	111,539
115,976	-12,778	242,407	111,496
116,991	-12,817	242,199	111,358
118,006	-12,911	242,048	111,202
119,020	-12,890	241,962	111,170
120,035	-12,850	241,756	111,098
121,049	-12,740	241,605	111,108
122,064	-12,811	241,436	110,963
123,079	-12,904	241,303	110,816
124,093	-12,713	240,913	110,782
125,108	-13,106	240,595	110,306
126,122	-12,967	240,272	110,261
127,137	-13,273	240,406	110,064
128,151	-13,149	240,126	110,027
129,166	-13,136	239,917	109,932
130,181	-13,080	239,826	109,926
131,195	-13,008	239,468	109,810
132,210	-13,043	239,405	109,743
133,224	-12,798	239,207	109,841
134,239	-12,807	239,174	109,809
135,254	-12,857	238,894	109,630
136,268	-13,005	238,594	109,363
137,283	-13,178	238,453	109,150
138,297	-13,351	238,216	108,892
139,312	-13,219	238,176	108,970
140,327	-12,916	238,029	109,137
141,341	-12,507	237,947	109,419
142,356	-12,520	237,785	109,323
143,370	-12,690	237,592	109,088
144,385	-12,627	237,473	109,075
145,400	-12,724	237,309	108,912
146,414	-12,464	237,082	109,006
147,429	-12,691	236,966	108,762
148,443	-12,626	236,721	108,692
149,458	-12,695	236,541	108,544
150,473	-12,522	236,324	108,573
151,487	-12,784	236,073	108,239
152,502	-12,585	235,924	108,319
153,516	-12,417	235,893	108,429
154,531	-12,576	235,700	108,204
155,546	-12,733	235,467	107,963
156,560	-12,754	235,166	107,799
157,575	-12,751	234,955	107,695
158,589	-12,834	234,972	107,627
159,604	-12,462	234,744	107,808
160,619	-12,386	234,704	107,840
161,633	-12,503	234,641	107,709
162,648	-12,348	234,457	107,737
163,662	-12,664	234,217	107,368
164,677	-12,704	234,023	107,238
165,692	-12,522	233,879	107,305
166,706	-12,588	233,808	107,211
167,721	-12,443	233,719	107,276
168,735	-12,471	233,554	107,168
169,750	-12,601	233,352	106,963
170,764	-12,643	233,101	106,807
171,779	-12,436	232,994	106,910
172,794	-12,618	232,936	106,731
173,808	-12,645	232,633	106,562
174,823	-13,127	232,315	106,029
175,837	-13,015	232,275	106,089
176,852	-12,788	232,065	106,161
177,867	-12,772	232,082	106,172
178,881	-12,707	231,968	106,161
179,896	-12,699	231,815	106,088
180,910	-12,564	231,531	106,053
181,925	-12,485	231,489	106,087
182,940	-12,581	231,275	105,904
183,954	-12,692	231,108	105,732
184,969	-12,708	230,984	105,653
185,983	-12,287	230,820	105,896
186,998	-12,389	230,647	105,728
188,013	-12,368	230,608	105,717
189,027	-12,418	230,226	105,493
190,042	-12,450	230,231	105,462
191,056	-12,298	229,992	105,460
192,071	-12,401	229,752	105,261
193,086	-12,244	229,564	105,287
194,100	-12,378	229,555	105,170
195,115	-12,798	229,115	104,636
196,129	-13,043	229,151	104,454
197,144	-7,342	230,842	109,636
198,159	-1,668	232,491	114,830
199,173	1,523	233,568	117,842
200,188	2,223	233,648	118,418
201,202	2,182	233,278	118,188
202,217	2,264	233,128	118,165
203,232	2,249	233,188	118,173
204,246	2,337	232,987	118,129
205,261	2,492	232,707	118,097
206,275	2,766	232,661	118,276
207,290	2,900	232,521	118,297
208,304	2,699	232,472	118,106
209,319	2,507	232,283	117,851
210,334	2,506	231,992	117,693
211,348	2,347	231,732	117,427
212,363	2,055	231,574	117,112
213,377	1,886	231,442	116,904
214,392	1,888	231,220	116,783
215,407	2,242	231,095	116,982
216,421	2,219	230,920	116,866
217,436	1,883	230,819	116,545
218,450	1,828	230,500	116,332
219,465	1,932	230,426	116,364
220,480	1,840	230,322	116,230
221,494	1,853	230,068	116,102
222,509	2,136	230,131	116,340
223,523	2,136	230,033	116,280
224,538	1,875	229,856	115,981
225,553	2,034	229,538	115,931
226,567	2,046	229,469	115,895
227,582	2,331	229,456	116,096
228,596	2,278	229,184	115,907
229,611	2,133	229,011	115,699
230,626	1,947	228,674	115,377
231,640	1,680	228,628	115,141
232,655	2,034	228,690	115,430
233,669	2,410	228,550	115,635
234,684	2,415	228,471	115,589
235,699	2,412	228,100	115,389
236,713	2,237	227,880	115,134
237,728	2,144	227,651	114,938
238,742	1,774	227,628	114,636
239,757	2,045	227,554	114,793
240,772	1,683	227,372	114,418
241,786	1,891	227,075	114,416
242,801	2,223	227,111	114,674
243,815	2,435	227,109	114,823
244,830	2,509	226,782	114,703
245,844	2,049	226,700	114,305
246,859	2,111	226,433	114,207
247,874	2,284	226,283	114,251
248,888	2,356	226,170	114,237
249,903	2,116	226,135	114,029
250,917	2,160	225,999	113,983
251,932	1,880	225,886	113,707
252,947	1,822	225,426	113,421
253,961	1,756	225,360	113,328
254,976	1,703	225,316	113,257
255,990	2,173	225,246	113,563
257,005	2,286	225,094	113,561
258,020	2,034	225,003	113,317
259,034	2,365	224,682	113,391
260,049	2,197	224,619	113,225
261,063	2,181	224,506	113,146
262,078	2,506	224,472	113,360
263,093	2,750	224,310	113,450
264,107	2,546	223,990	113,127
265,122	2,396	224,005	113,012
266,136	2,472	223,850	112,980
267,151	2,469	223,645	112,864
268,166	2,232	223,379	112,545
269,180	1,810	223,042	112,053
270,195	2,018	223,014	112,183
271,209	1,844	222,964	112,019
272,224	2,143	222,748	112,121
273,239	2,096	222,751	112,078
274,253	2,032	222,490	111,889
275,268	1,883	222,299	111,673
276,282	1,843	221,972	111,470
277,297	1,653	222,019	111,344
278,312	2,034	221,914	111,561
279,326	2,051	221,909	111,561
280,341	2,152	221,733	111,538
281,355	2,084	221,799	111,511
282,370	2,210	221,444	111,415
283,384	1,910	221,247	111,086
284,399	1,844	220,937	110,872
285,414	1,596	220,899	110,662
286,428	2,229	220,763	111,046
287,443	2,284	220,861	111,126
288,457	2,370	220,706	111,101
289,472	1,918	220,461	110,638
290,487	1,641	220,188	110,289
291,501	1,652	220,005	110,196
292,516	1,463	220,032	110,061
293,530	1,779	219,647	110,089
294,545	1,894	219,580	110,129
295,560	1,913	219,582	110,133
296,574	1,940	219,401	110,053
297,589	1,962	219,315	110,016
298,603	2,064	219,131	109,988
299,618	1,951	219,142	109,901
300,633	2,172	218,886	109,924
301,647	2,330	218,771	109,970
302,662	2,307	218,632	109,874
303,676	2,106	218,575	109,690
304,691	2,353	218,397	109,769
305,706	2,154	218,281	109,558
306,720	2,180	218,190	109,521
307,735	1,891	217,890	109,152
308,749	1,971	217,748	109,129
309,764	2,203	217,614	109,219
310,779	2,411	217,539	109,321
311,793	2,249	217,390	109,120
312,808	2,011	217,225	108,856
313,822	2,158	216,989	108,835
314,837	1,966	216,946	108,665
315,852	1,703	216,861	108,424
316,866	1,983	216,645	108,507
317,881	2,240	216,581	108,650
318,895	2,240	216,435	108,567
319,910	1,540	216,222	107,950
320,925	1,579	215,897	107,806
321,939	1,499	215,744	107,663
322,954	1,677	215,775	107,796
323,968	1,894	215,738	107,922
324,983	2,197	215,685	108,102
325,997	2,371	215,611	108,179
327,012	2,018	215,367	107,796
328,027	2,190	215,189	107,819
329,041	2,821	215,135	108,231
330,056	2,645	214,946	108,001
331,070	2,220	214,829	107,631
332,085	1,850	214,598	107,245
333,100	1,978	214,470	107,261
334,114	2,336	214,237	107,388
335,129	2,048	214,306	107,210
336,143	2,008	214,012	107,025
337,158	2,058	213,782	106,935
338,173	1,912	213,810	106,837
339,187	1,921	213,634	106,746
340,202	1,592	213,526	106,450
341,216	1,743	213,250	106,410
342,231	1,923	213,192	106,498
343,246	2,168	213,159	106,644
344,260	2,352	212,985	106,676
345,275	2,355	212,967	106,660
346,289	2,346	212,830	106,576
347,304	2,419	212,691	106,548
348,319	2,038	212,465	106,158
349,333	2,199	212,315	106,187
350,348	2,103	212,326	106,116
351,362	2,271	212,151	106,136
352,377	2,190	212,000	105,994
353,392	2,291	211,884	105,997
354,406	2,178	211,729	105,832
355,421	196,893	1315,379	1393,257
356,435	157,460	1449,817	1393,216
