DTS Sentinel unit serial number:	SN410029Multiplexer serial number:	ORYXHardware model number:	OX2-SRSoftware version number:	ORYX F/W v4,00 Oryx Data Collector v3.7.2.0data status	okinstallation	B6 Nyhavnadifferential loss correction	single-endedforward channel	channel 2reverse channel	N/Adate	2023/12/09time	15:10:08forward acquisition time	300,00reverse acquisition time	0,00gamma	499,1914k internal	0,3133k external	0,3133temperature offset calibration	1,0000default loss term (dB/km)	0,3820temperature slope calibration	1,0000multiplexer offset coefficient	1,0000multiplexer slope coefficient	1,0000fibre end	0,00T internal ref (°C)	20,60T ext. ref 1 (°C)	4,43T ext. ref 2 (°C)	4,42length (m)	temperature (°C)	Stokes	anti-Stokes-744,400	-200,000	0,053	-0,187
-743,385	-55,382	-0,198	0,066
-742,371	-5,733	0,092	0,047
-741,356	-200,000	-0,279	0,000
-740,342	-4,119	0,113	-0,058
-739,327	-114,054	-0,201	0,029
-738,312	-200,000	0,008	-0,100
-737,298	-37,471	-0,323	-0,127
-736,283	-196,250	0,074	-0,000
-735,269	-68,762	-0,100	0,029
-734,254	632,150	0,033	-0,063
-733,239	-77,612	-0,367	-0,094
-732,225	-200,000	0,030	-0,129
-731,210	451,184	0,101	0,166
-730,196	800,000	-0,038	0,107
-729,181	-84,893	-0,155	-0,036
-728,167	-33,620	-0,077	-0,031
-727,152	-200,000	0,003	-0,066
-726,137	127,089	-0,110	-0,103
-725,123	-200,000	0,005	-0,083
-724,108	-135,103	-0,095	-0,008
-723,094	53,588	-0,036	-0,026
-722,079	96,698	-0,113	-0,096
-721,064	241,674	0,052	0,065
-720,050	84,613	0,032	0,026
-719,035	460,484	-0,014	-0,023
-718,021	206,291	-0,069	-0,080
-717,006	63,145	-0,083	-0,062
-715,991	50,430	-0,203	-0,142
-714,977	-19,205	-0,027	-0,012
-713,962	800,000	-0,026	-0,072
-712,948	188,328	-0,023	-0,026
-711,933	-200,000	-0,018	0,117
-710,918	-26,285	0,060	0,026
-709,904	613,785	-0,064	-0,119
-708,889	-171,052	-0,167	0,004
-707,875	-200,000	-0,019	0,090
-706,860	-200,000	0,003	0,078
-705,845	-93,063	-0,100	0,020
-704,831	-200,000	-0,049	0,180
-703,816	-200,000	-0,012	-0,097
-702,802	160,107	0,026	0,027
-701,787	-142,075	-0,148	-0,011
-700,772	-83,005	0,073	0,017
-699,758	-173,110	-0,089	-0,002
-698,743	-200,000	0,008	0,115
-697,729	170,867	0,037	0,039
-696,714	-200,000	-0,053	0,201
-695,699	-200,000	-0,008	-0,115
-694,685	-200,000	0,035	-0,195
-693,670	-3,103	-0,131	0,067
-692,656	-140,003	-0,015	-0,001
-691,641	-200,000	-0,029	-0,100
-690,627	800,000	0,050	0,111
-689,612	-200,000	0,019	0,076
-688,597	285,654	-0,009	-0,012
-687,583	-17,562	-0,107	-0,049
-686,568	50,341	-0,066	-0,046
-685,554	-72,454	-0,187	-0,051
-684,539	-64,453	0,029	0,009
-683,524	157,718	-0,055	-0,057
-682,510	800,000	0,087	0,237
-681,495	-20,514	-0,059	-0,027
-680,481	70,531	-0,137	0,105
-679,466	690,824	0,039	-0,076
-678,451	-200,000	-0,025	-0,093
-677,437	-200,000	0,016	-0,111
-676,422	119,604	0,031	0,029
-675,408	517,584	-0,005	0,009
-674,393	800,000	-0,013	0,042
-673,378	800,000	-0,067	-0,195
-672,364	-200,000	0,005	-0,023
-671,349	-200,000	-0,006	0,027
-670,335	-19,321	0,094	0,043
-669,320	-200,000	0,014	0,050
-668,305	-200,000	0,012	0,093
-667,291	-200,000	0,009	0,057
-666,276	38,134	-0,119	-0,078
-665,262	223,512	-0,051	-0,061
-664,247	800,000	-0,050	0,138
-663,232	435,846	-0,040	0,065
-662,218	-39,170	0,130	0,050
-661,203	-200,000	-0,014	0,111
-660,189	334,900	-0,074	-0,107
-659,174	-200,000	-0,003	0,023
-658,159	-43,837	-0,020	-0,007
-657,145	-24,278	-0,178	-0,078
-656,130	2,140	0,028	0,015
-655,116	800,000	0,045	0,130
-654,101	32,101	0,108	-0,069
-653,086	800,000	-0,023	-0,064
-652,072	800,000	0,056	-0,134
-651,057	-200,000	-0,006	0,038
-650,043	322,001	-0,043	-0,060
-649,028	22,964	-0,115	-0,069
-648,014	-51,948	-0,051	-0,017
-646,999	-200,000	-0,010	0,072
-645,984	-200,000	-0,041	-0,139
-644,970	-144,741	-0,157	-0,011
-643,955	238,399	0,069	-0,085
-642,941	116,454	-0,111	-0,100
-641,926	800,000	0,019	0,041
-640,911	-88,971	0,090	-0,020
-639,897	-79,925	-0,045	-0,011
-638,882	-200,000	0,030	-0,105
-637,868	138,478	-0,058	-0,057
-636,853	800,000	0,019	-0,057
-635,838	562,029	-0,037	-0,067
-634,824	-144,847	-0,091	-0,006
-633,809	21,206	0,027	0,016
-632,795	-200,000	-0,006	0,066
-631,780	-139,582	0,122	-0,009
-630,765	0,011	-0,057	-0,030
-629,751	62,387	-0,113	-0,083
-628,736	800,000	0,052	-0,139
-627,722	-200,000	0,008	-0,148
-626,707	-200,000	-0,006	0,046
-625,692	247,889	-0,031	-0,039
-624,678	800,000	-0,058	-0,122
-623,663	-112,838	-0,017	-0,002
-622,649	168,314	-0,130	-0,137
-621,634	322,543	0,089	0,125
-620,619	671,506	0,101	-0,194
-619,605	-48,656	-0,028	0,010
-618,590	800,000	-0,051	0,114
-617,576	-103,086	-0,152	0,026
-616,561	800,000	-0,068	0,141
-615,546	-114,932	0,203	0,028
-614,532	800,000	0,005	0,017
-613,517	-200,000	0,003	-0,066
-612,503	16,348	0,091	-0,053
-611,488	34,817	0,041	-0,027
-610,474	508,267	0,028	0,048
-609,459	187,155	0,010	-0,011
-608,444	-104,800	-0,174	-0,029
-607,430	130,086	0,070	0,066
-606,415	-96,011	-0,115	-0,022
-605,401	-100,304	-0,110	0,020
-604,386	290,783	0,063	0,085
-603,371	15,254	-0,085	0,049
-602,357	119,213	0,058	0,053
-601,342	341,781	0,091	0,132
-600,328	800,000	-0,060	-0,140
-599,313	800,000	0,022	0,068
-598,298	64,214	-0,084	-0,062
-597,284	165,234	0,022	-0,023
-596,269	-108,260	-0,099	-0,016
-595,255	800,000	0,046	0,125
-594,240	58,399	-0,140	-0,101
-593,225	-200,000	0,010	-0,230
-592,211	387,358	-0,019	0,029
-591,196	168,340	-0,116	0,122
-590,182	-200,000	-0,022	0,141
-589,167	-40,557	0,030	0,012
-588,152	-64,472	-0,112	0,033
-587,138	508,825	0,048	0,083
-586,123	27,537	-0,142	0,088
-585,109	38,246	0,040	-0,026
-584,094	386,483	0,049	0,075
-583,079	71,066	0,037	-0,028
-582,065	-63,148	-0,078	0,024
-581,050	-104,706	-0,027	-0,005
-580,036	320,641	-0,071	-0,100
-579,021	163,124	0,080	-0,083
-578,006	800,000	0,048	-0,147
-576,992	-39,627	-0,084	0,032
-575,977	54,146	0,080	-0,057
-574,963	-50,499	-0,116	-0,040
-573,948	-46,284	0,105	0,038
-572,934	433,570	-0,031	0,050
-571,919	177,636	-0,061	-0,065
-570,904	800,000	-0,036	-0,086
-569,890	548,508	0,043	0,076
-568,875	63,055	0,138	-0,102
-567,861	-200,000	0,002	0,012
-566,846	489,479	0,047	0,079
-565,831	-74,398	-0,036	0,009
-564,817	41,527	-0,069	-0,046
-563,802	16,206	-0,079	0,046
-562,788	254,575	-0,081	-0,103
-561,773	-60,791	0,080	0,025
-560,758	-28,794	-0,128	0,054
-559,744	553,076	0,005	0,009
-558,729	-9,233	0,130	-0,064
-557,715	125,722	-0,094	0,088
-556,700	-61,162	-0,164	-0,051
-555,685	4,974	0,061	0,033
-554,671	-144,790	0,096	-0,006
-553,656	57,682	0,080	0,057
-552,642	-200,000	-0,031	0,203
-551,627	197,940	0,027	-0,030
-550,612	480,842	-0,035	0,059
-549,598	800,000	-0,031	-0,075
-548,583	158,793	0,057	-0,059
-547,569	-16,686	-0,091	-0,042
-546,554	-200,000	-0,041	0,159
-545,539	165,131	-0,042	0,043
-544,525	-200,000	0,037	0,154
-543,510	27,669	-0,026	0,016
-542,496	-195,597	-0,104	0,001
-541,481	397,086	-0,040	-0,062
-540,466	-200,000	0,026	0,118
-539,452	-16,969	0,165	0,076
-538,437	-170,683	-0,078	0,002
-537,423	156,726	0,142	0,144
-536,408	137,898	0,050	-0,048
-535,393	-200,000	-0,008	-0,050
-534,379	30,145	-0,231	-0,145
-533,364	158,654	-0,041	-0,042
-532,350	762,341	-0,027	-0,055
-531,335	-129,091	0,088	0,009
-530,321	354,135	-0,039	-0,057
-529,306	728,222	-0,024	-0,047
-528,291	-200,000	-0,013	-0,080
-527,277	-79,045	-0,160	-0,040
-526,262	-69,207	-0,037	0,010
-525,248	-200,000	-0,006	-0,123
-524,233	56,717	0,118	0,085
-523,218	-100,432	-0,174	0,031
-522,204	445,725	-0,058	-0,095
-521,189	151,845	-0,047	-0,048
-520,175	10,219	0,055	-0,031
-519,160	800,000	0,038	-0,098
-518,145	800,000	0,047	0,139
-517,131	217,216	0,034	-0,040
-516,116	-110,849	-0,042	0,006
-515,102	130,295	0,029	0,027
-514,087	779,968	-0,042	-0,085
-513,072	-200,000	-0,010	-0,048
-512,058	101,528	0,073	-0,063
-511,043	590,546	-0,025	-0,045
-510,029	-147,834	0,166	-0,010
-509,014	430,642	0,027	0,043
-507,999	-14,306	0,029	-0,014
-506,985	-19,150	0,023	-0,010
-505,970	369,858	0,098	-0,147
-504,956	-200,000	0,001	-0,032
-503,941	508,082	0,053	-0,090
-502,926	-200,000	-0,013	0,093
-501,912	-200,000	0,002	-0,008
-500,897	-111,169	0,063	0,009
-499,883	699,982	-0,019	0,037
-498,868	39,103	-0,059	0,039
-497,853	-200,000	0,001	-0,061
-496,839	-79,098	0,085	-0,021
-495,824	-17,579	0,095	-0,044
-494,810	-45,048	0,046	0,017
-493,795	-200,000	-0,015	0,108
-492,781	157,808	0,053	0,054
-491,766	461,857	-0,070	-0,115
-490,751	-107,273	-0,103	-0,016
-489,737	252,536	0,022	0,028
-488,722	800,000	-0,022	0,058
-487,708	-200,000	0,005	0,085
-486,693	800,000	0,038	-0,088
-485,678	800,000	-0,052	0,122
-484,664	-200,000	0,001	-0,071
-483,649	162,050	0,029	0,030
-482,635	800,000	-0,045	-0,097
-481,620	-86,686	0,055	0,012
-480,605	140,196	-0,054	0,052
-479,591	407,021	-0,040	-0,062
-478,576	84,719	0,105	-0,084
-477,562	149,422	-0,070	-0,070
-476,547	800,000	-0,026	-0,069
-475,532	291,254	-0,126	-0,169
-474,518	-200,000	0,017	0,090
-473,503	110,670	0,129	0,114
-472,489	-12,252	-0,163	0,078
-471,474	340,267	0,034	-0,048
-470,459	199,584	-0,113	-0,128
-469,445	-22,860	0,033	0,015
-468,430	-86,916	0,045	0,010
-467,416	-200,000	0,035	0,132
-466,401	800,000	-0,042	0,100
-465,386	-105,537	0,010	-0,002
-464,372	589,589	-0,041	-0,075
-463,357	73,447	-0,038	0,029
-462,343	-200,000	-0,028	0,144
-461,328	37,586	-0,095	0,062
-460,313	-200,000	0,025	-0,085
-459,299	800,000	0,012	-0,032
-458,284	144,593	0,061	0,060
-457,270	510,157	-0,065	0,112
-456,255	-200,000	0,026	-0,126
-455,241	-1,612	-0,083	-0,043
-454,226	0,761	-0,006	-0,003
-453,211	-125,754	0,089	0,010
-452,197	-200,000	-0,003	-0,045
-451,182	87,955	-0,068	0,055
-450,168	-200,000	0,009	-0,103
-449,153	-38,242	0,024	0,009
-448,138	-32,351	-0,069	-0,028
-447,124	148,897	-0,056	0,056
-446,109	92,229	0,114	0,094
-445,095	-200,000	-0,013	-0,111
-444,080	69,626	0,103	0,078
-443,065	-200,000	0,009	0,164
-442,051	-200,000	0,006	-0,025
-441,036	131,371	0,036	-0,034
-440,022	-200,000	0,012	0,120
-439,007	307,059	0,045	-0,061
-437,992	-200,000	-0,015	-0,070
-436,978	-179,205	0,101	-0,002
-435,963	143,236	-0,085	0,083
-434,949	-72,421	0,046	0,012
-433,934	92,347	0,049	0,041
-432,919	-200,000	-0,028	-0,190
-431,905	-200,000	-0,006	0,104
-430,890	540,194	0,075	0,132
-429,876	-200,000	-0,006	0,040
-428,861	-200,000	-0,013	0,124
-427,846	-200,000	-0,023	-0,107
-426,832	112,587	0,062	-0,055
-425,817	-200,000	0,016	0,126
-424,803	344,656	0,065	0,094
-423,788	-45,026	0,089	0,032
-422,773	602,357	-0,041	0,076
-421,759	-121,601	-0,070	-0,008
-420,744	-167,190	0,044	-0,001
-419,730	800,000	0,016	0,035
-418,715	-48,573	-0,016	0,006
-417,701	800,000	0,036	-0,100
-416,686	-24,028	-0,134	-0,059
-415,671	178,052	0,042	0,045
-414,657	-200,000	0,013	0,067
-413,642	350,893	0,083	0,121
-412,628	667,826	-0,058	0,110
-411,613	-20,703	-0,049	-0,022
-410,598	38,512	0,043	-0,028
-409,584	-126,430	0,115	0,012
-408,569	800,000	-0,054	0,114
-407,555	17,515	0,022	0,013
-406,540	-60,502	0,078	0,024
-405,525	-67,269	-0,080	0,023
-404,511	-164,434	-0,023	0,001
-403,496	389,576	0,007	0,010
-402,482	-3,256	0,071	-0,036
-401,467	165,475	0,098	0,102
-400,452	-200,000	0,017	0,138
-399,438	674,869	-0,039	0,075
-398,423	25,792	-0,039	-0,024
-397,409	-145,481	-0,074	0,005
-396,394	189,893	-0,042	0,047
-395,379	-200,000	-0,010	-0,047
-394,365	-158,919	0,055	0,002
-393,350	-200,000	-0,045	0,206
-392,336	800,000	0,035	0,081
-391,321	-69,231	0,097	0,027
-390,306	-200,000	0,004	-0,148
-389,292	247,942	0,086	0,107
-388,277	189,457	0,070	0,077
-387,263	-3,545	0,123	-0,063
-386,248	-200,000	0,004	0,013
-385,233	-188,568	0,056	0,000
-384,219	-123,517	0,059	0,007
-383,204	80,957	-0,048	0,038
-382,190	23,648	0,085	-0,051
-381,175	3,438	0,053	0,028
-380,160	-200,000	-0,009	0,036
-379,146	-200,000	-0,020	0,076
-378,131	-85,786	0,147	-0,033
-377,117	-200,000	-0,008	-0,076
-376,102	626,681	-0,025	-0,047
-375,088	-126,197	-0,084	0,009
-374,073	314,043	0,048	0,066
-373,058	577,209	0,052	-0,093
-372,044	176,702	0,017	0,018
-371,029	800,000	0,042	0,135
-370,015	310,918	0,057	-0,079
-369,000	28,093	0,101	-0,062
-367,985	-147,586	-0,014	-0,001
-366,971	-112,493	-0,094	-0,014
-365,956	556,193	0,067	0,118
-364,942	-200,000	0,019	0,103
-363,927	39,111	0,111	-0,072
-362,912	234,902	-0,022	0,026
-361,898	-200,000	-0,024	-0,091
-360,883	-200,000	-0,014	-0,046
-359,869	-26,273	0,029	-0,012
-358,854	-30,662	-0,096	0,039
-357,839	-104,697	0,086	-0,014
-356,825	113,465	0,045	0,040
-355,810	128,946	0,097	0,091
-354,796	209,173	-0,060	-0,069
-353,781	-200,000	0,005	-0,112
-352,766	756,957	0,022	-0,043
-351,752	596,263	0,061	-0,112
-350,737	168,214	0,040	0,042
-349,723	172,132	0,060	0,063
-348,708	318,049	-0,038	-0,053
-347,693	27,845	-0,040	0,025
-346,679	12,222	-0,045	-0,025
-345,664	-110,261	0,080	-0,012
-344,650	-139,422	0,161	0,012
-343,635	-200,000	-0,004	-0,106
-342,620	235,703	0,051	-0,062
-341,606	-18,482	-0,027	0,012
-340,591	800,000	-0,048	0,100
-339,577	800,000	0,021	-0,050
-338,562	-200,000	-0,035	-0,127
-337,548	-200,000	-0,003	0,040
-336,533	-29,977	-0,019	-0,008
-335,518	-12,236	-0,047	0,022
-334,504	-12,667	-0,022	0,010
-333,489	-200,000	-0,027	0,091
-332,475	-200,000	-0,015	0,103
-331,460	317,524	-0,088	-0,121
-330,445	-67,760	0,136	-0,039
-329,431	-200,000	-0,004	-0,161
-328,416	-200,000	-0,011	-0,060
-327,402	-53,815	0,051	0,017
-326,387	20,630	0,031	-0,018
-325,372	-200,000	-0,004	0,021
-324,358	-60,061	-0,081	0,025
-323,343	431,109	0,050	0,079
-322,329	-200,000	0,015	0,059
-321,314	31,164	0,086	0,054
-320,299	210,574	0,043	-0,049
-319,285	41,224	-0,062	0,041
-318,270	333,798	-0,035	0,050
-317,256	-200,000	0,003	-0,075
-316,241	11,247	-0,161	-0,090
-315,226	411,125	0,030	-0,047
-314,212	-156,405	0,100	-0,004
-313,197	185,777	0,054	-0,058
-312,183	-61,832	0,119	-0,036
-311,168	54,912	-0,056	-0,039
-310,153	182,976	-0,098	-0,105
-309,139	790,052	0,055	-0,110
-308,124	-200,000	-0,000	0,011
-307,110	524,247	0,025	0,044
-306,095	800,000	-0,055	0,142
-305,080	800,000	0,037	0,082
-304,066	-200,000	-0,014	-0,139
-303,051	-131,592	-0,108	-0,010
-302,037	492,852	-0,079	-0,134
-301,022	-16,585	0,038	-0,018
-300,008	-107,997	-0,029	0,005
-298,993	-87,135	-0,162	0,036
-297,978	-98,099	-0,068	-0,013
-296,964	-80,247	-0,057	0,014
-295,949	-76,667	0,083	0,021
-294,935	-77,545	-0,108	0,027
-293,920	-97,116	0,089	-0,017
-292,905	180,287	0,075	0,081
-291,891	800,000	0,031	0,082
-290,876	-99,936	0,030	-0,005
-289,862	37,602	0,039	0,025
-288,847	-0,539	-0,157	-0,081
-287,832	800,000	0,012	-0,026
-286,818	16,665	0,051	-0,029
-285,803	-200,000	0,009	-0,072
-284,789	-14,935	0,170	0,079
-283,774	368,721	0,044	0,065
-282,759	-200,000	-0,012	-0,101
-281,745	461,081	0,041	-0,068
-280,730	800,000	-0,038	-0,094
-279,716	-18,429	0,095	-0,043
-278,701	-80,387	-0,017	0,004
-277,686	290,525	0,048	0,064
-276,672	310,184	0,064	0,087
-275,657	-200,000	-0,042	-0,151
-274,643	11,586	-0,117	0,065
-273,628	-94,837	0,085	0,017
-272,613	498,352	-0,052	-0,087
-271,599	104,984	0,014	0,012
-270,584	462,814	0,047	0,077
-269,570	370,488	-0,062	0,092
-268,555	212,198	0,082	0,095
-267,540	-200,000	0,002	-0,177
-266,526	-76,663	0,093	-0,024
-265,511	800,000	-0,021	-0,054
-264,497	-150,401	0,158	-0,009
-263,482	-200,000	0,005	0,187
-262,467	-200,000	-0,034	0,128
-261,453	-200,000	0,016	-0,116
-260,438	168,738	-0,138	-0,144
-259,424	-200,000	0,012	-0,057
-258,409	151,075	-0,076	-0,076
-257,395	308,845	0,060	-0,082
-256,380	167,202	0,031	0,032
-255,365	-19,942	0,093	0,042
-254,351	331,327	-0,032	-0,044
-253,336	-200,000	0,036	0,119
-252,322	-62,030	0,070	0,021
-251,307	117,656	0,044	0,040
-250,292	800,000	0,046	0,120
-249,278	-29,410	0,117	0,048
-248,263	-200,000	-0,008	-0,054
-247,249	-96,959	-0,117	-0,022
-246,234	-9,756	0,039	-0,019
-245,219	422,546	-0,057	-0,090
-244,205	-116,832	-0,077	0,010
-243,190	454,354	-0,022	-0,036
-242,176	-51,616	0,027	0,009
-241,161	-200,000	-0,026	0,127
-240,146	800,000	-0,017	-0,047
-239,132	-80,376	-0,047	0,011
-238,117	-136,480	-0,164	0,014
-237,103	216,821	-0,038	0,045
-236,088	800,000	-0,046	0,116
-235,073	177,459	0,074	0,079
-234,059	111,290	-0,027	-0,024
-233,044	-200,000	0,037	0,178
-232,030	-87,192	0,076	0,017
-231,015	82,113	0,058	-0,046
-230,000	601,679	0,031	0,056
-228,986	525,730	0,071	0,123
-227,971	-5,030	0,111	-0,055
-226,957	-158,976	0,087	0,004
-225,942	-96,866	-0,098	0,019
-224,927	-200,000	-0,005	0,109
-223,913	800,000	-0,042	-0,124
-222,898	-200,000	-0,036	-0,126
-221,884	292,028	-0,061	-0,081
-220,869	117,101	-0,072	-0,064
-219,855	-4,731	0,146	0,073
-218,840	37,779	0,093	-0,060
-217,825	-200,000	-0,021	-0,081
-216,811	-200,000	0,003	0,050
-215,796	35,989	0,012	-0,008
-214,782	344,190	0,020	0,029
-213,767	-200,000	-0,022	0,180
-212,752	-200,000	0,003	0,010
-211,738	800,000	0,027	-0,062
-210,723	800,000	0,036	-0,079
-209,709	800,000	-0,026	-0,065
-208,694	800,000	0,036	-0,097
-207,679	37,848	0,063	-0,041
-206,665	-33,807	0,036	0,014
-205,650	-146,334	-0,105	0,007
-204,636	41,275	-0,028	0,019
-203,621	81,087	0,048	0,038
-202,606	127,524	-0,072	-0,067
-201,592	137,814	-0,033	-0,032
-200,577	-91,842	-0,083	-0,017
-199,563	-33,084	-0,066	0,026
-198,548	459,229	-0,031	0,051
-197,533	34,311	0,010	-0,006
-196,519	-42,416	0,090	0,033
-195,504	-0,457	-0,082	-0,042
-194,490	35,171	-0,016	-0,010
-193,475	-151,032	-0,092	-0,005
-192,460	-28,735	0,088	0,037
-191,446	-200,000	-0,013	0,092
-190,431	800,000	0,062	0,157
-189,417	407,484	0,023	0,036
-188,402	-200,000	-0,036	-0,146
-187,387	346,719	-0,034	-0,049
-186,373	193,835	-0,062	-0,069
-185,358	800,000	-0,028	0,059
-184,344	-200,000	-0,003	-0,019
-183,329	25,188	-0,079	0,047
-182,315	-200,000	-0,018	-0,085
-181,300	-0,198	0,060	-0,031
-180,285	126,620	-0,035	-0,032
-179,271	13,552	-0,087	-0,049
-178,256	-15,230	0,045	0,021
-177,242	340,059	-0,036	0,051
-176,227	-200,000	0,010	-0,048
-175,212	29,826	0,035	0,022
-174,198	-200,000	-0,040	0,169
-173,183	-51,328	-0,044	0,015
-172,169	800,000	-0,058	-0,120
-171,154	448,355	-0,034	0,055
-170,139	-200,000	0,041	0,161
-169,125	128,195	0,048	0,045
-168,110	-115,066	0,088	0,012
-167,096	85,973	-0,123	0,098
-166,081	-112,129	0,156	0,023
-165,066	-5,249	-0,143	0,071
-164,052	-98,526	0,029	-0,005
-163,037	-200,000	0,010	-0,156
-162,023	-194,850	-0,051	0,000
-161,008	-4,023	-0,079	-0,039
-159,993	-104,354	0,059	-0,010
-158,979	37,911	-0,099	-0,064
-157,964	229,076	-0,083	-0,098
-156,950	350,927	0,092	-0,133
-155,935	160,464	0,076	0,077
-154,920	-200,000	0,009	-0,043
-153,906	-200,000	0,016	0,144
-152,891	-200,000	-0,012	0,148
-151,877	-91,523	-0,233	-0,048
-150,862	-27,703	-0,058	0,025
-149,847	241,789	-0,116	-0,141
-148,833	309,669	-0,017	0,023
-147,818	-200,000	0,002	0,123
-146,804	166,023	0,122	-0,126
-145,789	60,649	-0,074	0,053
-144,775	704,805	-0,039	0,075
-143,760	-3,316	0,154	-0,077
-142,745	255,223	-0,056	-0,070
-141,731	800,000	0,037	0,086
-140,716	-33,090	-0,009	-0,004
-139,702	-11,751	0,070	-0,033
-138,687	7,481	-0,027	0,015
-137,672	-115,534	-0,155	0,021
-136,658	334,532	0,081	-0,115
-135,643	54,586	-0,114	-0,080
-134,629	249,711	-0,023	0,028
-133,614	242,134	-0,087	0,106
-132,599	222,338	0,080	0,093
-131,585	-200,000	-0,011	0,077
-130,570	800,000	-0,025	-0,058
-129,556	-92,513	0,088	0,018
-128,541	-54,283	-0,140	-0,046
-127,526	-20,342	0,032	0,014
-126,512	-200,000	0,008	0,068
-125,497	-156,067	0,088	0,004
-124,483	-94,861	-0,113	-0,022
-123,468	-200,000	0,019	0,090
-122,453	-65,122	-0,042	-0,012
-121,439	128,187	-0,070	-0,065
-120,424	-75,938	0,134	0,034
-119,410	-36,167	0,059	0,023
-118,395	-20,338	-0,100	0,045
-117,380	476,242	-0,060	0,098
-116,366	800,000	-0,048	0,100
-115,351	541,676	0,020	-0,035
-114,337	665,109	-0,011	-0,020
-113,322	108,914	-0,090	0,078
-112,307	67,704	0,041	-0,030
-111,293	523,200	-0,002	-0,004
-110,278	-200,000	0,051	0,257
-109,264	10,757	0,124	0,068
-108,249	800,000	0,025	0,051
-107,234	711,843	-0,045	-0,087
-106,220	543,312	-0,018	-0,032
-105,205	-150,029	-0,094	0,005
-104,191	-200,000	0,016	0,130
-103,176	221,779	0,030	0,035
-102,162	-59,693	-0,002	0,001
-101,147	675,411	-0,086	-0,162
-100,132	800,000	-0,031	-0,076
-99,118	39,112	0,036	-0,024
-98,103	-200,000	-0,013	0,081
-97,089	184,865	0,047	0,050
-96,074	-200,000	-0,005	-0,095
-95,059	800,000	-0,028	-0,057
-94,045	-200,000	0,012	-0,163
-93,030	-94,714	0,115	0,022
-92,016	782,210	0,021	0,041
-91,001	242,613	0,083	0,101
-89,986	-200,000	-0,005	-0,039
-88,972	-62,705	0,025	-0,007
-87,957	-102,176	0,155	0,027
-86,943	85,028	0,046	-0,036
-85,928	-71,587	0,020	-0,006
-84,913	-91,793	-0,038	-0,008
-83,899	-69,022	-0,097	-0,027
-82,884	-156,764	0,107	0,005
-81,870	170,478	0,093	0,096
-80,855	332,400	0,060	-0,084
-79,840	800,000	0,025	-0,078
-78,826	-200,000	0,014	-0,083
-77,811	-200,000	0,023	0,079
-76,797	81,897	-0,088	0,069
-75,782	35,000	0,070	-0,044
-74,767	800,000	0,030	0,080
-73,753	800,000	0,051	0,130
-72,738	196,902	0,017	0,019
-71,724	110,677	-0,149	-0,130
-70,709	66,801	0,060	-0,044
-69,694	800,000	0,027	0,054
-68,680	-71,331	0,109	-0,029
-67,665	-40,226	-0,035	0,013
-66,651	-200,000	-0,028	0,115
-65,636	121,641	-0,009	-0,008
-64,622	112,604	-0,055	0,048
-63,607	-200,000	0,005	0,046
-62,592	-200,000	-0,013	0,077
-61,578	-105,201	0,176	-0,029
-60,563	658,346	0,020	0,038
-59,549	-200,000	0,002	-0,128
-58,534	-75,528	-1,544	-0,395
-57,519	712,883	-0,651	-1,254
-56,505	-200,000	-1,086	-4,564
-55,490	-131,768	0,681	-0,064
-54,476	800,000	5,023	11,877
-53,461	-200,000	14,655	262,283
-52,446	-200,000	696,838	2238,384
-51,432	566,536	1621,429	2857,177
-50,417	119,044	1628,839	1456,496
-49,403	76,392	1283,075	982,234
-48,388	37,535	1022,155	654,473
-47,373	22,975	981,703	580,802
-46,359	22,025	971,066	571,378
-45,344	20,926	966,761	565,239
-44,330	20,913	965,359	564,351
-43,315	20,743	963,946	562,952
-42,300	20,722	963,044	562,335
-41,286	20,657	961,886	561,424
-40,271	20,665	960,842	560,818
-39,257	20,639	960,019	560,231
-38,242	20,693	958,929	559,748
-37,227	20,716	958,092	559,312
-36,213	20,675	957,310	558,701
-35,198	20,602	956,543	557,996
-34,184	20,641	955,683	557,598
-33,169	20,605	954,840	556,967
-32,154	20,674	953,908	556,623
-31,140	20,650	953,058	556,028
-30,125	20,669	952,324	555,638
-29,111	20,654	951,637	555,168
-28,096	20,661	950,868	554,721
-27,082	20,602	950,168	554,102
-26,067	20,660	949,227	553,717
-25,052	20,587	948,641	553,118
-24,038	20,623	947,805	552,724
-23,023	20,612	947,298	552,372
-22,009	20,641	946,584	552,026
-20,994	20,637	946,136	551,729
-19,979	20,673	945,474	551,436
-18,965	20,607	945,010	550,935
-17,950	20,658	944,075	550,530
-16,936	20,490	943,602	549,697
-15,921	20,585	942,896	549,566
-14,906	20,524	942,227	548,959
-13,892	20,516	941,512	548,495
-12,877	20,496	940,998	548,112
-11,863	20,452	940,343	547,570
-10,848	20,509	939,914	547,477
-9,833	20,617	939,442	547,524
-8,819	20,604	938,719	547,041
-7,804	20,549	938,120	546,495
-6,790	20,502	937,632	546,039
-5,775	20,531	937,003	545,744
-4,760	20,552	936,322	545,391
-3,746	20,531	935,579	544,871
-2,731	20,406	935,099	544,174
-1,717	20,376	934,235	543,555
-0,702	20,398	933,620	543,248
0,313	20,147	933,007	542,922
1,327	23,167	931,126	551,255
2,342	32,273	793,560	493,969
3,356	29,545	451,521	276,925
4,371	-0,030	296,465	152,076
5,386	-4,498	277,613	138,131
6,400	-5,650	271,934	134,214
7,415	-6,014	269,603	132,714
8,429	-5,949	268,329	132,135
9,444	-5,972	267,463	131,676
10,459	-5,895	266,786	131,402
11,473	-6,115	266,240	130,919
12,488	-6,100	265,690	130,651
13,502	-6,284	265,240	130,250
14,517	-6,110	264,750	130,156
15,531	-6,152	264,282	129,876
16,546	-6,083	263,806	129,694
17,561	-6,326	263,693	129,406
18,575	-6,109	263,228	129,363
19,590	-6,196	262,934	129,128
20,604	-6,119	262,618	129,031
21,619	-6,184	262,382	128,845
22,634	-6,069	261,894	128,698
23,648	-6,333	261,680	128,343
24,663	-6,330	261,462	128,227
25,677	-6,434	261,302	128,043
26,692	-6,369	260,875	127,882
27,707	-6,274	260,719	127,879
28,721	-6,328	260,466	127,695
29,736	-6,370	260,060	127,447
30,750	-6,310	259,834	127,379
31,765	-6,536	259,574	127,038
32,780	-6,448	259,364	127,002
33,794	-6,401	259,291	126,997
34,809	-6,515	258,888	126,687
35,823	-6,473	258,803	126,671
36,838	-6,475	258,327	126,425
37,853	-6,282	258,161	126,504
38,867	-6,456	258,109	126,313
39,882	-6,404	257,841	126,216
40,896	-6,425	257,420	125,981
41,911	-6,455	257,209	125,839
42,926	-6,701	257,069	125,543
43,940	-6,333	256,764	125,707
44,955	-6,510	256,615	125,467
45,969	-6,759	256,386	125,125
46,984	-6,796	255,995	124,891
47,999	-7,001	255,848	124,628
49,013	-7,050	255,622	124,463
50,028	-7,149	255,336	124,226
51,042	-7,381	254,965	123,832
52,057	-7,450	254,859	123,709
53,071	-7,231	254,674	123,799
54,086	-7,114	254,416	123,764
55,101	-6,986	254,344	123,830
56,115	-6,556	254,114	124,082
57,130	-6,278	254,096	124,305
58,144	-6,187	253,920	124,286
59,159	-6,168	253,713	124,191
60,174	-5,950	253,436	124,233
61,188	-5,973	253,184	124,079
62,203	-6,056	252,964	123,888
63,217	-6,294	252,870	123,625
64,232	-6,345	252,692	123,483
65,247	-6,270	252,466	123,426
66,261	-6,400	252,386	123,263
67,276	-6,409	251,934	123,024
68,290	-6,654	251,628	122,652
69,305	-6,758	251,368	122,425
70,320	-6,839	251,372	122,347
71,334	-6,506	251,062	122,472
72,349	-6,244	251,088	122,698
73,363	-6,213	250,801	122,573
74,378	-6,204	250,570	122,458
75,393	-6,280	250,414	122,305
76,407	-6,445	250,329	122,111
77,422	-6,371	250,008	122,007
78,436	-6,437	249,834	121,855
79,451	-6,496	249,662	121,710
80,466	-6,603	249,290	121,426
81,480	-6,389	249,051	121,482
82,495	-6,502	248,789	121,246
83,509	-6,728	248,858	121,077
84,524	-6,486	248,452	121,074
85,539	-6,634	248,104	120,769
86,553	-6,944	248,122	120,503
87,568	-6,640	247,911	120,648
88,582	-6,575	247,809	120,642
89,597	-6,510	247,554	120,563
90,611	-6,539	247,550	120,525
91,626	-6,483	247,364	120,472
92,641	-6,259	246,981	120,463
93,655	-6,520	246,994	120,239
94,670	-6,628	246,714	120,001
95,684	-6,689	246,558	119,863
96,699	-6,525	246,398	119,912
97,714	-6,469	246,003	119,756
98,728	-6,490	245,848	119,652
99,743	-6,698	245,625	119,359
100,757	-6,862	245,515	119,157
101,772	-6,641	245,171	119,165
102,787	-6,554	245,173	119,228
103,801	-6,411	244,924	119,216
104,816	-6,377	244,863	119,203
105,830	-6,387	244,658	119,085
106,845	-6,243	244,548	119,141
107,860	-6,226	244,432	119,088
108,874	-6,437	244,105	118,742
109,889	-6,409	243,976	118,693
110,903	-6,488	243,679	118,471
111,918	-6,547	243,519	118,334
112,933	-6,473	243,351	118,303
113,947	-6,440	243,300	118,295
114,962	-6,410	243,163	118,243
115,976	-6,361	242,820	118,106
116,991	-6,537	242,680	117,882
118,006	-6,553	242,612	117,825
119,020	-6,406	242,434	117,850
120,035	-6,443	242,430	117,807
121,049	-6,387	242,081	117,673
122,064	-6,376	241,876	117,572
123,079	-6,337	241,780	117,547
124,093	-6,482	241,509	117,285
125,108	-6,634	241,251	117,024
126,122	-6,819	240,972	116,727
127,137	-6,922	240,648	116,475
128,151	-6,893	240,658	116,493
129,166	-6,772	240,464	116,488
130,181	-6,547	240,237	116,552
131,195	-6,675	239,941	116,294
132,210	-6,543	240,033	116,436
133,224	-6,467	239,867	116,406
134,239	-6,481	239,739	116,323
135,254	-6,356	239,444	116,271
136,268	-6,682	239,357	115,953
137,283	-6,798	238,982	115,666
138,297	-6,991	238,800	115,411
139,312	-7,113	238,693	115,250
140,327	-6,485	238,601	115,705
141,341	-5,941	238,429	116,053
142,356	-6,148	238,460	115,890
143,370	-5,980	238,176	115,878
144,385	-6,060	238,088	115,760
145,400	-5,922	237,875	115,757
146,414	-6,033	237,750	115,596
147,429	-5,995	237,427	115,460
148,443	-6,071	237,295	115,324
149,458	-6,016	237,254	115,338
150,473	-6,072	236,996	115,157
151,487	-6,237	236,893	114,964
152,502	-5,977	236,755	115,096
153,516	-6,242	236,671	114,832
154,531	-6,084	236,337	114,786
155,546	-6,015	236,210	114,770
156,560	-6,321	236,073	114,447
157,575	-6,333	235,902	114,345
158,589	-6,160	235,591	114,322
159,604	-6,061	235,470	114,332
160,619	-5,984	235,371	114,336
161,633	-5,914	235,330	114,362
162,648	-6,110	235,120	114,093
163,662	-6,244	234,912	113,875
164,677	-6,116	234,821	113,923
165,692	-6,025	234,532	113,845
166,706	-5,863	234,540	113,968
167,721	-6,109	234,392	113,690
168,735	-5,973	234,136	113,664
169,750	-5,786	234,020	113,746
170,764	-5,866	233,877	113,602
171,779	-5,928	233,724	113,469
172,794	-5,946	233,627	113,397
173,808	-6,183	233,332	113,057
174,823	-6,624	233,164	112,616
175,837	-6,595	232,767	112,437
176,852	-6,139	232,729	112,769
177,867	-6,269	232,801	112,691
178,881	-6,090	232,489	112,671
179,896	-6,005	232,530	112,748
180,910	-5,767	232,265	112,797
181,925	-5,891	232,192	112,654
182,940	-5,908	231,875	112,476
183,954	-5,771	231,758	112,518
184,969	-5,749	231,668	112,481
185,983	-5,809	231,555	112,370
186,998	-5,929	231,444	112,211
188,013	-5,906	231,394	112,195
189,027	-5,863	230,967	112,011
190,042	-5,866	230,857	111,946
191,056	-5,855	230,685	111,861
192,071	-5,879	230,576	111,780
193,086	-5,755	230,412	111,787
194,100	-5,676	230,228	111,749
195,115	-5,961	230,158	111,483
196,129	-5,959	229,928	111,363
197,144	-2,814	231,008	114,334
198,159	1,197	232,171	118,044
199,173	3,542	232,758	120,171
200,188	3,939	232,470	120,322
201,202	3,852	232,338	120,175
202,217	4,211	232,277	120,414
203,232	4,382	232,231	120,512
204,246	4,277	232,012	120,306
205,261	4,147	231,982	120,178
206,275	4,444	231,952	120,384
207,290	4,481	231,774	120,310
208,304	4,434	231,538	120,139
209,319	4,458	231,365	120,058
210,334	4,276	231,147	119,792
211,348	3,939	231,075	119,483
212,363	3,890	230,758	119,270
213,377	3,654	230,592	118,991
214,392	3,489	230,311	118,707
215,407	3,912	230,229	118,982
216,421	3,718	230,083	118,746
217,436	3,748	229,847	118,637
218,450	3,373	229,717	118,269
219,465	3,274	229,454	118,047
220,480	3,237	229,490	118,026
221,494	3,320	229,226	117,945
222,509	3,586	229,146	118,097
223,523	3,587	228,953	117,989
224,538	3,458	228,696	117,746
225,553	3,321	228,695	117,630
226,567	3,709	228,666	117,902
227,582	3,807	228,497	117,880
228,596	3,874	228,529	117,937
229,611	3,770	228,248	117,702
230,626	3,419	228,022	117,306
231,640	3,412	227,872	117,213
232,655	3,864	227,789	117,506
233,669	4,119	227,646	117,616
234,684	4,292	227,617	117,723
235,699	3,868	227,290	117,220
236,713	4,030	227,043	117,205
237,728	3,770	226,826	116,885
238,742	3,668	226,736	116,751
239,757	3,619	226,662	116,665
240,772	3,576	226,369	116,471
241,786	3,482	226,209	116,307
242,801	3,677	226,339	116,512
243,815	3,872	226,114	116,533
244,830	4,217	225,955	116,702
245,844	4,144	225,708	116,509
246,859	3,516	225,757	116,048
247,874	3,784	225,483	116,101
248,888	4,046	225,198	116,141
249,903	3,866	225,065	115,926
250,917	3,623	225,158	115,781
251,932	3,412	224,940	115,499
252,947	3,476	224,679	115,402
253,961	3,406	224,692	115,346
254,976	3,667	224,331	115,347
255,990	3,808	224,336	115,446
257,005	3,798	224,205	115,360
258,020	3,979	224,083	115,423
259,034	3,986	224,033	115,392
260,049	3,958	223,876	115,280
261,063	3,948	223,704	115,174
262,078	3,987	223,595	115,136
263,093	4,017	223,517	115,109
264,107	4,141	223,181	115,017
265,122	4,147	223,073	114,956
266,136	4,195	222,823	114,853
267,151	3,950	222,897	114,698
268,166	3,840	222,549	114,427
269,180	3,309	222,320	113,904
270,195	3,538	222,199	114,002
271,209	3,358	222,179	113,848
272,224	3,359	222,071	113,783
273,239	3,697	221,945	113,959
274,253	3,657	221,648	113,767
275,268	3,346	221,493	113,447
276,282	3,485	221,378	113,481
277,297	3,424	221,091	113,278
278,312	3,818	221,055	113,541
279,326	4,033	221,003	113,663
280,341	3,832	220,861	113,431
281,355	3,563	220,807	113,195
282,370	3,796	220,498	113,198
283,384	3,547	220,411	112,960
284,399	3,384	220,226	112,735
285,414	3,294	220,072	112,580
286,428	3,580	220,067	112,778
287,443	3,638	219,870	112,710
288,457	3,877	219,740	112,808
289,472	3,510	219,548	112,430
290,487	3,318	219,330	112,169
291,501	3,137	219,184	111,951
292,516	3,309	218,934	111,939
293,530	3,476	218,958	112,064
294,545	3,184	218,845	111,782
295,560	3,465	218,609	111,857
296,574	3,441	218,597	111,824
297,589	3,517	218,561	111,850
298,603	3,653	218,309	111,810
299,618	3,812	218,076	111,797
300,633	3,491	218,141	111,586
301,647	3,834	218,042	111,776
302,662	4,059	217,868	111,840
303,676	3,838	217,551	111,507
304,691	3,792	217,402	111,387
305,706	3,520	217,354	111,155
306,720	3,442	217,084	110,951
307,735	3,693	217,088	111,124
308,749	3,651	217,013	111,046
309,764	3,876	216,868	111,125
310,779	3,885	216,678	111,024
311,793	3,859	216,490	110,899
312,808	3,784	216,360	110,769
313,822	3,650	216,278	110,620
314,837	3,728	216,003	110,526
315,852	3,605	215,943	110,396
316,866	3,621	215,782	110,315
317,881	3,762	215,803	110,418
318,895	3,891	215,483	110,337
319,910	3,576	215,470	110,094
320,925	3,408	215,198	109,825
321,939	3,173	214,933	109,512
322,954	3,242	214,877	109,523
323,968	3,820	214,812	109,893
324,983	3,703	214,775	109,781
325,997	3,672	214,815	109,770
327,012	3,695	214,481	109,605
328,027	3,653	214,428	109,539
329,041	4,163	214,291	109,822
330,056	3,909	214,237	109,605
331,070	3,770	213,920	109,333
332,085	3,785	213,656	109,199
333,100	3,467	213,665	108,968
334,114	3,460	213,402	108,819
335,129	3,635	213,490	108,979
336,143	3,763	213,221	108,923
337,158	3,987	212,851	108,882
338,173	3,800	212,933	108,783
339,187	3,554	212,704	108,482
340,202	3,421	212,537	108,293
341,216	3,286	212,475	108,156
342,231	3,754	212,345	108,411
343,246	3,504	212,183	108,142
344,260	3,591	211,924	108,062
345,275	3,504	211,905	107,981
346,289	3,891	211,794	108,188
347,304	3,767	211,732	108,059
348,319	3,763	211,598	107,978
349,333	3,732	211,373	107,831
350,348	3,771	211,318	107,821
351,362	3,841	211,289	107,846
352,377	3,790	211,115	107,712
353,392	3,706	210,982	107,575
354,406	3,719	210,834	107,500
355,421	194,757	1343,569	1430,155
356,435	155,509	1481,654	1430,237
