DTS Sentinel unit serial number:	SN410029Multiplexer serial number:	ORYXHardware model number:	OX2-SRSoftware version number:	ORYX F/W v4,00 Oryx Data Collector v3.7.2.0data status	okinstallation	B6 Nyhavnadifferential loss correction	single-endedforward channel	channel 2reverse channel	N/Adate	2023/12/09time	21:50:08forward acquisition time	300,00reverse acquisition time	0,00gamma	499,1914k internal	0,3127k external	0,3127temperature offset calibration	1,0000default loss term (dB/km)	0,3820temperature slope calibration	1,0000multiplexer offset coefficient	1,0000multiplexer slope coefficient	1,0000fibre end	0,00T internal ref (°C)	21,62T ext. ref 1 (°C)	5,42T ext. ref 2 (°C)	5,43length (m)	temperature (°C)	Stokes	anti-Stokes-744,400	-98,602	0,088	-0,017
-743,385	589,447	-0,059	0,109
-742,371	74,036	0,055	-0,043
-741,356	20,496	-0,243	0,146
-740,342	-200,000	-0,028	0,101
-739,327	-113,555	-0,221	-0,032
-738,312	268,566	0,053	-0,069
-737,298	-54,432	-0,233	0,078
-736,283	-200,000	-0,010	-0,121
-735,269	-98,967	-0,137	-0,026
-734,254	640,624	0,084	0,161
-733,239	-132,934	-0,543	-0,051
-732,225	-120,053	0,129	0,016
-731,210	301,896	-0,079	0,110
-730,196	330,152	-0,019	-0,027
-729,181	540,949	0,039	0,069
-728,167	-200,000	0,020	-0,163
-727,152	-200,000	-0,000	-0,101
-726,137	284,762	-0,081	0,109
-725,123	-200,000	0,001	0,029
-724,108	-63,192	0,060	0,018
-723,094	146,139	-0,076	-0,075
-722,079	-41,502	0,038	0,014
-721,064	157,795	0,073	-0,075
-720,050	409,291	0,021	0,033
-719,035	144,855	0,124	-0,123
-718,021	-200,000	-0,005	-0,038
-717,006	-119,603	0,024	0,003
-715,991	677,958	0,036	-0,070
-714,977	-169,410	-0,154	-0,004
-713,962	-121,269	0,031	-0,004
-712,948	774,421	0,034	-0,069
-711,933	149,121	0,024	0,025
-710,918	317,476	-0,116	-0,164
-709,904	-71,242	-0,036	0,010
-708,889	-200,000	0,009	-0,080
-707,875	-127,139	-0,126	-0,014
-706,860	139,564	-0,042	0,041
-705,845	386,854	0,048	0,075
-704,831	-51,838	-0,047	0,016
-703,816	-200,000	-0,020	-0,091
-702,802	-114,850	-0,149	0,021
-701,787	-50,936	-0,128	0,044
-700,772	800,000	-0,011	-0,030
-699,758	800,000	-0,017	-0,051
-698,743	318,879	0,036	-0,051
-697,729	20,004	0,135	0,081
-696,714	158,743	-0,135	0,139
-695,699	-200,000	0,004	-0,081
-694,685	339,224	0,058	-0,085
-693,670	-25,281	-0,140	-0,061
-692,656	-20,518	-0,010	-0,004
-691,641	287,778	-0,061	0,083
-690,627	22,041	-0,187	0,113
-689,612	-200,000	-0,186	0,001
-688,597	-150,166	-0,080	-0,005
-687,583	101,720	-0,066	0,057
-686,568	-200,000	0,007	-0,065
-685,554	727,269	-0,009	0,018
-684,539	100,259	-0,054	0,046
-683,524	635,648	-0,108	0,205
-682,510	-200,000	0,017	0,139
-681,495	-200,000	-0,029	-0,137
-680,481	-200,000	0,034	-0,154
-679,466	148,540	-0,045	-0,045
-678,451	-9,327	0,103	-0,051
-677,437	800,000	-0,010	0,033
-676,422	63,636	-0,075	-0,056
-675,408	129,622	0,069	-0,066
-674,393	104,972	-0,021	0,018
-673,378	134,896	0,054	-0,052
-672,364	-200,000	0,018	-0,126
-671,349	800,000	0,006	-0,017
-670,335	-200,000	-0,016	-0,112
-669,320	-145,177	0,085	0,006
-668,305	131,158	-0,021	-0,020
-667,291	555,450	-0,074	-0,133
-666,276	800,000	0,040	0,102
-665,262	800,000	-0,056	-0,158
-664,247	21,727	-0,053	-0,032
-663,232	-35,924	-0,111	0,044
-662,218	80,588	0,087	0,070
-661,203	324,678	-0,030	0,042
-660,189	21,667	-0,159	-0,096
-659,174	62,746	0,020	0,015
-658,159	31,193	-0,017	-0,011
-657,145	-123,345	-0,072	0,008
-656,130	272,880	-0,057	-0,074
-655,116	202,183	-0,054	-0,062
-654,101	267,229	-0,046	0,060
-653,086	-200,000	-0,013	0,098
-652,072	45,423	-0,028	-0,019
-651,057	66,728	-0,051	-0,038
-650,043	-200,000	-0,011	0,080
-649,028	-89,365	0,038	-0,008
-648,014	71,853	0,076	0,059
-646,999	-90,800	-0,067	0,014
-645,984	800,000	0,022	0,071
-644,970	-157,745	0,065	-0,003
-643,955	533,467	0,028	0,050
-642,941	-200,000	0,011	0,048
-641,926	-150,193	-0,082	0,005
-640,911	-69,763	0,041	-0,011
-639,897	41,563	-0,063	-0,042
-638,882	-82,799	-0,090	0,021
-637,868	-200,000	0,005	0,041
-636,853	-200,000	-0,026	-0,101
-635,838	51,047	-0,159	-0,111
-634,824	800,000	0,043	-0,116
-633,809	151,549	-0,073	0,074
-632,795	800,000	-0,077	0,192
-631,780	238,546	-0,070	0,086
-630,765	45,990	-0,031	0,021
-629,751	325,182	0,026	0,037
-628,736	64,936	0,080	0,060
-627,722	18,992	-0,079	0,047
-626,707	-46,527	-0,129	-0,047
-625,692	538,766	0,028	0,050
-624,678	-7,209	-0,137	0,068
-623,663	7,765	-0,138	0,076
-622,649	35,140	-0,043	0,028
-621,634	-200,000	-0,004	-0,043
-620,619	-184,438	-0,184	0,002
-619,605	265,613	-0,051	0,066
-618,590	-200,000	0,001	0,027
-617,576	-3,817	-0,064	0,033
-616,561	-189,043	-0,051	0,000
-615,546	621,909	0,009	-0,017
-614,532	270,596	-0,031	-0,041
-613,517	-24,525	-0,138	0,061
-612,503	326,700	-0,018	-0,025
-611,488	-200,000	-0,017	-0,226
-610,474	-24,660	0,098	0,043
-609,459	800,000	0,025	0,064
-608,444	-7,356	-0,093	0,047
-607,430	86,754	-0,062	-0,051
-606,415	800,000	0,027	-0,080
-605,401	-46,574	-0,034	-0,012
-604,386	800,000	-0,013	-0,037
-603,371	-200,000	0,004	-0,138
-602,357	-62,321	0,037	-0,011
-601,342	-158,168	-0,028	-0,001
-600,328	-200,000	-0,007	-0,084
-599,313	10,389	-0,018	0,010
-598,298	-93,569	-0,115	0,023
-597,284	791,588	0,036	-0,074
-596,269	234,791	-0,055	0,067
-595,255	-200,000	0,001	0,087
-594,240	-200,000	0,006	0,067
-593,225	481,103	0,034	-0,057
-592,211	800,000	0,015	0,043
-591,196	680,699	0,054	-0,105
-590,182	-107,014	-0,037	-0,006
-589,167	-200,000	0,018	-0,104
-588,152	372,872	-0,063	0,094
-587,138	800,000	0,039	-0,122
-586,123	-3,904	0,045	0,023
-585,109	-200,000	-0,001	0,088
-584,094	-200,000	-0,016	-0,062
-583,079	595,697	0,016	0,030
-582,065	5,492	0,059	0,032
-581,050	37,633	-0,086	0,056
-580,036	-113,627	-0,075	0,011
-579,021	-200,000	0,000	-0,077
-578,006	-200,000	0,023	0,134
-576,992	208,746	-0,033	-0,038
-575,977	174,823	0,004	-0,004
-574,963	-97,420	0,159	-0,030
-573,948	299,245	0,041	0,056
-572,934	67,859	0,101	-0,077
-571,919	505,796	-0,060	-0,103
-570,904	273,682	-0,038	-0,049
-569,890	-72,059	0,107	0,029
-568,875	0,960	0,103	0,054
-567,861	129,003	0,058	0,055
-566,846	-185,030	0,067	0,001
-565,831	-21,039	0,116	-0,052
-564,817	279,693	-0,057	0,075
-563,802	21,279	-0,119	-0,071
-562,788	-200,000	-0,004	-0,032
-561,773	-140,923	0,078	0,006
-560,758	-4,725	-0,079	0,040
-559,744	-200,000	0,012	-0,096
-558,729	175,264	0,020	-0,021
-557,715	-179,065	-0,153	-0,002
-556,700	-104,725	-0,103	-0,017
-555,685	725,134	-0,029	0,058
-554,671	137,330	-0,056	0,054
-553,656	436,041	0,024	0,039
-552,642	-37,085	0,093	0,037
-551,627	-189,358	-0,063	-0,001
-550,612	-103,897	-0,116	0,020
-549,598	178,154	-0,040	0,044
-548,583	800,000	0,070	-0,144
-547,569	165,339	0,073	-0,076
-546,554	474,529	-0,023	-0,039
-545,539	800,000	-0,035	-0,073
-544,525	139,830	-0,037	0,036
-543,510	-102,030	-0,220	0,039
-542,496	-200,000	0,005	-0,084
-541,481	369,371	-0,040	-0,060
-540,466	-52,244	0,077	-0,026
-539,452	159,994	0,092	0,095
-538,437	20,269	-0,030	0,018
-537,423	190,336	0,077	-0,086
-536,408	-200,000	-0,020	0,097
-535,393	-40,990	0,066	0,025
-534,379	-200,000	-0,031	0,111
-533,364	39,398	0,092	0,061
-532,350	-14,169	0,099	-0,047
-531,335	572,644	-0,035	0,063
-530,321	-200,000	-0,035	-0,136
-529,306	-18,811	0,108	0,050
-528,291	14,019	-0,135	-0,077
-527,277	93,020	-0,020	-0,017
-526,262	98,918	-0,089	-0,076
-525,248	-200,000	-0,012	-0,159
-524,233	-200,000	-0,030	0,096
-523,218	-181,013	-0,119	-0,002
-522,204	379,289	0,063	0,096
-521,189	106,417	0,032	-0,028
-520,175	-145,738	-0,087	-0,006
-519,160	-200,000	-0,007	-0,088
-518,145	-42,326	0,114	0,043
-517,131	-63,683	0,046	-0,014
-516,116	-41,416	-0,033	-0,013
-515,102	-200,000	-0,036	-0,139
-514,087	-10,499	0,107	-0,052
-513,072	-27,894	-0,135	-0,058
-512,058	-53,181	-0,054	-0,018
-511,043	125,819	-0,085	-0,079
-510,029	-13,863	-0,041	0,020
-509,014	237,546	-0,077	-0,095
-507,999	62,442	-0,133	-0,098
-506,985	-200,000	-0,010	-0,177
-505,970	800,000	0,054	-0,111
-504,956	-48,907	0,090	0,032
-503,941	800,000	0,018	-0,037
-502,926	165,447	0,116	0,121
-501,912	175,594	0,037	-0,039
-500,897	800,000	-0,042	0,090
-499,883	97,937	0,060	0,051
-498,868	258,055	-0,099	-0,125
-497,853	-45,475	-0,035	-0,013
-496,839	-59,886	-0,191	0,060
-495,824	-200,000	0,032	0,119
-494,810	-130,133	0,034	-0,003
-493,795	17,361	-0,031	0,018
-492,781	544,675	-0,068	-0,120
-491,766	-151,924	-0,122	0,006
-490,751	328,443	-0,081	-0,115
-489,737	176,251	0,113	0,121
-488,722	23,241	0,043	-0,026
-487,708	-200,000	-0,028	0,093
-486,693	-200,000	-0,007	0,060
-485,678	752,575	0,032	-0,064
-484,664	424,621	0,071	-0,112
-483,649	58,252	0,050	-0,036
-482,635	162,876	-0,053	-0,055
-481,620	138,436	0,023	-0,022
-480,605	-94,248	-0,091	0,018
-479,591	118,947	0,106	0,097
-478,576	403,009	-0,080	-0,125
-477,562	-103,307	-0,033	0,006
-476,547	-200,000	0,013	0,078
-475,532	-2,230	0,096	-0,049
-474,518	296,251	0,080	0,108
-473,503	-200,000	0,019	0,127
-472,489	-200,000	-0,052	0,205
-471,474	189,898	0,056	0,062
-470,459	-129,148	0,071	0,007
-469,445	-61,257	0,151	-0,047
-468,430	19,112	-0,064	-0,038
-467,416	16,215	0,098	0,057
-466,401	-88,533	0,039	-0,009
-465,386	-47,212	-0,170	-0,061
-464,372	-84,845	0,095	0,022
-463,357	-200,000	-0,023	-0,100
-462,343	-39,169	0,023	0,009
-461,328	-104,335	0,166	-0,028
-460,313	-200,000	-0,005	-0,148
-459,299	-69,362	-0,100	-0,028
-458,284	78,908	0,022	0,017
-457,270	46,631	0,118	-0,080
-456,255	-88,198	0,083	-0,018
-455,241	-50,004	0,060	0,021
-454,226	800,000	-0,031	-0,065
-453,211	539,601	-0,029	0,050
-452,197	142,677	0,078	-0,076
-451,182	-102,017	-0,044	-0,008
-450,168	800,000	0,034	-0,104
-449,153	-112,944	0,100	0,014
-448,138	-200,000	-0,026	-0,137
-447,124	101,133	-0,062	0,053
-446,109	-91,421	0,127	-0,026
-445,095	160,448	-0,099	-0,101
-444,080	800,000	-0,045	0,120
-443,065	-200,000	0,001	-0,108
-442,051	190,188	-0,051	-0,057
-441,036	-200,000	-0,008	0,051
-440,022	800,000	0,089	0,182
-439,007	-111,983	0,021	-0,003
-437,992	48,454	0,151	0,104
-436,978	800,000	-0,016	-0,050
-435,963	-97,280	0,119	-0,023
-434,949	800,000	0,016	-0,036
-433,934	-83,505	-0,101	-0,024
-432,919	107,392	-0,074	0,065
-431,905	293,248	0,040	0,053
-430,890	423,317	-0,016	-0,026
-429,876	-115,203	-0,050	0,007
-428,861	-145,104	-0,082	-0,005
-427,846	-7,263	0,088	0,044
-426,832	-123,397	-0,084	0,010
-425,817	691,839	-0,038	-0,074
-424,803	24,326	-0,105	0,063
-423,788	114,788	-0,116	-0,104
-422,773	-89,185	0,036	-0,008
-421,759	61,888	0,100	-0,073
-420,744	-200,000	0,046	-0,184
-419,730	800,000	-0,022	0,047
-418,715	24,732	0,111	-0,067
-417,701	800,000	0,011	-0,029
-416,686	65,241	0,025	0,018
-415,671	318,341	-0,054	0,075
-414,657	-31,855	0,111	-0,045
-413,642	-200,000	0,010	0,116
-412,628	464,881	0,032	-0,052
-411,613	-162,307	0,024	-0,001
-410,598	800,000	-0,043	0,096
-409,584	-200,000	-0,013	-0,059
-408,569	546,436	0,071	0,126
-407,555	-200,000	-0,000	-0,074
-406,540	304,462	0,042	0,057
-405,525	171,940	0,094	-0,099
-404,511	-55,900	-0,044	0,014
-403,496	-200,000	-0,036	0,134
-402,482	-179,445	0,062	0,001
-401,467	108,141	0,078	0,068
-400,452	253,543	0,054	-0,068
-399,438	156,464	-0,011	-0,011
-398,423	-200,000	0,011	-0,041
-397,409	169,012	-0,061	-0,064
-396,394	12,951	-0,179	0,101
-395,379	-200,000	-0,021	0,067
-394,365	214,961	0,058	0,067
-393,350	378,228	0,074	-0,111
-392,336	-200,000	0,028	0,101
-391,321	-107,830	-0,019	-0,003
-390,306	273,051	-0,043	-0,056
-389,292	65,471	-0,085	-0,063
-388,277	-112,680	-0,059	-0,009
-387,263	-18,717	-0,070	-0,032
-386,248	297,062	0,073	0,099
-385,233	-130,101	-0,109	-0,011
-384,219	311,873	-0,062	-0,085
-383,204	800,000	0,045	-0,093
-382,190	-116,535	-0,092	0,012
-381,175	164,570	-0,050	0,052
-380,160	-19,861	0,072	0,033
-379,146	-200,000	0,003	-0,063
-378,131	-200,000	0,005	-0,034
-377,117	-133,790	-0,134	0,012
-376,102	-112,218	-0,016	0,002
-375,088	654,020	0,037	0,070
-374,073	249,198	-0,125	0,155
-373,058	800,000	0,044	0,113
-372,044	33,815	0,140	0,089
-371,029	-200,000	0,005	-0,024
-370,015	-73,664	-0,050	-0,013
-369,000	447,795	-0,069	0,112
-367,985	12,375	0,051	0,029
-366,971	18,606	-0,029	0,017
-365,956	800,000	0,010	0,026
-364,942	-18,736	0,061	-0,028
-363,927	-200,000	0,015	0,131
-362,912	-112,809	-0,072	0,010
-361,898	46,563	-0,042	-0,029
-360,883	800,000	-0,049	0,153
-359,869	382,774	0,034	0,051
-358,854	-200,000	0,002	-0,047
-357,839	-128,119	0,101	0,010
-356,825	-200,000	-0,006	0,164
-355,810	12,855	-0,071	-0,040
-354,796	379,565	-0,087	0,132
-353,781	-200,000	-0,040	0,130
-352,766	502,054	0,085	-0,144
-351,752	-200,000	0,003	0,021
-350,737	-60,890	0,012	0,004
-349,723	-5,676	0,082	-0,041
-348,708	-35,353	-0,067	0,027
-347,693	-200,000	0,003	-0,089
-346,679	-16,063	-0,090	-0,042
-345,664	800,000	0,007	0,019
-344,650	-17,294	-0,064	0,029
-343,635	264,608	0,030	0,038
-342,620	-78,924	0,048	0,012
-341,606	71,010	0,131	0,099
-340,591	-26,351	0,163	-0,070
-339,577	-200,000	0,020	0,129
-338,562	116,164	0,009	-0,008
-337,548	-112,650	-0,076	0,011
-336,533	313,703	0,097	0,134
-335,518	58,346	0,067	-0,048
-334,504	-200,000	0,005	0,163
-333,489	-200,000	0,015	-0,050
-332,475	199,515	-0,102	-0,114
-331,460	-58,562	-0,107	-0,034
-330,445	403,270	-0,016	-0,025
-329,431	800,000	0,013	-0,036
-328,416	-10,439	-0,065	-0,031
-327,402	-1,663	0,091	-0,047
-326,387	-101,022	0,069	0,012
-325,372	129,272	-0,070	-0,066
-324,358	-200,000	-0,023	-0,092
-323,343	68,317	0,105	0,079
-322,329	30,572	-0,086	0,054
-321,314	-108,935	-0,093	-0,014
-320,299	-23,262	0,109	0,048
-319,285	-200,000	-0,008	0,095
-318,270	-200,000	-0,004	0,080
-317,256	366,166	0,061	0,091
-316,241	-105,205	0,061	0,010
-315,226	4,707	0,099	-0,053
-314,212	778,086	0,008	-0,016
-313,197	237,308	-0,047	0,057
-312,183	-200,000	0,005	-0,051
-311,168	800,000	-0,029	-0,077
-310,153	65,699	0,052	-0,039
-309,139	-97,730	-0,067	-0,013
-308,124	-200,000	0,023	-0,182
-307,110	800,000	0,009	-0,017
-306,095	-200,000	0,039	0,147
-305,080	-200,000	0,003	0,127
-304,066	-200,000	-0,002	-0,029
-303,051	588,057	-0,061	-0,111
-302,037	800,000	-0,032	-0,078
-301,022	-9,739	0,090	0,044
-300,008	-200,000	-0,005	0,051
-298,993	-200,000	-0,013	0,080
-297,978	175,131	0,020	-0,021
-296,964	-200,000	0,025	-0,123
-295,949	-109,435	-0,042	-0,006
-294,935	-200,000	0,004	-0,061
-293,920	-200,000	-0,009	0,074
-292,905	-200,000	-0,009	-0,110
-291,891	-76,551	0,086	0,022
-290,876	-123,038	0,106	-0,012
-289,862	-200,000	0,019	0,087
-288,847	-56,651	-0,151	-0,048
-287,832	-65,474	0,074	0,022
-286,818	-62,501	0,110	-0,033
-285,803	-140,405	0,068	0,005
-284,789	122,549	0,113	0,104
-283,774	-200,000	-0,021	-0,070
-282,759	46,727	0,093	-0,063
-281,745	-200,000	-0,012	0,083
-280,730	760,273	-0,025	-0,049
-279,716	16,197	0,053	0,030
-278,701	-143,161	0,109	0,008
-277,686	-200,000	-0,005	-0,027
-276,672	-200,000	-0,002	-0,015
-275,657	26,420	0,132	0,081
-274,643	-200,000	0,007	0,127
-273,628	800,000	-0,014	-0,030
-272,613	-200,000	0,006	-0,069
-271,599	127,725	0,054	-0,050
-270,584	284,780	-0,035	0,046
-269,570	37,393	-0,067	0,044
-268,555	106,631	-0,042	-0,036
-267,540	-39,551	0,058	-0,022
-266,526	224,107	-0,041	0,049
-265,511	40,383	0,051	-0,033
-264,497	-6,116	0,128	-0,064
-263,482	31,673	0,053	0,033
-262,467	87,903	0,094	0,076
-261,453	-200,000	0,018	-0,117
-260,438	-200,000	0,004	-0,117
-259,424	151,599	0,093	-0,093
-258,409	-35,828	-0,098	0,039
-257,395	-32,116	0,084	-0,034
-256,380	131,421	0,064	0,060
-255,365	-128,395	0,086	0,009
-254,351	37,961	-0,033	-0,021
-253,336	96,985	0,022	-0,019
-252,322	401,749	0,061	-0,094
-251,307	-119,556	0,048	0,006
-250,292	84,722	-0,047	-0,038
-249,278	19,762	-0,066	-0,039
-248,263	-200,000	-0,003	-0,031
-247,249	800,000	-0,038	0,086
-246,234	166,787	0,030	-0,031
-245,219	800,000	-0,016	0,039
-244,205	-200,000	-0,007	-0,037
-243,190	-200,000	0,014	-0,108
-242,176	-200,000	-0,016	0,119
-241,161	53,180	-0,015	-0,010
-240,146	-200,000	0,033	0,183
-239,132	-172,300	0,071	-0,002
-238,117	800,000	-0,026	-0,064
-237,103	800,000	0,026	-0,063
-236,088	6,170	0,108	0,058
-235,073	-200,000	-0,014	0,064
-234,059	-200,000	-0,001	-0,027
-233,044	36,979	0,103	0,066
-232,030	173,113	-0,070	0,073
-231,015	14,289	0,086	0,049
-230,000	138,340	0,036	-0,034
-228,986	-137,476	-0,064	-0,005
-227,971	-200,000	-0,000	-0,002
-226,957	-200,000	-0,011	0,050
-225,942	-28,955	0,052	-0,022
-224,927	-72,103	-0,137	-0,037
-223,913	800,000	0,024	-0,049
-222,898	172,111	0,029	0,031
-221,884	54,363	0,055	-0,039
-220,869	272,943	0,048	0,062
-219,855	769,096	0,020	-0,040
-218,840	-93,470	-0,034	-0,007
-217,825	422,985	-0,090	0,142
-216,811	-200,000	0,001	-0,008
-215,796	144,791	-0,013	0,013
-214,782	251,562	-0,028	0,035
-213,767	48,379	-0,137	0,094
-212,752	-200,000	-0,033	0,126
-211,738	90,145	-0,063	0,051
-210,723	-66,085	-0,105	-0,030
-209,709	184,698	-0,054	0,058
-208,694	-200,000	-0,012	0,090
-207,679	272,926	-0,098	0,126
-206,665	734,524	0,014	0,028
-205,650	581,877	0,071	0,128
-204,636	-200,000	-0,001	-0,016
-203,621	-200,000	-0,025	-0,221
-202,606	-118,034	-0,127	-0,016
-201,592	173,920	0,046	-0,049
-200,577	-15,496	-0,079	0,037
-199,563	283,265	-0,034	-0,044
-198,548	144,043	0,026	0,025
-197,533	11,139	-0,056	-0,031
-196,519	-20,107	0,033	0,015
-195,504	800,000	0,051	-0,160
-194,490	178,040	-0,073	-0,078
-193,475	800,000	0,023	-0,055
-192,460	800,000	0,053	0,168
-191,446	-74,657	-0,080	0,021
-190,431	-42,795	0,114	-0,042
-189,417	304,850	-0,047	0,064
-188,402	-87,692	-0,001	-0,000
-187,387	135,137	0,051	0,048
-186,373	800,000	-0,038	-0,091
-185,358	-73,411	0,130	-0,034
-184,344	-105,190	0,142	-0,023
-183,329	-145,133	-0,055	-0,004
-182,315	-200,000	-0,005	-0,027
-181,300	394,155	-0,037	-0,057
-180,285	138,905	-0,059	0,057
-179,271	-200,000	-0,004	0,018
-178,256	-43,369	0,156	0,057
-177,242	-54,169	0,066	0,022
-176,227	531,170	0,105	0,182
-175,212	16,484	0,056	0,032
-174,198	-121,909	0,145	0,017
-173,183	-91,874	0,059	0,012
-172,169	-200,000	-0,034	-0,131
-171,154	172,682	-0,048	-0,051
-170,139	-200,000	-0,011	0,040
-169,125	-48,724	0,079	-0,027
-168,110	-200,000	-0,009	-0,133
-167,096	-200,000	-0,000	0,028
-166,081	-200,000	-0,034	-0,144
-165,066	-200,000	-0,041	-0,147
-164,052	-124,367	-0,160	-0,018
-163,037	145,636	-0,013	-0,013
-162,023	92,034	0,099	0,081
-161,008	-114,652	-0,052	0,007
-159,993	-73,735	-0,141	0,037
-158,979	53,022	-0,080	-0,056
-157,964	-36,399	0,147	-0,057
-156,950	-63,223	-0,181	-0,054
-155,935	-142,407	0,150	-0,011
-154,920	167,739	-0,024	0,025
-153,906	113,067	-0,058	0,051
-152,891	-200,000	0,008	0,032
-151,877	800,000	-0,017	-0,035
-150,862	-200,000	-0,003	-0,097
-149,847	-200,000	0,038	-0,133
-148,833	800,000	0,033	-0,079
-147,818	69,875	0,056	0,042
-146,804	425,269	-0,014	0,023
-145,789	321,838	-0,114	-0,158
-144,775	800,000	-0,015	0,040
-143,760	-74,764	0,079	-0,020
-142,745	-200,000	-0,005	-0,037
-141,731	345,005	-0,062	0,088
-140,716	653,064	0,064	-0,121
-139,702	-107,481	0,079	-0,012
-138,687	179,264	-0,040	-0,043
-137,672	-9,060	0,094	0,046
-136,658	303,537	-0,021	0,028
-135,643	12,069	0,048	-0,027
-134,629	-71,971	-0,079	-0,021
-133,614	-40,493	0,051	0,019
-132,599	-200,000	-0,022	-0,116
-131,585	-200,000	0,026	0,091
-130,570	-200,000	0,002	0,020
-129,556	-103,319	-0,053	0,009
-128,541	-106,874	0,062	-0,010
-127,526	-84,514	-0,070	0,016
-126,512	78,165	0,074	0,057
-125,497	169,077	-0,031	0,032
-124,483	789,966	-0,018	-0,036
-123,468	800,000	0,006	0,013
-122,453	54,635	0,082	0,057
-121,439	229,040	0,094	-0,112
-120,424	199,338	-0,093	0,103
-119,410	26,468	-0,033	-0,020
-118,395	-200,000	0,019	-0,167
-117,380	147,478	-0,063	0,062
-116,366	800,000	-0,027	0,068
-115,351	184,685	-0,035	-0,038
-114,337	-200,000	-0,026	0,129
-113,322	147,572	-0,048	0,047
-112,307	670,614	0,024	-0,046
-111,293	119,949	0,068	-0,061
-110,278	487,025	0,028	0,047
-109,264	36,907	-0,126	-0,081
-108,249	91,222	0,056	-0,046
-107,234	-18,695	-0,026	-0,012
-106,220	738,097	-0,015	-0,029
-105,205	-200,000	-0,032	0,215
-104,191	100,018	0,126	0,106
-103,176	-44,518	0,010	0,004
-102,162	-121,623	0,014	0,002
-101,147	471,706	-0,071	0,116
-100,132	181,044	-0,073	0,078
-99,118	800,000	-0,068	-0,157
-98,103	-118,174	0,055	0,007
-97,089	-75,990	0,038	0,010
-96,074	-30,690	0,123	0,050
-95,059	40,820	0,041	0,027
-94,045	-38,866	-0,080	0,030
-93,030	800,000	0,025	-0,055
-92,016	-10,849	-0,087	0,042
-91,001	-200,000	0,004	-0,039
-89,986	307,013	0,064	0,087
-88,972	218,421	0,043	0,050
-87,957	-200,000	-0,038	0,163
-86,943	-200,000	0,014	0,098
-85,928	800,000	-0,050	-0,100
-84,913	-91,455	0,081	0,017
-83,899	-11,849	0,021	0,010
-82,884	117,045	0,042	0,038
-81,870	-200,000	-0,010	0,031
-80,855	671,358	-0,042	0,080
-79,840	421,130	0,073	0,114
-78,826	23,265	0,051	-0,030
-77,811	-200,000	-0,023	-0,084
-76,797	-200,000	0,021	-0,074
-75,782	5,381	0,089	-0,047
-74,767	-113,043	0,040	0,006
-73,753	-124,488	-0,077	-0,009
-72,738	71,790	0,022	0,016
-71,724	-200,000	-0,027	-0,208
-70,709	123,099	0,110	-0,100
-69,694	-107,019	0,027	-0,004
-68,680	26,320	0,042	-0,026
-67,665	-27,644	0,060	0,025
-66,651	-59,676	0,056	-0,017
-65,636	-185,758	0,184	-0,002
-64,622	800,000	-0,050	0,107
-63,607	-101,720	-0,064	-0,011
-62,592	800,000	0,048	-0,109
-61,578	56,389	-0,166	-0,117
-60,563	-50,324	-0,093	0,032
-59,549	-128,808	0,032	-0,003
-58,534	-105,821	-1,381	-0,224
-57,519	696,301	-0,802	-1,533
-56,505	-200,000	-1,061	-4,319
-55,490	-82,293	0,639	-0,149
-54,476	800,000	4,904	11,632
-53,461	-200,000	14,203	253,381
-52,446	-200,000	696,147	2229,979
-51,432	566,920	1624,413	2868,499
-50,417	116,901	1630,765	1450,730
-49,403	72,925	1284,581	971,207
-48,388	37,461	1022,127	655,412
-47,373	23,653	980,724	583,534
-46,359	22,887	970,240	574,769
-45,344	21,896	965,713	568,833
-44,330	21,851	964,158	567,748
-43,315	21,668	962,910	566,396
-42,300	21,692	961,908	565,860
-41,286	21,642	960,875	565,070
-40,271	21,650	959,921	564,512
-39,257	21,617	959,111	563,905
-38,242	21,610	958,090	563,262
-37,227	21,600	957,377	562,787
-36,213	21,623	956,259	562,180
-35,198	21,563	955,591	561,573
-34,184	21,677	954,838	561,475
-33,169	21,614	954,038	560,779
-32,154	21,666	953,154	560,407
-31,140	21,738	952,045	559,963
-30,125	21,688	951,524	559,474
-29,111	21,672	950,582	558,845
-28,096	21,685	949,670	558,329
-27,082	21,634	949,260	557,904
-26,067	21,627	948,481	557,398
-25,052	21,692	947,582	557,057
-24,038	21,713	946,906	556,705
-23,023	21,640	946,508	556,217
-22,009	21,716	945,872	556,064
-20,994	21,714	945,032	555,539
-19,979	21,706	944,566	555,219
-18,965	21,672	943,952	554,728
-17,950	21,652	943,253	554,230
-16,936	21,625	942,482	553,671
-15,921	21,606	941,949	553,275
-14,906	21,571	941,197	552,701
-13,892	21,574	940,476	552,264
-12,877	21,576	939,935	551,930
-11,863	21,524	939,202	551,314
-10,848	21,561	938,827	551,188
-9,833	21,618	938,504	551,157
-8,819	21,590	937,728	550,591
-7,804	21,564	937,074	550,104
-6,790	21,554	936,483	549,703
-5,775	21,537	935,961	549,322
-4,760	21,528	935,344	548,910
-3,746	21,552	934,560	548,502
-2,731	21,422	933,908	547,688
-1,717	21,358	933,097	546,990
-0,702	21,364	932,633	546,714
0,313	21,126	932,230	546,555
1,327	24,033	930,092	554,377
2,342	33,075	793,700	497,093
3,356	30,498	451,196	278,675
4,371	0,811	294,952	152,433
5,386	-3,613	276,212	138,530
6,400	-4,795	270,570	134,586
7,415	-5,241	268,102	132,934
8,429	-5,030	266,928	132,534
9,444	-5,082	266,069	132,048
10,459	-5,024	265,484	131,798
11,473	-5,076	264,764	131,382
12,488	-5,227	264,404	131,054
13,502	-5,466	263,854	130,553
14,517	-5,438	263,437	130,360
15,531	-5,290	263,148	130,340
16,546	-4,995	262,567	130,307
17,561	-5,189	262,330	130,003
18,575	-5,193	262,036	129,842
19,590	-5,279	261,768	129,620
20,604	-5,101	261,526	129,648
21,619	-5,154	261,138	129,397
22,634	-5,253	260,677	129,068
23,648	-5,317	260,294	128,810
24,663	-5,265	260,208	128,802
25,677	-5,387	260,015	128,586
26,692	-5,007	259,593	128,706
27,707	-5,222	259,440	128,427
28,721	-5,362	259,100	128,122
29,736	-5,211	258,937	128,164
30,750	-5,325	258,687	127,928
31,765	-5,038	258,279	127,969
32,780	-5,196	258,013	127,686
33,794	-5,161	257,904	127,652
34,809	-5,285	257,642	127,400
35,823	-5,060	257,448	127,492
36,838	-5,416	257,209	127,048
37,853	-5,257	256,889	127,019
38,867	-5,431	256,817	126,818
39,882	-5,165	256,324	126,798
40,896	-5,506	256,276	126,463
41,911	-5,319	256,124	126,541
42,926	-5,393	255,808	126,308
43,940	-5,292	255,578	126,272
44,955	-5,336	255,443	126,156
45,969	-5,517	255,250	125,890
46,984	-5,693	254,878	125,542
47,999	-5,845	254,765	125,341
49,013	-5,847	254,424	125,161
50,028	-5,831	254,105	125,007
51,042	-6,069	253,963	124,718
52,057	-5,825	253,511	124,698
53,071	-5,966	253,473	124,545
54,086	-5,885	253,300	124,520
55,101	-5,964	253,162	124,372
56,115	-5,583	253,038	124,631
57,130	-5,552	253,116	124,685
58,144	-5,121	252,827	124,906
59,159	-4,967	252,397	124,815
60,174	-5,111	252,333	124,648
61,188	-4,947	252,137	124,682
62,203	-5,097	251,842	124,396
63,217	-5,014	251,529	124,301
64,232	-5,297	251,537	124,050
65,247	-5,166	251,419	124,094
66,261	-5,269	250,985	123,779
67,276	-5,432	250,686	123,481
68,290	-5,630	250,396	123,157
69,305	-5,748	250,314	123,005
70,320	-5,519	250,071	123,070
71,334	-5,386	249,872	123,076
72,349	-5,117	249,779	123,249
73,363	-5,171	249,716	123,160
74,378	-5,058	249,455	123,118
75,393	-5,148	249,212	122,910
76,407	-5,230	248,946	122,698
77,422	-5,227	248,911	122,672
78,436	-5,074	248,699	122,687
79,451	-5,046	248,403	122,554
80,466	-5,147	248,086	122,301
81,480	-5,436	247,923	121,964
82,495	-5,485	247,750	121,826
83,509	-5,210	247,557	121,954
84,524	-5,518	247,288	121,550
85,539	-5,464	247,194	121,538
86,553	-5,576	247,039	121,357
87,568	-5,720	246,863	121,138
88,582	-5,352	246,620	121,319
89,597	-5,407	246,353	121,130
90,611	-5,273	246,336	121,224
91,626	-5,406	246,339	121,102
92,641	-5,229	245,854	121,002
93,655	-5,181	245,790	121,000
94,670	-5,225	245,623	120,870
95,684	-5,244	245,239	120,655
96,699	-5,243	245,147	120,599
97,714	-5,333	244,914	120,398
98,728	-5,373	244,712	120,255
99,743	-5,770	244,574	119,844
100,757	-5,664	244,393	119,833
101,772	-5,742	244,207	119,667
102,787	-5,557	244,044	119,730
103,801	-5,477	243,772	119,652
104,816	-5,303	243,652	119,728
105,830	-5,293	243,527	119,665
106,845	-5,208	243,463	119,693
107,860	-5,270	243,231	119,517
108,874	-5,274	242,993	119,386
109,889	-5,424	242,664	119,089
110,903	-5,463	242,692	119,060
111,918	-5,444	242,393	118,918
112,933	-5,334	242,200	118,904
113,947	-5,093	242,055	119,021
114,962	-5,122	241,811	118,867
115,976	-5,243	241,709	118,706
116,991	-5,247	241,583	118,631
118,006	-5,294	241,321	118,452
119,020	-5,174	241,166	118,464
120,035	-5,135	241,182	118,494
121,049	-5,062	240,875	118,393
122,064	-5,204	240,744	118,201
123,079	-5,283	240,725	118,117
124,093	-5,513	240,495	117,804
125,108	-5,530	240,092	117,582
126,122	-5,484	239,942	117,536
127,137	-5,519	239,734	117,395
128,151	-5,604	239,664	117,281
129,166	-5,525	239,524	117,266
130,181	-5,493	239,200	117,123
131,195	-5,692	239,002	116,854
132,210	-5,554	238,945	116,928
133,224	-5,156	238,765	117,153
134,239	-5,239	238,549	116,970
135,254	-5,322	238,540	116,887
136,268	-5,326	238,231	116,722
137,283	-5,648	238,125	116,399
138,297	-5,570	237,798	116,292
139,312	-5,652	237,652	116,143
140,327	-5,487	237,609	116,246
141,341	-5,095	237,646	116,571
142,356	-4,975	237,377	116,525
143,370	-4,911	237,209	116,484
144,385	-5,036	236,945	116,243
145,400	-5,132	236,891	116,129
146,414	-4,951	236,734	116,188
147,429	-4,934	236,545	116,098
148,443	-4,987	236,258	115,905
149,458	-5,127	236,217	115,762
150,473	-4,967	235,926	115,737
151,487	-4,903	235,680	115,657
152,502	-5,068	235,628	115,489
153,516	-4,873	235,471	115,558
154,531	-4,881	235,274	115,444
155,546	-4,725	234,993	115,422
156,560	-4,886	234,857	115,216
157,575	-5,204	234,864	114,955
158,589	-5,063	234,470	114,864
159,604	-5,018	234,411	114,860
160,619	-5,025	234,230	114,757
161,633	-5,021	234,122	114,696
162,648	-4,916	233,950	114,686
163,662	-4,920	233,857	114,626
164,677	-5,115	233,810	114,438
165,692	-4,848	233,394	114,436
166,706	-4,925	233,401	114,368
167,721	-4,982	233,264	114,246
168,735	-5,040	233,037	114,079
169,750	-4,872	232,991	114,179
170,764	-4,884	232,698	114,016
171,779	-5,120	232,659	113,799
172,794	-4,925	232,508	113,870
173,808	-4,987	232,337	113,727
174,823	-5,505	232,027	113,157
175,837	-5,504	231,761	113,018
176,852	-5,300	231,797	113,186
177,867	-5,127	231,653	113,241
178,881	-5,019	231,529	113,256
179,896	-4,718	231,187	113,315
180,910	-4,811	231,168	113,222
181,925	-4,838	231,048	113,133
182,940	-4,882	230,936	113,033
183,954	-4,813	230,608	112,916
184,969	-4,793	230,625	112,929
185,983	-4,711	230,493	112,920
186,998	-4,905	230,353	112,689
188,013	-4,623	230,058	112,755
189,027	-4,596	230,021	112,748
190,042	-4,609	229,849	112,643
191,056	-4,677	229,647	112,482
192,071	-4,922	229,576	112,246
193,086	-4,802	229,376	112,231
194,100	-4,977	229,205	112,002
195,115	-5,084	228,850	111,735
196,129	-5,235	228,724	111,547
197,144	-2,305	229,728	114,307
198,159	1,647	230,966	118,000
199,173	3,673	231,394	119,790
200,188	3,788	231,171	119,753
201,202	3,980	230,985	119,796
202,217	4,155	230,981	119,919
203,232	4,401	230,833	120,023
204,246	4,378	230,779	119,966
205,261	4,385	230,646	119,891
206,275	4,513	230,566	119,939
207,290	4,652	230,334	119,915
208,304	4,439	230,326	119,735
209,319	4,480	229,888	119,529
210,334	4,439	229,746	119,412
211,348	4,367	229,450	119,192
212,363	3,996	229,317	118,826
213,377	3,551	229,130	118,375
214,392	3,573	228,912	118,269
215,407	3,768	228,855	118,379
216,421	3,772	228,756	118,321
217,436	3,771	228,501	118,177
218,450	3,616	228,155	117,869
219,465	3,623	228,015	117,792
220,480	3,614	227,944	117,738
221,494	3,416	227,925	117,566
222,509	3,480	227,936	117,609
223,523	3,461	227,656	117,439
224,538	3,574	227,366	117,366
225,553	3,687	227,227	117,371
226,567	3,725	227,161	117,355
227,582	4,215	227,118	117,697
228,596	4,143	226,888	117,512
229,611	3,740	226,914	117,207
230,626	3,471	226,542	116,800
231,640	3,462	226,412	116,715
232,655	4,062	226,351	117,131
233,669	4,360	226,342	117,342
234,684	4,276	226,120	117,153
235,699	4,109	225,948	116,926
236,713	3,895	225,585	116,566
237,728	3,814	225,518	116,459
238,742	3,569	225,291	116,146
239,757	3,544	225,274	116,108
240,772	3,771	224,953	116,104
241,786	3,663	225,021	116,047
242,801	3,811	224,838	116,054
243,815	4,136	224,801	116,269
244,830	3,965	224,697	116,077
245,844	3,692	224,656	115,839
246,859	3,754	224,208	115,645
247,874	4,138	224,098	115,867
248,888	3,880	223,972	115,597
249,903	4,068	223,788	115,633
250,917	3,809	223,596	115,329
251,932	3,655	223,531	115,170
252,947	3,804	223,295	115,149
253,961	3,640	223,153	114,944
254,976	3,560	223,032	114,811
255,990	3,634	223,001	114,840
257,005	3,694	222,903	114,825
258,020	3,923	222,853	114,960
259,034	4,238	222,685	115,097
260,049	4,025	222,456	114,810
261,063	3,895	222,284	114,614
262,078	4,115	222,287	114,769
263,093	4,160	222,052	114,671
264,107	3,939	221,903	114,420
265,122	4,003	221,831	114,420
266,136	4,184	221,637	114,445
267,151	4,295	221,516	114,454
268,166	3,811	221,198	113,921
269,180	3,427	220,980	113,514
270,195	3,429	220,918	113,473
271,209	3,641	220,692	113,504
272,224	3,770	220,737	113,612
273,239	3,685	220,483	113,409
274,253	3,860	220,227	113,396
275,268	3,621	220,111	113,150
276,282	3,257	220,168	112,901
277,297	3,403	219,897	112,859
278,312	3,641	219,772	112,961
279,326	3,661	219,711	112,933
280,341	3,740	219,458	112,852
281,355	3,844	219,390	112,883
282,370	3,758	219,161	112,692
283,384	3,451	218,931	112,339
284,399	3,299	218,779	112,139
285,414	3,378	218,782	112,189
286,428	3,638	218,647	112,300
287,443	3,861	218,527	112,391
288,457	3,926	218,484	112,406
289,472	3,713	218,260	112,126
290,487	3,344	217,899	111,661
291,501	3,399	217,766	111,623
292,516	3,332	217,723	111,542
293,530	3,739	217,567	111,749
294,545	3,561	217,477	111,563
295,560	3,675	217,387	111,589
296,574	3,635	217,254	111,482
297,589	3,668	217,046	111,390
298,603	3,641	217,084	111,380
299,618	3,991	217,140	111,653
300,633	3,892	216,810	111,401
301,647	3,938	216,670	111,353
302,662	3,942	216,559	111,288
303,676	4,165	216,431	111,374
304,691	3,980	216,340	111,184
305,706	3,999	216,213	111,122
306,720	3,882	215,931	110,883
307,735	3,910	215,658	110,753
308,749	3,588	215,591	110,476
309,764	3,860	215,443	110,587
310,779	4,025	215,371	110,659
311,793	3,955	215,298	110,561
312,808	3,784	214,981	110,266
313,822	3,869	214,870	110,260
314,837	3,680	214,753	110,055
315,852	3,295	214,652	109,717
316,866	3,650	214,558	109,914
317,881	4,075	214,413	110,133
318,895	4,163	214,237	110,096
319,910	3,731	214,085	109,700
320,925	3,302	213,948	109,313
321,939	3,446	213,614	109,236
322,954	3,359	213,602	109,158
323,968	3,689	213,590	109,377
324,983	3,764	213,514	109,382
325,997	4,007	213,385	109,479
327,012	3,901	213,171	109,284
328,027	3,764	213,158	109,170
329,041	4,020	212,865	109,192
330,056	4,315	212,817	109,367
331,070	3,976	212,578	108,994
332,085	3,530	212,406	108,581
333,100	3,792	212,276	108,689
334,114	3,781	212,174	108,620
335,129	3,546	212,013	108,362
336,143	3,579	211,804	108,268
337,158	3,837	211,705	108,391
338,173	3,628	211,704	108,233
339,187	3,616	211,436	108,077
340,202	3,460	211,238	107,857
341,216	3,290	211,181	107,699
342,231	3,501	211,091	107,792
343,246	3,392	211,030	107,674
344,260	3,281	210,871	107,506
345,275	3,598	210,871	107,719
346,289	3,593	210,773	107,655
347,304	3,812	210,446	107,633
348,319	4,050	210,316	107,723
349,333	3,731	210,222	107,442
350,348	3,805	210,180	107,462
351,362	3,978	210,020	107,492
352,377	4,004	209,939	107,459
353,392	3,542	209,721	107,016
354,406	3,640	209,631	107,028
355,421	194,128	1345,003	1432,267
356,435	154,940	1483,424	1432,374
