DTS Sentinel unit serial number:	SN410029Multiplexer serial number:	ORYXHardware model number:	OX2-SRSoftware version number:	ORYX F/W v4,00 Oryx Data Collector v3.7.2.0data status	okinstallation	B6 Nyhavnadifferential loss correction	single-endedforward channel	channel 2reverse channel	N/Adate	2023/12/10time	18:25:08forward acquisition time	300,00reverse acquisition time	0,00gamma	499,1914k internal	0,3123k external	0,3123temperature offset calibration	1,0000default loss term (dB/km)	0,3820temperature slope calibration	1,0000multiplexer offset coefficient	1,0000multiplexer slope coefficient	1,0000fibre end	0,00T internal ref (°C)	22,37T ext. ref 1 (°C)	5,97T ext. ref 2 (°C)	5,99length (m)	temperature (°C)	Stokes	anti-Stokes-744,400	-24,308	0,072	-0,032
-743,385	-133,095	-0,296	0,028
-742,371	800,000	0,016	0,049
-741,356	-40,449	-0,327	0,126
-740,342	5,190	0,080	0,044
-739,327	-58,500	-0,193	0,062
-738,312	-200,000	-0,020	-0,072
-737,298	-63,876	-0,177	-0,054
-736,283	313,515	0,094	-0,133
-735,269	-1,002	-0,340	0,179
-734,254	-50,719	0,140	-0,049
-733,239	-79,452	-0,402	-0,101
-732,225	-76,174	0,141	0,037
-731,210	-200,000	0,031	0,175
-730,196	229,735	-0,059	0,072
-729,181	-21,018	-0,148	-0,067
-728,167	-125,955	-0,114	-0,013
-727,152	41,982	0,061	0,041
-726,137	27,763	-0,110	-0,069
-725,123	-21,869	-0,102	-0,046
-724,108	196,352	-0,075	-0,086
-723,094	-200,000	-0,007	-0,049
-722,079	-144,799	-0,059	-0,004
-721,064	-200,000	0,020	-0,146
-720,050	41,177	0,051	0,034
-719,035	800,000	-0,028	0,077
-718,021	800,000	-0,053	-0,133
-717,006	-157,513	-0,022	-0,001
-715,991	800,000	-0,078	-0,219
-714,977	800,000	-0,083	-0,268
-713,962	25,968	0,034	-0,021
-712,948	-64,035	-0,107	0,032
-711,933	80,639	-0,110	-0,088
-710,918	-200,000	0,022	0,142
-709,904	227,888	0,065	-0,079
-708,889	-200,000	-0,006	0,036
-707,875	59,947	-0,072	-0,053
-706,860	-200,000	0,032	0,123
-705,845	-200,000	0,037	0,131
-704,831	800,000	0,058	0,174
-703,816	412,238	-0,068	0,108
-702,802	-75,959	-0,117	0,031
-701,787	-200,000	0,022	-0,119
-700,772	-120,364	-0,045	-0,006
-699,758	385,662	-0,084	-0,129
-698,743	-109,538	0,167	0,026
-697,729	-177,302	-0,066	-0,001
-696,714	77,510	0,047	-0,037
-695,699	-97,979	-0,007	-0,001
-694,685	-200,000	0,035	0,133
-693,670	800,000	-0,046	-0,133
-692,656	800,000	0,061	-0,178
-691,641	91,068	0,171	-0,142
-690,627	105,048	-0,068	0,060
-689,612	8,760	-0,126	0,071
-688,597	-5,398	-0,110	-0,056
-687,583	300,446	0,024	-0,033
-686,568	800,000	0,059	-0,189
-685,554	34,509	-0,104	-0,068
-684,539	564,150	-0,063	-0,114
-683,524	787,263	0,047	-0,097
-682,510	-200,000	-0,002	-0,128
-681,495	-200,000	-0,050	-0,252
-680,481	-198,059	-0,079	0,000
-679,466	-74,869	-0,067	-0,018
-678,451	-122,906	0,073	0,009
-677,437	800,000	0,021	0,050
-676,422	800,000	-0,030	-0,087
-675,408	39,720	-0,162	0,108
-674,393	-90,518	0,062	-0,013
-673,378	201,811	-0,058	-0,067
-672,364	107,109	0,056	-0,050
-671,349	222,456	0,113	-0,136
-670,335	34,619	-0,111	-0,072
-669,320	689,240	-0,029	-0,056
-668,305	118,935	-0,037	0,034
-667,291	214,195	0,041	-0,049
-666,276	800,000	0,035	-0,087
-665,262	-89,689	-0,048	0,010
-664,247	391,698	-0,025	0,039
-663,232	161,816	-0,049	0,051
-662,218	-200,000	0,023	0,118
-661,203	225,889	-0,083	0,100
-660,189	-200,000	-0,017	0,084
-659,174	439,211	-0,036	0,058
-658,159	362,985	0,028	-0,042
-657,145	-200,000	-0,021	-0,074
-656,130	5,994	-0,091	0,050
-655,116	109,477	0,059	0,052
-654,101	-200,000	0,008	0,128
-653,086	-38,538	-0,044	0,017
-652,072	800,000	0,022	-0,054
-651,057	-20,551	-0,126	-0,057
-650,043	-200,000	-0,008	-0,029
-649,028	-200,000	-0,002	0,044
-648,014	-200,000	0,005	0,056
-646,999	205,568	0,083	0,095
-645,984	271,951	0,089	0,116
-644,970	47,970	0,044	-0,031
-643,955	-92,965	0,160	0,033
-642,941	507,237	0,019	-0,032
-641,926	800,000	0,033	-0,079
-640,911	-200,000	-0,001	0,108
-639,897	591,642	-0,047	0,086
-638,882	800,000	-0,048	0,101
-637,868	-55,729	-0,156	-0,051
-636,853	-200,000	-0,028	-0,180
-635,838	103,185	0,045	-0,039
-634,824	-70,612	0,016	0,005
-633,809	-200,000	0,022	-0,128
-632,795	220,717	-0,022	0,027
-631,780	-84,355	0,083	0,019
-630,765	412,665	0,097	-0,153
-629,751	-200,000	-0,010	-0,045
-628,736	800,000	-0,042	-0,131
-627,722	-200,000	-0,019	-0,073
-626,707	800,000	-0,068	-0,150
-625,692	-54,574	-0,101	-0,034
-624,678	401,476	0,094	0,148
-623,663	-200,000	-0,033	-0,118
-622,649	97,410	-0,122	-0,104
-621,634	-112,924	0,097	-0,014
-620,619	-68,115	-0,036	0,010
-619,605	-80,795	-0,076	0,019
-618,590	253,310	-0,043	0,055
-617,576	236,355	-0,064	0,079
-616,561	-66,587	0,137	-0,040
-615,546	-111,260	-0,088	-0,013
-614,532	800,000	-0,102	-0,225
-613,517	508,278	-0,070	-0,121
-612,503	-200,000	0,002	-0,020
-611,488	800,000	-0,022	0,055
-610,474	277,113	0,017	-0,023
-609,459	-57,508	0,099	-0,032
-608,444	800,000	0,021	0,063
-607,430	-143,414	0,080	-0,006
-606,415	137,523	-0,015	0,015
-605,401	41,980	-0,090	-0,060
-604,386	64,192	-0,120	-0,090
-603,371	800,000	0,012	0,035
-602,357	-27,953	0,039	-0,017
-601,342	-200,000	-0,010	-0,089
-600,328	-200,000	-0,006	-0,035
-599,313	-53,336	0,063	-0,021
-598,298	160,868	-0,086	0,090
-597,284	5,525	0,026	-0,014
-596,269	800,000	-0,045	-0,123
-595,255	-200,000	0,003	-0,026
-594,240	-143,413	-0,068	0,005
-593,225	-111,692	0,126	-0,019
-592,211	-139,888	0,116	0,009
-591,196	-83,691	-0,149	-0,035
-590,182	66,595	0,128	-0,096
-589,167	33,900	0,077	-0,050
-588,152	-132,819	-0,104	-0,010
-587,138	-200,000	-0,033	-0,119
-586,123	-75,494	-0,039	0,010
-585,109	-15,259	-0,113	-0,053
-584,094	748,854	0,019	-0,037
-583,079	364,702	-0,051	0,077
-582,065	-30,219	-0,033	-0,014
-581,050	800,000	-0,025	-0,065
-580,036	597,265	-0,078	-0,144
-579,021	108,067	0,071	0,062
-578,006	-56,411	-0,149	0,049
-576,992	-69,916	-0,103	-0,029
-575,977	75,804	-0,101	-0,079
-574,963	-200,000	-0,017	0,173
-573,948	-69,099	0,124	0,035
-572,934	-200,000	0,012	0,091
-571,919	-66,123	-0,098	0,029
-570,904	-11,986	0,067	0,032
-569,890	3,756	-0,104	0,056
-568,875	-12,111	0,078	0,038
-567,861	96,466	0,080	-0,067
-566,846	-200,000	0,005	0,055
-565,831	-200,000	-0,003	0,065
-564,817	-200,000	0,056	-0,217
-563,802	-6,286	-0,090	-0,045
-562,788	142,563	0,024	0,024
-561,773	800,000	-0,020	0,043
-560,758	800,000	0,033	0,094
-559,744	800,000	0,039	0,080
-558,729	-13,158	0,012	0,006
-557,715	176,996	-0,014	0,015
-556,700	-122,738	0,088	0,010
-555,685	62,167	-0,071	0,052
-554,671	-114,712	0,078	0,011
-553,656	-200,000	-0,022	0,104
-552,642	222,360	-0,011	0,013
-551,627	38,160	-0,139	-0,092
-550,612	-200,000	-0,018	-0,070
-549,598	114,777	-0,028	-0,025
-548,583	-200,000	0,008	-0,052
-547,569	-169,612	0,013	0,000
-546,554	319,094	-0,016	0,022
-545,539	-200,000	-0,001	-0,035
-544,525	800,000	0,026	-0,059
-543,510	-109,530	0,057	-0,009
-542,496	298,811	-0,075	-0,103
-541,481	245,542	0,053	0,066
-540,466	87,780	-0,059	-0,048
-539,452	-129,594	0,095	-0,010
-538,437	-42,532	0,041	-0,016
-537,423	-200,000	0,003	0,035
-536,408	-200,000	0,022	0,096
-535,393	-105,875	-0,145	-0,024
-534,379	-29,760	0,057	-0,024
-533,364	532,319	-0,046	0,081
-532,350	-47,225	0,080	0,029
-531,335	65,453	-0,118	-0,088
-530,321	145,249	-0,108	0,107
-529,306	242,597	-0,099	-0,123
-528,291	203,310	-0,061	-0,070
-527,277	157,908	-0,111	0,114
-526,262	94,632	-0,082	0,069
-525,248	-24,017	0,027	-0,012
-524,233	403,549	0,073	0,114
-523,218	800,000	-0,004	0,012
-522,204	140,605	0,054	0,052
-521,189	-99,833	-0,092	0,017
-520,175	-200,000	-0,025	-0,146
-519,160	-200,000	0,001	-0,197
-518,145	19,655	-0,048	-0,028
-517,131	800,000	0,058	-0,152
-516,116	-200,000	0,019	-0,069
-515,102	-200,000	0,003	-0,066
-514,087	15,234	-0,116	-0,067
-513,072	-200,000	-0,006	-0,022
-512,058	800,000	0,009	0,026
-511,043	-200,000	0,002	-0,025
-510,029	-176,375	0,168	0,003
-509,014	125,808	-0,010	0,009
-507,999	93,867	-0,096	-0,081
-506,985	-72,353	0,055	0,015
-505,970	800,000	-0,041	0,095
-504,956	800,000	-0,046	0,102
-503,941	-32,702	0,060	0,025
-502,926	800,000	-0,037	-0,109
-501,912	800,000	-0,042	0,088
-500,897	-200,000	-0,026	0,171
-499,883	800,000	-0,039	-0,108
-498,868	507,398	0,017	-0,030
-497,853	432,179	0,043	-0,070
-496,839	-64,854	0,047	0,014
-495,824	-200,000	0,030	0,119
-494,810	32,850	-0,072	0,046
-493,795	775,930	-0,015	-0,030
-492,781	277,369	0,015	0,020
-491,766	-200,000	-0,003	-0,177
-490,751	95,261	-0,069	-0,058
-489,737	800,000	-0,022	-0,050
-488,722	-200,000	0,005	-0,068
-487,708	223,339	0,071	0,085
-486,693	-136,190	-0,091	-0,008
-485,678	-133,497	-0,052	0,005
-484,664	-102,101	-0,133	0,023
-483,649	-44,667	0,061	0,022
-482,635	78,313	0,033	-0,026
-481,620	800,000	0,025	0,063
-480,605	632,309	0,060	-0,113
-479,591	230,091	0,060	-0,072
-478,576	-65,090	-0,175	-0,052
-477,562	800,000	-0,016	0,036
-476,547	78,942	0,060	0,047
-475,532	214,612	-0,016	0,019
-474,518	-200,000	-0,011	0,105
-473,503	529,451	-0,015	0,026
-472,489	480,942	0,027	0,045
-471,474	93,925	0,047	0,039
-470,459	50,046	-0,057	-0,039
-469,445	-78,389	-0,094	0,024
-468,430	645,529	-0,022	0,042
-467,416	253,897	-0,039	-0,049
-466,401	800,000	-0,046	0,117
-465,386	162,500	0,078	0,080
-464,372	-200,000	-0,012	0,071
-463,357	62,229	-0,046	0,034
-462,343	-135,426	0,017	0,002
-461,328	618,666	-0,036	0,066
-460,313	800,000	-0,019	0,060
-459,299	69,914	0,036	-0,028
-458,284	345,224	-0,025	-0,037
-457,270	152,913	0,029	0,029
-456,255	800,000	-0,044	0,131
-455,241	-43,024	0,085	-0,032
-454,226	800,000	0,034	-0,083
-453,211	-42,841	-0,057	-0,021
-452,197	-200,000	-0,014	0,062
-451,182	800,000	0,046	0,107
-450,168	53,752	0,043	0,030
-449,153	-125,929	0,156	0,017
-448,138	-200,000	0,004	-0,055
-447,124	80,003	0,023	-0,018
-446,109	400,961	0,078	0,121
-445,095	262,136	0,044	0,056
-444,080	104,531	0,028	0,025
-443,065	-163,256	-0,049	-0,002
-442,051	160,451	0,038	0,039
-441,036	-200,000	0,000	0,076
-440,022	-200,000	0,010	-0,058
-439,007	311,865	-0,037	0,051
-437,992	-9,298	0,146	-0,072
-436,978	800,000	-0,008	0,021
-435,963	32,128	0,046	-0,029
-434,949	287,611	0,026	-0,035
-433,934	-119,013	-0,200	-0,025
-432,919	135,433	-0,047	0,045
-431,905	-135,788	0,116	-0,010
-430,890	711,233	0,038	-0,075
-429,876	-28,921	0,106	0,045
-428,861	75,179	0,110	0,085
-427,846	-200,000	-0,017	-0,059
-426,832	-200,000	-0,023	0,151
-425,817	-200,000	0,017	-0,111
-424,803	-200,000	-0,006	-0,024
-423,788	-200,000	0,005	0,078
-422,773	21,458	0,023	-0,014
-421,759	-200,000	-0,004	-0,026
-420,744	574,430	-0,103	0,187
-419,730	-200,000	-0,030	0,156
-418,715	800,000	-0,021	0,057
-417,701	-34,551	0,020	-0,008
-416,686	-109,052	0,043	-0,007
-415,671	-200,000	0,011	0,041
-414,657	13,088	0,051	-0,029
-413,642	-87,371	-0,057	-0,013
-412,628	-200,000	-0,029	0,149
-411,613	-200,000	0,017	0,183
-410,598	-200,000	0,011	0,103
-409,584	-150,799	0,067	0,004
-408,569	477,505	-0,094	0,157
-407,555	86,594	0,058	0,047
-406,540	-200,000	0,030	-0,111
-405,525	570,608	-0,004	-0,007
-404,511	610,203	-0,037	-0,069
-403,496	123,342	-0,031	-0,028
-402,482	-17,272	0,145	-0,067
-401,467	-87,546	0,038	0,008
-400,452	315,222	-0,022	-0,031
-399,438	-200,000	-0,046	-0,197
-398,423	-0,189	-0,152	-0,079
-397,409	-200,000	0,016	-0,066
-396,394	179,257	0,154	-0,166
-395,379	392,675	-0,041	0,062
-394,365	69,462	0,056	0,042
-393,350	-76,156	0,076	0,020
-392,336	34,654	-0,028	-0,018
-391,321	540,144	-0,025	-0,045
-390,306	167,084	0,053	-0,056
-389,292	-121,193	-0,060	-0,007
-388,277	-200,000	-0,027	-0,149
-387,263	52,748	0,042	-0,030
-386,248	47,959	-0,070	0,048
-385,233	-79,433	0,115	-0,028
-384,219	800,000	-0,028	-0,074
-383,204	-200,000	-0,022	0,118
-382,190	561,565	0,062	-0,110
-381,175	733,310	-0,028	0,056
-380,160	207,123	0,091	0,104
-379,146	283,217	-0,060	0,080
-378,131	96,864	-0,014	0,012
-377,117	40,100	-0,036	-0,024
-376,102	-131,291	-0,108	-0,010
-375,088	115,879	-0,023	-0,020
-374,073	-200,000	-0,044	0,148
-373,058	-200,000	-0,012	-0,070
-372,044	30,772	-0,140	0,088
-371,029	-200,000	0,009	0,077
-370,015	-128,257	-0,047	0,005
-369,000	181,161	0,073	-0,079
-367,985	-50,353	-0,059	-0,021
-366,971	800,000	-0,058	-0,125
-365,956	-88,535	-0,161	-0,035
-364,942	800,000	0,009	-0,025
-363,927	88,138	-0,054	0,044
-362,912	-84,070	0,081	0,019
-361,898	99,656	-0,060	-0,051
-360,883	-123,082	0,086	0,010
-359,869	-200,000	-0,041	-0,140
-358,854	18,250	0,031	0,018
-357,839	-34,636	0,040	-0,016
-356,825	-124,538	-0,106	0,012
-355,810	-128,035	0,131	-0,014
-354,796	570,541	0,045	0,082
-353,781	800,000	-0,015	-0,031
-352,766	-200,000	-0,011	0,041
-351,752	24,068	-0,128	0,078
-350,737	770,107	0,041	0,083
-349,723	239,851	0,046	0,056
-348,708	24,896	-0,090	0,055
-347,693	51,530	-0,037	0,026
-346,679	-200,000	-0,041	-0,210
-345,664	-41,742	-0,092	0,035
-344,650	289,690	0,087	0,116
-343,635	-200,000	-0,010	-0,040
-342,620	80,298	0,075	0,059
-341,606	228,862	-0,029	-0,035
-340,591	246,870	-0,052	-0,064
-339,577	-200,000	-0,004	-0,080
-338,562	154,733	0,062	-0,062
-337,548	-13,723	-0,009	-0,004
-336,533	-200,000	-0,020	0,107
-335,518	38,051	0,059	-0,038
-334,504	-200,000	-0,023	0,082
-333,489	37,663	0,044	0,028
-332,475	269,300	-0,076	-0,098
-331,460	144,684	-0,091	-0,089
-330,445	-200,000	0,010	-0,145
-329,431	221,533	0,065	-0,077
-328,416	109,037	0,113	0,099
-327,402	800,000	-0,027	0,067
-326,387	162,389	-0,025	0,026
-325,372	-200,000	0,020	-0,068
-324,358	122,285	0,140	-0,129
-323,343	195,966	-0,036	-0,040
-322,329	254,574	0,066	0,083
-321,314	-119,607	0,181	0,023
-320,299	-116,377	-0,097	-0,013
-319,285	-45,631	0,077	0,028
-318,270	-164,242	0,160	0,005
-317,256	13,305	-0,070	-0,040
-316,241	-200,000	0,016	-0,071
-315,226	-200,000	-0,012	-0,043
-314,212	-200,000	0,000	0,058
-313,197	-200,000	-0,013	-0,125
-312,183	-88,271	-0,113	-0,025
-311,168	279,663	0,053	-0,070
-310,153	-35,550	-0,095	0,038
-309,139	22,021	-0,115	-0,069
-308,124	30,809	0,033	0,020
-307,110	800,000	-0,027	0,060
-306,095	126,344	0,052	0,048
-305,080	31,387	-0,069	-0,043
-304,066	422,227	-0,044	-0,069
-303,051	472,456	0,026	-0,043
-302,037	-50,155	0,141	0,049
-301,022	800,000	-0,095	0,199
-300,008	69,582	0,150	0,113
-298,993	394,457	0,068	0,105
-297,978	-101,758	0,146	-0,026
-296,964	-200,000	-0,050	0,174
-295,949	82,680	0,088	0,070
-294,935	-200,000	0,026	0,092
-293,920	-200,000	0,024	0,101
-292,905	-200,000	0,006	0,021
-291,891	209,799	0,067	0,077
-290,876	-75,884	0,060	-0,016
-289,862	703,637	0,028	-0,055
-288,847	-42,571	-0,050	-0,019
-287,832	-200,000	0,018	-0,086
-286,818	126,793	0,108	-0,100
-285,803	326,267	0,063	0,089
-284,789	-88,752	0,189	0,041
-283,774	528,004	0,059	0,103
-282,759	-200,000	0,007	-0,068
-281,745	-200,000	-0,008	-0,104
-280,730	-200,000	-0,006	-0,146
-279,716	210,493	0,040	0,046
-278,701	-39,013	0,118	0,045
-277,686	800,000	0,025	-0,077
-276,672	144,091	0,017	0,017
-275,657	800,000	0,049	0,123
-274,643	162,191	-0,007	-0,007
-273,628	-200,000	0,054	-0,209
-272,613	35,129	-0,058	0,037
-271,599	289,912	0,052	-0,069
-270,584	183,837	-0,038	-0,041
-269,570	221,603	0,028	-0,033
-268,555	63,019	-0,058	-0,043
-267,540	156,893	-0,125	0,127
-266,526	-200,000	0,009	0,154
-265,511	41,848	-0,093	-0,062
-264,497	-200,000	-0,008	0,067
-263,482	72,990	0,052	0,040
-262,467	47,602	-0,131	-0,089
-261,453	61,975	0,035	0,026
-260,438	800,000	0,022	0,072
-259,424	-81,190	-0,047	0,011
-258,409	-157,191	0,079	-0,003
-257,395	145,710	0,038	0,037
-256,380	800,000	0,008	0,023
-255,365	380,834	0,015	0,023
-254,351	54,474	0,079	0,055
-253,336	145,850	-0,108	0,106
-252,322	-200,000	0,010	0,036
-251,307	-101,010	0,183	-0,032
-250,292	-94,946	-0,169	0,033
-249,278	21,652	0,065	-0,039
-248,263	-30,515	0,045	0,018
-247,249	123,276	-0,096	0,088
-246,234	-200,000	-0,004	-0,046
-245,219	-69,530	-0,148	0,041
-244,205	550,374	0,073	-0,129
-243,190	800,000	-0,038	-0,098
-242,176	27,609	0,074	0,045
-241,161	-105,533	-0,070	-0,011
-240,146	-68,192	0,198	0,056
-239,132	800,000	0,017	0,035
-238,117	314,971	0,061	0,085
-237,103	198,943	-0,085	0,095
-236,088	-200,000	-0,003	0,035
-235,073	-128,095	-0,141	0,015
-234,059	-14,219	-0,018	-0,009
-233,044	56,082	-0,014	0,010
-232,030	796,315	0,048	-0,097
-231,015	-200,000	0,009	-0,065
-230,000	800,000	0,009	-0,028
-228,986	303,491	-0,033	-0,045
-227,971	-200,000	0,019	0,128
-226,957	-132,447	0,084	-0,008
-225,942	445,920	0,024	0,038
-224,927	800,000	-0,035	-0,075
-223,913	800,000	-0,031	0,090
-222,898	800,000	0,026	0,073
-221,884	163,510	0,142	-0,146
-220,869	-200,000	-0,007	-0,047
-219,855	-130,725	0,042	-0,004
-218,840	800,000	0,013	0,035
-217,825	8,079	0,082	0,045
-216,811	480,739	-0,075	-0,125
-215,796	-200,000	-0,022	-0,146
-214,782	-200,000	-0,020	-0,082
-213,767	800,000	-0,012	0,035
-212,752	317,292	0,046	-0,063
-211,738	-118,729	-0,067	0,009
-210,723	-21,038	0,135	0,060
-209,709	365,741	-0,029	0,044
-208,694	800,000	0,028	-0,073
-207,679	800,000	-0,047	-0,107
-206,665	-200,000	-0,001	0,081
-205,650	800,000	0,041	0,101
-204,636	33,357	0,052	-0,033
-203,621	565,126	-0,018	0,033
-202,606	305,168	0,038	-0,052
-201,592	-114,199	-0,104	0,014
-200,577	36,480	0,047	0,030
-199,563	-200,000	-0,001	0,090
-198,548	-200,000	-0,012	0,041
-197,533	-200,000	0,032	-0,176
-196,519	-52,717	0,027	-0,009
-195,504	558,800	-0,098	-0,172
-194,490	-70,269	0,074	-0,020
-193,475	800,000	0,045	0,098
-192,460	148,259	0,036	-0,036
-191,446	291,343	0,068	-0,090
-190,431	800,000	0,019	-0,057
-189,417	-200,000	-0,028	0,131
-188,402	-57,221	-0,180	0,057
-187,387	-55,195	-0,073	0,024
-186,373	-200,000	0,005	0,030
-185,358	227,781	-0,043	0,052
-184,344	18,229	0,058	-0,033
-183,329	-200,000	-0,025	0,150
-182,315	-161,832	0,140	0,005
-181,300	629,818	0,051	-0,095
-180,285	572,259	-0,055	0,098
-179,271	-41,151	-0,058	-0,022
-178,256	-40,931	0,091	-0,034
-177,242	462,845	-0,042	0,069
-176,227	800,000	0,042	0,090
-175,212	-10,111	-0,042	-0,020
-174,198	-200,000	-0,016	0,107
-173,183	-20,206	0,046	0,020
-172,169	-200,000	0,013	-0,079
-171,154	121,091	-0,068	-0,062
-170,139	-200,000	-0,003	0,020
-169,125	-200,000	0,033	0,000
-168,110	800,000	0,021	-0,052
-167,096	337,645	0,053	0,075
-166,081	800,000	0,042	0,133
-165,066	409,246	-0,059	-0,092
-164,052	396,261	-0,050	-0,076
-163,037	-200,000	0,010	-0,042
-162,023	-200,000	-0,001	0,205
-161,008	457,160	-0,090	0,147
-159,993	-21,529	-0,006	-0,003
-158,979	800,000	-0,041	-0,087
-157,964	199,766	-0,029	0,032
-156,950	4,210	-0,143	0,076
-155,935	-94,945	-0,053	-0,010
-154,920	42,435	0,022	0,014
-153,906	291,326	0,048	-0,063
-152,891	-200,000	0,004	-0,128
-151,877	-39,822	-0,037	0,014
-150,862	-151,655	-0,065	-0,003
-149,847	128,096	0,016	0,015
-148,833	-200,000	-0,002	0,042
-147,818	78,664	0,017	-0,013
-146,804	-200,000	0,010	0,085
-145,789	146,524	0,111	0,108
-144,775	429,588	0,040	0,064
-143,760	-200,000	-0,009	-0,031
-142,745	800,000	-0,066	-0,148
-141,731	-200,000	0,012	-0,143
-140,716	-1,604	0,113	-0,058
-139,702	800,000	0,027	0,074
-138,687	-30,393	-0,114	0,047
-137,672	800,000	0,025	0,078
-136,658	25,060	-0,095	-0,057
-135,643	-69,383	-0,078	0,022
-134,629	800,000	0,087	0,208
-133,614	800,000	-0,045	0,114
-132,599	485,711	-0,081	0,135
-131,585	679,274	0,064	0,122
-130,570	12,262	-0,112	-0,063
-129,556	530,576	-0,053	-0,092
-128,541	-5,452	-0,086	-0,043
-127,526	-200,000	0,021	-0,146
-126,512	44,264	0,076	-0,051
-125,497	181,789	0,061	0,066
-124,483	-45,093	0,063	-0,023
-123,468	369,282	-0,048	0,071
-122,453	1,068	-0,104	0,054
-121,439	-200,000	0,048	-0,177
-120,424	265,904	-0,092	-0,117
-119,410	39,618	0,044	-0,028
-118,395	211,005	-0,044	0,050
-117,380	15,288	0,155	0,088
-116,366	157,340	0,060	-0,061
-115,351	-200,000	0,055	-0,188
-114,337	29,016	-0,060	-0,037
-113,322	800,000	-0,024	-0,051
-112,307	-34,656	0,098	-0,039
-111,293	-25,084	0,093	-0,040
-110,278	-154,681	0,107	-0,005
-109,264	-200,000	-0,005	0,062
-108,249	-9,112	-0,088	0,043
-107,234	800,000	-0,045	-0,109
-106,220	62,157	-0,090	-0,065
-105,205	-4,952	-0,075	-0,037
-104,191	100,794	-0,074	-0,063
-103,176	-126,570	-0,025	0,003
-102,162	-167,127	0,078	-0,002
-101,147	587,426	-0,040	-0,071
-100,132	-115,185	0,124	-0,017
-99,118	-13,907	0,035	-0,017
-98,103	510,853	-0,027	-0,046
-97,089	-48,820	0,089	0,031
-96,074	-18,362	0,085	0,038
-95,059	62,152	0,107	0,077
-94,045	559,732	-0,040	-0,071
-93,030	-18,152	-0,047	-0,021
-92,016	-200,000	-0,043	0,169
-91,001	-200,000	0,010	0,149
-89,986	800,000	0,037	0,083
-88,972	-175,715	0,209	0,004
-87,957	800,000	-0,029	-0,064
-86,943	-200,000	0,033	-0,126
-85,928	-21,771	0,098	-0,043
-84,913	26,415	-0,030	-0,018
-83,899	64,933	-0,116	-0,085
-82,884	-200,000	0,000	-0,036
-81,870	514,274	0,032	0,055
-80,855	404,186	0,061	0,094
-79,840	-200,000	-0,020	0,149
-78,826	-178,019	-0,077	0,001
-77,811	126,899	-0,025	-0,023
-76,797	52,251	0,059	-0,041
-75,782	800,000	0,020	0,062
-74,767	177,899	0,076	0,080
-73,753	730,619	0,053	0,103
-72,738	-200,000	-0,006	-0,155
-71,724	-200,000	-0,007	0,078
-70,709	-200,000	0,048	-0,170
-69,694	-80,496	0,120	0,029
-68,680	-1,170	0,081	0,041
-67,665	138,615	-0,050	-0,047
-66,651	-200,000	-0,008	-0,031
-65,636	-152,476	-0,055	-0,003
-64,622	-159,050	-0,051	0,002
-63,607	229,023	0,032	-0,038
-62,592	400,630	-0,075	-0,114
-61,578	-196,514	0,065	-0,000
-60,563	-200,000	0,010	-0,105
-59,549	16,161	-0,057	-0,032
-58,534	-106,514	-1,421	-0,228
-57,519	736,757	-0,763	-1,491
-56,505	-200,000	-0,844	-4,567
-55,490	4,388	0,592	-0,314
-54,476	800,000	5,045	11,775
-53,461	-200,000	13,589	253,476
-52,446	-200,000	690,200	2259,442
-51,432	590,788	1622,398	2916,420
-50,417	119,310	1634,694	1467,735
-49,403	73,257	1288,895	977,177
-48,388	38,023	1024,246	659,595
-47,373	24,322	981,882	587,256
-46,359	23,551	971,495	578,493
-45,344	22,582	967,267	572,785
-44,330	22,507	966,010	571,773
-43,315	22,451	964,337	570,577
-42,300	22,371	963,351	569,712
-41,286	22,424	962,352	569,270
-40,271	22,431	961,553	568,799
-39,257	22,358	960,721	568,045
-38,242	22,341	959,636	567,327
-37,227	22,439	958,567	566,991
-36,213	22,344	957,749	566,177
-35,198	22,364	957,007	565,781
-34,184	22,430	956,360	565,588
-33,169	22,361	955,566	564,873
-32,154	22,343	954,780	564,329
-31,140	22,416	953,688	563,896
-30,125	22,462	952,802	563,496
-29,111	22,479	951,986	563,048
-28,096	22,393	951,524	562,476
-27,082	22,395	950,809	562,037
-26,067	22,405	949,855	561,482
-25,052	22,367	949,265	560,990
-24,038	22,405	948,654	560,727
-23,023	22,376	948,103	560,287
-22,009	22,403	947,346	559,903
-20,994	22,477	946,701	559,737
-19,979	22,446	946,092	559,257
-18,965	22,443	945,544	558,901
-17,950	22,460	944,767	558,471
-16,936	22,402	944,109	557,877
-15,921	22,337	943,523	557,302
-14,906	22,292	942,783	556,698
-13,892	22,287	942,166	556,298
-12,877	22,300	941,463	555,901
-11,863	22,186	940,996	555,242
-10,848	22,273	940,386	555,134
-9,833	22,415	939,670	555,141
-8,819	22,304	939,335	554,570
-7,804	22,313	938,495	554,079
-6,790	22,273	938,109	553,702
-5,775	22,308	937,385	553,363
-4,760	22,294	936,811	552,958
-3,746	22,303	936,064	552,526
-2,731	22,132	935,457	551,604
-1,717	22,130	934,816	551,197
-0,702	22,131	934,029	550,716
0,313	21,913	933,443	550,515
1,327	25,137	931,343	559,363
2,342	34,794	795,990	503,784
3,356	32,750	451,565	282,692
4,371	1,796	293,871	153,082
5,386	-2,710	274,670	138,804
6,400	-4,494	268,974	134,257
7,415	-4,854	266,461	132,660
8,429	-4,536	265,260	132,341
9,444	-4,637	264,434	131,826
10,459	-4,486	263,874	131,671
11,473	-4,618	263,255	131,231
12,488	-4,642	262,670	130,906
13,502	-4,746	262,135	130,534
14,517	-4,687	261,733	130,376
15,531	-4,580	261,404	130,296
16,546	-4,560	260,981	130,092
17,561	-4,682	260,533	129,748
18,575	-4,595	260,340	129,718
19,590	-4,881	259,957	129,259
20,604	-4,420	259,524	129,445
21,619	-4,706	259,315	129,073
22,634	-4,626	259,008	128,981
23,648	-4,682	258,692	128,762
24,663	-4,807	258,425	128,506
25,677	-4,662	258,175	128,499
26,692	-4,780	258,040	128,316
27,707	-4,727	257,828	128,246
28,721	-4,751	257,411	128,006
29,736	-4,791	257,269	127,888
30,750	-4,806	256,986	127,723
31,765	-4,696	256,669	127,651
32,780	-4,701	256,471	127,537
33,794	-4,790	256,284	127,355
34,809	-4,877	256,078	127,164
35,823	-4,900	255,793	126,990
36,838	-4,720	255,344	126,914
37,853	-4,874	255,423	126,807
38,867	-4,801	254,958	126,629
39,882	-4,966	254,823	126,405
40,896	-4,858	254,706	126,431
41,911	-4,870	254,466	126,291
42,926	-4,733	254,101	126,218
43,940	-4,654	253,852	126,152
44,955	-4,951	253,718	125,815
45,969	-5,068	253,445	125,566
46,984	-5,286	253,305	125,295
47,999	-5,345	252,920	125,042
49,013	-5,392	252,682	124,873
50,028	-5,571	252,434	124,583
51,042	-5,505	252,015	124,423
52,057	-5,698	251,900	124,187
53,071	-5,505	251,741	124,266
54,086	-5,395	251,389	124,176
55,101	-5,710	251,580	123,987
56,115	-5,169	251,382	124,345
57,130	-4,742	251,283	124,655
58,144	-4,493	250,933	124,684
59,159	-4,563	250,878	124,586
60,174	-4,386	250,604	124,591
61,188	-4,605	250,504	124,342
62,203	-4,610	250,300	124,225
63,217	-4,602	250,091	124,117
64,232	-4,696	249,920	123,940
65,247	-4,697	249,701	123,819
66,261	-4,541	249,546	123,865
67,276	-4,770	249,080	123,428
68,290	-5,074	248,945	123,090
69,305	-5,205	248,712	122,851
70,320	-4,952	248,449	122,927
71,334	-5,006	248,489	122,889
72,349	-4,594	248,193	123,083
73,363	-4,713	248,147	122,948
74,378	-4,507	247,818	122,949
75,393	-4,544	247,577	122,787
76,407	-4,584	247,505	122,707
77,422	-4,661	247,261	122,509
78,436	-4,643	247,110	122,439
79,451	-4,765	246,945	122,243
80,466	-4,647	246,517	122,120
81,480	-5,014	246,328	121,705
82,495	-5,003	246,112	121,597
83,509	-4,982	246,066	121,581
84,524	-4,998	245,826	121,438
85,539	-5,159	245,554	121,158
86,553	-5,076	245,332	121,107
87,568	-5,124	245,178	120,979
88,582	-5,003	245,002	120,983
89,597	-5,221	244,880	120,730
90,611	-4,831	244,690	120,952
91,626	-4,689	244,609	121,020
92,641	-4,859	244,478	120,803
93,655	-4,851	244,187	120,654
94,670	-4,829	244,009	120,574
95,684	-4,982	243,804	120,334
96,699	-4,894	243,866	120,428
97,714	-5,053	243,491	120,099
98,728	-5,070	243,221	119,942
99,743	-5,244	243,036	119,694
100,757	-5,243	242,827	119,581
101,772	-5,181	242,580	119,501
102,787	-5,110	242,568	119,543
103,801	-4,827	242,175	119,574
104,816	-4,793	242,228	119,617
105,830	-4,899	242,009	119,411
106,845	-4,704	241,905	119,510
107,860	-4,812	241,685	119,301
108,874	-5,014	241,505	119,035
109,889	-4,872	241,262	119,021
110,903	-5,013	241,038	118,784
111,918	-4,902	240,862	118,779
112,933	-4,883	240,583	118,646
113,947	-4,856	240,570	118,651
114,962	-4,691	240,271	118,628
115,976	-4,746	240,324	118,599
116,991	-4,952	240,113	118,315
118,006	-4,764	239,937	118,372
119,020	-4,910	239,809	118,179
120,035	-4,721	239,757	118,298
121,049	-4,476	239,423	118,322
122,064	-4,872	239,367	117,961
123,079	-4,886	239,106	117,810
124,093	-4,844	238,844	117,705
125,108	-5,006	238,584	117,434
126,122	-5,265	238,544	117,192
127,137	-5,229	238,364	117,123
128,151	-5,256	238,084	116,953
129,166	-4,935	238,016	117,170
130,181	-4,957	237,751	117,012
131,195	-5,040	237,443	116,782
132,210	-4,977	237,440	116,822
133,224	-4,653	237,156	116,933
134,239	-4,900	237,105	116,698
135,254	-4,949	237,051	116,621
136,268	-4,787	236,669	116,554
137,283	-4,915	236,389	116,302
138,297	-5,188	236,300	116,028
139,312	-5,234	236,130	115,897
140,327	-5,069	236,037	115,974
141,341	-4,569	236,130	116,412
142,356	-4,532	235,946	116,341
143,370	-4,659	235,809	116,161
144,385	-4,496	235,490	116,125
145,400	-4,238	235,453	116,303
146,414	-4,351	235,083	116,019
147,429	-4,377	234,974	115,934
148,443	-4,429	234,679	115,737
149,458	-4,541	234,682	115,638
150,473	-4,586	234,736	115,619
151,487	-4,640	234,401	115,400
152,502	-4,745	234,282	115,247
153,516	-4,538	234,131	115,329
154,531	-4,474	233,845	115,228
155,546	-4,349	233,591	115,192
156,560	-4,742	233,489	114,819
157,575	-4,636	233,289	114,794
158,589	-4,541	233,172	114,802
159,604	-4,385	232,889	114,776
160,619	-4,454	232,766	114,651
161,633	-4,493	232,822	114,637
162,648	-4,269	232,555	114,673
163,662	-4,328	232,478	114,578
164,677	-4,660	232,174	114,155
165,692	-4,531	232,169	114,245
166,706	-4,586	232,035	114,125
167,721	-4,406	231,775	114,129
168,735	-4,209	231,739	114,257
169,750	-4,465	231,583	113,968
170,764	-4,547	231,493	113,849
171,779	-4,494	231,284	113,777
172,794	-4,439	231,176	113,758
173,808	-4,606	230,896	113,478
174,823	-5,091	230,489	112,888
175,837	-5,214	230,433	112,754
176,852	-4,899	230,465	113,006
177,867	-4,806	230,367	113,021
178,881	-4,557	230,231	113,140
179,896	-4,522	229,959	113,023
180,910	-4,326	229,790	113,083
181,925	-4,230	229,581	113,045
182,940	-4,434	229,570	112,870
183,954	-4,366	229,322	112,791
184,969	-4,279	229,157	112,767
185,983	-4,296	229,132	112,732
186,998	-4,411	228,969	112,552
188,013	-4,265	228,838	112,592
189,027	-4,343	228,566	112,387
190,042	-4,243	228,416	112,381
191,056	-4,219	228,235	112,301
192,071	-4,131	228,083	112,283
193,086	-4,429	227,828	111,918
194,100	-4,299	227,818	112,003
195,115	-4,558	227,514	111,644
196,129	-4,898	227,294	111,263
197,144	-1,645	228,285	114,258
198,159	1,632	229,454	117,378
199,173	3,984	229,992	119,471
200,188	4,539	229,789	119,786
201,202	4,388	229,723	119,623
202,217	4,883	229,538	119,899
203,232	4,617	229,482	119,654
204,246	4,788	229,409	119,737
205,261	4,981	229,073	119,700
206,275	5,015	229,120	119,741
207,290	4,947	229,016	119,623
208,304	5,138	228,804	119,649
209,319	4,963	228,535	119,363
210,334	4,852	228,510	119,253
211,348	4,529	228,290	118,880
212,363	4,488	227,900	118,635
213,377	4,075	227,648	118,176
214,392	4,238	227,504	118,215
215,407	4,162	227,548	118,169
216,421	4,107	227,239	117,956
217,436	4,004	227,235	117,865
218,450	3,854	226,877	117,554
219,465	3,918	226,562	117,429
220,480	3,772	226,668	117,362
221,494	3,764	226,593	117,307
222,509	4,119	226,378	117,456
223,523	3,993	226,374	117,347
224,538	3,902	226,102	117,126
225,553	4,108	225,890	117,163
226,567	4,089	225,806	117,094
227,582	4,234	225,873	117,229
228,596	4,301	225,764	117,213
229,611	4,253	225,389	116,971
230,626	4,237	225,209	116,855
231,640	3,872	225,087	116,505
232,655	4,160	224,992	116,663
233,669	4,740	224,855	117,021
234,684	4,846	224,783	117,053
235,699	4,374	224,651	116,617
236,713	4,367	224,345	116,443
237,728	3,974	224,313	116,119
238,742	4,165	223,944	116,062
239,757	4,109	223,840	115,955
240,772	4,140	223,717	115,904
241,786	4,206	223,560	115,862
242,801	4,370	223,460	115,923
243,815	4,370	223,441	115,904
244,830	4,386	223,387	115,877
245,844	4,078	223,028	115,450
246,859	4,280	222,877	115,512
247,874	4,347	222,801	115,513
248,888	4,471	222,694	115,540
249,903	4,212	222,500	115,235
250,917	4,139	222,288	115,060
251,932	4,161	222,134	114,987
252,947	4,172	221,990	114,911
253,961	3,895	221,860	114,626
254,976	4,059	221,702	114,657
255,990	4,390	221,603	114,842
257,005	4,290	221,745	114,830
258,020	4,186	221,404	114,566
259,034	4,653	221,340	114,871
260,049	4,498	221,110	114,625
261,063	4,662	220,911	114,633
262,078	4,453	220,840	114,432
263,093	4,466	220,767	114,393
264,107	4,425	220,556	114,243
265,122	4,309	220,407	114,070
266,136	4,578	220,284	114,196
267,151	4,463	220,229	114,072
268,166	4,137	219,875	113,637
269,180	3,674	219,856	113,276
270,195	3,718	219,629	113,182
271,209	4,046	219,417	113,303
272,224	4,036	219,343	113,248
273,239	4,480	219,070	113,423
274,253	4,124	218,942	113,086
275,268	4,094	218,788	112,974
276,282	4,084	218,644	112,882
277,297	3,957	218,511	112,710
278,312	3,798	218,467	112,561
279,326	4,089	218,225	112,639
280,341	3,937	218,190	112,499
281,355	4,297	218,028	112,669
282,370	4,230	217,854	112,521
283,384	4,013	217,751	112,299
284,399	3,718	217,627	112,010
285,414	3,804	217,372	111,931
286,428	4,123	217,328	112,131
287,443	4,360	217,327	112,293
288,457	4,209	217,184	112,099
289,472	4,056	216,933	111,848
290,487	3,652	216,696	111,424
291,501	3,668	216,490	111,318
292,516	3,816	216,388	111,364
293,530	3,831	216,243	111,290
294,545	3,926	216,117	111,284
295,560	4,022	216,129	111,350
296,574	3,840	215,981	111,131
297,589	4,152	215,793	111,251
298,603	4,140	215,714	111,191
299,618	4,400	215,422	111,218
300,633	4,261	215,448	111,121
301,647	4,347	215,438	111,169
302,662	4,394	215,194	111,067
303,676	4,159	215,135	110,857
304,691	4,259	214,982	110,840
305,706	4,529	214,897	110,981
306,720	4,316	214,579	110,653
307,735	4,030	214,595	110,447
308,749	4,061	214,245	110,279
309,764	4,237	214,183	110,363
310,779	4,399	214,153	110,454
311,793	4,373	213,915	110,303
312,808	4,352	213,771	110,203
313,822	4,178	213,714	110,040
314,837	4,336	213,460	110,012
315,852	3,888	213,283	109,592
316,866	4,103	213,246	109,716
317,881	4,257	213,162	109,773
318,895	4,451	212,945	109,789
319,910	3,980	212,729	109,334
320,925	3,931	212,631	109,239
321,939	3,773	212,186	108,888
322,954	3,740	212,277	108,902
323,968	4,058	212,217	109,087
324,983	4,245	212,144	109,173
325,997	4,428	212,087	109,263
327,012	4,283	211,930	109,069
328,027	4,189	211,779	108,916
329,041	4,309	211,735	108,968
330,056	4,477	211,547	108,980
331,070	4,298	211,305	108,720
332,085	3,874	211,067	108,288
333,100	4,073	211,003	108,386
334,114	4,334	210,938	108,527
335,129	4,472	210,784	108,535
336,143	4,002	210,658	108,130
337,158	4,018	210,484	108,043
338,173	4,034	210,410	108,006
339,187	3,963	210,161	107,819
340,202	3,800	210,041	107,633
341,216	3,722	209,845	107,469
342,231	3,791	209,804	107,487
343,246	3,777	209,593	107,360
344,260	4,075	209,667	107,595
345,275	3,808	209,548	107,339
346,289	4,086	209,325	107,409
347,304	4,214	209,226	107,438
348,319	4,024	209,010	107,185
349,333	3,841	208,942	107,013
350,348	4,181	208,852	107,193
351,362	3,940	208,785	106,982
352,377	4,169	208,731	107,104
353,392	3,958	208,413	106,785
354,406	4,053	208,316	106,792
355,421	193,126	1347,294	1433,410
356,435	154,051	1486,165	1433,534
