DTS Sentinel unit serial number:	SN410029Multiplexer serial number:	ORYXHardware model number:	OX2-SRSoftware version number:	ORYX F/W v4,00 Oryx Data Collector v3.7.2.0data status	okinstallation	B6 Nyhavnadifferential loss correction	single-endedforward channel	channel 2reverse channel	N/Adate	2023/12/07time	15:40:08forward acquisition time	300,00reverse acquisition time	0,00gamma	499,1914k internal	0,3165k external	0,3165temperature offset calibration	1,0000default loss term (dB/km)	0,3820temperature slope calibration	1,0000multiplexer offset coefficient	1,0000multiplexer slope coefficient	1,0000fibre end	0,00T internal ref (°C)	14,42T ext. ref 1 (°C)	-2,00T ext. ref 2 (°C)	-2,00length (m)	temperature (°C)	Stokes	anti-Stokes-744,400	-163,221	0,075	0,003
-743,385	-105,294	-0,356	-0,059
-742,371	-76,226	0,099	0,025
-741,356	-188,337	-0,284	-0,003
-740,342	-126,311	0,154	0,017
-739,327	-148,157	-0,268	0,016
-738,312	-99,029	0,194	0,036
-737,298	-156,302	-0,210	0,010
-736,283	-127,788	0,182	-0,019
-735,269	-106,389	-0,267	-0,043
-734,254	-164,413	0,161	-0,005
-733,239	-48,977	-0,469	-0,164
-732,225	-11,661	0,232	0,112
-731,210	12,425	0,055	-0,031
-730,196	310,464	-0,093	-0,129
-729,181	114,823	-0,156	-0,140
-728,167	537,724	-0,034	-0,060
-727,152	-19,568	-0,158	0,072
-726,137	800,000	-0,018	-0,056
-725,123	299,395	-0,040	-0,054
-724,108	-85,997	0,054	-0,012
-723,094	-49,891	-0,082	-0,029
-722,079	677,732	0,024	-0,046
-721,064	-200,000	0,006	-0,041
-720,050	-200,000	-0,003	0,056
-719,035	188,629	0,073	-0,080
-718,021	-57,283	-0,192	-0,062
-717,006	800,000	-0,029	-0,067
-715,991	131,768	-0,060	-0,057
-714,977	-200,000	-0,026	-0,094
-713,962	-200,000	-0,001	0,046
-712,948	126,562	-0,067	0,062
-711,933	-136,255	-0,032	-0,003
-710,918	-66,262	-0,009	-0,003
-709,904	284,630	0,070	-0,093
-708,889	-71,475	-0,085	-0,023
-707,875	159,383	-0,094	-0,096
-706,860	-3,264	0,073	0,037
-705,845	-109,134	-0,091	0,014
-704,831	-70,133	0,042	-0,012
-703,816	-162,551	-0,155	-0,006
-702,802	532,313	-0,095	-0,166
-701,787	551,953	-0,018	-0,032
-700,772	800,000	0,012	0,028
-699,758	800,000	-0,030	0,074
-698,743	-129,268	0,077	0,008
-697,729	92,581	0,095	0,079
-696,714	-85,240	0,044	0,010
-695,699	-111,727	-0,150	-0,022
-694,685	604,210	-0,055	-0,102
-693,670	800,000	-0,051	-0,128
-692,656	800,000	-0,037	0,078
-691,641	60,046	-0,120	-0,087
-690,627	111,173	0,045	0,040
-689,612	88,712	0,102	-0,083
-688,597	140,677	-0,059	-0,057
-687,583	-113,281	-0,048	-0,007
-686,568	0,467	-0,065	-0,034
-685,554	100,567	0,081	-0,069
-684,539	-200,000	0,009	-0,081
-683,524	800,000	-0,006	-0,016
-682,510	-37,589	-0,125	0,049
-681,495	-200,000	-0,035	-0,130
-680,481	591,270	-0,044	-0,081
-679,466	-200,000	0,005	-0,064
-678,451	-97,827	0,090	-0,017
-677,437	-54,418	0,079	-0,026
-676,422	-184,990	0,084	-0,001
-675,408	-200,000	-0,012	0,116
-674,393	-200,000	-0,001	-0,032
-673,378	100,996	-0,089	0,076
-672,364	-200,000	-0,005	-0,029
-671,349	85,049	0,134	-0,108
-670,335	800,000	0,049	-0,111
-669,320	-17,501	0,102	0,047
-668,305	800,000	0,023	0,056
-667,291	-104,790	0,204	0,034
-666,276	-82,789	-0,064	-0,015
-665,262	-69,572	-0,027	0,008
-664,247	756,902	-0,020	0,041
-663,232	-4,015	-0,071	-0,036
-662,218	194,252	0,060	0,067
-661,203	-200,000	-0,008	-0,107
-660,189	165,451	0,097	0,100
-659,174	-81,332	-0,107	-0,026
-658,159	87,941	-0,114	0,093
-657,145	73,834	0,064	-0,049
-656,130	-85,813	0,037	0,008
-655,116	354,057	0,059	0,086
-654,101	176,985	0,054	-0,058
-653,086	-112,951	0,109	0,016
-652,072	-128,788	-0,198	0,020
-651,057	401,509	0,053	0,082
-650,043	-200,000	-0,003	-0,014
-649,028	163,092	0,043	0,044
-648,014	-200,000	-0,022	0,104
-646,999	398,860	-0,047	0,073
-645,984	-200,000	0,015	0,058
-644,970	-27,999	0,008	0,003
-643,955	-200,000	-0,037	-0,180
-642,941	-45,242	0,018	0,006
-641,926	-84,994	-0,097	-0,022
-640,911	338,987	0,037	-0,053
-639,897	-200,000	0,009	0,121
-638,882	142,432	0,060	-0,058
-637,868	558,963	-0,024	-0,043
-636,853	-95,946	0,091	-0,018
-635,838	260,289	-0,088	-0,112
-634,824	800,000	0,019	0,055
-633,809	66,778	0,023	-0,017
-632,795	-200,000	0,001	0,055
-631,780	12,035	0,081	-0,046
-630,765	446,878	-0,053	-0,086
-629,751	33,957	-0,133	0,084
-628,736	-200,000	0,012	0,040
-627,722	-125,906	0,103	0,011
-626,707	800,000	-0,011	-0,025
-625,692	-13,245	0,111	0,053
-624,678	356,263	-0,034	0,049
-623,663	-84,252	-0,038	0,009
-622,649	-200,000	-0,015	0,108
-621,634	39,165	-0,032	0,021
-620,619	800,000	0,029	-0,086
-619,605	-20,933	0,041	-0,018
-618,590	26,676	0,048	-0,029
-617,576	-156,524	-0,172	0,008
-616,561	800,000	0,035	-0,112
-615,546	521,213	-0,029	-0,050
-614,532	800,000	-0,042	-0,127
-613,517	714,444	-0,050	-0,098
-612,503	-200,000	-0,015	0,071
-611,488	71,913	0,081	0,062
-610,474	-200,000	-0,006	0,152
-609,459	5,868	0,089	0,048
-608,444	395,941	-0,018	0,027
-607,430	649,771	-0,055	-0,103
-606,415	639,274	0,089	-0,166
-605,401	-152,496	0,166	0,009
-604,386	-55,780	0,077	-0,025
-603,371	-200,000	-0,015	-0,104
-602,357	-88,144	-0,044	-0,010
-601,342	800,000	-0,040	-0,128
-600,328	1,712	-0,074	-0,039
-599,313	156,910	0,050	0,051
-598,298	93,964	-0,109	-0,091
-597,284	362,791	-0,040	-0,059
-596,269	-63,959	0,089	-0,026
-595,255	-200,000	-0,005	0,058
-594,240	800,000	0,081	-0,191
-593,225	245,060	0,105	-0,129
-592,211	210,470	-0,114	-0,131
-591,196	259,657	0,113	0,142
-590,182	-200,000	0,030	-0,122
-589,167	800,000	-0,039	-0,125
-588,152	-97,275	-0,033	0,006
-587,138	284,409	0,055	0,073
-586,123	486,769	0,061	-0,102
-585,109	800,000	-0,049	-0,144
-584,094	341,913	-0,044	-0,063
-583,079	119,685	0,111	-0,101
-582,065	-200,000	0,009	-0,043
-581,050	-200,000	0,003	-0,063
-580,036	800,000	0,031	0,079
-579,021	-200,000	-0,009	-0,111
-578,006	541,703	-0,047	-0,083
-576,992	459,484	0,076	-0,124
-575,977	47,639	-0,050	-0,034
-574,963	-200,000	0,004	0,108
-573,948	476,984	0,037	-0,061
-572,934	7,336	0,014	-0,008
-571,919	-103,632	-0,082	0,014
-570,904	184,516	0,055	-0,060
-569,890	-30,392	0,181	-0,075
-568,875	800,000	-0,010	-0,023
-567,861	800,000	0,025	-0,054
-566,846	-200,000	-0,003	-0,071
-565,831	-200,000	-0,006	-0,073
-564,817	800,000	0,062	-0,158
-563,802	-0,837	-0,123	-0,063
-562,788	61,606	0,048	-0,035
-561,773	-200,000	-0,003	-0,144
-560,758	-200,000	-0,002	-0,150
-559,744	47,574	0,085	0,058
-558,729	-200,000	0,000	0,082
-557,715	-150,059	0,108	0,006
-556,700	-166,224	-0,053	-0,002
-555,685	100,541	-0,005	-0,004
-554,671	800,000	-0,015	0,035
-553,656	-200,000	0,014	0,071
-552,642	758,946	-0,035	0,070
-551,627	138,772	-0,032	0,031
-550,612	44,315	-0,076	-0,051
-549,598	313,834	-0,129	-0,178
-548,583	82,901	-0,078	0,062
-547,569	-174,414	0,026	0,001
-546,554	-49,117	0,114	0,040
-545,539	337,894	-0,049	0,070
-544,525	291,693	0,067	-0,090
-543,510	-200,000	0,012	-0,049
-542,496	-62,104	-0,147	-0,044
-541,481	-114,208	-0,033	-0,005
-540,466	-121,405	0,164	0,020
-539,452	189,706	0,051	-0,056
-538,437	27,547	0,094	0,058
-537,423	133,982	0,104	0,099
-536,408	800,000	0,013	0,043
-535,393	-46,173	-0,081	0,029
-534,379	575,893	0,067	-0,119
-533,364	314,910	0,060	0,082
-532,350	-200,000	-0,061	0,000
-531,335	602,210	0,038	0,070
-530,321	-115,807	0,038	-0,005
-529,306	39,702	-0,176	0,115
-528,291	-200,000	-0,003	-0,028
-527,277	-47,068	-0,052	-0,018
-526,262	242,316	-0,084	0,103
-525,248	-200,000	0,022	0,155
-524,233	800,000	-0,051	0,151
-523,218	800,000	0,024	0,065
-522,204	-97,234	0,201	0,038
-521,189	800,000	-0,024	0,076
-520,175	-17,385	-0,032	0,015
-519,160	72,638	0,039	-0,029
-518,145	27,582	0,099	0,061
-517,131	-21,556	0,108	0,048
-516,116	-200,000	0,003	-0,101
-515,102	25,916	-0,065	-0,039
-514,087	175,598	-0,027	-0,029
-513,072	-200,000	-0,020	-0,071
-512,058	-191,222	-0,182	0,001
-511,043	800,000	0,019	-0,062
-510,029	-107,075	0,116	-0,018
-509,014	485,997	-0,109	-0,181
-507,999	800,000	0,032	0,077
-506,985	42,620	-0,101	-0,067
-505,970	-97,485	0,053	-0,010
-504,956	-67,611	-0,131	-0,037
-503,941	-57,468	-0,118	0,038
-502,926	-190,736	0,115	0,001
-501,912	-200,000	-0,018	0,081
-500,897	800,000	0,044	-0,133
-499,883	153,358	-0,024	-0,024
-498,868	11,252	-0,099	0,055
-497,853	-200,000	0,006	-0,107
-496,839	2,685	0,047	-0,025
-495,824	-200,000	-0,002	-0,018
-494,810	-200,000	-0,046	0,239
-493,795	-160,697	-0,123	0,005
-492,781	800,000	-0,021	0,044
-491,766	302,363	0,076	-0,102
-490,751	408,385	-0,096	-0,148
-489,737	-200,000	-0,002	0,043
-488,722	-200,000	-0,009	-0,070
-487,708	36,444	0,084	-0,054
-486,693	379,210	0,048	-0,071
-485,678	800,000	0,018	-0,054
-484,664	-173,886	-0,164	-0,003
-483,649	-200,000	-0,053	-0,185
-482,635	110,487	0,038	0,033
-481,620	-18,610	0,032	0,014
-480,605	85,984	0,116	0,093
-479,591	-112,033	0,136	-0,020
-478,576	49,296	0,054	-0,037
-477,562	-2,693	-0,131	-0,066
-476,547	-200,000	-0,006	-0,048
-475,532	407,784	0,013	-0,021
-474,518	14,052	0,058	-0,033
-473,503	-200,000	-0,002	0,131
-472,489	-200,000	-0,009	0,036
-471,474	800,000	-0,034	-0,077
-470,459	-200,000	0,003	0,037
-469,445	-200,000	0,001	0,076
-468,430	218,355	-0,062	-0,072
-467,416	-200,000	0,024	-0,095
-466,401	-200,000	0,022	0,149
-465,386	581,390	-0,016	0,028
-464,372	396,355	-0,035	-0,053
-463,357	-200,000	0,007	-0,084
-462,343	800,000	-0,051	0,149
-461,328	-37,963	-0,071	-0,027
-460,313	61,947	0,083	0,060
-459,299	-200,000	-0,010	-0,091
-458,284	69,043	0,029	0,022
-457,270	-200,000	0,032	-0,166
-456,255	7,018	0,086	-0,047
-455,241	-172,009	-0,046	-0,001
-454,226	800,000	-0,028	-0,089
-453,211	174,648	-0,090	-0,095
-452,197	-200,000	-0,015	-0,117
-451,182	800,000	0,052	0,142
-450,168	201,410	-0,061	0,069
-449,153	141,697	-0,089	0,086
-448,138	-142,893	-0,121	0,008
-447,124	239,704	0,026	0,031
-446,109	-200,000	0,013	0,120
-445,095	-200,000	0,023	-0,088
-444,080	-200,000	0,004	0,078
-443,065	-200,000	-0,043	0,140
-442,051	336,899	-0,020	0,029
-441,036	-75,258	-0,120	0,031
-440,022	-82,874	-0,112	0,026
-439,007	423,999	0,020	-0,031
-437,992	308,257	0,014	0,020
-436,978	-200,000	-0,021	0,125
-435,963	-200,000	0,028	-0,093
-434,949	624,252	-0,007	-0,013
-433,934	-200,000	-0,014	-0,057
-432,919	327,381	0,029	0,040
-431,905	84,523	0,079	-0,063
-430,890	-91,912	-0,141	-0,029
-429,876	319,530	0,085	-0,117
-428,861	-7,414	0,046	-0,023
-427,846	232,579	-0,066	0,079
-426,832	150,242	-0,133	-0,131
-425,817	-200,000	0,004	0,034
-424,803	-62,113	0,107	0,032
-423,788	231,568	-0,058	0,069
-422,773	-99,331	0,143	-0,026
-421,759	285,860	-0,056	0,074
-420,744	-200,000	0,010	0,200
-419,730	-60,064	-0,124	-0,038
-418,715	-200,000	-0,004	-0,184
-417,701	-81,133	0,155	0,037
-416,686	62,474	0,042	-0,030
-415,671	31,706	-0,019	-0,012
-414,657	-50,389	0,018	0,006
-413,642	-64,675	-0,082	0,024
-412,628	-122,047	0,099	0,012
-411,613	800,000	-0,032	-0,080
-410,598	-94,301	-0,195	0,038
-409,584	645,944	0,073	0,135
-408,569	25,682	-0,026	0,016
-407,555	329,880	0,086	0,120
-406,540	-57,273	-0,098	0,031
-405,525	225,060	0,086	0,101
-404,511	-131,786	-0,043	0,004
-403,496	-100,420	-0,093	0,017
-402,482	-199,091	0,036	0,000
-401,467	82,337	-0,082	0,064
-400,452	37,840	0,038	-0,025
-399,438	-200,000	0,020	0,103
-398,423	1,827	-0,091	0,047
-397,409	-51,800	-0,175	-0,059
-396,394	-130,595	0,102	0,010
-395,379	800,000	0,064	0,140
-394,365	248,159	0,053	0,066
-393,350	-63,069	0,015	0,004
-392,336	-6,584	-0,041	-0,020
-391,321	348,813	-0,004	0,005
-390,306	800,000	-0,010	0,028
-389,292	-133,975	0,032	-0,003
-388,277	-75,410	0,050	0,013
-387,263	-200,000	-0,015	0,087
-386,248	-200,000	-0,000	0,094
-385,233	135,507	-0,079	0,075
-384,219	-64,017	0,042	-0,012
-383,204	-121,186	-0,034	0,004
-382,190	-104,296	-0,106	-0,018
-381,175	-17,564	0,091	-0,041
-380,160	-56,494	-0,094	0,030
-379,146	278,799	0,032	0,042
-378,131	-200,000	0,007	0,067
-377,117	-31,734	-0,065	0,026
-376,102	633,726	0,053	-0,098
-375,088	-200,000	-0,010	-0,080
-374,073	-200,000	0,009	-0,190
-373,058	88,295	0,067	0,054
-372,044	109,761	0,032	0,028
-371,029	800,000	0,034	-0,088
-370,015	-127,659	-0,144	0,015
-369,000	-141,042	-0,028	0,002
-367,985	-82,324	-0,096	0,022
-366,971	-95,452	0,083	0,016
-365,956	16,119	-0,061	-0,035
-364,942	177,961	0,084	-0,089
-363,927	-83,860	-0,062	0,014
-362,912	-93,459	0,118	-0,023
-361,898	88,319	-0,060	0,048
-360,883	-156,347	-0,058	0,003
-359,869	14,834	0,020	-0,012
-358,854	170,503	-0,126	0,131
-357,839	-34,935	0,171	0,067
-356,825	98,935	0,024	0,020
-355,810	800,000	-0,060	0,136
-354,796	43,440	0,099	0,066
-353,781	116,920	-0,057	-0,051
-352,766	-79,251	-0,099	0,024
-351,752	-200,000	0,018	-0,108
-350,737	197,827	0,087	0,096
-349,723	-200,000	-0,024	0,086
-348,708	412,940	0,091	0,140
-347,693	-7,131	-0,066	-0,032
-346,679	240,805	0,098	-0,119
-345,664	360,580	-0,089	-0,130
-344,650	61,095	-0,058	0,042
-343,635	154,532	0,047	-0,046
-342,620	-138,507	-0,072	0,006
-341,606	-112,270	0,020	0,003
-340,591	-200,000	0,065	0,238
-339,577	-24,606	0,151	0,065
-338,562	230,272	0,077	-0,092
-337,548	-200,000	0,004	0,060
-336,533	800,000	-0,024	-0,066
-335,518	-200,000	-0,006	0,027
-334,504	-32,760	0,046	0,018
-333,489	-200,000	0,013	-0,048
-332,475	-134,435	-0,090	0,008
-331,460	-176,883	-0,089	-0,002
-330,445	153,759	-0,090	-0,089
-329,431	217,232	0,048	0,056
-328,416	-200,000	-0,023	0,135
-327,402	-200,000	0,018	0,108
-326,387	115,605	0,088	-0,078
-325,372	-16,523	0,128	-0,058
-324,358	800,000	-0,051	-0,113
-323,343	-97,810	-0,094	-0,017
-322,329	28,751	0,101	-0,062
-321,314	-100,958	0,023	-0,004
-320,299	-65,400	-0,089	0,026
-319,285	-70,789	0,131	-0,036
-318,270	453,361	-0,088	-0,141
-317,256	-200,000	0,008	-0,069
-316,241	218,728	-0,020	0,023
-315,226	-101,507	-0,081	-0,014
-314,212	68,400	0,116	0,086
-313,197	377,717	-0,061	0,091
-312,183	386,296	-0,095	-0,142
-311,168	-33,245	-0,010	-0,004
-310,153	323,107	0,059	-0,082
-309,139	800,000	0,029	-0,070
-308,124	-50,251	0,081	0,028
-307,110	214,418	0,048	-0,055
-306,095	-200,000	-0,031	0,181
-305,080	298,382	-0,092	0,123
-304,066	-181,549	0,071	-0,001
-303,051	-3,803	-0,065	0,032
-302,037	-79,657	-0,124	0,030
-301,022	-200,000	0,011	-0,049
-300,008	-169,995	0,094	-0,002
-298,993	-126,636	-0,096	0,010
-297,978	800,000	0,046	0,138
-296,964	-173,106	-0,066	0,001
-295,949	800,000	-0,024	0,052
-294,935	85,750	-0,033	-0,026
-293,920	800,000	0,039	-0,100
-292,905	104,707	-0,012	0,010
-291,891	364,445	-0,072	0,105
-290,876	-200,000	0,012	0,046
-289,862	-200,000	-0,014	0,055
-288,847	-46,951	0,122	-0,043
-287,832	-103,444	0,127	0,021
-286,818	800,000	-0,024	0,054
-285,803	205,914	-0,017	-0,019
-284,789	800,000	0,051	0,108
-283,774	-200,000	0,004	-0,020
-282,759	800,000	-0,011	-0,032
-281,745	244,301	-0,017	0,021
-280,730	-200,000	-0,018	0,140
-279,716	-200,000	0,016	0,075
-278,701	-200,000	0,008	0,184
-277,686	117,857	0,054	0,048
-276,672	-200,000	0,004	0,108
-275,657	-200,000	-0,017	0,066
-274,643	309,513	-0,041	0,055
-273,628	271,968	0,034	-0,043
-272,613	-111,372	0,061	-0,009
-271,599	-200,000	-0,029	0,101
-270,584	-191,503	0,142	0,001
-269,570	-200,000	-0,011	0,092
-268,555	-80,756	0,083	-0,020
-267,540	-127,226	0,128	-0,013
-266,526	56,885	-0,064	0,045
-265,511	171,202	-0,011	0,012
-264,497	-99,525	-0,050	-0,009
-263,482	-85,040	-0,123	0,028
-262,467	16,205	-0,160	0,091
-261,453	72,261	-0,015	0,011
-260,438	-19,776	0,113	-0,050
-259,424	800,000	-0,070	-0,170
-258,409	-200,000	-0,046	-0,174
-257,395	42,482	0,085	-0,056
-256,380	323,097	-0,034	0,046
-255,365	-179,442	0,035	0,001
-254,351	58,109	-0,056	0,040
-253,336	-122,817	-0,027	0,003
-252,322	-200,000	-0,026	-0,137
-251,307	-149,616	0,035	-0,002
-250,292	-200,000	0,005	-0,169
-249,278	800,000	-0,022	0,057
-248,263	47,225	-0,062	-0,042
-247,249	-49,700	-0,036	-0,012
-246,234	-141,207	-0,190	-0,014
-245,219	800,000	-0,009	-0,024
-244,205	219,330	-0,079	-0,092
-243,190	-138,258	0,051	-0,004
-242,176	800,000	0,073	0,185
-241,161	-200,000	-0,038	0,140
-240,146	31,732	0,101	0,063
-239,132	-130,965	0,058	-0,006
-238,117	-79,327	-0,118	-0,028
-237,103	800,000	0,023	-0,072
-236,088	-69,353	0,102	-0,028
-235,073	-106,085	0,049	-0,008
-234,059	405,630	-0,035	0,054
-233,044	-200,000	0,024	0,089
-232,030	-64,556	-0,129	0,038
-231,015	-200,000	-0,007	-0,154
-230,000	-81,849	0,039	-0,009
-228,986	116,585	-0,027	-0,024
-227,971	66,323	-0,020	0,014
-226,957	97,835	-0,054	0,044
-225,942	283,100	0,042	-0,055
-224,927	196,987	-0,083	-0,092
-223,913	-200,000	0,015	-0,074
-222,898	336,508	0,065	-0,091
-221,884	-73,077	0,020	0,005
-220,869	-200,000	-0,008	-0,119
-219,855	-118,666	0,117	-0,015
-218,840	800,000	0,026	0,076
-217,825	-168,264	0,104	0,003
-216,811	-200,000	-0,007	-0,182
-215,796	-119,641	-0,268	0,033
-214,782	405,065	0,026	0,040
-213,767	-200,000	-0,027	0,100
-212,752	-200,000	0,017	0,137
-211,738	-200,000	0,014	0,084
-210,723	-200,000	0,001	-0,049
-209,709	800,000	-0,052	0,126
-208,694	127,206	0,129	-0,118
-207,679	-200,000	-0,003	-0,066
-206,665	74,155	0,052	0,039
-205,650	225,311	0,078	0,091
-204,636	78,982	-0,033	-0,026
-203,621	-98,388	0,095	0,017
-202,606	-200,000	0,003	0,055
-201,592	53,815	-0,060	0,042
-200,577	-200,000	0,017	-0,103
-199,563	448,023	0,020	-0,031
-198,548	330,361	0,018	-0,025
-197,533	-115,239	0,074	0,010
-196,519	240,539	0,072	0,087
-195,504	497,807	0,048	-0,080
-194,490	-173,811	-0,093	0,002
-193,475	-200,000	-0,014	-0,050
-192,460	-125,946	0,106	-0,011
-191,446	-200,000	0,027	0,180
-190,431	-200,000	-0,057	-0,000
-189,417	-148,624	-0,141	0,008
-188,402	-58,769	-0,051	-0,016
-187,387	107,858	-0,015	-0,013
-186,373	-200,000	0,001	-0,036
-185,358	94,167	0,045	-0,037
-184,344	-19,279	0,032	0,014
-183,329	-200,000	-0,007	0,138
-182,315	-133,797	0,145	0,013
-181,300	800,000	0,080	0,190
-180,285	756,415	-0,075	0,147
-179,271	-200,000	-0,022	-0,123
-178,256	-200,000	-0,020	-0,071
-177,242	-163,635	0,236	-0,008
-176,227	-25,977	0,043	0,018
-175,212	235,247	-0,079	0,093
-174,198	-155,501	0,073	-0,003
-173,183	-34,707	0,139	-0,054
-172,169	800,000	-0,040	0,094
-171,154	-200,000	-0,010	0,092
-170,139	-200,000	0,032	0,108
-169,125	231,928	0,028	-0,033
-168,110	155,044	-0,054	-0,054
-167,096	-140,538	0,059	0,004
-166,081	-30,202	-0,113	0,046
-165,066	-200,000	-0,000	0,020
-164,052	465,269	-0,033	0,054
-163,037	-27,939	0,078	0,032
-162,023	-113,124	-0,059	0,008
-161,008	-107,775	0,157	0,024
-159,993	-71,361	-0,174	-0,047
-158,979	131,878	-0,109	-0,101
-157,964	-200,000	-0,017	-0,148
-156,950	723,206	0,027	0,053
-155,935	-200,000	0,006	-0,026
-154,920	-200,000	0,021	0,087
-153,906	82,468	-0,035	-0,027
-152,891	-200,000	-0,049	0,161
-151,877	-200,000	0,018	-0,107
-150,862	-119,756	-0,110	-0,013
-149,847	170,997	0,059	-0,061
-148,833	-200,000	-0,021	-0,088
-147,818	-200,000	-0,001	-0,152
-146,804	72,225	0,065	0,049
-145,789	635,287	-0,052	0,095
-144,775	-11,447	-0,066	-0,031
-143,760	-200,000	0,009	-0,042
-142,745	120,157	-0,063	-0,056
-141,731	800,000	0,063	-0,155
-140,716	800,000	0,008	0,021
-139,702	290,538	0,109	0,142
-138,687	506,561	-0,065	0,109
-137,672	-113,644	-0,031	-0,004
-136,658	16,239	0,030	-0,017
-135,643	800,000	0,042	-0,090
-134,629	-200,000	-0,040	-0,145
-133,614	800,000	0,044	-0,102
-132,599	-76,633	0,080	-0,020
-131,585	-200,000	-0,003	0,030
-130,570	-200,000	-0,040	-0,143
-129,556	800,000	-0,050	-0,124
-128,541	-200,000	-0,003	-0,092
-127,526	14,801	0,097	-0,054
-126,512	-85,312	-0,051	-0,011
-125,497	-200,000	0,002	0,181
-124,483	-200,000	0,001	-0,030
-123,468	22,923	-0,077	-0,045
-122,453	-86,386	0,124	0,027
-121,439	-200,000	-0,031	-0,115
-120,424	483,454	-0,014	-0,022
-119,410	155,558	-0,011	0,011
-118,395	-200,000	-0,004	0,054
-117,380	-31,523	0,034	0,014
-116,366	-200,000	0,004	-0,186
-115,351	-200,000	-0,003	-0,151
-114,337	296,316	-0,123	-0,162
-113,322	218,589	0,110	-0,126
-112,307	332,358	-0,073	0,102
-111,293	293,241	0,057	0,075
-110,278	-200,000	0,016	-0,094
-109,264	-200,000	0,011	-0,124
-108,249	-200,000	-0,006	-0,032
-107,234	-89,235	0,071	0,015
-106,220	800,000	0,047	-0,098
-105,205	563,742	-0,026	-0,045
-104,191	128,265	0,077	0,070
-103,176	-200,000	0,007	0,054
-102,162	-200,000	0,006	-0,141
-101,147	-200,000	0,006	-0,035
-100,132	-15,658	-0,019	-0,009
-99,118	53,886	-0,091	-0,063
-98,103	4,229	0,081	-0,043
-97,089	86,212	0,134	-0,106
-96,074	215,365	-0,008	0,009
-95,059	-68,517	-0,166	0,046
-94,045	170,318	0,033	0,034
-93,030	-200,000	-0,043	-0,184
-92,016	800,000	-0,060	-0,164
-91,001	-75,846	-0,099	0,025
-89,986	11,704	0,051	-0,028
-88,972	271,079	-0,088	0,112
-87,957	250,733	0,053	-0,064
-86,943	-154,287	-0,021	0,001
-85,928	57,797	-0,115	-0,081
-84,913	-200,000	0,030	-0,107
-83,899	231,142	-0,044	-0,052
-82,884	484,512	0,008	0,013
-81,870	203,683	-0,104	0,116
-80,855	-200,000	0,020	0,110
-79,840	155,876	-0,084	0,083
-78,826	-200,000	0,009	-0,175
-77,811	105,601	-0,125	-0,105
-76,797	800,000	0,035	0,083
-75,782	-200,000	-0,001	-0,088
-74,767	370,126	-0,005	0,008
-73,753	-1,684	-0,112	-0,056
-72,738	800,000	-0,029	-0,068
-71,724	7,334	0,101	0,054
-70,709	435,002	-0,035	-0,055
-69,694	-159,013	-0,095	0,004
-68,680	-200,000	0,017	-0,101
-67,665	-82,608	0,131	0,030
-66,651	-200,000	-0,005	0,068
-65,636	297,232	-0,051	-0,067
-64,622	287,141	0,037	-0,048
-63,607	17,458	-0,126	-0,072
-62,592	-11,986	-0,070	-0,033
-61,578	800,000	-0,070	-0,155
-60,563	-5,553	0,062	-0,030
-59,549	-49,642	-0,017	0,006
-58,534	28,623	-2,024	-1,224
-57,519	-200,000	-0,141	-0,761
-56,505	-200,000	-1,354	-5,050
-55,490	117,126	0,808	0,711
-54,476	800,000	5,433	12,017
-53,461	-200,000	18,236	294,794
-52,446	800,000	730,282	2222,447
-51,432	524,012	1642,942	2776,498
-50,417	107,565	1631,723	1390,016
-49,403	71,799	1283,624	954,445
-48,388	30,533	1024,820	625,951
-47,373	20,039	987,109	568,447
-46,359	18,044	974,603	554,715
-45,344	14,722	970,893	541,756
-44,330	15,048	969,249	541,880
-43,315	14,481	967,426	538,996
-42,300	14,396	966,401	538,126
-41,286	14,419	965,440	537,645
-40,271	14,394	964,494	537,017
-39,257	14,432	963,518	536,573
-38,242	14,414	962,865	536,131
-37,227	14,426	961,895	535,608
-36,213	14,416	961,067	535,092
-35,198	14,499	959,913	534,697
-34,184	14,486	959,270	534,275
-33,169	14,377	958,492	533,470
-32,154	14,457	957,259	533,020
-31,140	14,418	956,735	532,581
-30,125	14,521	955,781	532,360
-29,111	14,461	954,842	531,625
-28,096	14,453	954,492	531,382
-27,082	14,512	953,622	531,067
-26,067	14,503	952,860	530,591
-25,052	14,410	952,187	529,898
-24,038	14,442	951,641	529,677
-23,023	14,397	950,978	529,142
-22,009	14,439	950,279	528,866
-20,994	14,470	949,792	528,674
-19,979	14,444	948,996	528,125
-18,965	14,445	948,292	527,715
-17,950	14,417	947,910	527,396
-16,936	14,456	947,034	527,010
-15,921	14,440	946,417	526,594
-14,906	14,310	945,703	525,762
-13,892	14,375	945,005	525,562
-12,877	14,333	944,400	525,069
-11,863	14,269	944,075	524,667
-10,848	14,333	943,266	524,399
-9,833	14,393	942,868	524,347
-8,819	14,418	942,125	523,992
-7,804	14,369	941,595	523,521
-6,790	14,353	941,004	523,122
-5,775	14,394	940,447	522,920
-4,760	14,366	939,649	522,367
-3,746	14,382	939,223	522,158
-2,731	14,133	938,703	521,064
-1,717	14,099	937,966	520,529
-0,702	14,207	937,111	520,372
0,313	13,992	936,565	520,179
1,327	17,554	934,412	530,110
2,342	26,733	787,079	470,581
3,356	23,060	442,816	259,320
4,371	-6,352	295,095	143,500
5,386	-10,156	276,930	131,059
6,400	-11,489	271,226	127,113
7,415	-11,738	268,815	125,743
8,429	-11,832	267,258	124,917
9,444	-11,909	266,512	124,488
10,459	-11,881	265,709	124,127
11,473	-12,195	265,167	123,578
12,488	-12,312	264,632	123,212
13,502	-12,499	263,966	122,723
14,517	-12,416	263,624	122,627
15,531	-12,386	263,175	122,434
16,546	-12,400	262,800	122,237
17,561	-12,610	262,485	121,891
18,575	-12,380	262,075	121,895
19,590	-12,373	261,593	121,667
20,604	-12,481	261,580	121,553
21,619	-12,610	261,206	121,254
22,634	-12,462	260,676	121,128
23,648	-12,641	260,394	120,827
24,663	-12,351	260,111	120,943
25,677	-12,567	259,921	120,652
26,692	-12,278	259,659	120,776
27,707	-12,480	259,457	120,493
28,721	-12,631	259,157	120,208
29,736	-12,606	258,958	120,128
30,750	-12,588	258,635	119,983
31,765	-12,401	258,343	120,002
32,780	-12,606	258,099	119,697
33,794	-12,497	257,933	119,706
34,809	-12,647	257,699	119,455
35,823	-12,836	257,487	119,180
36,838	-12,637	257,184	119,203
37,853	-12,619	256,855	119,055
38,867	-12,675	256,613	118,884
39,882	-12,570	256,354	118,845
40,896	-12,647	256,274	118,731
41,911	-12,689	255,879	118,500
42,926	-12,752	255,730	118,366
43,940	-12,693	255,438	118,271
44,955	-12,734	255,231	118,129
45,969	-12,731	254,918	117,977
46,984	-12,893	254,748	117,747
47,999	-12,918	254,317	117,515
49,013	-12,994	254,128	117,352
50,028	-13,273	254,057	117,067
51,042	-13,299	253,659	116,851
52,057	-13,305	253,539	116,780
53,071	-13,287	253,233	116,644
54,086	-13,267	253,174	116,624
55,101	-13,137	252,988	116,640
56,115	-12,922	252,833	116,743
57,130	-12,546	252,716	117,002
58,144	-12,393	252,610	117,074
59,159	-12,350	252,390	116,999
60,174	-12,395	252,203	116,863
61,188	-12,356	251,760	116,681
62,203	-12,536	251,665	116,472
63,217	-12,387	251,476	116,501
64,232	-12,308	251,122	116,395
65,247	-12,257	251,015	116,378
66,261	-12,577	250,844	116,015
67,276	-12,681	250,456	115,737
68,290	-12,797	250,246	115,531
69,305	-12,900	249,969	115,305
70,320	-12,717	249,795	115,370
71,334	-12,509	249,694	115,490
72,349	-12,487	249,571	115,441
73,363	-12,316	249,375	115,485
74,378	-12,407	248,986	115,217
75,393	-12,573	249,004	115,075
76,407	-12,431	248,761	115,073
77,422	-12,355	248,455	114,985
78,436	-12,404	248,243	114,835
79,451	-12,492	248,001	114,639
80,466	-12,505	247,768	114,510
81,480	-12,564	247,425	114,292
82,495	-12,740	247,318	114,085
83,509	-12,638	247,266	114,136
84,524	-12,630	246,930	113,977
85,539	-12,952	246,884	113,677
86,553	-12,701	246,575	113,734
87,568	-12,742	246,361	113,591
88,582	-12,653	246,186	113,574
89,597	-12,600	246,082	113,560
90,611	-12,784	245,951	113,336
91,626	-12,596	245,809	113,418
92,641	-12,678	245,479	113,186
93,655	-12,523	245,288	113,217
94,670	-12,650	245,261	113,089
95,684	-12,576	244,907	112,978
96,699	-12,494	244,733	112,955
97,714	-12,570	244,596	112,819
98,728	-12,596	244,217	112,613
99,743	-12,702	244,102	112,461
100,757	-12,853	243,812	112,193
101,772	-12,660	243,759	112,318
102,787	-12,512	243,438	112,283
103,801	-12,604	243,305	112,135
104,816	-12,558	243,321	112,171
105,830	-12,394	243,125	112,205
106,845	-12,667	243,110	111,963
107,860	-12,576	242,878	111,922
108,874	-12,655	242,509	111,677
109,889	-12,657	242,394	111,612
110,903	-12,698	242,213	111,485
111,918	-12,692	242,037	111,399
112,933	-12,555	241,776	111,381
113,947	-12,432	241,562	111,373
114,962	-12,439	241,513	111,335
115,976	-12,556	241,223	111,096
116,991	-12,465	240,985	111,051
118,006	-12,596	240,971	110,928
119,020	-12,591	240,824	110,854
120,035	-12,503	240,699	110,858
121,049	-12,394	240,461	110,827
122,064	-12,378	240,187	110,705
123,079	-12,419	240,062	110,603
124,093	-12,782	239,908	110,228
125,108	-12,708	239,473	110,078
126,122	-13,014	239,414	109,793
127,137	-13,100	239,267	109,647
128,151	-12,820	238,963	109,724
129,166	-12,713	238,866	109,756
130,181	-12,650	238,621	109,684
131,195	-12,768	238,414	109,485
132,210	-12,696	238,490	109,568
133,224	-12,478	238,231	109,614
134,239	-12,512	237,966	109,456
135,254	-12,457	237,869	109,445
136,268	-12,641	237,753	109,234
137,283	-12,803	237,321	108,896
138,297	-13,008	237,143	108,640
139,312	-13,075	236,961	108,494
140,327	-12,634	236,875	108,798
141,341	-12,171	236,796	109,122
142,356	-12,235	236,750	109,040
143,370	-12,149	236,570	109,016
144,385	-12,150	236,285	108,874
145,400	-12,216	236,232	108,787
146,414	-12,149	236,024	108,735
147,429	-12,431	235,800	108,398
148,443	-12,323	235,686	108,422
149,458	-12,448	235,552	108,251
150,473	-12,407	235,361	108,186
151,487	-12,425	235,145	108,063
152,502	-12,360	235,020	108,048
153,516	-12,278	234,874	108,036
154,531	-12,389	234,616	107,819
155,546	-12,303	234,406	107,781
156,560	-12,318	234,175	107,654
157,575	-12,507	234,100	107,460
158,589	-12,321	233,937	107,523
159,604	-12,288	233,862	107,505
160,619	-12,065	233,799	107,642
161,633	-12,001	233,417	107,507
162,648	-12,199	233,488	107,374
163,662	-12,394	233,242	107,098
164,677	-12,303	232,955	107,028
165,692	-12,216	232,758	106,996
166,706	-12,256	232,626	106,895
167,721	-11,896	232,454	107,088
168,735	-11,961	232,461	107,031
169,750	-12,356	232,367	106,669
170,764	-12,294	232,138	106,603
171,779	-12,046	231,937	106,695
172,794	-12,208	231,752	106,474
173,808	-12,445	231,580	106,200
174,823	-12,741	231,375	105,866
175,837	-13,195	231,250	105,446
176,852	-12,349	231,095	106,024
177,867	-12,344	231,005	105,977
178,881	-12,164	230,772	106,001
179,896	-12,336	230,695	105,823
180,910	-12,053	230,509	105,947
181,925	-12,177	230,451	105,815
182,940	-12,257	230,369	105,706
183,954	-12,165	230,080	105,635
184,969	-12,132	229,962	105,597
185,983	-11,977	229,778	105,623
186,998	-11,985	229,673	105,559
188,013	-11,829	229,393	105,541
189,027	-12,067	229,385	105,344
190,042	-12,043	229,024	105,188
191,056	-12,033	229,090	105,216
192,071	-11,971	228,914	105,174
193,086	-11,929	228,659	105,080
194,100	-11,950	228,637	105,044
195,115	-12,018	228,363	104,857
196,129	-11,887	228,461	104,993
197,144	-7,575	229,672	108,866
198,159	-2,753	230,869	113,154
199,173	0,709	232,155	116,460
200,188	1,264	232,137	116,870
201,202	0,995	232,085	116,626
202,217	0,934	231,808	116,429
203,232	1,173	231,629	116,514
204,246	1,372	231,497	116,590
205,261	1,662	231,300	116,705
206,275	1,816	231,211	116,768
207,290	1,772	231,142	116,688
208,304	1,852	230,899	116,617
209,319	1,768	230,734	116,458
210,334	1,636	230,613	116,285
211,348	1,558	230,359	116,087
212,363	1,187	230,009	115,616
213,377	1,317	230,031	115,716
214,392	1,176	229,884	115,525
215,407	1,038	229,878	115,405
216,421	1,272	229,656	115,463
217,436	1,118	229,431	115,221
218,450	1,080	229,207	115,070
219,465	0,929	229,010	114,846
220,480	0,899	228,957	114,786
221,494	1,065	228,863	114,855
222,509	1,312	228,703	114,953
223,523	1,576	228,561	115,071
224,538	1,178	228,312	114,633
225,553	1,180	228,265	114,601
226,567	0,893	228,186	114,333
227,582	1,218	228,092	114,523
228,596	1,628	227,899	114,727
229,611	1,348	227,589	114,349
230,626	0,945	227,519	113,998
231,640	1,170	227,309	114,053
232,655	1,392	227,319	114,216
233,669	1,627	227,207	114,326
234,684	1,652	227,070	114,266
235,699	1,664	226,822	114,140
236,713	1,281	226,667	113,763
237,728	1,227	226,445	113,601
238,742	1,056	226,186	113,333
239,757	1,176	226,225	113,432
240,772	1,151	225,886	113,233
241,786	1,149	225,916	113,237
242,801	1,316	225,888	113,338
243,815	2,030	225,703	113,770
244,830	1,607	225,521	113,352
245,844	1,144	225,360	112,914
246,859	1,235	225,053	112,818
247,874	1,370	225,049	112,907
248,888	1,686	224,838	113,027
249,903	1,600	224,531	112,798
250,917	1,153	224,645	112,512
251,932	1,344	224,301	112,473
252,947	0,952	224,124	112,082
253,961	1,028	223,938	112,035
254,976	1,166	223,918	112,118
255,990	1,372	223,905	112,254
257,005	1,423	223,747	112,203
258,020	1,363	223,574	112,061
259,034	1,359	223,460	111,991
260,049	1,371	223,378	111,949
261,063	1,224	223,305	111,794
262,078	1,456	223,230	111,918
263,093	1,751	223,019	112,021
264,107	1,507	222,764	111,703
265,122	1,636	222,674	111,743
266,136	1,674	222,625	111,736
267,151	1,763	222,363	111,660
268,166	1,310	222,050	111,159
269,180	1,150	221,910	110,962
270,195	1,194	221,765	110,912
271,209	1,145	221,680	110,824
272,224	1,258	221,493	110,803
273,239	1,639	221,324	110,988
274,253	1,476	221,141	110,767
275,268	1,061	221,042	110,404
276,282	1,086	220,787	110,285
277,297	0,816	220,692	110,030
278,312	1,127	220,758	110,280
279,326	1,125	220,633	110,207
280,341	1,384	220,359	110,249
281,355	1,473	220,235	110,242
282,370	1,607	220,161	110,293
283,384	1,169	219,874	109,820
284,399	0,992	219,636	109,563
285,414	0,927	219,615	109,496
286,428	1,011	219,706	109,592
287,443	1,502	219,401	109,787
288,457	1,488	219,284	109,708
289,472	1,379	219,071	109,513
290,487	0,920	218,799	109,035
291,501	0,799	218,554	108,816
292,516	0,928	218,595	108,920
293,530	1,000	218,433	108,881
294,545	0,887	218,359	108,753
295,560	1,309	218,267	109,002
296,574	1,285	218,174	108,929
297,589	1,323	217,966	108,842
298,603	1,366	217,769	108,765
299,618	1,286	217,774	108,701
300,633	1,518	217,561	108,751
301,647	1,573	217,613	108,807
302,662	1,566	217,475	108,723
303,676	1,660	217,197	108,643
304,691	1,658	217,022	108,543
305,706	1,617	216,899	108,443
306,720	1,702	216,691	108,391
307,735	1,289	216,505	107,992
308,749	1,245	216,458	107,928
309,764	1,608	216,450	108,173
310,779	1,372	216,279	107,910
311,793	1,216	216,042	107,670
312,808	1,156	216,008	107,601
313,822	1,453	215,756	107,678
314,837	1,488	215,631	107,631
315,852	1,134	215,421	107,265
316,866	1,556	215,346	107,518
317,881	1,642	215,292	107,542
318,895	1,390	215,159	107,287
319,910	1,129	214,876	106,951
320,925	0,863	214,622	106,627
321,939	0,714	214,433	106,418
322,954	1,106	214,564	106,751
323,968	1,500	214,501	106,990
324,983	1,638	214,454	107,054
325,997	1,712	214,242	106,991
327,012	1,619	214,123	106,856
328,027	1,585	213,913	106,718
329,041	1,728	213,895	106,800
330,056	1,576	213,652	106,562
331,070	1,132	213,325	106,077
332,085	0,818	213,272	105,821
333,100	1,341	213,174	106,131
334,114	1,621	213,072	106,267
335,129	1,747	212,852	106,236
336,143	1,510	212,653	105,961
337,158	1,459	212,585	105,882
338,173	1,550	212,499	105,893
339,187	1,015	212,414	105,467
340,202	1,230	212,060	105,433
341,216	1,287	211,927	105,396
342,231	1,368	211,811	105,386
343,246	1,305	211,804	105,329
344,260	1,151	211,686	105,153
345,275	1,240	211,616	105,172
346,289	1,440	211,397	105,193
347,304	1,609	211,321	105,263
348,319	1,943	211,222	105,436
349,333	1,690	211,030	105,155
350,348	1,437	211,058	104,984
351,362	1,980	210,872	105,260
352,377	1,647	210,704	104,935
353,392	1,647	210,530	104,840
354,406	1,574	210,401	104,715
355,421	197,383	1313,536	1392,386
356,435	157,842	1447,899	1392,345
