DTS Sentinel unit serial number:	SN410029Multiplexer serial number:	ORYXHardware model number:	OX2-SRSoftware version number:	ORYX F/W v4,00 Oryx Data Collector v3.7.2.0data status	okinstallation	B6 Nyhavnadifferential loss correction	single-endedforward channel	channel 2reverse channel	N/Adate	2023/12/10time	21:05:08forward acquisition time	300,00reverse acquisition time	0,00gamma	499,1914k internal	0,3123k external	0,3123temperature offset calibration	1,0000default loss term (dB/km)	0,3820temperature slope calibration	1,0000multiplexer offset coefficient	1,0000multiplexer slope coefficient	1,0000fibre end	0,00T internal ref (°C)	22,25T ext. ref 1 (°C)	5,94T ext. ref 2 (°C)	5,93length (m)	temperature (°C)	Stokes	anti-Stokes-744,400	-200,000	-0,028	-0,116
-743,385	-5,231	-0,259	0,132
-742,371	800,000	0,076	0,176
-741,356	90,853	-0,185	0,154
-740,342	-200,000	0,026	-0,114
-739,327	-61,652	-0,239	0,074
-738,312	800,000	-0,061	-0,159
-737,298	-69,004	-0,273	0,078
-736,283	-97,461	0,082	-0,016
-735,269	87,956	-0,163	0,135
-734,254	-48,124	0,013	0,005
-733,239	-1,536	-0,394	-0,206
-732,225	-191,869	0,208	-0,001
-731,210	800,000	0,070	0,186
-730,196	800,000	-0,039	0,085
-729,181	-200,000	0,001	0,021
-728,167	133,976	0,030	-0,029
-727,152	367,510	-0,082	0,123
-726,137	-49,993	-0,013	0,005
-725,123	-54,081	-0,164	-0,055
-724,108	24,368	-0,116	-0,071
-723,094	483,097	0,029	0,048
-722,079	539,245	-0,021	-0,038
-721,064	-133,473	0,096	0,009
-720,050	132,611	-0,045	0,043
-719,035	59,032	-0,099	-0,072
-718,021	-48,805	-0,051	0,018
-717,006	218,946	-0,118	-0,141
-715,991	-141,078	0,068	-0,005
-714,977	-92,579	-0,062	-0,013
-713,962	800,000	-0,027	-0,077
-712,948	308,180	-0,050	0,070
-711,933	-191,035	0,052	-0,000
-710,918	125,991	-0,025	-0,024
-709,904	-200,000	-0,005	-0,075
-708,889	300,267	-0,022	-0,030
-707,875	662,392	0,062	-0,119
-706,860	800,000	0,029	-0,091
-705,845	-137,799	-0,083	0,007
-704,831	582,045	0,054	0,099
-703,816	-200,000	0,015	0,072
-702,802	242,632	0,074	0,092
-701,787	151,234	-0,047	-0,048
-700,772	800,000	-0,029	-0,090
-699,758	800,000	0,030	-0,080
-698,743	23,243	-0,047	-0,029
-697,729	-154,191	-0,210	0,010
-696,714	71,938	0,058	-0,045
-695,699	-200,000	0,031	-0,117
-694,685	800,000	-0,049	-0,107
-693,670	-138,531	0,149	0,012
-692,656	681,093	-0,037	0,071
-691,641	800,000	0,034	0,103
-690,627	-40,928	0,039	-0,015
-689,612	-95,365	0,102	0,020
-688,597	93,051	0,023	0,019
-687,583	634,522	-0,043	0,082
-686,568	800,000	-0,030	-0,078
-685,554	39,858	-0,050	0,033
-684,539	800,000	0,044	-0,124
-683,524	-0,069	-0,093	0,049
-682,510	-80,309	0,020	0,005
-681,495	-200,000	0,002	-0,018
-680,481	201,746	-0,122	-0,140
-679,466	-200,000	-0,016	-0,166
-678,451	800,000	-0,019	-0,053
-677,437	28,892	-0,031	-0,019
-676,422	79,454	-0,037	0,029
-675,408	-124,507	0,097	-0,011
-674,393	111,215	0,016	-0,014
-673,378	710,458	-0,048	-0,096
-672,364	580,797	0,012	0,021
-671,349	-16,919	-0,160	-0,075
-670,335	800,000	-0,043	-0,130
-669,320	-10,538	0,078	0,038
-668,305	-136,619	0,112	0,009
-667,291	20,975	-0,085	0,051
-666,276	600,841	-0,021	0,040
-665,262	-200,000	0,011	-0,145
-664,247	-200,000	-0,024	0,139
-663,232	-200,000	0,009	-0,070
-662,218	255,724	0,035	0,045
-661,203	800,000	0,031	0,065
-660,189	282,881	0,038	-0,051
-659,174	800,000	-0,045	0,109
-658,159	-200,000	-0,031	-0,135
-657,145	-200,000	-0,037	-0,124
-656,130	-68,030	0,100	0,029
-655,116	53,579	0,034	0,024
-654,101	-200,000	-0,029	0,110
-653,086	-135,954	0,047	0,004
-652,072	800,000	0,043	-0,125
-651,057	69,856	-0,121	-0,093
-650,043	115,264	0,099	-0,090
-649,028	-99,139	-0,036	0,007
-648,014	293,989	0,061	0,083
-646,999	306,810	-0,069	-0,096
-645,984	58,665	0,084	0,061
-644,970	-200,000	-0,016	0,093
-643,955	-47,955	-0,144	0,051
-642,941	800,000	-0,033	0,091
-641,926	-7,834	-0,098	-0,049
-640,911	-200,000	-0,000	0,033
-639,897	-112,631	0,125	-0,018
-638,882	333,794	-0,041	0,059
-637,868	34,866	0,110	-0,071
-636,853	36,165	-0,097	-0,063
-635,838	-70,494	-0,095	-0,026
-634,824	-200,000	0,040	0,135
-633,809	290,155	0,063	0,086
-632,795	-29,555	0,099	0,042
-631,780	8,213	0,089	0,049
-630,765	-48,084	0,145	0,052
-629,751	-45,590	-0,126	-0,046
-628,736	-122,182	-0,084	0,010
-627,722	773,586	-0,051	0,104
-626,707	-48,012	0,062	-0,022
-625,692	-84,142	-0,033	0,008
-624,678	-200,000	0,012	0,128
-623,663	5,635	-0,149	-0,082
-622,649	-7,995	-0,153	0,076
-621,634	-200,000	0,004	-0,114
-620,619	615,587	-0,082	-0,154
-619,605	203,358	0,041	0,047
-618,590	89,755	0,049	-0,041
-617,576	83,601	0,044	-0,036
-616,561	-79,555	-0,040	-0,010
-615,546	-200,000	0,039	0,173
-614,532	-200,000	0,021	0,090
-613,517	110,255	0,068	-0,061
-612,503	16,148	-0,080	-0,046
-611,488	489,477	0,073	0,124
-610,474	-43,184	-0,049	0,018
-609,459	62,792	0,075	-0,056
-608,444	800,000	-0,044	-0,092
-607,430	423,636	-0,037	0,059
-606,415	655,712	-0,020	0,038
-605,401	286,548	0,008	-0,011
-604,386	-34,354	0,068	0,028
-603,371	-107,597	-0,118	0,019
-602,357	-146,889	-0,052	0,003
-601,342	800,000	-0,016	0,043
-600,328	-37,849	-0,003	-0,001
-599,313	-200,000	0,009	-0,104
-598,298	263,415	-0,069	-0,089
-597,284	22,266	0,106	-0,064
-596,269	800,000	-0,018	0,040
-595,255	-167,544	-0,033	0,001
-594,240	-170,606	-0,106	-0,003
-593,225	-28,728	-0,082	0,035
-592,211	-200,000	0,006	-0,087
-591,196	-200,000	0,031	-0,136
-590,182	332,132	0,071	0,102
-589,167	-51,522	-0,026	0,009
-588,152	756,937	-0,078	0,158
-587,138	-38,360	0,087	-0,034
-586,123	800,000	0,003	-0,008
-585,109	218,151	-0,076	-0,090
-584,094	-142,545	-0,107	-0,008
-583,079	343,430	-0,122	-0,177
-582,065	27,725	-0,050	0,031
-581,050	-200,000	0,004	0,090
-580,036	-121,161	0,051	0,006
-579,021	-200,000	0,017	-0,116
-578,006	-11,127	0,138	-0,067
-576,992	651,418	0,028	0,053
-575,977	-42,084	0,099	0,038
-574,963	-200,000	-0,013	0,136
-573,948	-153,238	0,171	-0,009
-572,934	-178,301	-0,082	0,001
-571,919	-200,000	-0,094	-0,000
-570,904	-200,000	0,002	-0,071
-569,890	800,000	0,072	-0,162
-568,875	296,201	0,042	-0,057
-567,861	404,855	0,050	0,078
-566,846	-147,706	0,046	0,003
-565,831	-35,295	-0,067	0,027
-564,817	800,000	-0,023	0,061
-563,802	-200,000	-0,001	0,043
-562,788	-124,206	-0,126	-0,014
-561,773	-185,419	-0,053	0,001
-560,758	-12,046	-0,042	0,020
-559,744	-200,000	0,026	0,094
-558,729	254,261	0,023	-0,030
-557,715	-200,000	-0,002	-0,025
-556,700	244,702	0,013	0,016
-555,685	-82,351	0,159	-0,038
-554,671	414,668	-0,016	0,025
-553,656	-200,000	-0,017	0,109
-552,642	-200,000	0,009	0,063
-551,627	27,412	0,037	0,023
-550,612	-122,976	-0,085	0,010
-549,598	-94,670	0,038	-0,008
-548,583	-51,430	-0,017	0,006
-547,569	-183,018	-0,087	0,001
-546,554	308,820	0,056	0,078
-545,539	-200,000	-0,032	0,120
-544,525	-200,000	-0,003	0,123
-543,510	343,667	-0,058	0,084
-542,496	275,167	-0,068	-0,090
-541,481	-200,000	0,034	-0,119
-540,466	11,401	-0,061	0,035
-539,452	91,118	0,121	0,100
-538,437	-178,190	0,114	0,002
-537,423	121,543	0,051	-0,047
-536,408	-70,571	0,033	0,009
-535,393	-66,763	-0,026	0,007
-534,379	371,871	-0,031	-0,047
-533,364	150,429	0,091	0,091
-532,350	222,515	-0,058	0,069
-531,335	397,113	-0,023	0,036
-530,321	800,000	-0,043	-0,103
-529,306	-106,519	-0,151	-0,025
-528,291	-39,527	-0,040	0,015
-527,277	-200,000	-0,019	-0,063
-526,262	-200,000	0,005	0,054
-525,248	-161,114	0,113	-0,004
-524,233	92,815	0,094	0,078
-523,218	-33,204	-0,025	-0,010
-522,204	-179,907	-0,062	0,001
-521,189	469,479	-0,024	-0,040
-520,175	-200,000	-0,002	-0,056
-519,160	-52,208	0,041	-0,014
-518,145	-175,845	0,056	-0,001
-517,131	-200,000	-0,002	-0,022
-516,116	800,000	0,008	0,026
-515,102	27,887	0,041	-0,026
-514,087	138,401	-0,022	0,021
-513,072	73,480	-0,100	0,077
-512,058	-200,000	0,034	-0,118
-511,043	-200,000	-0,007	-0,093
-510,029	230,246	-0,073	0,088
-509,014	194,668	0,035	-0,039
-507,999	-133,429	-0,047	0,004
-506,985	-90,729	-0,134	-0,028
-505,970	152,950	-0,052	-0,053
-504,956	800,000	-0,028	0,075
-503,941	800,000	-0,033	-0,090
-502,926	46,826	0,074	-0,051
-501,912	-14,545	0,058	-0,028
-500,897	411,575	0,097	0,153
-499,883	387,205	0,039	0,060
-498,868	315,299	0,052	0,073
-497,853	-139,701	0,140	-0,011
-496,839	199,359	-0,064	0,072
-495,824	11,968	-0,084	0,048
-494,810	330,607	0,044	0,063
-493,795	-128,877	-0,094	0,010
-492,781	-0,390	0,064	-0,033
-491,766	203,594	0,037	0,043
-490,751	6,029	-0,100	-0,054
-489,737	-200,000	-0,005	0,029
-488,722	24,262	-0,083	-0,050
-487,708	176,041	-0,056	0,061
-486,693	-200,000	-0,009	-0,120
-485,678	800,000	-0,013	0,037
-484,664	-159,336	-0,015	-0,001
-483,649	-83,730	0,052	0,012
-482,635	-108,017	0,041	-0,007
-481,620	18,193	0,073	-0,043
-480,605	543,836	0,097	0,172
-479,591	-200,000	-0,016	-0,061
-478,576	-200,000	0,002	0,045
-477,562	162,270	0,126	-0,130
-476,547	189,118	-0,056	-0,062
-475,532	-200,000	-0,020	-0,075
-474,518	-58,542	0,096	-0,031
-473,503	11,337	0,176	0,099
-472,489	-200,000	-0,002	-0,066
-471,474	102,719	0,062	0,054
-470,459	-200,000	-0,001	0,030
-469,445	-141,115	0,035	0,003
-468,430	33,003	-0,010	-0,007
-467,416	800,000	-0,066	-0,155
-466,401	-83,941	0,070	-0,016
-465,386	-200,000	-0,001	0,030
-464,372	-5,849	-0,028	-0,014
-463,357	29,144	-0,104	-0,065
-462,343	391,239	0,050	-0,077
-461,328	-102,789	-0,120	0,021
-460,313	-108,901	0,084	-0,013
-459,299	540,716	0,008	-0,014
-458,284	201,008	-0,062	0,070
-457,270	800,000	0,053	0,129
-456,255	39,042	-0,108	-0,071
-455,241	592,207	-0,051	-0,094
-454,226	343,962	-0,043	-0,063
-453,211	150,587	0,044	0,044
-452,197	-200,000	0,005	0,048
-451,182	800,000	0,020	0,045
-450,168	-200,000	-0,039	-0,136
-449,153	800,000	0,027	-0,062
-448,138	-152,883	0,060	-0,003
-447,124	221,356	-0,091	-0,108
-446,109	349,275	-0,017	0,025
-445,095	197,151	0,018	-0,020
-444,080	-11,694	0,105	0,050
-443,065	-200,000	-0,018	0,117
-442,051	43,135	0,119	-0,080
-441,036	131,194	-0,042	-0,040
-440,022	79,174	0,039	-0,031
-439,007	-50,437	0,132	0,046
-437,992	-67,682	-0,120	-0,034
-436,978	-200,000	-0,004	-0,061
-435,963	-200,000	-0,018	0,189
-434,949	84,054	0,060	0,048
-433,934	306,087	0,012	-0,016
-432,919	-107,900	0,135	-0,021
-431,905	-200,000	-0,001	-0,058
-430,890	-138,291	0,062	0,005
-429,876	-42,388	0,091	0,034
-428,861	542,296	-0,036	0,063
-427,846	-200,000	-0,005	0,172
-426,832	181,479	0,088	-0,096
-425,817	-200,000	0,007	-0,144
-424,803	-151,556	-0,093	0,005
-423,788	-200,000	0,026	-0,091
-422,773	392,290	0,050	0,076
-421,759	92,919	-0,105	0,087
-420,744	-200,000	-0,001	-0,052
-419,730	-48,880	-0,078	-0,027
-418,715	299,207	-0,058	0,079
-417,701	-51,141	-0,060	-0,021
-416,686	-200,000	0,006	-0,088
-415,671	-108,730	0,112	0,018
-414,657	261,629	-0,070	0,089
-413,642	-91,296	-0,028	-0,006
-412,628	-78,433	-0,073	0,018
-411,613	336,591	-0,076	-0,109
-410,598	289,071	-0,108	-0,145
-409,584	-47,860	0,129	-0,046
-408,569	-109,675	-0,076	0,012
-407,555	-200,000	0,013	0,058
-406,540	800,000	-0,049	0,116
-405,525	800,000	-0,035	-0,072
-404,511	-143,339	-0,054	0,004
-403,496	800,000	0,013	-0,036
-402,482	-114,256	0,146	0,021
-401,467	-200,000	0,010	-0,081
-400,452	800,000	0,028	0,076
-399,438	197,432	-0,162	0,182
-398,423	18,002	-0,048	0,028
-397,409	-103,122	-0,151	-0,026
-396,394	555,041	-0,012	0,021
-395,379	96,827	-0,027	-0,023
-394,365	94,991	-0,005	-0,004
-393,350	-200,000	0,047	0,246
-392,336	557,386	-0,051	-0,091
-391,321	147,351	-0,058	-0,057
-390,306	-36,796	-0,104	-0,041
-389,292	-200,000	-0,024	0,114
-388,277	19,602	0,041	-0,024
-387,263	93,856	0,111	0,092
-386,248	58,481	0,094	0,068
-385,233	275,533	-0,071	0,093
-384,219	-77,276	-0,045	-0,011
-383,204	60,480	0,069	-0,050
-382,190	800,000	-0,061	-0,178
-381,175	800,000	-0,024	0,059
-380,160	-49,216	0,103	0,036
-379,146	-114,575	-0,022	0,003
-378,131	228,649	0,040	0,048
-377,117	-17,501	-0,038	0,018
-376,102	157,711	0,069	-0,071
-375,088	760,263	-0,007	0,015
-374,073	375,028	0,023	-0,035
-373,058	-200,000	-0,035	0,116
-372,044	-87,408	0,148	0,033
-371,029	-56,515	0,134	0,043
-370,015	242,079	0,091	-0,112
-369,000	-11,513	-0,114	-0,055
-367,985	-200,000	-0,005	-0,117
-366,971	365,439	-0,096	-0,142
-365,956	-50,929	0,050	0,017
-364,942	774,547	0,012	0,025
-363,927	-200,000	-0,004	0,071
-362,912	-200,000	0,034	-0,173
-361,898	800,000	-0,097	-0,216
-360,883	222,640	0,093	-0,110
-359,869	35,264	-0,101	0,065
-358,854	741,098	0,025	-0,050
-357,839	365,722	0,012	0,017
-356,825	800,000	-0,004	0,010
-355,810	-200,000	-0,037	0,124
-354,796	44,784	0,005	-0,004
-353,781	145,144	-0,088	-0,086
-352,766	-141,715	0,099	0,007
-351,752	-139,806	-0,039	0,003
-350,737	800,000	0,008	0,020
-349,723	45,221	0,085	0,058
-348,708	-136,820	0,136	-0,011
-347,693	17,313	-0,048	0,028
-346,679	-20,641	0,014	-0,006
-345,664	-86,938	0,100	-0,022
-344,650	-98,755	0,098	0,018
-343,635	800,000	0,066	0,136
-342,620	201,610	0,043	0,049
-341,606	-200,000	0,015	-0,091
-340,591	-200,000	-0,006	0,061
-339,577	149,749	-0,023	0,023
-338,562	313,879	-0,045	-0,062
-337,548	3,903	-0,055	-0,029
-336,533	-200,000	0,001	-0,048
-335,518	800,000	0,059	-0,149
-334,504	-200,000	-0,011	0,130
-333,489	-41,883	0,094	0,035
-332,475	-51,565	-0,083	0,028
-331,460	18,173	-0,107	0,062
-330,445	-186,717	-0,060	-0,001
-329,431	-200,000	0,012	-0,109
-328,416	-94,528	0,035	-0,007
-327,402	25,272	0,074	0,045
-326,387	425,709	-0,028	-0,044
-325,372	-28,258	-0,200	-0,084
-324,358	800,000	-0,047	-0,112
-323,343	-178,614	0,132	-0,002
-322,329	622,747	0,023	-0,043
-321,314	432,709	0,037	-0,060
-320,299	165,615	0,031	0,033
-319,285	22,076	-0,071	0,042
-318,270	-91,833	-0,110	0,023
-317,256	-43,095	-0,179	0,066
-316,241	-77,893	0,124	-0,031
-315,226	-200,000	0,004	-0,068
-314,212	165,724	0,046	-0,048
-313,197	800,000	0,071	0,188
-312,183	800,000	0,030	-0,095
-311,168	-200,000	-0,003	0,127
-310,153	364,661	-0,026	-0,038
-309,139	224,936	0,086	0,102
-308,124	800,000	-0,038	0,108
-307,110	152,557	0,051	0,051
-306,095	-200,000	0,007	0,101
-305,080	-149,144	-0,056	0,003
-304,066	-57,333	0,092	-0,029
-303,051	699,592	0,096	-0,186
-302,037	-26,428	-0,151	-0,064
-301,022	-97,365	0,037	0,007
-300,008	98,840	0,089	-0,075
-298,993	9,038	-0,045	-0,025
-297,978	-124,113	0,080	-0,009
-296,964	-136,725	0,091	-0,008
-295,949	87,793	-0,065	0,053
-294,935	189,668	-0,055	0,061
-293,920	-200,000	0,002	-0,121
-292,905	54,502	0,118	0,083
-291,891	17,665	-0,020	-0,012
-290,876	-200,000	0,010	0,044
-289,862	22,157	0,074	-0,044
-288,847	-200,000	0,019	-0,079
-287,832	-200,000	-0,038	-0,138
-286,818	106,646	0,086	-0,074
-285,803	55,844	-0,031	0,022
-284,789	800,000	-0,025	-0,079
-283,774	-200,000	0,005	-0,029
-282,759	46,916	-0,089	0,060
-281,745	-162,362	-0,056	0,002
-280,730	26,753	0,129	-0,079
-279,716	104,177	-0,031	0,027
-278,701	395,144	0,097	0,148
-277,686	-200,000	-0,055	-0,243
-276,672	-15,195	0,124	0,058
-275,657	-134,409	0,070	0,006
-274,643	800,000	-0,040	-0,120
-273,628	234,453	-0,042	-0,051
-272,613	397,377	-0,038	-0,058
-271,599	-200,000	-0,004	0,028
-270,584	-22,114	-0,143	0,063
-269,570	194,761	-0,080	-0,089
-268,555	72,378	-0,062	-0,047
-267,540	-6,497	0,056	-0,028
-266,526	-200,000	0,032	0,140
-265,511	-101,130	0,083	-0,015
-264,497	4,130	0,046	-0,025
-263,482	52,863	0,091	0,064
-262,467	-200,000	0,012	0,071
-261,453	111,091	0,036	-0,032
-260,438	-200,000	-0,017	-0,094
-259,424	-98,623	-0,066	0,012
-258,409	99,997	0,034	-0,029
-257,395	296,325	-0,018	0,025
-256,380	-200,000	0,029	0,116
-255,365	22,876	0,084	0,050
-254,351	-200,000	-0,003	-0,064
-253,336	-16,054	0,037	-0,017
-252,322	800,000	-0,039	-0,084
-251,307	-112,953	0,053	-0,008
-250,292	32,953	-0,034	-0,021
-249,278	600,441	0,050	-0,090
-248,263	25,403	-0,059	0,036
-247,249	8,299	0,091	0,050
-246,234	800,000	0,067	0,147
-245,219	800,000	-0,055	-0,123
-244,205	-44,722	0,052	-0,019
-243,190	6,643	-0,037	0,020
-242,176	72,155	0,039	-0,029
-241,161	181,255	-0,054	0,058
-240,146	390,751	0,064	0,097
-239,132	-79,653	-0,091	-0,022
-238,117	-79,374	-0,166	-0,041
-237,103	16,536	-0,063	-0,036
-236,088	532,566	0,047	0,081
-235,073	-200,000	0,018	0,067
-234,059	88,722	0,037	0,030
-233,044	-200,000	0,021	0,094
-232,030	-78,008	-0,074	0,018
-231,015	-159,030	-0,060	-0,002
-230,000	175,983	-0,058	-0,062
-228,986	-53,381	0,091	0,030
-227,971	144,441	0,027	-0,027
-226,957	-200,000	0,002	-0,121
-225,942	418,374	-0,047	-0,073
-224,927	-118,245	-0,111	-0,014
-223,913	-160,041	-0,075	-0,003
-222,898	65,574	-0,059	-0,044
-221,884	121,804	0,172	-0,156
-220,869	-130,434	0,059	-0,006
-219,855	800,000	0,061	0,159
-218,840	-200,000	-0,004	0,056
-217,825	602,348	-0,081	-0,148
-216,811	178,263	-0,064	0,068
-215,796	-135,029	-0,089	0,008
-214,782	28,596	-0,084	-0,052
-213,767	-16,206	0,119	-0,055
-212,752	-200,000	0,017	0,060
-211,738	-33,454	0,080	0,032
-210,723	45,275	-0,057	0,038
-209,709	-114,233	0,105	0,015
-208,694	800,000	-0,063	-0,160
-207,679	-84,190	-0,035	0,008
-206,665	-200,000	0,001	-0,006
-205,650	800,000	-0,026	0,054
-204,636	199,762	0,042	-0,047
-203,621	800,000	0,058	-0,138
-202,606	-59,049	0,047	-0,015
-201,592	352,521	0,057	0,083
-200,577	8,194	-0,073	0,040
-199,563	800,000	-0,025	-0,059
-198,548	-33,711	0,105	0,042
-197,533	6,100	0,034	-0,019
-196,519	-44,028	0,079	0,029
-195,504	-29,621	-0,103	0,043
-194,490	-200,000	0,028	-0,134
-193,475	-55,457	-0,065	-0,021
-192,460	213,237	0,053	-0,061
-191,446	-200,000	-0,005	0,127
-190,431	184,376	0,048	-0,052
-189,417	291,352	0,056	0,075
-188,402	800,000	-0,061	0,155
-187,387	538,998	0,099	-0,173
-186,373	82,571	-0,151	-0,119
-185,358	-159,809	0,146	-0,006
-184,344	441,727	0,041	0,065
-183,329	753,305	-0,060	0,118
-182,315	-76,133	-0,072	0,018
-181,300	-200,000	0,017	-0,096
-180,285	-200,000	-0,027	0,143
-179,271	-58,685	-0,062	0,019
-178,256	800,000	0,040	-0,103
-177,242	41,046	-0,130	-0,086
-176,227	404,928	-0,048	-0,074
-175,212	-63,611	0,133	-0,039
-174,198	226,661	-0,036	-0,043
-173,183	-200,000	-0,024	-0,108
-172,169	647,629	-0,033	0,061
-171,154	-96,135	-0,080	0,015
-170,139	-16,194	0,124	0,057
-169,125	800,000	-0,055	0,120
-168,110	-76,557	-0,053	-0,013
-167,096	24,312	-0,083	-0,050
-166,081	22,799	-0,108	0,064
-165,066	-5,455	-0,042	0,021
-164,052	-200,000	0,024	0,164
-163,037	-74,925	-0,259	0,067
-162,023	332,795	0,117	0,165
-161,008	564,096	-0,061	0,109
-159,993	-200,000	0,022	-0,069
-158,979	566,532	-0,029	0,051
-157,964	57,723	0,062	-0,044
-156,950	-200,000	-0,030	-0,103
-155,935	-36,989	0,080	-0,031
-154,920	20,616	0,110	0,065
-153,906	2,582	0,055	-0,029
-152,891	-200,000	-0,013	0,087
-151,877	-200,000	-0,012	0,048
-150,862	-73,487	0,098	0,026
-149,847	28,234	0,067	-0,041
-148,833	-88,047	-0,040	-0,009
-147,818	-200,000	0,009	0,052
-146,804	800,000	-0,037	0,086
-145,789	-45,799	-0,098	0,035
-144,775	297,275	0,066	-0,089
-143,760	5,278	0,030	-0,016
-142,745	719,673	-0,037	-0,071
-141,731	207,081	-0,068	0,077
-140,716	679,204	0,049	-0,094
-139,702	32,168	0,054	0,034
-138,687	660,499	-0,045	0,085
-137,672	800,000	0,007	-0,018
-136,658	385,004	0,047	-0,070
-135,643	-80,338	0,125	-0,030
-134,629	182,386	0,058	0,062
-133,614	97,910	0,030	0,025
-132,599	-86,002	0,082	-0,018
-131,585	100,195	-0,012	0,010
-130,570	-200,000	0,009	0,075
-129,556	-200,000	-0,011	0,077
-128,541	800,000	-0,051	0,121
-127,526	800,000	0,025	0,070
-126,512	-36,792	0,083	-0,032
-125,497	280,513	0,062	0,081
-124,483	-92,678	0,086	0,017
-123,468	292,449	0,041	-0,054
-122,453	444,361	0,082	-0,131
-121,439	-44,107	-0,097	-0,035
-120,424	137,672	0,014	-0,013
-119,410	90,596	0,050	-0,041
-118,395	800,000	-0,044	0,125
-117,380	337,923	-0,035	0,050
-116,366	-200,000	0,019	-0,091
-115,351	-62,935	-0,110	-0,033
-114,337	297,666	-0,035	0,047
-113,322	-98,327	-0,092	-0,017
-112,307	-107,024	0,099	0,016
-111,293	-124,905	0,024	-0,003
-110,278	67,958	-0,097	-0,072
-109,264	510,638	-0,032	-0,055
-108,249	-150,302	-0,092	-0,005
-107,234	-200,000	0,002	0,018
-106,220	143,327	0,055	-0,053
-105,205	216,714	0,063	0,073
-104,191	800,000	0,022	-0,059
-103,176	800,000	-0,044	0,121
-102,162	30,012	-0,020	0,012
-101,147	-200,000	0,004	-0,043
-100,132	100,043	0,156	-0,132
-99,118	-31,445	-0,027	-0,011
-98,103	800,000	-0,042	0,126
-97,089	-155,623	-0,095	0,004
-96,074	-200,000	0,026	0,175
-95,059	627,428	-0,035	0,065
-94,045	800,000	0,015	0,034
-93,030	-200,000	0,038	-0,158
-92,016	12,220	0,078	-0,044
-91,001	110,718	0,042	0,037
-89,986	-147,208	-0,044	0,003
-88,972	-200,000	-0,013	-0,052
-87,957	36,528	0,080	-0,051
-86,943	-200,000	0,015	-0,074
-85,928	179,212	-0,042	-0,045
-84,913	-84,448	-0,035	0,008
-83,899	-199,787	-0,033	-0,000
-82,884	41,627	0,127	0,084
-81,870	293,613	0,099	0,132
-80,855	800,000	0,021	0,055
-79,840	14,611	0,090	0,051
-78,826	30,806	-0,130	0,081
-77,811	800,000	0,033	-0,076
-76,797	800,000	0,010	0,028
-75,782	684,762	0,013	-0,024
-74,767	800,000	-0,015	-0,030
-73,753	-200,000	0,007	-0,044
-72,738	126,689	-0,043	-0,040
-71,724	800,000	-0,057	0,123
-70,709	58,431	0,047	-0,034
-69,694	-200,000	-0,028	0,137
-68,680	-131,397	0,070	-0,007
-67,665	-200,000	0,003	0,027
-66,651	-200,000	-0,030	0,098
-65,636	727,252	-0,036	0,070
-64,622	-122,433	-0,126	-0,015
-63,607	656,783	0,077	0,145
-62,592	-200,000	-0,006	0,088
-61,578	188,698	-0,222	0,241
-60,563	36,371	0,024	-0,016
-59,549	-62,332	-0,091	-0,027
-58,534	-95,338	-1,347	-0,261
-57,519	525,599	-0,871	-1,494
-56,505	-200,000	-0,855	-4,454
-55,490	26,711	0,573	-0,347
-54,476	800,000	4,975	11,873
-53,461	-200,000	13,749	253,691
-52,446	-200,000	690,953	2256,149
-51,432	588,445	1622,662	2912,694
-50,417	118,702	1634,437	1464,806
-49,403	72,956	1288,470	975,758
-48,388	37,876	1024,048	659,057
-47,373	24,219	981,785	586,932
-46,359	23,452	971,586	578,297
-45,344	22,496	967,156	572,513
-44,330	22,410	965,793	571,402
-43,315	22,258	964,368	570,043
-42,300	22,254	963,218	569,325
-41,286	22,290	962,346	568,907
-40,271	22,291	961,472	568,371
-39,257	22,271	960,391	567,644
-38,242	22,204	959,586	566,928
-37,227	22,279	958,454	566,479
-36,213	22,232	957,672	565,842
-35,198	22,214	956,980	565,353
-34,184	22,293	956,274	565,168
-33,169	22,257	955,342	564,478
-32,154	22,301	954,509	564,108
-31,140	22,281	953,572	563,466
-30,125	22,293	952,869	563,067
-29,111	22,308	951,805	562,465
-28,096	22,311	951,306	562,155
-27,082	22,312	950,460	561,637
-26,067	22,191	949,900	560,896
-25,052	22,214	949,292	560,588
-24,038	22,279	948,607	560,368
-23,023	22,290	947,842	559,929
-22,009	22,319	947,220	559,635
-20,994	22,309	946,577	559,199
-19,979	22,350	945,811	558,856
-18,965	22,370	945,383	558,646
-17,950	22,325	944,627	558,033
-16,936	22,240	943,966	557,348
-15,921	22,267	943,126	556,917
-14,906	22,211	942,540	556,371
-13,892	22,225	941,966	556,055
-12,877	22,156	941,243	555,385
-11,863	22,102	940,844	554,955
-10,848	22,115	940,348	554,684
-9,833	22,331	939,665	554,945
-8,819	22,219	939,140	554,257
-7,804	22,200	938,200	553,619
-6,790	22,155	937,876	553,264
-5,775	22,245	937,043	553,034
-4,760	22,200	936,555	552,583
-3,746	22,138	935,988	552,030
-2,731	22,024	935,589	551,411
-1,717	22,000	934,515	550,683
-0,702	22,002	933,837	550,268
0,313	21,761	933,375	550,066
1,327	24,958	931,203	558,790
2,342	34,596	795,811	503,210
3,356	32,643	451,439	282,489
4,371	1,711	294,129	153,151
5,386	-2,768	275,002	138,934
6,400	-4,422	269,192	134,451
7,415	-4,733	266,719	132,917
8,429	-4,468	265,387	132,484
9,444	-4,426	264,504	132,070
10,459	-4,593	263,858	131,584
11,473	-4,809	263,432	131,163
12,488	-4,738	262,757	130,879
13,502	-4,847	262,415	130,599
14,517	-4,854	261,942	130,346
15,531	-4,914	261,483	130,051
16,546	-4,724	261,181	130,061
17,561	-4,768	260,836	129,838
18,575	-4,738	260,569	129,721
19,590	-4,755	260,114	129,467
20,604	-4,525	259,727	129,469
21,619	-4,926	259,588	129,029
22,634	-4,677	258,955	128,925
23,648	-4,782	258,674	128,680
24,663	-4,738	258,469	128,606
25,677	-4,748	258,200	128,452
26,692	-4,722	258,065	128,397
27,707	-4,835	257,924	128,214
28,721	-4,706	257,493	128,103
29,736	-4,891	257,315	127,839
30,750	-4,820	257,075	127,772
31,765	-4,874	256,790	127,570
32,780	-4,856	256,653	127,507
33,794	-4,810	256,350	127,386
34,809	-4,841	255,937	127,142
35,823	-4,914	255,854	127,026
36,838	-4,949	255,661	126,887
37,853	-4,768	255,334	126,873
38,867	-4,964	255,104	126,574
39,882	-4,868	254,848	126,521
40,896	-4,973	254,893	126,440
41,911	-4,770	254,342	126,333
42,926	-5,004	254,296	126,094
43,940	-4,921	254,080	126,048
44,955	-4,691	253,684	126,041
45,969	-5,253	253,709	125,552
46,984	-5,266	253,282	125,318
47,999	-5,403	253,093	125,094
49,013	-5,473	252,889	124,921
50,028	-5,689	252,468	124,514
51,042	-5,731	252,348	124,408
52,057	-5,722	252,061	124,262
53,071	-5,528	251,768	124,275
54,086	-5,467	251,666	124,267
55,101	-5,511	251,517	124,143
56,115	-5,236	251,455	124,341
57,130	-4,855	251,391	124,627
58,144	-4,687	251,196	124,664
59,159	-4,517	250,913	124,659
60,174	-4,642	250,870	124,518
61,188	-4,668	250,512	124,307
62,203	-4,808	250,393	124,117
63,217	-4,657	250,078	124,079
64,232	-4,840	250,036	123,891
65,247	-4,674	249,644	123,828
66,261	-4,756	249,535	123,692
67,276	-4,958	249,349	123,416
68,290	-5,110	248,939	123,072
69,305	-5,331	248,793	122,800
70,320	-5,331	248,602	122,695
71,334	-5,110	248,535	122,839
72,349	-4,707	248,296	123,054
73,363	-4,807	248,300	122,959
74,378	-4,635	247,997	122,945
75,393	-4,501	247,574	122,838
76,407	-4,819	247,623	122,581
77,422	-4,748	247,410	122,525
78,436	-4,624	247,011	122,422
79,451	-4,561	246,854	122,387
80,466	-4,779	246,559	122,044
81,480	-4,924	246,471	121,867
82,495	-5,250	246,536	121,614
83,509	-5,018	246,097	121,582
84,524	-5,140	245,970	121,406
85,539	-5,386	245,750	121,079
86,553	-5,064	245,592	121,261
87,568	-5,063	245,275	121,095
88,582	-5,209	245,135	120,891
89,597	-4,955	244,953	121,004
90,611	-4,902	244,844	120,984
91,626	-5,089	244,904	120,846
92,641	-4,839	244,529	120,860
93,655	-4,895	244,309	120,694
94,670	-5,033	244,097	120,463
95,684	-4,944	243,985	120,471
96,699	-5,049	243,769	120,266
97,714	-4,902	243,483	120,237
98,728	-5,294	243,452	119,884
99,743	-5,382	243,313	119,731
100,757	-5,352	242,847	119,517
101,772	-5,172	242,792	119,628
102,787	-5,139	242,504	119,503
103,801	-5,188	242,510	119,455
104,816	-4,839	242,329	119,645
105,830	-4,837	242,210	119,577
106,845	-4,820	241,985	119,469
107,860	-4,717	241,687	119,397
108,874	-4,842	241,463	119,172
109,889	-5,104	241,202	118,816
110,903	-5,109	241,233	118,817
111,918	-4,867	240,907	118,846
112,933	-4,939	240,870	118,757
113,947	-5,103	240,699	118,526
114,962	-4,822	240,540	118,669
115,976	-4,765	240,325	118,599
116,991	-4,964	240,290	118,408
118,006	-5,116	240,140	118,199
119,020	-4,967	239,926	118,205
120,035	-4,989	239,684	118,058
121,049	-4,977	239,677	118,053
122,064	-4,777	239,482	118,110
123,079	-4,962	239,280	117,849
124,093	-4,926	238,991	117,726
125,108	-5,153	238,747	117,410
126,122	-5,231	238,473	117,201
127,137	-5,356	238,329	117,018
128,151	-5,200	238,170	117,056
129,166	-5,374	238,074	116,857
130,181	-5,102	237,711	116,889
131,195	-5,306	237,592	116,655
132,210	-5,313	237,597	116,642
133,224	-5,013	237,378	116,767
134,239	-4,781	237,182	116,848
135,254	-4,787	237,033	116,759
136,268	-4,905	236,667	116,473
137,283	-5,053	236,460	116,241
138,297	-5,316	236,373	115,976
139,312	-5,466	236,247	115,783
140,327	-5,021	236,132	116,075
141,341	-4,602	236,104	116,388
142,356	-4,542	235,900	116,326
143,370	-4,443	235,797	116,344
144,385	-4,407	235,532	116,232
145,400	-4,544	235,424	116,058
146,414	-4,457	235,257	116,035
147,429	-4,615	235,163	115,852
148,443	-4,748	234,928	115,619
149,458	-4,591	234,923	115,732
150,473	-4,531	234,618	115,619
151,487	-4,632	234,474	115,458
152,502	-4,757	234,232	115,228
153,516	-4,678	234,191	115,261
154,531	-4,518	233,958	115,263
155,546	-4,617	233,774	115,084
156,560	-4,756	233,578	114,867
157,575	-4,696	233,354	114,794
158,589	-4,850	233,229	114,600
159,604	-4,547	233,264	114,847
160,619	-4,521	232,973	114,714
161,633	-4,403	232,837	114,731
162,648	-4,435	232,665	114,611
163,662	-4,714	232,602	114,348
164,677	-4,554	232,381	114,356
165,692	-4,636	232,182	114,183
166,706	-4,335	231,913	114,278
167,721	-4,472	231,917	114,162
168,735	-4,438	231,756	114,099
169,750	-4,300	231,597	114,120
170,764	-4,591	231,442	113,804
171,779	-4,615	231,293	113,701
172,794	-4,545	231,159	113,680
173,808	-4,626	230,849	113,454
174,823	-4,915	230,577	113,084
175,837	-5,180	230,476	112,816
176,852	-5,011	230,539	112,970
177,867	-4,523	230,334	113,241
178,881	-4,545	230,269	113,182
179,896	-4,492	230,053	113,107
180,910	-4,403	229,836	113,061
181,925	-4,553	229,710	112,870
182,940	-4,361	229,479	112,897
183,954	-4,502	229,518	112,796
184,969	-4,356	229,383	112,834
185,983	-4,341	229,193	112,742
186,998	-4,535	228,980	112,476
188,013	-4,342	228,899	112,576
189,027	-4,423	228,676	112,393
190,042	-4,332	228,531	112,383
191,056	-4,152	228,410	112,453
192,071	-4,418	228,293	112,179
193,086	-4,265	228,012	112,150
194,100	-4,479	227,995	111,966
195,115	-4,593	227,581	111,664
196,129	-5,274	227,319	111,000
197,144	-1,947	228,466	114,130
198,159	2,258	229,674	117,993
199,173	4,058	230,041	119,570
200,188	4,504	229,883	119,823
201,202	4,388	229,759	119,658
202,217	4,441	229,671	119,642
203,232	4,824	229,550	119,865
204,246	4,921	229,380	119,840
205,261	5,021	229,207	119,817
206,275	5,117	229,102	119,826
207,290	4,981	228,873	119,590
208,304	5,077	228,932	119,685
209,319	5,069	228,607	119,498
210,334	4,743	228,510	119,185
211,348	4,669	228,178	118,944
212,363	4,220	227,980	118,486
213,377	4,093	227,685	118,224
214,392	4,209	227,612	118,265
215,407	4,326	227,417	118,243
216,421	4,063	227,446	118,046
217,436	4,179	227,055	117,921
218,450	3,854	227,019	117,643
219,465	3,767	226,766	117,434
220,480	3,800	226,679	117,404
221,494	3,810	226,644	117,384
222,509	4,097	226,420	117,476
223,523	4,117	226,280	117,408
224,538	4,007	226,070	117,205
225,553	3,966	225,986	117,119
226,567	4,307	225,999	117,375
227,582	4,298	225,862	117,287
228,596	4,516	225,640	117,327
229,611	4,016	225,420	116,822
230,626	3,850	225,286	116,617
231,640	3,980	225,045	116,580
232,655	4,353	224,983	116,820
233,669	4,615	224,954	116,993
234,684	4,867	224,877	117,133
235,699	4,385	224,714	116,673
236,713	4,146	224,500	116,372
237,728	4,108	224,250	116,203
238,742	3,824	224,271	115,989
239,757	3,879	223,871	115,813
240,772	4,048	223,723	115,853
241,786	3,936	223,585	115,687
242,801	4,403	223,565	116,018
243,815	4,451	223,567	116,045
244,830	4,499	223,359	115,963
245,844	4,211	223,159	115,632
246,859	4,179	223,111	115,573
247,874	4,433	222,885	115,636
248,888	4,453	222,604	115,495
249,903	4,257	222,500	115,284
250,917	4,177	222,311	115,116
251,932	3,892	222,195	114,833
252,947	4,217	221,978	114,953
253,961	4,010	221,842	114,718
254,976	4,112	221,733	114,727
255,990	4,195	221,719	114,771
257,005	4,229	221,502	114,674
258,020	4,434	221,419	114,773
259,034	4,510	221,400	114,810
260,049	4,314	221,172	114,536
261,063	4,258	221,123	114,459
262,078	4,461	220,852	114,459
263,093	4,697	220,725	114,558
264,107	4,458	220,572	114,291
265,122	4,221	220,624	114,133
266,136	4,591	220,407	114,283
267,151	4,479	220,253	114,111
268,166	4,268	219,945	113,785
269,180	3,956	219,784	113,462
270,195	4,002	219,606	113,394
271,209	3,881	219,412	113,194
272,224	4,122	219,395	113,352
273,239	4,173	219,269	113,315
274,253	4,206	219,029	113,205
275,268	3,885	218,851	112,868
276,282	4,036	218,590	112,833
277,297	3,728	218,471	112,536
278,312	3,802	218,446	112,568
279,326	3,880	218,377	112,580
280,341	3,887	218,268	112,518
281,355	4,231	218,108	112,677
282,370	4,027	217,831	112,375
283,384	3,948	217,767	112,274
284,399	3,846	217,584	112,095
285,414	3,811	217,534	112,034
286,428	4,214	217,394	112,245
287,443	4,200	217,337	112,196
288,457	4,288	217,021	112,087
289,472	3,982	216,941	111,813
290,487	3,528	216,834	111,418
291,501	3,809	216,612	111,498
292,516	3,808	216,512	111,437
293,530	3,864	216,426	111,423
294,545	3,748	216,220	111,223
295,560	4,114	216,085	111,408
296,574	4,037	215,886	111,239
297,589	4,051	215,831	111,212
298,603	4,314	215,620	111,283
299,618	3,896	215,611	110,967
300,633	4,196	215,392	111,060
301,647	4,177	215,415	111,048
302,662	4,305	215,346	111,095
303,676	4,239	215,253	110,990
304,691	4,282	215,024	110,893
305,706	4,415	214,877	110,902
306,720	4,408	214,816	110,856
307,735	4,206	214,479	110,528
308,749	4,154	214,397	110,438
309,764	4,035	214,239	110,262
310,779	4,389	214,233	110,502
311,793	4,425	213,949	110,372
312,808	4,338	213,865	110,257
313,822	4,188	213,701	110,055
314,837	4,049	213,542	109,864
315,852	3,550	213,362	109,406
316,866	4,033	213,215	109,665
317,881	4,404	213,223	109,923
318,895	4,188	213,076	109,684
319,910	3,938	212,915	109,413
320,925	3,745	212,822	109,219
321,939	3,678	212,420	108,956
322,954	3,718	212,430	108,979
323,968	4,042	212,325	109,146
324,983	4,209	212,276	109,229
325,997	4,259	212,171	109,200
327,012	4,171	211,863	108,970
328,027	4,005	211,929	108,876
329,041	4,420	211,838	109,114
330,056	4,331	211,575	108,906
331,070	3,971	211,410	108,557
332,085	3,912	211,216	108,406
333,100	4,079	211,084	108,446
334,114	4,053	211,015	108,383
335,129	4,134	210,698	108,267
336,143	3,820	210,591	107,982
337,158	3,789	210,578	107,944
338,173	4,085	210,458	108,081
339,187	3,952	210,274	107,883
340,202	3,605	210,183	107,584
341,216	3,690	210,015	107,548
342,231	3,810	209,747	107,485
343,246	3,757	209,709	107,418
344,260	3,689	209,561	107,286
345,275	3,921	209,502	107,408
346,289	4,126	209,438	107,508
347,304	4,144	209,268	107,424
348,319	4,032	209,121	107,261
349,333	4,035	208,923	107,152
350,348	4,070	208,891	107,150
351,362	4,205	208,729	107,152
352,377	4,284	208,655	107,159
353,392	4,017	208,426	106,846
354,406	3,846	208,384	106,697
355,421	194,980	1344,357	1436,551
356,435	155,617	1482,872	1436,664
