DTS Sentinel unit serial number:	SN410029Multiplexer serial number:	ORYXHardware model number:	OX2-SRSoftware version number:	ORYX F/W v4,00 Oryx Data Collector v3.7.2.0data status	okinstallation	B6 Nyhavnadifferential loss correction	single-endedforward channel	channel 2reverse channel	N/Adate	2023/12/09time	21:25:08forward acquisition time	300,00reverse acquisition time	0,00gamma	499,1914k internal	0,3128k external	0,3128temperature offset calibration	1,0000default loss term (dB/km)	0,3820temperature slope calibration	1,0000multiplexer offset coefficient	1,0000multiplexer slope coefficient	1,0000fibre end	0,00T internal ref (°C)	21,55T ext. ref 1 (°C)	5,43T ext. ref 2 (°C)	5,43length (m)	temperature (°C)	Stokes	anti-Stokes-744,400	363,425	0,102	0,153
-743,385	-53,026	-0,100	0,034
-742,371	78,345	0,045	-0,036
-741,356	-33,509	-0,208	0,085
-740,342	-200,000	-0,008	0,079
-739,327	-146,604	-0,284	-0,018
-738,312	-200,000	0,003	0,045
-737,298	-112,699	-0,234	-0,034
-736,283	114,870	-0,027	0,024
-735,269	243,551	-0,117	0,146
-734,254	-17,390	0,058	-0,027
-733,239	-120,370	-0,463	-0,058
-732,225	-106,515	-0,044	0,007
-731,210	-25,538	0,068	0,030
-730,196	-91,965	0,122	0,026
-729,181	229,207	-0,066	0,080
-728,167	80,817	-0,040	0,032
-727,152	-8,614	-0,016	-0,008
-726,137	205,357	-0,078	0,091
-725,123	-200,000	0,025	-0,084
-724,108	-119,014	-0,252	-0,032
-723,094	158,129	0,070	0,072
-722,079	60,176	-0,127	-0,093
-721,064	93,431	0,087	-0,073
-720,050	-200,000	-0,015	-0,102
-719,035	-93,547	0,032	0,007
-718,021	800,000	0,027	-0,063
-717,006	800,000	-0,037	-0,102
-715,991	-10,347	-0,208	-0,102
-714,977	299,470	0,045	-0,062
-713,962	181,505	0,051	-0,056
-712,948	-44,515	-0,053	-0,019
-711,933	477,460	-0,023	-0,039
-710,918	309,094	-0,021	-0,029
-709,904	-152,044	-0,107	0,006
-708,889	-162,556	-0,006	-0,000
-707,875	383,732	-0,010	-0,015
-706,860	64,664	0,062	0,047
-705,845	-19,006	-0,133	-0,061
-704,831	49,684	0,058	-0,041
-703,816	-84,270	-0,064	-0,015
-702,802	-126,247	0,036	-0,004
-701,787	-85,953	-0,088	0,020
-700,772	-200,000	0,018	-0,146
-699,758	140,817	-0,036	0,035
-698,743	-200,000	0,003	-0,015
-697,729	800,000	-0,009	0,027
-696,714	-200,000	-0,026	0,111
-695,699	-200,000	0,014	0,057
-694,685	-200,000	-0,006	-0,026
-693,670	-200,000	-0,001	-0,096
-692,656	-139,675	-0,136	0,011
-691,641	800,000	0,024	0,058
-690,627	-84,912	0,134	0,031
-689,612	18,078	0,050	0,030
-688,597	-70,793	-0,156	-0,043
-687,583	-200,000	-0,015	-0,073
-686,568	-145,742	-0,194	0,013
-685,554	-200,000	0,014	-0,049
-684,539	-200,000	0,010	0,048
-683,524	-52,835	0,186	0,063
-682,510	89,322	0,051	0,042
-681,495	55,117	0,015	-0,010
-680,481	800,000	-0,005	-0,011
-679,466	73,006	-0,106	-0,082
-678,451	50,980	0,048	-0,034
-677,437	800,000	-0,017	-0,044
-676,422	-200,000	0,034	-0,128
-675,408	159,837	-0,056	-0,057
-674,393	-200,000	-0,021	-0,131
-673,378	-200,000	-0,015	0,066
-672,364	800,000	0,032	-0,098
-671,349	171,403	0,069	0,073
-670,335	95,614	0,031	-0,026
-669,320	800,000	-0,028	-0,062
-668,305	-63,142	0,029	0,009
-667,291	99,907	-0,012	-0,011
-666,276	-200,000	0,035	-0,133
-665,262	184,897	-0,077	-0,085
-664,247	-200,000	0,003	-0,039
-663,232	-107,394	-0,057	-0,009
-662,218	-200,000	-0,025	-0,086
-661,203	-200,000	0,021	-0,077
-660,189	266,151	-0,049	-0,064
-659,174	131,948	0,051	-0,049
-658,159	-200,000	0,039	-0,192
-657,145	800,000	-0,068	-0,153
-656,130	271,933	-0,051	-0,067
-655,116	-44,046	-0,075	-0,028
-654,101	-200,000	0,017	0,139
-653,086	-200,000	0,000	0,023
-652,072	-99,595	-0,057	-0,010
-651,057	128,241	-0,048	0,045
-650,043	114,668	-0,029	-0,026
-649,028	39,915	-0,095	0,063
-648,014	-200,000	0,022	-0,093
-646,999	-200,000	-0,003	-0,012
-645,984	78,136	-0,059	-0,047
-644,970	377,181	0,018	0,028
-643,955	800,000	-0,014	0,035
-642,941	156,263	-0,137	-0,140
-641,926	630,199	0,025	-0,046
-640,911	49,848	0,127	-0,089
-639,897	-6,434	0,114	0,057
-638,882	200,905	0,066	0,076
-637,868	-47,280	0,094	-0,034
-636,853	-200,000	-0,000	-0,184
-635,838	205,650	-0,089	0,103
-634,824	173,884	0,027	-0,029
-633,809	-85,780	0,055	0,013
-632,795	56,956	0,062	-0,045
-631,780	301,182	0,068	-0,093
-630,765	-200,000	0,007	0,059
-629,751	14,140	-0,026	-0,015
-628,736	-35,223	0,151	0,061
-627,722	-5,426	-0,072	-0,036
-626,707	-100,030	-0,088	0,016
-625,692	800,000	0,053	0,160
-624,678	-2,009	0,138	0,072
-623,663	-200,000	0,011	0,064
-622,649	-200,000	0,003	-0,151
-621,634	-15,799	-0,041	-0,019
-620,619	800,000	0,048	-0,150
-619,605	-131,005	-0,062	0,006
-618,590	-9,676	-0,064	-0,031
-617,576	257,760	0,062	0,079
-616,561	-37,471	0,142	-0,056
-615,546	-200,000	0,016	0,058
-614,532	22,447	-0,176	-0,106
-613,517	-49,443	-0,149	-0,052
-612,503	800,000	0,031	0,068
-611,488	492,732	0,018	-0,031
-610,474	-200,000	0,003	0,091
-609,459	-200,000	-0,013	-0,047
-608,444	376,735	0,040	-0,061
-607,430	57,166	0,010	0,007
-606,415	171,453	-0,063	-0,067
-605,401	-128,431	-0,057	-0,006
-604,386	196,593	-0,011	0,012
-603,371	139,497	-0,046	-0,045
-602,357	-65,149	-0,073	-0,022
-601,342	32,310	-0,084	-0,053
-600,328	-37,203	-0,107	-0,042
-599,313	364,688	-0,020	0,030
-598,298	375,751	-0,043	-0,066
-597,284	754,471	-0,037	-0,074
-596,269	-200,000	0,003	0,023
-595,255	-72,626	0,046	-0,012
-594,240	45,943	0,085	0,058
-593,225	-200,000	-0,008	-0,099
-592,211	-7,419	-0,048	-0,024
-591,196	-22,971	-0,146	0,065
-590,182	-200,000	-0,001	-0,121
-589,167	-64,967	-0,036	-0,011
-588,152	469,412	0,070	0,116
-587,138	-2,014	0,085	0,044
-586,123	-15,335	-0,170	-0,080
-585,109	-200,000	-0,002	0,060
-584,094	-190,558	0,022	0,000
-583,079	-10,201	0,102	-0,050
-582,065	-122,829	0,120	0,014
-581,050	-200,000	0,003	0,046
-580,036	-139,053	-0,109	0,009
-579,021	430,010	-0,086	0,139
-578,006	34,461	-0,117	0,075
-576,992	800,000	0,108	-0,229
-575,977	800,000	-0,031	0,084
-574,963	25,544	0,125	0,077
-573,948	567,923	0,033	0,060
-572,934	-66,341	0,122	0,036
-571,919	184,084	-0,035	0,039
-570,904	-200,000	-0,004	-0,025
-569,890	-200,000	-0,018	0,084
-568,875	46,652	0,051	-0,035
-567,861	-108,688	0,128	0,020
-566,846	800,000	0,026	0,068
-565,831	800,000	-0,035	-0,113
-564,817	-135,970	-0,116	-0,010
-563,802	800,000	-0,098	-0,248
-562,788	-150,439	-0,046	0,003
-561,773	-200,000	0,013	0,075
-560,758	443,939	0,060	0,097
-559,744	-200,000	-0,016	0,116
-558,729	307,229	-0,066	0,091
-557,715	-72,345	-0,026	-0,007
-556,700	800,000	-0,028	-0,075
-555,685	420,052	-0,086	-0,137
-554,671	688,534	0,056	-0,109
-553,656	95,459	0,047	0,040
-552,642	566,293	0,057	0,103
-551,627	192,095	0,054	0,061
-550,612	-200,000	-0,046	0,000
-549,598	-91,414	-0,091	0,019
-548,583	7,449	-0,107	-0,059
-547,569	25,758	-0,139	-0,085
-546,554	800,000	-0,032	-0,086
-545,539	211,895	0,139	0,162
-544,525	91,881	0,023	0,019
-543,510	-200,000	0,002	0,042
-542,496	403,958	-0,047	0,074
-541,481	367,541	-0,048	-0,072
-540,466	-83,633	0,016	-0,004
-539,452	61,188	-0,084	0,061
-538,437	-200,000	-0,002	0,052
-537,423	-200,000	-0,011	0,121
-536,408	-112,200	0,032	-0,005
-535,393	-200,000	-0,020	0,072
-534,379	241,458	-0,065	0,081
-533,364	-172,945	0,041	-0,001
-532,350	-200,000	-0,002	-0,028
-531,335	-114,353	0,070	0,010
-530,321	34,868	0,056	0,036
-529,306	-200,000	0,022	-0,075
-528,291	322,017	-0,042	-0,059
-527,277	-200,000	0,006	-0,037
-526,262	118,827	-0,093	-0,085
-525,248	265,426	0,060	0,077
-524,233	522,833	-0,056	-0,098
-523,218	-102,937	-0,024	0,004
-522,204	800,000	0,038	-0,080
-521,189	34,906	0,071	-0,046
-520,175	58,360	0,147	0,106
-519,160	428,792	-0,088	-0,141
-518,145	-0,673	-0,036	0,019
-517,131	-131,203	0,091	0,009
-516,116	-18,806	0,069	0,032
-515,102	143,548	-0,031	0,031
-514,087	510,648	0,047	-0,080
-513,072	-200,000	-0,023	-0,132
-512,058	-29,175	-0,039	0,016
-511,043	260,156	-0,011	0,014
-510,029	287,939	-0,058	-0,077
-509,014	149,578	-0,032	-0,032
-507,999	-46,339	0,075	0,027
-506,985	44,443	0,037	0,025
-505,970	-200,000	0,015	-0,050
-504,956	800,000	0,007	0,017
-503,941	-200,000	-0,026	-0,107
-502,926	-103,412	0,123	0,021
-501,912	-200,000	-0,021	0,070
-500,897	-200,000	-0,009	0,153
-499,883	633,719	0,017	-0,032
-498,868	-200,000	0,036	-0,204
-497,853	172,797	-0,057	-0,061
-496,839	168,951	-0,021	0,022
-495,824	-29,291	0,127	-0,054
-494,810	-200,000	-0,004	0,139
-493,795	-13,806	-0,120	0,057
-492,781	-200,000	0,007	0,112
-491,766	-200,000	-0,014	-0,119
-490,751	386,030	0,048	-0,074
-489,737	170,236	0,044	0,047
-488,722	800,000	0,029	-0,080
-487,708	196,006	0,033	0,037
-486,693	800,000	0,022	0,061
-485,678	-36,095	-0,052	-0,021
-484,664	52,933	-0,150	-0,106
-483,649	-200,000	0,026	-0,090
-482,635	-166,301	0,069	-0,002
-481,620	-71,168	-0,053	-0,014
-480,605	-96,565	0,097	-0,019
-479,591	-80,934	0,089	-0,021
-478,576	76,699	-0,084	-0,066
-477,562	-200,000	-0,022	-0,081
-476,547	173,482	-0,020	-0,022
-475,532	-200,000	0,015	0,061
-474,518	132,496	0,026	0,024
-473,503	-98,349	0,140	0,026
-472,489	208,650	0,086	-0,100
-471,474	-34,980	0,060	-0,024
-470,459	-119,313	-0,160	0,020
-469,445	-123,704	-0,112	0,013
-468,430	722,594	0,038	-0,074
-467,416	-200,000	0,004	-0,021
-466,401	800,000	0,018	0,052
-465,386	800,000	-0,039	0,121
-464,372	506,420	-0,058	-0,100
-463,357	375,562	0,048	-0,072
-462,343	162,836	0,091	-0,094
-461,328	800,000	0,023	0,059
-460,313	10,433	-0,105	-0,058
-459,299	215,455	0,107	0,125
-458,284	-200,000	0,000	0,077
-457,270	68,014	0,083	0,062
-456,255	800,000	0,044	-0,138
-455,241	-65,111	-0,126	-0,037
-454,226	-154,890	-0,053	-0,003
-453,211	-5,507	0,095	0,048
-452,197	368,141	-0,037	-0,055
-451,182	-54,589	0,082	0,027
-450,168	145,113	0,066	-0,065
-449,153	211,257	-0,054	0,062
-448,138	316,794	-0,026	-0,036
-447,124	-200,000	-0,005	-0,026
-446,109	-200,000	0,038	-0,145
-445,095	-4,868	0,190	0,096
-444,080	196,895	0,071	0,080
-443,065	123,120	0,113	0,104
-442,051	227,028	-0,068	-0,082
-441,036	727,726	-0,006	0,011
-440,022	66,768	0,024	-0,018
-439,007	391,886	0,066	-0,101
-437,992	16,564	0,134	0,078
-436,978	60,799	0,136	0,099
-435,963	51,173	0,074	-0,052
-434,949	75,117	0,032	0,025
-433,934	420,028	-0,070	-0,110
-432,919	800,000	-0,024	-0,060
-431,905	58,408	0,038	-0,028
-430,890	172,072	0,061	0,064
-429,876	-200,000	0,003	0,107
-428,861	-200,000	0,004	0,062
-427,846	-200,000	-0,002	-0,029
-426,832	-200,000	-0,001	-0,071
-425,817	-200,000	-0,006	-0,105
-424,803	186,610	0,029	-0,032
-423,788	-43,102	0,085	0,032
-422,773	800,000	-0,021	0,065
-421,759	-48,615	0,033	-0,012
-420,744	268,590	-0,028	0,036
-419,730	-200,000	-0,039	-0,129
-418,715	469,248	-0,098	0,162
-417,701	-0,480	-0,030	-0,016
-416,686	51,455	-0,056	-0,039
-415,671	800,000	0,048	0,120
-414,657	-200,000	-0,017	0,224
-413,642	290,578	0,051	-0,069
-412,628	544,866	-0,013	0,023
-411,613	-200,000	-0,012	-0,137
-410,598	246,239	0,071	-0,088
-409,584	800,000	0,049	0,102
-408,569	-60,350	0,092	0,029
-407,555	736,385	0,058	-0,114
-406,540	273,671	-0,082	-0,107
-405,525	-41,716	-0,136	-0,051
-404,511	800,000	0,021	-0,067
-403,496	166,238	-0,160	-0,166
-402,482	-86,849	-0,076	0,017
-401,467	800,000	-0,036	0,091
-400,452	-200,000	0,018	-0,069
-399,438	-29,359	-0,050	0,021
-398,423	63,310	-0,021	0,015
-397,409	800,000	0,075	-0,181
-396,394	-158,389	-0,101	0,004
-395,379	265,840	0,090	0,116
-394,365	-200,000	0,030	0,109
-393,350	-200,000	0,004	0,044
-392,336	800,000	0,021	0,065
-391,321	333,720	-0,059	0,084
-390,306	-200,000	-0,040	-0,138
-389,292	223,909	-0,042	0,050
-388,277	100,630	0,105	0,089
-387,263	9,889	0,075	-0,042
-386,248	791,249	-0,088	0,179
-385,233	15,073	-0,112	0,064
-384,219	629,588	0,027	0,051
-383,204	-41,108	-0,146	0,055
-382,190	-200,000	-0,020	-0,111
-381,175	-43,194	-0,107	-0,039
-380,160	-20,379	0,131	-0,059
-379,146	-200,000	0,011	-0,039
-378,131	-33,962	0,016	0,006
-377,117	54,757	-0,114	-0,080
-376,102	-136,025	-0,173	0,015
-375,088	-200,000	-0,010	-0,071
-374,073	-200,000	-0,023	-0,092
-373,058	75,377	0,115	-0,089
-372,044	-122,860	0,066	-0,008
-371,029	223,774	0,027	0,032
-370,015	197,027	-0,108	-0,121
-369,000	268,312	0,003	0,003
-367,985	-200,000	0,014	-0,069
-366,971	55,849	-0,076	0,054
-365,956	208,246	-0,021	-0,025
-364,942	-9,456	0,030	-0,014
-363,927	-200,000	0,047	0,185
-362,912	-200,000	-0,001	0,067
-361,898	122,881	-0,063	-0,058
-360,883	-200,000	-0,036	-0,157
-359,869	-200,000	-0,007	0,059
-358,854	-200,000	-0,038	0,156
-357,839	-200,000	0,002	-0,016
-356,825	63,093	0,135	0,099
-355,810	-7,824	-0,109	-0,054
-354,796	-30,268	0,089	0,037
-353,781	321,135	-0,091	-0,127
-352,766	-192,548	0,235	-0,002
-351,752	-20,880	-0,045	0,020
-350,737	-200,000	0,016	0,210
-349,723	569,017	-0,109	0,195
-348,708	-67,726	-0,058	-0,017
-347,693	800,000	-0,064	-0,148
-346,679	-79,549	-0,085	-0,021
-345,664	46,259	-0,059	-0,040
-344,650	-200,000	0,007	0,052
-343,635	-125,914	0,076	0,008
-342,620	-145,932	0,065	-0,004
-341,606	-200,000	-0,021	-0,213
-340,591	-44,580	-0,137	-0,050
-339,577	322,371	-0,046	-0,064
-338,562	-89,330	0,064	0,014
-337,548	337,496	-0,014	0,021
-336,533	-200,000	0,011	-0,051
-335,518	-166,137	0,074	-0,002
-334,504	513,590	0,052	0,090
-333,489	43,401	-0,060	0,040
-332,475	-28,323	0,051	0,022
-331,460	-200,000	0,005	-0,019
-330,445	81,787	0,062	0,049
-329,431	90,227	0,103	-0,084
-328,416	-93,904	0,030	0,006
-327,402	671,592	0,027	0,052
-326,387	223,242	0,028	0,033
-325,372	-98,686	-0,087	0,016
-324,358	-200,000	0,029	-0,111
-323,343	266,921	-0,041	0,052
-322,329	-10,911	-0,090	0,043
-321,314	800,000	-0,031	0,078
-320,299	-147,220	0,101	0,006
-319,285	104,614	-0,062	-0,054
-318,270	-121,226	-0,068	0,008
-317,256	-34,214	0,113	0,045
-316,241	-130,119	-0,132	-0,013
-315,226	-130,348	0,105	-0,010
-314,212	-200,000	0,042	0,144
-313,197	-200,000	-0,012	0,055
-312,183	527,949	-0,056	-0,098
-311,168	-22,485	-0,049	-0,022
-310,153	-5,009	-0,118	0,059
-309,139	30,318	0,105	-0,066
-308,124	-135,073	-0,044	0,004
-307,110	757,137	0,094	0,187
-306,095	643,479	-0,076	0,142
-305,080	-200,000	0,008	0,043
-304,066	59,740	-0,021	-0,015
-303,051	-49,652	0,056	-0,019
-302,037	570,501	0,034	0,061
-301,022	-127,224	0,098	0,010
-300,008	79,754	-0,017	-0,013
-298,993	-4,244	0,079	0,040
-297,978	-200,000	-0,002	-0,020
-296,964	-200,000	-0,001	-0,005
-295,949	-11,191	-0,072	0,035
-294,935	-31,972	0,076	-0,031
-293,920	-200,000	-0,009	-0,074
-292,905	-155,337	-0,100	-0,005
-291,891	128,481	-0,016	0,015
-290,876	341,417	-0,101	0,145
-289,862	65,846	0,040	-0,029
-288,847	48,923	-0,076	-0,052
-287,832	508,254	-0,035	-0,060
-286,818	96,256	-0,062	-0,052
-285,803	209,158	0,010	-0,012
-284,789	800,000	-0,060	-0,128
-283,774	119,909	-0,038	0,034
-282,759	-200,000	-0,034	0,134
-281,745	48,311	0,109	0,074
-280,730	-1,835	-0,112	-0,058
-279,716	-200,000	0,005	-0,040
-278,701	611,994	-0,032	0,059
-277,686	-200,000	0,011	-0,065
-276,672	102,158	0,118	0,101
-275,657	6,973	0,089	-0,049
-274,643	-95,126	-0,079	0,015
-273,628	24,408	-0,067	0,040
-272,613	196,930	-0,070	-0,078
-271,599	-200,000	-0,023	0,122
-270,584	-111,431	0,111	0,016
-269,570	452,300	0,034	-0,056
-268,555	49,635	-0,119	0,082
-267,540	-120,930	-0,058	-0,007
-266,526	-200,000	-0,009	-0,141
-265,511	-40,737	0,041	-0,015
-264,497	-200,000	0,006	0,097
-263,482	-200,000	0,011	0,129
-262,467	245,729	-0,022	0,028
-261,453	57,325	0,087	0,062
-260,438	383,433	-0,033	0,050
-259,424	-107,445	-0,053	-0,008
-258,409	800,000	0,078	-0,243
-257,395	-200,000	-0,013	0,082
-256,380	457,978	0,035	0,057
-255,365	39,467	0,097	-0,064
-254,351	-27,755	-0,096	-0,041
-253,336	-200,000	-0,015	-0,108
-252,322	21,274	0,147	0,087
-251,307	-8,594	0,032	-0,015
-250,292	-30,070	0,044	0,018
-249,278	371,239	-0,079	0,118
-248,263	46,016	0,124	0,084
-247,249	-24,608	-0,087	-0,038
-246,234	-108,032	-0,083	0,013
-245,219	-23,300	-0,156	0,068
-244,205	264,816	-0,115	-0,147
-243,190	13,602	0,097	-0,055
-242,176	800,000	-0,027	-0,065
-241,161	-9,961	-0,113	0,054
-240,146	-200,000	0,009	-0,056
-239,132	-74,258	0,073	-0,019
-238,117	-113,884	0,019	-0,003
-237,103	800,000	-0,031	-0,083
-236,088	800,000	-0,041	-0,117
-235,073	30,521	0,052	-0,032
-234,059	26,057	0,093	0,057
-233,044	-200,000	-0,012	-0,106
-232,030	438,104	0,054	0,087
-231,015	216,904	-0,075	0,087
-230,000	142,603	0,033	0,032
-228,986	20,862	0,123	0,072
-227,971	90,042	-0,031	0,025
-226,957	488,074	0,066	0,110
-225,942	163,148	-0,031	-0,031
-224,927	-200,000	-0,004	-0,086
-223,913	-200,000	-0,000	-0,061
-222,898	-200,000	-0,040	0,131
-221,884	104,634	0,143	-0,123
-220,869	-200,000	0,006	-0,043
-219,855	103,384	0,045	0,038
-218,840	479,164	0,072	0,119
-217,825	60,999	-0,072	0,052
-216,811	-57,833	-0,112	-0,036
-215,796	-129,559	-0,155	0,015
-214,782	-127,522	0,025	-0,003
-213,767	-109,555	-0,096	0,015
-212,752	-107,978	0,011	0,002
-211,738	-58,783	0,072	0,022
-210,723	800,000	-0,023	-0,051
-209,709	403,097	0,075	-0,115
-208,694	800,000	0,038	0,111
-207,679	76,601	-0,035	-0,027
-206,665	-3,942	0,150	0,075
-205,650	-145,731	-0,056	-0,004
-204,636	-200,000	0,014	0,143
-203,621	-74,227	-0,168	0,044
-202,606	800,000	0,030	0,065
-201,592	800,000	0,017	-0,043
-200,577	-200,000	0,001	0,074
-199,563	64,588	-0,077	-0,056
-198,548	-19,803	0,045	0,020
-197,533	148,440	-0,089	0,087
-196,519	-174,823	-0,046	0,001
-195,504	135,212	0,050	-0,047
-194,490	-43,128	0,103	-0,038
-193,475	800,000	0,022	0,047
-192,460	76,342	0,045	0,035
-191,446	53,702	0,052	0,036
-190,431	166,322	0,059	-0,061
-189,417	800,000	-0,028	0,079
-188,402	341,615	-0,028	0,040
-187,387	800,000	0,036	-0,077
-186,373	142,804	-0,054	0,053
-185,358	800,000	0,026	0,081
-184,344	210,201	-0,045	0,051
-183,329	588,528	-0,053	-0,095
-182,315	494,669	-0,050	-0,083
-181,300	-160,406	0,135	-0,005
-180,285	-200,000	0,033	0,126
-179,271	-156,942	0,054	-0,002
-178,256	800,000	0,019	0,046
-177,242	183,519	-0,051	-0,055
-176,227	-28,028	-0,122	-0,051
-175,212	-200,000	-0,001	0,168
-174,198	428,745	0,030	0,047
-173,183	800,000	0,060	-0,187
-172,169	9,146	-0,114	-0,063
-171,154	-84,544	0,064	-0,014
-170,139	-54,104	0,045	-0,015
-169,125	274,155	0,059	0,077
-168,110	800,000	0,030	0,096
-167,096	800,000	-0,036	-0,108
-166,081	-200,000	-0,022	0,078
-165,066	-44,521	-0,058	0,021
-164,052	800,000	-0,038	0,107
-163,037	-200,000	0,009	0,082
-162,023	-192,166	0,121	0,001
-161,008	-200,000	0,038	0,151
-159,993	79,726	-0,047	0,036
-158,979	64,661	-0,093	-0,068
-157,964	-67,427	0,125	0,036
-156,950	800,000	-0,025	-0,075
-155,935	51,532	-0,119	-0,082
-154,920	-138,414	0,015	-0,001
-153,906	-41,558	0,095	0,035
-152,891	-200,000	-0,009	-0,076
-151,877	-40,280	-0,050	0,019
-150,862	390,417	-0,011	-0,017
-149,847	-64,028	0,023	0,007
-148,833	304,411	-0,074	-0,100
-147,818	575,290	-0,022	0,038
-146,804	-144,818	-0,097	-0,006
-145,789	66,895	0,071	0,052
-144,775	-142,224	-0,084	-0,006
-143,760	90,542	-0,112	-0,092
-142,745	-32,363	0,116	0,047
-141,731	537,213	-0,035	0,060
-140,716	-200,000	-0,001	-0,045
-139,702	-95,013	0,142	0,028
-138,687	405,036	0,035	0,054
-137,672	-79,876	-0,129	-0,031
-136,658	120,773	-0,073	-0,066
-135,643	800,000	-0,032	-0,095
-134,629	-10,660	-0,043	-0,021
-133,614	-200,000	0,008	-0,053
-132,599	496,305	-0,039	0,065
-131,585	-200,000	-0,048	0,165
-130,570	65,007	-0,085	-0,063
-129,556	-200,000	-0,002	-0,134
-128,541	-139,099	-0,116	-0,009
-127,526	-101,909	0,107	-0,019
-126,512	800,000	-0,038	-0,081
-125,497	-200,000	0,037	0,143
-124,483	391,111	0,026	0,039
-123,468	-44,477	-0,136	0,049
-122,453	-46,093	-0,061	-0,022
-121,439	-55,957	0,072	-0,023
-120,424	376,175	0,081	0,121
-119,410	-18,794	0,065	0,029
-118,395	91,805	-0,071	0,058
-117,380	800,000	0,060	0,129
-116,366	-73,348	0,067	-0,018
-115,351	109,363	-0,032	-0,028
-114,337	-101,689	0,043	0,008
-113,322	476,577	-0,042	-0,069
-112,307	-200,000	0,007	-0,127
-111,293	-143,329	0,112	-0,008
-110,278	32,443	-0,189	0,118
-109,264	266,543	0,054	0,069
-108,249	212,310	-0,117	-0,134
-107,234	800,000	-0,018	0,044
-106,220	-50,726	-0,102	-0,035
-105,205	231,880	0,068	-0,081
-104,191	800,000	0,023	-0,059
-103,176	529,963	-0,023	0,039
-102,162	-200,000	-0,015	-0,114
-101,147	-200,000	-0,007	-0,025
-100,132	-200,000	-0,015	-0,110
-99,118	54,384	0,037	-0,026
-98,103	151,001	0,090	-0,089
-97,089	800,000	0,035	0,090
-96,074	109,297	0,094	0,082
-95,059	-196,292	-0,036	0,000
-94,045	-55,294	-0,080	-0,026
-93,030	-186,071	-0,079	0,001
-92,016	-86,005	-0,082	0,018
-91,001	445,326	0,086	0,137
-89,986	-55,133	0,136	0,044
-88,972	-74,457	0,083	0,022
-87,957	4,914	-0,108	-0,058
-86,943	39,952	0,075	-0,049
-85,928	-68,678	0,010	-0,003
-84,913	800,000	-0,034	-0,082
-83,899	-12,690	0,087	0,041
-82,884	33,538	-0,047	-0,030
-81,870	-200,000	-0,010	0,106
-80,855	261,737	-0,027	-0,034
-79,840	-69,829	0,024	-0,006
-78,826	276,250	-0,085	-0,110
-77,811	-200,000	-0,016	0,052
-76,797	-31,502	-0,147	-0,060
-75,782	124,346	-0,115	0,105
-74,767	-84,254	0,096	0,022
-73,753	136,547	-0,095	-0,090
-72,738	187,928	-0,049	0,053
-71,724	-151,213	-0,055	0,003
-70,709	-22,815	0,112	-0,049
-69,694	195,954	-0,061	-0,068
-68,680	-79,349	-0,055	0,013
-67,665	-43,105	-0,140	0,051
-66,651	-200,000	-0,029	0,115
-65,636	58,237	-0,042	0,029
-64,622	-200,000	-0,014	0,127
-63,607	-125,844	-0,057	0,006
-62,592	230,214	-0,078	0,093
-61,578	225,248	0,025	0,029
-60,563	800,000	0,028	-0,057
-59,549	-73,511	-0,078	0,021
-58,534	-135,815	-1,479	-0,125
-57,519	800,000	-0,656	-1,530
-56,505	-200,000	-1,116	-4,539
-55,490	-39,620	0,598	-0,226
-54,476	800,000	5,026	11,765
-53,461	-200,000	14,317	253,708
-52,446	800,000	696,739	2228,141
-51,432	565,335	1624,514	2865,081
-50,417	116,766	1630,542	1449,697
-49,403	73,124	1284,311	971,678
-48,388	37,432	1022,022	655,159
-47,373	23,622	980,694	583,339
-46,359	22,833	970,308	574,555
-45,344	21,769	965,821	568,407
-44,330	21,740	964,542	567,537
-43,315	21,606	962,891	566,107
-42,300	21,632	961,914	565,593
-41,286	21,621	960,825	564,898
-40,271	21,585	959,899	564,214
-39,257	21,545	959,059	563,567
-38,242	21,525	958,140	562,939
-37,227	21,550	957,416	562,575
-36,213	21,570	956,324	561,974
-35,198	21,459	955,392	561,046
-34,184	21,552	954,863	561,014
-33,169	21,580	953,983	560,563
-32,154	21,692	952,902	560,267
-31,140	21,631	952,104	559,578
-30,125	21,645	951,354	559,159
-29,111	21,551	950,689	558,445
-28,096	21,621	949,786	558,120
-27,082	21,557	949,153	557,520
-26,067	21,576	948,363	557,095
-25,052	21,594	947,757	556,773
-24,038	21,591	946,994	556,294
-23,023	21,520	946,572	555,798
-22,009	21,597	945,776	555,554
-20,994	21,570	945,190	555,101
-19,979	21,597	944,618	554,828
-18,965	21,631	943,727	554,391
-17,950	21,598	943,288	554,007
-16,936	21,540	942,489	553,331
-15,921	21,622	941,801	553,167
-14,906	21,449	941,189	552,235
-13,892	21,470	940,469	551,856
-12,877	21,414	939,924	551,338
-11,863	21,500	939,111	551,113
-10,848	21,479	938,863	550,878
-9,833	21,556	938,285	550,759
-8,819	21,526	937,689	550,294
-7,804	21,463	937,224	549,801
-6,790	21,468	936,371	549,295
-5,775	21,509	935,860	549,102
-4,760	21,536	935,221	548,789
-3,746	21,454	934,680	548,191
-2,731	21,336	933,813	547,290
-1,717	21,261	933,285	546,721
-0,702	21,260	932,578	546,285
0,313	21,128	931,844	546,263
1,327	24,123	929,877	554,457
2,342	33,478	793,524	497,982
3,356	31,103	450,337	279,019
4,371	0,828	294,131	152,005
5,386	-3,511	275,010	138,005
6,400	-4,765	269,387	134,007
7,415	-5,297	266,922	132,280
8,429	-4,875	265,801	132,099
9,444	-4,960	264,782	131,503
10,459	-5,123	264,143	131,025
11,473	-5,114	263,790	130,847
12,488	-5,071	263,111	130,538
13,502	-5,185	262,700	130,219
14,517	-5,309	262,243	129,868
15,531	-5,421	261,949	129,610
16,546	-5,147	261,363	129,556
17,561	-5,150	261,002	129,363
18,575	-5,092	260,718	129,262
19,590	-5,278	260,402	128,927
20,604	-5,280	260,115	128,772
21,619	-5,452	259,923	128,511
22,634	-5,434	259,577	128,345
23,648	-5,340	259,165	128,213
24,663	-5,348	258,986	128,106
25,677	-5,330	258,713	127,976
26,692	-5,150	258,466	128,003
27,707	-5,315	258,061	127,644
28,721	-5,442	257,935	127,457
29,736	-5,320	257,630	127,404
30,750	-5,476	257,373	127,128
31,765	-5,404	257,208	127,098
32,780	-5,243	256,800	127,028
33,794	-5,252	256,614	126,916
34,809	-5,321	256,465	126,770
35,823	-5,389	256,209	126,572
36,838	-5,236	255,905	126,546
37,853	-5,350	255,633	126,300
38,867	-5,441	255,407	126,097
39,882	-5,545	255,343	125,963
40,896	-5,499	255,069	125,856
41,911	-5,398	254,731	125,767
42,926	-5,266	254,611	125,812
43,940	-5,362	254,374	125,600
44,955	-5,465	254,021	125,325
45,969	-5,388	253,799	125,271
46,984	-5,545	253,547	124,999
47,999	-5,863	253,338	124,608
49,013	-5,879	253,070	124,451
50,028	-6,059	253,005	124,251
51,042	-6,203	252,690	123,960
52,057	-6,142	252,407	123,863
53,071	-6,061	252,315	123,877
54,086	-5,932	252,240	123,941
55,101	-5,706	251,775	123,897
56,115	-5,809	251,779	123,799
57,130	-5,337	251,626	124,120
58,144	-4,877	251,425	124,408
59,159	-5,013	251,212	124,173
60,174	-5,153	251,082	123,978
61,188	-5,018	250,841	123,964
62,203	-5,187	250,647	123,712
63,217	-5,380	250,507	123,466
64,232	-5,010	250,293	123,667
65,247	-5,098	249,976	123,423
66,261	-5,030	249,705	123,337
67,276	-5,394	249,406	122,867
68,290	-5,572	249,202	122,603
69,305	-5,685	249,228	122,509
70,320	-5,634	248,786	122,324
71,334	-5,492	248,775	122,429
72,349	-5,012	248,602	122,742
73,363	-5,083	248,372	122,557
74,378	-5,171	248,259	122,415
75,393	-5,177	248,002	122,273
76,407	-5,141	247,719	122,152
77,422	-5,328	247,519	121,884
78,436	-5,207	247,303	121,870
79,451	-5,165	247,148	121,818
80,466	-5,165	246,913	121,692
81,480	-5,355	246,644	121,388
82,495	-5,392	246,419	121,235
83,509	-5,478	246,382	121,133
84,524	-5,472	246,236	121,056
85,539	-5,626	245,990	120,794
86,553	-5,756	245,707	120,535
87,568	-5,591	245,625	120,622
88,582	-5,492	245,438	120,603
89,597	-5,424	245,151	120,509
90,611	-5,308	244,996	120,519
91,626	-5,277	244,855	120,465
92,641	-5,521	244,811	120,228
93,655	-5,227	244,515	120,318
94,670	-5,452	244,244	119,986
95,684	-5,682	244,159	119,741
96,699	-5,392	243,847	119,820
97,714	-5,430	243,807	119,757
98,728	-5,392	243,444	119,600
99,743	-5,737	243,478	119,319
100,757	-5,451	243,106	119,364
101,772	-5,723	243,042	119,096
102,787	-5,507	242,780	119,136
103,801	-5,400	242,630	119,141
104,816	-5,356	242,586	119,144
105,830	-5,374	242,495	119,074
106,845	-5,240	242,281	119,070
107,860	-5,313	241,866	118,794
108,874	-5,322	241,676	118,684
109,889	-5,510	241,582	118,471
110,903	-5,492	241,420	118,396
111,918	-5,466	241,163	118,281
112,933	-5,309	240,989	118,315
113,947	-5,434	240,920	118,168
114,962	-5,290	240,829	118,230
115,976	-5,434	240,560	117,969
116,991	-5,414	240,346	117,870
118,006	-5,386	240,104	117,764
119,020	-5,313	240,167	117,845
120,035	-5,218	240,018	117,839
121,049	-5,274	239,923	117,736
122,064	-5,223	239,515	117,567
123,079	-5,335	239,423	117,420
124,093	-5,399	239,271	117,282
125,108	-5,531	238,906	116,985
126,122	-5,567	238,665	116,827
127,137	-5,824	238,601	116,577
128,151	-5,678	238,324	116,549
129,166	-5,572	238,213	116,571
130,181	-5,360	237,876	116,568
131,195	-5,672	237,907	116,320
132,210	-5,476	237,732	116,382
133,224	-5,490	237,673	116,332
134,239	-5,361	237,534	116,358
135,254	-5,238	237,321	116,343
136,268	-5,472	237,127	116,048
137,283	-5,923	236,784	115,506
138,297	-5,703	236,584	115,575
139,312	-5,649	236,483	115,559
140,327	-5,562	236,460	115,608
141,341	-5,165	236,218	115,799
142,356	-4,909	236,022	115,898
143,370	-5,006	235,875	115,738
144,385	-4,923	235,874	115,793
145,400	-5,074	235,700	115,577
146,414	-4,883	235,396	115,570
147,429	-5,149	235,321	115,310
148,443	-5,019	235,109	115,300
149,458	-5,166	234,834	115,037
150,473	-5,098	234,715	115,023
151,487	-4,988	234,560	115,025
152,502	-5,235	234,466	114,772
153,516	-4,916	234,339	114,953
154,531	-4,894	234,107	114,847
155,546	-5,101	233,879	114,560
156,560	-5,207	233,751	114,402
157,575	-5,181	233,719	114,397
158,589	-5,269	233,397	114,160
159,604	-4,973	233,244	114,309
160,619	-5,051	233,080	114,158
161,633	-5,065	232,923	114,059
162,648	-5,042	232,823	114,018
163,662	-5,176	232,761	113,871
164,677	-5,206	232,563	113,741
165,692	-5,047	232,294	113,725
166,706	-4,909	232,207	113,781
167,721	-4,895	232,099	113,729
168,735	-4,938	231,919	113,597
169,750	-4,800	231,672	113,574
170,764	-4,981	231,613	113,393
171,779	-5,014	231,556	113,328
172,794	-4,806	231,324	113,368
173,808	-4,982	230,983	113,053
174,823	-5,365	230,764	112,636
175,837	-5,396	230,522	112,483
176,852	-5,523	230,684	112,452
177,867	-5,003	230,444	112,733
178,881	-4,919	230,230	112,683
179,896	-5,159	230,266	112,503
180,910	-4,937	229,984	112,530
181,925	-4,853	229,896	112,541
182,940	-4,872	229,595	112,370
183,954	-5,015	229,601	112,251
184,969	-4,918	229,413	112,224
185,983	-4,772	229,329	112,287
186,998	-4,796	229,098	112,145
188,013	-4,933	229,005	111,983
189,027	-4,786	228,778	111,976
190,042	-4,744	228,718	111,970
191,056	-4,681	228,405	111,855
192,071	-4,679	228,223	111,758
193,086	-4,787	228,230	111,667
194,100	-4,718	228,017	111,607
195,115	-4,836	227,753	111,376
196,129	-5,284	227,709	110,999
197,144	-2,203	228,674	113,847
198,159	1,894	229,841	117,601
199,173	3,780	230,195	119,236
200,188	3,967	230,164	119,354
201,202	3,924	229,901	119,175
202,217	3,993	229,854	119,192
203,232	4,174	229,760	119,273
204,246	4,265	229,650	119,276
205,261	4,516	229,364	119,311
206,275	4,492	229,468	119,335
207,290	4,580	229,187	119,247
208,304	4,611	228,990	119,157
209,319	4,687	228,724	119,067
210,334	4,148	228,732	118,645
211,348	4,360	228,303	118,575
212,363	3,936	228,087	118,127
213,377	3,587	227,945	117,775
214,392	3,736	227,846	117,827
215,407	3,610	227,844	117,720
216,421	3,911	227,581	117,803
217,436	3,859	227,209	117,561
218,450	3,574	227,139	117,296
219,465	3,548	227,009	117,199
220,480	3,347	226,921	116,989
221,494	3,477	226,661	116,944
222,509	3,687	226,632	117,079
223,523	3,739	226,479	117,029
224,538	3,595	226,282	116,807
225,553	3,652	226,110	116,752
226,567	3,728	226,043	116,764
227,582	3,905	226,095	116,915
228,596	4,013	225,961	116,918
229,611	3,629	225,795	116,530
230,626	3,453	225,339	116,151
231,640	3,496	225,335	116,171
232,655	3,929	225,209	116,423
233,669	4,355	225,172	116,716
234,684	4,463	225,138	116,770
235,699	4,194	224,752	116,357
236,713	3,860	224,701	116,068
237,728	3,844	224,442	115,911
238,742	3,507	224,203	115,523
239,757	3,613	224,077	115,527
240,772	3,538	224,000	115,422
241,786	3,860	223,668	115,482
242,801	3,653	223,887	115,429
243,815	4,047	223,659	115,597
244,830	4,128	223,470	115,550
245,844	4,002	223,241	115,326
246,859	3,907	223,251	115,251
247,874	3,992	223,036	115,193
248,888	3,991	222,836	115,078
249,903	3,691	222,832	114,842
250,917	3,792	222,516	114,744
251,932	3,811	222,436	114,707
252,947	3,557	222,275	114,424
253,961	3,693	222,137	114,445
254,976	3,700	221,940	114,338
255,990	3,819	221,887	114,389
257,005	3,885	221,737	114,350
258,020	3,884	221,654	114,297
259,034	4,104	221,477	114,358
260,049	3,962	221,313	114,158
261,063	3,907	221,171	114,034
262,078	4,200	220,875	114,088
263,093	4,292	220,845	114,131
264,107	4,100	220,653	113,879
265,122	3,947	220,480	113,666
266,136	4,110	220,590	113,834
267,151	4,134	220,469	113,779
268,166	3,605	220,032	113,154
269,180	3,516	219,926	113,023
270,195	3,686	219,858	113,103
271,209	3,654	219,496	112,884
272,224	3,885	219,400	112,993
273,239	3,680	219,419	112,843
274,253	3,526	219,293	112,655
275,268	3,491	219,060	112,500
276,282	3,454	218,876	112,368
277,297	3,560	218,745	112,368
278,312	3,525	218,640	112,278
279,326	3,782	218,651	112,463
280,341	3,657	218,430	112,247
281,355	3,924	218,140	112,283
282,370	3,597	218,018	111,971
283,384	3,629	217,799	111,873
284,399	3,144	217,621	111,418
285,414	3,289	217,593	111,500
286,428	3,741	217,615	111,830
287,443	3,932	217,365	111,830
288,457	3,812	217,413	111,758
289,472	3,720	217,106	111,523
290,487	3,328	216,886	111,116
291,501	3,282	216,666	110,960
292,516	3,423	216,515	110,974
293,530	3,475	216,371	110,929
294,545	3,241	216,327	110,727
295,560	3,366	216,287	110,787
296,574	3,664	216,225	110,960
297,589	3,641	215,893	110,764
298,603	3,670	215,808	110,731
299,618	3,990	215,737	110,915
300,633	3,830	215,708	110,776
301,647	4,074	215,558	110,865
302,662	4,103	215,449	110,819
303,676	3,896	215,284	110,576
304,691	3,862	215,105	110,449
305,706	3,974	214,967	110,449
306,720	4,030	214,873	110,432
307,735	3,622	214,658	110,019
308,749	3,618	214,422	109,885
309,764	3,888	214,402	110,058
310,779	4,145	214,305	110,182
311,793	3,903	214,240	109,965
312,808	3,831	214,073	109,819
313,822	4,017	213,806	109,805
314,837	3,942	213,583	109,627
315,852	3,515	213,534	109,288
316,866	3,731	213,541	109,436
317,881	3,910	213,367	109,464
318,895	4,016	213,236	109,463
319,910	3,881	212,906	109,187
320,925	3,522	212,704	108,819
321,939	3,093	212,677	108,492
322,954	3,343	212,551	108,595
323,968	3,937	212,501	108,981
324,983	3,992	212,313	108,914
325,997	3,932	212,325	108,868
327,012	3,851	212,114	108,692
328,027	3,809	211,882	108,534
329,041	4,155	211,936	108,797
330,056	4,322	211,725	108,796
331,070	3,688	211,637	108,294
332,085	3,493	211,270	107,959
333,100	3,721	211,175	108,062
334,114	4,007	210,925	108,125
335,129	3,777	210,888	107,935
336,143	3,583	210,803	107,746
337,158	3,567	210,599	107,620
338,173	3,850	210,542	107,781
339,187	3,557	210,411	107,498
340,202	3,191	210,334	107,193
341,216	3,116	210,080	107,002
342,231	3,447	209,967	107,166
343,246	3,734	209,808	107,275
344,260	3,433	209,844	107,074
345,275	3,679	209,472	107,047
346,289	3,909	209,458	107,190
347,304	3,919	209,331	107,122
348,319	3,799	209,294	107,010
349,333	3,839	209,066	106,912
350,348	3,715	208,898	106,730
351,362	3,881	209,036	106,907
352,377	3,491	208,968	106,591
353,392	3,763	208,584	106,575
354,406	3,838	208,579	106,614
355,421	195,097	1342,961	1433,070
356,435	155,730	1481,252	1433,161
