DTS Sentinel unit serial number:	SN410029Multiplexer serial number:	ORYXHardware model number:	OX2-SRSoftware version number:	ORYX F/W v4,00 Oryx Data Collector v3.7.2.0data status	okinstallation	B6 Nyhavnadifferential loss correction	single-endedforward channel	channel 2reverse channel	N/Adate	2023/12/09time	05:50:08forward acquisition time	300,00reverse acquisition time	0,00gamma	499,1914k internal	0,3142k external	0,3142temperature offset calibration	1,0000default loss term (dB/km)	0,3820temperature slope calibration	1,0000multiplexer offset coefficient	1,0000multiplexer slope coefficient	1,0000fibre end	0,00T internal ref (°C)	18,15T ext. ref 1 (°C)	2,35T ext. ref 2 (°C)	2,38length (m)	temperature (°C)	Stokes	anti-Stokes-744,400	680,719	0,091	-0,176
-743,385	34,956	-0,196	0,127
-742,371	-139,206	0,082	0,006
-741,356	-112,979	-0,296	-0,043
-740,342	451,536	0,018	-0,030
-739,327	-46,538	-0,192	0,069
-738,312	252,645	-0,081	-0,103
-737,298	-161,835	-0,229	-0,008
-736,283	150,784	0,081	0,082
-735,269	-144,511	-0,284	0,019
-734,254	-144,563	0,166	-0,011
-733,239	-76,680	-0,582	-0,150
-732,225	-72,812	0,215	0,058
-731,210	692,770	-0,056	0,110
-730,196	-73,892	-0,105	-0,028
-729,181	134,131	-0,081	-0,077
-728,167	148,916	0,036	0,036
-727,152	-85,266	-0,071	-0,016
-726,137	223,814	-0,107	-0,128
-725,123	-83,842	-0,072	0,017
-724,108	226,418	-0,128	-0,153
-723,094	-126,554	-0,084	0,009
-722,079	-200,000	0,019	-0,062
-721,064	800,000	0,035	0,090
-720,050	93,299	-0,083	-0,070
-719,035	800,000	-0,020	0,064
-718,021	18,134	-0,096	0,057
-717,006	-118,415	-0,068	-0,009
-715,991	674,036	0,035	-0,067
-714,977	-82,809	0,040	0,010
-713,962	-33,842	0,080	-0,032
-712,948	-35,312	-0,074	-0,030
-711,933	-87,787	0,047	-0,010
-710,918	-200,000	-0,004	0,030
-709,904	800,000	-0,040	-0,091
-708,889	55,944	0,050	0,036
-707,875	-76,882	-0,039	0,010
-706,860	-200,000	0,009	0,082
-705,845	-25,201	-0,070	0,031
-704,831	-113,311	0,034	0,005
-703,816	-23,431	-0,087	-0,038
-702,802	311,494	0,078	0,109
-701,787	225,286	-0,016	-0,019
-700,772	-39,991	0,154	-0,059
-699,758	380,589	0,056	-0,084
-698,743	-159,674	-0,187	-0,007
-697,729	-13,914	-0,098	-0,047
-696,714	800,000	0,025	0,069
-695,699	-104,397	0,056	-0,009
-694,685	800,000	-0,035	-0,090
-693,670	-56,145	-0,094	0,031
-692,656	798,760	0,004	-0,008
-691,641	257,718	-0,023	0,029
-690,627	-25,071	0,093	0,041
-689,612	-200,000	0,007	0,057
-688,597	202,962	-0,061	-0,070
-687,583	141,049	-0,161	-0,158
-686,568	-200,000	0,006	-0,081
-685,554	-200,000	-0,008	-0,112
-684,539	-200,000	0,012	-0,275
-683,524	-200,000	-0,010	0,039
-682,510	187,814	0,045	-0,049
-681,495	349,442	-0,036	-0,053
-680,481	181,092	-0,008	0,009
-679,466	33,794	-0,167	-0,107
-678,451	174,257	-0,091	0,097
-677,437	800,000	-0,020	0,052
-676,422	-38,711	-0,081	0,032
-675,408	800,000	-0,020	0,051
-674,393	398,847	0,113	0,175
-673,378	-200,000	0,012	-0,141
-672,364	51,089	-0,149	0,104
-671,349	69,185	0,081	-0,062
-670,335	125,212	0,076	0,071
-669,320	800,000	-0,018	0,051
-668,305	800,000	-0,024	0,055
-667,291	-129,013	0,035	-0,004
-666,276	-200,000	0,023	-0,086
-665,262	-200,000	0,005	-0,018
-664,247	134,730	0,048	0,046
-663,232	800,000	-0,035	-0,087
-662,218	-172,853	-0,093	-0,002
-661,203	49,747	-0,108	0,075
-660,189	-200,000	-0,008	-0,063
-659,174	680,528	0,008	-0,015
-658,159	559,305	-0,054	-0,097
-657,145	-122,895	-0,041	0,005
-656,130	-200,000	-0,014	-0,190
-655,116	-88,885	0,017	-0,004
-654,101	-73,313	0,089	0,024
-653,086	82,946	-0,103	0,083
-652,072	731,838	-0,026	0,051
-651,057	511,812	0,035	0,061
-650,043	181,728	-0,089	-0,096
-649,028	-200,000	0,001	0,021
-648,014	107,423	0,116	0,102
-646,999	149,046	0,043	0,043
-645,984	50,324	-0,036	-0,025
-644,970	-200,000	-0,037	0,195
-643,955	40,704	-0,051	0,034
-642,941	128,273	-0,080	-0,075
-641,926	-108,760	0,149	-0,023
-640,911	-133,636	0,051	0,005
-639,897	-200,000	-0,009	0,204
-638,882	-200,000	0,002	0,101
-637,868	-90,873	-0,037	0,008
-636,853	762,312	-0,068	-0,137
-635,838	116,303	0,115	-0,104
-634,824	-42,531	0,021	-0,008
-633,809	310,558	-0,017	0,023
-632,795	57,048	0,075	0,054
-631,780	-78,323	0,099	-0,025
-630,765	-127,999	-0,070	-0,007
-629,751	800,000	0,063	-0,173
-628,736	-134,675	-0,064	0,006
-627,722	-40,245	-0,068	-0,026
-626,707	154,086	-0,050	0,051
-625,692	575,201	-0,065	0,117
-624,678	-103,518	0,061	-0,010
-623,663	800,000	0,007	-0,018
-622,649	-200,000	-0,017	-0,069
-621,634	52,103	0,076	0,053
-620,619	24,452	-0,120	0,073
-619,605	192,664	0,028	0,031
-618,590	-157,376	0,058	-0,003
-617,576	86,439	0,082	0,066
-616,561	-200,000	-0,003	-0,013
-615,546	-37,721	0,087	-0,034
-614,532	800,000	-0,019	0,045
-613,517	650,421	-0,037	-0,069
-612,503	-200,000	-0,024	-0,080
-611,488	-200,000	-0,019	-0,209
-610,474	120,600	-0,092	-0,084
-609,459	-200,000	-0,052	0,205
-608,444	800,000	0,074	-0,175
-607,430	-200,000	-0,007	0,023
-606,415	-200,000	-0,011	-0,130
-605,401	-59,677	0,062	0,020
-604,386	45,709	0,067	-0,046
-603,371	-200,000	-0,019	-0,125
-602,357	800,000	0,030	0,084
-601,342	-200,000	-0,024	0,108
-600,328	30,795	-0,052	0,033
-599,313	-17,389	-0,092	0,043
-598,298	-200,000	-0,013	-0,101
-597,284	38,651	-0,097	-0,064
-596,269	750,748	0,063	0,127
-595,255	-200,000	0,026	0,090
-594,240	65,809	-0,065	0,049
-593,225	-163,199	-0,074	0,003
-592,211	360,372	-0,060	-0,088
-591,196	-200,000	0,006	-0,128
-590,182	110,409	0,075	-0,066
-589,167	534,198	-0,069	0,121
-588,152	712,170	0,033	0,064
-587,138	5,650	0,114	0,062
-586,123	-200,000	0,019	-0,130
-585,109	-200,000	-0,006	0,044
-584,094	10,494	-0,075	-0,042
-583,079	800,000	0,008	-0,022
-582,065	-29,235	0,022	0,009
-581,050	-86,762	0,121	0,027
-580,036	-34,500	-0,042	-0,017
-579,021	129,007	-0,062	-0,059
-578,006	-22,875	0,074	-0,033
-576,992	-200,000	-0,011	-0,162
-575,977	-148,857	0,034	0,002
-574,963	-200,000	-0,004	0,035
-573,948	-200,000	0,014	0,054
-572,934	-44,633	-0,040	-0,015
-571,919	-24,053	-0,067	-0,030
-570,904	-200,000	0,046	-0,169
-569,890	800,000	0,016	-0,047
-568,875	-107,172	-0,015	0,002
-567,861	598,533	0,077	0,141
-566,846	-200,000	-0,005	0,091
-565,831	68,698	-0,068	0,051
-564,817	-200,000	0,021	0,113
-563,802	15,770	0,047	0,027
-562,788	800,000	-0,005	0,011
-561,773	-88,458	-0,047	0,010
-560,758	-64,858	0,106	0,031
-559,744	376,249	-0,099	-0,149
-558,729	800,000	-0,037	-0,082
-557,715	-60,010	0,119	0,037
-556,700	-74,391	-0,072	-0,019
-555,685	776,821	-0,066	-0,133
-554,671	121,789	0,024	0,022
-553,656	-8,754	0,047	-0,023
-552,642	-200,000	0,015	0,117
-551,627	-73,712	-0,113	0,030
-550,612	-122,490	0,161	0,019
-549,598	-200,000	0,015	-0,053
-548,583	-142,388	-0,100	-0,007
-547,569	19,992	0,069	0,041
-546,554	-76,542	0,125	0,032
-545,539	11,740	0,121	0,068
-544,525	726,544	0,062	-0,122
-543,510	-170,841	-0,146	-0,004
-542,496	-120,961	0,034	0,004
-541,481	-67,311	0,077	-0,022
-540,466	800,000	-0,031	0,083
-539,452	800,000	0,035	0,110
-538,437	-120,910	0,021	0,003
-537,423	-129,148	-0,032	0,003
-536,408	800,000	-0,008	0,020
-535,393	-118,896	-0,244	-0,031
-534,379	119,962	-0,020	0,018
-533,364	189,282	-0,094	0,103
-532,350	-200,000	-0,038	0,234
-531,335	-200,000	-0,021	0,120
-530,321	-200,000	-0,018	0,061
-529,306	73,294	-0,141	0,108
-528,291	6,113	-0,052	-0,028
-527,277	-94,780	-0,048	0,010
-526,262	25,698	-0,049	0,030
-525,248	-144,417	-0,103	-0,007
-524,233	-200,000	0,026	0,104
-523,218	-85,030	0,096	-0,022
-522,204	-8,838	-0,028	0,014
-521,189	-14,985	-0,086	0,041
-520,175	-5,379	-0,141	0,071
-519,160	235,177	0,019	0,024
-518,145	-106,965	0,027	0,004
-517,131	92,927	0,067	0,055
-516,116	-40,241	0,106	0,040
-515,102	-17,778	0,063	0,029
-514,087	571,323	0,018	-0,032
-513,072	391,444	0,046	0,070
-512,058	-23,644	-0,072	-0,032
-511,043	-127,785	-0,041	-0,004
-510,029	279,306	0,075	-0,099
-509,014	800,000	-0,039	0,079
-507,999	-200,000	0,006	0,136
-506,985	-95,988	0,138	0,027
-505,970	-200,000	-0,003	-0,047
-504,956	800,000	-0,039	-0,088
-503,941	800,000	0,042	-0,119
-502,926	134,773	0,071	-0,068
-501,912	-200,000	0,031	0,119
-500,897	197,827	0,030	0,034
-499,883	-200,000	-0,023	-0,098
-498,868	-200,000	0,006	0,082
-497,853	229,959	0,052	-0,063
-496,839	162,512	0,090	-0,093
-495,824	-200,000	-0,003	0,119
-494,810	256,827	-0,053	0,067
-493,795	-123,427	0,064	0,007
-492,781	613,579	0,087	-0,160
-491,766	-200,000	-0,007	0,024
-490,751	251,448	-0,015	-0,019
-489,737	609,266	0,039	-0,072
-488,722	-74,070	0,176	0,047
-487,708	-200,000	0,012	0,080
-486,693	60,839	-0,168	0,122
-485,678	-200,000	-0,011	-0,138
-484,664	409,716	-0,022	-0,034
-483,649	-187,713	-0,077	0,001
-482,635	-74,627	0,156	-0,041
-481,620	-65,920	0,060	0,018
-480,605	-103,558	-0,102	0,017
-479,591	41,004	0,016	-0,010
-478,576	800,000	-0,065	-0,154
-477,562	73,374	0,085	0,065
-476,547	-115,701	-0,055	-0,007
-475,532	-200,000	-0,007	-0,085
-474,518	800,000	0,037	-0,109
-473,503	-200,000	0,005	0,174
-472,489	92,745	-0,035	0,029
-471,474	-91,996	-0,075	0,016
-470,459	-54,125	-0,037	-0,012
-469,445	-175,685	0,127	0,002
-468,430	-104,806	-0,106	-0,018
-467,416	-56,642	0,097	0,031
-466,401	-200,000	0,004	0,106
-465,386	443,577	-0,052	0,083
-464,372	-155,506	0,101	-0,005
-463,357	103,177	-0,060	-0,052
-462,343	-200,000	-0,007	0,024
-461,328	7,110	-0,113	0,062
-460,313	281,191	-0,050	0,066
-459,299	-129,686	0,187	0,019
-458,284	-200,000	0,006	0,037
-457,270	-200,000	0,008	0,124
-456,255	271,338	-0,038	-0,049
-455,241	167,164	0,104	-0,108
-454,226	9,372	-0,100	-0,055
-453,211	92,631	0,114	-0,094
-452,197	-69,879	-0,046	-0,013
-451,182	538,438	-0,029	-0,050
-450,168	-59,043	-0,092	-0,029
-449,153	800,000	-0,040	0,081
-448,138	-107,063	-0,131	0,021
-447,124	-200,000	0,028	-0,146
-446,109	-98,761	-0,063	0,012
-445,095	507,251	0,015	-0,026
-444,080	-200,000	-0,047	0,219
-443,065	-200,000	-0,032	0,182
-442,051	-18,463	-0,132	-0,060
-441,036	800,000	-0,027	-0,064
-440,022	-200,000	0,029	0,126
-439,007	17,725	0,145	0,084
-437,992	-163,042	0,032	-0,001
-436,978	-46,716	-0,011	0,004
-435,963	-108,173	-0,165	-0,026
-434,949	348,727	0,104	-0,151
-433,934	-166,894	-0,126	-0,004
-432,919	180,218	-0,043	-0,047
-431,905	368,379	-0,080	-0,119
-430,890	-74,397	0,088	0,023
-429,876	94,255	0,141	0,117
-428,861	-136,977	-0,137	0,011
-427,846	-96,560	0,172	-0,033
-426,832	1,055	-0,016	0,009
-425,817	-200,000	-0,011	-0,054
-424,803	-56,749	-0,119	0,038
-423,788	-103,943	-0,074	-0,013
-422,773	-116,353	0,188	0,025
-421,759	800,000	-0,054	0,122
-420,744	346,930	-0,142	0,205
-419,730	-62,181	0,040	0,012
-418,715	-72,653	-0,165	-0,044
-417,701	-200,000	0,005	0,066
-416,686	800,000	0,037	0,107
-415,671	-200,000	-0,030	0,105
-414,657	58,963	0,146	0,105
-413,642	-97,890	0,021	0,004
-412,628	-152,749	-0,083	-0,004
-411,613	645,852	-0,017	0,031
-410,598	-200,000	-0,013	-0,113
-409,584	147,022	0,037	0,036
-408,569	517,250	0,080	0,137
-407,555	-200,000	-0,001	-0,024
-406,540	-29,301	0,117	-0,049
-405,525	-200,000	0,018	-0,057
-404,511	92,055	-0,099	-0,082
-403,496	-200,000	-0,054	-0,191
-402,482	-48,428	-0,061	-0,022
-401,467	-142,114	0,109	-0,008
-400,452	121,447	0,064	-0,058
-399,438	-107,726	0,125	0,020
-398,423	68,151	0,051	0,038
-397,409	-200,000	0,004	-0,069
-396,394	425,851	-0,018	-0,029
-395,379	-200,000	-0,003	-0,029
-394,365	-124,828	-0,096	0,011
-393,350	-200,000	-0,001	-0,008
-392,336	-200,000	-0,020	0,075
-391,321	48,214	0,086	-0,058
-390,306	-181,458	0,033	-0,000
-389,292	766,609	-0,047	-0,093
-388,277	-60,848	0,077	-0,024
-387,263	800,000	0,044	-0,114
-386,248	800,000	-0,015	-0,040
-385,233	-200,000	-0,017	0,139
-384,219	-200,000	-0,017	0,104
-383,204	-200,000	0,001	-0,078
-382,190	-10,646	-0,162	0,078
-381,175	800,000	-0,045	-0,118
-380,160	-200,000	0,002	0,051
-379,146	562,551	0,083	-0,147
-378,131	323,336	0,113	-0,157
-377,117	202,481	-0,089	0,101
-376,102	650,058	-0,062	-0,117
-375,088	52,301	-0,077	-0,054
-374,073	627,767	-0,062	-0,114
-373,058	130,455	-0,053	-0,050
-372,044	-200,000	0,002	0,149
-371,029	-200,000	-0,036	0,130
-370,015	606,847	0,017	0,032
-369,000	-154,840	-0,143	0,007
-367,985	159,153	-0,068	-0,069
-366,971	-200,000	-0,012	-0,066
-365,956	-24,006	0,072	0,031
-364,942	279,630	0,077	-0,100
-363,927	-200,000	-0,006	0,104
-362,912	607,162	0,120	-0,219
-361,898	800,000	-0,083	-0,175
-360,883	-200,000	-0,009	0,114
-359,869	-104,727	-0,077	-0,013
-358,854	-33,842	0,051	-0,020
-357,839	800,000	-0,014	0,035
-356,825	-100,605	0,103	0,018
-355,810	397,921	0,021	0,032
-354,796	-200,000	0,008	0,069
-353,781	543,892	0,101	-0,176
-352,766	-29,423	0,059	-0,025
-351,752	-87,213	0,042	0,009
-350,737	-200,000	-0,006	0,022
-349,723	479,194	0,047	-0,077
-348,708	-41,147	-0,225	0,084
-347,693	-73,561	-0,075	-0,020
-346,679	800,000	-0,054	-0,145
-345,664	-107,270	-0,077	-0,012
-344,650	235,606	0,027	0,032
-343,635	800,000	0,024	0,071
-342,620	800,000	0,056	-0,154
-341,606	800,000	0,018	-0,045
-340,591	800,000	0,034	-0,076
-339,577	800,000	0,021	0,050
-338,562	-7,821	0,067	0,033
-337,548	246,417	0,096	-0,118
-336,533	-200,000	0,006	-0,092
-335,518	14,288	0,067	0,038
-334,504	301,108	-0,048	-0,065
-333,489	-98,087	-0,038	-0,007
-332,475	336,405	-0,051	-0,072
-331,460	481,292	-0,067	-0,111
-330,445	191,457	-0,081	-0,089
-329,431	34,033	-0,071	-0,045
-328,416	78,451	0,070	-0,054
-327,402	445,432	0,024	-0,039
-326,387	-200,000	0,003	0,058
-325,372	591,497	-0,038	0,069
-324,358	3,597	-0,091	0,048
-323,343	158,858	-0,060	0,061
-322,329	245,494	0,183	0,225
-321,314	-101,948	0,086	0,015
-320,299	-200,000	-0,005	0,102
-319,285	800,000	0,032	0,103
-318,270	289,297	0,041	0,055
-317,256	800,000	-0,091	-0,201
-316,241	800,000	0,044	-0,134
-315,226	-72,167	0,092	0,025
-314,212	-162,323	0,068	-0,002
-313,197	-48,131	0,035	0,012
-312,183	-118,351	0,081	0,010
-311,168	-37,411	-0,088	-0,034
-310,153	-177,744	-0,067	0,001
-309,139	-200,000	-0,012	-0,140
-308,124	-99,369	0,046	-0,008
-307,110	320,594	0,104	0,144
-306,095	-67,202	0,042	0,012
-305,080	72,764	0,167	-0,127
-304,066	-55,614	-0,078	-0,025
-303,051	-86,604	-0,048	0,011
-302,037	3,415	0,072	-0,038
-301,022	-166,383	0,012	-0,000
-300,008	-200,000	-0,004	-0,035
-298,993	348,773	0,064	0,092
-297,978	664,322	0,015	0,028
-296,964	77,615	-0,042	-0,033
-295,949	-136,175	-0,095	0,008
-294,935	401,695	0,061	-0,093
-293,920	-34,303	0,139	-0,055
-292,905	-103,448	-0,113	0,019
-291,891	-11,279	0,113	-0,054
-290,876	-200,000	0,026	-0,161
-289,862	-172,458	0,059	-0,001
-288,847	146,117	0,076	0,074
-287,832	56,694	-0,054	-0,038
-286,818	63,634	-0,031	0,023
-285,803	80,319	0,060	0,047
-284,789	-66,275	-0,154	0,044
-283,774	-10,345	-0,019	0,009
-282,759	98,635	-0,027	-0,022
-281,745	110,765	-0,128	0,112
-280,730	203,259	-0,031	0,035
-279,716	-200,000	-0,003	-0,077
-278,701	-200,000	-0,010	-0,119
-277,686	583,417	0,054	0,097
-276,672	-200,000	-0,033	0,258
-275,657	56,347	0,117	0,083
-274,643	85,365	-0,077	0,062
-273,628	-116,045	-0,092	0,012
-272,613	-45,124	-0,160	-0,058
-271,599	-16,623	0,079	0,036
-270,584	369,808	0,052	-0,076
-269,570	-127,291	0,160	-0,017
-268,555	255,395	-0,061	0,076
-267,540	-134,913	-0,068	-0,006
-266,526	436,061	-0,083	-0,132
-265,511	800,000	0,025	0,051
-264,497	41,807	0,044	0,029
-263,482	-200,000	0,015	0,105
-262,467	-93,739	0,069	-0,014
-261,453	-98,518	0,044	-0,008
-260,438	621,005	-0,030	-0,055
-259,424	-200,000	0,010	-0,145
-258,409	-200,000	0,021	0,080
-257,395	-66,256	0,131	-0,038
-256,380	165,770	-0,038	0,039
-255,365	-200,000	0,006	0,063
-254,351	296,808	-0,061	-0,081
-253,336	114,048	-0,032	-0,029
-252,322	-28,406	-0,044	0,019
-251,307	-37,007	0,093	0,036
-250,292	-200,000	0,009	-0,030
-249,278	-65,802	0,023	0,007
-248,263	29,010	0,038	0,023
-247,249	59,806	0,040	0,028
-246,234	-71,051	0,049	-0,013
-245,219	800,000	0,008	-0,018
-244,205	-200,000	-0,049	-0,170
-243,190	-159,960	-0,017	-0,001
-242,176	-200,000	0,002	-0,048
-241,161	172,961	-0,070	0,073
-240,146	44,897	0,095	0,064
-239,132	-32,906	0,061	-0,025
-238,117	769,934	-0,071	-0,142
-237,103	-200,000	0,001	0,125
-236,088	8,895	-0,064	-0,035
-235,073	234,286	0,071	0,085
-234,059	-21,260	0,067	0,030
-233,044	-200,000	0,001	0,069
-232,030	259,274	-0,081	-0,101
-231,015	377,938	-0,027	-0,041
-230,000	-200,000	-0,011	-0,089
-228,986	-200,000	0,014	-0,076
-227,971	-200,000	0,002	0,063
-226,957	-200,000	0,005	0,035
-225,942	148,068	0,109	0,107
-224,927	-200,000	-0,019	0,093
-223,913	-107,560	-0,138	0,022
-222,898	-200,000	0,023	-0,127
-221,884	-200,000	-0,000	-0,013
-220,869	229,485	-0,036	0,043
-219,855	-66,176	0,060	0,017
-218,840	398,016	-0,056	0,086
-217,825	-73,757	0,104	0,027
-216,811	-93,006	-0,129	-0,026
-215,796	-200,000	-0,003	0,014
-214,782	137,522	-0,093	-0,088
-213,767	135,803	0,064	-0,061
-212,752	800,000	-0,087	0,199
-211,738	48,441	-0,035	-0,023
-210,723	49,027	0,091	-0,062
-209,709	-60,140	-0,013	0,004
-208,694	-4,819	-0,022	0,011
-207,679	-33,466	-0,050	-0,020
-206,665	800,000	-0,018	0,042
-205,650	533,187	-0,039	0,067
-204,636	220,918	-0,070	0,082
-203,621	800,000	-0,074	0,155
-202,606	-103,359	0,053	-0,009
-201,592	-15,957	0,011	-0,005
-200,577	-130,133	0,055	-0,005
-199,563	17,725	-0,117	-0,067
-198,548	-34,695	0,105	-0,041
-197,533	-200,000	-0,002	0,041
-196,519	360,032	-0,071	-0,103
-195,504	-200,000	-0,004	-0,121
-194,490	-55,700	-0,029	0,009
-193,475	-200,000	-0,007	-0,078
-192,460	-23,778	0,081	0,035
-191,446	-200,000	-0,026	-0,159
-190,431	149,392	-0,057	0,056
-189,417	-200,000	0,024	0,128
-188,402	-200,000	0,009	-0,051
-187,387	537,234	-0,115	-0,198
-186,373	229,190	0,053	0,063
-185,358	210,155	0,036	0,041
-184,344	-120,490	0,135	-0,016
-183,329	121,321	-0,096	-0,086
-182,315	-66,549	-0,041	0,012
-181,300	51,748	-0,065	0,045
-180,285	432,029	0,066	0,104
-179,271	-200,000	-0,003	0,013
-178,256	199,767	0,007	-0,008
-177,242	-35,162	0,060	0,024
-176,227	575,870	0,037	0,066
-175,212	19,391	0,155	0,090
-174,198	-78,892	-0,052	-0,013
-173,183	-107,401	0,111	-0,017
-172,169	52,957	0,111	-0,077
-171,154	-2,241	-0,073	0,037
-170,139	-200,000	0,009	-0,049
-169,125	583,626	-0,010	0,017
-168,110	-200,000	0,006	0,068
-167,096	-109,256	-0,022	0,003
-166,081	-70,257	0,031	-0,008
-165,066	-155,517	-0,072	0,003
-164,052	128,610	-0,047	-0,044
-163,037	761,829	0,030	-0,059
-162,023	13,235	0,038	-0,021
-161,008	800,000	0,046	0,108
-159,993	467,948	0,090	-0,146
-158,979	-66,925	-0,136	0,039
-157,964	678,172	-0,026	-0,048
-156,950	-200,000	-0,009	-0,037
-155,935	180,488	0,054	0,057
-154,920	295,878	-0,040	0,053
-153,906	86,395	-0,100	0,080
-152,891	281,098	-0,107	-0,138
-151,877	800,000	-0,010	0,025
-150,862	-200,000	-0,025	0,089
-149,847	40,719	0,076	-0,050
-148,833	624,248	-0,045	0,083
-147,818	-90,912	0,024	0,005
-146,804	484,187	0,115	0,189
-145,789	-12,469	0,079	-0,037
-144,775	93,280	-0,133	-0,108
-143,760	-200,000	-0,016	0,097
-142,745	-80,499	0,034	-0,008
-141,731	2,338	-0,058	-0,030
-140,716	800,000	0,037	-0,093
-139,702	56,526	0,133	0,094
-138,687	-12,681	0,016	-0,008
-137,672	159,027	0,005	-0,005
-136,658	-30,283	-0,064	-0,026
-135,643	35,438	-0,034	0,021
-134,629	800,000	0,018	-0,046
-133,614	800,000	0,057	0,135
-132,599	-200,000	0,013	-0,072
-131,585	800,000	0,050	0,117
-130,570	-31,211	0,102	-0,041
-129,556	-135,904	-0,075	0,006
-128,541	45,336	-0,117	-0,078
-127,526	-58,714	0,049	0,015
-126,512	384,045	0,053	0,080
-125,497	-30,762	-0,064	0,026
-124,483	320,249	-0,062	0,085
-123,468	-37,954	0,037	0,014
-122,453	-21,949	-0,037	0,016
-121,439	-32,015	-0,126	0,051
-120,424	771,811	0,020	0,041
-119,410	51,652	-0,096	-0,066
-118,395	-129,430	0,049	-0,005
-117,380	-200,000	0,004	0,055
-116,366	164,240	0,038	0,039
-115,351	156,551	-0,067	-0,067
-114,337	114,225	0,051	0,045
-113,322	60,727	0,045	-0,032
-112,307	193,894	-0,069	0,076
-111,293	21,195	0,045	-0,026
-110,278	800,000	-0,019	0,052
-109,264	-110,583	0,102	-0,015
-108,249	-200,000	-0,004	-0,034
-107,234	-39,699	-0,133	-0,050
-106,220	-72,754	0,112	-0,030
-105,205	-200,000	0,025	0,089
-104,191	800,000	-0,056	0,137
-103,176	-79,584	0,057	-0,014
-102,162	800,000	0,046	-0,124
-101,147	-200,000	0,019	-0,065
-100,132	187,458	-0,040	-0,043
-99,118	158,654	-0,037	-0,037
-98,103	-200,000	0,019	0,092
-97,089	800,000	-0,009	-0,024
-96,074	-200,000	-0,007	0,069
-95,059	800,000	0,019	-0,056
-94,045	-200,000	-0,027	0,163
-93,030	800,000	-0,073	-0,183
-92,016	-93,190	0,095	-0,019
-91,001	-178,367	-0,061	-0,001
-89,986	-165,111	0,097	-0,003
-88,972	67,180	0,059	-0,044
-87,957	637,026	-0,019	-0,036
-86,943	201,435	-0,085	0,095
-85,928	-200,000	-0,021	0,197
-84,913	-40,262	-0,095	-0,036
-83,899	334,982	0,055	-0,077
-82,884	-113,907	0,081	-0,011
-81,870	124,463	-0,057	0,052
-80,855	496,029	0,094	0,156
-79,840	124,437	-0,070	0,064
-78,826	-105,905	-0,055	0,009
-77,811	-88,831	-0,139	-0,030
-76,797	37,478	-0,070	-0,045
-75,782	30,115	-0,069	0,043
-74,767	82,198	0,101	0,079
-73,753	490,901	0,083	0,137
-72,738	-123,932	-0,151	0,017
-71,724	800,000	-0,036	-0,101
-70,709	-200,000	-0,001	0,099
-69,694	-200,000	-0,013	-0,072
-68,680	-95,891	0,096	0,018
-67,665	479,117	0,036	-0,059
-66,651	-200,000	0,015	-0,056
-65,636	221,007	0,028	-0,033
-64,622	-126,696	0,109	0,012
-63,607	-200,000	-0,033	0,123
-62,592	-98,478	0,005	0,001
-61,578	800,000	-0,038	-0,093
-60,563	115,451	0,161	0,142
-59,549	800,000	-0,044	0,102
-58,534	-16,301	-1,649	-0,752
-57,519	800,000	-0,379	-1,105
-56,505	-200,000	-1,165	-4,831
-55,490	-144,632	0,644	0,042
-54,476	800,000	5,295	12,217
-53,461	-200,000	16,038	279,634
-52,446	800,000	705,357	2244,985
-51,432	561,589	1620,577	2837,525
-50,417	122,849	1622,551	1464,541
-49,403	84,222	1283,694	1011,054
-48,388	37,034	1029,118	655,351
-47,373	21,367	991,361	579,485
-46,359	20,284	979,575	569,005
-45,344	18,465	975,846	560,833
-44,330	18,538	974,471	560,259
-43,315	18,293	972,560	558,335
-42,300	18,182	971,616	557,407
-41,286	18,222	970,592	556,927
-40,271	18,163	969,641	556,168
-39,257	18,271	968,725	555,972
-38,242	18,205	967,979	555,306
-37,227	18,165	967,202	554,709
-36,213	18,183	966,499	554,341
-35,198	18,164	965,656	553,775
-34,184	18,195	964,960	553,456
-33,169	18,136	964,040	552,714
-32,154	18,193	963,076	552,324
-31,140	18,196	962,362	551,900
-30,125	18,207	961,450	551,392
-29,111	18,238	960,673	551,025
-28,096	18,188	960,206	550,574
-27,082	18,180	959,357	550,040
-26,067	18,151	958,626	549,506
-25,052	18,175	957,714	549,039
-24,038	18,218	956,903	548,689
-23,023	18,183	956,213	548,160
-22,009	18,234	955,564	547,931
-20,994	18,231	955,168	547,670
-19,979	18,186	954,377	547,052
-18,965	18,203	953,784	546,744
-17,950	18,145	953,319	546,270
-16,936	18,142	952,619	545,837
-15,921	18,159	951,960	545,491
-14,906	18,075	951,088	544,702
-13,892	18,082	950,571	544,405
-12,877	18,018	950,033	543,871
-11,863	18,006	949,369	543,433
-10,848	18,017	948,798	543,118
-9,833	18,105	948,383	543,140
-8,819	18,111	947,640	542,712
-7,804	18,098	947,054	542,314
-6,790	18,026	946,522	541,758
-5,775	18,063	946,013	541,564
-4,760	18,104	945,288	541,256
-3,746	18,112	944,482	540,799
-2,731	17,954	943,884	539,933
-1,717	17,915	943,109	539,344
-0,702	17,861	942,563	538,840
0,313	17,705	941,789	538,716
1,327	20,916	940,255	547,962
2,342	30,103	796,795	488,819
3,356	27,300	449,607	271,598
4,371	-2,259	295,992	149,141
5,386	-6,190	277,366	136,003
6,400	-7,446	271,793	132,086
7,415	-7,892	269,438	130,516
8,429	-7,891	267,982	129,800
9,444	-7,882	267,198	129,418
10,459	-7,901	266,463	129,032
11,473	-7,869	265,811	128,734
12,488	-8,247	265,387	128,173
13,502	-8,275	264,781	127,844
14,517	-8,322	264,404	127,608
15,531	-8,404	263,942	127,299
16,546	-8,278	263,461	127,170
17,561	-8,269	263,194	127,037
18,575	-8,302	262,977	126,892
19,590	-8,428	262,496	126,535
20,604	-8,445	262,181	126,357
21,619	-8,318	261,897	126,322
22,634	-8,501	261,615	126,010
23,648	-8,426	261,093	125,815
24,663	-8,510	260,920	125,646
25,677	-8,205	260,656	125,780
26,692	-8,457	260,436	125,437
27,707	-8,544	260,157	125,214
28,721	-8,501	259,905	125,120
29,736	-8,434	259,473	124,961
30,750	-8,559	259,464	124,834
31,765	-8,535	259,106	124,672
32,780	-8,526	258,841	124,542
33,794	-8,594	258,848	124,473
34,809	-8,722	258,500	124,181
35,823	-8,459	258,002	124,163
36,838	-8,600	257,822	123,941
37,853	-8,542	257,724	123,934
38,867	-8,729	257,546	123,673
39,882	-8,713	257,320	123,567
40,896	-8,707	256,887	123,353
41,911	-8,691	256,835	123,331
42,926	-8,652	256,433	123,162
43,940	-8,785	256,258	122,950
44,955	-8,747	255,993	122,845
45,969	-8,939	255,774	122,561
46,984	-9,209	255,663	122,260
47,999	-9,267	255,205	121,979
49,013	-9,399	254,955	121,734
50,028	-9,538	254,781	121,519
51,042	-9,688	254,606	121,294
52,057	-9,580	254,297	121,229
53,071	-9,490	253,932	121,123
54,086	-9,536	253,941	121,076
55,101	-9,415	253,804	121,106
56,115	-8,973	253,666	121,413
57,130	-8,597	253,663	121,727
58,144	-8,511	253,492	121,708
59,159	-8,460	253,261	121,631
60,174	-8,260	253,014	121,675
61,188	-8,427	252,833	121,432
62,203	-8,514	252,506	121,190
63,217	-8,511	252,459	121,158
64,232	-8,586	252,133	120,927
65,247	-8,386	252,038	121,043
66,261	-8,402	251,805	120,906
67,276	-8,781	251,399	120,375
68,290	-9,055	251,153	120,011
69,305	-9,065	250,993	119,915
70,320	-9,060	250,827	119,830
71,334	-8,756	250,622	119,981
72,349	-8,385	250,479	120,219
73,363	-8,101	250,320	120,376
74,378	-8,414	250,156	120,019
75,393	-8,506	249,970	119,840
76,407	-8,390	249,610	119,755
77,422	-8,444	249,328	119,564
78,436	-8,467	249,394	119,564
79,451	-8,589	249,128	119,324
80,466	-8,635	248,702	119,069
81,480	-8,729	248,513	118,889
82,495	-8,852	248,164	118,606
83,509	-8,732	248,215	118,722
84,524	-8,848	248,004	118,513
85,539	-9,214	247,856	118,121
86,553	-8,978	247,593	118,185
87,568	-8,846	247,274	118,134
88,582	-8,864	247,189	118,067
89,597	-8,929	247,037	117,929
90,611	-8,623	246,840	118,083
91,626	-8,525	246,728	118,101
92,641	-8,604	246,494	117,912
93,655	-8,535	246,267	117,851
94,670	-8,797	246,045	117,515
95,684	-8,674	245,902	117,539
96,699	-8,761	245,824	117,418
97,714	-8,872	245,510	117,165
98,728	-9,095	245,293	116,863
99,743	-8,957	245,019	116,838
100,757	-9,144	244,998	116,662
101,772	-8,756	244,674	116,821
102,787	-8,989	244,601	116,581
103,801	-8,860	244,469	116,615
104,816	-8,748	244,374	116,653
105,830	-8,531	244,232	116,755
106,845	-8,400	244,165	116,822
107,860	-8,470	243,836	116,596
108,874	-8,560	243,422	116,313
109,889	-8,777	243,439	116,131
110,903	-8,611	243,145	116,118
111,918	-8,809	243,040	115,893
112,933	-8,631	242,874	115,951
113,947	-8,609	242,654	115,853
114,962	-8,600	242,473	115,764
115,976	-8,600	242,304	115,673
116,991	-8,595	242,087	115,563
118,006	-8,873	242,071	115,317
119,020	-8,788	241,879	115,284
120,035	-8,574	241,724	115,377
121,049	-8,263	241,475	115,503
122,064	-8,347	241,371	115,374
123,079	-8,580	241,197	115,090
124,093	-8,872	241,092	114,789
125,108	-9,010	240,653	114,458
126,122	-9,017	240,522	114,379
127,137	-9,000	240,267	114,262
128,151	-9,140	240,053	114,035
129,166	-8,863	239,882	114,170
130,181	-8,995	239,790	114,008
131,195	-8,982	239,432	113,838
132,210	-8,796	239,388	113,959
133,224	-8,602	239,360	114,093
134,239	-8,452	239,148	114,103
135,254	-8,528	239,008	113,965
136,268	-8,648	238,769	113,744
137,283	-8,957	238,384	113,299
138,297	-9,067	238,243	113,133
139,312	-9,165	238,032	112,944
140,327	-8,702	238,024	113,305
141,341	-8,239	238,107	113,708
142,356	-8,121	237,892	113,691
143,370	-8,090	237,663	113,597
144,385	-8,178	237,458	113,417
145,400	-8,225	237,437	113,359
146,414	-8,030	237,167	113,378
147,429	-8,464	237,153	113,010
148,443	-8,184	236,824	113,069
149,458	-8,259	236,638	112,910
150,473	-8,318	236,584	112,827
151,487	-8,280	236,238	112,682
152,502	-8,266	236,134	112,634
153,516	-8,253	236,196	112,664
154,531	-8,173	235,744	112,502
155,546	-8,394	235,721	112,305
156,560	-8,402	235,479	112,173
157,575	-8,674	235,291	111,856
158,589	-8,663	235,283	111,851
159,604	-8,241	235,043	112,063
160,619	-8,146	234,867	112,045
161,633	-7,917	234,745	112,159
162,648	-8,197	234,696	111,903
163,662	-8,252	234,472	111,743
164,677	-8,459	234,219	111,448
165,692	-8,288	234,105	111,520
166,706	-8,100	234,037	111,626
167,721	-7,977	233,864	111,631
168,735	-8,070	233,728	111,482
169,750	-8,181	233,511	111,281
170,764	-8,085	233,288	111,241
171,779	-8,003	233,259	111,282
172,794	-7,868	232,993	111,252
173,808	-8,186	232,844	110,920
174,823	-8,993	232,449	110,087
175,837	-9,132	232,361	109,925
176,852	-8,189	232,310	110,634
177,867	-8,229	232,337	110,604
178,881	-8,101	232,115	110,590
179,896	-8,083	231,958	110,520
180,910	-8,117	231,747	110,382
181,925	-8,194	231,659	110,270
182,940	-8,031	231,565	110,343
183,954	-7,893	231,359	110,344
184,969	-7,905	231,264	110,279
185,983	-7,949	231,079	110,146
186,998	-8,013	230,954	110,027
188,013	-8,006	230,774	109,937
189,027	-7,884	230,600	109,939
190,042	-8,187	230,499	109,645
191,056	-8,034	230,298	109,659
192,071	-8,021	230,216	109,620
193,086	-7,820	229,903	109,618
194,100	-7,707	229,938	109,712
195,115	-8,014	229,508	109,259
196,129	-8,115	229,523	109,178
197,144	-4,164	230,773	112,842
198,159	0,406	231,960	116,983
199,173	3,208	232,938	119,660
200,188	3,853	232,972	120,172
201,202	3,713	232,783	119,953
202,217	3,762	232,585	119,880
203,232	3,968	232,387	119,927
204,246	4,059	232,320	119,953
205,261	4,106	232,271	119,953
206,275	4,343	232,132	120,055
207,290	4,394	231,905	119,967
208,304	4,345	231,824	119,876
209,319	4,291	231,649	119,732
210,334	4,166	231,317	119,454
211,348	3,762	231,202	119,071
212,363	3,658	231,040	118,896
213,377	3,487	230,728	118,593
214,392	3,445	230,537	118,451
215,407	3,489	230,497	118,454
216,421	3,518	230,245	118,337
217,436	3,395	230,160	118,187
218,450	3,259	229,810	117,893
219,465	2,981	229,811	117,668
220,480	3,324	229,559	117,793
221,494	3,364	229,406	117,734
222,509	3,385	229,394	117,734
223,523	3,404	229,198	117,637
224,538	3,243	229,133	117,470
225,553	3,322	228,913	117,408
226,567	3,501	228,832	117,493
227,582	3,659	228,854	117,615
228,596	3,610	228,775	117,525
229,611	3,439	228,313	117,147
230,626	3,475	228,113	117,062
231,640	3,257	228,030	116,842
232,655	3,513	228,049	117,037
233,669	4,079	227,887	117,375
234,684	4,165	227,714	117,341
235,699	3,883	227,482	116,996
236,713	3,580	227,310	116,667
237,728	3,256	227,182	116,345
238,742	3,325	226,935	116,260
239,757	3,391	226,836	116,249
240,772	3,259	226,667	116,052
241,786	3,129	226,503	115,859
242,801	3,472	226,523	116,119
243,815	3,808	226,299	116,248
244,830	3,688	226,197	116,095
245,844	3,468	225,934	115,784
246,859	3,398	225,878	115,691
247,874	3,689	225,806	115,864
248,888	3,778	225,634	115,832
249,903	3,677	225,380	115,616
250,917	3,514	225,283	115,433
251,932	3,535	224,985	115,285
252,947	3,319	224,923	115,081
253,961	3,289	224,741	114,955
254,976	3,445	224,644	115,013
255,990	3,693	224,372	115,049
257,005	3,696	224,397	115,053
258,020	3,559	224,287	114,884
259,034	3,808	224,346	115,091
260,049	4,052	223,901	115,034
261,063	3,873	223,775	114,826
262,078	3,821	223,773	114,776
263,093	3,961	223,606	114,784
264,107	3,635	223,361	114,405
265,122	3,834	223,377	114,552
266,136	3,964	223,119	114,506
267,151	3,784	223,075	114,339
268,166	3,626	222,714	114,026
269,180	3,163	222,601	113,615
270,195	3,297	222,473	113,639
271,209	3,373	222,254	113,573
272,224	3,314	222,351	113,568
273,239	3,499	222,117	113,576
274,253	3,243	221,837	113,234
275,268	3,121	221,819	113,124
276,282	3,232	221,533	113,050
277,297	2,982	221,500	112,838
278,312	3,355	221,257	112,980
279,326	3,488	221,227	113,052
280,341	3,519	221,114	113,008
281,355	3,358	221,056	112,849
282,370	3,405	220,808	112,746
283,384	3,102	220,470	112,341
284,399	3,116	220,282	112,246
285,414	3,232	220,305	112,332
286,428	3,399	220,208	112,396
287,443	3,687	220,078	112,530
288,457	3,578	219,947	112,374
289,472	3,204	219,799	112,015
290,487	3,016	219,575	111,752
291,501	2,885	219,328	111,521
292,516	2,952	219,376	111,585
293,530	3,119	219,232	111,623
294,545	3,132	218,988	111,499
295,560	3,374	218,893	111,616
296,574	3,387	218,695	111,515
297,589	3,609	218,713	111,676
298,603	3,849	218,446	111,704
299,618	3,417	218,483	111,399
300,633	3,567	218,346	111,428
301,647	3,614	218,151	111,353
302,662	3,397	218,166	111,193
303,676	3,865	217,988	111,432
304,691	3,526	217,901	111,132
305,706	3,634	217,723	111,109
306,720	3,617	217,462	110,954
307,735	3,312	217,452	110,719
308,749	3,495	217,089	110,656
309,764	3,692	217,104	110,796
310,779	3,522	216,979	110,600
311,793	3,539	216,848	110,535
312,808	3,610	216,575	110,438
313,822	3,511	216,411	110,272
314,837	3,259	216,401	110,076
315,852	3,202	216,162	109,904
316,866	3,420	215,994	109,965
317,881	3,551	215,920	110,012
318,895	3,605	215,884	110,022
319,910	3,583	215,709	109,908
320,925	3,220	215,520	109,542
321,939	3,128	215,263	109,336
322,954	3,018	215,351	109,292
323,968	3,752	215,144	109,702
324,983	3,533	214,998	109,461
325,997	3,656	214,952	109,515
327,012	3,531	214,742	109,310
328,027	3,598	214,589	109,270
329,041	3,828	214,591	109,425
330,056	3,925	214,416	109,394
331,070	3,516	214,096	108,931
332,085	3,119	213,958	108,569
333,100	3,193	213,893	108,580
334,114	3,684	213,798	108,870
335,129	3,724	213,560	108,767
336,143	3,363	213,529	108,486
337,158	3,318	213,332	108,345
338,173	3,315	213,201	108,266
339,187	3,462	212,987	108,252
340,202	3,141	212,879	107,960
341,216	3,045	212,693	107,789
342,231	3,249	212,644	107,898
343,246	2,999	212,511	107,645
344,260	3,317	212,333	107,769
345,275	3,492	212,221	107,825
346,289	3,394	212,198	107,735
347,304	3,441	212,035	107,676
348,319	3,475	211,775	107,558
349,333	3,357	211,726	107,441
350,348	3,542	211,545	107,469
351,362	3,638	211,442	107,475
352,377	3,724	211,318	107,462
353,392	3,575	211,244	107,311
354,406	3,534	211,171	107,235
355,421	195,155	1342,022	1425,730
356,435	155,861	1479,830	1425,772
