DTS Sentinel unit serial number:	SN410029Multiplexer serial number:	ORYXHardware model number:	OX2-SRSoftware version number:	ORYX F/W v4,00 Oryx Data Collector v3.7.2.0data status	okinstallation	B6 Nyhavnadifferential loss correction	single-endedforward channel	channel 2reverse channel	N/Adate	2023/12/08time	09:45:08forward acquisition time	300,00reverse acquisition time	0,00gamma	499,1914k internal	0,3166k external	0,3166temperature offset calibration	1,0000default loss term (dB/km)	0,3820temperature slope calibration	1,0000multiplexer offset coefficient	1,0000multiplexer slope coefficient	1,0000fibre end	0,00T internal ref (°C)	13,74T ext. ref 1 (°C)	-1,87T ext. ref 2 (°C)	-1,85length (m)	temperature (°C)	Stokes	anti-Stokes-744,400	167,547	0,112	-0,117
-743,385	23,714	-0,276	-0,167
-742,371	-103,145	0,131	0,023
-741,356	-114,315	-0,375	0,052
-740,342	354,850	0,032	-0,047
-739,327	15,365	-0,301	-0,173
-738,312	271,029	0,057	0,074
-737,298	-59,802	-0,373	-0,117
-736,283	5,318	0,242	0,131
-735,269	-98,026	-0,442	0,083
-734,254	-115,985	0,092	0,013
-733,239	34,437	-0,536	-0,344
-732,225	-132,275	0,284	0,027
-731,210	385,257	0,124	0,188
-730,196	-167,096	-0,055	-0,002
-729,181	336,283	-0,076	0,108
-728,167	174,759	0,078	-0,083
-727,152	5,654	-0,075	0,041
-726,137	-143,620	-0,099	-0,007
-725,123	32,458	-0,137	-0,087
-724,108	321,272	0,057	-0,080
-723,094	-200,000	0,006	-0,023
-722,079	-95,378	-0,126	-0,025
-721,064	-30,784	0,050	-0,021
-720,050	106,752	-0,072	-0,063
-719,035	294,647	-0,076	-0,102
-718,021	800,000	0,058	-0,165
-717,006	220,804	-0,105	-0,125
-715,991	-200,000	-0,001	-0,023
-714,977	-200,000	-0,042	-0,166
-713,962	604,518	-0,030	-0,055
-712,948	545,964	0,068	0,119
-711,933	-22,916	-0,157	-0,069
-710,918	439,634	-0,033	-0,053
-709,904	800,000	-0,006	0,014
-708,889	45,914	-0,135	-0,092
-707,875	70,904	-0,036	-0,027
-706,860	-1,264	-0,058	-0,030
-705,845	29,567	0,121	0,076
-704,831	305,267	-0,091	0,125
-703,816	-107,207	0,074	0,012
-702,802	-152,264	-0,194	-0,010
-701,787	537,228	-0,033	-0,057
-700,772	455,920	-0,014	-0,023
-699,758	-200,000	0,002	-0,099
-698,743	168,090	-0,048	-0,051
-697,729	-169,147	-0,129	0,003
-696,714	-200,000	0,001	-0,097
-695,699	334,008	-0,084	-0,120
-694,685	149,589	-0,051	0,051
-693,670	75,696	-0,060	-0,046
-692,656	33,386	-0,061	-0,039
-691,641	-200,000	0,018	-0,086
-690,627	77,023	-0,100	0,078
-689,612	-52,317	-0,054	0,018
-688,597	-82,868	-0,143	0,034
-687,583	-200,000	-0,011	-0,124
-686,568	-46,800	-0,116	-0,041
-685,554	126,502	0,012	-0,011
-684,539	800,000	-0,040	-0,097
-683,524	19,889	-0,025	0,015
-682,510	-200,000	0,025	0,107
-681,495	2,907	0,026	0,014
-680,481	-50,712	0,054	-0,019
-679,466	-200,000	0,029	-0,187
-678,451	462,844	0,031	0,051
-677,437	143,841	0,050	-0,049
-676,422	91,974	0,140	0,116
-675,408	-6,445	-0,063	0,032
-674,393	404,153	-0,034	0,052
-673,378	-200,000	-0,023	-0,093
-672,364	-200,000	0,004	-0,067
-671,349	679,259	-0,029	-0,055
-670,335	75,554	0,072	-0,056
-669,320	490,998	-0,038	-0,064
-668,305	800,000	0,060	-0,122
-667,291	24,176	-0,124	-0,075
-666,276	-63,163	-0,154	0,046
-665,262	-151,895	-0,197	-0,010
-664,247	-82,217	0,025	-0,006
-663,232	90,981	-0,068	-0,056
-662,218	-75,847	-0,098	-0,025
-661,203	95,436	0,049	0,041
-660,189	-40,559	-0,020	-0,008
-659,174	-200,000	-0,047	-0,199
-658,159	-163,908	0,042	-0,001
-657,145	7,123	-0,135	0,074
-656,130	-200,000	-0,024	0,093
-655,116	-73,474	0,078	0,021
-654,101	34,227	-0,108	0,069
-653,086	103,554	-0,100	-0,086
-652,072	371,219	-0,037	0,056
-651,057	657,594	-0,100	-0,190
-650,043	-8,195	-0,030	-0,015
-649,028	-100,334	-0,022	-0,004
-648,014	-87,924	0,092	0,020
-646,999	-200,000	0,027	-0,113
-645,984	23,331	0,119	0,072
-644,970	430,443	0,030	-0,047
-643,955	-200,000	0,031	0,156
-642,941	102,974	-0,070	-0,060
-641,926	-124,813	0,094	0,010
-640,911	-200,000	-0,004	-0,087
-639,897	-200,000	-0,003	-0,072
-638,882	507,798	-0,052	-0,088
-637,868	-114,102	-0,034	-0,005
-636,853	-45,702	-0,134	0,048
-635,838	-134,146	0,035	-0,003
-634,824	21,862	0,052	-0,031
-633,809	90,165	0,066	-0,054
-632,795	435,471	0,030	0,048
-631,780	-200,000	0,008	0,028
-630,765	18,185	-0,069	-0,040
-629,751	131,798	0,057	-0,054
-628,736	-132,642	-0,122	-0,011
-627,722	-200,000	-0,019	-0,118
-626,707	137,444	0,117	0,112
-625,692	-81,746	-0,032	0,008
-624,678	-69,868	0,164	-0,045
-623,663	800,000	0,005	0,014
-622,649	-25,793	-0,129	-0,055
-621,634	-16,296	-0,030	-0,014
-620,619	-200,000	-0,011	-0,041
-619,605	458,720	0,111	0,182
-618,590	-135,453	-0,196	0,017
-617,576	-200,000	-0,015	-0,119
-616,561	436,474	-0,040	0,065
-615,546	-200,000	0,027	-0,124
-614,532	-32,806	-0,192	-0,078
-613,517	-74,205	0,067	0,018
-612,503	104,828	0,082	-0,070
-611,488	160,144	-0,113	0,115
-610,474	-131,192	0,101	-0,010
-609,459	150,996	-0,058	0,058
-608,444	90,546	-0,043	-0,035
-607,430	-64,117	-0,065	-0,019
-606,415	149,914	0,087	-0,086
-605,401	-151,949	-0,064	0,003
-604,386	800,000	0,043	-0,096
-603,371	-161,540	-0,158	0,006
-602,357	127,112	-0,063	0,058
-601,342	367,595	-0,095	-0,141
-600,328	-200,000	-0,017	-0,059
-599,313	-200,000	0,000	-0,014
-598,298	-91,053	0,032	-0,007
-597,284	-175,619	-0,090	0,002
-596,269	-200,000	0,016	0,096
-595,255	-200,000	-0,021	0,081
-594,240	-54,407	-0,075	-0,025
-593,225	44,333	0,065	0,043
-592,211	217,892	0,121	-0,141
-591,196	-200,000	-0,027	-0,120
-590,182	284,215	-0,028	0,037
-589,167	47,588	-0,021	0,015
-588,152	-46,524	0,114	0,041
-587,138	-89,010	-0,172	0,037
-586,123	673,084	-0,121	-0,230
-585,109	-183,476	-0,166	-0,002
-584,094	-200,000	0,028	0,134
-583,079	447,118	0,043	0,069
-582,065	119,661	-0,153	0,139
-581,050	800,000	-0,064	0,185
-580,036	-44,379	-0,119	-0,043
-579,021	-200,000	-0,012	-0,090
-578,006	127,630	-0,118	-0,109
-576,992	388,691	-0,039	-0,059
-575,977	-180,570	-0,037	-0,001
-574,963	-69,027	-0,064	-0,018
-573,948	129,676	-0,075	0,071
-572,934	-14,200	-0,006	0,003
-571,919	-16,397	-0,131	-0,060
-570,904	320,547	-0,048	-0,067
-569,890	-26,735	0,121	0,051
-568,875	-73,879	0,069	-0,018
-567,861	-39,368	0,093	-0,036
-566,846	449,641	-0,046	0,074
-565,831	-200,000	-0,016	0,202
-564,817	69,052	-0,073	-0,055
-563,802	91,463	0,060	0,049
-562,788	-39,562	0,066	-0,025
-561,773	800,000	0,024	0,059
-560,758	800,000	0,056	0,173
-559,744	800,000	0,048	0,128
-558,729	74,722	0,047	0,036
-557,715	-79,478	-0,021	0,005
-556,700	99,868	0,020	0,017
-555,685	662,798	-0,065	-0,124
-554,671	-200,000	0,007	-0,043
-553,656	800,000	0,038	-0,106
-552,642	704,239	-0,008	0,015
-551,627	-35,781	0,050	-0,020
-550,612	-200,000	0,000	0,045
-549,598	173,425	-0,121	-0,127
-548,583	-200,000	0,007	-0,046
-547,569	-200,000	-0,009	0,114
-546,554	21,276	0,128	0,076
-545,539	331,801	0,044	0,061
-544,525	10,030	0,024	-0,013
-543,510	800,000	0,052	0,106
-542,496	254,251	-0,123	-0,154
-541,481	195,363	-0,088	-0,098
-540,466	47,656	0,036	0,025
-539,452	-200,000	-0,029	-0,113
-538,437	800,000	-0,028	0,076
-537,423	-14,707	0,078	0,037
-536,408	-64,262	0,087	-0,026
-535,393	51,949	0,019	-0,013
-534,379	130,294	0,113	-0,106
-533,364	775,873	0,092	-0,184
-532,350	800,000	0,049	-0,135
-531,335	-106,531	0,142	-0,023
-530,321	77,784	-0,170	-0,132
-529,306	-200,000	0,008	0,043
-528,291	800,000	-0,020	-0,046
-527,277	163,579	0,069	-0,071
-526,262	-200,000	0,001	-0,033
-525,248	-86,557	0,027	-0,006
-524,233	-200,000	0,035	-0,122
-523,218	-200,000	-0,023	-0,095
-522,204	-200,000	0,005	-0,091
-521,189	800,000	0,037	0,117
-520,175	-116,829	-0,074	-0,010
-519,160	36,765	-0,109	0,070
-518,145	10,252	-0,078	-0,043
-517,131	800,000	0,039	0,088
-516,116	800,000	-0,024	-0,073
-515,102	380,783	-0,053	0,080
-514,087	77,289	0,037	0,029
-513,072	19,444	-0,066	-0,039
-512,058	280,360	0,022	0,029
-511,043	-9,329	0,181	0,088
-510,029	-21,272	0,106	-0,047
-509,014	-200,000	0,031	0,152
-507,999	433,441	0,057	0,091
-506,985	-200,000	-0,005	-0,146
-505,970	-153,291	-0,149	-0,007
-504,956	412,275	-0,054	-0,084
-503,941	10,527	0,059	-0,032
-502,926	108,859	-0,041	-0,036
-501,912	800,000	0,064	0,190
-500,897	31,588	0,100	-0,062
-499,883	-200,000	0,015	0,053
-498,868	800,000	-0,041	0,125
-497,853	160,760	0,100	0,101
-496,839	60,243	0,088	0,063
-495,824	-200,000	0,012	0,044
-494,810	-30,123	0,035	-0,014
-493,795	59,830	0,108	-0,077
-492,781	145,235	-0,035	-0,034
-491,766	-158,325	0,070	0,003
-490,751	177,653	-0,064	-0,068
-489,737	201,271	0,077	0,087
-488,722	546,523	0,042	0,074
-487,708	-200,000	0,018	0,146
-486,693	-200,000	-0,051	0,218
-485,678	23,059	0,086	-0,051
-484,664	-11,157	-0,178	-0,085
-483,649	-62,424	-0,067	-0,020
-482,635	24,371	-0,063	0,038
-481,620	126,322	-0,066	-0,061
-480,605	60,055	0,140	0,100
-479,591	77,967	0,081	0,063
-478,576	-187,240	0,191	0,002
-477,562	56,366	-0,078	-0,055
-476,547	-63,583	0,078	-0,023
-475,532	-200,000	-0,018	0,108
-474,518	800,000	0,046	0,139
-473,503	-200,000	-0,031	0,142
-472,489	529,845	-0,021	0,036
-471,474	-72,809	0,061	0,016
-470,459	-200,000	0,013	-0,055
-469,445	-200,000	0,006	-0,071
-468,430	-200,000	0,010	-0,037
-467,416	155,949	-0,019	0,019
-466,401	21,969	0,074	-0,044
-465,386	-45,116	0,032	0,012
-464,372	127,486	0,036	0,033
-463,357	211,854	-0,087	-0,100
-462,343	-64,456	-0,093	0,027
-461,328	-200,000	-0,002	-0,009
-460,313	25,121	-0,073	0,044
-459,299	800,000	0,129	0,286
-458,284	-200,000	-0,030	0,118
-457,270	-50,688	0,046	-0,016
-456,255	542,914	0,033	0,058
-455,241	-134,262	-0,039	0,003
-454,226	-81,080	-0,162	-0,039
-453,211	118,177	0,043	-0,039
-452,197	21,003	0,039	-0,023
-451,182	-200,000	-0,011	0,073
-450,168	-97,762	-0,127	-0,024
-449,153	197,897	-0,114	0,127
-448,138	-165,303	0,090	0,003
-447,124	233,857	0,054	0,065
-446,109	28,855	-0,073	-0,045
-445,095	640,679	-0,040	-0,075
-444,080	41,711	0,039	0,026
-443,065	-169,062	-0,086	0,002
-442,051	202,769	-0,049	-0,055
-441,036	-200,000	0,010	-0,064
-440,022	-44,060	-0,036	0,013
-439,007	95,000	-0,100	0,083
-437,992	-119,629	-0,052	0,006
-436,978	800,000	0,040	-0,090
-435,963	-71,691	0,014	-0,004
-434,949	-200,000	0,006	0,054
-433,934	-200,000	-0,127	-0,000
-432,919	-11,028	0,115	0,055
-431,905	-200,000	-0,001	-0,081
-430,890	-86,961	-0,078	-0,017
-429,876	800,000	0,034	0,101
-428,861	-19,248	-0,088	-0,039
-427,846	800,000	-0,041	0,083
-426,832	-54,260	-0,186	0,061
-425,817	-167,544	0,118	-0,003
-424,803	-200,000	-0,048	0,172
-423,788	-61,240	0,018	-0,006
-422,773	-200,000	0,003	-0,040
-421,759	58,371	0,096	-0,068
-420,744	800,000	-0,006	-0,013
-419,730	800,000	0,064	-0,136
-418,715	-0,083	-0,076	-0,039
-417,701	-62,512	-0,042	0,013
-416,686	-200,000	0,022	0,083
-415,671	225,352	0,073	0,086
-414,657	-193,280	0,051	-0,000
-413,642	-48,547	-0,098	-0,034
-412,628	-200,000	0,025	-0,125
-411,613	-200,000	0,010	-0,095
-410,598	800,000	-0,013	-0,029
-409,584	-57,250	-0,075	0,024
-408,569	691,668	-0,037	0,071
-407,555	389,173	-0,040	0,060
-406,540	330,553	-0,041	0,058
-405,525	-111,102	-0,106	0,016
-404,511	219,089	-0,064	0,075
-403,496	-157,653	0,142	-0,006
-402,482	592,889	0,022	-0,039
-401,467	211,797	0,078	0,090
-400,452	-200,000	0,017	0,112
-399,438	-54,215	0,184	-0,060
-398,423	47,009	0,029	-0,019
-397,409	279,515	-0,059	-0,077
-396,394	-200,000	-0,010	-0,076
-395,379	-200,000	0,014	-0,106
-394,365	649,472	0,033	-0,061
-393,350	-200,000	0,000	-0,004
-392,336	-200,000	0,024	-0,189
-391,321	-177,857	-0,089	0,002
-390,306	-200,000	0,001	0,042
-389,292	83,211	-0,089	0,070
-388,277	673,591	0,048	0,091
-387,263	1,157	0,071	0,037
-386,248	38,786	-0,007	-0,005
-385,233	350,706	-0,062	0,090
-384,219	15,250	-0,130	0,074
-383,204	-128,241	-0,119	0,012
-382,190	-73,210	-0,105	-0,028
-381,175	694,909	-0,010	-0,019
-380,160	373,459	0,031	-0,046
-379,146	135,082	-0,066	0,062
-378,131	-96,332	-0,077	-0,015
-377,117	-164,487	0,053	0,002
-376,102	490,301	-0,074	-0,123
-375,088	-200,000	-0,024	0,083
-374,073	-200,000	-0,017	0,057
-373,058	-107,389	0,124	0,020
-372,044	510,053	0,067	0,114
-371,029	800,000	0,037	0,110
-370,015	48,847	-0,070	-0,047
-369,000	385,448	0,010	0,015
-367,985	-3,734	0,041	-0,021
-366,971	211,747	-0,054	-0,062
-365,956	-119,580	0,147	0,018
-364,942	159,055	0,067	-0,068
-363,927	-137,852	0,087	0,007
-362,912	-200,000	0,017	-0,075
-361,898	117,912	-0,120	-0,107
-360,883	800,000	0,033	0,086
-359,869	342,492	0,126	-0,180
-358,854	800,000	0,027	0,064
-357,839	800,000	0,013	-0,027
-356,825	-1,753	0,143	-0,073
-355,810	163,431	0,046	-0,047
-354,796	-200,000	0,054	-0,183
-353,781	243,336	-0,094	-0,114
-352,766	256,693	-0,046	-0,057
-351,752	-200,000	0,020	0,067
-350,737	275,117	-0,060	0,077
-349,723	-200,000	0,005	-0,023
-348,708	63,317	0,049	0,036
-347,693	98,667	-0,120	-0,100
-346,679	-76,836	0,075	-0,019
-345,664	-200,000	-0,044	-0,142
-344,650	-85,719	-0,112	-0,025
-343,635	354,757	0,070	0,100
-342,620	122,412	-0,085	0,077
-341,606	-200,000	0,035	0,218
-340,591	-200,000	-0,044	0,177
-339,577	-103,885	0,118	-0,020
-338,562	53,142	-0,153	-0,106
-337,548	-200,000	0,003	0,025
-336,533	-200,000	0,057	0,251
-335,518	-110,123	0,027	0,004
-334,504	17,972	0,141	-0,081
-333,489	27,425	0,106	-0,064
-332,475	55,747	-0,077	0,054
-331,460	369,510	-0,022	-0,032
-330,445	5,253	0,063	-0,033
-329,431	800,000	-0,028	0,069
-328,416	-59,939	0,104	0,032
-327,402	514,663	0,015	-0,025
-326,387	-60,975	-0,107	-0,033
-325,372	800,000	-0,054	0,138
-324,358	531,706	0,036	-0,063
-323,343	-180,299	-0,043	-0,001
-322,329	-124,070	0,043	-0,005
-321,314	-106,073	0,044	-0,007
-320,299	100,949	0,112	0,094
-319,285	0,650	-0,108	0,056
-318,270	666,087	0,045	0,084
-317,256	139,681	0,075	0,071
-316,241	800,000	0,032	0,093
-315,226	7,903	-0,130	-0,070
-314,212	417,074	-0,037	-0,058
-313,197	-5,360	-0,079	0,039
-312,183	400,298	-0,025	0,038
-311,168	225,390	-0,016	-0,019
-310,153	132,582	-0,069	-0,064
-309,139	-119,804	0,094	0,012
-308,124	266,212	-0,073	0,092
-307,110	9,658	0,102	-0,056
-306,095	-36,060	0,088	-0,034
-305,080	18,327	0,117	-0,067
-304,066	145,541	0,107	-0,104
-303,051	-146,569	-0,117	0,007
-302,037	800,000	-0,035	0,075
-301,022	-139,861	-0,129	-0,010
-300,008	-132,252	0,041	0,004
-298,993	367,391	-0,050	0,072
-297,978	-200,000	-0,009	-0,097
-296,964	7,534	-0,055	-0,029
-295,949	401,894	-0,028	0,043
-294,935	-39,009	-0,128	0,048
-293,920	-153,237	-0,044	-0,002
-292,905	-17,762	0,119	0,054
-291,891	62,363	0,041	0,030
-290,876	-200,000	-0,023	0,087
-289,862	-76,980	-0,064	0,016
-288,847	-200,000	-0,000	0,020
-287,832	430,292	-0,035	0,054
-286,818	-102,346	0,022	-0,004
-285,803	-81,136	0,087	0,021
-284,789	-149,682	0,123	-0,007
-283,774	-192,418	-0,082	-0,001
-282,759	-200,000	-0,016	-0,107
-281,745	-200,000	-0,004	0,024
-280,730	-200,000	0,037	-0,138
-279,716	-200,000	0,003	-0,192
-278,701	-200,000	0,009	-0,108
-277,686	291,304	-0,032	-0,043
-276,672	416,822	-0,062	-0,096
-275,657	233,235	-0,042	-0,049
-274,643	-187,025	-0,144	-0,001
-273,628	8,113	-0,094	0,051
-272,613	-74,072	0,171	0,045
-271,599	-200,000	0,027	-0,113
-270,584	800,000	0,049	0,112
-269,570	184,263	-0,052	0,056
-268,555	800,000	0,042	0,084
-267,540	161,348	-0,052	0,053
-266,526	8,429	0,087	-0,047
-265,511	-27,281	0,076	-0,032
-264,497	800,000	0,050	0,121
-263,482	455,665	-0,037	-0,060
-262,467	-200,000	-0,002	0,029
-261,453	-16,234	0,113	-0,052
-260,438	800,000	-0,035	0,074
-259,424	-200,000	-0,030	-0,154
-258,409	-65,786	-0,084	0,024
-257,395	-200,000	-0,007	-0,048
-256,380	6,856	0,099	-0,053
-255,365	-200,000	0,004	0,037
-254,351	-92,086	-0,125	0,025
-253,336	-200,000	-0,003	0,011
-252,322	366,894	0,039	-0,057
-251,307	800,000	0,040	0,080
-250,292	-200,000	0,021	-0,071
-249,278	-200,000	-0,008	0,057
-248,263	-29,823	0,139	-0,057
-247,249	-200,000	-0,017	0,063
-246,234	-200,000	0,001	-0,080
-245,219	-200,000	0,028	-0,177
-244,205	151,739	-0,068	0,067
-243,190	-200,000	-0,016	-0,140
-242,176	69,510	0,116	-0,086
-241,161	169,798	-0,061	0,063
-240,146	800,000	-0,059	0,176
-239,132	294,674	0,041	0,054
-238,117	-20,083	-0,030	0,014
-237,103	-200,000	-0,027	-0,087
-236,088	96,161	0,033	-0,027
-235,073	-88,575	0,170	0,036
-234,059	143,685	-0,051	0,049
-233,044	-43,431	-0,067	0,024
-232,030	11,287	-0,032	-0,017
-231,015	-200,000	-0,022	-0,114
-230,000	-200,000	0,008	-0,057
-228,986	-98,276	-0,048	0,009
-227,971	40,751	0,123	-0,080
-226,957	-33,240	0,079	-0,031
-225,942	26,030	-0,138	-0,083
-224,927	-200,000	0,001	0,113
-223,913	48,750	-0,072	0,049
-222,898	-36,638	-0,086	-0,033
-221,884	53,991	-0,058	0,040
-220,869	-200,000	0,009	0,042
-219,855	422,588	0,033	-0,051
-218,840	-124,055	0,035	-0,004
-217,825	365,403	0,057	0,083
-216,811	-200,000	0,005	0,049
-215,796	-200,000	-0,005	-0,099
-214,782	77,565	0,101	0,078
-213,767	-102,426	0,077	0,013
-212,752	-114,053	0,048	0,007
-211,738	-77,759	0,069	0,017
-210,723	228,771	0,052	-0,061
-209,709	-8,733	-0,053	0,026
-208,694	45,516	-0,051	-0,034
-207,679	20,016	-0,080	-0,046
-206,665	662,453	0,027	-0,051
-205,650	-200,000	0,003	0,124
-204,636	198,961	0,065	-0,072
-203,621	1,134	0,040	-0,021
-202,606	-21,916	0,099	0,043
-201,592	276,186	-0,057	0,073
-200,577	-200,000	0,009	0,111
-199,563	131,858	-0,058	-0,054
-198,548	21,270	0,098	0,057
-197,533	-51,802	0,205	0,068
-196,519	-200,000	-0,058	0,210
-195,504	-200,000	-0,003	0,029
-194,490	-17,252	-0,101	-0,046
-193,475	-200,000	0,015	-0,094
-192,460	8,457	0,088	-0,048
-191,446	278,332	0,068	0,087
-190,431	42,155	0,046	0,030
-189,417	688,673	-0,041	-0,077
-188,402	-161,069	-0,123	0,005
-187,387	64,874	-0,074	0,054
-186,373	21,943	-0,148	-0,087
-185,358	-200,000	0,101	-0,000
-184,344	676,637	-0,068	-0,128
-183,329	800,000	0,050	0,151
-182,315	248,225	-0,055	-0,067
-181,300	800,000	0,035	-0,101
-180,285	-138,112	-0,067	-0,005
-179,271	-98,431	0,074	0,014
-178,256	-61,599	-0,035	0,010
-177,242	-200,000	0,006	-0,039
-176,227	-57,288	0,010	0,003
-175,212	-200,000	-0,000	-0,089
-174,198	336,256	0,029	0,041
-173,183	-200,000	0,001	0,022
-172,169	362,577	0,049	0,071
-171,154	-200,000	0,024	0,126
-170,139	3,190	0,093	-0,048
-169,125	-200,000	-0,001	0,146
-168,110	-31,351	-0,068	0,028
-167,096	-162,100	0,091	-0,003
-166,081	-171,207	-0,073	-0,002
-165,066	-45,612	-0,048	-0,017
-164,052	35,138	0,022	-0,014
-163,037	708,090	0,016	-0,030
-162,023	179,418	0,144	0,151
-161,008	-35,570	0,053	0,021
-159,993	-7,385	0,047	-0,023
-158,979	65,951	-0,094	-0,068
-157,964	-200,000	-0,082	0,000
-156,950	586,239	-0,104	-0,185
-155,935	-15,386	0,178	-0,082
-154,920	-200,000	-0,013	-0,121
-153,906	-200,000	0,002	0,059
-152,891	800,000	0,069	-0,161
-151,877	-12,070	-0,120	0,056
-150,862	800,000	0,009	0,024
-149,847	-34,411	-0,098	-0,038
-148,833	190,927	0,026	0,028
-147,818	85,984	-0,090	0,071
-146,804	-48,909	0,054	0,018
-145,789	-200,000	-0,007	0,037
-144,775	338,167	0,090	-0,126
-143,760	29,777	-0,141	-0,086
-142,745	-65,501	0,078	-0,022
-141,731	-200,000	-0,039	-0,156
-140,716	-200,000	-0,011	0,100
-139,702	505,093	0,056	-0,093
-138,687	219,157	-0,059	-0,068
-137,672	-200,000	0,012	0,075
-136,658	319,918	-0,024	0,033
-135,643	593,895	0,027	0,048
-134,629	-133,391	-0,036	0,003
-133,614	-42,440	0,074	-0,027
-132,599	-96,494	-0,014	0,003
-131,585	-20,781	-0,055	0,024
-130,570	800,000	0,043	-0,128
-129,556	130,118	-0,068	-0,063
-128,541	526,466	0,040	-0,068
-127,526	800,000	0,086	-0,206
-126,512	-64,464	0,087	0,025
-125,497	144,632	0,209	0,200
-124,483	-200,000	0,012	0,037
-123,468	-200,000	-0,016	-0,098
-122,453	-200,000	0,017	-0,080
-121,439	-200,000	-0,032	-0,103
-120,424	66,453	-0,165	-0,121
-119,410	193,002	0,060	-0,065
-118,395	-59,772	0,016	0,005
-117,380	-200,000	-0,009	-0,057
-116,366	800,000	0,013	0,032
-115,351	-165,164	0,094	0,003
-114,337	-200,000	-0,033	-0,160
-113,322	4,339	-0,127	-0,067
-112,307	-36,101	0,096	-0,037
-111,293	165,888	0,047	0,047
-110,278	-130,134	-0,130	-0,013
-109,264	-200,000	-0,020	0,068
-108,249	-200,000	0,044	-0,139
-107,234	55,740	-0,052	-0,036
-106,220	800,000	-0,019	0,046
-105,205	705,828	0,030	0,057
-104,191	800,000	-0,046	-0,122
-103,176	-200,000	0,022	-0,095
-102,162	186,184	0,077	0,082
-101,147	365,024	-0,117	-0,170
-100,132	180,776	0,011	-0,011
-99,118	800,000	0,043	-0,135
-98,103	-117,538	-0,031	-0,004
-97,089	5,228	0,056	-0,030
-96,074	-137,119	-0,072	-0,006
-95,059	79,329	0,122	0,094
-94,045	-68,163	0,114	-0,032
-93,030	800,000	-0,059	-0,169
-92,016	-23,871	-0,156	-0,067
-91,001	169,614	0,073	-0,075
-89,986	-175,459	-0,084	-0,002
-88,972	800,000	0,030	0,088
-87,957	800,000	-0,028	0,085
-86,943	800,000	0,003	0,007
-85,928	-200,000	-0,009	-0,095
-84,913	91,239	0,036	-0,029
-83,899	64,565	-0,161	0,116
-82,884	800,000	0,070	0,161
-81,870	-200,000	0,013	0,144
-80,855	-55,716	0,115	0,037
-79,840	38,709	-0,046	-0,029
-78,826	-116,723	-0,167	-0,022
-77,811	22,731	0,048	-0,028
-76,797	512,585	0,031	-0,051
-75,782	271,227	-0,013	0,017
-74,767	38,755	0,121	0,077
-73,753	247,802	0,054	-0,065
-72,738	14,148	-0,146	-0,081
-71,724	-34,392	-0,077	-0,030
-70,709	-44,482	0,047	0,017
-69,694	-139,453	0,054	0,004
-68,680	-200,000	0,017	-0,075
-67,665	-200,000	-0,011	0,072
-66,651	6,812	0,116	-0,062
-65,636	130,115	0,061	0,056
-64,622	-12,310	-0,101	-0,047
-63,607	-127,708	0,105	0,011
-62,592	-57,438	-0,142	0,044
-61,578	2,673	-0,131	-0,068
-60,563	477,203	0,048	0,078
-59,549	800,000	0,035	0,074
-58,534	59,918	-2,110	-1,490
-57,519	-200,000	0,102	-0,619
-56,505	-200,000	-1,563	-5,139
-55,490	65,558	0,844	0,611
-54,476	800,000	5,359	12,203
-53,461	-200,000	18,578	305,290
-52,446	800,000	736,649	2268,799
-51,432	537,103	1649,271	2814,976
-50,417	107,984	1635,035	1394,570
-49,403	71,714	1285,753	955,498
-48,388	29,750	1027,032	624,519
-47,373	19,572	989,294	568,047
-46,359	17,337	976,998	553,653
-45,344	14,076	973,137	540,786
-44,330	14,436	971,619	541,098
-43,315	13,809	969,713	537,970
-42,300	13,729	968,521	537,027
-41,286	13,722	967,849	536,612
-40,271	13,773	966,786	536,165
-39,257	13,739	965,998	535,599
-38,242	13,767	965,091	535,165
-37,227	13,758	964,299	534,674
-36,213	13,740	963,400	534,097
-35,198	13,779	962,212	533,544
-34,184	13,806	961,708	533,329
-33,169	13,715	960,689	532,451
-32,154	13,738	959,781	531,999
-31,140	13,790	959,112	531,775
-30,125	13,740	958,272	531,127
-29,111	13,793	957,334	530,758
-28,096	13,735	956,755	530,227
-27,082	13,801	955,999	530,001
-26,067	13,766	955,266	529,459
-25,052	13,750	954,552	528,994
-24,038	13,742	954,050	528,666
-23,023	13,747	953,259	528,225
-22,009	13,819	952,607	528,072
-20,994	13,812	951,892	527,631
-19,979	13,764	951,462	527,219
-18,965	13,776	950,711	526,820
-17,950	13,832	950,018	526,596
-16,936	13,716	949,522	525,931
-15,921	13,717	948,700	525,456
-14,906	13,693	948,105	525,029
-13,892	13,671	947,439	524,570
-12,877	13,668	946,681	524,119
-11,863	13,583	946,284	523,609
-10,848	13,656	945,515	523,395
-9,833	13,753	945,142	523,474
-8,819	13,753	944,409	523,050
-7,804	13,682	943,837	522,486
-6,790	13,714	943,150	522,186
-5,775	13,713	942,752	521,944
-4,760	13,672	942,194	521,483
-3,746	13,703	941,564	521,212
-2,731	13,513	940,828	520,182
-1,717	13,510	940,014	519,703
-0,702	13,479	939,595	519,353
0,313	13,231	939,068	519,063
1,327	16,735	936,982	528,890
2,342	26,058	788,538	469,594
3,356	22,727	443,806	259,356
4,371	-6,169	296,630	144,403
5,386	-9,851	278,604	132,116
6,400	-11,128	272,875	128,197
7,415	-11,073	270,394	127,071
8,429	-11,361	268,974	126,127
9,444	-11,263	268,124	125,808
10,459	-11,576	267,599	125,264
11,473	-11,594	266,763	124,845
12,488	-11,577	266,278	124,622
13,502	-11,667	265,678	124,249
14,517	-11,939	265,306	123,817
15,531	-12,072	264,871	123,483
16,546	-11,713	264,475	123,612
17,561	-11,973	264,037	123,161
18,575	-11,807	263,810	123,194
19,590	-12,072	263,543	122,820
20,604	-11,831	263,192	122,862
21,619	-11,941	262,689	122,517
22,634	-11,954	262,306	122,316
23,648	-12,216	262,202	122,022
24,663	-12,139	261,830	121,907
25,677	-11,969	261,605	121,943
26,692	-12,019	261,267	121,730
27,707	-12,006	261,064	121,637
28,721	-11,950	260,714	121,513
29,736	-12,016	260,454	121,322
30,750	-11,989	260,209	121,221
31,765	-11,996	259,907	121,063
32,780	-12,146	259,838	120,888
33,794	-12,128	259,482	120,727
34,809	-12,037	259,218	120,674
35,823	-12,229	259,155	120,464
36,838	-12,163	258,738	120,318
37,853	-12,192	258,541	120,190
38,867	-12,322	258,298	119,952
39,882	-12,300	258,060	119,849
40,896	-12,000	257,591	119,885
41,911	-12,058	257,376	119,723
42,926	-12,243	257,339	119,533
43,940	-12,349	257,073	119,306
44,955	-12,293	256,802	119,219
45,969	-12,357	256,663	119,088
46,984	-12,523	256,286	118,757
47,999	-12,731	256,067	118,464
49,013	-12,815	255,788	118,251
50,028	-12,808	255,528	118,126
51,042	-13,120	255,300	117,739
52,057	-13,075	255,173	117,709
53,071	-13,005	254,856	117,613
54,086	-12,912	254,730	117,626
55,101	-12,636	254,494	117,745
56,115	-12,578	254,358	117,721
57,130	-11,879	254,282	118,280
58,144	-11,789	254,085	118,256
59,159	-11,689	253,903	118,247
60,174	-11,859	253,747	118,017
61,188	-11,865	253,548	117,909
62,203	-11,969	253,284	117,686
63,217	-11,931	253,095	117,620
64,232	-11,841	253,022	117,653
65,247	-11,709	252,683	117,599
66,261	-12,094	252,448	117,149
67,276	-12,073	252,049	116,971
68,290	-12,452	251,884	116,559
69,305	-12,615	251,631	116,292
70,320	-12,502	251,450	116,296
71,334	-12,320	251,347	116,393
72,349	-11,986	251,314	116,652
73,363	-11,927	251,019	116,555
74,378	-11,918	250,791	116,447
75,393	-11,928	250,500	116,293
76,407	-12,107	250,173	115,979
77,422	-11,850	250,106	116,155
78,436	-11,878	249,869	116,011
79,451	-11,873	249,668	115,912
80,466	-12,190	249,453	115,533
81,480	-12,337	249,036	115,206
82,495	-12,510	249,021	115,042
83,509	-12,338	248,895	115,118
84,524	-12,160	248,440	115,048
85,539	-12,519	248,373	114,704
86,553	-12,506	248,113	114,584
87,568	-12,230	247,939	114,727
88,582	-12,177	247,690	114,645
89,597	-12,243	247,688	114,579
90,611	-12,167	247,436	114,516
91,626	-12,055	247,266	114,521
92,641	-12,113	247,057	114,365
93,655	-12,084	246,988	114,347
94,670	-12,237	246,673	114,064
95,684	-12,267	246,431	113,916
96,699	-12,141	246,194	113,902
97,714	-12,240	246,033	113,735
98,728	-12,472	245,912	113,475
99,743	-12,485	245,550	113,287
100,757	-12,494	245,295	113,152
101,772	-12,411	245,305	113,215
102,787	-12,279	245,127	113,233
103,801	-12,303	244,992	113,140
104,816	-12,146	244,756	113,152
105,830	-12,111	244,635	113,114
106,845	-11,908	244,382	113,156
107,860	-12,071	244,360	113,000
108,874	-12,021	244,034	112,881
109,889	-12,324	243,861	112,540
110,903	-12,211	243,744	112,570
111,918	-12,180	243,433	112,442
112,933	-12,269	243,274	112,284
113,947	-12,106	243,311	112,426
114,962	-12,004	243,006	112,359
115,976	-12,080	242,915	112,245
116,991	-12,162	242,693	112,064
118,006	-12,218	242,447	111,896
119,020	-12,015	242,203	111,939
120,035	-12,141	242,311	111,876
121,049	-12,029	241,996	111,812
122,064	-11,892	241,762	111,805
123,079	-12,239	241,729	111,497
124,093	-12,095	241,447	111,475
125,108	-12,108	240,938	111,219
126,122	-12,567	241,037	110,881
127,137	-12,746	240,765	110,600
128,151	-12,440	240,450	110,694
129,166	-12,332	240,359	110,729
130,181	-12,577	240,254	110,473
131,195	-12,436	239,984	110,453
132,210	-12,055	239,780	110,658
133,224	-12,085	239,678	110,577
134,239	-12,275	239,596	110,376
135,254	-11,953	239,387	110,529
136,268	-12,270	239,172	110,164
137,283	-12,592	239,048	109,837
138,297	-12,713	238,681	109,562
139,312	-12,402	238,496	109,717
140,327	-12,118	238,440	109,911
141,341	-11,646	238,314	110,222
142,356	-11,878	238,306	110,022
143,370	-11,733	238,048	110,009
144,385	-11,629	237,923	110,026
145,400	-11,463	237,701	110,046
146,414	-11,753	237,623	109,768
147,429	-11,939	237,480	109,543
148,443	-11,812	237,096	109,457
149,458	-11,750	237,110	109,504
150,473	-11,617	236,769	109,443
151,487	-11,724	236,596	109,268
152,502	-11,880	236,514	109,096
153,516	-11,625	236,393	109,233
154,531	-11,673	236,118	109,059
155,546	-11,895	235,996	108,815
156,560	-11,846	235,856	108,780
157,575	-11,993	235,572	108,523
158,589	-12,049	235,552	108,460
159,604	-11,811	235,398	108,568
160,619	-11,593	235,212	108,645
161,633	-11,537	234,976	108,571
162,648	-11,698	234,871	108,386
163,662	-11,730	234,711	108,277
164,677	-11,933	234,509	108,013
165,692	-11,934	234,481	107,990
166,706	-11,680	234,274	108,085
167,721	-11,572	234,135	108,097
168,735	-11,444	233,904	108,082
169,750	-11,632	233,848	107,898
170,764	-11,693	233,623	107,737
171,779	-11,658	233,627	107,756
172,794	-11,326	233,488	107,943
173,808	-11,605	233,105	107,537
174,823	-12,354	232,803	106,802
175,837	-12,480	232,811	106,697
176,852	-11,947	232,662	107,037
177,867	-11,874	232,594	107,054
178,881	-11,650	232,380	107,120
179,896	-11,366	232,213	107,256
180,910	-11,586	231,998	106,975
181,925	-11,551	231,981	106,985
182,940	-11,712	231,824	106,778
183,954	-11,665	231,524	106,667
184,969	-11,377	231,384	106,816
185,983	-11,443	231,224	106,682
186,998	-11,547	231,141	106,553
188,013	-11,352	230,922	106,594
189,027	-11,409	230,844	106,504
190,042	-11,539	230,635	106,297
191,056	-11,533	230,560	106,259
192,071	-11,304	230,243	106,280
193,086	-11,665	230,289	106,012
194,100	-11,223	230,079	106,248
195,115	-11,073	229,939	106,290
196,129	-10,627	230,242	106,765
197,144	-5,297	231,864	111,654
198,159	-0,128	233,282	116,360
199,173	2,304	233,986	118,601
200,188	2,663	233,913	118,833
201,202	2,841	233,968	118,989
202,217	2,970	233,846	119,017
203,232	3,188	233,663	119,083
204,246	3,309	233,551	119,109
205,261	3,671	233,305	119,254
206,275	3,488	233,302	119,100
207,290	3,613	233,052	119,059
208,304	3,596	232,921	118,968
209,319	3,638	232,685	118,869
210,334	3,438	232,621	118,672
211,348	3,158	232,452	118,358
212,363	2,818	232,159	117,936
213,377	2,819	231,920	117,804
214,392	2,741	231,789	117,667
215,407	2,720	231,759	117,625
216,421	2,840	231,554	117,603
217,436	2,752	231,317	117,404
218,450	2,858	231,003	117,316
219,465	2,665	230,870	117,090
220,480	2,671	230,855	117,076
221,494	2,696	230,622	116,967
222,509	2,799	230,612	117,030
223,523	2,975	230,440	117,068
224,538	2,767	230,307	116,831
225,553	2,947	230,017	116,810
226,567	2,963	229,997	116,802
227,582	2,964	230,004	116,796
228,596	3,181	229,738	116,816
229,611	2,827	229,590	116,460
230,626	2,439	229,374	116,045
231,640	2,766	229,285	116,239
232,655	2,889	229,107	116,232
233,669	3,145	229,137	116,431
234,684	3,247	228,922	116,389
235,699	3,204	228,724	116,245
236,713	2,865	228,605	115,917
237,728	2,794	228,298	115,697
238,742	2,747	228,140	115,571
239,757	2,701	228,166	115,539
240,772	2,873	227,846	115,497
241,786	2,791	227,638	115,320
242,801	2,731	227,702	115,296
243,815	3,221	227,661	115,635
244,830	3,078	227,364	115,366
245,844	2,789	227,159	115,034
246,859	2,813	227,007	114,965
247,874	3,013	226,910	115,056
248,888	3,012	226,681	114,929
249,903	2,959	226,571	114,823
250,917	2,906	226,537	114,755
251,932	2,659	226,326	114,453
252,947	2,764	226,101	114,408
253,961	2,535	225,823	114,086
254,976	2,499	225,787	114,030
255,990	2,899	225,749	114,300
257,005	2,929	225,607	114,241
258,020	2,985	225,500	114,218
259,034	3,049	225,393	114,202
260,049	3,006	225,188	114,055
261,063	2,604	225,035	113,668
262,078	3,120	224,980	114,015
263,093	3,290	224,689	113,984
264,107	3,103	224,734	113,857
265,122	3,173	224,396	113,728
266,136	3,453	224,279	113,867
267,151	3,323	224,198	113,718
268,166	2,940	223,967	113,308
269,180	2,489	223,741	112,848
270,195	2,666	223,695	112,946
271,209	2,418	223,586	112,697
272,224	2,744	223,408	112,839
273,239	3,043	223,146	112,918
274,253	2,770	223,049	112,657
275,268	2,539	222,805	112,353
276,282	2,686	222,691	112,394
277,297	2,741	222,629	112,393
278,312	2,651	222,414	112,209
279,326	2,809	222,312	112,263
280,341	2,911	222,335	112,340
281,355	2,859	222,196	112,221
282,370	2,848	222,011	112,109
283,384	2,343	221,822	111,634
284,399	2,478	221,566	111,594
285,414	2,729	221,451	111,710
286,428	2,674	221,422	111,645
287,443	2,813	221,273	111,662
288,457	3,035	221,129	111,741
289,472	2,791	220,810	111,392
290,487	2,254	220,660	110,914
291,501	2,237	220,390	110,756
292,516	2,679	220,359	111,053
293,530	2,639	220,277	110,973
294,545	2,179	220,315	110,647
295,560	2,843	220,059	110,991
296,574	2,888	219,849	110,909
297,589	2,769	219,774	110,774
298,603	2,779	219,739	110,754
299,618	2,941	219,529	110,756
300,633	2,865	219,512	110,682
301,647	2,960	219,310	110,639
302,662	2,915	219,172	110,527
303,676	2,881	218,994	110,403
304,691	3,069	218,840	110,451
305,706	3,079	218,773	110,415
306,720	2,991	218,558	110,233
307,735	2,785	218,350	109,970
308,749	2,547	218,281	109,754
309,764	2,789	218,132	109,843
310,779	2,962	218,137	109,961
311,793	3,056	217,900	109,899
312,808	2,967	217,803	109,776
313,822	3,013	217,610	109,702
314,837	2,644	217,483	109,364
315,852	2,580	217,228	109,179
316,866	2,739	217,141	109,241
317,881	3,152	217,114	109,512
318,895	2,884	216,947	109,227
319,910	2,678	216,780	108,985
320,925	2,408	216,596	108,691
321,939	2,311	216,334	108,481
322,954	2,525	216,245	108,579
323,968	2,821	216,272	108,794
324,983	2,783	216,139	108,690
325,997	3,080	216,130	108,887
327,012	2,788	215,867	108,537
328,027	2,998	215,787	108,637
329,041	3,148	215,654	108,667
330,056	3,209	215,369	108,557
331,070	2,927	215,256	108,290
332,085	2,303	214,887	107,653
333,100	2,462	214,930	107,778
334,114	2,627	214,847	107,844
335,129	2,782	214,736	107,887
336,143	2,793	214,462	107,748
337,158	2,902	214,374	107,771
338,173	2,876	214,332	107,722
339,187	2,892	214,076	107,595
340,202	2,575	213,893	107,270
341,216	2,459	213,901	107,183
342,231	2,581	213,645	107,131
343,246	2,744	213,520	107,174
344,260	2,749	213,372	107,093
345,275	2,795	213,443	107,151
346,289	2,942	213,198	107,121
347,304	3,146	213,051	107,181
348,319	2,707	212,953	106,815
349,333	2,854	212,850	106,857
350,348	3,006	212,678	106,867
351,362	3,257	212,465	106,926
352,377	3,014	212,463	106,745
353,392	2,777	212,290	106,484
354,406	3,044	212,077	106,554
355,421	196,860	1337,474	1415,807
356,435	157,340	1474,531	1415,758
