DTS Sentinel unit serial number:	SN410029Multiplexer serial number:	ORYXHardware model number:	OX2-SRSoftware version number:	ORYX F/W v4,00 Oryx Data Collector v3.7.2.0data status	okinstallation	B6 Nyhavnadifferential loss correction	single-endedforward channel	channel 2reverse channel	N/Adate	2023/12/10time	09:35:08forward acquisition time	300,00reverse acquisition time	0,00gamma	499,1914k internal	0,3123k external	0,3123temperature offset calibration	1,0000default loss term (dB/km)	0,3820temperature slope calibration	1,0000multiplexer offset coefficient	1,0000multiplexer slope coefficient	1,0000fibre end	0,00T internal ref (°C)	22,55T ext. ref 1 (°C)	6,32T ext. ref 2 (°C)	6,32length (m)	temperature (°C)	Stokes	anti-Stokes-744,400	574,473	0,045	-0,082
-743,385	-105,097	-0,145	0,024
-742,371	-156,275	-0,067	-0,003
-741,356	-18,003	-0,185	0,086
-740,342	287,215	0,039	-0,053
-739,327	-4,608	-0,285	0,146
-738,312	180,335	-0,062	-0,067
-737,298	-39,870	-0,319	0,124
-736,283	800,000	-0,019	-0,051
-735,269	42,971	-0,170	0,116
-734,254	463,222	0,051	-0,084
-733,239	-25,384	-0,420	-0,184
-732,225	0,488	0,103	-0,054
-731,210	-200,000	0,004	0,091
-730,196	219,372	0,089	0,106
-729,181	-200,000	-0,005	-0,018
-728,167	-142,477	-0,121	0,009
-727,152	-98,644	-0,183	0,035
-726,137	-200,000	0,017	0,094
-725,123	-31,871	-0,042	0,017
-724,108	800,000	-0,027	-0,064
-723,094	-200,000	-0,022	-0,163
-722,079	-95,469	-0,011	0,002
-721,064	-151,446	0,055	0,003
-720,050	-74,001	-0,081	0,022
-719,035	318,194	0,041	-0,058
-718,021	254,904	-0,008	0,010
-717,006	204,850	-0,022	-0,025
-715,991	554,398	0,072	-0,130
-714,977	60,109	-0,114	-0,084
-713,962	800,000	0,012	-0,032
-712,948	-0,857	0,017	-0,009
-711,933	800,000	-0,055	0,115
-710,918	266,092	-0,100	0,131
-709,904	-200,000	-0,036	-0,126
-708,889	800,000	-0,017	-0,055
-707,875	109,898	0,020	-0,018
-706,860	140,129	-0,008	-0,008
-705,845	20,731	-0,048	-0,029
-704,831	2,732	0,079	-0,043
-703,816	42,157	0,092	-0,062
-702,802	-108,974	-0,115	0,018
-701,787	-200,000	-0,007	-0,044
-700,772	-200,000	-0,011	0,118
-699,758	103,557	-0,069	-0,060
-698,743	531,754	-0,071	0,126
-697,729	800,000	0,077	0,168
-696,714	187,132	-0,094	0,104
-695,699	-3,910	-0,024	0,012
-694,685	400,671	-0,096	-0,151
-693,670	-200,000	-0,023	-0,084
-692,656	130,108	-0,077	0,073
-691,641	-200,000	0,024	0,088
-690,627	-200,000	0,008	0,074
-689,612	-124,301	-0,139	-0,016
-688,597	256,028	0,038	0,049
-687,583	-85,141	-0,134	0,031
-686,568	49,101	-0,105	-0,073
-685,554	-200,000	-0,015	0,126
-684,539	800,000	-0,011	-0,034
-683,524	-200,000	0,007	-0,074
-682,510	-200,000	-0,009	0,097
-681,495	49,507	-0,104	0,073
-680,481	450,915	-0,057	-0,094
-679,466	-41,195	-0,133	0,051
-678,451	233,542	0,130	-0,159
-677,437	58,693	0,038	0,028
-676,422	273,447	0,132	0,173
-675,408	294,607	-0,048	-0,066
-674,393	672,850	-0,043	0,084
-673,378	-105,312	-0,152	0,026
-672,364	-200,000	0,005	0,018
-671,349	69,776	0,104	-0,079
-670,335	58,721	-0,010	-0,007
-669,320	53,405	-0,019	-0,014
-668,305	-99,152	0,191	0,036
-667,291	-200,000	-0,022	-0,139
-666,276	175,119	-0,055	-0,060
-665,262	74,553	-0,075	0,058
-664,247	800,000	-0,024	-0,076
-663,232	-200,000	-0,002	-0,159
-662,218	252,921	0,058	-0,074
-661,203	800,000	0,026	0,066
-660,189	-200,000	0,000	0,054
-659,174	-135,649	-0,055	-0,005
-658,159	800,000	-0,038	-0,122
-657,145	123,677	-0,101	-0,094
-656,130	-115,986	0,138	0,019
-655,116	150,986	0,099	0,100
-654,101	-26,939	-0,027	0,012
-653,086	265,328	-0,203	0,263
-652,072	215,393	0,068	0,081
-651,057	350,602	-0,055	0,082
-650,043	-48,597	0,129	0,046
-649,028	141,431	0,079	-0,078
-648,014	-52,511	-0,127	-0,043
-646,999	800,000	0,025	0,056
-645,984	630,310	-0,058	-0,110
-644,970	-43,453	-0,115	-0,043
-643,955	63,566	-0,081	0,060
-642,941	232,874	-0,031	0,038
-641,926	247,397	-0,038	0,048
-640,911	83,519	0,094	0,076
-639,897	800,000	0,014	0,028
-638,882	-163,930	-0,052	-0,002
-637,868	612,707	-0,010	-0,018
-636,853	-200,000	-0,054	0,178
-635,838	104,053	-0,117	-0,102
-634,824	512,290	-0,007	0,012
-633,809	52,471	0,213	0,151
-632,795	-48,739	0,055	0,019
-631,780	110,863	0,021	0,019
-630,765	175,944	-0,047	-0,050
-629,751	84,698	0,052	-0,043
-628,736	-200,000	0,001	0,092
-627,722	6,652	-0,043	0,024
-626,707	-200,000	-0,002	0,081
-625,692	67,855	0,063	-0,048
-624,678	42,530	-0,017	0,012
-623,663	-12,282	0,081	-0,039
-622,649	-131,374	0,164	-0,016
-621,634	-76,824	-0,132	-0,034
-620,619	-133,619	-0,043	-0,004
-619,605	-98,061	-0,064	0,012
-618,590	-21,513	-0,193	0,087
-617,576	-200,000	0,023	0,110
-616,561	800,000	0,027	0,068
-615,546	-38,464	0,049	0,019
-614,532	800,000	-0,065	-0,195
-613,517	346,284	-0,016	0,024
-612,503	27,507	0,127	-0,079
-611,488	-200,000	0,000	-0,020
-610,474	-200,000	-0,014	0,177
-609,459	307,673	0,021	0,029
-608,444	-162,787	-0,129	0,005
-607,430	200,346	-0,118	-0,134
-606,415	-200,000	0,005	0,121
-605,401	-127,183	0,085	-0,009
-604,386	69,113	-0,046	0,035
-603,371	91,206	0,153	0,127
-602,357	-114,228	-0,037	-0,005
-601,342	-52,114	-0,124	-0,042
-600,328	-125,423	0,053	-0,006
-599,313	165,210	-0,033	-0,035
-598,298	23,171	0,097	-0,059
-597,284	400,669	-0,043	-0,067
-596,269	-200,000	-0,020	0,107
-595,255	-163,430	-0,107	-0,004
-594,240	127,347	-0,053	-0,050
-593,225	-200,000	-0,005	-0,102
-592,211	-0,658	-0,157	-0,082
-591,196	-200,000	-0,023	0,084
-590,182	-90,284	0,089	0,019
-589,167	41,984	0,060	0,040
-588,152	-98,981	-0,142	0,027
-587,138	152,528	-0,040	-0,041
-586,123	-200,000	-0,005	-0,091
-585,109	489,878	-0,095	-0,161
-584,094	-94,293	-0,087	-0,018
-583,079	193,554	-0,031	-0,035
-582,065	50,870	0,187	-0,131
-581,050	-200,000	-0,017	0,070
-580,036	-200,000	-0,002	-0,097
-579,021	-98,015	-0,189	-0,036
-578,006	-126,527	-0,219	-0,024
-576,992	800,000	-0,045	0,095
-575,977	-85,161	-0,037	-0,008
-574,963	370,092	0,048	0,072
-573,948	-200,000	-0,008	0,029
-572,934	-114,414	0,029	-0,004
-571,919	-194,950	-0,029	-0,000
-570,904	-200,000	-0,009	-0,089
-569,890	800,000	0,034	-0,101
-568,875	28,588	-0,008	-0,005
-567,861	291,412	-0,054	0,073
-566,846	35,157	-0,103	0,066
-565,831	-200,000	-0,001	-0,048
-564,817	-200,000	-0,014	-0,133
-563,802	-138,290	0,058	0,005
-562,788	534,069	0,069	-0,121
-561,773	51,715	0,104	-0,073
-560,758	-200,000	-0,045	-0,178
-559,744	-7,378	0,150	0,075
-558,729	-29,658	-0,052	-0,022
-557,715	220,353	0,036	-0,042
-556,700	-200,000	-0,091	0,000
-555,685	-34,732	-0,046	0,018
-554,671	-200,000	0,020	0,079
-553,656	458,061	0,094	-0,155
-552,642	150,125	-0,064	-0,064
-551,627	-32,183	-0,089	0,037
-550,612	202,163	-0,075	0,086
-549,598	157,263	0,049	0,051
-548,583	200,303	0,067	-0,076
-547,569	574,403	-0,025	-0,046
-546,554	-200,000	0,026	0,088
-545,539	-110,230	-0,062	-0,009
-544,525	-1,214	0,057	-0,030
-543,510	46,731	-0,072	-0,049
-542,496	800,000	-0,025	-0,055
-541,481	152,148	-0,122	-0,123
-540,466	-200,000	-0,004	-0,021
-539,452	800,000	0,037	0,100
-538,437	-173,588	0,108	0,002
-537,423	-200,000	0,013	0,055
-536,408	-15,693	-0,078	0,037
-535,393	21,350	-0,077	-0,046
-534,379	44,811	-0,036	-0,025
-533,364	268,557	0,042	-0,055
-532,350	173,203	0,136	0,145
-531,335	303,194	-0,024	0,033
-530,321	-39,971	0,131	0,050
-529,306	-47,342	-0,104	-0,037
-528,291	-34,826	-0,083	-0,033
-527,277	-200,000	0,028	-0,103
-526,262	21,356	-0,066	-0,039
-525,248	459,923	0,040	-0,067
-524,233	391,073	-0,039	0,059
-523,218	122,510	0,131	0,121
-522,204	-200,000	0,031	-0,111
-521,189	208,570	-0,129	-0,149
-520,175	-120,904	0,107	-0,013
-519,160	-200,000	0,035	-0,119
-518,145	-200,000	0,001	0,163
-517,131	70,547	0,013	-0,010
-516,116	65,639	0,015	-0,011
-515,102	277,271	0,025	-0,033
-514,087	800,000	0,040	0,100
-513,072	-113,920	-0,146	-0,021
-512,058	-200,000	0,021	-0,075
-511,043	-200,000	-0,010	-0,062
-510,029	-97,447	0,021	0,004
-509,014	-13,206	0,118	0,057
-507,999	115,439	0,033	0,030
-506,985	207,147	-0,075	-0,086
-505,970	800,000	-0,047	-0,134
-504,956	-42,224	-0,017	0,006
-503,941	-200,000	-0,012	-0,045
-502,926	29,631	0,071	-0,045
-501,912	610,309	0,024	0,044
-500,897	-200,000	-0,029	0,164
-499,883	202,568	0,124	0,141
-498,868	-89,167	-0,023	0,005
-497,853	800,000	0,025	-0,060
-496,839	192,040	-0,114	-0,127
-495,824	133,362	0,025	0,024
-494,810	28,511	-0,066	-0,041
-493,795	-70,746	-0,009	-0,003
-492,781	156,211	-0,074	0,075
-491,766	164,552	-0,044	0,046
-490,751	-1,926	-0,126	-0,065
-489,737	-6,112	-0,041	0,021
-488,722	800,000	0,043	0,116
-487,708	800,000	0,045	0,121
-486,693	-174,466	-0,044	0,001
-485,678	-200,000	0,012	-0,085
-484,664	288,072	-0,048	-0,065
-483,649	-35,797	-0,038	-0,015
-482,635	64,090	0,089	0,066
-481,620	46,134	0,054	0,037
-480,605	-122,132	0,113	0,014
-479,591	800,000	0,061	0,134
-478,576	228,292	-0,031	0,037
-477,562	344,389	0,049	-0,071
-476,547	800,000	0,028	-0,065
-475,532	-91,068	-0,027	0,006
-474,518	-65,050	-0,054	-0,016
-473,503	800,000	0,057	0,148
-472,489	108,939	0,103	0,091
-471,474	-41,463	-0,049	0,019
-470,459	-157,286	-0,048	-0,002
-469,445	37,768	0,045	-0,030
-468,430	-200,000	-0,014	-0,068
-467,416	-135,590	0,046	0,004
-466,401	-200,000	0,017	0,075
-465,386	-200,000	-0,014	0,096
-464,372	-13,907	0,118	0,056
-463,357	-5,796	0,070	0,035
-462,343	148,974	-0,049	0,049
-461,328	-200,000	-0,007	0,042
-460,313	-200,000	-0,002	-0,020
-459,299	-122,134	0,026	-0,003
-458,284	-74,281	0,059	0,016
-457,270	-181,211	-0,062	-0,001
-456,255	800,000	0,003	0,009
-455,241	686,867	-0,020	-0,038
-454,226	-130,569	-0,049	0,005
-453,211	800,000	0,040	-0,096
-452,197	800,000	0,062	0,149
-451,182	-15,310	0,092	0,043
-450,168	-200,000	-0,014	-0,081
-449,153	-200,000	0,006	0,130
-448,138	800,000	0,031	-0,075
-447,124	800,000	0,013	0,032
-446,109	-200,000	-0,004	0,085
-445,095	800,000	-0,014	0,039
-444,080	294,560	0,076	0,103
-443,065	-44,297	0,100	-0,037
-442,051	202,924	0,017	-0,019
-441,036	181,656	0,014	-0,015
-440,022	-200,000	-0,019	-0,119
-439,007	403,156	0,112	-0,174
-437,992	-200,000	-0,007	0,057
-436,978	613,593	0,060	0,111
-435,963	800,000	0,027	0,063
-434,949	-200,000	0,028	0,100
-433,934	-15,059	-0,048	-0,023
-432,919	-200,000	0,046	-0,180
-431,905	129,883	0,047	-0,044
-430,890	-38,862	0,065	-0,025
-429,876	800,000	0,002	0,004
-428,861	-200,000	0,006	0,041
-427,846	-52,072	-0,125	-0,042
-426,832	-99,350	-0,063	0,012
-425,817	-200,000	-0,031	-0,126
-424,803	-200,000	0,053	-0,178
-423,788	-54,571	0,102	-0,034
-422,773	800,000	-0,021	-0,066
-421,759	-18,610	0,045	0,020
-420,744	134,562	0,124	-0,118
-419,730	-200,000	0,029	-0,142
-418,715	121,943	-0,044	-0,041
-417,701	236,757	-0,021	0,026
-416,686	46,544	0,080	-0,055
-415,671	-64,273	0,166	0,049
-414,657	-148,476	-0,061	-0,004
-413,642	429,536	-0,014	-0,022
-412,628	-27,057	0,086	-0,037
-411,613	416,957	-0,047	-0,074
-410,598	-148,964	-0,049	-0,003
-409,584	-200,000	0,013	0,057
-408,569	800,000	0,027	0,077
-407,555	60,598	0,025	-0,018
-406,540	800,000	0,097	0,208
-405,525	-37,060	-0,099	0,039
-404,511	-200,000	-0,028	-0,165
-403,496	800,000	0,014	-0,032
-402,482	-4,327	0,061	-0,031
-401,467	48,486	0,093	0,064
-400,452	46,541	0,055	0,037
-399,438	-200,000	0,019	0,171
-398,423	800,000	-0,014	0,037
-397,409	171,099	-0,045	-0,047
-396,394	800,000	-0,052	-0,109
-395,379	446,847	0,087	-0,141
-394,365	262,477	0,052	-0,066
-393,350	220,417	-0,033	0,039
-392,336	-6,851	-0,057	0,028
-391,321	68,609	-0,059	0,044
-390,306	-132,785	-0,084	-0,008
-389,292	-200,000	0,041	-0,174
-388,277	800,000	0,022	0,051
-387,263	-58,474	-0,078	0,025
-386,248	583,737	0,064	-0,116
-385,233	367,807	0,043	0,064
-384,219	-200,000	0,007	0,033
-383,204	259,447	0,047	0,060
-382,190	225,252	0,042	-0,049
-381,175	-32,275	0,070	-0,029
-380,160	402,217	-0,053	-0,082
-379,146	-200,000	-0,010	0,131
-378,131	34,058	-0,089	0,057
-377,117	386,911	-0,081	0,123
-376,102	26,667	-0,013	-0,008
-375,088	-200,000	0,003	-0,083
-374,073	126,325	0,056	0,052
-373,058	1,690	0,093	0,049
-372,044	90,526	-0,086	-0,071
-371,029	-134,788	0,044	-0,004
-370,015	-200,000	-0,022	-0,095
-369,000	202,635	-0,105	-0,119
-367,985	-10,642	-0,114	0,055
-366,971	-101,332	-0,094	0,017
-365,956	44,542	-0,081	0,055
-364,942	663,824	0,030	0,056
-363,927	628,055	-0,038	0,071
-362,912	-111,405	0,136	0,020
-361,898	247,244	0,026	-0,033
-360,883	107,346	-0,030	-0,026
-359,869	-55,648	0,085	-0,028
-358,854	-94,207	-0,086	-0,017
-357,839	405,638	0,046	0,072
-356,825	-40,606	-0,054	0,020
-355,810	-200,000	-0,004	-0,035
-354,796	16,727	0,088	0,051
-353,781	225,099	0,072	-0,086
-352,766	73,285	0,117	0,090
-351,752	-200,000	0,020	0,100
-350,737	-152,809	0,069	-0,004
-349,723	474,590	0,025	0,041
-348,708	-200,000	-0,035	0,121
-347,693	-82,052	0,072	-0,017
-346,679	-37,018	-0,096	-0,038
-345,664	-200,000	0,023	-0,096
-344,650	-165,414	-0,029	0,001
-343,635	47,048	0,012	-0,008
-342,620	-45,245	0,112	0,041
-341,606	-164,437	0,076	-0,003
-340,591	168,995	-0,077	-0,081
-339,577	-160,339	-0,042	-0,002
-338,562	-200,000	-0,113	-0,000
-337,548	800,000	0,056	0,138
-336,533	-70,048	0,139	0,038
-335,518	14,608	0,089	0,051
-334,504	-200,000	-0,010	0,068
-333,489	32,662	0,077	-0,049
-332,475	-200,000	0,021	-0,136
-331,460	274,224	-0,050	-0,065
-330,445	-75,810	0,106	0,027
-329,431	-200,000	0,008	0,046
-328,416	-30,708	-0,060	0,025
-327,402	-200,000	-0,003	-0,027
-326,387	714,841	0,022	0,043
-325,372	-55,496	-0,125	-0,041
-324,358	800,000	0,015	0,039
-323,343	-43,022	0,046	0,017
-322,329	70,389	-0,088	-0,067
-321,314	481,116	-0,090	-0,150
-320,299	-200,000	-0,003	0,138
-319,285	-61,277	-0,061	0,019
-318,270	-72,718	0,057	-0,015
-317,256	538,979	-0,054	0,094
-316,241	178,906	-0,071	0,076
-315,226	-200,000	0,008	0,116
-314,212	334,340	-0,050	0,070
-313,197	-200,000	0,059	0,204
-312,183	88,793	0,062	0,051
-311,168	-200,000	0,004	-0,098
-310,153	-10,534	-0,134	-0,065
-309,139	-148,381	-0,058	0,003
-308,124	-70,817	0,050	-0,014
-307,110	-139,908	0,051	-0,004
-306,095	59,397	-0,054	0,039
-305,080	480,462	-0,059	0,098
-304,066	-23,068	-0,068	-0,030
-303,051	-53,782	0,102	-0,034
-302,037	651,879	-0,008	-0,015
-301,022	-3,020	0,112	-0,057
-300,008	-156,404	0,179	0,008
-298,993	668,515	0,045	0,086
-297,978	-29,375	0,109	0,046
-296,964	-200,000	0,010	0,071
-295,949	-5,454	-0,070	-0,035
-294,935	328,292	0,044	-0,063
-293,920	192,696	-0,137	0,151
-292,905	800,000	-0,016	0,039
-291,891	257,678	-0,037	-0,046
-290,876	504,171	-0,060	0,102
-289,862	-163,211	-0,136	-0,005
-288,847	-200,000	-0,028	-0,135
-287,832	68,695	-0,094	-0,070
-286,818	134,177	0,063	0,060
-285,803	-124,325	0,175	-0,020
-284,789	88,360	-0,084	-0,068
-283,774	-13,785	0,175	0,082
-282,759	46,674	0,034	0,023
-281,745	800,000	-0,052	-0,144
-280,730	342,381	-0,037	0,053
-279,716	50,354	0,108	-0,075
-278,701	-46,246	0,068	0,024
-277,686	800,000	0,055	-0,138
-276,672	800,000	0,024	0,060
-275,657	-68,373	0,142	0,040
-274,643	442,952	-0,068	0,109
-273,628	315,478	-0,086	0,119
-272,613	24,306	0,062	0,038
-271,599	17,034	0,145	0,084
-270,584	800,000	-0,036	-0,110
-269,570	-86,533	-0,017	0,004
-268,555	-109,020	-0,085	-0,013
-267,540	-200,000	-0,030	-0,112
-266,526	101,018	0,062	0,053
-265,511	-200,000	0,023	-0,093
-264,497	800,000	0,019	0,040
-263,482	49,565	0,011	0,008
-262,467	-67,570	-0,068	0,019
-261,453	-68,999	0,074	0,021
-260,438	800,000	-0,050	-0,116
-259,424	-200,000	-0,001	-0,094
-258,409	157,135	0,051	-0,052
-257,395	-200,000	0,010	-0,070
-256,380	800,000	-0,026	0,053
-255,365	-14,189	0,045	0,021
-254,351	472,445	-0,075	0,125
-253,336	146,316	-0,092	-0,090
-252,322	-200,000	0,003	-0,101
-251,307	741,810	0,035	-0,070
-250,292	40,426	0,008	-0,005
-249,278	-18,582	-0,125	0,057
-248,263	387,274	-0,030	0,045
-247,249	151,797	-0,041	-0,041
-246,234	231,210	-0,039	0,046
-245,219	-178,182	-0,067	-0,001
-244,205	-200,000	-0,003	-0,025
-243,190	800,000	-0,054	0,121
-242,176	-122,720	0,120	0,014
-241,161	-100,144	0,112	-0,020
-240,146	312,206	0,037	0,051
-239,132	338,517	-0,037	-0,052
-238,117	-200,000	-0,010	-0,118
-237,103	-200,000	-0,001	0,027
-236,088	792,786	0,029	-0,058
-235,073	-141,337	0,045	0,003
-234,059	160,720	-0,042	0,043
-233,044	605,738	0,018	-0,033
-232,030	180,658	0,082	0,088
-231,015	-134,683	-0,044	-0,004
-230,000	-200,000	0,011	0,046
-228,986	-29,051	0,141	-0,059
-227,971	-200,000	-0,001	0,079
-226,957	304,856	0,090	0,123
-225,942	-116,247	0,045	0,006
-224,927	-11,473	-0,062	0,030
-223,913	-137,870	-0,155	0,013
-222,898	-8,085	-0,106	-0,052
-221,884	-103,652	-0,103	-0,017
-220,869	-139,755	0,190	-0,015
-219,855	220,351	-0,050	0,059
-218,840	-200,000	-0,011	0,104
-217,825	-135,670	-0,129	0,011
-216,811	28,768	-0,093	0,058
-215,796	-23,095	-0,037	0,016
-214,782	-200,000	-0,031	-0,136
-213,767	279,643	0,091	0,119
-212,752	-94,871	-0,044	-0,009
-211,738	-200,000	-0,000	-0,021
-210,723	-36,333	0,104	-0,041
-209,709	-148,533	0,016	0,001
-208,694	521,423	-0,071	-0,122
-207,679	10,613	-0,058	0,032
-206,665	-16,463	-0,064	0,030
-205,650	336,874	0,087	0,124
-204,636	2,158	-0,100	0,052
-203,621	800,000	0,000	-0,001
-202,606	177,383	-0,084	0,090
-201,592	-55,706	-0,157	-0,051
-200,577	-122,748	-0,115	-0,013
-199,563	800,000	-0,014	0,035
-198,548	54,095	0,141	0,099
-197,533	-200,000	0,036	-0,118
-196,519	-131,797	0,195	-0,018
-195,504	-90,920	-0,131	0,027
-194,490	-104,166	-0,137	0,023
-193,475	-200,000	-0,018	-0,122
-192,460	800,000	-0,023	0,070
-191,446	-200,000	0,005	0,065
-190,431	154,826	0,034	-0,034
-189,417	55,071	-0,027	-0,019
-188,402	43,507	0,057	-0,038
-187,387	55,896	-0,026	-0,018
-186,373	-200,000	0,006	-0,121
-185,358	800,000	0,040	-0,119
-184,344	-32,376	0,025	0,010
-183,329	50,119	-0,039	-0,027
-182,315	-134,798	-0,105	0,009
-181,300	-83,430	-0,084	0,019
-180,285	300,191	-0,033	-0,044
-179,271	-135,816	-0,068	-0,006
-178,256	-73,284	-0,057	-0,015
-177,242	217,324	0,043	-0,050
-176,227	266,269	0,029	0,037
-175,212	5,790	0,042	0,022
-174,198	350,833	-0,046	-0,066
-173,183	-8,033	-0,126	0,062
-172,169	118,038	-0,099	0,089
-171,154	800,000	-0,003	0,010
-170,139	800,000	0,045	0,108
-169,125	47,138	-0,067	-0,045
-168,110	47,547	0,147	0,100
-167,096	-155,796	-0,096	0,004
-166,081	97,636	0,090	-0,075
-165,066	288,637	0,079	-0,104
-164,052	10,866	0,064	0,035
-163,037	800,000	0,070	-0,151
-162,023	189,425	-0,014	-0,015
-161,008	588,319	0,018	0,033
-159,993	800,000	0,064	-0,134
-158,979	-200,000	-0,015	0,052
-157,964	800,000	-0,029	0,060
-156,950	52,533	0,105	0,073
-155,935	216,165	0,074	0,086
-154,920	509,160	0,058	-0,099
-153,906	284,011	0,045	0,058
-152,891	368,154	-0,038	-0,055
-151,877	-200,000	0,011	-0,079
-150,862	61,585	0,023	0,017
-149,847	167,244	0,059	0,061
-148,833	151,037	-0,084	0,083
-147,818	4,696	-0,161	0,086
-146,804	70,468	0,070	-0,053
-145,789	-74,252	-0,104	0,027
-144,775	800,000	-0,038	-0,108
-143,760	-200,000	0,051	-0,169
-142,745	-42,659	-0,134	0,050
-141,731	-200,000	-0,019	0,093
-140,716	350,495	-0,042	0,061
-139,702	383,821	-0,067	0,100
-138,687	229,256	-0,016	-0,019
-137,672	-165,104	-0,067	0,002
-136,658	106,823	0,008	0,007
-135,643	110,472	-0,048	0,042
-134,629	15,550	-0,051	0,029
-133,614	-200,000	-0,006	0,087
-132,599	642,195	-0,031	-0,058
-131,585	800,000	0,020	-0,045
-130,570	258,490	0,012	0,015
-129,556	-43,470	0,118	0,043
-128,541	-178,289	0,099	-0,002
-127,526	-0,450	-0,012	0,006
-126,512	-200,000	-0,007	-0,072
-125,497	75,126	0,081	0,062
-124,483	120,465	0,028	0,025
-123,468	-200,000	0,006	0,036
-122,453	-200,000	-0,013	-0,068
-121,439	250,697	0,096	-0,119
-120,424	-200,000	-0,013	-0,109
-119,410	-200,000	0,017	0,068
-118,395	196,314	0,032	0,035
-117,380	27,830	0,047	0,029
-116,366	-200,000	-0,008	0,052
-115,351	38,368	-0,166	-0,107
-114,337	-20,451	-0,034	0,015
-113,322	-200,000	0,007	0,042
-112,307	-37,247	0,074	0,029
-111,293	135,673	-0,029	0,027
-110,278	62,290	0,051	0,037
-109,264	-20,562	-0,061	0,027
-108,249	-123,000	-0,199	-0,023
-107,234	-106,762	0,085	0,014
-106,220	550,379	-0,031	0,054
-105,205	-200,000	0,012	0,071
-104,191	-34,441	-0,119	-0,047
-103,176	-200,000	-0,022	0,093
-102,162	250,609	0,050	-0,062
-101,147	-117,721	-0,082	-0,011
-100,132	800,000	-0,033	-0,093
-99,118	172,700	0,057	0,060
-98,103	-200,000	0,001	0,055
-97,089	800,000	-0,048	0,103
-96,074	-200,000	-0,024	0,135
-95,059	-28,914	-0,082	0,034
-94,045	-75,428	0,154	0,039
-93,030	105,717	-0,038	-0,032
-92,016	104,098	-0,070	-0,060
-91,001	-196,423	-0,034	0,000
-89,986	430,113	-0,013	0,021
-88,972	-200,000	0,008	0,138
-87,957	316,659	0,059	-0,081
-86,943	-72,547	-0,034	0,009
-85,928	800,000	0,038	-0,104
-84,913	-86,660	0,057	-0,013
-83,899	-200,000	0,009	0,093
-82,884	-153,117	-0,176	0,009
-81,870	71,331	-0,103	0,078
-80,855	-200,000	0,019	0,097
-79,840	127,528	0,060	-0,056
-78,826	165,455	-0,086	-0,088
-77,811	-55,870	0,180	0,058
-76,797	562,382	0,057	0,100
-75,782	800,000	0,036	0,079
-74,767	140,053	0,123	0,118
-73,753	268,403	-0,038	-0,049
-72,738	719,924	0,024	-0,046
-71,724	7,498	-0,066	-0,036
-70,709	296,372	0,061	0,082
-69,694	-72,883	-0,085	0,023
-68,680	-84,349	-0,110	0,025
-67,665	-200,000	-0,011	0,102
-66,651	189,668	0,076	0,082
-65,636	800,000	-0,012	-0,031
-64,622	800,000	0,007	0,015
-63,607	441,935	-0,073	-0,116
-62,592	140,828	-0,112	0,108
-61,578	-131,785	0,095	0,009
-60,563	47,511	-0,075	0,050
-59,549	182,514	0,088	0,094
-58,534	-94,235	-1,408	-0,277
-57,519	695,949	-0,787	-1,507
-56,505	-200,000	-0,994	-4,399
-55,490	78,591	0,502	-0,389
-54,476	800,000	4,912	11,820
-53,461	-200,000	13,305	252,871
-52,446	-200,000	688,925	2267,253
-51,432	595,486	1622,653	2925,876
-50,417	120,635	1635,849	1475,008
-49,403	73,677	1289,886	979,590
-48,388	38,415	1024,686	661,183
-47,373	24,516	982,260	588,100
-46,359	23,634	972,102	579,099
-45,344	22,798	967,790	573,778
-44,330	22,719	966,275	572,597
-43,315	22,577	964,877	571,282
-42,300	22,572	963,812	570,614
-41,286	22,552	962,959	570,020
-40,271	22,564	962,034	569,489
-39,257	22,569	961,140	568,953
-38,242	22,572	960,133	568,344
-37,227	22,565	959,260	567,783
-36,213	22,530	958,425	567,154
-35,198	22,542	957,571	566,664
-34,184	22,551	956,967	566,313
-33,169	22,488	956,054	565,548
-32,154	22,553	955,046	565,137
-31,140	22,606	954,168	564,765
-30,125	22,630	953,377	564,352
-29,111	22,589	952,685	563,790
-28,096	22,605	951,872	563,337
-27,082	22,547	951,257	562,763
-26,067	22,595	950,470	562,431
-25,052	22,597	949,862	562,054
-24,038	22,637	949,108	561,714
-23,023	22,531	948,658	561,088
-22,009	22,628	947,806	560,870
-20,994	22,649	947,127	560,515
-19,979	22,632	946,726	560,201
-18,965	22,548	946,081	559,527
-17,950	22,617	945,206	559,209
-16,936	22,552	944,665	558,657
-15,921	22,525	943,916	558,109
-14,906	22,447	943,213	557,422
-13,892	22,450	942,646	557,074
-12,877	22,536	941,842	556,851
-11,863	22,453	941,362	556,282
-10,848	22,467	940,911	556,037
-9,833	22,627	940,168	556,084
-8,819	22,531	939,665	555,460
-7,804	22,512	939,145	555,068
-6,790	22,445	938,599	554,512
-5,775	22,530	937,836	554,308
-4,760	22,430	937,412	553,719
-3,746	22,470	936,724	553,419
-2,731	22,331	935,938	552,493
-1,717	22,292	935,320	551,983
-0,702	22,333	934,533	551,624
0,313	22,063	933,951	551,262
1,327	25,137	931,717	559,562
2,342	34,761	796,694	504,120
3,356	32,747	452,094	283,006
4,371	1,817	293,916	153,119
5,386	-2,498	274,846	139,087
6,400	-3,922	268,922	134,756
7,415	-4,665	266,703	132,948
8,429	-4,299	265,289	132,567
9,444	-4,376	264,431	132,057
10,459	-4,246	263,814	131,855
11,473	-4,270	263,142	131,485
12,488	-4,306	262,737	131,238
13,502	-4,523	262,236	130,780
14,517	-4,432	261,708	130,588
15,531	-4,352	261,383	130,486
16,546	-4,365	261,024	130,283
17,561	-4,477	260,668	129,993
18,575	-4,171	260,465	130,156
19,590	-4,363	260,006	129,742
20,604	-4,211	259,618	129,673
21,619	-4,399	259,383	129,376
22,634	-4,476	259,069	129,139
23,648	-4,419	258,897	129,093
24,663	-4,492	258,522	128,829
25,677	-4,420	258,220	128,731
26,692	-4,411	258,066	128,652
27,707	-4,508	257,797	128,419
28,721	-4,463	257,542	128,321
29,736	-4,415	257,097	128,131
30,750	-4,468	256,978	128,013
31,765	-4,443	256,699	127,884
32,780	-4,518	256,555	127,734
33,794	-4,403	256,275	127,685
34,809	-4,445	256,088	127,543
35,823	-4,583	255,995	127,364
36,838	-4,607	255,662	127,166
37,853	-4,625	255,428	127,023
38,867	-4,514	255,062	126,927
39,882	-4,601	254,959	126,788
40,896	-4,644	254,622	126,572
41,911	-4,576	254,449	126,534
42,926	-4,479	254,163	126,465
43,940	-4,412	254,007	126,434
44,955	-4,675	253,790	126,086
45,969	-4,859	253,541	125,790
46,984	-4,910	253,197	125,565
47,999	-5,038	252,984	125,336
49,013	-5,037	252,789	125,229
50,028	-5,458	252,701	124,808
51,042	-5,260	252,327	124,784
52,057	-5,250	251,970	124,605
53,071	-5,409	251,988	124,465
54,086	-5,240	251,843	124,529
55,101	-5,063	251,537	124,520
56,115	-5,049	251,443	124,474
57,130	-4,403	251,188	124,894
58,144	-4,323	251,144	124,931
59,159	-4,501	250,966	124,677
60,174	-4,170	250,723	124,830
61,188	-4,363	250,730	124,657
62,203	-4,329	250,365	124,493
63,217	-4,255	250,085	124,406
64,232	-4,288	249,855	124,253
65,247	-4,284	249,654	124,145
66,261	-4,501	249,486	123,865
67,276	-4,606	249,123	123,584
68,290	-4,678	249,095	123,497
69,305	-4,858	248,765	123,168
70,320	-4,861	248,633	123,090
71,334	-4,704	248,575	123,184
72,349	-4,177	248,244	123,457
73,363	-4,367	248,117	123,222
74,378	-4,051	247,856	123,351
75,393	-4,389	247,629	122,939
76,407	-4,583	247,550	122,724
77,422	-4,477	247,342	122,700
78,436	-4,304	247,121	122,726
79,451	-4,204	246,888	122,684
80,466	-4,483	246,603	122,296
81,480	-4,577	246,399	122,105
82,495	-4,909	246,320	121,774
83,509	-4,932	246,264	121,716
84,524	-4,995	245,954	121,498
85,539	-4,841	245,588	121,437
86,553	-4,968	245,496	121,274
87,568	-4,619	245,176	121,398
88,582	-4,729	245,113	121,263
89,597	-4,644	244,946	121,241
90,611	-4,562	244,906	121,279
91,626	-4,589	244,764	121,176
92,641	-4,549	244,600	121,117
93,655	-4,452	244,320	121,049
94,670	-4,808	244,112	120,638
95,684	-4,769	243,931	120,570
96,699	-4,620	243,661	120,550
97,714	-4,572	243,566	120,532
98,728	-4,792	243,349	120,230
99,743	-4,938	243,198	120,023
100,757	-4,861	242,818	119,889
101,772	-4,932	242,715	119,769
102,787	-4,808	242,685	119,847
103,801	-4,667	242,468	119,846
104,816	-4,624	242,159	119,717
105,830	-4,335	241,989	119,862
106,845	-4,573	242,019	119,670
107,860	-4,631	241,788	119,496
108,874	-4,560	241,532	119,419
109,889	-4,748	241,425	119,199
110,903	-4,663	241,181	119,138
111,918	-4,611	240,951	119,057
112,933	-4,600	240,855	119,007
113,947	-4,603	240,788	118,961
114,962	-4,656	240,492	118,761
115,976	-4,308	240,212	118,898
116,991	-4,355	240,060	118,774
118,006	-4,377	239,943	118,687
119,020	-4,453	240,096	118,690
120,035	-4,410	239,817	118,577
121,049	-4,338	239,635	118,535
122,064	-4,491	239,382	118,274
123,079	-4,716	239,193	117,986
124,093	-4,582	239,030	118,005
125,108	-4,716	238,652	117,698
126,122	-4,887	238,450	117,450
127,137	-5,019	238,485	117,348
128,151	-4,919	238,347	117,351
129,166	-4,875	238,241	117,325
130,181	-5,006	237,883	117,031
131,195	-5,002	237,694	116,931
132,210	-4,633	237,641	117,194
133,224	-4,502	237,389	117,166
134,239	-4,698	237,277	116,941
135,254	-4,579	237,062	116,921
136,268	-4,590	236,800	116,773
137,283	-4,842	236,699	116,508
138,297	-4,935	236,353	116,253
139,312	-5,047	236,226	116,090
140,327	-4,586	236,226	116,451
141,341	-4,330	236,150	116,610
142,356	-4,312	236,123	116,600
143,370	-4,188	235,842	116,551
144,385	-4,241	235,509	116,334
145,400	-4,170	235,490	116,371
146,414	-4,288	235,337	116,190
147,429	-4,233	235,180	116,146
148,443	-4,365	235,071	115,976
149,458	-4,542	234,982	115,780
150,473	-4,323	234,670	115,791
151,487	-4,279	234,306	115,637
152,502	-4,246	234,129	115,565
153,516	-4,000	234,070	115,722
154,531	-4,285	233,999	115,449
155,546	-4,455	233,870	115,240
156,560	-4,381	233,643	115,177
157,575	-4,523	233,451	114,959
158,589	-4,541	233,303	114,861
159,604	-4,189	233,090	115,026
160,619	-3,988	232,922	115,092
161,633	-4,179	232,879	114,909
162,648	-3,993	232,700	114,958
163,662	-4,245	232,596	114,696
164,677	-4,255	232,286	114,526
165,692	-4,365	232,147	114,360
166,706	-4,113	232,080	114,516
167,721	-3,970	231,965	114,562
168,735	-4,031	231,742	114,393
169,750	-4,155	231,608	114,219
170,764	-4,201	231,494	114,117
171,779	-4,110	231,406	114,135
172,794	-4,096	231,190	114,029
173,808	-4,310	231,088	113,800
174,823	-4,764	230,747	113,265
175,837	-4,873	230,556	113,077
176,852	-4,303	230,424	113,448
177,867	-4,213	230,329	113,462
178,881	-4,097	230,162	113,461
179,896	-4,085	230,153	113,455
180,910	-3,977	229,823	113,367
181,925	-3,930	229,648	113,307
182,940	-4,040	229,518	113,147
183,954	-3,982	229,412	113,130
184,969	-4,041	229,280	113,009
185,983	-4,055	229,199	112,947
186,998	-4,108	229,086	112,841
188,013	-3,957	228,880	112,847
189,027	-3,826	228,615	112,808
190,042	-4,163	228,581	112,519
191,056	-3,974	228,290	112,512
192,071	-4,101	228,283	112,401
193,086	-4,209	228,175	112,254
194,100	-4,059	228,004	112,276
195,115	-4,187	227,440	111,889
196,129	-4,739	227,465	111,465
197,144	-0,892	228,605	114,997
198,159	2,938	229,627	118,476
199,173	3,656	230,003	119,217
200,188	4,024	229,763	119,367
201,202	4,126	229,584	119,343
202,217	4,150	229,478	119,295
203,232	4,675	229,322	119,610
204,246	4,625	229,343	119,572
205,261	4,752	229,192	119,580
206,275	4,924	229,100	119,655
207,290	4,957	228,966	119,599
208,304	4,874	228,800	119,438
209,319	4,686	228,542	119,148
210,334	4,837	228,312	119,133
211,348	4,466	228,158	118,757
212,363	3,916	227,828	118,152
213,377	3,979	227,643	118,094
214,392	3,826	227,594	117,941
215,407	4,019	227,494	118,027
216,421	4,014	227,269	117,896
217,436	3,851	227,136	117,691
218,450	3,639	226,787	117,338
219,465	3,508	226,619	117,140
220,480	3,779	226,463	117,256
221,494	3,655	226,500	117,170
222,509	3,873	226,281	117,212
223,523	3,847	226,161	117,120
224,538	4,004	225,920	117,104
225,553	3,913	225,917	117,023
226,567	3,783	225,953	116,932
227,582	4,158	225,678	117,065
228,596	4,409	225,507	117,156
229,611	3,976	225,338	116,730
230,626	3,743	225,145	116,442
231,640	3,665	224,909	116,251
232,655	4,062	224,936	116,555
233,669	4,508	224,898	116,862
234,684	4,344	224,807	116,681
235,699	4,264	224,564	116,483
236,713	4,045	224,367	116,206
237,728	3,988	223,999	115,962
238,742	3,763	224,001	115,783
239,757	3,960	223,766	115,799
240,772	3,922	223,609	115,679
241,786	3,784	223,606	115,564
242,801	4,220	223,385	115,767
243,815	4,463	223,373	115,933
244,830	4,534	223,155	115,863
245,844	4,179	222,887	115,448
246,859	3,872	222,866	115,195
247,874	4,310	222,751	115,454
248,888	4,121	222,848	115,353
249,903	3,998	222,420	115,029
250,917	3,968	222,312	114,941
251,932	3,951	222,094	114,804
252,947	3,866	221,906	114,634
253,961	3,642	221,806	114,404
254,976	3,949	221,679	114,558
255,990	4,078	221,586	114,596
257,005	4,022	221,458	114,478
258,020	4,058	221,378	114,453
259,034	4,464	221,197	114,651
260,049	4,251	221,018	114,390
261,063	4,039	220,967	114,196
262,078	4,384	220,818	114,364
263,093	4,488	220,625	114,331
264,107	4,322	220,556	114,162
265,122	4,231	220,392	114,000
266,136	4,384	220,214	114,011
267,151	4,344	220,001	113,861
268,166	4,076	219,780	113,538
269,180	3,884	219,604	113,296
270,195	3,971	219,405	113,247
271,209	3,721	219,360	113,030
272,224	4,084	219,156	113,182
273,239	4,096	219,125	113,164
274,253	3,873	218,946	112,898
275,268	3,816	218,733	112,737
276,282	3,676	218,610	112,560
277,297	3,671	218,355	112,415
278,312	3,793	218,451	112,544
279,326	3,767	218,316	112,446
280,341	4,028	218,032	112,480
281,355	3,869	218,146	112,412
282,370	3,852	217,942	112,285
283,384	3,640	217,579	111,933
284,399	3,703	217,332	111,842
285,414	3,709	217,469	111,907
286,428	3,740	217,294	111,830
287,443	4,030	217,211	111,988
288,457	4,204	217,113	112,054
289,472	4,083	216,810	111,799
290,487	3,601	216,571	111,317
291,501	3,203	216,469	110,966
292,516	3,734	216,300	111,254
293,530	3,712	216,247	111,201
294,545	3,652	216,135	111,089
295,560	3,668	215,999	111,022
296,574	3,835	215,863	111,063
297,589	3,861	215,714	110,995
298,603	4,029	215,734	111,116
299,618	4,149	215,521	111,083
300,633	3,944	215,293	110,808
301,647	4,190	215,373	111,017
302,662	4,233	215,228	110,963
303,676	4,070	215,022	110,730
304,691	4,160	214,907	110,725
305,706	4,030	214,913	110,625
306,720	4,174	214,544	110,528
307,735	4,107	214,320	110,355
308,749	3,816	214,214	110,083
309,764	3,990	214,218	110,199
310,779	4,182	214,051	110,241
311,793	4,067	213,848	110,045
312,808	4,042	213,788	109,986
313,822	3,975	213,602	109,832
314,837	3,775	213,502	109,629
315,852	3,875	213,336	109,605
316,866	3,903	213,203	109,547
317,881	4,127	213,074	109,630
318,895	4,154	212,993	109,598
319,910	3,920	212,738	109,290
320,925	3,725	212,506	109,023
321,939	3,495	212,337	108,764
322,954	3,606	212,233	108,780
323,968	3,982	212,253	109,047
324,983	3,935	212,216	108,984
325,997	3,862	212,120	108,874
327,012	4,081	211,804	108,857
328,027	3,983	211,764	108,757
329,041	3,996	211,600	108,673
330,056	4,379	211,470	108,866
331,070	4,193	211,201	108,587
332,085	3,753	211,137	108,234
333,100	3,778	211,132	108,240
334,114	3,939	210,816	108,182
335,129	3,776	210,702	107,999
336,143	3,618	210,496	107,773
337,158	3,778	210,531	107,894
338,173	3,946	210,272	107,869
339,187	3,767	210,072	107,631
340,202	3,616	209,909	107,432
341,216	3,591	209,784	107,341
342,231	3,518	209,891	107,335
343,246	3,558	209,641	107,226
344,260	3,537	209,594	107,178
345,275	3,692	209,387	107,170
346,289	4,021	209,326	107,359
347,304	4,139	209,249	107,392
348,319	3,759	209,103	107,043
349,333	4,028	208,922	107,128
350,348	3,914	208,757	106,954
351,362	4,068	208,640	106,992
352,377	4,149	208,524	106,979
353,392	3,870	208,576	106,802
354,406	3,838	208,275	106,617
355,421	194,329	1346,266	1436,203
356,435	155,057	1485,031	1436,318
