DTS Sentinel unit serial number:	SN410029Multiplexer serial number:	ORYXHardware model number:	OX2-SRSoftware version number:	ORYX F/W v4,00 Oryx Data Collector v3.7.2.0data status	okinstallation	B6 Nyhavnadifferential loss correction	single-endedforward channel	channel 2reverse channel	N/Adate	2023/12/09time	07:30:08forward acquisition time	300,00reverse acquisition time	0,00gamma	499,1914k internal	0,3139k external	0,3139temperature offset calibration	1,0000default loss term (dB/km)	0,3820temperature slope calibration	1,0000multiplexer offset coefficient	1,0000multiplexer slope coefficient	1,0000fibre end	0,00T internal ref (°C)	18,56T ext. ref 1 (°C)	1,99T ext. ref 2 (°C)	1,99length (m)	temperature (°C)	Stokes	anti-Stokes-744,400	280,467	-0,039	0,052
-743,385	800,000	-0,069	0,162
-742,371	118,367	0,103	0,095
-741,356	-109,214	-0,203	0,032
-740,342	-46,246	0,140	-0,051
-739,327	84,678	-0,177	0,144
-738,312	148,663	0,069	0,070
-737,298	-114,825	-0,348	0,049
-736,283	-51,733	0,157	0,054
-735,269	-157,976	-0,229	-0,010
-734,254	191,112	-0,087	-0,097
-733,239	-39,750	-0,409	-0,158
-732,225	-168,954	0,163	0,004
-731,210	800,000	-0,035	0,114
-730,196	94,855	0,048	-0,041
-729,181	-104,505	-0,092	0,016
-728,167	318,749	-0,066	0,092
-727,152	-34,405	-0,088	-0,036
-726,137	350,749	-0,081	-0,119
-725,123	-92,151	-0,133	-0,028
-724,108	422,856	-0,067	-0,107
-723,094	-200,000	0,007	-0,064
-722,079	297,716	-0,139	-0,190
-721,064	-200,000	0,010	0,072
-720,050	-200,000	-0,007	0,053
-719,035	417,245	0,018	-0,029
-718,021	76,896	-0,022	-0,017
-717,006	-163,054	-0,138	-0,005
-715,991	-200,000	-0,018	0,101
-714,977	91,102	-0,104	0,086
-713,962	-64,013	0,109	0,033
-712,948	209,124	0,105	-0,122
-711,933	-108,818	-0,055	0,009
-710,918	-125,095	-0,155	0,017
-709,904	-130,805	-0,109	0,011
-708,889	800,000	-0,049	-0,134
-707,875	-200,000	-0,007	-0,079
-706,860	-67,895	0,096	-0,028
-705,845	-200,000	0,001	0,119
-704,831	77,462	0,034	0,027
-703,816	800,000	-0,048	0,139
-702,802	-162,011	-0,138	-0,005
-701,787	800,000	-0,017	-0,052
-700,772	452,186	-0,020	0,033
-699,758	-97,174	-0,100	-0,019
-698,743	406,043	-0,055	-0,086
-697,729	-200,000	-0,012	0,047
-696,714	-200,000	0,010	-0,069
-695,699	36,536	-0,024	0,016
-694,685	-150,886	-0,041	0,002
-693,670	332,261	0,042	-0,060
-692,656	312,372	0,025	-0,035
-691,641	800,000	-0,015	0,034
-690,627	69,833	-0,064	0,049
-689,612	-172,135	-0,032	0,001
-688,597	649,393	-0,040	0,077
-687,583	36,880	-0,094	-0,062
-686,568	416,988	0,031	-0,050
-685,554	63,137	-0,050	0,037
-684,539	436,239	0,029	-0,048
-683,524	-62,159	-0,037	-0,011
-682,510	92,466	0,084	0,070
-681,495	275,379	0,025	-0,033
-680,481	-200,000	0,020	0,067
-679,466	469,488	-0,082	-0,138
-678,451	-182,135	-0,031	-0,000
-677,437	-200,000	0,016	0,166
-676,422	360,731	0,016	0,024
-675,408	24,620	0,015	-0,009
-674,393	67,896	-0,082	0,062
-673,378	712,016	-0,029	-0,056
-672,364	-100,995	-0,106	-0,019
-671,349	-132,240	-0,152	0,014
-670,335	-200,000	-0,004	-0,113
-669,320	-125,238	0,079	-0,009
-668,305	-153,272	0,047	0,002
-667,291	800,000	-0,037	0,078
-666,276	-95,408	-0,149	-0,029
-665,262	-200,000	0,029	-0,114
-664,247	40,315	0,067	-0,045
-663,232	-200,000	-0,023	0,091
-662,218	180,519	-0,178	-0,194
-661,203	-57,129	0,083	-0,027
-660,189	-193,536	-0,034	-0,000
-659,174	200,547	0,089	-0,101
-658,159	215,573	-0,041	0,048
-657,145	-200,000	0,032	-0,133
-656,130	-44,837	0,109	0,040
-655,116	33,225	-0,058	-0,037
-654,101	-13,663	0,065	-0,031
-653,086	-200,000	0,013	-0,162
-652,072	-200,000	-0,009	-0,103
-651,057	177,793	-0,025	0,027
-650,043	800,000	-0,022	-0,058
-649,028	-21,152	-0,098	-0,044
-648,014	51,337	0,094	0,066
-646,999	33,577	-0,074	0,047
-645,984	-23,100	0,125	0,055
-644,970	-114,198	-0,138	-0,020
-643,955	134,778	-0,068	-0,065
-642,941	-128,815	0,078	0,008
-641,926	33,890	0,013	0,009
-640,911	-60,079	0,026	0,008
-639,897	51,550	0,053	0,037
-638,882	-200,000	-0,003	-0,072
-637,868	-200,000	0,006	0,061
-636,853	-200,000	0,040	-0,181
-635,838	190,904	0,030	-0,033
-634,824	91,813	0,050	-0,041
-633,809	-38,823	0,110	0,043
-632,795	-98,819	-0,025	0,005
-631,780	281,213	-0,045	-0,059
-630,765	164,201	-0,071	-0,074
-629,751	126,997	-0,159	-0,149
-628,736	614,473	-0,026	0,049
-627,722	800,000	0,027	0,084
-626,707	456,936	0,020	-0,033
-625,692	-200,000	-0,001	0,006
-624,678	-128,198	-0,018	0,002
-623,663	90,784	-0,073	0,060
-622,649	800,000	-0,035	-0,082
-621,634	-200,000	-0,069	-0,237
-620,619	414,482	-0,067	-0,106
-619,605	800,000	0,009	0,020
-618,590	-200,000	-0,011	0,080
-617,576	21,823	-0,039	-0,023
-616,561	-200,000	-0,012	-0,112
-615,546	481,737	0,061	-0,102
-614,532	-200,000	-0,028	-0,109
-613,517	-67,599	-0,069	-0,020
-612,503	-200,000	0,009	-0,057
-611,488	800,000	0,054	-0,143
-610,474	-102,248	-0,176	0,031
-609,459	8,098	-0,068	-0,037
-608,444	10,850	0,113	-0,063
-607,430	98,053	-0,120	-0,102
-606,415	37,576	-0,088	-0,058
-605,401	62,343	0,126	0,093
-604,386	166,319	-0,024	-0,025
-603,371	-200,000	-0,001	0,076
-602,357	147,048	0,034	0,034
-601,342	800,000	0,033	-0,077
-600,328	-200,000	0,009	0,033
-599,313	-200,000	0,002	0,024
-598,298	25,786	-0,131	0,080
-597,284	-28,270	-0,042	0,018
-596,269	800,000	0,024	0,050
-595,255	-11,112	0,073	-0,035
-594,240	-140,653	0,162	0,012
-593,225	-200,000	0,003	-0,097
-592,211	-87,293	0,072	0,016
-591,196	590,807	-0,042	-0,077
-590,182	94,296	0,050	0,042
-589,167	519,740	0,064	0,112
-588,152	800,000	0,039	-0,114
-587,138	-200,000	0,001	-0,129
-586,123	-71,040	-0,087	-0,024
-585,109	16,749	-0,094	0,055
-584,094	94,266	-0,082	-0,068
-583,079	-152,383	0,145	-0,008
-582,065	800,000	0,055	-0,122
-581,050	-200,000	-0,017	-0,080
-580,036	240,069	0,076	0,093
-579,021	215,512	-0,061	-0,072
-578,006	-82,072	-0,159	-0,038
-576,992	204,789	0,077	0,088
-575,977	800,000	-0,044	-0,124
-574,963	-200,000	-0,034	0,200
-573,948	143,376	0,060	0,059
-572,934	800,000	-0,053	0,162
-571,919	-200,000	-0,010	0,037
-570,904	-200,000	-0,002	-0,089
-569,890	800,000	0,043	-0,130
-568,875	33,517	0,052	0,033
-567,861	290,058	0,040	0,053
-566,846	477,757	-0,048	-0,080
-565,831	622,970	0,050	0,093
-564,817	-200,000	0,002	-0,016
-563,802	-200,000	0,009	-0,078
-562,788	570,115	0,026	-0,047
-561,773	278,636	0,026	-0,035
-560,758	-156,279	0,019	-0,001
-559,744	9,413	-0,119	0,066
-558,729	-200,000	-0,000	0,042
-557,715	-42,906	-0,030	0,011
-556,700	366,298	0,124	-0,185
-555,685	800,000	0,039	-0,104
-554,671	800,000	0,004	0,013
-553,656	113,026	-0,037	-0,033
-552,642	320,826	0,071	0,099
-551,627	38,046	-0,063	0,041
-550,612	72,000	-0,028	-0,022
-549,598	181,577	-0,081	0,088
-548,583	-200,000	0,019	-0,135
-547,569	-96,544	0,076	0,015
-546,554	-167,456	0,064	0,002
-545,539	-22,765	0,048	-0,021
-544,525	58,717	0,116	-0,084
-543,510	-40,510	0,041	-0,016
-542,496	59,371	0,090	-0,065
-541,481	211,236	0,074	-0,086
-540,466	-200,000	-0,003	-0,009
-539,452	479,278	0,078	0,130
-538,437	-94,072	-0,040	0,008
-537,423	100,830	0,050	0,043
-536,408	583,406	0,056	-0,102
-535,393	198,100	-0,109	-0,123
-534,379	-200,000	-0,016	-0,073
-533,364	174,025	-0,039	-0,042
-532,350	459,313	-0,010	-0,016
-531,335	-200,000	-0,015	-0,083
-530,321	61,753	-0,089	-0,065
-529,306	800,000	0,029	-0,083
-528,291	80,204	-0,108	-0,085
-527,277	-200,000	0,007	0,133
-526,262	-64,849	-0,095	-0,028
-525,248	11,974	0,177	0,100
-524,233	91,551	-0,069	-0,057
-523,218	46,424	-0,150	-0,102
-522,204	-79,416	0,013	0,003
-521,189	-200,000	0,013	-0,062
-520,175	25,856	0,010	-0,006
-519,160	-200,000	-0,002	-0,046
-518,145	-80,654	0,002	0,000
-517,131	92,283	0,067	0,056
-516,116	-200,000	-0,008	-0,064
-515,102	-200,000	0,006	-0,026
-514,087	-66,365	0,040	-0,012
-513,072	800,000	-0,087	-0,184
-512,058	-200,000	0,011	-0,210
-511,043	-200,000	-0,041	-0,169
-510,029	-25,860	-0,078	0,033
-509,014	800,000	0,065	0,135
-507,999	-200,000	0,010	0,055
-506,985	800,000	-0,051	-0,114
-505,970	-200,000	-0,001	0,059
-504,956	14,073	-0,096	-0,055
-503,941	-200,000	-0,034	0,128
-502,926	38,334	-0,053	0,035
-501,912	68,982	0,156	0,118
-500,897	-121,912	-0,137	0,016
-499,883	800,000	0,032	-0,080
-498,868	382,897	0,026	-0,039
-497,853	-200,000	0,009	-0,107
-496,839	548,383	0,033	0,058
-495,824	442,668	0,015	0,024
-494,810	244,985	-0,059	0,073
-493,795	-200,000	-0,020	0,132
-492,781	-124,372	-0,096	-0,011
-491,766	-151,819	-0,041	-0,002
-490,751	-32,549	-0,027	0,011
-489,737	63,390	0,155	0,114
-488,722	131,352	0,131	0,124
-487,708	122,132	-0,050	-0,046
-486,693	-153,251	0,047	-0,002
-485,678	800,000	0,034	-0,074
-484,664	800,000	0,022	-0,061
-483,649	163,063	-0,109	-0,113
-482,635	-12,895	0,068	-0,033
-481,620	195,293	0,083	0,092
-480,605	-200,000	-0,028	0,113
-479,591	624,860	0,044	-0,082
-478,576	30,651	-0,087	-0,055
-477,562	400,682	-0,032	-0,050
-476,547	-200,000	-0,037	-0,134
-475,532	-21,830	-0,074	-0,033
-474,518	394,012	0,110	0,168
-473,503	208,902	-0,045	0,052
-472,489	800,000	-0,005	0,016
-471,474	511,855	0,073	0,125
-470,459	73,288	-0,024	0,019
-469,445	176,555	-0,090	-0,096
-468,430	552,720	-0,074	-0,131
-467,416	-200,000	-0,041	-0,154
-466,401	632,466	0,013	0,023
-465,386	800,000	0,022	-0,044
-464,372	270,446	-0,052	-0,067
-463,357	800,000	-0,015	-0,038
-462,343	-200,000	-0,015	0,199
-461,328	-200,000	-0,016	-0,085
-460,313	-20,094	-0,052	0,024
-459,299	74,353	0,034	0,026
-458,284	-200,000	0,041	0,135
-457,270	397,187	0,102	0,157
-456,255	42,363	-0,049	-0,033
-455,241	182,035	-0,015	-0,017
-454,226	-200,000	0,004	-0,091
-453,211	649,362	-0,035	0,066
-452,197	-15,879	0,106	0,049
-451,182	153,459	0,075	0,075
-450,168	152,439	0,153	0,154
-449,153	-200,000	-0,024	-0,098
-448,138	-84,124	-0,135	0,031
-447,124	800,000	0,012	0,036
-446,109	-8,385	-0,055	0,027
-445,095	394,418	0,044	-0,068
-444,080	38,706	-0,033	-0,021
-443,065	-62,570	0,157	-0,047
-442,051	-50,487	0,149	-0,051
-441,036	-147,513	-0,101	0,006
-440,022	107,650	-0,033	-0,029
-439,007	800,000	0,058	-0,153
-437,992	283,486	0,008	0,011
-436,978	-191,566	0,075	-0,001
-435,963	-30,008	-0,010	0,004
-434,949	326,756	0,016	0,023
-433,934	800,000	-0,035	-0,104
-432,919	514,590	0,039	-0,068
-431,905	24,240	-0,055	-0,033
-430,890	-200,000	-0,015	0,122
-429,876	-156,871	0,032	-0,001
-428,861	-62,686	0,129	-0,039
-427,846	-200,000	-0,023	0,085
-426,832	146,484	0,060	0,059
-425,817	48,917	-0,105	0,072
-424,803	183,740	0,060	0,065
-423,788	260,236	-0,059	0,075
-422,773	-200,000	0,033	0,110
-421,759	-200,000	-0,012	0,154
-420,744	73,002	-0,134	0,102
-419,730	64,822	-0,188	-0,139
-418,715	-200,000	0,002	-0,113
-417,701	800,000	-0,032	0,086
-416,686	23,224	0,056	0,034
-415,671	50,644	0,174	0,120
-414,657	149,119	-0,090	0,089
-413,642	800,000	-0,018	0,040
-412,628	-30,378	-0,087	0,036
-411,613	-113,347	0,037	0,005
-410,598	-165,712	-0,080	-0,002
-409,584	-48,877	-0,015	-0,005
-408,569	364,570	0,039	0,058
-407,555	118,632	-0,053	0,048
-406,540	-46,157	0,120	0,043
-405,525	-97,156	-0,038	-0,007
-404,511	137,659	-0,090	-0,086
-403,496	800,000	0,018	-0,038
-402,482	800,000	-0,044	-0,098
-401,467	-43,111	0,038	0,014
-400,452	-114,188	0,012	0,002
-399,438	800,000	0,017	0,034
-398,423	-149,385	-0,138	-0,008
-397,409	-40,078	0,051	-0,019
-396,394	416,841	0,054	-0,084
-395,379	-88,684	0,080	0,017
-394,365	287,126	-0,090	0,119
-393,350	800,000	-0,040	-0,103
-392,336	-111,738	-0,063	0,009
-391,321	-100,336	0,043	-0,008
-390,306	-200,000	-0,001	-0,060
-389,292	-200,000	-0,023	0,088
-388,277	7,001	-0,109	0,059
-387,263	70,662	0,090	-0,068
-386,248	-200,000	0,001	-0,061
-385,233	278,178	-0,061	0,079
-384,219	18,413	-0,176	-0,103
-383,204	-200,000	0,002	-0,017
-382,190	-65,728	-0,143	0,042
-381,175	-122,660	-0,019	-0,002
-380,160	-83,748	0,125	-0,029
-379,146	100,772	-0,101	0,086
-378,131	-101,413	0,064	0,011
-377,117	-200,000	-0,001	0,039
-376,102	247,715	-0,026	-0,032
-375,088	-200,000	-0,011	-0,202
-374,073	-200,000	0,029	0,129
-373,058	-8,035	0,063	0,031
-372,044	72,199	0,052	-0,040
-371,029	340,748	0,096	-0,137
-370,015	89,883	0,068	0,055
-369,000	23,358	-0,142	-0,085
-367,985	0,184	-0,019	0,010
-366,971	-200,000	0,015	-0,120
-365,956	-200,000	0,010	0,131
-364,942	800,000	-0,020	0,049
-363,927	-120,867	0,090	0,011
-362,912	52,767	0,044	0,030
-361,898	479,014	-0,043	0,071
-360,883	800,000	0,086	-0,221
-359,869	-141,673	-0,101	-0,007
-358,854	333,816	-0,068	0,097
-357,839	310,862	0,079	0,108
-356,825	-80,081	0,177	0,043
-355,810	-155,658	0,061	0,003
-354,796	315,975	-0,044	0,061
-353,781	-200,000	-0,019	0,116
-352,766	134,579	0,046	-0,044
-351,752	-200,000	0,002	-0,031
-350,737	-200,000	0,005	-0,046
-349,723	236,517	-0,015	0,018
-348,708	9,020	0,084	0,046
-347,693	269,448	0,086	0,110
-346,679	-96,370	-0,194	-0,037
-345,664	-200,000	0,005	0,039
-344,650	-200,000	-0,002	0,055
-343,635	-200,000	-0,002	-0,008
-342,620	-200,000	-0,033	0,199
-341,606	289,919	0,031	-0,042
-340,591	-200,000	-0,051	-0,184
-339,577	-151,161	0,070	-0,004
-338,562	-74,007	-0,037	-0,010
-337,548	197,032	0,051	0,057
-336,533	-200,000	-0,010	-0,103
-335,518	6,388	-0,097	0,053
-334,504	-25,385	-0,141	0,061
-333,489	-200,000	-0,019	0,075
-332,475	-22,583	-0,068	0,030
-331,460	633,718	-0,013	0,025
-330,445	149,639	-0,060	0,060
-329,431	-200,000	0,013	0,166
-328,416	94,617	0,080	0,067
-327,402	85,631	-0,077	0,062
-326,387	156,205	0,056	-0,056
-325,372	-200,000	-0,011	-0,072
-324,358	800,000	-0,036	-0,114
-323,343	752,968	0,041	0,082
-322,329	800,000	-0,019	0,043
-321,314	17,067	0,110	-0,064
-320,299	-200,000	-0,007	0,040
-319,285	37,971	0,169	0,109
-318,270	-101,158	-0,186	0,033
-317,256	119,186	0,025	-0,023
-316,241	56,351	0,041	-0,029
-315,226	-120,561	-0,033	0,004
-314,212	-74,755	0,154	0,040
-313,197	-60,190	0,104	0,032
-312,183	194,987	-0,026	0,029
-311,168	-200,000	-0,003	-0,040
-310,153	-132,944	0,145	0,013
-309,139	-37,340	0,030	0,012
-308,124	188,592	0,052	0,057
-307,110	296,905	0,008	-0,011
-306,095	800,000	0,048	0,149
-305,080	44,120	-0,141	-0,094
-304,066	55,606	-0,031	0,022
-303,051	-153,368	-0,119	0,006
-302,037	24,952	-0,043	0,026
-301,022	-200,000	0,015	0,123
-300,008	-48,472	0,188	0,066
-298,993	-200,000	-0,004	-0,031
-297,978	61,755	0,077	0,056
-296,964	800,000	-0,029	-0,073
-295,949	-168,762	0,048	0,001
-294,935	-81,990	-0,117	-0,028
-293,920	-120,875	0,093	0,011
-292,905	350,452	-0,089	0,129
-291,891	-200,000	-0,015	0,150
-290,876	-200,000	-0,009	0,074
-289,862	-47,869	-0,039	0,014
-288,847	-200,000	-0,009	0,035
-287,832	64,159	-0,090	0,066
-286,818	-18,232	0,066	0,030
-285,803	64,344	0,076	0,055
-284,789	-17,977	-0,039	-0,018
-283,774	-111,366	0,224	0,033
-282,759	667,095	-0,055	0,104
-281,745	10,058	0,081	0,045
-280,730	57,458	-0,040	-0,029
-279,716	76,497	-0,138	-0,107
-278,701	6,906	0,078	-0,042
-277,686	770,466	0,038	-0,076
-276,672	-78,242	-0,104	-0,026
-275,657	800,000	-0,021	-0,044
-274,643	321,868	-0,036	-0,050
-273,628	501,745	-0,058	-0,099
-272,613	-96,050	-0,143	-0,027
-271,599	-200,000	0,013	-0,089
-270,584	-100,327	0,014	-0,003
-269,570	-146,121	0,010	0,001
-268,555	-10,488	-0,076	-0,037
-267,540	2,238	0,045	0,024
-266,526	141,444	0,039	-0,037
-265,511	-53,915	-0,030	0,010
-264,497	444,135	-0,038	-0,061
-263,482	86,145	-0,032	0,026
-262,467	800,000	-0,043	-0,111
-261,453	-21,007	0,066	-0,029
-260,438	122,791	-0,083	0,075
-259,424	36,695	-0,132	-0,084
-258,409	408,134	-0,038	-0,058
-257,395	-113,955	-0,054	0,008
-256,380	800,000	-0,078	0,189
-255,365	800,000	0,073	0,153
-254,351	50,270	0,008	-0,005
-253,336	59,967	-0,040	-0,029
-252,322	-200,000	0,011	-0,142
-251,307	71,117	0,080	-0,060
-250,292	82,596	-0,083	0,065
-249,278	-11,824	0,051	-0,024
-248,263	-48,293	-0,093	0,032
-247,249	116,530	-0,096	0,086
-246,234	437,765	0,019	-0,030
-245,219	571,815	-0,037	0,067
-244,205	203,223	-0,077	-0,086
-243,190	-23,191	0,109	-0,047
-242,176	-200,000	0,015	0,068
-241,161	123,156	-0,084	0,076
-240,146	25,575	-0,059	0,036
-239,132	-200,000	-0,010	0,074
-238,117	-200,000	-0,002	-0,017
-237,103	130,670	-0,040	-0,037
-236,088	800,000	0,046	0,101
-235,073	800,000	0,055	0,120
-234,059	-42,443	0,046	-0,017
-233,044	800,000	0,057	0,146
-232,030	-200,000	-0,006	0,022
-231,015	103,411	0,033	0,028
-230,000	14,258	-0,083	0,047
-228,986	-63,489	-0,043	0,013
-227,971	-200,000	-0,009	-0,051
-226,957	314,196	0,038	0,052
-225,942	-59,633	0,139	-0,043
-224,927	-85,069	-0,120	-0,027
-223,913	-200,000	-0,015	-0,053
-222,898	-47,424	-0,102	-0,036
-221,884	-23,886	-0,006	0,002
-220,869	162,433	0,096	-0,098
-219,855	800,000	0,061	0,146
-218,840	-200,000	-0,010	0,087
-217,825	-104,636	-0,060	-0,010
-216,811	-200,000	-0,004	-0,029
-215,796	-200,000	-0,002	0,009
-214,782	-36,856	0,071	0,028
-213,767	357,887	-0,037	-0,053
-212,752	-43,372	0,170	0,062
-211,738	-17,528	-0,133	-0,060
-210,723	-19,228	-0,044	0,020
-209,709	70,750	0,057	-0,043
-208,694	107,622	-0,056	-0,048
-207,679	60,997	0,141	-0,101
-206,665	100,788	0,111	0,094
-205,650	-91,951	0,116	0,024
-204,636	-14,880	0,062	-0,029
-203,621	800,000	-0,040	0,094
-202,606	-200,000	-0,007	-0,065
-201,592	-200,000	0,009	-0,070
-200,577	-200,000	-0,015	0,128
-199,563	-200,000	-0,012	0,125
-198,548	1,259	-0,063	0,033
-197,533	69,912	0,088	0,066
-196,519	129,333	0,084	0,078
-195,504	-200,000	-0,014	-0,068
-194,490	-162,837	-0,121	0,004
-193,475	18,145	-0,034	-0,020
-192,460	-200,000	0,007	-0,052
-191,446	-200,000	0,027	0,158
-190,431	74,688	0,025	0,019
-189,417	106,239	-0,036	-0,031
-188,402	166,017	-0,051	-0,052
-187,387	-138,670	0,119	-0,009
-186,373	280,934	0,039	0,050
-185,358	-24,593	0,075	0,032
-184,344	-167,532	0,163	0,005
-183,329	632,343	0,035	-0,066
-182,315	-200,000	0,024	-0,169
-181,300	182,664	-0,119	0,127
-180,285	-49,621	-0,102	-0,035
-179,271	204,859	-0,057	0,064
-178,256	-88,259	0,066	0,014
-177,242	323,134	0,040	-0,056
-176,227	-200,000	0,006	-0,055
-175,212	-200,000	0,005	0,213
-174,198	157,475	-0,004	0,004
-173,183	-92,156	0,159	-0,032
-172,169	-178,220	0,097	0,002
-171,154	18,967	-0,057	0,033
-170,139	8,728	0,075	0,041
-169,125	-200,000	-0,024	0,081
-168,110	-77,396	-0,053	0,013
-167,096	286,128	0,042	-0,055
-166,081	392,610	-0,045	-0,069
-165,066	800,000	0,014	0,044
-164,052	800,000	0,043	-0,132
-163,037	9,581	0,094	-0,051
-162,023	49,113	0,060	0,041
-161,008	-173,209	0,030	0,001
-159,993	-86,012	0,088	0,020
-158,979	20,191	-0,073	-0,043
-157,964	61,834	-0,057	0,041
-156,950	-200,000	0,006	-0,072
-155,935	-200,000	0,001	0,041
-154,920	64,932	-0,025	0,018
-153,906	-123,986	0,026	0,003
-152,891	-200,000	-0,001	-0,086
-151,877	800,000	0,060	-0,150
-150,862	131,723	0,033	0,031
-149,847	114,928	0,055	0,049
-148,833	88,235	0,092	-0,074
-147,818	-124,499	0,069	0,008
-146,804	-200,000	-0,007	-0,109
-145,789	723,542	0,036	-0,070
-144,775	-200,000	-0,004	0,043
-143,760	-200,000	-0,009	-0,034
-142,745	554,661	-0,076	-0,134
-141,731	120,701	-0,041	0,037
-140,716	-200,000	-0,007	0,195
-139,702	-121,667	0,039	-0,005
-138,687	-200,000	0,011	0,123
-137,672	-161,014	-0,119	-0,004
-136,658	-200,000	0,001	-0,155
-135,643	-200,000	0,013	-0,084
-134,629	493,702	-0,027	0,046
-133,614	394,619	0,096	0,145
-132,599	119,044	-0,093	-0,084
-131,585	-10,159	0,024	0,012
-130,570	-2,980	-0,053	0,027
-129,556	-8,226	0,028	0,013
-128,541	138,041	-0,045	0,043
-127,526	800,000	0,033	0,099
-126,512	-191,071	0,060	0,000
-125,497	149,300	0,169	0,166
-124,483	-200,000	-0,026	0,097
-123,468	744,488	-0,054	-0,106
-122,453	40,485	-0,125	0,082
-121,439	763,557	0,023	0,046
-120,424	800,000	0,039	-0,101
-119,410	-76,404	-0,029	0,007
-118,395	26,539	-0,075	0,045
-117,380	36,855	0,083	-0,053
-116,366	-30,515	-0,054	0,022
-115,351	-26,691	-0,120	-0,050
-114,337	-200,000	-0,030	-0,098
-113,322	-187,119	-0,033	0,000
-112,307	-7,405	0,072	0,035
-111,293	-200,000	0,029	0,109
-110,278	-96,278	0,092	0,017
-109,264	36,437	-0,058	-0,037
-108,249	-200,000	-0,001	0,043
-107,234	-76,819	-0,155	-0,039
-106,220	-171,329	-0,137	0,003
-105,205	-200,000	0,005	-0,021
-104,191	-107,342	-0,082	-0,013
-103,176	800,000	0,027	0,064
-102,162	-28,916	0,095	-0,039
-101,147	26,727	-0,118	0,072
-100,132	-200,000	0,015	-0,069
-99,118	399,418	-0,052	0,079
-98,103	-24,757	0,130	-0,056
-97,089	-200,000	-0,044	0,198
-96,074	-96,250	0,109	0,021
-95,059	252,153	-0,055	-0,068
-94,045	-200,000	-0,027	0,124
-93,030	103,394	-0,020	0,017
-92,016	119,513	-0,085	-0,076
-91,001	800,000	0,042	-0,107
-89,986	-200,000	0,001	-0,104
-88,972	800,000	0,034	-0,073
-87,957	-18,663	-0,044	-0,020
-86,943	375,889	-0,035	-0,051
-85,928	-112,974	-0,149	-0,021
-84,913	160,769	-0,044	0,044
-83,899	800,000	0,063	-0,131
-82,884	267,054	0,069	0,088
-81,870	-93,609	0,146	-0,029
-80,855	658,752	0,055	0,103
-79,840	-91,134	0,088	0,018
-78,826	-72,668	-0,093	0,025
-77,811	489,615	0,026	-0,043
-76,797	191,901	-0,051	-0,056
-75,782	306,033	-0,028	0,038
-74,767	113,329	0,031	0,027
-73,753	116,929	-0,072	-0,064
-72,738	-53,818	-0,074	-0,024
-71,724	36,331	-0,024	-0,015
-70,709	84,178	-0,047	-0,037
-69,694	4,960	0,049	-0,026
-68,680	-124,154	0,053	0,006
-67,665	-12,159	0,067	-0,032
-66,651	-182,225	0,123	-0,002
-65,636	137,747	-0,035	-0,033
-64,622	800,000	0,041	0,111
-63,607	132,849	0,052	0,049
-62,592	800,000	0,029	-0,077
-61,578	800,000	-0,024	-0,076
-60,563	800,000	0,019	0,050
-59,549	191,320	-0,015	-0,017
-58,534	-12,495	-1,674	-0,786
-57,519	800,000	-0,428	-1,023
-56,505	-200,000	-1,029	-4,734
-55,490	-132,607	0,723	-0,066
-54,476	800,000	5,323	12,271
-53,461	-200,000	15,810	277,341
-52,446	-200,000	702,271	2244,715
-51,432	562,538	1619,124	2840,005
-50,417	121,193	1623,590	1459,338
-49,403	81,375	1284,014	1001,116
-48,388	36,645	1028,113	654,101
-47,373	21,575	989,890	579,953
-46,359	20,534	978,652	569,913
-45,344	18,864	974,376	561,912
-44,330	18,939	973,121	561,412
-43,315	18,671	971,381	559,507
-42,300	18,644	970,345	558,798
-41,286	18,654	969,107	558,098
-40,271	18,642	968,306	557,575
-39,257	18,675	967,424	557,151
-38,242	18,659	966,721	556,672
-37,227	18,615	966,061	556,127
-36,213	18,609	965,340	555,670
-35,198	18,545	964,328	554,857
-34,184	18,613	963,527	554,596
-33,169	18,619	962,568	554,042
-32,154	18,629	961,795	553,607
-31,140	18,604	961,022	553,060
-30,125	18,616	960,255	552,633
-29,111	18,624	959,336	552,109
-28,096	18,649	958,799	551,860
-27,082	18,540	958,152	551,113
-26,067	18,627	957,204	550,826
-25,052	18,597	956,333	550,208
-24,038	18,618	955,700	549,887
-23,023	18,537	955,015	549,213
-22,009	18,618	954,334	549,058
-20,994	18,605	954,003	548,804
-19,979	18,584	953,235	548,275
-18,965	18,587	952,557	547,870
-17,950	18,633	951,952	547,650
-16,936	18,579	951,315	547,087
-15,921	18,515	950,756	546,541
-14,906	18,464	950,007	545,925
-13,892	18,486	949,187	545,503
-12,877	18,487	948,556	545,122
-11,863	18,509	947,964	544,831
-10,848	18,486	947,384	544,401
-9,833	18,498	947,110	544,261
-8,819	18,486	946,300	543,735
-7,804	18,440	945,889	543,331
-6,790	18,481	945,120	542,997
-5,775	18,432	944,562	542,498
-4,760	18,470	943,888	542,210
-3,746	18,504	943,315	541,967
-2,731	18,359	942,457	540,995
-1,717	18,364	941,696	540,551
-0,702	18,326	941,180	540,114
0,313	18,099	940,560	539,851
1,327	21,163	938,790	548,488
2,342	30,112	796,100	488,951
3,356	27,154	449,029	271,326
4,371	-2,540	294,781	148,409
5,386	-6,768	276,154	135,007
6,400	-8,018	270,373	131,007
7,415	-8,426	268,138	129,536
8,429	-8,137	266,718	129,104
9,444	-8,254	265,950	128,613
10,459	-8,145	265,313	128,394
11,473	-8,223	264,591	127,962
12,488	-8,296	264,059	127,627
13,502	-8,419	263,612	127,288
14,517	-8,427	263,452	127,192
15,531	-8,328	262,961	127,033
16,546	-8,286	262,686	126,927
17,561	-8,188	262,159	126,749
18,575	-8,073	261,825	126,680
19,590	-8,256	261,425	126,310
20,604	-8,089	261,129	126,306
21,619	-8,416	260,971	125,925
22,634	-8,332	260,465	125,745
23,648	-8,340	260,230	125,614
24,663	-8,279	259,907	125,501
25,677	-8,099	259,681	125,541
26,692	-8,360	259,459	125,189
27,707	-8,346	259,121	125,028
28,721	-8,519	259,015	124,811
29,736	-8,356	258,559	124,726
30,750	-8,351	258,457	124,670
31,765	-8,539	258,192	124,364
32,780	-8,153	257,940	124,573
33,794	-8,455	257,790	124,223
34,809	-8,383	257,430	124,102
35,823	-8,247	257,054	124,030
36,838	-8,535	257,039	123,757
37,853	-8,400	256,683	123,693
38,867	-8,299	256,490	123,679
39,882	-8,528	256,227	123,340
40,896	-8,553	256,216	123,301
41,911	-8,442	255,881	123,226
42,926	-8,504	255,704	123,076
43,940	-8,525	255,428	122,914
44,955	-8,364	255,107	122,889
45,969	-8,611	254,988	122,604
46,984	-8,805	254,718	122,294
47,999	-9,017	254,394	121,943
49,013	-9,138	253,999	121,637
50,028	-9,274	253,774	121,401
51,042	-9,295	253,603	121,289
52,057	-9,420	253,440	121,092
53,071	-9,308	253,125	121,028
54,086	-9,252	253,041	121,025
55,101	-9,072	252,863	121,086
56,115	-8,717	252,681	121,295
57,130	-8,568	252,676	121,411
58,144	-8,122	252,434	121,670
59,159	-8,100	252,290	121,608
60,174	-8,156	251,936	121,378
61,188	-8,359	251,849	121,150
62,203	-8,377	251,653	121,030
63,217	-8,241	251,425	121,027
64,232	-8,436	251,221	120,750
65,247	-8,275	250,942	120,743
66,261	-8,288	250,832	120,669
67,276	-8,576	250,618	120,308
68,290	-8,673	250,094	119,962
69,305	-9,048	249,920	119,547
70,320	-8,880	249,814	119,629
71,334	-8,575	249,640	119,797
72,349	-8,294	249,544	119,979
73,363	-8,288	249,408	119,909
74,378	-8,311	249,031	119,697
75,393	-8,412	249,123	119,645
76,407	-8,425	248,668	119,405
77,422	-8,748	248,625	119,098
78,436	-8,479	248,404	119,211
79,451	-8,485	248,120	119,058
80,466	-8,305	247,899	119,094
81,480	-8,652	247,539	118,617
82,495	-8,576	247,519	118,661
83,509	-8,385	247,308	118,711
84,524	-8,564	247,143	118,470
85,539	-8,850	246,821	118,064
86,553	-8,787	246,626	118,013
87,568	-8,782	246,601	117,995
88,582	-8,717	246,346	117,917
89,597	-8,422	245,826	117,905
90,611	-8,510	246,072	117,938
91,626	-8,467	245,826	117,846
92,641	-8,446	245,653	117,771
93,655	-8,485	245,449	117,630
94,670	-8,522	245,132	117,437
95,684	-8,633	245,015	117,276
96,699	-8,643	244,930	117,217
97,714	-8,668	244,545	117,002
98,728	-8,639	244,497	116,993
99,743	-8,877	244,167	116,626
100,757	-9,053	244,133	116,452
101,772	-8,636	243,791	116,626
102,787	-8,680	243,730	116,550
103,801	-8,791	243,605	116,388
104,816	-8,653	243,377	116,383
105,830	-8,530	243,230	116,404
106,845	-8,492	243,008	116,319
107,860	-8,354	242,880	116,362
108,874	-8,716	242,787	116,007
109,889	-8,708	242,444	115,839
110,903	-8,635	242,274	115,808
111,918	-8,831	242,010	115,510
112,933	-8,623	241,906	115,621
113,947	-8,536	241,780	115,623
114,962	-8,537	241,676	115,562
115,976	-8,409	241,439	115,543
116,991	-8,483	241,085	115,304
118,006	-8,541	241,238	115,318
119,020	-8,496	240,982	115,222
120,035	-8,676	240,936	115,042
121,049	-8,424	240,643	115,099
122,064	-8,389	240,466	115,033
123,079	-8,319	240,267	114,985
124,093	-8,594	240,017	114,629
125,108	-8,761	239,769	114,365
126,122	-9,046	239,650	114,065
127,137	-8,949	239,281	113,959
128,151	-9,031	239,226	113,855
129,166	-8,777	239,189	114,034
130,181	-8,875	238,907	113,810
131,195	-8,641	238,662	113,873
132,210	-8,616	238,644	113,875
133,224	-8,810	238,385	113,584
134,239	-8,538	238,135	113,675
135,254	-8,606	238,116	113,600
136,268	-8,676	237,940	113,450
137,283	-8,839	237,631	113,161
138,297	-8,872	237,353	112,991
139,312	-9,093	237,182	112,722
140,327	-8,806	237,192	112,948
141,341	-8,018	236,972	113,469
142,356	-8,113	237,077	113,431
143,370	-8,026	236,764	113,342
144,385	-8,211	236,784	113,192
145,400	-8,057	236,472	113,157
146,414	-8,031	236,369	113,119
147,429	-8,201	236,060	112,824
148,443	-8,254	235,945	112,716
149,458	-8,260	235,743	112,605
150,473	-8,218	235,532	112,528
151,487	-8,379	235,411	112,331
152,502	-8,270	235,259	112,336
153,516	-8,108	235,236	112,444
154,531	-8,204	234,936	112,214
155,546	-8,165	234,710	112,128
156,560	-8,336	234,485	111,874
157,575	-8,341	234,200	111,724
158,589	-8,571	234,173	111,518
159,604	-8,054	234,026	111,849
160,619	-8,028	233,977	111,837
161,633	-7,970	233,816	111,795
162,648	-8,018	233,719	111,701
163,662	-8,234	233,507	111,419
164,677	-8,343	233,341	111,244
165,692	-8,217	233,285	111,306
166,706	-7,864	232,990	111,435
167,721	-7,937	232,958	111,352
168,735	-7,932	232,742	111,242
169,750	-7,870	232,558	111,193
170,764	-8,150	232,503	110,936
171,779	-8,294	232,346	110,738
172,794	-7,929	232,091	110,894
173,808	-8,513	232,127	110,441
174,823	-8,771	231,607	109,982
175,837	-8,919	231,326	109,722
176,852	-8,536	231,503	110,097
177,867	-8,086	231,360	110,372
178,881	-8,000	231,176	110,342
179,896	-8,312	231,145	110,073
180,910	-7,955	230,777	110,167
181,925	-8,012	230,669	110,061
182,940	-8,195	230,534	109,845
183,954	-7,947	230,343	109,937
184,969	-7,839	230,134	109,911
185,983	-7,895	230,153	109,867
186,998	-7,755	229,935	109,862
188,013	-7,777	229,863	109,801
189,027	-7,797	229,587	109,644
190,042	-7,955	229,398	109,421
191,056	-7,939	229,285	109,370
192,071	-7,914	229,205	109,341
193,086	-8,156	229,061	109,075
194,100	-8,179	228,874	108,958
195,115	-8,650	228,534	108,422
196,129	-9,298	228,146	107,728
197,144	-4,856	229,642	111,875
198,159	0,785	231,310	117,079
199,173	3,173	231,883	119,221
200,188	3,619	231,846	119,539
201,202	3,720	231,502	119,430
202,217	3,605	231,451	119,303
203,232	4,064	231,446	119,646
204,246	4,096	231,377	119,625
205,261	4,087	231,237	119,535
206,275	4,308	231,207	119,681
207,290	4,292	230,999	119,550
208,304	4,155	230,748	119,304
209,319	4,203	230,595	119,250
210,334	4,020	230,346	118,970
211,348	3,868	230,265	118,799
212,363	3,637	229,803	118,372
213,377	3,517	229,588	118,158
214,392	3,419	229,577	118,067
215,407	3,472	229,365	117,988
216,421	3,639	229,235	118,039
217,436	3,383	229,168	117,797
218,450	3,227	228,879	117,519
219,465	3,181	228,844	117,454
220,480	3,111	228,638	117,285
221,494	3,259	228,403	117,268
222,509	3,394	228,505	117,413
223,523	3,441	228,225	117,294
224,538	3,330	227,922	117,043
225,553	3,352	227,878	117,027
226,567	3,600	227,753	117,142
227,582	3,687	227,729	117,185
228,596	3,908	227,600	117,277
229,611	3,544	227,484	116,929
230,626	3,475	227,168	116,704
231,640	3,198	227,109	116,452
232,655	3,763	226,942	116,786
233,669	3,874	227,003	116,892
234,684	4,089	226,696	116,886
235,699	3,655	226,659	116,527
236,713	3,518	226,345	116,252
237,728	3,483	226,169	116,124
238,742	3,213	225,994	115,820
239,757	3,246	225,924	115,798
240,772	3,293	225,698	115,708
241,786	3,175	225,529	115,522
242,801	3,631	225,431	115,806
243,815	3,863	225,400	115,954
244,830	3,435	225,244	115,541
245,844	3,219	225,002	115,243
246,859	3,483	224,953	115,407
247,874	3,812	224,803	115,567
248,888	3,873	224,522	115,459
249,903	3,607	224,376	115,174
250,917	3,285	224,245	114,854
251,932	3,241	224,138	114,756
252,947	3,450	224,101	114,884
253,961	3,367	223,776	114,645
254,976	3,250	223,761	114,540
255,990	3,466	223,581	114,599
257,005	3,522	223,494	114,586
258,020	3,648	223,463	114,654
259,034	3,711	223,269	114,591
260,049	3,895	223,114	114,638
261,063	3,768	222,778	114,361
262,078	3,563	222,789	114,204
263,093	3,629	222,690	114,192
264,107	3,912	222,323	114,204
265,122	3,656	222,380	114,033
266,136	3,759	222,240	114,027
267,151	3,710	222,247	113,985
268,166	3,436	221,829	113,556
269,180	3,098	221,656	113,208
270,195	3,114	221,724	113,245
271,209	3,210	221,319	113,098
272,224	3,496	221,285	113,282
273,239	3,557	220,911	113,126
274,253	3,520	220,925	113,095
275,268	3,239	220,650	112,738
276,282	3,175	220,599	112,654
277,297	3,117	220,517	112,559
278,312	3,242	220,321	112,541
279,326	3,435	220,346	112,686
280,341	3,445	220,090	112,553
281,355	3,323	220,020	112,417
282,370	3,188	219,868	112,231
283,384	3,151	219,702	112,108
284,399	3,008	219,433	111,856
285,414	3,397	219,324	112,075
286,428	3,628	219,262	112,203
287,443	3,413	219,298	112,054
288,457	3,529	219,130	112,043
289,472	3,381	218,793	111,753
290,487	2,930	218,734	111,383
291,501	2,894	218,542	111,250
292,516	3,078	218,394	111,299
293,530	3,061	218,232	111,194
294,545	3,064	218,063	111,100
295,560	3,317	217,886	111,183
296,574	3,529	217,956	111,363
297,589	3,431	217,729	111,166
298,603	3,425	217,762	111,169
299,618	3,494	217,431	111,040
300,633	3,555	217,397	111,057
301,647	3,659	217,385	111,116
302,662	3,775	217,251	111,121
303,676	3,512	216,968	110,777
304,691	3,659	216,963	110,870
305,706	3,763	216,713	110,808
306,720	3,659	216,634	110,682
307,735	3,395	216,390	110,358
308,749	3,412	216,234	110,281
309,764	3,353	216,171	110,196
310,779	3,670	215,972	110,313
311,793	3,270	215,960	110,010
312,808	3,403	215,697	109,961
313,822	3,268	215,508	109,758
314,837	3,271	215,187	109,587
315,852	3,291	215,232	109,615
316,866	3,477	215,237	109,740
317,881	3,825	215,187	109,954
318,895	3,653	214,955	109,703
319,910	3,410	214,647	109,362
320,925	3,150	214,527	109,106
321,939	2,917	214,323	108,826
322,954	3,093	214,321	108,941
323,968	3,376	214,173	109,058
324,983	3,679	214,043	109,197
325,997	3,781	214,022	109,250
327,012	3,453	213,859	108,924
328,027	3,561	213,652	108,885
329,041	3,836	213,602	109,045
330,056	3,949	213,456	109,041
331,070	3,365	213,266	108,521
332,085	2,937	213,009	108,078
333,100	3,401	212,934	108,358
334,114	3,640	212,761	108,429
335,129	3,591	212,620	108,312
336,143	3,343	212,462	108,048
337,158	3,301	212,383	107,968
338,173	3,467	212,272	108,019
339,187	3,206	212,186	107,782
340,202	2,969	212,065	107,544
341,216	3,215	211,703	107,524
342,231	3,174	211,738	107,503
343,246	3,156	211,474	107,346
344,260	3,046	211,493	107,270
345,275	3,202	211,391	107,318
346,289	3,245	211,324	107,305
347,304	3,268	211,201	107,248
348,319	3,400	211,022	107,240
349,333	3,560	210,699	107,178
350,348	3,495	210,642	107,095
351,362	3,306	210,624	106,944
352,377	3,675	210,426	107,091
353,392	3,437	210,298	106,851
354,406	3,567	210,257	106,911
355,421	195,781	1342,982	1430,343
356,435	156,354	1481,014	1430,380
