DTS Sentinel unit serial number:	SN410029Multiplexer serial number:	ORYXHardware model number:	OX2-SRSoftware version number:	ORYX F/W v4,00 Oryx Data Collector v3.7.2.0data status	okinstallation	B6 Nyhavnadifferential loss correction	single-endedforward channel	channel 2reverse channel	N/Adate	2023/12/11time	06:40:08forward acquisition time	300,00reverse acquisition time	0,00gamma	499,1914k internal	0,3125k external	0,3125temperature offset calibration	1,0000default loss term (dB/km)	0,3820temperature slope calibration	1,0000multiplexer offset coefficient	1,0000multiplexer slope coefficient	1,0000fibre end	0,00T internal ref (°C)	19,43T ext. ref 1 (°C)	2,61T ext. ref 2 (°C)	2,65length (m)	temperature (°C)	Stokes	anti-Stokes-744,400	-200,000	0,027	0,102
-743,385	-114,745	-0,230	0,032
-742,371	-200,000	-0,007	-0,072
-741,356	-83,651	-0,313	0,074
-740,342	-200,000	0,006	0,054
-739,327	-100,686	-0,257	0,047
-738,312	-74,918	0,092	0,024
-737,298	-159,377	-0,244	0,010
-736,283	-82,160	0,088	0,021
-735,269	-57,365	-0,260	0,085
-734,254	800,000	-0,019	-0,051
-733,239	-105,732	-0,337	-0,056
-732,225	70,914	0,095	0,073
-731,210	800,000	0,054	0,136
-730,196	-200,000	-0,043	0,145
-729,181	800,000	-0,042	-0,118
-728,167	800,000	-0,045	-0,125
-727,152	-174,722	-0,132	0,003
-726,137	800,000	-0,050	-0,112
-725,123	-142,610	-0,110	0,008
-724,108	133,002	0,040	-0,039
-723,094	-200,000	0,016	-0,168
-722,079	-200,000	0,030	-0,201
-721,064	-30,828	0,039	-0,016
-720,050	-153,348	0,098	0,005
-719,035	46,275	0,070	0,048
-718,021	-119,206	-0,232	0,030
-717,006	123,141	-0,102	-0,095
-715,991	277,797	0,052	-0,069
-714,977	-200,000	-0,021	-0,104
-713,962	54,530	0,060	0,043
-712,948	800,000	-0,012	0,032
-711,933	71,586	-0,078	0,060
-710,918	27,713	0,095	0,059
-709,904	-20,283	-0,107	-0,049
-708,889	150,629	0,140	-0,142
-707,875	800,000	0,052	-0,162
-706,860	-200,000	-0,007	-0,089
-705,845	-200,000	-0,006	0,117
-704,831	-106,398	0,045	-0,007
-703,816	-200,000	0,044	0,000
-702,802	-200,000	0,008	0,038
-701,787	-74,911	-0,067	0,018
-700,772	800,000	0,047	-0,131
-699,758	31,594	-0,044	-0,028
-698,743	67,623	0,071	-0,054
-697,729	70,480	0,060	0,046
-696,714	23,639	-0,118	0,072
-695,699	-67,350	-0,095	0,028
-694,685	-38,293	-0,045	-0,018
-693,670	31,152	0,110	-0,070
-692,656	-200,000	-0,008	-0,106
-691,641	-26,510	-0,024	-0,010
-690,627	-200,000	-0,030	0,129
-689,612	303,795	-0,061	0,085
-688,597	261,657	-0,035	0,045
-687,583	164,701	-0,098	-0,102
-686,568	-200,000	-0,017	-0,069
-685,554	-127,966	0,088	-0,009
-684,539	-44,218	-0,032	0,012
-683,524	-200,000	-0,009	0,084
-682,510	-200,000	0,046	0,176
-681,495	365,695	-0,042	-0,064
-680,481	-40,844	-0,104	0,040
-679,466	-200,000	0,007	0,129
-678,451	-200,000	-0,003	0,071
-677,437	-200,000	-0,010	-0,068
-676,422	-18,698	0,119	0,055
-675,408	800,000	-0,006	-0,013
-674,393	-1,437	0,109	0,057
-673,378	-4,956	-0,057	-0,029
-672,364	135,015	0,069	-0,067
-671,349	-134,707	-0,061	-0,005
-670,335	612,653	0,037	0,069
-669,320	-10,348	0,084	0,041
-668,305	55,228	0,024	-0,017
-667,291	207,223	-0,018	0,021
-666,276	-49,236	-0,108	0,038
-665,262	1,605	0,071	0,038
-664,247	151,964	0,071	-0,072
-663,232	-200,000	-0,007	0,028
-662,218	800,000	-0,043	0,117
-661,203	-54,194	-0,090	-0,030
-660,189	800,000	-0,029	0,094
-659,174	-200,000	-0,003	0,022
-658,159	800,000	0,036	-0,107
-657,145	-38,106	-0,154	-0,060
-656,130	-18,434	0,081	0,038
-655,116	100,738	-0,022	0,019
-654,101	-200,000	0,006	-0,060
-653,086	-200,000	0,026	0,179
-652,072	-65,956	-0,008	-0,002
-651,057	293,833	-0,057	-0,078
-650,043	800,000	0,021	-0,066
-649,028	-125,960	-0,091	0,010
-648,014	-200,000	0,018	0,071
-646,999	800,000	-0,033	-0,081
-645,984	186,970	-0,048	-0,053
-644,970	-119,704	-0,045	0,006
-643,955	27,651	-0,073	-0,045
-642,941	616,741	0,050	-0,093
-641,926	67,097	-0,177	-0,133
-640,911	139,025	0,095	-0,093
-639,897	47,313	0,078	0,054
-638,882	-200,000	0,013	-0,171
-637,868	169,571	0,041	0,044
-636,853	-200,000	-0,040	-0,140
-635,838	143,517	-0,039	-0,038
-634,824	-141,337	0,062	0,005
-633,809	281,973	-0,053	0,071
-632,795	-73,089	0,051	-0,014
-631,780	-200,000	-0,007	-0,089
-630,765	-200,000	-0,028	0,130
-629,751	-200,000	-0,002	-0,012
-628,736	-200,000	-0,014	-0,078
-627,722	-37,357	0,100	0,039
-626,707	-79,012	-0,138	0,034
-625,692	-132,073	0,031	0,003
-624,678	49,852	-0,074	0,051
-623,663	-200,000	-0,002	-0,091
-622,649	-200,000	-0,007	-0,067
-621,634	138,247	0,017	-0,016
-620,619	-86,461	-0,043	0,010
-619,605	-17,708	0,071	0,033
-618,590	800,000	-0,006	0,019
-617,576	39,444	0,063	-0,041
-616,561	-200,000	0,009	0,058
-615,546	509,813	-0,031	0,053
-614,532	560,894	-0,064	-0,116
-613,517	355,331	0,045	-0,066
-612,503	298,980	0,118	-0,161
-611,488	362,929	0,035	0,052
-610,474	-191,114	0,178	0,001
-609,459	78,875	0,091	0,072
-608,444	41,327	-0,048	0,032
-607,430	638,274	-0,055	-0,104
-606,415	269,055	-0,093	-0,121
-605,401	61,527	0,058	-0,043
-604,386	151,884	-0,048	-0,048
-603,371	112,469	-0,103	-0,093
-602,357	-104,825	0,030	-0,005
-601,342	-142,383	-0,048	0,003
-600,328	117,563	-0,074	-0,067
-599,313	12,011	0,089	-0,050
-598,298	-200,000	-0,007	-0,095
-597,284	800,000	-0,024	-0,071
-596,269	800,000	-0,020	0,059
-595,255	86,564	-0,055	0,045
-594,240	429,127	0,076	0,122
-593,225	-200,000	-0,010	-0,178
-592,211	103,976	-0,170	-0,148
-591,196	664,147	-0,049	0,094
-590,182	161,496	0,078	-0,081
-589,167	-7,351	0,130	-0,065
-588,152	-26,646	-0,108	0,047
-587,138	312,080	-0,067	0,094
-586,123	-15,379	0,111	-0,052
-585,109	-200,000	-0,002	0,108
-584,094	69,235	-0,262	-0,199
-583,079	800,000	0,053	0,109
-582,065	45,741	0,035	0,024
-581,050	-117,381	0,061	-0,008
-580,036	-36,684	0,075	0,030
-579,021	176,930	-0,035	0,038
-578,006	-41,874	-0,047	0,018
-576,992	-103,069	0,112	0,019
-575,977	-163,104	0,063	0,002
-574,963	751,505	0,017	0,034
-573,948	-62,473	0,040	0,012
-572,934	290,432	0,095	-0,128
-571,919	226,456	0,054	-0,065
-570,904	-200,000	-0,029	-0,095
-569,890	-200,000	-0,004	-0,045
-568,875	115,645	0,064	0,058
-567,861	-200,000	-0,002	-0,032
-566,846	114,797	0,114	0,103
-565,831	-123,905	-0,129	0,015
-564,817	-76,339	0,102	-0,026
-563,802	489,601	-0,075	0,128
-562,788	-78,239	-0,077	-0,019
-561,773	705,725	-0,014	-0,028
-560,758	-91,822	0,072	0,015
-559,744	800,000	-0,029	-0,082
-558,729	365,632	-0,054	-0,080
-557,715	348,280	0,032	0,047
-556,700	420,193	-0,066	-0,105
-555,685	-200,000	-0,006	-0,095
-554,671	-114,740	-0,017	0,002
-553,656	-200,000	0,000	0,105
-552,642	-200,000	-0,020	-0,090
-551,627	-52,755	-0,167	-0,057
-550,612	125,091	-0,094	-0,088
-549,598	-200,000	0,012	-0,080
-548,583	-75,971	0,026	-0,007
-547,569	300,077	-0,034	0,046
-546,554	13,711	-0,101	0,058
-545,539	-175,304	0,121	0,002
-544,525	740,710	0,025	-0,051
-543,510	-102,352	0,063	-0,011
-542,496	242,342	-0,056	-0,069
-541,481	-72,204	0,077	0,021
-540,466	-200,000	0,038	-0,127
-539,452	103,126	-0,120	0,104
-538,437	-96,656	0,094	0,018
-537,423	69,010	0,059	-0,045
-536,408	-200,000	-0,001	-0,008
-535,393	800,000	0,048	0,121
-534,379	447,632	-0,036	-0,058
-533,364	-49,827	0,127	-0,044
-532,350	-32,787	0,047	0,019
-531,335	679,607	-0,058	0,112
-530,321	-168,585	-0,034	-0,001
-529,306	160,451	-0,067	0,069
-528,291	800,000	-0,051	0,113
-527,277	-13,069	0,041	0,020
-526,262	159,373	-0,073	0,075
-525,248	279,517	-0,042	0,056
-524,233	132,565	0,105	0,100
-523,218	-142,026	-0,052	-0,004
-522,204	240,126	0,032	0,040
-521,189	22,577	0,025	-0,015
-520,175	-200,000	0,017	-0,079
-519,160	25,989	-0,062	0,038
-518,145	-200,000	0,007	0,116
-517,131	-200,000	0,026	0,161
-516,116	296,387	-0,044	-0,059
-515,102	800,000	-0,061	0,126
-514,087	-69,783	0,136	-0,038
-513,072	800,000	-0,055	-0,146
-512,058	185,019	-0,088	-0,097
-511,043	800,000	-0,012	0,036
-510,029	-200,000	0,015	0,083
-509,014	-200,000	0,007	0,076
-507,999	-200,000	-0,026	0,101
-506,985	800,000	-0,019	-0,048
-505,970	62,941	-0,080	0,059
-504,956	20,450	-0,059	-0,035
-503,941	800,000	-0,054	0,130
-502,926	-120,711	-0,050	0,006
-501,912	519,186	0,075	0,131
-500,897	50,050	0,074	0,051
-499,883	577,984	0,033	-0,060
-498,868	-200,000	-0,006	0,070
-497,853	-200,000	-0,007	-0,053
-496,839	-200,000	-0,017	-0,093
-495,824	-107,552	0,257	-0,041
-494,810	-143,289	0,078	-0,005
-493,795	264,856	0,030	0,039
-492,781	-200,000	-0,018	0,068
-491,766	-200,000	0,003	-0,048
-490,751	-200,000	-0,004	-0,047
-489,737	800,000	0,084	-0,233
-488,722	-41,937	-0,113	-0,043
-487,708	-91,755	0,119	-0,025
-486,693	800,000	-0,018	-0,040
-485,678	-144,604	0,100	-0,007
-484,664	-200,000	-0,020	-0,215
-483,649	800,000	0,048	-0,124
-482,635	-200,000	0,006	-0,121
-481,620	269,588	-0,059	-0,077
-480,605	-200,000	0,004	-0,049
-479,591	800,000	0,043	0,096
-478,576	-200,000	-0,007	-0,163
-477,562	-200,000	-0,042	-0,151
-476,547	152,757	-0,023	-0,023
-475,532	24,701	0,129	0,079
-474,518	-200,000	0,002	-0,029
-473,503	-200,000	0,005	-0,059
-472,489	-57,956	0,075	0,024
-471,474	-45,522	-0,139	0,050
-470,459	-200,000	0,008	0,031
-469,445	-14,962	-0,060	0,028
-468,430	-93,379	0,082	0,017
-467,416	-101,801	0,043	-0,008
-466,401	-122,578	-0,011	-0,001
-465,386	-114,699	0,139	0,019
-464,372	51,742	-0,078	-0,055
-463,357	-26,513	0,042	-0,018
-462,343	800,000	-0,015	-0,039
-461,328	-62,161	0,134	0,041
-460,313	-200,000	-0,007	0,061
-459,299	-200,000	0,017	0,071
-458,284	572,206	-0,053	0,095
-457,270	-200,000	-0,019	0,115
-456,255	-173,328	0,075	0,002
-455,241	800,000	0,038	0,110
-454,226	-200,000	0,006	-0,112
-453,211	-126,822	0,022	0,002
-452,197	-134,969	-0,067	0,006
-451,182	-26,956	0,079	0,034
-450,168	-200,000	0,006	-0,054
-449,153	-200,000	0,002	0,091
-448,138	-114,786	-0,076	0,011
-447,124	319,272	0,041	-0,058
-446,109	178,036	-0,101	0,109
-445,095	-33,904	-0,106	0,043
-444,080	209,409	0,056	0,065
-443,065	-54,959	0,101	-0,033
-442,051	800,000	0,016	-0,042
-441,036	800,000	0,031	-0,070
-440,022	207,468	-0,077	-0,088
-439,007	-63,662	-0,142	-0,043
-437,992	800,000	0,025	0,053
-436,978	-200,000	0,000	0,035
-435,963	-18,823	0,164	0,075
-434,949	116,694	0,067	0,060
-433,934	41,820	-0,104	-0,069
-432,919	-93,781	-0,069	0,014
-431,905	-200,000	-0,011	-0,125
-430,890	-200,000	-0,021	0,213
-429,876	314,917	0,075	0,104
-428,861	164,054	-0,050	0,052
-427,846	166,458	-0,069	-0,072
-426,832	238,280	-0,103	0,126
-425,817	-148,628	-0,054	0,003
-424,803	-200,000	0,020	-0,079
-423,788	-42,261	-0,085	0,032
-422,773	-10,616	0,161	-0,078
-421,759	131,739	-0,038	0,036
-420,744	-200,000	-0,053	0,183
-419,730	65,737	0,050	-0,038
-418,715	800,000	0,025	-0,080
-417,701	116,751	0,056	-0,050
-416,686	367,547	0,067	0,100
-415,671	-59,292	0,198	0,062
-414,657	316,017	-0,020	-0,028
-413,642	479,126	0,052	-0,086
-412,628	114,871	-0,112	0,100
-411,613	800,000	-0,051	-0,118
-410,598	108,619	-0,112	-0,098
-409,584	800,000	0,029	0,067
-408,569	275,689	0,026	-0,034
-407,555	236,270	-0,021	0,026
-406,540	-111,331	0,054	-0,008
-405,525	451,284	-0,021	0,034
-404,511	58,987	-0,202	-0,146
-403,496	-200,000	0,003	-0,045
-402,482	-200,000	-0,006	0,101
-401,467	-200,000	-0,000	0,115
-400,452	103,599	-0,059	0,051
-399,438	446,592	0,048	0,077
-398,423	435,271	0,043	0,069
-397,409	-150,140	0,051	-0,003
-396,394	-200,000	0,007	-0,028
-395,379	21,349	-0,086	0,051
-394,365	119,147	0,073	-0,066
-393,350	145,210	-0,111	0,109
-392,336	-65,082	0,078	-0,023
-391,321	-200,000	0,026	-0,091
-390,306	-84,961	0,060	-0,014
-389,292	-200,000	0,008	-0,031
-388,277	-66,079	-0,113	-0,033
-387,263	-86,220	0,153	-0,034
-386,248	-163,449	-0,084	-0,003
-385,233	93,084	0,132	0,110
-384,219	-174,715	0,171	0,003
-383,204	-69,944	-0,096	0,027
-382,190	123,226	-0,043	0,040
-381,175	-88,161	-0,099	-0,022
-380,160	30,127	-0,049	0,031
-379,146	33,913	0,130	0,083
-378,131	216,973	0,053	-0,062
-377,117	248,429	0,030	-0,037
-376,102	257,703	-0,070	-0,088
-375,088	123,247	-0,071	-0,065
-374,073	2,848	-0,068	-0,036
-373,058	-14,767	0,020	0,010
-372,044	116,224	0,080	0,072
-371,029	800,000	-0,077	0,165
-370,015	800,000	0,038	-0,085
-369,000	-26,139	0,105	-0,045
-367,985	298,327	0,030	-0,040
-366,971	638,094	-0,034	-0,065
-365,956	255,378	-0,063	0,080
-364,942	-50,361	0,107	0,037
-363,927	637,393	-0,051	0,095
-362,912	4,205	-0,096	0,052
-361,898	-164,997	-0,061	0,002
-360,883	244,836	0,041	-0,051
-359,869	429,287	0,038	0,060
-358,854	204,649	0,022	-0,025
-357,839	-200,000	-0,010	0,051
-356,825	38,886	0,116	0,076
-355,810	774,370	0,016	-0,033
-354,796	800,000	-0,041	0,086
-353,781	800,000	0,043	-0,094
-352,766	800,000	-0,026	-0,077
-351,752	800,000	0,036	-0,074
-350,737	-200,000	-0,032	0,104
-349,723	-200,000	0,006	0,027
-348,708	323,576	0,089	0,125
-347,693	-29,517	-0,075	-0,031
-346,679	-200,000	0,000	-0,064
-345,664	557,066	-0,056	-0,099
-344,650	79,410	0,090	-0,071
-343,635	-35,309	0,022	-0,009
-342,620	-200,000	0,002	0,206
-341,606	222,105	-0,073	0,086
-340,591	-90,545	0,122	0,026
-339,577	97,208	-0,074	-0,062
-338,562	-104,580	-0,067	-0,011
-337,548	69,712	0,082	0,062
-336,533	-200,000	0,030	0,155
-335,518	-200,000	0,008	0,106
-334,504	-140,590	0,054	-0,004
-333,489	57,987	-0,072	0,051
-332,475	51,995	0,020	0,014
-331,460	5,192	-0,133	-0,071
-330,445	-200,000	0,059	-0,286
-329,431	800,000	0,079	-0,175
-328,416	800,000	0,078	0,174
-327,402	8,541	-0,060	-0,033
-326,387	-44,707	-0,062	0,023
-325,372	-200,000	0,003	-0,099
-324,358	-200,000	-0,005	-0,110
-323,343	467,973	-0,020	-0,033
-322,329	800,000	0,052	0,133
-321,314	-156,430	0,127	-0,006
-320,299	53,211	0,064	0,045
-319,285	103,144	-0,020	-0,017
-318,270	-104,953	-0,104	0,017
-317,256	800,000	-0,024	-0,055
-316,241	-200,000	-0,058	-0,196
-315,226	203,758	0,086	-0,097
-314,212	297,090	-0,045	0,061
-313,197	-200,000	-0,034	0,168
-312,183	89,027	-0,083	0,068
-311,168	-92,535	-0,095	0,019
-310,153	-200,000	0,002	-0,128
-309,139	-200,000	0,007	-0,087
-308,124	3,251	0,080	-0,043
-307,110	-139,737	-0,091	-0,007
-306,095	800,000	-0,022	0,058
-305,080	-22,443	-0,068	0,030
-304,066	-200,000	0,016	-0,076
-303,051	-200,000	-0,017	-0,069
-302,037	12,786	-0,040	-0,023
-301,022	-41,202	-0,101	-0,038
-300,008	249,973	0,073	0,091
-298,993	181,311	-0,073	0,078
-297,978	800,000	-0,047	0,114
-296,964	-144,488	-0,018	0,001
-295,949	-200,000	-0,016	-0,118
-294,935	-89,187	0,041	-0,009
-293,920	-108,273	0,065	-0,010
-292,905	-200,000	0,017	-0,146
-291,891	690,837	0,108	0,208
-290,876	-200,000	0,030	0,099
-289,862	744,458	0,049	0,097
-288,847	330,351	-0,047	0,067
-287,832	-83,503	-0,110	-0,026
-286,818	285,509	0,005	0,006
-285,803	732,436	0,069	-0,136
-284,789	-33,693	-0,103	0,041
-283,774	151,290	-0,051	0,050
-282,759	116,540	0,067	0,060
-281,745	330,662	-0,011	0,016
-280,730	-200,000	-0,008	-0,053
-279,716	141,022	0,075	-0,072
-278,701	-28,992	-0,075	-0,032
-277,686	310,081	0,084	0,115
-276,672	61,480	0,062	-0,045
-275,657	-36,700	-0,030	-0,012
-274,643	-1,933	0,032	-0,017
-273,628	-52,577	-0,014	0,005
-272,613	250,031	-0,067	0,084
-271,599	-102,280	0,043	-0,007
-270,584	-80,724	0,239	-0,058
-269,570	800,000	0,037	-0,096
-268,555	800,000	0,067	0,137
-267,540	165,239	0,049	0,050
-266,526	-200,000	-0,026	0,089
-265,511	39,693	0,036	-0,023
-264,497	191,467	-0,010	-0,011
-263,482	-49,445	0,185	0,064
-262,467	311,509	-0,026	-0,036
-261,453	514,537	0,024	-0,041
-260,438	800,000	0,076	-0,195
-259,424	355,969	-0,039	0,057
-258,409	-200,000	-0,016	-0,097
-257,395	45,899	-0,125	0,085
-256,380	92,930	-0,052	0,043
-255,365	108,884	-0,105	0,091
-254,351	289,813	0,050	0,067
-253,336	52,082	-0,038	0,026
-252,322	-200,000	-0,017	-0,056
-251,307	-200,000	0,001	-0,012
-250,292	800,000	-0,061	0,132
-249,278	490,198	-0,054	-0,091
-248,263	610,719	-0,021	0,039
-247,249	365,891	0,095	0,140
-246,234	800,000	-0,072	-0,146
-245,219	160,235	-0,121	-0,123
-244,205	800,000	-0,096	-0,234
-243,190	-132,799	-0,050	-0,005
-242,176	-200,000	0,013	-0,081
-241,161	-132,196	-0,069	-0,006
-240,146	-200,000	-0,027	0,108
-239,132	12,502	0,005	0,003
-238,117	211,859	-0,100	-0,115
-237,103	800,000	-0,012	0,035
-236,088	202,930	0,027	-0,031
-235,073	-41,670	-0,089	0,033
-234,059	800,000	-0,056	0,152
-233,044	-135,072	-0,138	-0,012
-232,030	-200,000	0,003	-0,202
-231,015	359,846	-0,007	-0,010
-230,000	800,000	-0,019	-0,058
-228,986	57,758	-0,065	-0,046
-227,971	-102,708	0,136	-0,023
-226,957	800,000	0,052	0,151
-225,942	369,441	0,063	0,093
-224,927	629,389	-0,051	0,094
-223,913	18,583	0,080	-0,047
-222,898	-44,316	0,013	0,005
-221,884	800,000	0,031	0,100
-220,869	111,317	0,085	0,075
-219,855	57,737	-0,066	0,047
-218,840	-95,376	0,060	-0,012
-217,825	331,668	-0,113	0,160
-216,811	-200,000	-0,023	0,111
-215,796	-87,844	-0,115	-0,025
-214,782	469,933	0,046	-0,076
-213,767	266,027	0,019	-0,025
-212,752	119,955	0,089	0,081
-211,738	800,000	-0,060	0,126
-210,723	57,642	0,054	0,038
-209,709	60,436	-0,068	0,049
-208,694	369,360	-0,061	-0,090
-207,679	-200,000	-0,001	-0,017
-206,665	481,150	0,088	0,146
-205,650	-200,000	-0,005	-0,017
-204,636	-91,338	0,158	0,033
-203,621	112,945	-0,026	0,023
-202,606	197,172	-0,037	0,041
-201,592	109,553	-0,074	0,065
-200,577	76,215	0,089	-0,069
-199,563	265,222	0,083	0,106
-198,548	-46,021	0,104	0,037
-197,533	-84,581	-0,078	0,018
-196,519	-200,000	0,014	0,063
-195,504	-200,000	0,005	0,091
-194,490	-157,181	-0,150	0,007
-193,475	730,684	-0,026	-0,051
-192,460	800,000	-0,041	-0,093
-191,446	30,477	0,091	0,057
-190,431	37,557	0,053	-0,034
-189,417	-200,000	-0,005	-0,070
-188,402	-17,458	0,069	0,032
-187,387	800,000	0,064	0,137
-186,373	18,959	0,063	0,037
-185,358	95,667	0,093	-0,077
-184,344	-49,064	0,136	-0,047
-183,329	-200,000	-0,004	0,129
-182,315	199,400	0,071	-0,080
-181,300	-200,000	0,000	-0,014
-180,285	-9,367	0,059	0,028
-179,271	52,124	-0,050	-0,035
-178,256	-200,000	-0,002	0,014
-177,242	97,811	0,032	-0,027
-176,227	-179,438	-0,115	-0,002
-175,212	-96,828	0,069	-0,013
-174,198	181,124	-0,040	-0,043
-173,183	-127,421	-0,128	-0,013
-172,169	-103,297	-0,126	0,022
-171,154	800,000	-0,019	-0,053
-170,139	383,142	-0,048	0,072
-169,125	-12,361	0,121	0,057
-168,110	666,064	-0,034	-0,063
-167,096	-200,000	-0,014	-0,062
-166,081	800,000	0,004	-0,013
-165,066	334,644	0,072	0,102
-164,052	-200,000	-0,005	0,025
-163,037	-74,315	0,082	0,021
-162,023	163,994	0,009	0,010
-161,008	800,000	-0,016	0,047
-159,993	114,032	-0,080	-0,071
-158,979	282,052	-0,102	0,133
-157,964	97,778	0,082	-0,068
-156,950	-129,304	-0,089	-0,009
-155,935	186,437	-0,048	-0,052
-154,920	-200,000	0,005	-0,025
-153,906	800,000	-0,014	0,040
-152,891	-72,212	-0,160	0,043
-151,877	307,003	-0,077	-0,104
-150,862	-84,898	0,165	-0,037
-149,847	-95,404	0,019	-0,004
-148,833	-200,000	-0,013	-0,051
-147,818	-72,488	-0,037	0,010
-146,804	-77,513	0,046	0,012
-145,789	-115,619	-0,010	-0,001
-144,775	800,000	-0,033	0,068
-143,760	25,392	0,014	-0,009
-142,745	-83,566	-0,096	0,022
-141,731	-200,000	-0,006	0,023
-140,716	172,288	-0,068	-0,071
-139,702	122,259	0,060	0,055
-138,687	36,243	0,088	0,056
-137,672	492,437	-0,045	-0,075
-136,658	-73,337	0,078	0,021
-135,643	-130,097	-0,129	0,013
-134,629	241,037	0,059	0,072
-133,614	-200,000	-0,023	-0,081
-132,599	-49,269	0,038	0,013
-131,585	61,379	0,060	-0,044
-130,570	176,310	0,041	-0,043
-129,556	800,000	-0,026	0,067
-128,541	156,428	-0,116	-0,117
-127,526	151,864	-0,036	0,035
-126,512	-113,337	0,102	0,014
-125,497	800,000	0,024	-0,054
-124,483	173,780	0,057	-0,060
-123,468	104,647	-0,039	-0,034
-122,453	-200,000	0,038	0,124
-121,439	-77,767	-0,123	0,031
-120,424	-72,504	-0,194	0,052
-119,410	212,953	-0,070	0,080
-118,395	82,792	0,066	0,052
-117,380	226,701	0,041	0,049
-116,366	-200,000	0,036	0,134
-115,351	-96,912	-0,073	-0,014
-114,337	271,839	-0,048	0,061
-113,322	-200,000	-0,013	0,087
-112,307	164,734	-0,075	0,077
-111,293	291,541	0,085	0,112
-110,278	711,448	0,018	-0,035
-109,264	-95,376	-0,155	0,030
-108,249	48,223	-0,052	-0,035
-107,234	-200,000	0,056	-0,198
-106,220	764,701	-0,084	-0,167
-105,205	-200,000	0,001	-0,029
-104,191	-62,407	-0,097	0,029
-103,176	800,000	-0,056	0,147
-102,162	774,972	-0,037	0,075
-101,147	20,140	-0,173	0,101
-100,132	180,198	-0,071	-0,076
-99,118	-200,000	0,006	-0,205
-98,103	133,798	0,065	0,061
-97,089	-91,691	0,200	-0,041
-96,074	-200,000	-0,003	-0,032
-95,059	761,429	-0,055	0,109
-94,045	150,271	0,117	0,115
-93,030	68,580	0,063	0,047
-92,016	200,615	0,051	-0,057
-91,001	-200,000	-0,060	-0,223
-89,986	-200,000	0,012	0,058
-88,972	-200,000	-0,018	0,065
-87,957	-200,000	-0,031	0,155
-86,943	-155,055	0,146	0,007
-85,928	-68,417	-0,038	-0,011
-84,913	622,336	-0,043	0,079
-83,899	198,076	0,093	0,104
-82,884	-73,197	0,215	-0,057
-81,870	800,000	0,029	-0,070
-80,855	571,272	0,065	0,115
-79,840	-6,960	-0,084	0,041
-78,826	800,000	-0,033	0,085
-77,811	16,159	-0,049	-0,028
-76,797	20,047	0,124	0,072
-75,782	-174,206	-0,111	0,002
-74,767	-53,715	0,047	0,015
-73,753	-200,000	0,011	0,212
-72,738	-200,000	0,012	-0,053
-71,724	19,777	-0,148	0,086
-70,709	313,987	0,031	-0,043
-69,694	-200,000	0,011	-0,135
-68,680	759,831	0,042	-0,083
-67,665	800,000	0,022	0,063
-66,651	564,536	0,050	0,088
-65,636	-79,781	-0,024	-0,006
-64,622	302,303	0,042	-0,057
-63,607	-55,079	-0,151	-0,049
-62,592	-200,000	0,022	0,106
-61,578	170,055	-0,015	0,015
-60,563	-177,468	-0,110	-0,002
-59,549	-38,512	-0,045	0,017
-58,534	-59,665	-1,608	-0,497
-57,519	800,000	-0,547	-1,274
-56,505	-200,000	-0,977	-4,553
-55,490	-143,289	0,445	-0,031
-54,476	800,000	5,051	12,067
-53,461	-200,000	15,183	272,492
-52,446	-200,000	694,853	2253,605
-51,432	581,496	1615,098	2882,928
-50,417	121,555	1625,090	1468,596
-49,403	82,155	1283,297	1007,922
-48,388	37,475	1024,601	657,462
-47,373	22,168	985,714	581,935
-46,359	21,188	974,568	572,102
-45,344	19,705	970,268	564,686
-44,330	19,737	969,070	564,071
-43,315	19,479	967,524	562,302
-42,300	19,444	966,450	561,543
-41,286	19,478	965,397	561,020
-40,271	19,474	964,516	560,471
-39,257	19,513	963,801	560,161
-38,242	19,528	962,772	559,590
-37,227	19,527	961,925	559,070
-36,213	19,472	961,161	558,427
-35,198	19,438	960,203	557,738
-34,184	19,496	959,538	557,519
-33,169	19,471	958,566	556,849
-32,154	19,508	957,717	556,455
-31,140	19,547	956,719	555,979
-30,125	19,520	956,018	555,462
-29,111	19,513	955,113	554,890
-28,096	19,465	954,679	554,462
-27,082	19,435	954,038	553,971
-26,067	19,461	953,243	553,571
-25,052	19,449	952,315	552,971
-24,038	19,489	951,660	552,700
-23,023	19,435	950,918	552,072
-22,009	19,514	950,133	551,846
-20,994	19,534	949,606	551,583
-19,979	19,474	949,111	551,082
-18,965	19,449	948,498	550,625
-17,950	19,444	947,805	550,185
-16,936	19,350	947,321	549,579
-15,921	19,406	946,441	549,227
-14,906	19,379	945,764	548,726
-13,892	19,384	945,240	548,417
-12,877	19,323	944,573	547,813
-11,863	19,249	943,950	547,193
-10,848	19,336	943,397	547,129
-9,833	19,410	942,955	547,085
-8,819	19,390	942,442	546,702
-7,804	19,353	941,712	546,139
-6,790	19,339	941,165	545,755
-5,775	19,315	940,651	545,359
-4,760	19,387	939,723	545,031
-3,746	19,378	939,162	544,655
-2,731	19,217	938,454	543,711
-1,717	19,157	937,847	543,147
-0,702	19,224	937,105	542,909
0,313	18,905	936,688	542,475
1,327	22,104	934,900	551,510
2,342	31,559	794,192	493,695
3,356	28,754	449,417	275,128
4,371	-1,722	294,812	149,887
5,386	-5,920	276,037	136,332
6,400	-7,467	270,438	132,110
7,415	-7,944	268,128	130,528
8,429	-7,436	266,854	130,365
9,444	-7,705	266,108	129,742
10,459	-7,515	265,388	129,553
11,473	-7,528	264,747	129,217
12,488	-7,672	264,385	128,897
13,502	-7,690	263,819	128,594
14,517	-7,744	263,450	128,352
15,531	-7,258	263,098	128,611
16,546	-7,427	262,866	128,333
17,561	-7,472	262,466	128,086
18,575	-7,296	261,858	127,936
19,590	-7,199	261,582	127,878
20,604	-7,516	261,608	127,593
21,619	-7,296	261,159	127,561
22,634	-7,317	260,844	127,377
23,648	-7,093	260,354	127,327
24,663	-7,423	260,353	127,019
25,677	-7,224	259,863	126,947
26,692	-7,354	259,634	126,707
27,707	-7,292	259,480	126,676
28,721	-7,418	259,181	126,407
29,736	-7,334	258,868	126,318
30,750	-7,357	258,637	126,173
31,765	-7,407	258,483	126,042
32,780	-7,419	258,318	125,940
33,794	-7,542	258,045	125,686
34,809	-7,505	257,855	125,615
35,823	-7,605	257,611	125,397
36,838	-7,471	257,234	125,320
37,853	-7,643	257,224	125,152
38,867	-7,505	256,941	125,125
39,882	-7,428	256,661	125,046
40,896	-7,227	256,356	125,064
41,911	-7,507	256,200	124,729
42,926	-7,518	255,881	124,554
43,940	-7,432	255,787	124,572
44,955	-7,462	255,393	124,343
45,969	-7,882	255,329	123,931
46,984	-7,684	255,026	123,946
47,999	-7,896	254,725	123,603
49,013	-8,180	254,422	123,197
50,028	-8,224	254,333	123,104
51,042	-8,291	254,045	122,895
52,057	-8,155	253,828	122,898
53,071	-8,133	253,607	122,799
54,086	-8,163	253,583	122,751
55,101	-7,962	253,267	122,762
56,115	-7,719	253,160	122,910
57,130	-7,551	253,194	123,063
58,144	-7,268	252,865	123,138
59,159	-7,165	252,595	123,084
60,174	-7,343	252,376	122,812
61,188	-7,228	252,165	122,798
62,203	-7,358	252,000	122,595
63,217	-7,490	251,813	122,378
64,232	-7,437	251,549	122,285
65,247	-7,344	251,405	122,285
66,261	-7,419	251,016	122,019
67,276	-7,519	250,782	121,809
68,290	-7,596	250,620	121,653
69,305	-7,972	250,426	121,225
70,320	-7,816	250,198	121,237
71,334	-7,507	250,066	121,429
72,349	-7,538	250,076	121,396
73,363	-7,441	249,703	121,287
74,378	-7,400	249,588	121,255
75,393	-7,373	249,316	121,135
76,407	-7,415	249,149	121,007
77,422	-7,301	248,998	121,021
78,436	-7,396	248,731	120,799
79,451	-7,426	248,517	120,659
80,466	-7,531	248,286	120,446
81,480	-7,556	248,035	120,293
82,495	-7,426	247,857	120,306
83,509	-7,858	247,949	119,972
84,524	-7,768	247,537	119,839
85,539	-7,681	247,193	119,736
86,553	-7,894	247,089	119,494
87,568	-7,847	246,875	119,420
88,582	-7,652	246,805	119,540
89,597	-7,587	246,554	119,463
90,611	-7,491	246,492	119,503
91,626	-7,522	246,353	119,400
92,641	-7,619	246,136	119,201
93,655	-7,423	245,890	119,237
94,670	-7,626	245,749	118,987
95,684	-7,531	245,258	118,819
96,699	-7,611	245,324	118,773
97,714	-7,594	245,093	118,665
98,728	-7,845	244,918	118,358
99,743	-7,786	244,493	118,192
100,757	-7,801	244,531	118,187
101,772	-7,678	244,304	118,170
102,787	-7,767	244,159	118,015
103,801	-7,773	244,056	117,950
104,816	-7,650	243,847	117,941
105,830	-7,546	243,622	117,908
106,845	-7,407	243,381	117,897
107,860	-7,269	243,178	117,903
108,874	-7,513	242,946	117,577
109,889	-7,770	242,916	117,338
110,903	-7,815	242,675	117,174
111,918	-7,751	242,565	117,164
112,933	-7,724	242,428	117,109
113,947	-7,610	242,128	117,049
114,962	-7,485	242,033	117,096
115,976	-7,495	241,763	116,946
116,991	-7,472	241,758	116,953
118,006	-7,533	241,510	116,771
119,020	-7,357	241,420	116,863
120,035	-7,687	241,328	116,536
121,049	-7,391	241,148	116,683
122,064	-7,523	240,941	116,464
123,079	-7,613	240,621	116,224
124,093	-7,562	240,422	116,160
125,108	-7,794	240,252	115,877
126,122	-7,811	240,001	115,731
127,137	-7,801	239,709	115,588
128,151	-7,818	239,759	115,588
129,166	-7,546	239,492	115,672
130,181	-7,685	239,238	115,425
131,195	-7,780	239,189	115,314
132,210	-7,803	239,087	115,235
133,224	-7,777	238,898	115,156
134,239	-7,429	238,539	115,255
135,254	-7,613	238,588	115,119
136,268	-7,624	238,307	114,964
137,283	-7,878	238,069	114,633
138,297	-7,916	237,902	114,511
139,312	-7,845	237,674	114,449
140,327	-7,749	237,531	114,448
141,341	-7,324	237,613	114,821
142,356	-7,320	237,522	114,770
143,370	-7,349	237,274	114,617
144,385	-7,298	236,981	114,506
145,400	-7,194	236,864	114,524
146,414	-7,218	236,770	114,448
147,429	-7,390	236,584	114,210
148,443	-7,183	236,280	114,220
149,458	-7,233	236,267	114,163
150,473	-7,061	235,945	114,136
151,487	-7,262	235,842	113,913
152,502	-7,234	235,775	113,894
153,516	-7,038	235,460	113,889
154,531	-7,296	235,304	113,596
155,546	-7,353	235,140	113,461
156,560	-7,490	235,072	113,309
157,575	-7,474	234,752	113,157
158,589	-7,529	234,625	113,042
159,604	-7,473	234,589	113,059
160,619	-7,099	234,316	113,216
161,633	-7,278	234,218	113,016
162,648	-7,268	234,075	112,944
163,662	-7,359	233,896	112,775
164,677	-7,575	233,682	112,490
165,692	-7,185	233,619	112,760
166,706	-7,096	233,384	112,707
167,721	-7,248	233,320	112,546
168,735	-7,265	233,216	112,472
169,750	-7,304	233,031	112,342
170,764	-7,131	232,746	112,332
171,779	-7,126	232,679	112,294
172,794	-7,203	232,586	112,177
173,808	-7,252	232,346	112,013
174,823	-7,854	232,073	111,396
175,837	-7,759	231,894	111,375
176,852	-7,376	231,809	111,627
177,867	-7,361	231,697	111,574
178,881	-7,615	231,604	111,319
179,896	-7,083	231,445	111,652
180,910	-7,094	231,216	111,523
181,925	-7,288	231,218	111,361
182,940	-7,147	230,967	111,341
183,954	-7,032	230,835	111,358
184,969	-7,103	230,695	111,225
185,983	-7,119	230,563	111,138
186,998	-6,996	230,327	111,111
188,013	-6,960	230,157	111,047
189,027	-7,098	230,099	110,902
190,042	-6,967	229,821	110,860
191,056	-7,191	229,707	110,620
192,071	-6,998	229,609	110,714
193,086	-7,156	229,367	110,464
194,100	-7,333	229,106	110,191
195,115	-7,797	228,613	109,583
196,129	-7,864	228,757	109,591
197,144	-3,609	229,927	113,462
198,159	0,864	231,502	117,735
199,173	3,824	232,276	120,441
200,188	4,426	232,176	120,850
201,202	4,385	231,927	120,677
202,217	4,396	231,911	120,666
203,232	4,582	231,776	120,731
204,246	4,878	231,498	120,807
205,261	4,646	231,674	120,706
206,275	4,868	231,471	120,763
207,290	5,019	231,371	120,817
208,304	4,819	231,168	120,545
209,319	5,021	230,771	120,484
210,334	4,846	230,649	120,274
211,348	4,562	230,523	119,977
212,363	4,193	230,198	119,511
213,377	3,904	229,901	119,123
214,392	3,839	229,801	119,010
215,407	4,001	229,893	119,172
216,421	4,168	229,587	119,132
217,436	4,299	229,303	119,075
218,450	3,574	229,128	118,414
219,465	3,796	229,022	118,520
220,480	3,596	229,011	118,350
221,494	3,750	228,821	118,360
222,509	4,205	228,625	118,597
223,523	4,075	228,424	118,383
224,538	3,816	228,376	118,149
225,553	4,174	228,167	118,305
226,567	4,097	228,066	118,183
227,582	4,351	227,875	118,268
228,596	4,350	227,834	118,235
229,611	3,940	227,679	117,831
230,626	3,825	227,539	117,659
231,640	3,815	227,341	117,539
232,655	3,964	227,300	117,621
233,669	4,415	227,199	117,903
234,684	4,660	226,980	117,966
235,699	4,483	226,979	117,820
236,713	4,193	226,651	117,418
237,728	3,935	226,419	117,091
238,742	3,835	226,263	116,924
239,757	3,834	226,182	116,871
240,772	4,033	225,924	116,878
241,786	4,217	225,738	116,910
242,801	4,108	225,884	116,894
243,815	4,401	225,696	117,008
244,830	4,616	225,430	117,023
245,844	4,390	225,217	116,730
246,859	3,995	225,150	116,386
247,874	4,278	225,108	116,568
248,888	4,377	224,772	116,459
249,903	4,177	224,743	116,282
250,917	3,993	224,646	116,083
251,932	4,110	224,343	116,005
252,947	3,876	224,286	115,788
253,961	3,669	224,090	115,521
254,976	3,908	223,952	115,619
255,990	4,022	223,973	115,705
257,005	4,296	223,836	115,830
258,020	4,275	223,533	115,647
259,034	4,480	223,636	115,844
260,049	4,310	223,376	115,572
261,063	4,200	223,190	115,383
262,078	4,407	223,172	115,518
263,093	4,384	223,071	115,438
264,107	4,415	222,840	115,332
265,122	4,356	222,624	115,166
266,136	4,357	222,555	115,120
267,151	4,480	222,340	115,091
268,166	3,849	222,139	114,506
269,180	3,957	221,807	114,405
270,195	3,884	221,781	114,327
271,209	3,602	221,669	114,050
272,224	3,969	221,548	114,250
273,239	4,173	221,347	114,288
274,253	3,844	221,314	114,017
275,268	3,713	221,067	113,782
276,282	3,597	220,810	113,554
277,297	3,645	220,651	113,497
278,312	3,833	220,694	113,648
279,326	4,069	220,518	113,722
280,341	3,892	220,411	113,526
281,355	3,915	220,201	113,424
282,370	3,867	220,094	113,324
283,384	4,169	219,778	113,373
284,399	3,839	219,761	113,111
285,414	3,747	219,751	113,029
286,428	3,963	219,580	113,089
287,443	4,369	219,419	113,294
288,457	4,089	219,353	113,045
289,472	4,055	219,139	112,899
290,487	3,629	218,904	112,457
291,501	3,428	218,770	112,230
292,516	3,527	218,693	112,253
293,530	3,553	218,548	112,187
294,545	3,603	218,246	112,059
295,560	3,897	218,189	112,234
296,574	4,078	218,182	112,353
297,589	4,115	217,765	112,156
298,603	3,800	217,970	112,021
299,618	4,116	217,673	112,089
300,633	4,135	217,669	112,090
301,647	4,036	217,642	111,994
302,662	4,320	217,280	112,004
303,676	4,036	217,302	111,799
304,691	4,216	217,035	111,783
305,706	4,282	216,984	111,794
306,720	4,177	216,789	111,607
307,735	4,040	216,619	111,411
308,749	3,861	216,447	111,183
309,764	4,084	216,310	111,264
310,779	4,344	216,289	111,431
311,793	4,278	216,135	111,294
312,808	4,013	215,948	110,997
313,822	3,871	215,836	110,827
314,837	4,163	215,548	110,880
315,852	3,960	215,507	110,703
316,866	3,909	215,400	110,601
317,881	4,296	215,313	110,824
318,895	4,079	215,237	110,620
319,910	4,116	214,781	110,402
320,925	3,781	214,807	110,165
321,939	3,492	214,645	109,865
322,954	3,564	214,526	109,846
323,968	3,864	214,568	110,073
324,983	3,930	214,336	109,992
325,997	4,306	214,204	110,182
327,012	4,117	214,063	109,965
328,027	4,113	213,937	109,888
329,041	4,255	213,959	109,990
330,056	4,311	213,898	109,989
331,070	3,942	213,603	109,565
332,085	3,728	213,332	109,263
333,100	4,072	213,187	109,424
334,114	4,190	213,046	109,426
335,129	4,235	212,882	109,364
336,143	3,899	212,755	109,051
337,158	3,665	212,627	108,809
338,173	3,734	212,563	108,816
339,187	3,692	212,368	108,676
340,202	3,520	212,293	108,507
341,216	3,337	212,042	108,240
342,231	3,906	211,926	108,573
343,246	3,645	211,814	108,321
344,260	3,779	211,757	108,377
345,275	3,644	211,742	108,264
346,289	3,839	211,561	108,299
347,304	4,039	211,341	108,318
348,319	3,958	211,180	108,169
349,333	3,958	211,100	108,118
350,348	4,037	211,000	108,113
351,362	4,334	210,873	108,247
352,377	4,221	210,705	108,072
353,392	4,010	210,504	107,811
354,406	4,233	210,315	107,860
355,421	193,917	1342,495	1429,814
356,435	154,793	1480,491	1429,873
