DTS Sentinel unit serial number:	SN410029Multiplexer serial number:	ORYXHardware model number:	OX2-SRSoftware version number:	ORYX F/W v4,00 Oryx Data Collector v3.7.2.0data status	okinstallation	B6 Nyhavnadifferential loss correction	single-endedforward channel	channel 2reverse channel	N/Adate	2023/12/09time	23:10:08forward acquisition time	300,00reverse acquisition time	0,00gamma	499,1914k internal	0,3127k external	0,3127temperature offset calibration	1,0000default loss term (dB/km)	0,3820temperature slope calibration	1,0000multiplexer offset coefficient	1,0000multiplexer slope coefficient	1,0000fibre end	0,00T internal ref (°C)	21,69T ext. ref 1 (°C)	5,45T ext. ref 2 (°C)	5,43length (m)	temperature (°C)	Stokes	anti-Stokes-744,400	800,000	-0,023	0,064
-743,385	-64,837	-0,236	0,071
-742,371	-52,991	0,109	-0,037
-741,356	105,030	-0,106	0,093
-740,342	-57,568	-0,007	0,002
-739,327	93,270	-0,187	0,158
-738,312	48,025	0,088	0,061
-737,298	-83,024	-0,260	-0,062
-736,283	-139,174	0,123	0,010
-735,269	-21,806	-0,294	0,132
-734,254	-41,382	0,076	-0,029
-733,239	-148,770	-0,386	0,023
-732,225	-55,777	0,235	0,078
-731,210	13,666	0,108	-0,062
-730,196	-75,036	0,042	-0,011
-729,181	189,910	-0,124	-0,138
-728,167	-200,000	0,014	-0,106
-727,152	-5,890	-0,045	-0,023
-726,137	800,000	0,042	-0,099
-725,123	-200,000	-0,000	0,025
-724,108	-18,134	-0,156	-0,072
-723,094	-22,323	-0,074	-0,033
-722,079	528,026	-0,116	-0,204
-721,064	-200,000	0,004	0,094
-720,050	547,828	-0,044	0,079
-719,035	127,894	0,007	-0,007
-718,021	800,000	-0,019	0,042
-717,006	-72,744	-0,157	-0,043
-715,991	800,000	0,026	-0,068
-714,977	562,867	-0,085	-0,153
-713,962	800,000	0,007	-0,021
-712,948	-23,899	0,147	-0,065
-711,933	679,876	-0,047	-0,092
-710,918	-148,099	-0,059	-0,004
-709,904	518,522	-0,069	-0,121
-708,889	-71,078	-0,061	-0,017
-707,875	-200,000	0,024	-0,089
-706,860	558,044	-0,047	0,084
-705,845	49,214	0,094	0,066
-704,831	-200,000	-0,003	0,032
-703,816	213,444	0,126	0,148
-702,802	-200,000	0,051	-0,188
-701,787	415,334	0,072	0,114
-700,772	800,000	0,036	-0,116
-699,758	55,713	-0,068	0,049
-698,743	86,592	-0,067	0,055
-697,729	-21,757	0,038	0,017
-696,714	-200,000	-0,024	0,096
-695,699	183,573	-0,030	0,033
-694,685	76,832	-0,061	0,048
-693,670	125,670	-0,068	0,064
-692,656	800,000	0,023	-0,050
-691,641	-125,240	0,075	-0,008
-690,627	-19,027	0,088	0,041
-689,612	-200,000	0,014	0,171
-688,597	402,901	-0,112	-0,175
-687,583	629,904	0,057	-0,108
-686,568	596,822	-0,038	0,071
-685,554	-140,862	-0,039	-0,003
-684,539	800,000	-0,013	-0,029
-683,524	-157,267	0,144	-0,006
-682,510	55,094	0,095	-0,068
-681,495	-17,239	-0,159	-0,074
-680,481	109,227	-0,245	-0,217
-679,466	-118,204	0,044	0,006
-678,451	-200,000	-0,017	-0,166
-677,437	800,000	0,057	-0,170
-676,422	232,257	0,020	0,025
-675,408	-191,672	-0,092	0,001
-674,393	-22,234	0,061	-0,028
-673,378	-156,474	0,133	-0,006
-672,364	104,254	-0,033	-0,029
-671,349	-117,327	-0,023	-0,003
-670,335	85,474	-0,151	-0,123
-669,320	-122,485	-0,044	0,005
-668,305	-100,441	-0,159	-0,029
-667,291	800,000	0,042	0,122
-666,276	-39,068	-0,114	0,044
-665,262	800,000	-0,020	-0,063
-664,247	-200,000	-0,005	0,057
-663,232	337,684	0,032	0,047
-662,218	-77,710	0,096	-0,024
-661,203	70,321	0,108	0,083
-660,189	-57,823	0,054	0,017
-659,174	-200,000	-0,013	-0,096
-658,159	112,451	-0,041	-0,037
-657,145	113,906	0,028	0,026
-656,130	800,000	-0,041	0,106
-655,116	389,161	0,053	-0,082
-654,101	800,000	-0,033	-0,098
-653,086	211,126	-0,037	0,043
-652,072	-77,850	-0,032	-0,008
-651,057	800,000	0,060	-0,146
-650,043	-106,328	-0,061	0,010
-649,028	-200,000	0,029	0,138
-648,014	26,331	0,046	-0,028
-646,999	165,939	0,064	0,067
-645,984	187,184	-0,084	-0,093
-644,970	139,282	-0,109	0,106
-643,955	800,000	0,051	0,119
-642,941	-41,835	-0,112	-0,042
-641,926	-55,371	0,069	-0,023
-640,911	-200,000	-0,024	-0,081
-639,897	-200,000	-0,001	-0,018
-638,882	-200,000	0,001	0,038
-637,868	800,000	0,012	0,026
-636,853	115,220	-0,066	0,060
-635,838	-86,417	-0,057	-0,013
-634,824	-74,766	-0,153	-0,040
-633,809	565,258	0,048	0,087
-632,795	2,071	0,133	-0,071
-631,780	-200,000	0,026	-0,107
-630,765	77,052	-0,079	-0,062
-629,751	352,092	-0,050	-0,073
-628,736	-19,702	-0,170	-0,077
-627,722	23,830	0,030	-0,018
-626,707	-85,699	0,060	0,014
-625,692	-200,000	-0,033	0,125
-624,678	104,907	-0,060	-0,052
-623,663	568,420	-0,051	-0,093
-622,649	76,446	-0,010	-0,008
-621,634	-33,598	-0,058	-0,024
-620,619	72,394	0,015	0,011
-619,605	-200,000	-0,026	-0,090
-618,590	-142,191	0,092	-0,007
-617,576	-64,845	0,057	-0,017
-616,561	241,688	-0,035	0,043
-615,546	256,165	0,027	0,035
-614,532	385,571	-0,100	-0,154
-613,517	-200,000	0,001	0,113
-612,503	308,792	-0,019	0,026
-611,488	800,000	-0,009	0,025
-610,474	-200,000	0,011	-0,051
-609,459	-146,089	-0,043	-0,003
-608,444	-181,520	-0,123	0,002
-607,430	-93,307	-0,046	-0,009
-606,415	92,579	-0,049	-0,041
-605,401	800,000	0,043	0,090
-604,386	-63,283	-0,102	0,031
-603,371	-200,000	-0,008	0,049
-602,357	79,156	0,030	0,024
-601,342	800,000	0,027	0,065
-600,328	800,000	0,029	-0,078
-599,313	-53,467	-0,071	-0,024
-598,298	302,982	0,061	-0,084
-597,284	112,814	0,093	0,084
-596,269	-46,540	0,050	0,018
-595,255	35,397	0,138	0,089
-594,240	140,367	-0,029	0,028
-593,225	145,188	-0,117	-0,116
-592,211	-200,000	-0,044	0,168
-591,196	800,000	0,033	0,090
-590,182	-200,000	0,034	0,138
-589,167	97,018	0,040	0,034
-588,152	268,892	0,024	-0,032
-587,138	800,000	-0,028	0,080
-586,123	-20,940	-0,052	0,024
-585,109	-141,358	-0,114	0,008
-584,094	800,000	-0,017	0,053
-583,079	556,471	-0,061	0,109
-582,065	211,256	-0,038	0,044
-581,050	-7,869	-0,108	-0,054
-580,036	24,172	-0,085	-0,052
-579,021	800,000	0,040	-0,097
-578,006	-200,000	-0,001	-0,110
-576,992	502,622	0,071	-0,121
-575,977	-200,000	0,031	0,132
-574,963	166,918	0,076	0,080
-573,948	-200,000	0,019	0,071
-572,934	18,038	0,099	-0,059
-571,919	-200,000	0,009	0,035
-570,904	522,733	-0,030	0,052
-569,890	-200,000	-0,018	0,075
-568,875	163,950	0,038	0,039
-567,861	-25,892	0,100	-0,043
-566,846	-200,000	0,025	0,092
-565,831	-200,000	-0,017	0,062
-564,817	-77,980	-0,137	-0,035
-563,802	800,000	-0,017	-0,053
-562,788	-76,497	-0,137	0,035
-561,773	92,052	-0,069	0,057
-560,758	-28,508	-0,076	-0,032
-559,744	346,520	0,122	0,177
-558,729	703,675	0,017	0,034
-557,715	230,466	-0,086	-0,105
-556,700	-200,000	-0,012	-0,065
-555,685	2,513	-0,093	0,050
-554,671	84,437	-0,066	-0,053
-553,656	-200,000	0,028	0,130
-552,642	80,494	-0,046	-0,037
-551,627	253,069	0,081	0,102
-550,612	800,000	0,027	-0,062
-549,598	-18,219	-0,066	-0,030
-548,583	-141,282	-0,162	-0,012
-547,569	300,965	-0,053	0,072
-546,554	128,264	0,079	0,074
-545,539	17,901	0,060	-0,035
-544,525	-200,000	-0,024	0,091
-543,510	-159,035	-0,134	-0,005
-542,496	30,923	-0,078	-0,049
-541,481	-200,000	0,000	0,010
-540,466	58,905	0,082	0,059
-539,452	800,000	0,004	-0,009
-538,437	-200,000	-0,014	-0,068
-537,423	165,533	-0,093	0,098
-536,408	-200,000	0,009	-0,098
-535,393	-139,053	-0,196	-0,015
-534,379	-200,000	0,011	0,048
-533,364	-39,083	-0,156	-0,060
-532,350	386,016	-0,077	-0,117
-531,335	-145,468	0,058	0,004
-530,321	800,000	-0,032	0,090
-529,306	723,393	0,022	-0,043
-528,291	269,603	0,077	0,100
-527,277	-200,000	0,005	-0,070
-526,262	-200,000	0,020	0,087
-525,248	-200,000	-0,002	0,058
-524,233	-200,000	0,008	-0,094
-523,218	107,497	0,002	0,001
-522,204	21,419	-0,064	0,039
-521,189	-31,760	-0,056	-0,023
-520,175	800,000	0,030	0,071
-519,160	114,788	0,029	-0,026
-518,145	-200,000	0,010	-0,055
-517,131	47,340	-0,070	-0,048
-516,116	-10,105	0,097	-0,047
-515,102	453,508	-0,052	-0,086
-514,087	800,000	0,025	-0,071
-513,072	598,797	0,069	-0,126
-512,058	-200,000	-0,014	-0,109
-511,043	800,000	-0,037	0,082
-510,029	-200,000	0,003	0,107
-509,014	800,000	-0,052	-0,115
-507,999	10,601	-0,084	-0,047
-506,985	-200,000	0,028	-0,114
-505,970	-161,416	0,125	0,005
-504,956	-200,000	-0,016	-0,060
-503,941	357,387	-0,018	-0,026
-502,926	800,000	-0,005	0,012
-501,912	184,397	0,029	-0,032
-500,897	259,808	-0,075	-0,096
-499,883	800,000	0,008	0,019
-498,868	-39,983	-0,055	0,021
-497,853	236,604	-0,063	-0,077
-496,839	104,756	0,105	-0,092
-495,824	621,214	0,022	-0,041
-494,810	-200,000	-0,010	0,034
-493,795	113,080	-0,115	0,102
-492,781	800,000	-0,028	-0,063
-491,766	-177,719	-0,050	0,001
-490,751	-52,433	-0,039	0,013
-489,737	800,000	0,029	-0,066
-488,722	685,964	0,041	0,079
-487,708	216,817	0,033	-0,039
-486,693	800,000	0,027	-0,060
-485,678	159,313	0,035	-0,036
-484,664	800,000	-0,034	-0,077
-483,649	-200,000	0,017	-0,094
-482,635	-49,370	-0,060	0,021
-481,620	-200,000	-0,028	-0,097
-480,605	-200,000	-0,035	0,163
-479,591	69,938	0,080	0,061
-478,576	-92,189	-0,029	-0,006
-477,562	317,731	-0,045	-0,063
-476,547	434,968	-0,028	-0,045
-475,532	800,000	-0,052	-0,142
-474,518	104,799	-0,014	0,012
-473,503	472,448	-0,044	0,073
-472,489	104,203	-0,027	0,023
-471,474	11,502	0,039	0,022
-470,459	26,238	-0,067	-0,041
-469,445	57,339	-0,109	-0,078
-468,430	-200,000	0,009	-0,035
-467,416	387,411	-0,035	-0,054
-466,401	-200,000	0,014	-0,127
-465,386	45,873	0,184	-0,125
-464,372	325,110	0,087	-0,123
-463,357	800,000	-0,042	-0,136
-462,343	337,294	0,036	0,051
-461,328	800,000	0,058	-0,166
-460,313	77,443	0,102	0,080
-459,299	-200,000	-0,010	0,132
-458,284	35,665	0,097	0,063
-457,270	-20,627	0,114	-0,051
-456,255	241,223	-0,072	-0,089
-455,241	566,570	0,022	0,040
-454,226	-200,000	-0,009	0,057
-453,211	-13,553	0,103	0,049
-452,197	-71,837	0,060	-0,016
-451,182	-200,000	-0,002	0,094
-450,168	404,994	-0,031	-0,048
-449,153	276,374	0,056	-0,074
-448,138	-124,105	0,065	-0,007
-447,124	-19,149	-0,140	-0,064
-446,109	-200,000	0,004	0,048
-445,095	-141,605	0,024	0,002
-444,080	4,970	0,080	-0,043
-443,065	800,000	-0,021	-0,057
-442,051	443,636	-0,115	0,186
-441,036	133,319	-0,046	-0,044
-440,022	316,721	0,017	-0,023
-439,007	209,861	0,041	-0,047
-437,992	-108,960	0,102	0,016
-436,978	382,221	-0,034	0,052
-435,963	-68,581	-0,032	0,009
-434,949	-128,499	0,121	0,012
-433,934	5,099	-0,138	-0,075
-432,919	-200,000	-0,024	-0,175
-431,905	383,179	0,042	-0,064
-430,890	-183,273	0,076	-0,001
-429,876	-200,000	-0,002	0,017
-428,861	-128,121	0,126	0,013
-427,846	-69,646	0,123	-0,034
-426,832	-38,235	0,040	0,015
-425,817	147,335	0,032	0,032
-424,803	559,607	0,050	0,088
-423,788	-109,603	0,096	-0,015
-422,773	-4,372	0,094	0,048
-421,759	-200,000	-0,037	0,151
-420,744	-83,766	0,095	0,022
-419,730	-200,000	0,019	-0,206
-418,715	-200,000	0,003	0,037
-417,701	-200,000	0,011	-0,126
-416,686	800,000	0,038	-0,090
-415,671	300,242	-0,032	0,044
-414,657	95,521	0,094	-0,078
-413,642	800,000	-0,054	-0,124
-412,628	800,000	0,029	-0,066
-411,613	202,308	0,085	0,097
-410,598	269,756	0,057	-0,074
-409,584	-107,050	0,067	0,011
-408,569	55,292	0,013	-0,009
-407,555	-200,000	-0,003	0,064
-406,540	188,966	-0,040	0,044
-405,525	12,183	-0,102	0,058
-404,511	-141,985	0,033	-0,002
-403,496	-68,138	-0,171	-0,049
-402,482	582,814	0,055	-0,099
-401,467	133,388	-0,045	0,043
-400,452	800,000	0,020	-0,051
-399,438	127,919	0,028	0,026
-398,423	276,563	0,030	-0,039
-397,409	-110,623	-0,104	0,016
-396,394	-50,493	-0,041	0,014
-395,379	236,622	0,023	-0,028
-394,365	800,000	-0,032	0,089
-393,350	110,907	-0,048	0,043
-392,336	-19,115	-0,079	0,036
-391,321	-136,134	0,036	-0,003
-390,306	-200,000	0,089	-0,000
-389,292	-42,356	-0,050	-0,019
-388,277	-156,724	-0,092	0,004
-387,263	224,833	-0,100	0,118
-386,248	525,200	0,086	0,150
-385,233	800,000	0,053	0,117
-384,219	152,057	-0,120	-0,120
-383,204	-200,000	0,031	-0,113
-382,190	-3,793	0,073	0,037
-381,175	-40,343	-0,037	-0,014
-380,160	-5,333	0,049	-0,025
-379,146	69,307	-0,033	-0,025
-378,131	800,000	-0,010	-0,026
-377,117	336,435	-0,115	-0,164
-376,102	-200,000	-0,007	-0,119
-375,088	-57,276	-0,057	0,018
-374,073	-50,599	0,115	0,040
-373,058	34,814	-0,047	0,030
-372,044	-126,237	0,107	-0,012
-371,029	-200,000	0,000	0,012
-370,015	-200,000	-0,018	-0,084
-369,000	-200,000	0,003	-0,156
-367,985	51,320	-0,083	-0,058
-366,971	-75,793	0,110	0,028
-365,956	-136,840	0,153	-0,013
-364,942	171,648	0,083	-0,088
-363,927	-200,000	0,035	-0,112
-362,912	-200,000	0,032	0,201
-361,898	156,601	-0,028	0,028
-360,883	-103,051	0,068	-0,012
-359,869	141,186	-0,132	-0,128
-358,854	741,426	0,037	-0,074
-357,839	800,000	-0,049	0,149
-356,825	85,375	-0,107	-0,086
-355,810	-200,000	0,000	0,126
-354,796	800,000	0,040	-0,093
-353,781	-200,000	0,003	-0,053
-352,766	-200,000	0,012	0,051
-351,752	262,817	-0,062	0,079
-350,737	-170,810	0,101	0,002
-349,723	-200,000	0,027	0,122
-348,708	800,000	-0,021	0,065
-347,693	88,692	-0,088	-0,072
-346,679	342,126	0,093	-0,134
-345,664	-200,000	0,011	-0,113
-344,650	800,000	-0,035	-0,099
-343,635	-84,019	0,108	-0,025
-342,620	42,988	0,149	0,099
-341,606	530,867	-0,060	0,105
-340,591	800,000	-0,084	-0,212
-339,577	19,138	-0,074	0,043
-338,562	800,000	0,059	-0,186
-337,548	44,243	0,045	-0,030
-336,533	36,787	0,096	-0,062
-335,518	800,000	0,057	0,124
-334,504	-72,875	0,062	0,017
-333,489	-117,493	0,092	0,012
-332,475	-200,000	0,015	-0,128
-331,460	800,000	-0,031	-0,089
-330,445	-26,058	0,068	0,029
-329,431	800,000	-0,068	0,178
-328,416	-195,397	0,039	-0,000
-327,402	-157,506	-0,060	-0,003
-326,387	397,547	0,030	0,046
-325,372	42,206	-0,124	-0,082
-324,358	-200,000	-0,036	0,123
-323,343	-71,874	-0,063	0,017
-322,329	800,000	0,025	0,062
-321,314	-38,397	-0,069	0,026
-320,299	-91,699	0,065	-0,013
-319,285	-200,000	-0,014	-0,054
-318,270	-200,000	0,002	-0,207
-317,256	54,468	-0,040	-0,028
-316,241	-55,641	0,150	0,049
-315,226	-200,000	0,018	0,126
-314,212	800,000	-0,035	0,085
-313,197	-101,504	-0,092	0,016
-312,183	488,510	-0,018	0,030
-311,168	-200,000	0,011	0,042
-310,153	69,755	-0,059	-0,044
-309,139	-200,000	-0,000	0,003
-308,124	-124,437	0,157	0,018
-307,110	-200,000	0,001	0,092
-306,095	322,391	-0,020	0,028
-305,080	-200,000	0,020	0,109
-304,066	-147,080	0,158	-0,010
-303,051	-4,526	-0,059	-0,030
-302,037	1,585	-0,075	-0,039
-301,022	-200,000	0,000	-0,016
-300,008	-200,000	0,003	-0,040
-298,993	-200,000	-0,018	0,119
-297,978	96,772	0,097	0,081
-296,964	-18,908	0,096	-0,044
-295,949	206,542	-0,053	0,060
-294,935	67,538	0,070	-0,053
-293,920	-76,911	0,034	-0,009
-292,905	-200,000	0,023	0,085
-291,891	387,021	-0,069	0,105
-290,876	234,910	-0,029	0,035
-289,862	-132,644	0,062	0,006
-288,847	83,151	-0,111	0,088
-287,832	800,000	0,032	-0,066
-286,818	-61,363	-0,075	0,023
-285,803	-98,720	-0,134	0,025
-284,789	540,798	0,034	0,059
-283,774	-50,559	0,041	-0,014
-282,759	-67,058	-0,062	-0,018
-281,745	-21,779	-0,077	-0,034
-280,730	-200,000	-0,020	-0,074
-279,716	355,765	0,065	0,095
-278,701	800,000	0,018	-0,042
-277,686	85,425	0,045	-0,036
-276,672	-14,429	-0,059	0,028
-275,657	-89,486	-0,019	0,004
-274,643	-200,000	0,013	-0,154
-273,628	800,000	0,011	-0,032
-272,613	-92,724	-0,096	0,020
-271,599	-108,759	-0,107	-0,017
-270,584	-200,000	-0,004	0,041
-269,570	-70,139	0,091	0,025
-268,555	800,000	-0,060	0,139
-267,540	-37,632	0,103	0,040
-266,526	-127,360	-0,089	0,009
-265,511	-74,456	0,137	-0,036
-264,497	77,447	0,028	0,022
-263,482	-200,000	0,004	-0,082
-262,467	-122,538	0,065	-0,008
-261,453	800,000	-0,028	0,080
-260,438	472,419	0,084	-0,139
-259,424	-200,000	0,005	-0,166
-258,409	780,182	-0,062	-0,125
-257,395	178,270	0,159	0,169
-256,380	-200,000	-0,012	0,107
-255,365	-100,757	0,093	0,017
-254,351	482,737	-0,017	-0,028
-253,336	-127,424	-0,114	-0,012
-252,322	-200,000	-0,048	-0,170
-251,307	800,000	0,018	-0,042
-250,292	66,422	-0,057	0,043
-249,278	-200,000	-0,017	-0,116
-248,263	242,433	-0,050	0,062
-247,249	418,212	0,043	0,067
-246,234	325,093	-0,038	-0,053
-245,219	800,000	0,055	-0,149
-244,205	243,946	0,065	-0,080
-243,190	800,000	0,010	0,030
-242,176	-200,000	-0,011	0,039
-241,161	-200,000	-0,020	0,187
-240,146	420,943	0,106	0,166
-239,132	-139,791	0,140	-0,011
-238,117	-200,000	-0,024	0,099
-237,103	-97,104	0,118	-0,022
-236,088	129,633	-0,041	0,038
-235,073	69,217	0,029	-0,022
-234,059	141,142	0,030	-0,029
-233,044	-200,000	-0,013	0,132
-232,030	8,097	0,137	-0,075
-231,015	-30,756	-0,091	0,038
-230,000	33,855	0,047	-0,030
-228,986	763,112	0,008	0,016
-227,971	800,000	-0,023	0,054
-226,957	127,999	-0,065	0,060
-225,942	141,697	0,037	0,036
-224,927	-55,475	-0,043	0,014
-223,913	-200,000	-0,026	-0,104
-222,898	-26,577	0,126	0,054
-221,884	-151,402	-0,172	0,009
-220,869	-26,771	-0,087	-0,037
-219,855	-200,000	-0,011	0,149
-218,840	-71,934	0,135	0,036
-217,825	-72,247	-0,103	-0,028
-216,811	800,000	0,013	0,031
-215,796	44,892	-0,045	-0,030
-214,782	5,918	0,061	0,033
-213,767	43,049	0,078	0,052
-212,752	800,000	0,008	0,025
-211,738	164,714	-0,071	0,073
-210,723	103,800	-0,047	-0,040
-209,709	800,000	-0,057	-0,144
-208,694	-121,963	-0,017	0,002
-207,679	-184,129	0,090	-0,001
-206,665	800,000	0,025	0,060
-205,650	-168,093	0,081	-0,002
-204,636	-54,791	0,081	0,026
-203,621	800,000	-0,062	0,126
-202,606	-90,253	-0,067	0,014
-201,592	338,137	0,006	0,009
-200,577	-63,358	-0,034	-0,010
-199,563	237,978	0,061	-0,074
-198,548	-74,577	-0,171	-0,044
-197,533	-53,810	-0,029	0,010
-196,519	-119,622	0,071	0,009
-195,504	295,625	0,037	0,049
-194,490	-200,000	-0,015	-0,075
-193,475	272,846	-0,040	-0,052
-192,460	-107,869	-0,059	0,009
-191,446	-126,686	0,131	-0,014
-190,431	-200,000	0,012	0,087
-189,417	-109,357	-0,040	-0,006
-188,402	-117,208	-0,094	0,012
-187,387	46,411	0,132	-0,089
-186,373	130,662	0,087	-0,082
-185,358	9,195	0,057	-0,031
-184,344	252,973	-0,058	-0,072
-183,329	-41,788	-0,032	-0,012
-182,315	196,659	0,067	0,075
-181,300	36,492	0,151	0,097
-180,285	-37,456	-0,196	-0,076
-179,271	196,407	-0,097	-0,108
-178,256	-1,042	0,137	0,070
-177,242	-16,162	0,072	0,033
-176,227	156,428	-0,037	0,037
-175,212	-200,000	-0,039	-0,165
-174,198	462,823	0,047	0,076
-173,183	562,422	-0,025	0,044
-172,169	-200,000	-0,021	-0,081
-171,154	-173,080	0,114	0,002
-170,139	-0,943	0,092	0,047
-169,125	265,377	-0,031	0,040
-168,110	122,712	0,022	-0,020
-167,096	800,000	-0,035	0,072
-166,081	28,459	-0,043	0,026
-165,066	239,715	0,115	-0,139
-164,052	-200,000	-0,003	0,023
-163,037	-11,194	0,118	0,056
-162,023	-200,000	0,020	0,079
-161,008	-200,000	-0,001	0,158
-159,993	-200,000	-0,010	0,141
-158,979	800,000	-0,051	0,160
-157,964	76,380	0,062	0,048
-156,950	205,212	-0,189	0,214
-155,935	-89,969	0,095	-0,020
-154,920	-200,000	-0,017	0,105
-153,906	800,000	-0,014	0,030
-152,891	23,035	-0,063	0,038
-151,877	800,000	-0,034	0,107
-150,862	507,203	-0,098	-0,165
-149,847	178,489	-0,051	-0,054
-148,833	-200,000	0,006	-0,045
-147,818	-120,960	-0,058	-0,007
-146,804	-62,714	-0,067	0,020
-145,789	-200,000	0,008	-0,105
-144,775	5,363	0,046	0,025
-143,760	-200,000	-0,002	-0,114
-142,745	115,637	-0,105	-0,093
-141,731	48,014	0,050	0,034
-140,716	-60,722	-0,096	-0,029
-139,702	171,234	-0,048	-0,051
-138,687	-200,000	-0,025	0,112
-137,672	7,878	0,060	0,033
-136,658	-30,027	0,095	0,039
-135,643	26,123	-0,059	0,036
-134,629	-182,348	-0,099	0,001
-133,614	-53,459	0,032	-0,011
-132,599	66,872	0,081	0,060
-131,585	-28,099	-0,140	0,059
-130,570	-200,000	0,018	-0,075
-129,556	-56,804	-0,018	0,006
-128,541	400,287	-0,107	-0,164
-127,526	-57,617	0,070	0,022
-126,512	800,000	-0,027	0,079
-125,497	-96,454	-0,095	-0,018
-124,483	-39,561	0,095	-0,036
-123,468	800,000	0,078	0,224
-122,453	800,000	-0,021	-0,060
-121,439	-200,000	0,014	-0,048
-120,424	800,000	0,049	-0,118
-119,410	91,396	-0,040	-0,033
-118,395	-60,882	0,071	0,022
-117,380	-63,326	0,056	-0,017
-116,366	-200,000	0,009	-0,042
-115,351	36,452	0,064	-0,041
-114,337	800,000	0,020	-0,045
-113,322	800,000	-0,029	0,062
-112,307	800,000	0,031	-0,070
-111,293	222,254	0,073	0,086
-110,278	-4,296	0,048	0,024
-109,264	800,000	0,017	0,053
-108,249	-200,000	-0,011	-0,051
-107,234	-17,108	-0,077	-0,035
-106,220	214,105	-0,093	-0,107
-105,205	-200,000	-0,012	0,071
-104,191	-176,718	0,059	-0,001
-103,176	-129,171	0,005	0,001
-102,162	312,353	-0,055	0,075
-101,147	-200,000	0,004	0,013
-100,132	497,748	0,018	-0,030
-99,118	-144,102	0,061	-0,004
-98,103	-69,854	-0,051	0,014
-97,089	-200,000	0,114	0,000
-96,074	-98,964	0,063	0,011
-95,059	-93,132	0,056	-0,011
-94,045	800,000	0,025	-0,066
-93,030	598,268	-0,105	0,190
-92,016	134,408	-0,186	-0,175
-91,001	102,146	-0,018	-0,015
-89,986	-2,849	0,072	-0,037
-88,972	-0,286	0,147	-0,075
-87,957	-108,721	0,074	0,011
-86,943	800,000	-0,034	-0,072
-85,928	-90,348	-0,169	0,035
-84,913	-113,810	0,050	0,007
-83,899	-200,000	-0,020	0,087
-82,884	-114,882	0,018	0,002
-81,870	376,338	-0,035	0,052
-80,855	-118,193	0,047	0,006
-79,840	363,826	0,031	-0,046
-78,826	-162,975	-0,129	0,004
-77,811	-72,299	-0,294	-0,078
-76,797	233,961	-0,021	0,025
-75,782	255,394	0,083	0,103
-74,767	-200,000	0,006	-0,083
-73,753	-153,543	0,059	-0,003
-72,738	800,000	-0,005	0,016
-71,724	-131,320	0,142	0,014
-70,709	10,966	0,114	-0,063
-69,694	93,564	0,072	0,060
-68,680	-200,000	0,007	-0,048
-67,665	-96,738	-0,061	-0,012
-66,651	246,418	0,093	0,114
-65,636	-112,874	0,132	-0,019
-64,622	-147,360	-0,111	0,007
-63,607	-132,911	-0,015	-0,001
-62,592	4,286	0,094	0,050
-61,578	-134,054	-0,089	0,008
-60,563	227,734	0,187	0,221
-59,549	-200,000	0,011	0,071
-58,534	-191,259	-1,526	-0,011
-57,519	800,000	-0,638	-1,350
-56,505	-200,000	-1,019	-4,440
-55,490	-36,729	0,622	-0,241
-54,476	800,000	5,009	11,778
-53,461	-200,000	14,205	253,194
-52,446	-200,000	695,425	2233,134
-51,432	569,329	1624,658	2874,359
-50,417	117,083	1631,763	1452,764
-49,403	72,802	1285,630	971,686
-48,388	37,398	1022,868	655,798
-47,373	23,739	981,218	584,227
-46,359	22,936	970,782	575,359
-45,344	21,996	966,380	569,662
-44,330	21,830	965,049	568,311
-43,315	21,757	963,415	567,090
-42,300	21,746	962,438	566,456
-41,286	21,696	961,595	565,777
-40,271	21,709	960,471	565,134
-39,257	21,729	959,445	564,573
-38,242	21,719	958,497	563,960
-37,227	21,663	957,818	563,358
-36,213	21,643	956,950	562,758
-35,198	21,587	956,084	562,046
-34,184	21,719	955,230	561,949
-33,169	21,677	954,654	561,451
-32,154	21,774	953,661	561,158
-31,140	21,751	952,609	560,441
-30,125	21,752	951,959	560,040
-29,111	21,678	951,202	559,337
-28,096	21,730	950,267	558,932
-27,082	21,718	949,693	558,532
-26,067	21,714	949,004	558,094
-25,052	21,791	947,951	557,697
-24,038	21,744	947,724	557,393
-23,023	21,715	946,996	556,850
-22,009	21,745	946,276	556,498
-20,994	21,775	945,698	556,234
-19,979	21,784	944,937	555,790
-18,965	21,714	944,393	555,225
-17,950	21,706	943,777	554,817
-16,936	21,710	942,913	554,300
-15,921	21,695	942,378	553,916
-14,906	21,616	941,585	553,175
-13,892	21,590	941,161	552,823
-12,877	21,597	940,568	552,473
-11,863	21,568	939,876	551,954
-10,848	21,656	939,274	551,859
-9,833	21,710	938,864	551,766
-8,819	21,685	938,314	551,342
-7,804	21,620	937,636	550,716
-6,790	21,637	936,952	550,347
-5,775	21,615	936,516	549,997
-4,760	21,586	935,745	549,432
-3,746	21,626	935,123	549,170
-2,731	21,455	934,441	548,209
-1,717	21,393	933,764	547,596
-0,702	21,454	932,962	547,295
0,313	21,246	932,300	547,079
1,327	24,163	930,281	555,002
2,342	33,411	793,805	498,141
3,356	31,003	450,545	279,088
4,371	0,749	294,431	152,130
5,386	-3,568	275,413	138,198
6,400	-4,769	269,574	134,139
7,415	-5,364	267,526	132,560
8,429	-4,893	266,234	132,340
9,444	-4,841	265,259	131,891
10,459	-4,983	264,774	131,508
11,473	-5,096	264,068	131,044
12,488	-5,058	263,617	130,842
13,502	-5,332	263,037	130,295
14,517	-5,065	262,727	130,371
15,531	-5,058	262,327	130,168
16,546	-4,942	261,921	130,059
17,561	-5,073	261,644	129,792
18,575	-4,923	261,379	129,783
19,590	-5,254	260,958	129,266
20,604	-5,071	260,639	129,261
21,619	-5,163	260,278	128,987
22,634	-5,253	260,031	128,773
23,648	-5,096	259,599	128,687
24,663	-5,093	259,351	128,557
25,677	-5,136	259,159	128,411
26,692	-5,145	258,932	128,280
27,707	-5,089	258,651	128,178
28,721	-5,281	258,416	127,879
29,736	-5,283	258,112	127,716
30,750	-5,272	257,904	127,612
31,765	-5,162	257,593	127,544
32,780	-5,196	257,246	127,331
33,794	-5,281	257,154	127,199
34,809	-5,166	256,939	127,183
35,823	-5,150	256,615	127,025
36,838	-5,361	256,520	126,781
37,853	-5,112	256,168	126,815
38,867	-5,146	255,944	126,662
39,882	-5,226	255,642	126,431
40,896	-5,144	255,394	126,370
41,911	-5,369	255,209	126,069
42,926	-5,354	255,070	126,002
43,940	-5,229	254,873	126,003
44,955	-5,405	254,588	125,697
45,969	-5,342	254,310	125,604
46,984	-5,505	254,190	125,391
47,999	-5,825	253,941	124,977
49,013	-5,818	253,672	124,840
50,028	-5,916	253,405	124,612
51,042	-5,999	253,160	124,408
52,057	-5,930	252,955	124,356
53,071	-5,881	252,798	124,311
54,086	-5,754	252,473	124,250
55,101	-5,608	252,438	124,348
56,115	-5,559	252,418	124,370
57,130	-5,140	252,205	124,617
58,144	-4,916	252,048	124,722
59,159	-4,867	251,768	124,615
60,174	-5,085	251,628	124,346
61,188	-5,112	251,346	124,173
62,203	-5,335	251,172	123,883
63,217	-4,981	250,933	124,059
64,232	-5,139	250,706	123,800
65,247	-5,048	250,509	123,770
66,261	-5,020	250,348	123,703
67,276	-5,147	250,012	123,417
68,290	-5,330	249,647	123,070
69,305	-5,703	249,626	122,728
70,320	-5,426	249,290	122,790
71,334	-5,410	249,389	122,841
72,349	-4,902	248,949	123,046
73,363	-5,132	248,833	122,782
74,378	-5,086	248,719	122,754
75,393	-5,324	248,537	122,450
76,407	-4,941	248,155	122,577
77,422	-5,072	248,005	122,381
78,436	-4,957	247,788	122,360
79,451	-5,226	247,668	122,062
80,466	-5,123	247,345	121,980
81,480	-5,198	247,316	121,891
82,495	-5,327	247,035	121,632
83,509	-5,361	246,953	121,552
84,524	-5,278	246,530	121,403
85,539	-5,616	246,386	121,036
86,553	-5,236	246,214	121,261
87,568	-5,517	246,052	120,934
88,582	-5,454	245,969	120,935
89,597	-5,462	245,750	120,811
90,611	-5,345	245,466	120,758
91,626	-5,125	245,603	121,000
92,641	-5,098	245,233	120,829
93,655	-5,068	245,111	120,784
94,670	-5,323	244,896	120,453
95,684	-5,173	244,551	120,398
96,699	-5,297	244,464	120,240
97,714	-5,366	244,276	120,080
98,728	-5,353	243,985	119,937
99,743	-5,637	243,896	119,645
100,757	-5,644	243,748	119,556
101,772	-5,634	243,614	119,488
102,787	-5,355	243,247	119,530
103,801	-5,317	243,143	119,500
104,816	-5,169	242,990	119,537
105,830	-5,139	242,852	119,484
106,845	-5,244	242,803	119,362
107,860	-5,046	242,422	119,328
108,874	-5,394	242,353	118,995
109,889	-5,192	241,998	118,977
110,903	-5,347	241,825	118,753
111,918	-5,247	241,684	118,756
112,933	-5,413	241,556	118,546
113,947	-5,464	241,481	118,456
114,962	-5,150	241,157	118,545
115,976	-5,328	241,017	118,319
116,991	-5,357	240,922	118,238
118,006	-5,167	240,776	118,312
119,020	-5,282	240,590	118,116
120,035	-5,226	240,632	118,172
121,049	-5,110	240,276	118,082
122,064	-4,983	239,982	118,031
123,079	-5,139	239,890	117,847
124,093	-5,381	239,753	117,571
125,108	-5,307	239,325	117,411
126,122	-5,642	239,402	117,165
127,137	-5,623	238,907	116,927
128,151	-5,495	238,898	117,018
129,166	-5,371	238,806	117,063
130,181	-5,576	238,658	116,813
131,195	-5,618	238,574	116,727
132,210	-5,370	238,184	116,727
133,224	-5,365	238,057	116,659
134,239	-5,098	237,811	116,744
135,254	-5,216	237,672	116,570
136,268	-5,305	237,535	116,420
137,283	-5,399	237,263	116,201
138,297	-5,598	237,150	115,974
139,312	-5,622	236,891	115,818
140,327	-5,475	236,863	115,912
141,341	-5,000	236,848	116,278
142,356	-4,933	236,583	116,191
143,370	-4,954	236,602	116,174
144,385	-4,851	236,352	116,123
145,400	-4,842	236,155	116,023
146,414	-4,990	236,030	115,833
147,429	-4,805	235,835	115,876
148,443	-4,976	235,646	115,635
149,458	-5,079	235,536	115,488
150,473	-5,024	235,322	115,417
151,487	-4,894	235,113	115,408
152,502	-4,975	234,916	115,236
153,516	-4,974	234,835	115,188
154,531	-4,968	234,638	115,085
155,546	-5,138	234,493	114,868
156,560	-5,066	234,227	114,785
157,575	-4,964	234,022	114,756
158,589	-5,175	233,877	114,506
159,604	-4,951	233,853	114,662
160,619	-4,985	233,606	114,504
161,633	-4,682	233,421	114,644
162,648	-4,775	233,226	114,464
163,662	-4,792	233,024	114,341
164,677	-4,855	233,022	114,281
165,692	-4,841	232,787	114,166
166,706	-4,744	232,778	114,228
167,721	-4,750	232,592	114,122
168,735	-4,732	232,431	114,047
169,750	-4,686	232,352	114,035
170,764	-4,799	232,086	113,804
171,779	-5,123	232,058	113,525
172,794	-5,000	231,928	113,549
173,808	-5,168	231,681	113,285
174,823	-5,323	231,266	112,950
175,837	-5,698	231,218	112,622
176,852	-5,114	231,012	112,970
177,867	-5,035	230,980	113,006
178,881	-4,852	230,856	113,079
179,896	-4,931	230,763	112,961
180,910	-4,666	230,565	113,061
181,925	-4,648	230,358	112,964
182,940	-4,906	230,204	112,677
183,954	-4,994	230,247	112,620
184,969	-4,578	230,057	112,841
185,983	-4,735	229,784	112,575
186,998	-4,787	229,714	112,490
188,013	-4,580	229,445	112,509
189,027	-4,663	229,252	112,340
190,042	-4,706	229,053	112,199
191,056	-4,763	228,940	112,090
192,071	-4,695	228,935	112,130
193,086	-4,723	228,747	112,006
194,100	-4,766	228,552	111,867
195,115	-4,867	228,210	111,612
196,129	-5,449	228,136	111,115
197,144	-2,860	228,915	113,494
198,159	1,340	230,054	117,317
199,173	3,585	230,633	119,350
200,188	3,975	230,515	119,581
201,202	4,159	230,274	119,588
202,217	4,281	230,259	119,665
203,232	4,546	230,185	119,821
204,246	4,414	230,094	119,661
205,261	4,385	229,968	119,562
206,275	4,540	229,905	119,639
207,290	4,575	229,722	119,560
208,304	4,651	229,580	119,534
209,319	4,576	229,283	119,311
210,334	4,550	229,267	119,272
211,348	4,218	228,902	118,816
212,363	4,270	228,676	118,728
213,377	3,778	228,527	118,261
214,392	3,793	228,325	118,157
215,407	3,750	228,255	118,077
216,421	3,950	228,011	118,094
217,436	3,901	227,865	117,970
218,450	3,529	227,630	117,553
219,465	3,560	227,553	117,527
220,480	3,552	227,409	117,436
221,494	3,540	227,269	117,344
222,509	3,690	227,071	117,346
223,523	3,896	226,993	117,453
224,538	3,662	226,858	117,193
225,553	3,538	226,705	117,010
226,567	3,862	226,659	117,222
227,582	4,040	226,507	117,269
228,596	4,093	226,446	117,267
229,611	3,839	226,216	116,944
230,626	3,553	225,884	116,545
231,640	3,553	225,791	116,487
232,655	3,887	225,687	116,676
233,669	4,448	225,587	117,040
234,684	4,295	225,563	116,900
235,699	4,128	225,288	116,621
236,713	3,995	225,106	116,416
237,728	3,790	224,883	116,135
238,742	3,566	224,724	115,874
239,757	3,882	224,498	115,985
240,772	3,568	224,475	115,726
241,786	3,495	224,236	115,537
242,801	3,834	224,387	115,860
243,815	4,114	224,040	115,881
244,830	3,868	224,030	115,682
245,844	3,823	223,734	115,485
246,859	3,848	223,658	115,454
247,874	4,122	223,423	115,528
248,888	4,275	223,383	115,611
249,903	3,873	223,356	115,286
250,917	3,766	223,046	115,035
251,932	3,761	222,889	114,940
252,947	3,692	222,730	114,796
253,961	3,770	222,401	114,675
254,976	3,798	222,410	114,690
255,990	4,002	222,393	114,823
257,005	4,058	222,268	114,791
258,020	3,909	222,080	114,571
259,034	4,010	222,046	114,619
260,049	3,919	221,897	114,464
261,063	3,858	221,559	114,235
262,078	4,409	221,419	114,561
263,093	4,312	221,467	114,504
264,107	4,107	221,163	114,185
265,122	4,151	221,130	114,190
266,136	4,064	221,225	114,164
267,151	4,322	220,807	114,129
268,166	3,748	220,679	113,629
269,180	3,742	220,357	113,448
270,195	3,694	220,231	113,337
271,209	3,746	220,075	113,286
272,224	3,777	220,071	113,296
273,239	4,023	219,952	113,406
274,253	3,794	219,703	113,099
275,268	3,838	219,374	112,952
276,282	3,619	219,386	112,788
277,297	3,602	219,282	112,711
278,312	3,622	219,096	112,620
279,326	3,835	219,199	112,820
280,341	3,846	218,904	112,666
281,355	3,954	218,718	112,639
282,370	3,959	218,601	112,573
283,384	3,518	218,400	112,136
284,399	3,290	218,260	111,888
285,414	3,662	218,031	112,032
286,428	3,630	218,086	112,027
287,443	3,771	218,042	112,097
288,457	3,894	217,879	112,093
289,472	3,908	217,583	111,941
290,487	3,516	217,268	111,484
291,501	3,252	217,234	111,265
292,516	3,439	217,067	111,305
293,530	3,430	217,083	111,297
294,545	3,443	216,632	111,065
295,560	3,367	216,680	111,025
296,574	3,640	216,604	111,174
297,589	3,715	216,512	111,171
298,603	4,022	216,366	111,308
299,618	3,919	216,357	111,219
300,633	3,917	216,200	111,127
301,647	4,016	216,033	111,103
302,662	4,103	216,096	111,188
303,676	3,832	215,809	110,835
304,691	3,785	215,712	110,742
305,706	4,066	215,563	110,858
306,720	3,877	215,395	110,625
307,735	3,997	215,038	110,518
308,749	3,493	214,980	110,116
309,764	3,878	214,941	110,363
310,779	4,039	214,757	110,374
311,793	3,916	214,534	110,162
312,808	3,769	214,439	109,998
313,822	4,025	214,291	110,096
314,837	3,671	214,190	109,780
315,852	3,606	214,046	109,650
316,866	3,811	213,878	109,701
317,881	3,965	213,726	109,723
318,895	3,876	213,618	109,595
319,910	3,921	213,630	109,623
320,925	3,603	213,266	109,200
321,939	3,207	213,184	108,866
322,954	3,280	213,027	108,828
323,968	3,938	212,885	109,214
324,983	3,861	212,823	109,117
325,997	3,980	212,835	109,199
327,012	3,968	212,651	109,086
328,027	3,749	212,453	108,819
329,041	4,152	212,303	109,018
330,056	4,459	212,033	109,086
331,070	4,146	211,883	108,779
332,085	3,560	211,845	108,336
333,100	3,916	211,586	108,445
334,114	3,862	211,625	108,417
335,129	3,861	211,394	108,288
336,143	3,789	211,133	108,094
337,158	3,464	211,089	107,833
338,173	3,778	210,988	107,993
339,187	3,620	210,919	107,837
340,202	3,405	210,648	107,538
341,216	3,544	210,455	107,527
342,231	3,616	210,479	107,580
343,246	3,484	210,387	107,431
344,260	3,404	210,186	107,263
345,275	3,636	210,126	107,385
346,289	4,160	209,812	107,581
347,304	3,911	209,797	107,390
348,319	3,954	209,616	107,318
349,333	3,977	209,566	107,299
350,348	3,564	209,625	107,031
351,362	4,197	209,316	107,305
352,377	3,826	209,360	107,059
353,392	4,013	209,016	107,003
354,406	3,948	208,887	106,883
355,421	194,161	1344,070	1431,654
356,435	154,949	1482,458	1431,748
