DTS Sentinel unit serial number:	SN410029Multiplexer serial number:	ORYXHardware model number:	OX2-SRSoftware version number:	ORYX F/W v4,00 Oryx Data Collector v3.7.2.0data status	okinstallation	B6 Nyhavnadifferential loss correction	single-endedforward channel	channel 2reverse channel	N/Adate	2023/12/07time	18:10:08forward acquisition time	300,00reverse acquisition time	0,00gamma	499,1914k internal	0,3164k external	0,3164temperature offset calibration	1,0000default loss term (dB/km)	0,3820temperature slope calibration	1,0000multiplexer offset coefficient	1,0000multiplexer slope coefficient	1,0000fibre end	0,00T internal ref (°C)	14,31T ext. ref 1 (°C)	-2,66T ext. ref 2 (°C)	-2,68length (m)	temperature (°C)	Stokes	anti-Stokes-744,400	800,000	0,044	-0,090
-743,385	17,451	-0,226	-0,132
-742,371	-21,763	0,200	0,089
-741,356	-131,019	-0,295	0,029
-740,342	150,905	0,129	0,130
-739,327	-135,295	-0,390	-0,034
-738,312	-111,178	0,197	0,029
-737,298	-65,078	-0,457	-0,135
-736,283	-84,392	0,242	0,056
-735,269	-160,145	-0,345	0,014
-734,254	39,977	0,086	0,057
-733,239	12,515	-0,461	-0,261
-732,225	493,956	0,052	0,088
-731,210	-43,531	-0,041	-0,015
-730,196	-200,000	-0,013	-0,066
-729,181	-32,700	-0,049	-0,020
-728,167	254,731	-0,050	-0,063
-727,152	109,397	-0,088	0,078
-726,137	-126,321	-0,098	0,011
-725,123	460,836	-0,024	-0,039
-724,108	-6,683	-0,087	0,043
-723,094	-200,000	0,011	-0,074
-722,079	434,301	0,029	-0,046
-721,064	-200,000	-0,027	-0,109
-720,050	208,684	-0,061	0,070
-719,035	345,697	-0,013	-0,019
-718,021	328,588	-0,065	0,092
-717,006	-49,643	0,069	-0,024
-715,991	800,000	-0,046	-0,148
-714,977	-87,224	-0,168	0,037
-713,962	-200,000	-0,025	0,155
-712,948	800,000	-0,020	-0,046
-711,933	-120,679	-0,132	-0,016
-710,918	-101,030	0,089	-0,016
-709,904	-113,395	-0,101	-0,014
-708,889	-6,486	-0,105	-0,052
-707,875	222,420	0,031	0,037
-706,860	-124,335	-0,101	0,011
-705,845	185,918	-0,032	0,035
-704,831	359,600	-0,099	0,147
-703,816	-31,830	-0,072	-0,030
-702,802	-200,000	0,016	-0,079
-701,787	-88,230	-0,103	0,022
-700,772	92,412	-0,095	-0,079
-699,758	135,473	-0,069	-0,066
-698,743	-172,765	0,072	-0,002
-697,729	800,000	-0,055	0,134
-696,714	-184,225	-0,028	0,000
-695,699	-63,038	-0,096	-0,029
-694,685	-200,000	-0,035	0,135
-693,670	313,102	0,072	0,100
-692,656	115,336	0,094	-0,084
-691,641	-200,000	-0,004	-0,180
-690,627	-33,015	-0,006	-0,002
-689,612	48,193	-0,116	0,079
-688,597	-123,232	-0,096	0,011
-687,583	-130,213	-0,047	-0,005
-686,568	-200,000	-0,043	-0,160
-685,554	-141,669	-0,154	-0,011
-684,539	800,000	0,015	0,034
-683,524	-200,000	0,002	0,072
-682,510	800,000	-0,051	0,158
-681,495	-81,908	-0,166	0,040
-680,481	800,000	-0,032	-0,101
-679,466	-200,000	-0,032	-0,123
-678,451	19,975	0,076	-0,045
-677,437	39,582	-0,067	0,044
-676,422	665,796	0,100	0,190
-675,408	-0,636	-0,083	0,043
-674,393	-153,988	-0,242	-0,012
-673,378	19,808	-0,063	-0,037
-672,364	-200,000	-0,020	-0,097
-671,349	-139,410	0,037	-0,003
-670,335	377,412	-0,119	0,179
-669,320	780,605	-0,068	-0,137
-668,305	109,054	0,078	-0,068
-667,291	-106,191	-0,017	0,003
-666,276	800,000	0,025	-0,062
-665,262	-60,624	-0,130	0,040
-664,247	242,079	-0,106	-0,130
-663,232	-61,259	0,090	-0,027
-662,218	-200,000	0,013	-0,051
-661,203	-117,385	-0,095	-0,012
-660,189	-73,718	0,055	0,015
-659,174	181,275	0,033	0,036
-658,159	402,305	0,079	-0,122
-657,145	-99,474	-0,068	-0,012
-656,130	-88,436	-0,076	-0,017
-655,116	-200,000	-0,044	0,154
-654,101	335,824	-0,008	-0,012
-653,086	-200,000	-0,002	0,068
-652,072	12,678	0,116	-0,065
-651,057	337,812	-0,152	-0,218
-650,043	149,757	0,045	-0,045
-649,028	-10,507	0,010	-0,005
-648,014	255,982	0,052	0,066
-646,999	-200,000	-0,010	-0,061
-645,984	-200,000	0,005	-0,069
-644,970	-18,443	0,132	-0,060
-643,955	-200,000	-0,041	-0,141
-642,941	-156,836	-0,113	0,005
-641,926	145,669	0,076	0,075
-640,911	-200,000	-0,022	0,084
-639,897	-26,548	0,009	0,004
-638,882	124,485	0,046	-0,043
-637,868	-200,000	-0,009	0,080
-636,853	-155,712	-0,069	-0,003
-635,838	800,000	-0,065	0,177
-634,824	800,000	-0,064	-0,158
-633,809	800,000	0,060	-0,141
-632,795	514,940	-0,040	0,068
-631,780	13,881	-0,120	0,068
-630,765	5,977	-0,080	0,043
-629,751	92,439	-0,145	-0,120
-628,736	569,766	-0,055	-0,098
-627,722	171,018	-0,045	0,047
-626,707	-157,101	-0,056	-0,002
-625,692	295,264	0,047	-0,063
-624,678	-64,867	0,100	-0,029
-623,663	28,872	-0,055	0,034
-622,649	2,632	0,060	0,032
-621,634	388,992	-0,020	-0,030
-620,619	-200,000	0,011	-0,042
-619,605	-200,000	-0,020	-0,110
-618,590	608,279	0,030	0,055
-617,576	800,000	-0,018	0,046
-616,561	106,076	0,172	0,149
-615,546	108,789	0,075	-0,065
-614,532	118,870	-0,133	0,121
-613,517	339,895	-0,087	-0,125
-612,503	416,402	0,099	-0,156
-611,488	-12,973	0,092	-0,044
-610,474	180,595	-0,059	-0,064
-609,459	119,142	0,087	0,079
-608,444	-200,000	-0,002	-0,037
-607,430	398,167	0,060	0,091
-606,415	-200,000	-0,025	-0,139
-605,401	-14,666	0,069	0,032
-604,386	228,206	0,106	-0,126
-603,371	-23,745	0,124	-0,054
-602,357	-103,226	0,105	-0,018
-601,342	85,827	-0,088	0,070
-600,328	271,271	0,129	0,166
-599,313	-57,855	-0,072	-0,023
-598,298	-36,128	0,061	-0,024
-597,284	-138,132	-0,117	0,009
-596,269	-200,000	0,043	0,168
-595,255	-200,000	-0,008	0,080
-594,240	438,247	-0,049	-0,078
-593,225	-176,149	-0,023	0,000
-592,211	403,133	-0,048	0,074
-591,196	-41,159	0,058	0,022
-590,182	-172,697	-0,104	-0,002
-589,167	264,117	0,072	0,092
-588,152	78,819	-0,041	-0,032
-587,138	-0,908	0,056	0,029
-586,123	181,323	-0,093	-0,100
-585,109	455,682	-0,032	-0,052
-584,094	-81,635	0,130	-0,031
-583,079	75,081	-0,041	0,031
-582,065	24,026	0,007	0,004
-581,050	-75,567	-0,061	-0,016
-580,036	-200,000	-0,003	0,025
-579,021	800,000	0,025	-0,079
-578,006	281,549	-0,027	-0,036
-576,992	800,000	-0,019	0,054
-575,977	-27,792	0,027	0,011
-574,963	-200,000	0,016	0,078
-573,948	754,683	-0,062	-0,124
-572,934	-97,420	-0,025	0,005
-571,919	-200,000	-0,015	0,061
-570,904	-107,655	0,079	-0,012
-569,890	-200,000	0,020	-0,095
-568,875	-200,000	0,011	-0,098
-567,861	-200,000	-0,001	-0,035
-566,846	-115,227	-0,063	-0,009
-565,831	205,740	-0,046	0,052
-564,817	608,226	0,040	-0,073
-563,802	359,042	-0,028	-0,041
-562,788	-102,279	0,060	-0,010
-561,773	16,347	0,063	0,036
-560,758	-58,913	0,035	0,011
-559,744	139,038	0,132	0,127
-558,729	169,522	-0,081	0,085
-557,715	-53,312	0,033	-0,011
-556,700	-200,000	-0,019	-0,076
-555,685	530,714	0,039	0,068
-554,671	-66,906	-0,102	-0,029
-553,656	-95,022	-0,113	0,022
-552,642	331,996	-0,003	-0,005
-551,627	-51,427	0,057	-0,020
-550,612	800,000	-0,036	-0,100
-549,598	-198,868	-0,039	0,000
-548,583	-200,000	0,002	0,052
-547,569	-105,761	0,058	-0,009
-546,554	-56,059	0,169	-0,055
-545,539	23,068	0,070	-0,042
-544,525	-14,337	-0,046	0,021
-543,510	-39,533	-0,090	0,034
-542,496	-128,291	-0,042	0,004
-541,481	-200,000	-0,006	0,094
-540,466	236,370	-0,034	-0,041
-539,452	103,187	0,089	-0,076
-538,437	18,715	0,057	0,033
-537,423	417,192	-0,068	0,106
-536,408	82,304	-0,161	-0,127
-535,393	-182,219	0,094	-0,001
-534,379	348,350	-0,030	0,043
-533,364	365,894	-0,037	0,055
-532,350	233,992	0,095	0,114
-531,335	-200,000	-0,004	0,070
-530,321	714,240	-0,081	0,157
-529,306	-200,000	0,003	0,071
-528,291	517,239	0,093	0,160
-527,277	800,000	-0,025	-0,052
-526,262	77,076	-0,071	-0,055
-525,248	262,688	-0,041	-0,052
-524,233	53,256	-0,024	0,017
-523,218	213,031	0,060	-0,069
-522,204	-155,532	0,019	-0,001
-521,189	-3,270	0,128	0,065
-520,175	1,235	0,031	0,016
-519,160	-200,000	0,019	-0,085
-518,145	-123,717	0,132	-0,015
-517,131	2,735	0,107	-0,056
-516,116	-57,952	0,050	0,016
-515,102	-54,290	0,113	-0,037
-514,087	207,049	-0,012	0,014
-513,072	-200,000	0,020	-0,082
-512,058	-200,000	0,007	-0,074
-511,043	-200,000	-0,000	0,014
-510,029	172,740	0,052	0,055
-509,014	800,000	-0,014	0,030
-507,999	800,000	0,042	0,091
-506,985	24,567	-0,172	-0,104
-505,970	142,962	-0,038	0,037
-504,956	136,292	-0,102	-0,097
-503,941	181,881	-0,061	-0,066
-502,926	-29,937	-0,072	0,030
-501,912	800,000	-0,040	-0,095
-500,897	-27,807	-0,095	-0,040
-499,883	-184,304	-0,176	0,002
-498,868	-28,774	0,121	-0,050
-497,853	-0,109	-0,067	-0,035
-496,839	-80,669	0,085	0,020
-495,824	120,189	0,043	-0,039
-494,810	-200,000	-0,014	-0,113
-493,795	-200,000	0,028	0,151
-492,781	202,836	-0,037	0,042
-491,766	800,000	-0,024	0,062
-490,751	-107,113	0,097	0,015
-489,737	800,000	-0,029	0,059
-488,722	124,006	0,154	0,141
-487,708	-200,000	-0,004	-0,028
-486,693	190,664	0,094	0,103
-485,678	-112,626	0,047	0,007
-484,664	-106,415	-0,079	0,013
-483,649	-85,575	0,028	0,006
-482,635	-200,000	-0,042	-0,146
-481,620	800,000	0,033	0,077
-480,605	-200,000	-0,002	-0,031
-479,591	493,910	0,022	0,037
-478,576	-36,598	0,108	0,042
-477,562	-200,000	0,008	0,072
-476,547	800,000	0,048	-0,123
-475,532	54,670	0,055	-0,039
-474,518	-200,000	-0,017	0,103
-473,503	-31,165	0,047	0,019
-472,489	800,000	-0,031	0,072
-471,474	62,836	0,035	-0,025
-470,459	-113,837	0,054	-0,008
-469,445	-2,376	-0,089	-0,045
-468,430	-200,000	-0,005	0,068
-467,416	181,158	-0,060	0,064
-466,401	639,983	0,038	0,070
-465,386	-200,000	0,022	-0,086
-464,372	118,960	-0,080	-0,072
-463,357	800,000	-0,047	-0,133
-462,343	43,074	-0,052	0,035
-461,328	612,202	-0,059	-0,108
-460,313	118,581	-0,028	-0,025
-459,299	98,778	0,078	0,065
-458,284	800,000	0,038	0,121
-457,270	-15,422	-0,054	-0,025
-456,255	-200,000	-0,010	-0,120
-455,241	36,106	-0,034	-0,022
-454,226	368,098	0,020	-0,029
-453,211	-77,417	-0,017	0,004
-452,197	800,000	0,029	-0,061
-451,182	-200,000	0,021	0,072
-450,168	-15,675	0,076	0,035
-449,153	349,373	0,053	0,077
-448,138	392,801	-0,066	-0,100
-447,124	-200,000	0,019	-0,122
-446,109	800,000	0,040	-0,123
-445,095	224,498	0,093	0,109
-444,080	800,000	0,002	0,004
-443,065	224,495	0,099	-0,117
-442,051	800,000	-0,073	0,189
-441,036	46,988	-0,041	0,028
-440,022	74,634	-0,115	-0,088
-439,007	642,744	0,051	-0,095
-437,992	560,577	0,026	-0,046
-436,978	196,660	0,091	0,100
-435,963	-200,000	-0,009	-0,182
-434,949	455,797	-0,065	-0,105
-433,934	-41,415	0,038	-0,014
-432,919	119,492	0,048	-0,043
-431,905	24,778	-0,034	-0,020
-430,890	525,619	-0,066	0,113
-429,876	97,087	0,006	-0,005
-428,861	315,779	0,051	0,070
-427,846	-20,956	0,067	-0,030
-426,832	-200,000	-0,004	-0,094
-425,817	-10,548	0,055	-0,026
-424,803	754,532	0,082	-0,162
-423,788	29,137	0,078	-0,048
-422,773	-118,465	0,144	-0,018
-421,759	-89,815	0,126	0,027
-420,744	-200,000	0,007	0,054
-419,730	800,000	-0,017	0,038
-418,715	-200,000	0,005	0,022
-417,701	-93,372	-0,059	0,012
-416,686	31,877	-0,017	-0,010
-415,671	-200,000	0,019	0,124
-414,657	58,910	-0,027	-0,020
-413,642	800,000	-0,005	-0,013
-412,628	-69,170	0,124	-0,034
-411,613	800,000	0,076	-0,180
-410,598	242,623	0,052	-0,063
-409,584	213,022	-0,013	0,015
-408,569	136,011	0,076	0,071
-407,555	159,593	0,096	-0,098
-406,540	-35,005	-0,119	0,047
-405,525	251,056	-0,050	0,062
-404,511	-13,125	0,028	0,013
-403,496	31,808	-0,124	-0,077
-402,482	269,288	-0,053	0,068
-401,467	-200,000	0,018	0,064
-400,452	172,350	0,056	0,059
-399,438	75,633	0,042	-0,032
-398,423	-200,000	-0,024	0,120
-397,409	800,000	-0,043	-0,111
-396,394	-200,000	0,010	-0,059
-395,379	800,000	-0,017	0,037
-394,365	227,553	0,017	0,020
-393,350	-200,000	0,001	0,008
-392,336	74,101	0,155	-0,118
-391,321	148,604	-0,013	-0,013
-390,306	800,000	-0,048	-0,115
-389,292	-187,536	-0,110	-0,001
-388,277	30,277	0,090	0,056
-387,263	-200,000	-0,010	-0,061
-386,248	62,879	0,149	0,108
-385,233	-200,000	0,059	0,202
-384,219	-200,000	0,024	-0,098
-383,204	157,476	-0,054	0,054
-382,190	-184,948	0,049	0,001
-381,175	341,427	-0,028	0,039
-380,160	-200,000	-0,011	-0,082
-379,146	-109,215	-0,104	0,016
-378,131	247,069	0,029	-0,035
-377,117	-41,012	0,042	-0,016
-376,102	357,484	-0,049	-0,071
-375,088	5,357	0,075	0,040
-374,073	451,703	0,025	0,040
-373,058	-91,512	0,068	-0,014
-372,044	800,000	0,043	0,088
-371,029	800,000	-0,033	0,102
-370,015	-200,000	-0,004	0,076
-369,000	-174,957	-0,063	-0,001
-367,985	707,167	-0,059	-0,113
-366,971	197,615	-0,058	-0,065
-365,956	237,811	0,054	-0,065
-364,942	152,623	-0,140	0,139
-363,927	456,738	-0,014	-0,023
-362,912	255,178	0,024	0,030
-361,898	514,907	-0,051	-0,086
-360,883	800,000	-0,039	-0,100
-359,869	128,755	-0,035	-0,033
-358,854	37,118	-0,085	0,054
-357,839	-117,452	0,139	0,018
-356,825	81,195	0,087	0,068
-355,810	239,913	0,060	0,072
-354,796	398,615	-0,016	-0,024
-353,781	11,634	-0,184	-0,102
-352,766	119,632	-0,029	0,026
-351,752	26,526	-0,061	-0,037
-350,737	449,227	-0,082	0,132
-349,723	-156,820	0,071	-0,003
-348,708	800,000	-0,072	-0,163
-347,693	65,248	0,083	-0,061
-346,679	-200,000	-0,037	-0,121
-345,664	69,620	-0,081	-0,061
-344,650	198,223	0,031	0,034
-343,635	297,964	0,024	0,032
-342,620	78,632	0,081	0,062
-341,606	-121,692	0,103	0,012
-340,591	-200,000	-0,001	-0,033
-339,577	800,000	0,030	-0,068
-338,562	13,126	-0,095	-0,053
-337,548	-200,000	0,021	0,069
-336,533	-200,000	-0,012	0,042
-335,518	-200,000	-0,008	0,098
-334,504	529,817	0,045	0,077
-333,489	139,295	0,065	0,062
-332,475	800,000	-0,052	-0,120
-331,460	547,781	-0,085	-0,148
-330,445	-96,302	0,187	-0,035
-329,431	-30,364	-0,150	0,061
-328,416	60,592	-0,086	0,061
-327,402	-200,000	0,022	0,144
-326,387	36,510	-0,027	-0,017
-325,372	-13,886	-0,041	-0,019
-324,358	-38,448	-0,066	-0,025
-323,343	125,368	-0,081	0,074
-322,329	-200,000	-0,015	0,056
-321,314	-200,000	0,001	-0,012
-320,299	-9,296	0,066	0,032
-319,285	136,104	0,058	0,055
-318,270	800,000	-0,011	0,024
-317,256	75,443	-0,039	-0,029
-316,241	344,059	-0,051	0,073
-315,226	121,782	0,151	0,136
-314,212	112,295	-0,016	0,014
-313,197	201,256	0,042	0,047
-312,183	160,100	0,075	-0,076
-311,168	-172,416	0,043	-0,001
-310,153	-74,255	-0,083	-0,021
-309,139	217,581	-0,085	-0,098
-308,124	-87,226	0,064	-0,014
-307,110	-200,000	-0,022	-0,080
-306,095	67,417	0,088	0,065
-305,080	-67,183	0,022	-0,006
-304,066	-132,116	-0,075	-0,007
-303,051	-200,000	-0,020	-0,136
-302,037	-200,000	0,002	0,030
-301,022	38,393	0,099	-0,064
-300,008	-35,889	-0,020	0,008
-298,993	-200,000	-0,004	0,250
-297,978	800,000	0,055	0,116
-296,964	-95,192	-0,066	-0,013
-295,949	-200,000	-0,007	-0,085
-294,935	-127,059	-0,063	0,007
-293,920	-27,371	-0,035	0,015
-292,905	-60,670	-0,085	-0,026
-291,891	-47,166	-0,057	0,020
-290,876	123,933	0,032	-0,029
-289,862	-74,165	-0,138	0,036
-288,847	-38,599	-0,101	0,039
-287,832	434,921	0,038	-0,061
-286,818	328,035	0,115	0,160
-285,803	504,348	-0,048	0,080
-284,789	22,653	0,048	0,029
-283,774	227,477	-0,090	0,106
-282,759	-28,786	0,074	-0,031
-281,745	-91,968	0,139	0,028
-280,730	800,000	-0,026	0,074
-279,716	-200,000	-0,034	0,137
-278,701	-107,203	0,123	0,019
-277,686	33,363	0,093	0,058
-276,672	-116,234	-0,111	0,015
-275,657	-200,000	0,018	0,070
-274,643	-120,520	-0,070	-0,009
-273,628	-200,000	-0,034	-0,127
-272,613	-118,852	-0,131	-0,016
-271,599	161,262	0,102	0,103
-270,584	-37,502	0,029	0,011
-269,570	-57,240	0,070	0,022
-268,555	-200,000	-0,015	0,054
-267,540	800,000	0,089	-0,197
-266,526	73,250	-0,126	0,095
-265,511	-62,155	-0,091	0,027
-264,497	-19,693	0,055	0,025
-263,482	67,823	-0,132	0,098
-262,467	129,430	0,095	-0,088
-261,453	800,000	-0,055	-0,128
-260,438	-200,000	0,006	-0,089
-259,424	-105,420	-0,077	0,012
-258,409	-200,000	0,005	-0,033
-257,395	-101,235	-0,103	0,018
-256,380	20,768	-0,059	0,035
-255,365	800,000	0,060	0,158
-254,351	-200,000	-0,007	-0,128
-253,336	73,352	-0,103	-0,077
-252,322	100,312	-0,082	-0,069
-251,307	342,934	0,062	-0,088
-250,292	-84,197	0,067	0,015
-249,278	-200,000	-0,004	-0,150
-248,263	-47,106	0,040	-0,014
-247,249	135,674	0,060	0,057
-246,234	-71,078	0,061	-0,016
-245,219	529,989	-0,098	-0,169
-244,205	-134,768	-0,116	-0,010
-243,190	477,765	-0,069	-0,114
-242,176	333,243	0,115	0,161
-241,161	800,000	-0,041	-0,129
-240,146	221,418	0,086	0,100
-239,132	-200,000	-0,012	-0,056
-238,117	-200,000	0,004	0,046
-237,103	800,000	-0,109	-0,259
-236,088	-200,000	0,035	-0,141
-235,073	-138,957	0,125	0,010
-234,059	-68,233	-0,132	0,037
-233,044	-200,000	-0,012	-0,103
-232,030	-49,822	0,078	0,026
-231,015	517,988	-0,043	0,072
-230,000	91,682	-0,051	-0,041
-228,986	161,133	-0,019	0,019
-227,971	19,464	-0,050	-0,029
-226,957	102,349	-0,039	0,033
-225,942	800,000	0,064	0,178
-224,927	39,287	-0,048	0,031
-223,913	207,034	-0,063	-0,071
-222,898	-200,000	-0,031	-0,151
-221,884	-64,746	0,054	0,016
-220,869	-200,000	-0,011	0,088
-219,855	-197,683	0,052	0,000
-218,840	-200,000	-0,061	0,257
-217,825	113,013	0,055	0,048
-216,811	800,000	0,050	-0,122
-215,796	127,596	-0,106	-0,097
-214,782	-200,000	-0,025	-0,109
-213,767	-200,000	-0,004	-0,116
-212,752	6,360	0,106	0,057
-211,738	-95,271	0,080	-0,015
-210,723	-81,044	0,095	-0,022
-209,709	-86,596	-0,128	-0,028
-208,694	337,864	-0,030	0,042
-207,679	-200,000	-0,037	-0,228
-206,665	800,000	-0,024	0,061
-205,650	103,086	0,101	-0,085
-204,636	-200,000	-0,007	0,154
-203,621	-49,593	-0,085	-0,029
-202,606	-200,000	-0,014	0,089
-201,592	48,406	-0,067	0,045
-200,577	224,874	-0,079	0,092
-199,563	800,000	-0,043	0,098
-198,548	601,073	0,062	0,112
-197,533	800,000	-0,012	-0,038
-196,519	-200,000	0,006	-0,068
-195,504	800,000	-0,053	-0,155
-194,490	-200,000	-0,009	-0,037
-193,475	-71,758	-0,078	-0,021
-192,460	800,000	-0,038	0,112
-191,446	-200,000	-0,020	-0,064
-190,431	-74,489	0,068	0,018
-189,417	-42,588	-0,141	0,052
-188,402	-94,319	-0,038	0,007
-187,387	7,961	-0,040	0,021
-186,373	800,000	-0,022	-0,061
-185,358	138,601	-0,067	0,063
-184,344	-168,877	0,079	0,002
-183,329	571,128	-0,045	0,079
-182,315	305,147	0,116	0,155
-181,300	48,609	0,027	-0,018
-180,285	143,286	0,080	0,077
-179,271	-24,840	-0,039	-0,017
-178,256	-200,000	0,023	0,084
-177,242	-92,693	-0,088	0,018
-176,227	504,479	0,039	-0,066
-175,212	-200,000	-0,020	0,111
-174,198	135,460	-0,017	-0,016
-173,183	188,002	-0,030	-0,032
-172,169	128,073	-0,046	-0,043
-171,154	-115,013	-0,034	-0,005
-170,139	211,857	-0,129	0,147
-169,125	800,000	-0,051	0,156
-168,110	800,000	-0,036	0,094
-167,096	533,549	-0,005	0,008
-166,081	222,029	0,036	-0,042
-165,066	236,548	-0,028	-0,034
-164,052	-72,363	0,076	-0,020
-163,037	-69,766	0,034	0,009
-162,023	168,611	0,034	0,035
-161,008	-136,652	0,051	0,004
-159,993	-200,000	0,015	0,099
-158,979	316,667	0,093	-0,127
-157,964	420,925	0,025	-0,039
-156,950	-200,000	0,032	0,138
-155,935	-116,451	0,086	0,011
-154,920	-200,000	-0,023	-0,096
-153,906	-9,965	-0,084	-0,040
-152,891	800,000	-0,033	0,068
-151,877	588,976	0,014	0,024
-150,862	-63,807	-0,084	0,025
-149,847	-200,000	-0,052	0,171
-148,833	77,053	-0,045	0,035
-147,818	-21,492	0,083	-0,036
-146,804	179,593	0,060	0,063
-145,789	-200,000	0,026	0,159
-144,775	41,490	-0,042	0,028
-143,760	-200,000	-0,004	-0,104
-142,745	-200,000	-0,005	-0,026
-141,731	177,247	0,037	0,039
-140,716	10,884	-0,029	-0,016
-139,702	-91,851	0,049	-0,010
-138,687	-141,976	0,145	0,010
-137,672	-89,092	-0,122	0,026
-136,658	-116,551	0,075	0,010
-135,643	115,391	0,020	0,018
-134,629	45,233	0,115	-0,076
-133,614	-139,077	-0,029	-0,002
-132,599	800,000	0,055	0,134
-131,585	-86,772	0,098	0,021
-130,570	-44,413	0,133	0,047
-129,556	-200,000	-0,011	0,069
-128,541	-200,000	0,019	-0,147
-127,526	-200,000	0,011	-0,101
-126,512	152,429	0,124	-0,122
-125,497	-67,083	0,014	-0,004
-124,483	225,827	0,069	0,080
-123,468	87,911	-0,054	0,043
-122,453	800,000	-0,029	0,059
-121,439	516,307	-0,019	0,033
-120,424	81,960	-0,076	-0,059
-119,410	-82,018	-0,043	-0,010
-118,395	625,046	0,025	-0,046
-117,380	-200,000	0,016	0,055
-116,366	265,849	-0,035	-0,044
-115,351	-159,672	-0,104	0,004
-114,337	-60,607	-0,034	-0,010
-113,322	-142,353	0,191	0,013
-112,307	638,067	-0,045	0,082
-111,293	-200,000	-0,008	0,070
-110,278	-200,000	-0,017	0,167
-109,264	-200,000	0,025	0,122
-108,249	172,025	-0,087	-0,090
-107,234	312,487	-0,055	-0,074
-106,220	-75,701	0,108	-0,027
-105,205	-21,691	-0,059	-0,026
-104,191	-179,126	0,082	-0,001
-103,176	116,784	-0,086	0,075
-102,162	-200,000	0,007	0,079
-101,147	-200,000	-0,018	-0,091
-100,132	-200,000	-0,051	-0,221
-99,118	-200,000	-0,021	0,076
-98,103	800,000	0,050	0,108
-97,089	-71,101	-0,171	-0,046
-96,074	-68,397	0,106	0,029
-95,059	800,000	0,030	0,066
-94,045	-45,160	0,072	-0,025
-93,030	170,780	-0,063	-0,064
-92,016	-96,437	0,048	0,009
-91,001	800,000	0,051	-0,105
-89,986	-63,662	-0,023	0,007
-88,972	-34,867	-0,027	0,011
-87,957	103,027	0,039	0,033
-86,943	354,460	0,106	-0,152
-85,928	-26,204	-0,123	0,052
-84,913	-200,000	0,021	0,068
-83,899	800,000	-0,032	-0,084
-82,884	177,116	-0,083	0,087
-81,870	800,000	0,028	0,070
-80,855	212,643	0,040	-0,046
-79,840	487,406	0,044	-0,072
-78,826	-40,031	0,033	-0,012
-77,811	-11,528	-0,124	-0,058
-76,797	279,216	0,040	0,052
-75,782	800,000	-0,050	-0,100
-74,767	-39,333	0,022	0,008
-73,753	165,464	0,104	-0,106
-72,738	-31,567	-0,136	0,054
-71,724	-37,554	0,106	-0,040
-70,709	422,805	-0,064	0,099
-69,694	-200,000	-0,015	-0,059
-68,680	-200,000	0,014	-0,060
-67,665	47,207	0,096	0,064
-66,651	-33,708	-0,081	0,032
-65,636	162,895	-0,082	0,083
-64,622	-200,000	-0,014	0,103
-63,607	400,294	0,043	-0,064
-62,592	371,842	-0,108	0,157
-61,578	-200,000	-0,008	0,061
-60,563	-200,000	0,003	0,121
-59,549	800,000	0,080	0,166
-58,534	35,616	-2,093	-1,315
-57,519	-200,000	-0,178	-0,997
-56,505	-200,000	-1,297	-4,972
-55,490	103,883	0,882	0,742
-54,476	800,000	5,325	12,118
-53,461	-200,000	18,138	294,696
-52,446	800,000	730,559	2230,710
-51,432	527,703	1643,764	2786,947
-50,417	107,323	1632,667	1390,173
-49,403	71,459	1284,163	953,838
-48,388	30,321	1024,806	625,456
-47,373	19,817	986,934	567,825
-46,359	17,812	974,379	554,033
-45,344	14,667	970,449	541,529
-44,330	14,885	968,938	541,373
-43,315	14,401	966,961	538,675
-42,300	14,315	966,028	537,855
-41,286	14,339	965,038	537,359
-40,271	14,325	964,207	536,830
-39,257	14,358	963,292	536,407
-38,242	14,379	962,549	536,041
-37,227	14,299	961,799	535,343
-36,213	14,306	960,753	534,761
-35,198	14,299	959,884	534,235
-34,184	14,372	959,212	534,074
-33,169	14,318	958,191	533,309
-32,154	14,315	957,353	532,812
-31,140	14,349	956,298	532,315
-30,125	14,369	955,739	532,045
-29,111	14,322	954,770	531,336
-28,096	14,339	954,168	531,033
-27,082	14,403	953,234	530,696
-26,067	14,392	952,719	530,356
-25,052	14,345	951,770	529,655
-24,038	14,409	950,939	529,376
-23,023	14,312	950,605	528,860
-22,009	14,325	950,137	528,621
-20,994	14,318	949,583	528,268
-19,979	14,365	948,668	527,886
-18,965	14,370	948,098	527,564
-17,950	14,393	947,545	527,309
-16,936	14,279	946,884	526,559
-15,921	14,336	946,121	526,293
-14,906	14,242	945,331	525,535
-13,892	14,251	944,724	525,205
-12,877	14,208	944,129	524,718
-11,863	14,245	943,475	524,451
-10,848	14,194	943,186	524,108
-9,833	14,293	942,679	524,119
-8,819	14,330	941,870	523,763
-7,804	14,249	941,252	523,145
-6,790	14,225	940,653	522,716
-5,775	14,259	940,131	522,510
-4,760	14,256	939,565	522,168
-3,746	14,284	938,760	521,786
-2,731	14,074	938,247	520,819
-1,717	14,115	937,476	520,500
-0,702	14,037	936,824	519,870
0,313	13,853	936,532	519,916
1,327	17,351	934,164	529,530
2,342	26,540	786,207	469,730
3,356	22,871	441,552	258,397
4,371	-6,793	293,864	142,512
5,386	-10,645	275,857	130,139
6,400	-11,981	270,002	126,132
7,415	-12,335	267,786	124,762
8,429	-12,247	266,303	124,139
9,444	-12,058	265,319	123,841
10,459	-12,248	264,593	123,319
11,473	-12,450	264,199	122,942
12,488	-12,526	263,556	122,564
13,502	-12,607	262,972	122,208
14,517	-12,745	262,734	121,963
15,531	-12,359	261,977	121,947
16,546	-12,432	261,944	121,855
17,561	-12,564	261,450	121,496
18,575	-12,499	261,112	121,387
19,590	-12,566	260,734	121,140
20,604	-12,439	260,462	121,116
21,619	-12,610	260,214	120,838
22,634	-12,568	259,795	120,669
23,648	-12,503	259,558	120,607
24,663	-12,398	259,214	120,529
25,677	-12,377	258,912	120,396
26,692	-12,588	258,781	120,138
27,707	-12,499	258,481	120,067
28,721	-12,492	258,121	119,895
29,736	-12,486	257,837	119,758
30,750	-12,485	257,610	119,642
31,765	-12,476	257,394	119,540
32,780	-12,460	257,151	119,430
33,794	-12,431	256,942	119,347
34,809	-12,477	256,540	119,110
35,823	-12,769	256,397	118,778
36,838	-12,557	256,180	118,852
37,853	-12,672	255,926	118,623
38,867	-12,490	255,595	118,617
39,882	-12,489	255,366	118,501
40,896	-12,645	255,309	118,329
41,911	-12,559	254,997	118,248
42,926	-12,759	254,897	118,017
43,940	-12,736	254,530	117,857
44,955	-12,613	254,337	117,864
45,969	-12,916	254,182	117,519
46,984	-13,010	253,974	117,331
47,999	-13,021	253,630	117,152
49,013	-12,987	253,360	117,046
50,028	-13,405	253,142	116,575
51,042	-13,141	252,681	116,579
52,057	-13,334	252,561	116,348
53,071	-13,247	252,429	116,351
54,086	-13,267	252,190	116,214
55,101	-13,047	251,962	116,286
56,115	-12,936	251,841	116,316
57,130	-12,525	251,738	116,610
58,144	-12,326	251,505	116,662
59,159	-12,300	251,266	116,563
60,174	-12,599	251,134	116,236
61,188	-12,427	250,939	116,282
62,203	-12,490	250,644	116,081
63,217	-12,344	250,459	116,110
64,232	-12,625	250,378	115,823
65,247	-12,601	250,118	115,712
66,261	-12,614	249,892	115,586
67,276	-12,671	249,386	115,294
68,290	-12,734	249,322	115,200
69,305	-12,923	249,095	114,925
70,320	-12,831	248,747	114,832
71,334	-12,718	248,815	114,949
72,349	-12,412	248,649	115,120
73,363	-12,319	248,356	115,054
74,378	-12,568	248,213	114,767
75,393	-12,620	248,009	114,618
76,407	-12,719	247,768	114,413
77,422	-12,494	247,696	114,559
78,436	-12,554	247,411	114,367
79,451	-12,613	247,063	114,146
80,466	-12,667	246,982	114,054
81,480	-12,471	246,546	114,006
82,495	-12,591	246,442	113,847
83,509	-12,715	246,520	113,769
84,524	-12,708	246,151	113,595
85,539	-12,795	245,852	113,374
86,553	-12,868	245,619	113,195
87,568	-12,665	245,500	113,300
88,582	-12,886	245,370	113,046
89,597	-12,614	245,037	113,109
90,611	-12,765	245,069	112,987
91,626	-12,659	244,925	112,999
92,641	-12,737	244,696	112,819
93,655	-12,653	244,364	112,725
94,670	-12,524	244,015	112,661
95,684	-12,554	243,972	112,607
96,699	-12,547	243,922	112,579
97,714	-12,562	243,634	112,423
98,728	-12,738	243,355	112,139
99,743	-12,699	243,128	112,057
100,757	-12,827	243,022	111,893
101,772	-12,938	242,853	111,714
102,787	-12,660	242,625	111,827
103,801	-12,592	242,336	111,740
104,816	-12,569	242,224	111,697
105,830	-12,585	242,217	111,671
106,845	-12,474	241,993	111,648
107,860	-12,418	241,769	111,581
108,874	-12,433	241,500	111,435
109,889	-12,615	241,423	111,240
110,903	-12,853	241,207	110,937
111,918	-12,781	241,078	110,926
112,933	-12,631	240,763	110,894
113,947	-12,417	240,736	111,046
114,962	-12,445	240,483	110,897
115,976	-12,545	240,258	110,702
116,991	-12,527	240,201	110,680
118,006	-12,653	240,023	110,485
119,020	-12,572	239,852	110,463
120,035	-12,443	239,798	110,533
121,049	-12,575	239,555	110,304
122,064	-12,533	239,372	110,244
123,079	-12,598	239,167	110,087
124,093	-12,457	239,075	110,149
125,108	-12,834	238,699	109,662
126,122	-12,742	238,439	109,606
127,137	-12,958	238,143	109,286
128,151	-12,970	238,070	109,233
129,166	-12,945	237,913	109,172
130,181	-12,735	237,697	109,232
131,195	-12,716	237,435	109,117
132,210	-12,665	237,348	109,108
133,224	-12,648	237,277	109,080
134,239	-12,429	237,097	109,163
135,254	-12,499	237,031	109,066
136,268	-12,645	236,704	108,789
137,283	-12,967	236,383	108,375
138,297	-12,987	236,135	108,236
139,312	-12,942	235,973	108,188
140,327	-12,842	235,956	108,250
141,341	-12,158	235,846	108,735
142,356	-12,447	235,698	108,427
143,370	-12,302	235,541	108,460
144,385	-12,368	235,357	108,314
145,400	-12,351	235,175	108,234
146,414	-12,273	235,023	108,216
147,429	-12,549	234,933	107,946
148,443	-12,451	234,609	107,865
149,458	-12,578	234,578	107,741
150,473	-12,475	234,310	107,689
151,487	-12,642	234,237	107,514
152,502	-12,279	233,948	107,658
153,516	-12,339	233,883	107,571
154,531	-12,411	233,583	107,367
155,546	-12,515	233,509	107,242
156,560	-12,536	233,413	107,171
157,575	-12,518	233,127	107,045
158,589	-12,282	232,918	107,125
159,604	-12,438	232,764	106,922
160,619	-12,296	232,661	106,976
161,633	-12,125	232,564	107,057
162,648	-12,297	232,305	106,793
163,662	-12,429	232,211	106,636
164,677	-12,648	232,040	106,377
165,692	-12,416	231,795	106,437
166,706	-12,275	231,713	106,500
167,721	-12,330	231,754	106,466
168,735	-12,180	231,632	106,518
169,750	-12,347	231,250	106,202
170,764	-12,386	231,197	106,138
171,779	-12,431	231,029	106,017
172,794	-12,038	230,718	106,171
173,808	-12,399	230,556	105,805
174,823	-12,715	230,252	105,412
175,837	-12,976	230,185	105,169
176,852	-12,547	230,181	105,490
177,867	-12,198	229,955	105,648
178,881	-12,472	229,829	105,368
179,896	-12,370	229,724	105,390
180,910	-12,259	229,536	105,380
181,925	-12,160	229,385	105,378
182,940	-12,400	229,323	105,154
183,954	-12,242	229,168	105,196
184,969	-12,117	228,932	105,175
185,983	-12,117	228,857	105,131
186,998	-12,116	228,795	105,094
188,013	-12,273	228,483	104,821
189,027	-12,307	228,408	104,750
190,042	-12,185	228,135	104,709
191,056	-12,185	228,054	104,663
192,071	-12,222	227,982	104,592
193,086	-12,118	227,750	104,556
194,100	-12,005	227,639	104,582
195,115	-12,352	227,268	104,138
196,129	-12,511	227,391	104,063
197,144	-7,376	228,832	108,660
198,159	-2,140	230,447	113,461
199,173	1,541	231,326	116,729
200,188	1,939	231,527	117,128
201,202	2,070	231,124	117,015
202,217	1,791	231,067	116,761
203,232	2,212	230,904	116,992
204,246	2,152	230,746	116,856
205,261	2,404	230,663	116,996
206,275	2,369	230,629	116,942
207,290	2,447	230,540	116,947
208,304	2,325	230,303	116,722
209,319	2,447	230,091	116,698
210,334	2,241	229,827	116,396
211,348	2,056	229,735	116,197
212,363	1,775	229,417	115,811
213,377	1,610	229,205	115,567
214,392	1,673	229,145	115,575
215,407	1,948	229,007	115,706
216,421	1,874	228,901	115,585
217,436	1,793	228,680	115,401
218,450	1,469	228,351	114,978
219,465	1,555	228,386	115,051
220,480	1,709	228,138	115,033
221,494	1,723	228,012	114,970
222,509	1,942	227,929	115,084
223,523	2,148	227,653	115,090
224,538	1,862	227,616	114,845
225,553	1,747	227,460	114,669
226,567	1,653	227,383	114,549
227,582	2,010	227,312	114,772
228,596	2,199	227,171	114,835
229,611	2,007	226,878	114,531
230,626	1,621	226,616	114,098
231,640	1,757	226,534	114,148
232,655	1,654	226,594	114,091
233,669	2,110	226,511	114,382
234,684	2,175	226,366	114,348
235,699	2,116	226,126	114,173
236,713	1,747	225,787	113,714
237,728	1,792	225,651	113,669
238,742	1,795	225,569	113,620
239,757	1,831	225,420	113,562
240,772	1,826	225,161	113,418
241,786	1,670	225,124	113,272
242,801	2,128	224,909	113,496
243,815	2,435	225,024	113,773
244,830	2,363	224,773	113,582
245,844	2,020	224,450	113,154
246,859	1,929	224,319	113,009
247,874	2,010	224,323	113,062
248,888	1,953	224,111	112,902
249,903	1,931	224,146	112,894
250,917	1,924	223,822	112,715
251,932	1,829	223,498	112,471
252,947	1,570	223,554	112,297
253,961	1,393	223,290	112,023
254,976	1,667	223,050	112,096
255,990	1,815	223,299	112,321
257,005	2,124	223,019	112,399
258,020	1,826	222,818	112,067
259,034	1,809	222,743	112,006
260,049	1,901	222,676	112,031
261,063	1,869	222,523	111,920
262,078	2,220	222,298	112,057
263,093	2,252	222,282	112,062
264,107	2,126	222,091	111,862
265,122	2,149	221,974	111,811
266,136	2,300	221,988	111,919
267,151	2,093	221,681	111,602
268,166	1,894	221,427	111,318
269,180	1,577	221,128	110,925
270,195	1,732	221,163	111,046
271,209	1,720	220,859	110,875
272,224	1,709	220,836	110,845
273,239	1,877	220,878	110,980
274,253	1,716	220,607	110,716
275,268	1,477	220,234	110,344
276,282	1,504	220,252	110,363
277,297	1,376	219,989	110,128
278,312	1,776	220,001	110,416
279,326	1,938	219,744	110,396
280,341	1,772	219,783	110,284
281,355	1,894	219,531	110,237
282,370	1,915	219,385	110,169
283,384	1,626	219,190	109,851
284,399	1,621	218,934	109,709
285,414	1,525	218,908	109,617
286,428	1,761	218,896	109,772
287,443	2,275	218,791	110,082
288,457	2,126	218,584	109,861
289,472	1,694	218,398	109,445
290,487	1,410	218,125	109,093
291,501	1,352	217,969	108,964
292,516	1,441	217,889	108,978
293,530	1,368	217,842	108,892
294,545	1,296	217,703	108,761
295,560	1,712	217,576	108,987
296,574	1,796	217,452	108,976
297,589	1,732	217,328	108,858
298,603	1,859	217,226	108,889
299,618	1,770	217,071	108,737
300,633	1,904	216,871	108,723
301,647	2,254	216,726	108,892
302,662	2,083	216,663	108,728
303,676	1,869	216,442	108,455
304,691	2,159	216,297	108,579
305,706	2,168	216,294	108,575
306,720	2,266	215,997	108,486
307,735	1,891	215,771	108,096
308,749	1,664	215,742	107,909
309,764	1,943	215,701	108,078
310,779	2,117	215,489	108,086
311,793	1,960	215,364	107,902
312,808	1,830	215,204	107,720
313,822	1,724	215,143	107,604
314,837	1,897	214,832	107,562
315,852	1,686	214,790	107,382
316,866	1,891	214,636	107,441
317,881	2,159	214,587	107,596
318,895	2,126	214,465	107,502
319,910	1,944	214,177	107,219
320,925	1,500	213,913	106,764
321,939	1,333	213,760	106,560
322,954	1,345	213,720	106,539
323,968	1,941	213,790	106,985
324,983	2,176	213,567	107,030
325,997	2,108	213,533	106,956
327,012	2,038	213,410	106,835
328,027	1,605	213,267	106,449
329,041	2,256	213,164	106,846
330,056	2,070	212,933	106,590
331,070	2,107	212,745	106,513
332,085	1,739	212,608	106,176
333,100	1,882	212,470	106,198
334,114	2,025	212,335	106,221
335,129	2,290	212,134	106,297
336,143	1,931	211,987	105,962
337,158	1,791	211,925	105,824
338,173	1,851	211,787	105,788
339,187	1,801	211,666	105,683
340,202	1,307	211,520	105,257
341,216	1,482	211,378	105,299
342,231	1,641	211,042	105,232
343,246	1,436	211,024	105,071
344,260	1,861	211,106	105,398
345,275	2,322	211,114	105,714
346,289	2,432	210,974	105,711
347,304	2,312	210,654	105,458
348,319	2,024	210,499	105,170
349,333	1,925	210,334	105,010
350,348	1,874	210,232	104,915
351,362	2,147	210,057	105,007
352,377	2,262	209,942	105,020
353,392	2,159	209,799	104,867
354,406	1,970	209,724	104,690
355,421	196,938	1316,265	1394,396
356,435	157,430	1451,050	1394,344
