DTS Sentinel unit serial number:	SN410029Multiplexer serial number:	ORYXHardware model number:	OX2-SRSoftware version number:	ORYX F/W v4,00 Oryx Data Collector v3.7.2.0data status	okinstallation	B6 Nyhavnadifferential loss correction	single-endedforward channel	channel 2reverse channel	N/Adate	2023/12/09time	22:30:08forward acquisition time	300,00reverse acquisition time	0,00gamma	499,1914k internal	0,3127k external	0,3127temperature offset calibration	1,0000default loss term (dB/km)	0,3820temperature slope calibration	1,0000multiplexer offset coefficient	1,0000multiplexer slope coefficient	1,0000fibre end	0,00T internal ref (°C)	21,68T ext. ref 1 (°C)	5,43T ext. ref 2 (°C)	5,42length (m)	temperature (°C)	Stokes	anti-Stokes-744,400	-100,589	0,091	-0,017
-743,385	44,064	-0,236	0,160
-742,371	17,203	0,203	-0,119
-741,356	48,649	-0,181	0,126
-740,342	-51,383	0,162	0,056
-739,327	-72,907	-0,185	-0,050
-738,312	210,169	0,047	0,055
-737,298	-122,142	-0,211	0,025
-736,283	800,000	-0,026	-0,086
-735,269	-8,213	-0,215	0,107
-734,254	673,657	0,053	-0,102
-733,239	-14,937	-0,321	-0,153
-732,225	91,698	0,154	-0,129
-731,210	31,603	-0,116	0,074
-730,196	387,090	0,033	-0,050
-729,181	337,311	-0,054	-0,079
-728,167	-200,000	-0,011	-0,061
-727,152	-53,580	-0,036	0,012
-726,137	11,331	-0,128	0,073
-725,123	-200,000	0,004	-0,079
-724,108	-200,000	-0,021	-0,133
-723,094	-200,000	0,018	-0,097
-722,079	-145,034	-0,110	0,007
-721,064	299,677	-0,055	0,076
-720,050	-105,233	0,026	0,004
-719,035	-23,981	0,052	0,023
-718,021	82,058	-0,045	0,036
-717,006	-200,000	-0,010	-0,092
-715,991	-200,000	0,027	-0,112
-714,977	-62,375	-0,070	0,021
-713,962	29,232	-0,079	-0,050
-712,948	-44,185	0,105	0,039
-711,933	800,000	0,032	-0,094
-710,918	-104,724	-0,134	-0,023
-709,904	45,342	-0,062	-0,042
-708,889	319,374	0,061	-0,086
-707,875	-200,000	-0,020	-0,094
-706,860	-200,000	-0,005	0,018
-705,845	147,872	0,071	0,071
-704,831	-51,749	0,048	0,017
-703,816	-126,254	-0,130	0,014
-702,802	-200,000	0,005	-0,035
-701,787	800,000	-0,039	-0,117
-700,772	752,155	-0,017	0,034
-699,758	-200,000	-0,013	0,076
-698,743	641,314	0,002	-0,003
-697,729	201,796	0,054	0,061
-696,714	-200,000	0,009	0,046
-695,699	129,982	-0,047	0,045
-694,685	800,000	0,042	-0,131
-693,670	800,000	0,032	-0,068
-692,656	-200,000	0,003	0,044
-691,641	310,803	-0,043	0,060
-690,627	-200,000	-0,023	0,088
-689,612	24,242	-0,087	-0,053
-688,597	-109,726	-0,057	-0,009
-687,583	-200,000	-0,001	-0,182
-686,568	-68,724	-0,163	-0,047
-685,554	199,654	0,011	0,012
-684,539	513,964	-0,069	0,121
-683,524	15,310	0,164	0,095
-682,510	800,000	-0,028	0,065
-681,495	800,000	-0,069	0,150
-680,481	-200,000	-0,004	-0,071
-679,466	56,683	-0,044	-0,032
-678,451	-200,000	-0,015	0,129
-677,437	-29,919	0,069	-0,029
-676,422	-158,644	0,141	-0,006
-675,408	256,224	0,015	-0,019
-674,393	-48,347	-0,169	0,060
-673,378	2,668	-0,176	-0,094
-672,364	800,000	-0,024	0,060
-671,349	-35,336	-0,032	-0,013
-670,335	-200,000	-0,014	0,071
-669,320	18,654	-0,067	0,040
-668,305	106,364	-0,025	-0,022
-667,291	107,249	0,120	0,106
-666,276	-200,000	-0,019	0,082
-665,262	353,943	-0,013	-0,019
-664,247	296,531	-0,036	0,049
-663,232	800,000	0,056	0,126
-662,218	115,029	-0,040	-0,036
-661,203	-13,896	0,086	0,041
-660,189	-200,000	-0,002	-0,060
-659,174	-200,000	-0,029	-0,182
-658,159	-197,336	-0,037	-0,000
-657,145	78,898	-0,075	0,060
-656,130	-95,173	-0,140	0,028
-655,116	38,920	0,125	0,083
-654,101	694,506	0,053	0,104
-653,086	-159,610	-0,070	-0,003
-652,072	-58,018	-0,055	-0,018
-651,057	-200,000	-0,036	-0,225
-650,043	88,879	0,009	0,008
-649,028	-142,344	0,128	-0,009
-648,014	104,744	-0,075	-0,066
-646,999	18,269	0,146	-0,086
-645,984	-73,069	-0,108	-0,029
-644,970	-19,729	-0,093	0,043
-643,955	-200,000	0,038	-0,223
-642,941	800,000	-0,087	-0,190
-641,926	513,728	-0,025	-0,043
-640,911	800,000	-0,048	0,106
-639,897	474,588	0,038	0,063
-638,882	800,000	0,034	-0,080
-637,868	800,000	-0,012	0,036
-636,853	136,163	-0,072	-0,069
-635,838	-169,175	-0,078	0,002
-634,824	-160,908	0,054	-0,002
-633,809	59,403	0,069	-0,051
-632,795	750,142	-0,021	-0,043
-631,780	605,799	-0,022	-0,040
-630,765	-200,000	-0,026	-0,131
-629,751	-57,284	-0,058	0,019
-628,736	800,000	0,013	-0,031
-627,722	265,242	0,065	0,085
-626,707	-200,000	-0,006	-0,068
-625,692	174,135	-0,051	0,055
-624,678	37,867	0,108	-0,071
-623,663	-103,406	-0,055	-0,010
-622,649	32,713	-0,120	-0,077
-621,634	-25,558	-0,032	0,014
-620,619	-200,000	-0,052	-0,228
-619,605	-141,387	-0,147	-0,011
-618,590	-200,000	0,008	-0,058
-617,576	800,000	0,010	0,022
-616,561	800,000	0,057	-0,142
-615,546	-41,229	-0,075	-0,028
-614,532	-200,000	0,020	-0,090
-613,517	-94,970	-0,206	-0,041
-612,503	263,371	-0,030	-0,038
-611,488	169,687	-0,038	-0,041
-610,474	308,157	0,035	-0,048
-609,459	-200,000	-0,019	-0,113
-608,444	-187,502	-0,065	0,001
-607,430	-108,075	-0,019	-0,003
-606,415	56,843	0,066	-0,048
-605,401	-6,784	0,123	0,062
-604,386	18,452	-0,074	0,044
-603,371	800,000	-0,023	0,066
-602,357	92,042	0,055	-0,046
-601,342	22,702	-0,069	-0,042
-600,328	167,479	-0,069	-0,073
-599,313	-200,000	0,029	-0,100
-598,298	27,847	0,121	-0,076
-597,284	-25,583	0,134	0,058
-596,269	48,194	0,080	0,055
-595,255	169,626	0,094	0,099
-594,240	144,681	0,032	0,031
-593,225	59,201	0,102	0,074
-592,211	7,301	0,128	0,070
-591,196	60,938	-0,118	0,086
-590,182	-200,000	0,024	0,133
-589,167	-200,000	-0,058	0,196
-588,152	741,153	0,038	0,076
-587,138	-47,013	-0,043	0,015
-586,123	13,753	-0,171	0,098
-585,109	800,000	-0,035	-0,080
-584,094	-88,604	-0,069	-0,015
-583,079	-50,712	0,049	0,017
-582,065	49,558	0,005	-0,003
-581,050	317,886	-0,060	0,084
-580,036	151,691	-0,119	0,120
-579,021	-122,938	0,148	-0,017
-578,006	4,150	0,097	-0,052
-576,992	434,423	-0,063	-0,101
-575,977	800,000	-0,031	0,079
-574,963	198,177	0,064	-0,072
-573,948	254,807	0,058	0,073
-572,934	-200,000	0,013	-0,049
-571,919	-60,947	-0,226	-0,070
-570,904	479,967	-0,039	-0,066
-569,890	-200,000	-0,002	-0,156
-568,875	-200,000	0,018	-0,081
-567,861	-146,432	0,170	0,011
-566,846	-198,018	0,014	0,000
-565,831	119,076	0,068	0,062
-564,817	76,660	-0,059	-0,046
-563,802	-15,427	-0,072	0,034
-562,788	-200,000	0,008	-0,039
-561,773	144,204	0,042	0,041
-560,758	221,147	0,108	0,128
-559,744	51,496	0,208	0,146
-558,729	800,000	0,021	-0,069
-557,715	7,225	-0,021	0,012
-556,700	374,403	-0,039	-0,058
-555,685	85,071	0,032	-0,026
-554,671	333,049	-0,063	-0,090
-553,656	-200,000	0,011	0,069
-552,642	-200,000	0,001	-0,073
-551,627	325,041	-0,033	-0,047
-550,612	800,000	0,046	-0,104
-549,598	-200,000	-0,018	-0,119
-548,583	-200,000	0,009	0,067
-547,569	-117,542	0,069	0,009
-546,554	268,622	0,063	0,081
-545,539	272,991	0,118	0,155
-544,525	-129,617	0,077	-0,008
-543,510	133,353	-0,064	0,061
-542,496	154,816	-0,082	-0,084
-541,481	69,541	-0,096	-0,073
-540,466	411,202	0,047	0,074
-539,452	-200,000	0,001	-0,030
-538,437	-200,000	0,018	0,169
-537,423	444,431	-0,053	0,086
-536,408	411,148	0,044	-0,070
-535,393	-134,807	-0,024	0,002
-534,379	-200,000	-0,026	0,095
-533,364	-37,088	0,072	-0,028
-532,350	-200,000	0,004	0,091
-531,335	-162,840	-0,092	-0,003
-530,321	-8,649	0,068	0,033
-529,306	182,030	0,043	0,046
-528,291	-200,000	0,014	-0,115
-527,277	-200,000	0,030	-0,194
-526,262	226,811	0,102	0,122
-525,248	481,515	0,044	0,075
-524,233	-200,000	-0,020	0,104
-523,218	-37,413	0,049	-0,019
-522,204	122,462	-0,040	-0,037
-521,189	-200,000	-0,011	0,082
-520,175	-200,000	-0,004	-0,134
-519,160	800,000	0,059	-0,123
-518,145	257,784	0,019	-0,025
-517,131	-200,000	-0,004	0,040
-516,116	-200,000	-0,001	-0,122
-515,102	800,000	-0,046	-0,114
-514,087	-13,103	-0,049	-0,024
-513,072	-200,000	0,008	0,064
-512,058	800,000	-0,021	0,068
-511,043	616,591	-0,043	0,080
-510,029	800,000	0,042	0,116
-509,014	-72,185	-0,054	0,015
-507,999	15,440	0,157	0,091
-506,985	-200,000	0,005	-0,037
-505,970	515,024	-0,016	-0,028
-504,956	115,967	-0,102	-0,092
-503,941	-118,367	0,100	0,013
-502,926	258,960	0,044	0,056
-501,912	800,000	0,035	0,076
-500,897	-200,000	-0,001	0,075
-499,883	800,000	0,031	-0,070
-498,868	800,000	-0,040	0,100
-497,853	-70,544	-0,098	0,027
-496,839	-200,000	-0,017	-0,067
-495,824	-70,189	0,073	-0,020
-494,810	493,238	0,080	0,136
-493,795	800,000	0,025	-0,076
-492,781	232,493	-0,039	-0,047
-491,766	20,332	-0,106	0,063
-490,751	-200,000	0,005	0,045
-489,737	103,607	0,085	-0,073
-488,722	-200,000	-0,022	-0,117
-487,708	-200,000	-0,002	0,111
-486,693	152,574	-0,038	0,039
-485,678	465,049	0,010	-0,017
-484,664	361,226	0,021	-0,031
-483,649	-90,130	-0,106	0,023
-482,635	-200,000	-0,002	-0,061
-481,620	-138,304	0,056	-0,004
-480,605	-200,000	0,005	0,047
-479,591	-200,000	-0,008	-0,084
-478,576	313,517	0,002	0,003
-477,562	433,617	-0,070	-0,113
-476,547	19,988	0,089	-0,053
-475,532	-200,000	-0,009	0,048
-474,518	800,000	0,020	0,040
-473,503	126,997	0,117	0,109
-472,489	-15,430	0,112	-0,052
-471,474	-104,387	-0,113	-0,019
-470,459	-177,894	0,199	0,003
-469,445	-47,172	-0,108	-0,038
-468,430	84,524	-0,045	0,036
-467,416	-200,000	-0,018	0,101
-466,401	403,900	-0,080	0,124
-465,386	13,862	0,081	0,046
-464,372	800,000	-0,018	-0,055
-463,357	252,814	-0,030	0,038
-462,343	43,207	0,055	0,037
-461,328	33,925	-0,032	-0,021
-460,313	-200,000	-0,004	0,073
-459,299	146,232	0,107	0,106
-458,284	69,727	0,059	0,045
-457,270	370,764	0,018	0,027
-456,255	-134,520	0,026	-0,002
-455,241	-54,296	-0,126	0,042
-454,226	616,823	0,041	-0,075
-453,211	30,247	-0,035	-0,022
-452,197	-35,914	0,104	-0,041
-451,182	298,195	-0,083	0,113
-450,168	68,040	-0,065	0,049
-449,153	-148,788	-0,043	-0,003
-448,138	-200,000	0,010	-0,165
-447,124	-200,000	0,012	-0,126
-446,109	-200,000	-0,030	0,127
-445,095	245,352	0,047	0,058
-444,080	275,062	0,069	0,090
-443,065	-21,324	0,129	0,058
-442,051	-89,930	-0,101	0,021
-441,036	121,665	-0,047	-0,043
-440,022	-131,655	0,039	0,004
-439,007	168,602	-0,110	0,115
-437,992	-200,000	-0,023	0,081
-436,978	-113,983	0,058	0,008
-435,963	-154,000	0,172	-0,008
-434,949	-69,285	-0,067	-0,019
-433,934	-164,516	-0,075	0,002
-432,919	-200,000	0,018	-0,224
-431,905	64,920	0,064	0,047
-430,890	-200,000	-0,005	-0,017
-429,876	-200,000	0,002	0,032
-428,861	-58,218	0,151	0,048
-427,846	97,784	-0,113	0,095
-426,832	-200,000	-0,017	0,166
-425,817	-74,549	-0,061	0,016
-424,803	-200,000	0,001	-0,069
-423,788	-200,000	0,044	0,172
-422,773	-136,635	0,031	0,003
-421,759	546,976	0,039	0,068
-420,744	494,919	0,032	0,055
-419,730	-111,902	-0,095	0,014
-418,715	338,235	0,079	-0,113
-417,701	-42,910	0,106	0,039
-416,686	-200,000	0,028	0,097
-415,671	84,637	-0,044	-0,035
-414,657	-27,232	0,099	0,042
-413,642	413,725	-0,025	0,039
-412,628	-200,000	-0,002	-0,020
-411,613	-200,000	-0,002	0,010
-410,598	31,120	-0,109	0,068
-409,584	-37,805	0,183	0,071
-408,569	203,222	-0,025	-0,029
-407,555	-72,837	-0,075	0,020
-406,540	207,463	0,052	-0,059
-405,525	800,000	-0,018	0,044
-404,511	800,000	-0,016	-0,035
-403,496	-200,000	-0,034	0,173
-402,482	307,788	-0,108	0,148
-401,467	37,918	0,027	-0,018
-400,452	-86,055	0,126	0,028
-399,438	151,315	0,064	-0,064
-398,423	-200,000	0,003	-0,157
-397,409	-200,000	0,006	-0,106
-396,394	-7,896	0,033	0,016
-395,379	716,894	-0,094	-0,185
-394,365	800,000	-0,012	0,032
-393,350	-200,000	-0,032	0,105
-392,336	173,453	0,044	0,047
-391,321	468,636	-0,018	-0,029
-390,306	-89,579	-0,226	-0,048
-389,292	800,000	0,060	0,134
-388,277	-77,186	0,068	-0,017
-387,263	-54,825	0,125	0,041
-386,248	-200,000	0,016	0,072
-385,233	-104,397	0,110	0,019
-384,219	56,206	0,041	0,029
-383,204	-184,326	-0,145	0,002
-382,190	30,608	-0,071	-0,045
-381,175	-6,343	-0,087	0,043
-380,160	-52,248	0,056	0,019
-379,146	-79,612	0,032	-0,008
-378,131	-200,000	-0,007	0,118
-377,117	221,070	0,069	0,081
-376,102	114,393	-0,012	-0,011
-375,088	313,485	0,059	-0,082
-374,073	800,000	-0,035	-0,078
-373,058	78,172	0,063	-0,050
-372,044	122,508	0,019	0,017
-371,029	-51,725	0,037	-0,012
-370,015	327,193	-0,088	-0,124
-369,000	-0,009	0,033	0,017
-367,985	800,000	-0,046	-0,112
-366,971	-178,838	-0,147	-0,002
-365,956	63,174	0,057	0,042
-364,942	-200,000	-0,012	0,094
-363,927	111,662	0,083	-0,073
-362,912	800,000	0,024	0,077
-361,898	172,770	0,055	-0,058
-360,883	86,901	-0,151	-0,122
-359,869	-200,000	0,028	-0,096
-358,854	800,000	-0,052	0,108
-357,839	173,226	0,079	0,084
-356,825	-159,340	0,088	0,004
-355,810	-97,063	-0,204	0,039
-354,796	-200,000	0,001	-0,054
-353,781	800,000	-0,029	-0,083
-352,766	6,347	0,036	0,020
-351,752	120,837	-0,050	-0,046
-350,737	-79,052	-0,099	0,025
-349,723	648,374	-0,027	0,051
-348,708	174,905	-0,021	-0,022
-347,693	-27,158	0,082	0,035
-346,679	-200,000	-0,034	-0,122
-345,664	10,171	-0,055	0,030
-344,650	-200,000	0,010	0,045
-343,635	-145,623	0,131	-0,008
-342,620	149,787	0,038	0,037
-341,606	-200,000	-0,002	0,072
-340,591	262,050	-0,083	0,105
-339,577	736,978	0,049	0,097
-338,562	-200,000	-0,002	-0,025
-337,548	-48,433	-0,150	-0,053
-336,533	-200,000	-0,010	0,144
-335,518	-200,000	0,020	0,069
-334,504	-153,519	-0,149	0,007
-333,489	-52,160	-0,205	-0,069
-332,475	-168,919	0,065	-0,002
-331,460	280,689	0,083	-0,109
-330,445	790,616	0,021	-0,042
-329,431	-143,485	0,089	-0,006
-328,416	-200,000	0,018	0,194
-327,402	-200,000	0,006	0,280
-326,387	-200,000	0,004	-0,103
-325,372	91,746	-0,056	-0,046
-324,358	466,037	-0,046	0,076
-323,343	-200,000	0,010	0,103
-322,329	110,308	0,025	-0,022
-321,314	37,812	0,052	0,034
-320,299	714,842	0,017	-0,032
-319,285	-121,724	0,137	0,016
-318,270	-104,156	0,095	0,016
-317,256	-81,323	-0,065	-0,016
-316,241	-37,338	-0,057	0,022
-315,226	268,742	-0,034	-0,044
-314,212	0,212	0,075	0,039
-313,197	-65,000	0,063	0,019
-312,183	2,455	-0,023	-0,012
-311,168	528,318	-0,029	-0,051
-310,153	-7,485	-0,126	-0,062
-309,139	160,528	-0,078	-0,080
-308,124	43,236	0,127	0,084
-307,110	335,892	-0,030	-0,042
-306,095	-59,831	-0,102	0,032
-305,080	52,686	-0,103	-0,072
-304,066	-58,894	0,031	-0,010
-303,051	164,179	-0,108	0,112
-302,037	208,305	-0,073	-0,083
-301,022	305,688	-0,038	-0,051
-300,008	800,000	-0,032	-0,067
-298,993	444,292	0,088	0,143
-297,978	311,358	-0,048	0,066
-296,964	800,000	0,040	0,089
-295,949	800,000	-0,016	0,034
-294,935	800,000	0,030	0,072
-293,920	142,776	0,066	-0,064
-292,905	-200,000	0,001	0,013
-291,891	2,720	0,025	-0,013
-290,876	-12,618	-0,073	0,035
-289,862	800,000	-0,055	-0,148
-288,847	-62,151	0,016	0,005
-287,832	98,248	-0,109	-0,092
-286,818	-200,000	-0,016	-0,097
-285,803	-200,000	-0,006	0,074
-284,789	152,214	-0,073	0,073
-283,774	-200,000	-0,020	0,173
-282,759	41,975	-0,108	-0,072
-281,745	-125,067	0,066	-0,007
-280,730	800,000	0,065	0,136
-279,716	-200,000	-0,011	0,175
-278,701	-200,000	-0,017	0,085
-277,686	346,120	-0,018	-0,025
-276,672	-41,182	0,144	-0,054
-275,657	-200,000	0,011	-0,148
-274,643	-200,000	0,008	-0,053
-273,628	10,479	-0,164	-0,091
-272,613	36,793	0,134	-0,086
-271,599	-1,841	-0,048	-0,025
-270,584	-37,780	-0,048	0,018
-269,570	58,314	0,066	-0,047
-268,555	-200,000	0,017	-0,115
-267,540	58,662	-0,170	-0,122
-266,526	800,000	0,008	-0,022
-265,511	292,651	-0,038	-0,050
-264,497	327,261	-0,055	0,078
-263,482	-200,000	0,019	-0,081
-262,467	52,773	0,041	0,029
-261,453	558,206	0,058	0,103
-260,438	-200,000	0,019	-0,074
-259,424	316,838	0,046	0,064
-258,409	-200,000	-0,019	-0,065
-257,395	295,155	-0,042	0,056
-256,380	800,000	-0,023	0,061
-255,365	-6,308	0,090	-0,045
-254,351	-31,367	0,075	-0,031
-253,336	683,593	-0,016	-0,031
-252,322	25,981	0,111	-0,067
-251,307	697,196	0,023	-0,045
-250,292	-76,355	0,123	-0,031
-249,278	800,000	0,041	0,101
-248,263	318,804	0,084	0,116
-247,249	-5,235	0,142	0,071
-246,234	-17,418	-0,064	-0,029
-245,219	800,000	0,068	-0,167
-244,205	140,648	-0,018	0,018
-243,190	-200,000	-0,022	0,112
-242,176	45,729	0,067	0,045
-241,161	140,794	0,067	-0,065
-240,146	-200,000	0,019	-0,128
-239,132	254,103	-0,102	-0,128
-238,117	800,000	-0,030	-0,064
-237,103	-23,500	-0,125	0,055
-236,088	-200,000	0,020	-0,075
-235,073	-79,114	-0,036	-0,009
-234,059	318,611	0,077	0,107
-233,044	800,000	0,024	0,070
-232,030	-34,321	-0,114	-0,045
-231,015	317,264	-0,029	0,040
-230,000	-148,601	-0,066	-0,004
-228,986	-189,027	-0,061	0,001
-227,971	254,386	0,033	0,041
-226,957	-200,000	-0,009	-0,100
-225,942	19,627	0,089	0,052
-224,927	52,869	-0,089	0,062
-223,913	245,090	-0,016	0,020
-222,898	-12,984	-0,097	-0,046
-221,884	102,820	-0,076	-0,065
-220,869	-69,734	0,117	-0,032
-219,855	231,984	0,128	-0,154
-218,840	-20,841	0,052	0,023
-217,825	179,924	0,092	-0,099
-216,811	84,284	0,071	-0,057
-215,796	179,348	0,011	-0,012
-214,782	119,525	0,042	-0,038
-213,767	-200,000	0,013	0,150
-212,752	220,204	-0,050	0,058
-211,738	-29,221	-0,186	0,077
-210,723	45,160	0,048	0,032
-209,709	-63,611	0,088	-0,026
-208,694	-10,741	-0,095	0,046
-207,679	-16,985	0,083	-0,038
-206,665	-121,136	-0,089	0,011
-205,650	800,000	0,031	0,094
-204,636	49,712	0,069	-0,048
-203,621	-49,951	-0,096	0,033
-202,606	-57,286	0,058	0,018
-201,592	110,258	-0,026	0,023
-200,577	188,908	-0,031	0,034
-199,563	85,243	0,107	-0,086
-198,548	-68,712	0,025	-0,007
-197,533	800,000	-0,012	0,029
-196,519	84,858	0,047	-0,038
-195,504	800,000	0,017	-0,039
-194,490	-78,589	0,111	-0,027
-193,475	180,028	0,078	-0,083
-192,460	79,252	-0,013	-0,010
-191,446	169,960	-0,088	0,092
-190,431	121,489	0,025	0,022
-189,417	-65,289	-0,112	-0,033
-188,402	-200,000	-0,004	-0,059
-187,387	800,000	-0,030	-0,086
-186,373	246,188	0,086	-0,106
-185,358	338,327	-0,057	-0,081
-184,344	800,000	0,034	0,080
-183,329	48,016	-0,104	0,071
-182,315	401,468	0,028	-0,043
-181,300	-200,000	0,006	-0,055
-180,285	-200,000	0,007	0,034
-179,271	-138,525	-0,034	-0,003
-178,256	180,820	-0,079	0,084
-177,242	-82,310	0,057	-0,013
-176,227	144,739	-0,055	0,053
-175,212	800,000	-0,040	0,125
-174,198	167,208	-0,096	-0,100
-173,183	324,032	-0,017	-0,023
-172,169	-56,536	-0,152	-0,049
-171,154	-200,000	-0,015	0,105
-170,139	268,020	0,042	-0,054
-169,125	242,556	0,082	0,100
-168,110	570,279	-0,046	-0,082
-167,096	-200,000	-0,000	-0,017
-166,081	-177,592	0,049	0,001
-165,066	69,561	-0,049	-0,036
-164,052	-138,502	-0,147	-0,012
-163,037	-159,574	-0,078	-0,003
-162,023	618,818	0,087	-0,160
-161,008	29,134	0,038	0,023
-159,993	-118,558	-0,105	0,013
-158,979	267,861	0,052	-0,067
-157,964	50,755	-0,063	-0,043
-156,950	-200,000	-0,048	-0,175
-155,935	98,662	-0,023	-0,020
-154,920	709,447	0,017	-0,033
-153,906	800,000	0,066	0,154
-152,891	167,615	0,043	-0,045
-151,877	-113,596	0,036	0,005
-150,862	800,000	-0,028	-0,069
-149,847	-200,000	-0,000	-0,002
-148,833	335,247	0,040	-0,056
-147,818	-200,000	-0,002	-0,035
-146,804	109,727	-0,054	0,047
-145,789	37,336	-0,038	-0,025
-144,775	693,832	-0,026	0,050
-143,760	800,000	-0,050	-0,159
-142,745	27,991	0,067	-0,041
-141,731	706,808	-0,031	-0,059
-140,716	54,509	-0,010	-0,007
-139,702	800,000	-0,025	0,053
-138,687	-65,685	-0,046	-0,013
-137,672	-52,448	-0,117	-0,039
-136,658	-8,606	-0,118	0,057
-135,643	200,110	-0,071	-0,079
-134,629	-200,000	0,003	0,024
-133,614	504,842	-0,042	0,070
-132,599	-200,000	-0,028	0,103
-131,585	314,869	-0,057	0,078
-130,570	-0,910	-0,107	-0,055
-129,556	-186,121	-0,019	0,000
-128,541	-23,122	-0,076	-0,033
-127,526	112,332	0,117	0,103
-126,512	-40,633	0,080	0,030
-125,497	-45,951	-0,059	0,021
-124,483	742,886	0,043	0,085
-123,468	-200,000	-0,010	0,060
-122,453	800,000	0,026	-0,070
-121,439	292,923	-0,079	-0,104
-120,424	782,302	-0,032	-0,064
-119,410	254,180	-0,040	0,049
-118,395	248,328	0,053	-0,065
-117,380	761,024	-0,061	0,120
-116,366	-200,000	0,008	0,027
-115,351	37,396	-0,158	-0,101
-114,337	-200,000	0,003	-0,056
-113,322	-114,584	0,058	-0,008
-112,307	238,364	0,034	0,041
-111,293	-200,000	0,015	0,065
-110,278	800,000	-0,012	0,029
-109,264	466,392	0,050	-0,081
-108,249	22,747	-0,041	-0,024
-107,234	-110,492	-0,073	-0,011
-106,220	-163,785	-0,047	0,002
-105,205	-43,938	-0,057	-0,021
-104,191	800,000	-0,072	0,162
-103,176	-72,022	0,043	0,011
-102,162	268,932	-0,095	0,121
-101,147	-200,000	-0,003	-0,067
-100,132	-200,000	0,015	-0,098
-99,118	-200,000	-0,004	0,052
-98,103	398,656	-0,063	0,096
-97,089	350,750	-0,050	-0,071
-96,074	-200,000	0,001	0,022
-95,059	230,437	-0,061	0,072
-94,045	800,000	0,048	-0,149
-93,030	57,907	0,096	-0,068
-92,016	-137,936	-0,064	-0,005
-91,001	-134,616	-0,065	-0,006
-89,986	-49,872	-0,050	0,017
-88,972	85,931	-0,038	-0,030
-87,957	115,343	-0,045	-0,040
-86,943	-200,000	0,002	-0,057
-85,928	-200,000	-0,042	0,141
-84,913	-162,745	0,037	0,001
-83,899	800,000	-0,063	-0,153
-82,884	-92,955	0,131	-0,026
-81,870	11,457	0,120	0,067
-80,855	728,807	-0,055	0,108
-79,840	-86,458	-0,055	-0,012
-78,826	-70,346	-0,083	0,023
-77,811	400,208	-0,114	-0,174
-76,797	93,292	-0,102	0,084
-75,782	731,423	0,037	0,072
-74,767	-124,371	0,098	0,011
-73,753	195,874	-0,076	-0,084
-72,738	-3,246	0,126	0,063
-71,724	-57,831	-0,048	0,015
-70,709	-200,000	0,009	-0,059
-69,694	388,166	0,075	0,112
-68,680	-200,000	-0,011	0,116
-67,665	-200,000	0,003	0,058
-66,651	359,035	0,055	0,079
-65,636	-200,000	-0,002	-0,129
-64,622	-152,054	0,115	-0,006
-63,607	800,000	-0,025	-0,074
-62,592	716,713	-0,011	-0,022
-61,578	194,813	-0,037	-0,041
-60,563	800,000	0,039	0,116
-59,549	800,000	-0,044	0,134
-58,534	-113,266	-1,334	-0,188
-57,519	560,100	-0,720	-1,266
-56,505	-200,000	-0,933	-4,578
-55,490	-95,071	0,709	-0,138
-54,476	800,000	4,985	11,726
-53,461	-200,000	14,225	253,548
-52,446	-200,000	696,145	2232,446
-51,432	568,156	1624,625	2871,779
-50,417	116,889	1631,347	1451,394
-49,403	72,885	1285,021	971,515
-48,388	37,443	1022,438	655,640
-47,373	23,712	980,881	583,906
-46,359	22,931	970,380	575,074
-45,344	21,912	966,106	569,197
-44,330	21,865	964,648	568,160
-43,315	21,726	963,244	566,860
-42,300	21,722	962,202	566,212
-41,286	21,799	961,082	565,778
-40,271	21,694	960,239	564,921
-39,257	21,714	959,281	564,398
-38,242	21,750	958,346	563,941
-37,227	21,673	957,511	563,181
-36,213	21,593	956,736	562,443
-35,198	21,643	955,870	562,073
-34,184	21,733	955,032	561,849
-33,169	21,683	954,302	561,235
-32,154	21,711	953,228	560,672
-31,140	21,671	952,380	560,022
-30,125	21,748	951,611	559,794
-29,111	21,726	950,698	559,165
-28,096	21,759	950,023	558,851
-27,082	21,805	949,352	558,584
-26,067	21,699	948,704	557,838
-25,052	21,670	947,924	557,267
-24,038	21,725	947,191	556,989
-23,023	21,727	946,741	556,706
-22,009	21,724	946,006	556,245
-20,994	21,772	945,330	555,977
-19,979	21,730	944,853	555,540
-18,965	21,716	944,106	555,036
-17,950	21,747	943,428	554,714
-16,936	21,724	942,784	554,240
-15,921	21,639	942,118	553,556
-14,906	21,620	941,384	553,041
-13,892	21,585	940,858	552,599
-12,877	21,632	940,005	552,226
-11,863	21,584	939,532	551,775
-10,848	21,563	939,196	551,489
-9,833	21,654	938,803	551,524
-8,819	21,644	938,038	551,022
-7,804	21,590	937,540	550,536
-6,790	21,615	936,704	550,102
-5,775	21,640	936,024	549,761
-4,760	21,625	935,486	549,376
-3,746	21,591	934,888	548,894
-2,731	21,434	934,251	548,004
-1,717	21,412	933,543	547,499
-0,702	21,448	932,886	547,205
0,313	21,291	932,098	547,074
1,327	24,179	930,122	554,928
2,342	33,345	793,456	497,723
3,356	30,893	450,350	278,787
4,371	0,769	294,609	152,235
5,386	-3,675	275,720	138,243
6,400	-4,783	270,014	134,339
7,415	-5,239	267,667	132,738
8,429	-4,873	266,569	132,518
9,444	-5,207	265,602	131,720
10,459	-4,969	265,009	131,632
11,473	-5,070	264,396	131,223
12,488	-5,157	264,140	131,005
13,502	-5,298	263,422	130,510
14,517	-5,105	262,787	130,358
15,531	-5,199	262,575	130,156
16,546	-5,061	262,164	130,066
17,561	-5,209	261,817	129,748
18,575	-5,036	261,619	129,794
19,590	-5,062	261,184	129,544
20,604	-5,095	260,901	129,362
21,619	-5,007	260,534	129,247
22,634	-5,094	260,250	129,017
23,648	-5,228	259,993	128,758
24,663	-5,198	259,715	128,636
25,677	-5,069	259,383	128,576
26,692	-5,072	259,156	128,449
27,707	-4,964	258,772	128,343
28,721	-4,996	258,508	128,172
29,736	-5,107	258,384	128,001
30,750	-5,066	258,164	127,917
31,765	-5,155	257,986	127,738
32,780	-5,077	257,685	127,646
33,794	-5,172	257,414	127,417
34,809	-5,306	257,262	127,212
35,823	-5,148	256,907	127,165
36,838	-5,132	256,518	126,975
37,853	-5,355	256,465	126,741
38,867	-5,292	256,248	126,678
39,882	-5,320	255,964	126,501
40,896	-5,256	255,779	126,455
41,911	-5,319	255,544	126,272
42,926	-5,234	255,354	126,241
43,940	-5,529	255,204	125,897
44,955	-5,359	254,894	125,882
45,969	-5,302	254,642	125,797
46,984	-5,444	254,353	125,518
47,999	-5,699	254,171	125,195
49,013	-5,723	253,934	125,045
50,028	-5,884	253,714	124,786
51,042	-5,993	253,374	124,512
52,057	-5,857	253,253	124,560
53,071	-5,790	253,043	124,504
54,086	-5,835	252,920	124,393
55,101	-5,748	252,691	124,345
56,115	-5,474	252,555	124,505
57,130	-5,046	252,347	124,762
58,144	-5,066	252,300	124,710
59,159	-5,022	252,002	124,589
60,174	-5,046	251,850	124,483
61,188	-4,995	251,621	124,403
62,203	-5,067	251,324	124,183
63,217	-5,192	251,097	123,951
64,232	-4,982	250,937	124,043
65,247	-5,002	250,692	123,893
66,261	-4,933	250,528	123,860
67,276	-5,482	250,413	123,321
68,290	-5,700	250,105	122,971
69,305	-5,418	249,650	122,978
70,320	-5,464	249,524	122,866
71,334	-5,471	249,566	122,869
72,349	-5,015	249,378	123,156
73,363	-5,101	249,233	123,000
74,378	-5,210	248,810	122,687
75,393	-5,364	248,781	122,531
76,407	-5,225	248,584	122,541
77,422	-5,069	248,354	122,549
78,436	-5,151	248,223	122,404
79,451	-5,161	247,893	122,222
80,466	-5,261	247,637	122,000
81,480	-5,445	247,435	121,733
82,495	-5,374	247,169	121,651
83,509	-5,410	247,184	121,618
84,524	-5,607	247,005	121,352
85,539	-5,686	246,660	121,105
86,553	-5,647	246,551	121,074
87,568	-5,286	246,371	121,280
88,582	-5,340	246,200	121,139
89,597	-5,457	245,998	120,930
90,611	-5,298	245,852	120,981
91,626	-5,365	245,588	120,784
92,641	-5,183	245,594	120,930
93,655	-5,167	245,131	120,704
94,670	-5,195	245,042	120,626
95,684	-5,318	244,830	120,408
96,699	-5,177	244,775	120,488
97,714	-5,334	244,508	120,214
98,728	-5,427	244,311	120,029
99,743	-5,467	244,062	119,863
100,757	-5,494	243,852	119,727
101,772	-5,754	243,685	119,417
102,787	-5,426	243,511	119,595
103,801	-5,116	243,304	119,739
104,816	-5,209	243,213	119,607
105,830	-5,181	243,159	119,593
106,845	-5,308	243,049	119,423
107,860	-5,199	242,794	119,377
108,874	-5,106	242,459	119,280
109,889	-5,363	242,314	118,985
110,903	-5,247	242,161	118,995
111,918	-5,406	242,059	118,802
112,933	-5,382	241,732	118,651
113,947	-5,255	241,622	118,692
114,962	-5,220	241,492	118,646
115,976	-5,256	241,422	118,571
116,991	-5,319	241,206	118,403
118,006	-5,139	240,954	118,417
119,020	-5,271	240,790	118,217
120,035	-5,086	240,686	118,308
121,049	-4,984	240,554	118,316
122,064	-5,372	240,436	117,928
123,079	-5,167	240,023	117,883
124,093	-5,369	239,909	117,651
125,108	-5,272	239,564	117,551
126,122	-5,513	239,528	117,326
127,137	-5,502	239,210	117,169
128,151	-5,627	239,241	117,072
129,166	-5,358	238,950	117,137
130,181	-5,550	238,817	116,906
131,195	-5,431	238,486	116,830
132,210	-5,482	238,544	116,807
133,224	-5,346	238,194	116,735
134,239	-5,077	238,190	116,942
135,254	-5,269	238,041	116,702
136,268	-5,386	237,836	116,496
137,283	-5,500	237,365	116,163
138,297	-5,621	237,390	116,067
139,312	-5,616	237,126	115,931
140,327	-5,365	236,995	116,060
141,341	-4,884	236,941	116,411
142,356	-4,841	236,896	116,414
143,370	-5,029	236,803	116,206
144,385	-4,759	236,632	116,329
145,400	-4,882	236,308	116,061
146,414	-4,880	236,283	116,040
147,429	-4,921	236,093	115,903
148,443	-5,106	235,944	115,671
149,458	-5,028	235,806	115,656
150,473	-5,173	235,661	115,458
151,487	-5,221	235,423	115,292
152,502	-5,128	235,187	115,241
153,516	-4,941	235,034	115,305
154,531	-4,959	234,730	115,132
155,546	-4,964	234,698	115,102
156,560	-5,008	234,443	114,931
157,575	-5,204	234,294	114,692
158,589	-5,137	234,057	114,619
159,604	-4,832	233,967	114,807
160,619	-4,716	233,910	114,862
161,633	-4,867	233,720	114,638
162,648	-4,803	233,551	114,595
163,662	-4,755	233,319	114,509
164,677	-5,052	233,345	114,277
165,692	-5,010	233,130	114,194
166,706	-4,880	232,894	114,171
167,721	-4,715	232,745	114,219
168,735	-5,085	232,760	113,924
169,750	-4,932	232,396	113,855
170,764	-5,061	232,409	113,749
171,779	-4,905	232,328	113,823
172,794	-4,991	231,951	113,561
173,808	-4,971	231,801	113,493
174,823	-5,499	231,565	112,951
175,837	-5,584	231,293	112,742
176,852	-5,179	231,276	113,042
177,867	-4,862	231,204	113,245
178,881	-4,844	231,069	113,184
179,896	-4,764	230,923	113,165
180,910	-4,870	230,842	113,032
181,925	-4,812	230,784	113,039
182,940	-4,919	230,578	112,844
183,954	-4,820	230,161	112,707
184,969	-4,675	230,151	112,806
185,983	-4,741	230,106	112,722
186,998	-4,801	229,854	112,542
188,013	-4,701	229,818	112,593
189,027	-4,420	229,500	112,645
190,042	-4,729	229,361	112,326
191,056	-4,728	229,302	112,288
192,071	-4,771	229,132	112,161
193,086	-4,636	228,879	112,132
194,100	-4,943	228,769	111,831
195,115	-5,013	228,428	111,600
196,129	-5,644	228,257	111,017
197,144	-2,762	229,103	113,657
198,159	1,349	230,332	117,460
199,173	3,863	230,873	119,684
200,188	3,912	230,827	119,688
201,202	3,992	230,639	119,642
202,217	4,262	230,488	119,763
203,232	4,488	230,407	119,886
204,246	4,397	230,335	119,767
205,261	4,490	230,106	119,709
206,275	4,695	230,019	119,811
207,290	4,767	229,921	119,806
208,304	4,708	229,777	119,674
209,319	4,569	229,524	119,425
210,334	4,541	229,344	119,299
211,348	4,459	229,116	119,107
212,363	4,044	228,892	118,659
213,377	3,828	228,692	118,379
214,392	3,825	228,564	118,300
215,407	3,828	228,423	118,218
216,421	3,964	228,258	118,227
217,436	3,813	227,972	117,952
218,450	3,590	227,860	117,713
219,465	3,604	227,762	117,662
220,480	3,806	227,505	117,674
221,494	3,631	227,423	117,487
222,509	3,916	227,334	117,649
223,523	3,603	227,311	117,387
224,538	3,642	226,994	117,242
225,553	3,499	226,987	117,119
226,567	3,919	226,721	117,292
227,582	4,096	226,630	117,369
228,596	4,228	226,528	117,407
229,611	3,962	226,312	117,082
230,626	3,751	226,119	116,811
231,640	3,475	226,037	116,549
232,655	4,096	225,742	116,857
233,669	4,355	225,921	117,136
234,684	4,535	225,699	117,147
235,699	4,311	225,449	116,837
236,713	3,920	225,335	116,472
237,728	3,654	225,056	116,116
238,742	3,850	224,906	116,176
239,757	3,523	224,964	115,949
240,772	3,629	224,680	115,872
241,786	3,754	224,446	115,835
242,801	4,108	224,357	116,046
243,815	4,274	224,315	116,139
244,830	4,049	224,380	115,992
245,844	4,044	223,958	115,760
246,859	3,824	223,829	115,518
247,874	3,958	223,673	115,528
248,888	4,157	223,651	115,655
249,903	4,161	223,383	115,510
250,917	3,999	223,220	115,294
251,932	3,962	223,092	115,189
252,947	3,772	222,885	114,930
253,961	3,780	222,855	114,911
254,976	3,861	222,515	114,785
255,990	3,873	222,538	114,796
257,005	4,086	222,388	114,867
258,020	3,905	222,493	114,776
259,034	4,098	222,303	114,812
260,049	4,065	222,026	114,634
261,063	3,980	221,756	114,421
262,078	4,115	221,786	114,527
263,093	4,230	221,701	114,558
264,107	4,109	221,440	114,323
265,122	4,214	221,419	114,380
266,136	4,316	221,306	114,387
267,151	4,228	221,030	114,169
268,166	4,003	220,791	113,869
269,180	3,745	220,535	113,536
270,195	3,775	220,458	113,508
271,209	3,792	220,236	113,397
272,224	3,811	220,275	113,420
273,239	3,878	220,053	113,346
274,253	3,759	219,888	113,163
275,268	3,699	219,682	113,003
276,282	3,614	219,549	112,862
277,297	3,586	219,436	112,773
278,312	3,689	219,331	112,784
279,326	3,658	219,355	112,764
280,341	3,749	219,036	112,657
281,355	3,922	218,928	112,718
282,370	3,754	218,829	112,533
283,384	3,663	218,549	112,314
284,399	3,369	218,302	111,961
285,414	3,578	218,234	112,069
286,428	3,720	218,238	112,165
287,443	4,004	218,154	112,319
288,457	3,802	218,071	112,119
289,472	3,886	217,848	112,056
290,487	3,348	217,717	111,586
291,501	3,346	217,331	111,377
292,516	3,493	217,258	111,437
293,530	3,615	217,148	111,459
294,545	3,584	216,941	111,320
295,560	3,433	216,980	111,221
296,574	3,702	216,639	111,231
297,589	3,890	216,713	111,395
298,603	3,850	216,571	111,283
299,618	3,903	216,539	111,295
300,633	3,865	216,492	111,233
301,647	3,957	216,533	111,311
302,662	4,272	216,125	111,319
303,676	4,079	215,937	111,074
304,691	3,996	215,787	110,926
305,706	4,088	215,897	111,039
306,720	4,318	215,514	110,998
307,735	3,801	215,368	110,541
308,749	3,736	215,187	110,392
309,764	3,850	215,029	110,383
310,779	3,961	215,087	110,482
311,793	4,009	214,811	110,364
312,808	3,942	214,714	110,258
313,822	3,846	214,586	110,113
314,837	3,825	214,225	109,903
315,852	3,771	214,187	109,835
316,866	3,565	214,132	109,649
317,881	3,922	214,091	109,874
318,895	4,106	213,851	109,872
319,910	3,758	213,585	109,478
320,925	3,578	213,509	109,301
321,939	3,116	213,378	108,895
322,954	3,295	213,275	108,960
323,968	3,708	213,262	109,238
324,983	4,080	212,971	109,343
325,997	4,037	212,858	109,245
327,012	4,033	212,727	109,165
328,027	3,607	212,692	108,835
329,041	4,063	212,606	109,105
330,056	4,203	212,402	109,090
331,070	3,912	212,102	108,720
332,085	3,675	212,014	108,497
333,100	3,523	211,985	108,366
334,114	3,814	211,787	108,461
335,129	3,846	211,599	108,377
336,143	3,868	211,348	108,254
337,158	3,372	211,407	107,925
338,173	3,532	211,240	107,943
339,187	3,572	211,112	107,896
340,202	3,594	210,976	107,832
341,216	3,405	210,754	107,576
342,231	3,645	210,631	107,673
343,246	3,728	210,486	107,648
344,260	3,521	210,512	107,506
345,275	3,581	210,356	107,459
346,289	3,865	210,205	107,570
347,304	3,900	210,052	107,507
348,319	3,849	209,865	107,366
349,333	3,697	209,875	107,255
350,348	3,768	209,706	107,209
351,362	3,957	209,538	107,246
352,377	4,067	209,414	107,249
353,392	3,959	209,321	107,117
354,406	3,935	209,136	106,996
355,421	193,524	1346,081	1431,633
356,435	154,414	1484,693	1431,740
