DTS Sentinel unit serial number:	SN410029Multiplexer serial number:	ORYXHardware model number:	OX2-SRSoftware version number:	ORYX F/W v4,00 Oryx Data Collector v3.7.2.0data status	okinstallation	B6 Nyhavnadifferential loss correction	single-endedforward channel	channel 2reverse channel	N/Adate	2023/12/09time	15:20:08forward acquisition time	300,00reverse acquisition time	0,00gamma	499,1914k internal	0,3133k external	0,3133temperature offset calibration	1,0000default loss term (dB/km)	0,3820temperature slope calibration	1,0000multiplexer offset coefficient	1,0000multiplexer slope coefficient	1,0000fibre end	0,00T internal ref (°C)	20,62T ext. ref 1 (°C)	4,49T ext. ref 2 (°C)	4,48length (m)	temperature (°C)	Stokes	anti-Stokes-744,400	-200,000	0,019	-0,075
-743,385	-24,947	-0,235	0,103
-742,371	-56,738	0,044	-0,015
-741,356	-26,496	-0,245	0,106
-740,342	800,000	0,044	0,114
-739,327	-20,939	-0,270	0,123
-738,312	185,418	0,138	-0,153
-737,298	227,048	-0,111	0,134
-736,283	7,920	0,175	0,097
-735,269	136,888	-0,102	0,099
-734,254	57,190	0,042	0,030
-733,239	-125,579	-0,372	0,041
-732,225	4,840	0,172	0,093
-731,210	-200,000	0,007	-0,037
-730,196	24,363	-0,179	-0,110
-729,181	800,000	-0,030	0,064
-728,167	187,537	-0,086	-0,095
-727,152	800,000	0,021	-0,055
-726,137	-200,000	0,006	-0,086
-725,123	109,520	0,077	0,069
-724,108	-200,000	0,014	-0,120
-723,094	-4,630	-0,138	-0,071
-722,079	-164,009	-0,161	-0,005
-721,064	-145,147	-0,026	-0,002
-720,050	778,896	-0,048	0,097
-719,035	-153,108	0,019	0,001
-718,021	-200,000	0,002	-0,064
-717,006	403,089	-0,018	0,028
-715,991	378,842	-0,039	-0,060
-714,977	-63,508	-0,098	-0,030
-713,962	210,059	-0,011	0,013
-712,948	16,750	0,111	-0,065
-711,933	-66,196	-0,066	-0,019
-710,918	-200,000	0,011	-0,096
-709,904	-49,192	-0,078	-0,027
-708,889	41,273	-0,168	0,112
-707,875	300,297	0,038	-0,053
-706,860	-15,414	-0,059	-0,028
-705,845	607,401	-0,016	-0,029
-704,831	800,000	0,003	-0,007
-703,816	62,060	-0,111	-0,082
-702,802	-0,243	0,119	0,062
-701,787	164,811	-0,038	-0,040
-700,772	351,103	0,032	-0,048
-699,758	-200,000	-0,024	-0,108
-698,743	800,000	0,042	0,098
-697,729	-200,000	0,003	-0,099
-696,714	9,582	0,028	-0,016
-695,699	-200,000	0,008	0,043
-694,685	-164,468	-0,150	-0,005
-693,670	-200,000	0,005	0,048
-692,656	-200,000	0,021	-0,072
-691,641	-200,000	-0,017	0,085
-690,627	800,000	0,052	0,113
-689,612	7,915	-0,131	-0,072
-688,597	33,189	0,047	-0,030
-687,583	-140,751	0,024	-0,002
-686,568	4,584	-0,080	0,044
-685,554	-140,452	0,079	0,006
-684,539	-181,281	0,039	-0,001
-683,524	-200,000	-0,010	-0,055
-682,510	800,000	-0,037	0,088
-681,495	-200,000	-0,020	-0,095
-680,481	361,051	-0,051	0,075
-679,466	263,472	0,053	-0,068
-678,451	-67,542	-0,153	0,044
-677,437	723,649	0,057	-0,112
-676,422	-11,611	0,062	0,030
-675,408	613,846	-0,096	-0,178
-674,393	28,022	0,020	-0,012
-673,378	201,279	-0,078	-0,089
-672,364	-66,755	-0,177	0,052
-671,349	-4,394	-0,154	0,079
-670,335	-6,087	0,031	-0,016
-669,320	-41,235	0,204	0,078
-668,305	576,358	-0,025	0,045
-667,291	-129,646	-0,028	-0,003
-666,276	65,670	-0,052	-0,039
-665,262	507,218	-0,073	-0,126
-664,247	224,190	0,058	-0,070
-663,232	800,000	-0,016	0,044
-662,218	-89,439	0,119	-0,026
-661,203	174,613	0,065	0,070
-660,189	-200,000	-0,010	-0,079
-659,174	-200,000	0,015	-0,051
-658,159	-200,000	0,003	-0,047
-657,145	800,000	0,077	-0,165
-656,130	-108,893	0,042	0,007
-655,116	41,672	-0,042	0,028
-654,101	-200,000	-0,005	0,031
-653,086	402,940	0,003	-0,004
-652,072	35,955	-0,144	-0,094
-651,057	120,016	-0,049	-0,045
-650,043	800,000	-0,023	0,074
-649,028	-95,754	0,087	0,017
-648,014	-66,235	0,116	0,034
-646,999	286,061	0,113	0,151
-645,984	52,188	-0,125	0,088
-644,970	-63,516	-0,053	-0,016
-643,955	107,394	0,030	-0,027
-642,941	-200,000	0,011	0,048
-641,926	-200,000	-0,009	0,112
-640,911	47,118	0,109	0,075
-639,897	38,595	0,036	-0,024
-638,882	-52,091	-0,161	0,055
-637,868	800,000	-0,025	0,078
-636,853	-200,000	0,025	0,085
-635,838	800,000	0,046	0,114
-634,824	216,714	0,054	0,064
-633,809	-200,000	-0,006	-0,036
-632,795	308,164	0,071	-0,098
-631,780	-52,755	0,103	0,035
-630,765	110,688	0,097	-0,086
-629,751	-200,000	-0,005	-0,109
-628,736	-200,000	-0,012	-0,055
-627,722	-187,317	0,143	0,001
-626,707	-200,000	0,019	0,116
-625,692	334,245	0,040	-0,057
-624,678	334,717	0,070	0,100
-623,663	-78,135	0,115	0,029
-622,649	-60,730	-0,183	0,057
-621,634	554,963	0,030	-0,054
-620,619	-79,155	-0,109	-0,027
-619,605	310,858	-0,085	-0,118
-618,590	227,637	0,115	0,139
-617,576	-50,931	-0,173	-0,060
-616,561	156,149	-0,026	-0,027
-615,546	485,443	0,035	-0,059
-614,532	501,587	-0,077	-0,132
-613,517	-200,000	-0,018	0,075
-612,503	-65,239	0,043	0,013
-611,488	71,458	-0,073	-0,056
-610,474	-67,833	0,089	0,026
-609,459	433,129	-0,061	0,098
-608,444	-200,000	-0,008	-0,137
-607,430	-40,092	-0,131	0,050
-606,415	233,414	-0,016	0,020
-605,401	-200,000	0,012	0,096
-604,386	-64,568	0,015	-0,005
-603,371	235,212	-0,081	0,099
-602,357	-89,928	-0,033	0,007
-601,342	-90,387	-0,072	0,015
-600,328	-15,554	0,057	-0,027
-599,313	104,106	-0,093	-0,081
-598,298	-157,567	-0,096	0,004
-597,284	15,327	-0,090	-0,052
-596,269	359,930	-0,070	0,104
-595,255	-190,098	-0,106	0,001
-594,240	-95,727	0,065	0,013
-593,225	-200,000	-0,026	-0,133
-592,211	-119,960	0,087	0,011
-591,196	-174,277	0,159	0,003
-590,182	477,883	0,050	0,084
-589,167	92,562	0,147	0,122
-588,152	-200,000	0,015	0,102
-587,138	-200,000	-0,009	0,192
-586,123	-200,000	-0,016	-0,076
-585,109	-200,000	0,025	-0,154
-584,094	-85,709	-0,125	-0,028
-583,079	-200,000	0,002	-0,063
-582,065	-88,710	-0,123	0,027
-581,050	-119,005	0,036	-0,005
-580,036	-91,237	-0,159	0,033
-579,021	-97,656	-0,030	0,006
-578,006	406,138	-0,073	-0,114
-576,992	63,067	-0,120	-0,089
-575,977	0,679	0,054	-0,028
-574,963	495,966	-0,110	0,188
-573,948	16,500	0,010	0,006
-572,934	2,365	0,083	0,044
-571,919	-200,000	-0,002	0,068
-570,904	223,466	-0,038	-0,045
-569,890	13,334	-0,043	0,025
-568,875	-200,000	-0,008	0,137
-567,861	391,868	-0,099	-0,153
-566,846	-6,261	0,029	0,014
-565,831	-200,000	0,001	0,063
-564,817	-69,824	-0,033	-0,009
-563,802	0,843	-0,075	0,040
-562,788	-89,442	0,102	-0,022
-561,773	-200,000	-0,004	-0,166
-560,758	-53,479	-0,016	-0,005
-559,744	-24,681	-0,011	0,005
-558,729	-200,000	0,004	0,052
-557,715	-51,329	-0,084	0,029
-556,700	15,613	-0,123	-0,071
-555,685	556,004	-0,056	-0,100
-554,671	-51,266	-0,040	0,014
-553,656	72,679	0,036	0,028
-552,642	-184,582	-0,104	-0,001
-551,627	52,263	-0,054	0,038
-550,612	-20,630	-0,067	0,030
-549,598	-151,075	-0,124	-0,007
-548,583	253,166	-0,121	-0,152
-547,569	-126,156	-0,024	-0,003
-546,554	632,336	-0,020	0,038
-545,539	800,000	-0,052	-0,108
-544,525	-58,973	-0,019	-0,006
-543,510	800,000	-0,045	-0,126
-542,496	19,900	0,067	0,040
-541,481	-64,813	0,066	0,020
-540,466	138,121	0,032	0,031
-539,452	-200,000	0,012	-0,088
-538,437	463,410	-0,072	-0,119
-537,423	800,000	-0,031	-0,072
-536,408	300,570	-0,052	0,071
-535,393	-200,000	-0,000	0,081
-534,379	33,511	0,045	-0,029
-533,364	155,262	0,036	-0,036
-532,350	120,269	0,045	0,042
-531,335	-200,000	-0,005	0,109
-530,321	569,695	-0,031	0,055
-529,306	-22,208	0,195	-0,087
-528,291	-4,369	-0,163	-0,083
-527,277	302,483	0,094	-0,129
-526,262	406,381	-0,040	0,062
-525,248	-138,067	-0,045	-0,004
-524,233	316,757	-0,005	-0,007
-523,218	800,000	0,018	0,038
-522,204	90,192	-0,073	0,060
-521,189	800,000	0,027	-0,056
-520,175	-38,650	0,027	-0,011
-519,160	132,954	0,056	-0,053
-518,145	-23,007	-0,099	-0,044
-517,131	-25,957	0,019	-0,008
-516,116	-5,432	-0,086	0,043
-515,102	377,220	-0,004	0,006
-514,087	-79,669	-0,141	-0,035
-513,072	527,074	-0,082	-0,143
-512,058	5,353	-0,038	-0,020
-511,043	800,000	0,060	0,156
-510,029	-200,000	-0,010	0,087
-509,014	69,732	-0,025	-0,019
-507,999	800,000	0,058	-0,141
-506,985	-21,457	0,156	-0,070
-505,970	800,000	-0,023	-0,049
-504,956	587,165	0,029	0,053
-503,941	-110,154	0,129	-0,020
-502,926	-200,000	0,019	0,075
-501,912	-200,000	-0,002	0,035
-500,897	-200,000	-0,037	0,132
-499,883	140,951	-0,092	0,090
-498,868	105,397	0,081	-0,070
-497,853	-200,000	-0,002	-0,035
-496,839	484,422	0,009	-0,015
-495,824	105,108	-0,009	-0,008
-494,810	-34,577	-0,035	-0,014
-493,795	-53,594	0,058	-0,019
-492,781	152,743	-0,052	-0,052
-491,766	363,405	-0,070	-0,104
-490,751	800,000	-0,033	-0,101
-489,737	28,657	-0,064	-0,040
-488,722	-200,000	-0,030	0,152
-487,708	-146,193	-0,074	0,005
-486,693	-65,398	0,089	-0,026
-485,678	-13,174	-0,070	0,033
-484,664	800,000	-0,035	-0,093
-483,649	173,039	-0,127	-0,135
-482,635	800,000	-0,009	0,021
-481,620	662,801	0,045	-0,085
-480,605	-200,000	-0,007	0,055
-479,591	157,815	0,025	-0,025
-478,576	-124,410	0,045	0,005
-477,562	-200,000	-0,004	-0,037
-476,547	586,764	-0,055	0,099
-475,532	47,725	0,006	0,004
-474,518	116,720	-0,124	-0,112
-473,503	-200,000	0,025	-0,134
-472,489	-19,661	0,035	0,016
-471,474	323,014	-0,040	-0,057
-470,459	800,000	0,020	-0,044
-469,445	-56,487	-0,102	-0,033
-468,430	-8,825	-0,106	-0,052
-467,416	-200,000	-0,005	0,072
-466,401	-200,000	0,051	0,170
-465,386	1,364	0,054	-0,028
-464,372	-54,722	-0,149	0,049
-463,357	800,000	-0,009	-0,022
-462,343	726,462	-0,023	-0,045
-461,328	-200,000	-0,007	-0,119
-460,313	33,909	0,056	-0,036
-459,299	100,979	0,089	0,076
-458,284	-200,000	0,023	-0,087
-457,270	46,207	0,039	-0,027
-456,255	-200,000	-0,007	0,138
-455,241	-190,019	-0,052	0,000
-454,226	800,000	-0,059	-0,162
-453,211	110,596	0,038	-0,034
-452,197	800,000	0,018	0,045
-451,182	-200,000	-0,007	0,065
-450,168	-43,118	-0,054	-0,020
-449,153	-185,487	-0,180	-0,002
-448,138	-200,000	-0,013	0,048
-447,124	800,000	0,016	0,034
-446,109	226,275	-0,021	0,025
-445,095	-150,179	0,174	-0,010
-444,080	33,288	0,104	0,066
-443,065	-90,746	-0,112	-0,024
-442,051	-200,000	-0,005	-0,074
-441,036	3,444	-0,113	-0,060
-440,022	424,193	-0,019	-0,030
-439,007	-200,000	0,010	-0,050
-437,992	800,000	0,023	-0,053
-436,978	800,000	0,014	-0,037
-435,963	262,784	0,012	-0,015
-434,949	800,000	0,025	0,068
-433,934	-80,563	-0,154	-0,037
-432,919	171,634	-0,076	-0,080
-431,905	-83,932	-0,085	-0,020
-430,890	104,481	0,079	0,068
-429,876	-135,096	0,081	0,007
-428,861	-200,000	0,031	0,118
-427,846	-54,346	0,095	-0,031
-426,832	800,000	-0,044	-0,097
-425,817	150,504	0,046	0,046
-424,803	1,331	0,085	-0,045
-423,788	-200,000	0,004	-0,023
-422,773	-2,980	0,127	0,065
-421,759	-200,000	-0,003	-0,045
-420,744	307,327	-0,066	0,090
-419,730	-200,000	0,005	-0,034
-418,715	-200,000	-0,008	0,029
-417,701	252,247	-0,075	0,094
-416,686	-200,000	0,016	-0,148
-415,671	-200,000	-0,032	0,109
-414,657	-200,000	0,008	0,071
-413,642	224,656	0,068	0,081
-412,628	551,451	0,030	-0,054
-411,613	643,448	-0,047	0,088
-410,598	242,147	-0,026	0,032
-409,584	-76,897	0,093	0,024
-408,569	33,879	0,055	-0,035
-407,555	264,987	-0,112	-0,143
-406,540	-81,232	0,167	0,040
-405,525	-46,455	-0,057	0,020
-404,511	-200,000	0,023	-0,095
-403,496	98,063	0,134	0,113
-402,482	-137,528	0,169	0,014
-401,467	226,169	0,052	-0,062
-400,452	-85,059	0,093	0,021
-399,438	368,302	-0,038	0,056
-398,423	88,377	-0,064	0,052
-397,409	-67,642	0,087	0,025
-396,394	-154,662	0,072	0,003
-395,379	800,000	0,016	0,037
-394,365	-200,000	0,009	0,053
-393,350	-3,362	-0,040	0,021
-392,336	800,000	0,013	-0,026
-391,321	33,837	0,147	-0,093
-390,306	-200,000	0,017	0,062
-389,292	-101,342	-0,127	0,023
-388,277	82,759	-0,079	-0,063
-387,263	-200,000	0,001	-0,170
-386,248	800,000	0,046	0,097
-385,233	800,000	-0,015	-0,042
-384,219	206,469	-0,025	0,029
-383,204	47,255	-0,051	-0,035
-382,190	-30,316	-0,128	-0,053
-381,175	-49,691	-0,101	-0,035
-380,160	800,000	0,048	-0,131
-379,146	238,534	0,046	0,056
-378,131	178,928	0,074	0,079
-377,117	-42,710	0,043	-0,016
-376,102	-0,893	0,100	-0,052
-375,088	800,000	-0,004	0,011
-374,073	-100,670	0,069	0,012
-373,058	-25,810	-0,052	-0,022
-372,044	261,048	0,027	-0,035
-371,029	26,238	0,146	0,089
-370,015	344,710	-0,073	0,105
-369,000	799,406	-0,063	-0,127
-367,985	-135,222	0,144	0,013
-366,971	800,000	0,020	0,048
-365,956	695,485	0,041	-0,079
-364,942	-200,000	-0,021	0,070
-363,927	32,685	0,071	-0,045
-362,912	72,268	-0,029	0,022
-361,898	-116,932	0,086	0,011
-360,883	-200,000	0,013	0,054
-359,869	-77,056	-0,162	0,041
-358,854	-185,662	-0,096	0,001
-357,839	-116,009	-0,149	-0,020
-356,825	-200,000	-0,018	0,062
-355,810	-79,724	-0,107	0,026
-354,796	-200,000	0,017	-0,155
-353,781	553,209	-0,032	0,057
-352,766	800,000	0,057	-0,141
-351,752	800,000	0,015	0,046
-350,737	131,623	0,101	0,096
-349,723	43,516	0,035	-0,024
-348,708	800,000	-0,029	0,092
-347,693	800,000	0,027	0,055
-346,679	169,642	-0,030	0,032
-345,664	8,555	0,082	-0,045
-344,650	-18,546	0,077	-0,035
-343,635	-200,000	0,039	-0,126
-342,620	193,968	0,016	-0,017
-341,606	577,485	0,038	-0,069
-340,591	187,691	0,098	-0,107
-339,577	800,000	0,039	-0,117
-338,562	66,618	0,126	-0,093
-337,548	47,720	0,032	-0,022
-336,533	800,000	-0,019	0,055
-335,518	800,000	0,025	0,080
-334,504	-200,000	0,009	0,107
-333,489	-102,554	-0,080	-0,014
-332,475	-53,047	0,038	0,013
-331,460	54,743	0,039	-0,028
-330,445	90,271	0,082	-0,067
-329,431	-71,675	0,180	0,049
-328,416	800,000	-0,032	0,097
-327,402	139,821	0,157	-0,151
-326,387	-107,916	0,036	-0,006
-325,372	94,524	-0,087	-0,073
-324,358	309,937	0,033	0,045
-323,343	-200,000	-0,013	0,049
-322,329	209,833	0,081	0,093
-321,314	661,374	0,037	0,071
-320,299	-96,030	-0,109	0,021
-319,285	8,315	-0,023	-0,012
-318,270	-106,152	0,032	-0,005
-317,256	800,000	-0,041	-0,085
-316,241	-200,000	-0,002	-0,008
-315,226	291,432	0,067	0,089
-314,212	-54,634	0,091	0,030
-313,197	222,122	-0,051	0,060
-312,183	800,000	-0,045	-0,102
-311,168	369,600	-0,033	-0,049
-310,153	-9,597	-0,124	-0,060
-309,139	172,587	-0,122	0,128
-308,124	101,531	0,073	-0,062
-307,110	9,773	0,126	-0,070
-306,095	800,000	-0,043	0,119
-305,080	15,900	0,121	-0,069
-304,066	46,045	-0,143	0,096
-303,051	-43,003	-0,118	-0,044
-302,037	-200,000	-0,013	-0,050
-301,022	-7,304	-0,064	-0,032
-300,008	6,894	-0,076	0,041
-298,993	-113,892	0,052	-0,007
-297,978	-200,000	0,055	-0,190
-296,964	800,000	0,068	-0,196
-295,949	526,179	-0,040	-0,069
-294,935	-167,871	-0,070	-0,002
-293,920	-102,491	0,163	0,028
-292,905	-124,719	0,132	-0,015
-291,891	212,730	0,028	0,032
-290,876	-200,000	0,016	0,129
-289,862	-15,597	-0,133	-0,062
-288,847	-200,000	0,016	0,143
-287,832	800,000	-0,029	-0,067
-286,818	800,000	-0,045	-0,097
-285,803	-200,000	0,017	-0,119
-284,789	77,665	0,115	-0,089
-283,774	591,859	0,019	0,035
-282,759	60,098	-0,054	0,039
-281,745	129,331	0,080	-0,074
-280,730	559,486	0,066	0,116
-279,716	800,000	-0,047	0,126
-278,701	18,862	0,161	-0,094
-277,686	800,000	0,023	-0,052
-276,672	-200,000	0,001	0,032
-275,657	-93,108	-0,191	-0,038
-274,643	156,367	-0,053	-0,053
-273,628	-200,000	0,005	-0,157
-272,613	-116,236	0,039	0,005
-271,599	198,675	0,032	0,036
-270,584	111,641	0,066	0,058
-269,570	-200,000	0,003	0,041
-268,555	800,000	0,005	0,014
-267,540	-106,803	-0,040	0,006
-266,526	151,245	0,045	0,045
-265,511	-200,000	0,004	-0,083
-264,497	-113,477	-0,033	-0,005
-263,482	-200,000	-0,018	-0,119
-262,467	-6,018	0,094	-0,047
-261,453	101,102	0,103	0,088
-260,438	-90,768	-0,126	0,026
-259,424	30,019	-0,088	-0,054
-258,409	800,000	0,018	0,048
-257,395	680,027	-0,038	-0,072
-256,380	-11,286	0,035	0,017
-255,365	49,865	0,106	0,073
-254,351	323,135	0,103	0,143
-253,336	285,452	0,013	0,017
-252,322	23,562	-0,077	-0,046
-251,307	199,757	-0,069	-0,078
-250,292	157,877	-0,067	-0,068
-249,278	-40,189	0,048	-0,018
-248,263	229,363	0,076	-0,091
-247,249	-200,000	-0,006	-0,067
-246,234	-27,045	-0,086	0,037
-245,219	194,063	-0,041	-0,045
-244,205	-200,000	-0,022	0,121
-243,190	159,505	-0,051	0,052
-242,176	-200,000	0,017	0,069
-241,161	800,000	-0,029	0,094
-240,146	-200,000	-0,005	-0,038
-239,132	-200,000	0,004	-0,028
-238,117	49,423	-0,034	-0,023
-237,103	131,536	0,019	-0,018
-236,088	-109,197	0,122	-0,019
-235,073	-200,000	0,038	0,187
-234,059	-7,112	0,068	-0,033
-233,044	-200,000	-0,113	0,000
-232,030	146,870	-0,057	0,056
-231,015	626,882	-0,025	-0,046
-230,000	-99,869	-0,062	-0,011
-228,986	3,323	0,063	-0,033
-227,971	-164,951	0,098	0,003
-226,957	-200,000	-0,047	0,181
-225,942	173,657	-0,031	-0,032
-224,927	800,000	0,012	0,028
-223,913	-200,000	-0,026	-0,100
-222,898	-200,000	-0,007	-0,028
-221,884	-200,000	0,001	-0,049
-220,869	-155,893	0,151	-0,007
-219,855	-92,864	0,098	0,020
-218,840	800,000	0,063	0,151
-217,825	209,248	0,040	0,045
-216,811	18,203	0,089	0,052
-215,796	800,000	-0,025	0,059
-214,782	-200,000	-0,001	0,034
-213,767	142,868	0,074	0,071
-212,752	-61,773	-0,035	0,011
-211,738	800,000	0,013	0,038
-210,723	537,835	-0,070	0,122
-209,709	-66,551	-0,098	0,028
-208,694	800,000	-0,058	-0,174
-207,679	-105,138	-0,094	-0,015
-206,665	800,000	-0,021	-0,051
-205,650	-200,000	-0,016	0,072
-204,636	-152,243	0,120	0,006
-203,621	-200,000	0,005	-0,140
-202,606	-200,000	0,006	-0,142
-201,592	-96,574	0,063	-0,012
-200,577	800,000	0,016	-0,051
-199,563	720,902	0,068	0,133
-198,548	197,700	0,046	-0,051
-197,533	-200,000	-0,008	0,075
-196,519	800,000	-0,026	0,066
-195,504	175,712	-0,021	-0,022
-194,490	-103,452	0,079	0,013
-193,475	150,717	0,037	0,037
-192,460	-174,420	0,066	-0,001
-191,446	254,578	-0,059	0,074
-190,431	406,189	0,081	-0,125
-189,417	220,342	0,047	-0,055
-188,402	38,894	-0,064	0,041
-187,387	-50,489	-0,074	0,025
-186,373	12,892	0,087	-0,049
-185,358	-200,000	-0,032	-0,125
-184,344	394,146	-0,058	0,088
-183,329	-171,437	0,087	-0,002
-182,315	-0,949	0,094	0,048
-181,300	-200,000	0,009	0,036
-180,285	-38,385	-0,121	-0,046
-179,271	-112,264	-0,112	-0,016
-178,256	-200,000	-0,009	0,078
-177,242	-200,000	-0,021	0,207
-176,227	-200,000	0,016	0,059
-175,212	716,975	-0,017	-0,033
-174,198	19,521	0,140	-0,081
-173,183	98,328	-0,115	-0,097
-172,169	-200,000	0,023	-0,103
-171,154	-130,978	0,031	0,003
-170,139	-16,247	0,100	0,046
-169,125	122,109	0,080	0,073
-168,110	-200,000	0,023	0,232
-167,096	-4,059	-0,026	-0,013
-166,081	-200,000	0,013	0,073
-165,066	-25,762	-0,017	0,007
-164,052	58,386	-0,052	0,037
-163,037	72,943	0,094	0,071
-162,023	139,946	-0,028	0,027
-161,008	156,593	-0,124	0,125
-159,993	-200,000	0,016	0,112
-158,979	-200,000	-0,005	0,086
-157,964	-26,679	-0,194	-0,082
-156,950	64,773	0,074	-0,054
-155,935	-161,494	-0,119	0,004
-154,920	-100,554	0,078	0,014
-153,906	515,007	0,052	0,088
-152,891	-200,000	0,005	0,000
-151,877	252,353	-0,118	-0,146
-150,862	800,000	0,031	-0,065
-149,847	800,000	-0,043	-0,113
-148,833	109,888	0,098	-0,086
-147,818	-78,158	0,044	-0,011
-146,804	155,062	-0,031	-0,031
-145,789	-28,537	0,103	-0,043
-144,775	800,000	0,033	-0,095
-143,760	106,505	-0,126	-0,109
-142,745	-152,627	-0,079	-0,004
-141,731	800,000	0,052	0,110
-140,716	-105,757	-0,052	0,009
-139,702	-0,650	0,039	-0,020
-138,687	-110,581	0,150	0,022
-137,672	464,158	-0,034	-0,055
-136,658	800,000	-0,021	-0,052
-135,643	-98,383	-0,135	-0,025
-134,629	57,349	-0,100	-0,071
-133,614	-199,511	0,103	-0,000
-132,599	-94,291	0,174	0,034
-131,585	-83,350	0,046	-0,011
-130,570	-94,294	-0,096	0,019
-129,556	206,944	-0,054	0,061
-128,541	-9,100	-0,108	0,052
-127,526	424,361	0,150	0,235
-126,512	141,154	-0,036	-0,034
-125,497	435,633	0,054	-0,086
-124,483	-50,077	-0,039	-0,013
-123,468	-200,000	0,011	0,064
-122,453	800,000	-0,066	-0,143
-121,439	800,000	-0,057	-0,157
-120,424	-72,175	0,150	-0,040
-119,410	800,000	-0,002	0,006
-118,395	319,803	-0,060	0,083
-117,380	62,007	0,033	0,024
-116,366	-167,523	0,065	-0,002
-115,351	-167,541	-0,036	0,001
-114,337	800,000	-0,017	-0,050
-113,322	518,211	0,066	-0,112
-112,307	-30,948	-0,098	0,040
-111,293	-200,000	0,011	0,037
-110,278	-66,124	0,051	0,015
-109,264	3,904	-0,114	0,060
-108,249	-200,000	0,021	-0,121
-107,234	31,285	0,068	-0,042
-106,220	-17,827	0,024	0,011
-105,205	-62,657	-0,029	-0,009
-104,191	-140,202	0,114	0,009
-103,176	-200,000	0,012	0,086
-102,162	143,422	-0,082	-0,079
-101,147	-62,580	-0,106	-0,032
-100,132	-200,000	0,009	0,082
-99,118	800,000	-0,040	-0,111
-98,103	-200,000	-0,007	0,034
-97,089	359,257	0,021	-0,031
-96,074	-93,585	-0,165	-0,033
-95,059	-178,607	0,076	0,001
-94,045	800,000	-0,041	0,086
-93,030	-22,930	0,104	-0,045
-92,016	119,614	-0,030	0,027
-91,001	-200,000	-0,068	0,288
-89,986	161,790	0,081	0,082
-88,972	-151,810	0,013	0,001
-87,957	105,331	0,046	-0,039
-86,943	-200,000	0,004	0,096
-85,928	94,537	-0,025	0,021
-84,913	4,925	-0,120	-0,064
-83,899	-127,976	0,084	0,009
-82,884	230,954	0,032	0,038
-81,870	-38,756	-0,029	-0,011
-80,855	109,807	-0,134	0,116
-79,840	-200,000	0,008	0,038
-78,826	-200,000	-0,011	-0,195
-77,811	321,617	-0,050	-0,070
-76,797	-68,286	-0,029	-0,008
-75,782	-33,112	-0,045	-0,018
-74,767	387,594	0,107	0,161
-73,753	-21,689	-0,085	-0,037
-72,738	356,762	-0,086	0,124
-71,724	16,960	-0,010	0,006
-70,709	343,960	-0,077	-0,110
-69,694	-31,171	-0,033	0,013
-68,680	232,989	0,088	0,105
-67,665	-200,000	0,027	0,143
-66,651	-132,209	0,048	0,004
-65,636	-200,000	-0,003	-0,014
-64,622	-31,829	-0,152	0,062
-63,607	32,635	-0,071	-0,044
-62,592	159,798	0,062	0,062
-61,578	-27,890	0,129	0,054
-60,563	-200,000	-0,004	0,040
-59,549	800,000	-0,056	0,157
-58,534	-58,017	-1,587	-0,498
-57,519	655,479	-0,743	-1,386
-56,505	-200,000	-0,968	-4,622
-55,490	-125,335	0,780	0,085
-54,476	800,000	5,080	11,901
-53,461	-200,000	14,607	262,251
-52,446	-200,000	696,796	2239,372
-51,432	566,708	1621,505	2858,101
-50,417	118,964	1629,057	1456,540
-49,403	76,248	1283,250	981,943
-48,388	37,439	1022,367	654,385
-47,373	23,001	981,810	581,040
-46,359	22,107	971,230	571,832
-45,344	20,937	966,760	565,360
-44,330	20,900	965,452	564,450
-43,315	20,758	963,844	563,029
-42,300	20,699	962,845	562,231
-41,286	20,667	961,998	561,608
-40,271	20,660	960,825	560,878
-39,257	20,648	960,111	560,400
-38,242	20,631	959,400	559,911
-37,227	20,632	958,438	559,330
-36,213	20,625	957,330	558,636
-35,198	20,630	956,524	558,160
-34,184	20,717	955,809	558,002
-33,169	20,606	955,079	557,195
-32,154	20,717	953,999	556,902
-31,140	20,698	953,168	556,332
-30,125	20,722	952,323	555,896
-29,111	20,699	951,486	555,311
-28,096	20,649	950,879	554,775
-27,082	20,668	950,242	554,442
-26,067	20,676	949,363	553,932
-25,052	20,601	948,679	553,269
-24,038	20,704	947,796	553,062
-23,023	20,660	947,384	552,660
-22,009	20,691	946,598	552,279
-20,994	20,729	945,969	552,010
-19,979	20,642	945,510	551,443
-18,965	20,698	944,862	551,222
-17,950	20,643	944,192	550,634
-16,936	20,652	943,488	550,229
-15,921	20,613	942,752	549,656
-14,906	20,510	942,240	549,009
-13,892	20,570	941,525	548,759
-12,877	20,526	941,092	548,345
-11,863	20,442	940,471	547,697
-10,848	20,507	939,954	547,579
-9,833	20,654	939,361	547,678
-8,819	20,605	938,782	547,163
-7,804	20,555	938,113	546,593
-6,790	20,551	937,711	546,325
-5,775	20,545	937,141	545,953
-4,760	20,593	936,332	545,609
-3,746	20,605	935,707	545,263
-2,731	20,394	935,141	544,244
-1,717	20,363	934,334	543,656
-0,702	20,385	933,600	543,277
0,313	20,212	933,072	543,248
1,327	23,140	931,373	551,403
2,342	32,109	793,618	493,647
3,356	29,395	451,564	276,768
4,371	-0,148	296,576	152,037
5,386	-4,322	277,656	138,342
6,400	-5,688	272,027	134,245
7,415	-6,017	269,638	132,749
8,429	-5,841	268,369	132,275
9,444	-5,764	267,573	131,941
10,459	-5,852	266,820	131,478
11,473	-6,003	266,228	131,036
12,488	-5,965	265,664	130,782
13,502	-6,197	265,226	130,343
14,517	-6,191	264,738	130,096
15,531	-6,228	264,471	129,920
16,546	-6,309	264,016	129,611
17,561	-6,354	263,711	129,409
18,575	-6,035	263,326	129,498
19,590	-6,341	262,821	128,961
20,604	-6,208	262,807	129,063
21,619	-6,340	262,347	128,706
22,634	-6,121	262,056	128,750
23,648	-6,443	261,743	128,294
24,663	-6,254	261,501	128,335
25,677	-6,311	261,273	128,160
26,692	-6,355	261,012	127,981
27,707	-6,138	260,590	127,957
28,721	-6,149	260,509	127,896
29,736	-6,316	260,152	127,561
30,750	-6,424	259,796	127,278
31,765	-6,339	259,813	127,351
32,780	-6,266	259,587	127,294
33,794	-6,193	259,098	127,108
34,809	-6,439	259,005	126,831
35,823	-6,286	258,584	126,750
36,838	-6,296	258,436	126,658
37,853	-6,465	258,284	126,422
38,867	-6,560	258,057	126,215
39,882	-6,345	257,691	126,215
40,896	-6,474	257,480	125,987
41,911	-6,430	257,446	125,997
42,926	-6,447	257,210	125,856
43,940	-6,357	256,784	125,715
44,955	-6,554	256,661	125,471
45,969	-6,598	256,459	125,322
46,984	-6,616	256,176	125,156
47,999	-6,972	255,953	124,723
49,013	-7,181	255,548	124,332
50,028	-7,132	255,316	124,250
51,042	-7,170	255,199	124,149
52,057	-7,256	254,883	123,909
53,071	-7,151	254,529	123,818
54,086	-7,021	254,520	123,916
55,101	-6,902	254,278	123,891
56,115	-6,549	254,108	124,104
57,130	-6,272	254,076	124,320
58,144	-6,149	253,995	124,375
59,159	-6,051	253,743	124,326
60,174	-6,365	253,564	123,954
61,188	-6,098	253,359	124,075
62,203	-6,328	253,294	123,833
63,217	-5,995	252,842	123,890
64,232	-6,415	252,716	123,452
65,247	-6,060	252,554	123,670
66,261	-6,147	252,254	123,437
67,276	-6,392	252,031	123,105
68,290	-6,612	251,681	122,734
69,305	-6,553	251,423	122,647
70,320	-6,730	251,312	122,430
71,334	-6,426	251,274	122,662
72,349	-6,177	251,037	122,750
73,363	-6,245	251,043	122,683
74,378	-6,080	250,702	122,647
75,393	-6,299	250,385	122,293
76,407	-6,385	250,154	122,096
77,422	-6,331	249,994	122,053
78,436	-6,196	249,731	122,029
79,451	-6,259	249,634	121,917
80,466	-6,293	249,334	121,732
81,480	-6,432	248,924	121,402
82,495	-6,790	248,898	121,073
83,509	-6,553	248,815	121,224
84,524	-6,435	248,496	121,157
85,539	-6,780	248,315	120,766
86,553	-6,921	248,144	120,552
87,568	-6,536	247,912	120,755
88,582	-6,560	247,745	120,643
89,597	-6,409	247,404	120,594
90,611	-6,354	247,438	120,646
91,626	-6,195	247,179	120,643
92,641	-6,297	247,177	120,545
93,655	-6,607	246,994	120,183
94,670	-6,478	246,711	120,144
95,684	-6,598	246,638	119,996
96,699	-6,371	246,326	120,026
97,714	-6,748	246,158	119,615
98,728	-6,662	245,926	119,564
99,743	-6,835	245,723	119,309
100,757	-6,814	245,582	119,248
101,772	-6,549	245,281	119,314
102,787	-6,646	245,245	119,205
103,801	-6,501	245,153	119,271
104,816	-6,280	244,881	119,312
105,830	-6,171	244,615	119,262
106,845	-6,266	244,626	119,179
107,860	-6,180	244,357	119,108
108,874	-6,334	244,139	118,863
109,889	-6,508	243,895	118,589
110,903	-6,517	243,767	118,509
111,918	-6,711	243,719	118,314
112,933	-6,671	243,538	118,248
113,947	-6,543	243,288	118,222
114,962	-6,511	243,178	118,185
115,976	-6,228	242,985	118,316
116,991	-6,278	242,767	118,157
118,006	-6,369	242,510	117,946
119,020	-6,429	242,463	117,863
120,035	-6,466	242,389	117,787
121,049	-6,231	242,175	117,866
122,064	-6,104	241,978	117,865
123,079	-6,493	241,815	117,454
124,093	-6,670	241,654	117,219
125,108	-6,431	241,116	117,144
126,122	-6,906	241,076	116,724
127,137	-6,988	240,779	116,502
128,151	-6,888	240,685	116,528
129,166	-6,526	240,549	116,749
130,181	-6,644	240,293	116,517
131,195	-6,761	240,130	116,332
132,210	-6,456	240,083	116,549
133,224	-6,198	239,833	116,628
134,239	-6,345	239,699	116,432
135,254	-6,483	239,651	116,286
136,268	-6,622	239,335	116,009
137,283	-6,503	238,991	115,928
138,297	-6,838	238,849	115,577
139,312	-6,851	238,715	115,491
140,327	-6,414	238,499	115,732
141,341	-6,218	238,535	115,898
142,356	-5,930	238,386	116,049
143,370	-6,044	238,296	115,901
144,385	-5,972	238,257	115,931
145,400	-5,963	237,969	115,788
146,414	-6,036	237,840	115,655
147,429	-5,984	237,509	115,527
148,443	-5,950	237,343	115,463
149,458	-6,072	237,193	115,281
150,473	-6,017	237,033	115,238
151,487	-6,229	237,019	115,049
152,502	-6,130	236,784	115,005
153,516	-6,006	236,488	114,950
154,531	-6,141	236,464	114,820
155,546	-6,055	236,280	114,790
156,560	-6,125	235,951	114,564
157,575	-6,222	235,887	114,445
158,589	-6,173	235,620	114,344
159,604	-5,905	235,485	114,483
160,619	-5,834	235,451	114,512
161,633	-6,045	235,309	114,265
162,648	-5,987	235,145	114,221
163,662	-5,954	234,890	114,114
164,677	-6,249	234,790	113,820
165,692	-6,006	234,672	113,946
166,706	-6,036	234,518	113,837
167,721	-6,085	234,475	113,767
168,735	-5,912	234,106	113,715
169,750	-5,859	234,191	113,789
170,764	-5,910	233,829	113,562
171,779	-6,029	233,690	113,390
172,794	-5,916	233,691	113,470
173,808	-6,121	233,397	113,155
174,823	-6,538	233,019	112,631
175,837	-6,474	232,772	112,553
176,852	-6,201	232,845	112,794
177,867	-5,871	232,636	112,943
178,881	-5,794	232,636	112,993
179,896	-5,839	232,479	112,871
180,910	-5,860	232,196	112,708
181,925	-6,003	232,201	112,587
182,940	-5,771	231,985	112,655
183,954	-5,614	231,807	112,682
184,969	-6,024	231,773	112,334
185,983	-5,719	231,621	112,489
186,998	-5,682	231,314	112,359
188,013	-5,745	231,248	112,268
189,027	-5,792	231,236	112,215
190,042	-5,790	230,955	112,070
191,056	-5,770	230,755	111,978
192,071	-5,730	230,628	111,938
193,086	-5,789	230,457	111,799
194,100	-5,780	230,328	111,733
195,115	-5,785	229,984	111,553
196,129	-6,223	229,763	111,095
197,144	-3,503	230,573	113,600
198,159	1,066	231,943	117,844
199,173	3,537	232,700	120,155
200,188	3,894	232,641	120,394
201,202	3,969	232,524	120,381
202,217	4,153	232,299	120,398
203,232	4,382	232,107	120,467
204,246	4,163	232,240	120,354
205,261	4,334	232,073	120,390
206,275	4,431	232,036	120,436
207,290	4,442	231,811	120,317
208,304	4,557	231,530	120,250
209,319	4,302	231,439	119,994
210,334	4,348	231,278	119,935
211,348	4,221	230,972	119,667
212,363	3,849	230,755	119,255
213,377	3,537	230,438	118,839
214,392	3,464	230,368	118,736
215,407	3,746	230,201	118,858
216,421	3,523	230,220	118,685
217,436	3,698	229,961	118,675
218,450	3,384	229,661	118,267
219,465	3,356	229,430	118,117
220,480	3,552	229,450	118,267
221,494	3,462	229,273	118,096
222,509	3,643	229,045	118,107
223,523	3,400	228,980	117,877
224,538	3,473	228,777	117,817
225,553	3,683	228,761	117,960
226,567	3,653	228,602	117,845
227,582	3,862	228,585	117,986
228,596	4,133	228,365	118,069
229,611	3,708	228,176	117,636
230,626	3,433	227,810	117,226
231,640	3,529	227,755	117,261
232,655	3,884	227,568	117,425
233,669	4,337	227,696	117,827
234,684	4,340	227,555	117,746
235,699	3,910	227,347	117,299
236,713	3,896	227,177	117,190
237,728	3,518	226,977	116,789
238,742	3,556	226,682	116,657
239,757	3,668	226,557	116,667
240,772	3,707	226,326	116,567
241,786	3,436	226,259	116,316
242,801	3,663	226,236	116,466
243,815	3,861	226,290	116,634
244,830	3,994	226,032	116,591
245,844	3,652	225,770	116,187
246,859	3,782	225,580	116,177
247,874	3,893	225,527	116,223
248,888	3,933	225,504	116,231
249,903	3,716	225,115	115,857
250,917	3,831	225,099	115,925
251,932	3,690	224,795	115,652
252,947	3,406	224,785	115,422
253,961	3,459	224,519	115,315
254,976	3,456	224,522	115,304
255,990	3,700	224,314	115,371
257,005	4,066	224,217	115,585
258,020	3,936	224,133	115,434
259,034	4,153	224,033	115,535
260,049	4,052	223,756	115,307
261,063	4,011	223,605	115,188
262,078	4,237	223,470	115,277
263,093	4,142	223,450	115,185
264,107	3,956	223,297	114,957
265,122	4,060	223,096	114,921
266,136	4,073	223,072	114,908
267,151	3,996	222,925	114,765
268,166	3,595	222,619	114,298
269,180	3,561	222,274	114,085
270,195	3,633	222,188	114,084
271,209	3,545	222,055	113,941
272,224	3,536	222,096	113,944
273,239	3,687	221,829	113,910
274,253	3,733	221,775	113,906
275,268	3,561	221,447	113,600
276,282	3,338	221,341	113,370
277,297	3,110	221,228	113,134
278,312	3,343	221,213	113,289
279,326	3,562	220,994	113,328
280,341	3,723	220,906	113,392
281,355	3,847	220,730	113,383
282,370	3,519	220,547	113,037
283,384	3,440	220,234	112,808
284,399	3,291	220,156	112,648
285,414	3,265	220,013	112,547
286,428	3,706	219,967	112,837
287,443	3,698	220,056	112,867
288,457	3,953	219,764	112,894
289,472	3,678	219,595	112,595
290,487	3,209	219,208	112,043
291,501	3,415	219,107	112,133
292,516	3,357	219,082	112,067
293,530	3,630	218,929	112,179
294,545	3,201	218,930	111,856
295,560	3,725	218,710	112,116
296,574	3,718	218,580	112,034
297,589	3,514	218,480	111,824
298,603	3,728	218,399	111,928
299,618	3,826	218,275	111,926
300,633	3,757	218,050	111,751
301,647	3,692	218,204	111,772
302,662	3,649	217,917	111,585
303,676	4,004	217,671	111,706
304,691	3,758	217,534	111,447
305,706	3,827	217,329	111,382
306,720	3,628	217,173	111,149
307,735	3,891	217,057	111,269
308,749	3,776	216,950	111,122
309,764	3,890	216,853	111,144
310,779	4,084	216,544	111,116
311,793	3,797	216,475	110,864
312,808	3,669	216,445	110,746
313,822	3,545	216,358	110,602
314,837	3,646	216,163	110,566
315,852	3,495	215,833	110,278
316,866	3,628	215,833	110,364
317,881	4,223	215,631	110,678
318,895	4,013	215,638	110,521
319,910	3,859	215,504	110,332
320,925	3,285	215,212	109,761
321,939	3,054	215,099	109,528
322,954	3,037	215,011	109,462
323,968	3,993	214,805	110,031
324,983	3,847	214,945	109,988
325,997	3,770	214,768	109,832
327,012	3,880	214,441	109,734
328,027	3,854	214,344	109,657
329,041	4,206	214,303	109,877
330,056	4,203	214,085	109,753
331,070	3,904	213,955	109,464
332,085	3,468	213,752	109,040
333,100	3,570	213,648	109,049
334,114	3,671	213,469	109,020
335,129	3,929	213,329	109,122
336,143	3,560	213,207	108,788
337,158	3,800	213,176	108,933
338,173	3,666	212,933	108,704
339,187	3,354	212,832	108,422
340,202	3,557	212,523	108,399
341,216	3,391	212,442	108,230
342,231	3,283	212,354	108,099
343,246	3,410	212,263	108,133
344,260	3,138	212,124	107,861
345,275	3,567	212,115	108,149
346,289	3,770	211,927	108,187
347,304	3,737	211,778	108,078
348,319	3,596	211,581	107,868
349,333	3,926	211,492	108,046
350,348	3,957	211,371	107,995
351,362	4,076	211,225	107,995
352,377	4,075	211,150	107,946
353,392	3,797	210,916	107,623
354,406	3,808	210,774	107,548
355,421	195,030	1343,319	1431,001
356,435	155,741	1481,376	1431,092
