DTS Sentinel unit serial number:	SN410029Multiplexer serial number:	ORYXHardware model number:	OX2-SRSoftware version number:	ORYX F/W v4,00 Oryx Data Collector v3.7.2.0data status	okinstallation	B6 Nyhavnadifferential loss correction	single-endedforward channel	channel 2reverse channel	N/Adate	2023/12/10time	14:50:08forward acquisition time	300,00reverse acquisition time	0,00gamma	499,1914k internal	0,3122k external	0,3122temperature offset calibration	1,0000default loss term (dB/km)	0,3820temperature slope calibration	1,0000multiplexer offset coefficient	1,0000multiplexer slope coefficient	1,0000fibre end	0,00T internal ref (°C)	22,56T ext. ref 1 (°C)	6,02T ext. ref 2 (°C)	6,01length (m)	temperature (°C)	Stokes	anti-Stokes-744,400	183,574	0,066	0,073
-743,385	35,072	-0,133	0,086
-742,371	-200,000	0,023	-0,094
-741,356	-200,000	-0,024	0,222
-740,342	24,744	0,047	-0,029
-739,327	82,048	-0,245	0,198
-738,312	321,455	-0,042	-0,060
-737,298	-114,923	-0,260	0,036
-736,283	282,440	0,025	0,034
-735,269	-51,513	-0,264	0,091
-734,254	300,375	-0,066	-0,091
-733,239	-59,808	-0,352	-0,112
-732,225	235,409	0,147	-0,182
-731,210	-200,000	-0,021	0,079
-730,196	-80,749	0,116	-0,029
-729,181	3,074	-0,089	0,048
-728,167	224,331	-0,021	0,025
-727,152	-200,000	0,038	-0,139
-726,137	-46,448	-0,099	-0,036
-725,123	-200,000	0,011	-0,183
-724,108	98,165	-0,130	-0,111
-723,094	800,000	0,046	-0,116
-722,079	71,695	-0,201	-0,155
-721,064	-200,000	-0,043	-0,221
-720,050	188,380	-0,056	-0,063
-719,035	-107,331	-0,100	-0,016
-718,021	-99,092	-0,054	0,010
-717,006	-75,009	0,041	-0,011
-715,991	-200,000	0,008	0,103
-714,977	218,647	-0,083	-0,099
-713,962	289,041	-0,062	-0,084
-712,948	-18,642	0,060	0,028
-711,933	-34,063	-0,109	0,044
-710,918	800,000	0,012	-0,034
-709,904	59,009	0,033	0,024
-708,889	-35,481	-0,114	-0,046
-707,875	-200,000	-0,032	-0,295
-706,860	97,732	0,022	0,019
-705,845	24,069	0,040	-0,025
-704,831	133,272	0,036	-0,035
-703,816	170,213	-0,058	-0,062
-702,802	133,497	-0,124	-0,120
-701,787	-163,525	0,019	-0,001
-700,772	119,233	-0,102	-0,094
-699,758	-200,000	-0,002	-0,061
-698,743	-200,000	-0,017	0,188
-697,729	-142,031	0,071	-0,005
-696,714	800,000	0,059	-0,159
-695,699	-121,362	-0,098	-0,012
-694,685	-200,000	0,001	-0,097
-693,670	-8,538	-0,060	-0,030
-692,656	-18,793	0,122	-0,056
-691,641	586,636	0,044	-0,080
-690,627	795,406	0,022	0,045
-689,612	368,143	0,036	0,055
-688,597	28,887	0,057	0,036
-687,583	-133,737	-0,095	0,009
-686,568	-200,000	-0,044	-0,174
-685,554	127,081	0,093	-0,088
-684,539	162,500	0,057	0,060
-683,524	-81,560	0,117	0,028
-682,510	800,000	-0,024	-0,060
-681,495	800,000	0,019	0,049
-680,481	-200,000	0,019	-0,093
-679,466	-118,491	-0,141	-0,018
-678,451	242,075	0,049	-0,061
-677,437	44,504	-0,060	-0,041
-676,422	227,874	-0,053	0,064
-675,408	170,845	0,005	0,005
-674,393	-200,000	0,012	-0,068
-673,378	78,218	-0,123	-0,097
-672,364	-200,000	0,043	0,158
-671,349	178,092	0,091	0,098
-670,335	515,846	0,077	-0,134
-669,320	-67,533	-0,121	0,035
-668,305	800,000	-0,021	0,061
-667,291	-140,723	-0,110	-0,008
-666,276	576,803	-0,108	-0,197
-665,262	175,498	-0,114	-0,122
-664,247	149,825	-0,046	-0,046
-663,232	-106,323	-0,106	0,017
-662,218	-99,545	-0,044	0,008
-661,203	-200,000	-0,020	0,082
-660,189	-187,075	0,185	0,002
-659,174	-200,000	-0,011	-0,060
-658,159	-97,862	-0,060	0,011
-657,145	-22,460	-0,023	-0,010
-656,130	800,000	0,049	-0,137
-655,116	-200,000	0,001	0,094
-654,101	459,594	0,015	-0,025
-653,086	-41,911	-0,206	-0,078
-652,072	161,513	0,050	0,052
-651,057	-117,691	0,044	0,006
-650,043	-121,285	-0,100	0,012
-649,028	-62,773	-0,094	-0,029
-648,014	175,766	0,044	-0,048
-646,999	256,378	0,033	-0,042
-645,984	-62,728	-0,037	-0,011
-644,970	-200,000	0,012	-0,098
-643,955	-200,000	-0,012	-0,064
-642,941	156,412	-0,062	-0,063
-641,926	82,724	-0,025	0,020
-640,911	-6,269	0,054	0,027
-639,897	-24,959	0,101	0,044
-638,882	366,295	-0,083	0,124
-637,868	30,108	0,064	0,040
-636,853	-112,264	-0,154	0,023
-635,838	-138,581	-0,235	-0,019
-634,824	118,267	0,048	-0,044
-633,809	800,000	-0,039	0,086
-632,795	800,000	0,032	-0,075
-631,780	-200,000	0,009	0,029
-630,765	-116,270	0,125	-0,017
-629,751	-124,221	-0,165	-0,019
-628,736	111,964	-0,052	-0,047
-627,722	4,453	0,109	-0,059
-626,707	123,140	0,073	-0,068
-625,692	-74,252	0,091	-0,024
-624,678	-76,686	-0,082	-0,021
-623,663	-200,000	-0,014	-0,048
-622,649	287,592	-0,061	-0,082
-621,634	189,055	-0,087	-0,097
-620,619	800,000	-0,062	-0,138
-619,605	54,918	0,200	0,143
-618,590	-68,471	-0,093	0,027
-617,576	-200,000	0,008	-0,074
-616,561	19,679	-0,144	0,086
-615,546	56,726	-0,041	-0,029
-614,532	800,000	-0,066	-0,167
-613,517	-200,000	0,005	0,060
-612,503	800,000	-0,024	-0,055
-611,488	-139,195	0,103	0,008
-610,474	1,035	-0,028	-0,015
-609,459	-86,015	0,093	-0,021
-608,444	0,646	-0,061	-0,033
-607,430	-162,916	-0,058	-0,002
-606,415	17,391	-0,083	-0,049
-605,401	115,308	0,024	-0,021
-604,386	-200,000	-0,025	-0,082
-603,371	-32,111	0,070	0,029
-602,357	587,167	-0,012	-0,022
-601,342	-200,000	0,036	-0,243
-600,328	800,000	0,031	-0,086
-599,313	58,006	0,018	0,013
-598,298	131,512	0,087	-0,083
-597,284	800,000	0,026	-0,069
-596,269	800,000	-0,049	0,116
-595,255	-11,455	0,105	0,051
-594,240	297,550	-0,101	-0,138
-593,225	-60,455	-0,050	0,016
-592,211	359,292	-0,093	-0,139
-591,196	-128,981	0,091	0,009
-590,182	800,000	-0,040	-0,093
-589,167	-200,000	0,012	-0,127
-588,152	-200,000	-0,011	0,118
-587,138	152,840	0,098	-0,099
-586,123	-200,000	0,027	0,114
-585,109	-25,908	-0,121	0,052
-584,094	-75,885	-0,029	0,008
-583,079	222,607	0,016	-0,019
-582,065	-141,410	0,095	-0,007
-581,050	-200,000	0,033	0,174
-580,036	-44,582	0,078	-0,029
-579,021	-200,000	-0,001	-0,194
-578,006	800,000	-0,015	0,046
-576,992	385,717	0,012	-0,018
-575,977	35,320	0,132	-0,086
-574,963	-200,000	0,014	-0,128
-573,948	126,152	-0,054	0,050
-572,934	-119,473	0,082	-0,010
-571,919	-200,000	-0,005	-0,036
-570,904	-115,256	-0,116	-0,016
-569,890	-130,277	-0,165	0,016
-568,875	-31,214	0,051	0,021
-567,861	294,163	0,028	0,038
-566,846	50,747	-0,080	-0,056
-565,831	232,901	-0,028	-0,034
-564,817	-200,000	-0,021	-0,091
-563,802	592,149	-0,064	-0,117
-562,788	7,031	-0,104	0,057
-561,773	-200,000	-0,008	0,095
-560,758	800,000	-0,010	-0,023
-559,744	-46,727	-0,096	0,035
-558,729	-98,301	0,150	-0,028
-557,715	10,656	0,095	-0,053
-556,700	63,716	-0,096	-0,071
-555,685	-97,879	-0,073	-0,014
-554,671	-45,147	0,081	0,030
-553,656	-200,000	0,015	0,063
-552,642	-200,000	-0,008	0,027
-551,627	800,000	-0,021	0,053
-550,612	419,432	0,070	0,112
-549,598	-160,878	-0,087	0,003
-548,583	-134,174	0,053	-0,005
-547,569	-74,346	-0,017	0,004
-546,554	21,015	0,199	-0,119
-545,539	-200,000	0,017	-0,142
-544,525	101,928	-0,077	-0,066
-543,510	243,619	0,040	0,050
-542,496	-200,000	0,010	-0,074
-541,481	250,807	0,018	-0,023
-540,466	-60,835	-0,072	-0,022
-539,452	800,000	0,061	0,163
-538,437	97,378	-0,143	0,121
-537,423	218,995	-0,081	0,096
-536,408	-20,045	0,007	-0,003
-535,393	46,021	-0,110	0,075
-534,379	132,327	-0,096	-0,092
-533,364	91,066	0,075	0,062
-532,350	-103,813	-0,049	-0,008
-531,335	184,865	-0,074	0,081
-530,321	73,422	-0,054	-0,042
-529,306	267,939	-0,045	-0,059
-528,291	713,525	-0,027	0,053
-527,277	142,775	-0,167	-0,164
-526,262	140,793	-0,117	-0,114
-525,248	800,000	-0,058	-0,156
-524,233	58,822	0,024	0,017
-523,218	89,763	-0,038	-0,031
-522,204	255,367	0,029	0,036
-521,189	-53,671	-0,138	-0,046
-520,175	-73,626	0,064	-0,017
-519,160	-200,000	0,017	0,081
-518,145	800,000	-0,007	-0,020
-517,131	-200,000	-0,008	0,068
-516,116	274,717	0,059	0,077
-515,102	-127,780	-0,111	0,012
-514,087	22,804	-0,191	-0,115
-513,072	-89,274	0,064	0,014
-512,058	-99,511	-0,063	0,012
-511,043	-66,229	-0,139	-0,040
-510,029	-13,559	-0,038	-0,018
-509,014	-63,590	0,166	-0,050
-507,999	-200,000	-0,004	0,059
-506,985	-28,622	-0,068	-0,029
-505,970	431,854	-0,088	-0,141
-504,956	-200,000	-0,009	-0,132
-503,941	-47,125	0,018	0,006
-502,926	-200,000	0,005	0,021
-501,912	-200,000	-0,007	0,110
-500,897	-200,000	0,024	0,095
-499,883	260,551	0,051	0,065
-498,868	800,000	0,026	0,070
-497,853	-23,680	-0,140	-0,062
-496,839	218,877	0,070	-0,083
-495,824	-41,663	-0,034	0,013
-494,810	306,990	-0,045	0,063
-493,795	-174,864	-0,037	0,001
-492,781	-200,000	0,014	0,060
-491,766	-117,257	-0,170	0,023
-490,751	95,338	0,081	0,068
-489,737	-82,151	-0,197	0,047
-488,722	262,403	0,079	0,102
-487,708	64,049	0,070	-0,052
-486,693	1,357	0,109	-0,058
-485,678	128,980	0,044	-0,041
-484,664	28,992	-0,085	0,053
-483,649	356,343	-0,011	-0,017
-482,635	-200,000	-0,002	-0,059
-481,620	-53,708	0,117	0,039
-480,605	151,712	-0,062	0,063
-479,591	-200,000	-0,017	0,110
-478,576	-8,019	0,135	-0,067
-477,562	446,806	0,064	-0,105
-476,547	-75,342	-0,034	-0,009
-475,532	800,000	-0,058	0,120
-474,518	-200,000	-0,001	0,056
-473,503	800,000	0,014	0,045
-472,489	98,521	-0,068	0,058
-471,474	-49,962	-0,073	-0,025
-470,459	-200,000	-0,006	0,078
-469,445	-0,434	0,071	-0,037
-468,430	-20,901	0,028	0,013
-467,416	282,867	-0,045	-0,060
-466,401	146,084	0,094	-0,093
-465,386	7,632	-0,068	-0,037
-464,372	252,219	0,050	0,063
-463,357	223,863	-0,078	0,093
-462,343	800,000	0,025	-0,058
-461,328	-200,000	-0,002	-0,011
-460,313	143,075	0,051	0,050
-459,299	800,000	-0,022	0,068
-458,284	-106,312	0,160	-0,026
-457,270	-72,181	0,050	-0,014
-456,255	5,816	-0,130	-0,071
-455,241	327,753	-0,047	-0,066
-454,226	-200,000	0,001	0,123
-453,211	-105,736	0,063	-0,010
-452,197	258,555	-0,011	-0,014
-451,182	-200,000	0,012	0,146
-450,168	250,737	0,111	0,140
-449,153	-162,589	0,100	0,004
-448,138	86,355	-0,097	0,078
-447,124	-141,765	-0,088	0,006
-446,109	-20,754	-0,104	-0,047
-445,095	-40,524	0,081	0,031
-444,080	800,000	0,040	0,108
-443,065	271,338	0,083	0,108
-442,051	154,718	-0,097	-0,098
-441,036	-16,505	-0,070	0,033
-440,022	564,771	-0,031	-0,056
-439,007	36,289	-0,122	0,079
-437,992	74,201	-0,128	0,099
-436,978	-200,000	0,014	0,056
-435,963	288,172	0,030	0,040
-434,949	440,124	0,114	0,185
-433,934	-132,100	-0,018	-0,002
-432,919	-112,610	0,076	-0,011
-431,905	-200,000	-0,025	-0,169
-430,890	-17,015	-0,094	0,044
-429,876	800,000	-0,046	-0,105
-428,861	433,403	-0,036	-0,058
-427,846	800,000	0,040	-0,114
-426,832	800,000	-0,043	-0,107
-425,817	469,177	-0,052	-0,087
-424,803	-71,876	-0,040	0,011
-423,788	64,862	0,039	-0,029
-422,773	75,572	0,060	0,046
-421,759	-200,000	-0,000	0,045
-420,744	33,231	0,131	0,084
-419,730	-200,000	-0,010	-0,108
-418,715	59,100	-0,082	0,059
-417,701	-173,488	-0,115	-0,002
-416,686	-200,000	0,012	0,046
-415,671	-200,000	0,003	-0,059
-414,657	-200,000	-0,005	-0,067
-413,642	-100,654	-0,085	0,015
-412,628	-200,000	0,015	0,062
-411,613	150,631	0,061	-0,061
-410,598	-200,000	0,012	-0,139
-409,584	199,064	0,047	-0,053
-408,569	458,070	0,043	0,070
-407,555	800,000	0,034	0,077
-406,540	-200,000	-0,004	-0,016
-405,525	-19,916	-0,089	-0,040
-404,511	-200,000	-0,010	0,061
-403,496	-13,194	0,058	-0,028
-402,482	800,000	0,031	0,079
-401,467	179,409	0,074	0,079
-400,452	550,262	-0,046	0,082
-399,438	44,900	0,057	-0,038
-398,423	-200,000	-0,002	-0,025
-397,409	-200,000	-0,012	-0,104
-396,394	-28,301	0,133	0,056
-395,379	-50,745	0,073	0,025
-394,365	800,000	0,040	0,086
-393,350	-68,427	-0,070	0,020
-392,336	61,235	0,075	0,055
-391,321	800,000	0,005	-0,013
-390,306	-63,467	-0,047	-0,014
-389,292	-200,000	-0,002	-0,067
-388,277	-200,000	0,017	0,068
-387,263	-28,876	0,032	-0,014
-386,248	-200,000	0,015	-0,066
-385,233	-200,000	-0,007	-0,048
-384,219	-1,060	0,075	0,039
-383,204	-200,000	0,007	-0,034
-382,190	800,000	-0,068	-0,176
-381,175	-200,000	-0,025	-0,102
-380,160	314,588	-0,022	0,030
-379,146	318,499	0,045	0,063
-378,131	-200,000	0,012	-0,044
-377,117	-48,629	0,069	-0,024
-376,102	19,928	-0,098	0,058
-375,088	31,989	-0,068	-0,043
-374,073	178,857	0,066	-0,071
-373,058	-200,000	0,006	-0,060
-372,044	-125,618	0,114	-0,013
-371,029	700,715	0,037	0,072
-370,015	-4,886	0,097	-0,049
-369,000	323,485	0,112	-0,158
-367,985	800,000	-0,021	-0,048
-366,971	212,327	0,046	-0,053
-365,956	-74,126	0,058	-0,015
-364,942	-63,048	0,193	-0,058
-363,927	76,359	-0,051	0,039
-362,912	146,669	-0,021	0,020
-361,898	-65,437	-0,118	-0,035
-360,883	-200,000	-0,022	0,094
-359,869	147,821	-0,098	0,098
-358,854	8,545	-0,052	-0,028
-357,839	320,698	0,091	0,128
-356,825	-66,949	0,091	0,026
-355,810	800,000	0,015	-0,047
-354,796	800,000	0,021	0,059
-353,781	334,807	0,039	0,055
-352,766	109,800	0,026	-0,023
-351,752	209,382	-0,037	-0,042
-350,737	210,950	-0,019	-0,022
-349,723	7,759	-0,026	0,014
-348,708	78,158	0,082	-0,064
-347,693	-122,640	-0,145	-0,017
-346,679	-200,000	-0,016	0,053
-345,664	-165,159	0,031	0,001
-344,650	800,000	0,019	0,059
-343,635	-200,000	-0,002	0,067
-342,620	543,830	0,048	-0,084
-341,606	-200,000	0,018	-0,081
-340,591	-200,000	0,009	-0,032
-339,577	515,036	-0,018	0,031
-338,562	78,569	-0,040	-0,031
-337,548	176,542	-0,028	-0,030
-336,533	-12,323	0,058	0,028
-335,518	19,148	0,054	-0,032
-334,504	193,297	0,041	0,046
-333,489	19,098	-0,049	-0,029
-332,475	418,921	-0,044	-0,069
-331,460	-138,693	-0,081	0,006
-330,445	156,348	-0,079	0,080
-329,431	58,606	0,076	-0,054
-328,416	-53,759	0,037	-0,012
-327,402	772,470	-0,012	-0,025
-326,387	-200,000	-0,020	-0,070
-325,372	342,012	-0,013	-0,018
-324,358	53,481	-0,023	0,016
-323,343	615,961	0,069	-0,127
-322,329	-125,093	-0,163	0,018
-321,314	-110,712	-0,073	-0,011
-320,299	270,201	-0,030	-0,038
-319,285	-200,000	-0,005	-0,159
-318,270	-34,592	0,043	-0,017
-317,256	800,000	-0,042	-0,120
-316,241	-41,051	-0,100	0,038
-315,226	14,852	-0,072	-0,041
-314,212	-68,182	-0,055	0,016
-313,197	119,609	0,124	0,113
-312,183	-110,574	0,069	-0,010
-311,168	-29,664	-0,156	-0,065
-310,153	-171,337	-0,143	0,003
-309,139	800,000	0,054	-0,113
-308,124	800,000	0,073	0,178
-307,110	-71,854	0,084	0,023
-306,095	-66,462	0,027	-0,008
-305,080	-80,812	0,166	0,040
-304,066	269,716	0,113	0,146
-303,051	110,082	-0,063	-0,056
-302,037	336,486	0,094	-0,134
-301,022	-176,174	0,029	0,001
-300,008	541,917	0,062	0,109
-298,993	199,280	0,030	0,034
-297,978	212,416	0,068	0,079
-296,964	-200,000	0,011	0,147
-295,949	138,974	0,121	0,116
-294,935	-200,000	-0,029	-0,147
-293,920	16,310	-0,091	0,052
-292,905	800,000	0,018	0,051
-291,891	-200,000	-0,002	0,016
-290,876	-60,312	-0,105	0,033
-289,862	52,552	-0,113	-0,079
-288,847	258,294	0,055	-0,070
-287,832	86,101	0,072	0,058
-286,818	792,527	0,061	-0,124
-285,803	800,000	-0,075	0,160
-284,789	92,229	0,111	0,091
-283,774	-56,895	0,105	-0,034
-282,759	445,282	-0,029	0,046
-281,745	-48,503	0,098	-0,034
-280,730	176,449	-0,023	0,024
-279,716	108,086	-0,014	-0,012
-278,701	-200,000	-0,020	0,092
-277,686	21,309	0,148	0,088
-276,672	85,480	0,102	0,082
-275,657	17,130	0,052	-0,030
-274,643	-175,621	0,056	0,001
-273,628	-200,000	0,018	0,075
-272,613	-200,000	0,016	-0,138
-271,599	800,000	-0,038	-0,080
-270,584	-51,576	-0,043	-0,014
-269,570	800,000	-0,034	0,090
-268,555	-113,582	0,100	-0,014
-267,540	-200,000	-0,032	-0,117
-266,526	36,942	-0,057	-0,037
-265,511	-200,000	0,014	-0,098
-264,497	-138,093	0,206	-0,017
-263,482	800,000	0,015	0,045
-262,467	800,000	0,051	0,116
-261,453	-200,000	-0,038	0,132
-260,438	-16,168	0,055	0,025
-259,424	13,585	0,138	0,078
-258,409	800,000	0,043	0,109
-257,395	-4,491	0,087	0,044
-256,380	101,256	0,109	0,093
-255,365	-200,000	-0,001	-0,060
-254,351	248,136	0,046	0,057
-253,336	-159,634	0,046	-0,002
-252,322	71,629	-0,111	-0,084
-251,307	-28,856	0,076	-0,032
-250,292	111,807	-0,062	-0,055
-249,278	-7,524	0,067	-0,033
-248,263	82,553	0,134	0,106
-247,249	277,680	-0,068	0,089
-246,234	43,664	-0,120	0,080
-245,219	-200,000	0,017	0,146
-244,205	75,221	-0,105	0,081
-243,190	59,520	0,142	-0,102
-242,176	-143,243	0,111	-0,008
-241,161	-200,000	0,003	-0,024
-240,146	84,142	-0,033	0,026
-239,132	-102,331	-0,065	-0,011
-238,117	-51,229	-0,131	0,044
-237,103	377,372	-0,021	-0,031
-236,088	-72,502	-0,042	-0,011
-235,073	278,539	0,046	0,060
-234,059	601,904	-0,034	-0,062
-233,044	-200,000	-0,025	-0,176
-232,030	-158,103	-0,095	0,004
-231,015	67,126	-0,099	-0,074
-230,000	-76,490	-0,075	0,019
-228,986	-68,209	0,028	0,008
-227,971	-84,675	0,047	-0,011
-226,957	337,899	0,052	0,074
-225,942	459,505	0,049	0,080
-224,927	800,000	0,024	0,051
-223,913	-158,297	0,119	0,005
-222,898	684,875	-0,040	-0,077
-221,884	629,580	-0,057	-0,105
-220,869	-162,612	0,132	-0,005
-219,855	-24,191	0,087	-0,038
-218,840	286,774	0,040	0,053
-217,825	-200,000	0,035	0,131
-216,811	11,960	-0,046	0,026
-215,796	-68,267	0,078	-0,022
-214,782	-200,000	0,015	-0,076
-213,767	800,000	-0,016	-0,043
-212,752	-200,000	-0,017	0,076
-211,738	-97,673	0,075	0,014
-210,723	800,000	-0,047	0,143
-209,709	-143,721	-0,044	-0,003
-208,694	12,775	-0,039	0,022
-207,679	449,567	-0,072	0,116
-206,665	-200,000	-0,023	0,092
-205,650	800,000	-0,012	-0,026
-204,636	-26,594	0,114	0,048
-203,621	-200,000	-0,029	0,098
-202,606	143,717	-0,046	0,045
-201,592	471,160	-0,045	-0,075
-200,577	-200,000	0,022	0,083
-199,563	-11,660	-0,069	0,033
-198,548	-200,000	0,040	0,181
-197,533	158,000	0,091	0,092
-196,519	-20,034	0,051	-0,023
-195,504	59,771	-0,101	-0,073
-194,490	-16,607	-0,094	-0,043
-193,475	800,000	0,035	-0,098
-192,460	-200,000	-0,012	0,042
-191,446	-68,952	0,113	-0,032
-190,431	-93,746	-0,029	-0,006
-189,417	-200,000	0,016	0,142
-188,402	186,443	-0,054	0,059
-187,387	-70,453	-0,063	0,017
-186,373	-200,000	-0,014	-0,112
-185,358	63,410	-0,025	-0,018
-184,344	-48,695	0,081	0,028
-183,329	-88,372	-0,051	-0,011
-182,315	-200,000	0,012	0,047
-181,300	262,541	-0,123	-0,156
-180,285	-37,263	-0,166	0,064
-179,271	-115,464	-0,025	0,003
-178,256	-85,509	0,085	0,019
-177,242	800,000	-0,031	0,084
-176,227	-52,502	-0,126	0,042
-175,212	-142,614	-0,048	-0,003
-174,198	-21,257	0,073	-0,032
-173,183	57,647	0,055	0,039
-172,169	-200,000	0,007	0,024
-171,154	-152,195	-0,081	-0,004
-170,139	-200,000	0,020	0,132
-169,125	81,673	0,025	-0,020
-168,110	-32,176	0,149	0,060
-167,096	128,505	-0,052	0,048
-166,081	-200,000	-0,007	-0,032
-165,066	-200,000	0,009	-0,033
-164,052	-200,000	0,002	0,028
-163,037	25,488	-0,055	-0,033
-162,023	19,402	0,116	0,067
-161,008	-111,934	0,139	0,020
-159,993	2,446	0,127	0,067
-158,979	165,307	-0,073	0,075
-157,964	96,632	-0,113	-0,094
-156,950	141,913	0,018	-0,017
-155,935	800,000	0,024	-0,056
-154,920	41,857	0,066	0,043
-153,906	-27,581	0,072	0,030
-152,891	-200,000	-0,005	-0,085
-151,877	247,636	-0,102	0,126
-150,862	-200,000	-0,005	-0,146
-149,847	800,000	0,027	-0,067
-148,833	-200,000	0,002	-0,097
-147,818	96,937	-0,091	0,076
-146,804	63,599	-0,089	-0,065
-145,789	-200,000	0,000	0,016
-144,775	26,319	-0,080	0,048
-143,760	800,000	-0,032	0,096
-142,745	-200,000	0,046	0,179
-141,731	-200,000	0,001	0,160
-140,716	-200,000	0,007	-0,114
-139,702	800,000	0,022	0,067
-138,687	-19,979	0,050	0,022
-137,672	-200,000	0,014	0,081
-136,658	645,299	-0,060	-0,112
-135,643	621,292	-0,024	-0,044
-134,629	800,000	0,032	-0,079
-133,614	-9,177	-0,052	0,025
-132,599	-9,079	0,080	-0,039
-131,585	67,270	0,067	0,050
-130,570	-35,777	-0,060	-0,024
-129,556	-200,000	0,003	0,037
-128,541	226,304	-0,013	0,016
-127,526	-200,000	0,031	0,106
-126,512	-70,399	0,068	0,019
-125,497	-198,807	0,081	0,000
-124,483	198,777	-0,030	0,034
-123,468	468,597	0,129	0,211
-122,453	-200,000	-0,004	0,057
-121,439	689,562	0,022	0,042
-120,424	609,109	0,099	-0,181
-119,410	480,357	0,047	-0,078
-118,395	-200,000	-0,006	-0,077
-117,380	10,056	0,033	-0,018
-116,366	302,777	-0,037	-0,049
-115,351	26,301	-0,132	-0,080
-114,337	-59,629	-0,157	-0,049
-113,322	90,957	0,051	-0,042
-112,307	800,000	0,024	-0,070
-111,293	-20,059	0,077	0,034
-110,278	800,000	0,026	-0,083
-109,264	-89,039	-0,042	0,009
-108,249	-21,197	-0,092	0,041
-107,234	-200,000	-0,006	-0,105
-106,220	-132,454	0,174	0,016
-105,205	-200,000	-0,004	0,081
-104,191	-200,000	0,002	-0,113
-103,176	440,654	-0,064	0,102
-102,162	-200,000	0,017	0,070
-101,147	-61,865	-0,053	0,016
-100,132	-175,188	-0,099	0,002
-99,118	800,000	-0,015	-0,032
-98,103	104,444	0,057	0,049
-97,089	118,873	0,033	-0,029
-96,074	96,930	0,097	0,081
-95,059	99,992	0,054	0,045
-94,045	-15,656	0,084	0,039
-93,030	800,000	-0,048	-0,097
-92,016	-200,000	-0,009	-0,081
-91,001	800,000	0,010	0,025
-89,986	-66,393	0,021	-0,006
-88,972	-23,785	-0,131	0,057
-87,957	-78,334	-0,027	-0,007
-86,943	800,000	-0,084	0,242
-85,928	-200,000	0,040	-0,158
-84,913	800,000	-0,018	-0,049
-83,899	478,606	-0,088	0,146
-82,884	592,146	0,012	0,021
-81,870	676,703	0,022	-0,042
-80,855	-112,435	0,152	0,022
-79,840	800,000	-0,039	0,107
-78,826	225,642	0,080	0,095
-77,811	691,546	0,030	-0,056
-76,797	-200,000	0,009	0,036
-75,782	800,000	0,058	-0,127
-74,767	-135,135	0,131	0,011
-73,753	-200,000	-0,023	0,088
-72,738	-46,224	-0,072	-0,025
-71,724	79,322	-0,058	0,045
-70,709	-200,000	0,002	0,090
-69,694	-200,000	0,005	0,058
-68,680	176,091	0,020	0,021
-67,665	186,086	0,100	-0,108
-66,651	107,827	-0,028	-0,024
-65,636	-126,495	0,031	-0,003
-64,622	199,390	0,078	-0,087
-63,607	-200,000	0,001	-0,042
-62,592	-164,611	0,097	0,003
-61,578	17,130	-0,028	-0,016
-60,563	519,709	0,027	-0,046
-59,549	347,792	0,099	-0,142
-58,534	-131,599	-1,346	-0,127
-57,519	581,602	-0,871	-1,556
-56,505	-200,000	-1,003	-4,519
-55,490	94,006	0,524	-0,432
-54,476	800,000	4,958	11,779
-53,461	-200,000	13,474	253,536
-52,446	-200,000	688,994	2268,037
-51,432	595,876	1622,453	2926,980
-50,417	120,485	1635,982	1474,773
-49,403	73,713	1289,761	979,879
-48,388	38,357	1024,777	661,204
-47,373	24,542	982,346	588,378
-46,359	23,733	971,919	579,456
-45,344	22,810	967,839	573,984
-44,330	22,732	966,358	572,829
-43,315	22,626	964,854	571,569
-42,300	22,613	963,754	570,852
-41,286	22,579	962,877	570,200
-40,271	22,563	961,947	569,573
-39,257	22,535	961,065	568,936
-38,242	22,573	960,075	568,452
-37,227	22,499	959,526	567,863
-36,213	22,584	958,379	567,437
-35,198	22,516	957,561	566,710
-34,184	22,540	956,975	566,421
-33,169	22,496	956,145	565,765
-32,154	22,616	955,044	565,477
-31,140	22,575	954,214	564,831
-30,125	22,661	953,332	564,564
-29,111	22,593	952,569	563,871
-28,096	22,597	951,883	563,454
-27,082	22,615	951,265	563,125
-26,067	22,633	950,398	562,647
-25,052	22,551	949,789	562,002
-24,038	22,594	949,117	561,717
-23,023	22,639	948,224	561,312
-22,009	22,650	947,660	560,991
-20,994	22,628	947,252	560,658
-19,979	22,623	946,470	560,157
-18,965	22,692	945,894	560,014
-17,950	22,606	945,361	559,400
-16,936	22,560	944,641	558,805
-15,921	22,563	943,908	558,359
-14,906	22,511	943,174	557,737
-13,892	22,534	942,463	557,366
-12,877	22,447	942,077	556,842
-11,863	22,393	941,394	556,244
-10,848	22,420	940,851	555,985
-9,833	22,607	940,211	556,181
-8,819	22,501	939,779	555,567
-7,804	22,503	938,923	555,044
-6,790	22,459	938,439	554,597
-5,775	22,552	937,881	554,540
-4,760	22,486	937,221	553,917
-3,746	22,444	936,749	553,483
-2,731	22,293	935,976	552,530
-1,717	22,315	935,262	552,154
-0,702	22,326	934,517	551,728
0,313	22,090	933,802	551,393
1,327	25,204	931,773	559,942
2,342	34,669	796,693	503,997
3,356	32,644	452,030	282,879
4,371	1,629	293,955	152,987
5,386	-2,965	274,979	138,746
6,400	-4,440	269,198	134,446
7,415	-4,951	266,704	132,718
8,429	-4,569	265,470	132,442
9,444	-4,542	264,782	132,112
10,459	-4,604	264,006	131,656
11,473	-4,639	263,420	131,321
12,488	-4,661	262,954	131,056
13,502	-4,794	262,455	130,676
14,517	-4,682	262,087	130,582
15,531	-4,574	261,621	130,436
16,546	-4,680	261,311	130,174
17,561	-4,435	260,911	130,184
18,575	-4,521	260,638	129,959
19,590	-4,673	260,197	129,591
20,604	-4,489	259,938	129,615
21,619	-4,595	259,645	129,363
22,634	-4,638	259,301	129,141
23,648	-4,629	258,990	128,983
24,663	-4,527	258,693	128,914
25,677	-4,574	258,504	128,767
26,692	-4,553	258,228	128,636
27,707	-4,651	258,055	128,452
28,721	-4,765	257,765	128,194
29,736	-4,784	257,501	128,035
30,750	-4,660	257,169	127,969
31,765	-4,599	256,892	127,874
32,780	-4,596	256,726	127,781
33,794	-4,740	256,504	127,533
34,809	-4,515	256,370	127,653
35,823	-4,501	255,958	127,450
36,838	-4,757	255,910	127,189
37,853	-4,579	255,452	127,106
38,867	-4,888	255,409	126,802
39,882	-4,866	255,120	126,666
40,896	-4,795	255,043	126,679
41,911	-4,710	254,859	126,651
42,926	-4,693	254,496	126,474
43,940	-4,891	254,157	126,121
44,955	-4,804	254,003	126,109
45,969	-5,012	253,798	125,814
46,984	-5,037	253,465	125,616
47,999	-5,344	253,304	125,258
49,013	-5,285	252,943	125,119
50,028	-5,572	252,813	124,795
51,042	-5,708	252,648	124,584
52,057	-5,453	252,429	124,686
53,071	-5,599	252,173	124,422
54,086	-5,577	252,103	124,395
55,101	-5,517	251,917	124,344
56,115	-5,150	251,699	124,543
57,130	-4,823	251,499	124,717
58,144	-4,603	251,467	124,879
59,159	-4,497	251,264	124,859
60,174	-4,408	251,094	124,840
61,188	-4,563	250,721	124,510
62,203	-4,809	250,692	124,272
63,217	-4,668	250,254	124,165
64,232	-4,603	250,165	124,167
65,247	-4,726	249,822	123,879
66,261	-4,868	249,875	123,773
67,276	-4,893	249,507	123,558
68,290	-4,896	249,199	123,391
69,305	-5,136	248,967	123,061
70,320	-5,066	248,798	123,026
71,334	-4,778	248,600	123,163
72,349	-4,630	248,643	123,300
73,363	-4,505	248,317	123,234
74,378	-4,627	248,109	123,015
75,393	-4,484	247,886	123,016
76,407	-4,893	247,936	122,681
77,422	-4,647	247,634	122,730
78,436	-4,551	247,318	122,644
79,451	-4,632	247,003	122,408
80,466	-4,592	246,846	122,354
81,480	-4,688	246,653	122,166
82,495	-5,003	246,519	121,822
83,509	-4,965	246,457	121,812
84,524	-4,737	246,064	121,800
85,539	-5,016	245,821	121,433
86,553	-4,929	245,674	121,423
87,568	-4,878	245,622	121,430
88,582	-4,881	245,456	121,334
89,597	-4,932	245,077	121,093
90,611	-4,829	245,074	121,168
91,626	-4,646	244,781	121,165
92,641	-4,749	244,820	121,088
93,655	-4,894	244,468	120,781
94,670	-4,731	244,236	120,792
95,684	-4,771	244,098	120,679
96,699	-4,809	244,085	120,630
97,714	-4,775	243,709	120,462
98,728	-5,226	243,661	120,052
99,743	-5,032	243,346	120,048
100,757	-5,020	243,064	119,908
101,772	-4,966	242,957	119,889
102,787	-4,984	242,773	119,773
103,801	-4,986	242,738	119,743
104,816	-4,826	242,517	119,756
105,830	-4,722	242,453	119,800
106,845	-4,680	242,306	119,752
107,860	-4,757	242,056	119,554
108,874	-4,867	241,863	119,357
109,889	-4,861	241,538	119,190
110,903	-5,043	241,445	118,984
111,918	-5,059	241,191	118,834
112,933	-4,953	241,186	118,909
113,947	-4,513	240,799	119,071
114,962	-4,589	240,742	118,969
115,976	-4,838	240,555	118,660
116,991	-4,892	240,399	118,529
118,006	-4,688	240,164	118,570
119,020	-4,643	240,082	118,555
120,035	-4,651	240,055	118,525
121,049	-4,508	239,764	118,488
122,064	-4,578	239,619	118,349
123,079	-4,818	239,355	118,012
124,093	-4,726	239,166	117,983
125,108	-4,820	238,889	117,759
126,122	-5,186	238,751	117,382
127,137	-5,306	238,557	117,178
128,151	-5,132	238,421	117,243
129,166	-5,182	238,371	117,167
130,181	-5,078	238,102	117,109
131,195	-4,847	237,848	117,161
132,210	-5,158	237,788	116,869
133,224	-4,970	237,721	116,978
134,239	-4,884	237,535	116,946
135,254	-4,749	237,204	116,881
136,268	-4,895	237,090	116,697
137,283	-5,223	236,804	116,281
138,297	-5,174	236,527	116,173
139,312	-5,159	236,325	116,076
140,327	-4,995	236,351	116,211
141,341	-4,641	236,428	116,524
142,356	-4,442	236,113	116,519
143,370	-4,538	235,949	116,350
144,385	-4,317	235,958	116,522
145,400	-4,312	235,568	116,323
146,414	-4,440	235,335	116,095
147,429	-4,304	235,294	116,173
148,443	-4,469	235,111	115,940
149,458	-4,470	235,076	115,912
150,473	-4,410	234,838	115,833
151,487	-4,817	234,747	115,452
152,502	-4,481	234,513	115,595
153,516	-4,595	234,426	115,450
154,531	-4,586	234,261	115,366
155,546	-4,583	234,082	115,270
156,560	-4,351	233,729	115,271
157,575	-4,619	233,705	115,035
158,589	-4,555	233,367	114,910
159,604	-4,325	233,390	115,094
160,619	-4,219	233,216	115,082
161,633	-4,488	233,053	114,777
162,648	-4,127	232,777	114,917
163,662	-4,366	232,537	114,599
164,677	-4,525	232,500	114,445
165,692	-4,642	232,427	114,307
166,706	-4,306	232,305	114,502
167,721	-4,399	232,296	114,414
168,735	-4,199	231,992	114,412
169,750	-4,301	231,872	114,262
170,764	-4,733	231,661	113,807
171,779	-4,472	231,482	113,915
172,794	-4,123	231,340	114,109
173,808	-4,498	231,151	113,711
174,823	-5,100	230,964	113,136
175,837	-5,189	230,766	112,959
176,852	-4,765	230,552	113,176
177,867	-4,408	230,582	113,461
178,881	-4,375	230,441	113,408
179,896	-4,267	230,163	113,345
180,910	-4,361	230,143	113,252
181,925	-4,355	229,977	113,164
182,940	-4,245	229,716	113,112
183,954	-4,359	229,669	112,989
184,969	-4,298	229,572	112,980
185,983	-4,283	229,437	112,915
186,998	-4,396	229,195	112,698
188,013	-4,310	229,103	112,709
189,027	-4,147	228,913	112,733
190,042	-4,200	228,769	112,610
191,056	-4,063	228,546	112,597
192,071	-4,352	228,580	112,379
193,086	-4,289	228,378	112,319
194,100	-4,289	228,192	112,218
195,115	-4,759	227,659	111,581
196,129	-5,459	227,461	110,934
197,144	-2,345	228,401	113,796
198,159	1,888	229,637	117,694
199,173	3,797	230,148	119,431
200,188	4,181	230,048	119,666
201,202	4,019	229,982	119,495
202,217	4,351	229,803	119,649
203,232	4,549	229,695	119,736
204,246	4,838	229,430	119,811
205,261	4,632	229,417	119,634
206,275	4,779	229,331	119,692
207,290	5,089	228,977	119,736
208,304	5,044	229,033	119,720
209,319	4,851	228,775	119,426
210,334	4,804	228,522	119,246
211,348	4,479	228,428	118,937
212,363	4,239	228,019	118,528
213,377	3,823	227,997	118,186
214,392	3,866	227,830	118,123
215,407	4,233	227,747	118,350
216,421	3,829	227,608	117,958
217,436	4,224	227,277	118,078
218,450	3,654	227,147	117,564
219,465	3,876	226,887	117,589
220,480	3,764	226,900	117,499
221,494	3,789	226,842	117,478
222,509	3,846	226,568	117,369
223,523	3,913	226,375	117,310
224,538	3,791	226,380	117,209
225,553	3,859	226,151	117,131
226,567	4,252	225,947	117,314
227,582	4,174	225,980	117,262
228,596	4,188	225,853	117,196
229,611	4,087	225,720	117,040
230,626	3,822	225,381	116,653
231,640	3,868	225,205	116,586
232,655	4,297	225,130	116,862
233,669	4,615	225,109	117,081
234,684	4,631	224,960	117,005
235,699	4,386	224,762	116,707
236,713	3,913	224,639	116,275
237,728	4,039	224,383	116,228
238,742	3,817	224,215	115,963
239,757	3,993	224,061	116,005
240,772	3,832	223,886	115,783
241,786	4,040	223,794	115,882
242,801	4,040	223,909	115,931
243,815	4,392	223,594	116,023
244,830	4,351	223,528	115,947
245,844	3,988	223,300	115,545
246,859	4,034	223,162	115,499
247,874	4,433	222,897	115,650
248,888	4,276	222,958	115,554
249,903	3,893	222,805	115,177
250,917	4,198	222,505	115,240
251,932	4,088	222,410	115,098
252,947	3,962	222,134	114,851
253,961	3,856	222,013	114,699
254,976	3,847	221,938	114,643
255,990	3,934	221,842	114,649
257,005	4,205	221,697	114,765
258,020	4,246	221,567	114,718
259,034	4,289	221,576	114,744
260,049	4,174	221,322	114,517
261,063	3,963	221,202	114,288
262,078	4,468	220,898	114,496
263,093	4,413	221,060	114,528
264,107	4,273	220,799	114,279
265,122	4,650	220,602	114,446
266,136	4,292	220,548	114,143
267,151	4,488	220,398	114,200
268,166	4,173	220,093	113,799
269,180	3,960	219,915	113,540
270,195	3,764	219,781	113,317
271,209	3,915	219,642	113,346
272,224	3,926	219,475	113,257
273,239	4,223	219,446	113,451
274,253	3,737	219,293	113,005
275,268	3,786	219,105	112,933
276,282	3,705	218,857	112,736
277,297	3,632	218,819	112,653
278,312	3,955	218,554	112,743
279,326	4,314	218,408	112,921
280,341	4,022	218,418	112,701
281,355	3,943	218,331	112,589
282,370	4,077	218,104	112,560
283,384	3,884	217,881	112,294
284,399	3,876	217,776	112,224
285,414	3,762	217,516	111,997
286,428	4,028	217,530	112,188
287,443	4,222	217,523	112,316
288,457	4,087	217,281	112,083
289,472	4,062	217,090	111,956
290,487	3,679	216,834	111,535
291,501	3,257	216,911	111,258
292,516	3,712	216,678	111,459
293,530	3,691	216,640	111,414
294,545	3,667	216,375	111,251
295,560	3,701	216,154	111,152
296,574	3,962	216,188	111,349
297,589	4,028	216,003	111,291
298,603	4,065	215,913	111,262
299,618	4,047	215,739	111,149
300,633	4,032	215,601	111,057
301,647	4,203	215,697	111,220
302,662	4,478	215,541	111,328
303,676	4,120	215,293	110,932
304,691	4,079	215,159	110,824
305,706	4,165	214,989	110,789
306,720	4,234	214,854	110,759
307,735	4,212	214,554	110,578
308,749	3,837	214,402	110,221
309,764	3,923	214,458	110,301
310,779	4,133	214,321	110,372
311,793	4,146	214,226	110,322
312,808	4,011	213,996	110,097
313,822	4,197	213,795	110,117
314,837	4,178	213,637	110,013
315,852	3,889	213,575	109,764
316,866	3,926	213,425	109,704
317,881	4,050	213,324	109,731
318,895	4,223	213,087	109,722
319,910	4,025	213,075	109,565
320,925	3,726	212,815	109,209
321,939	3,703	212,576	109,060
322,954	3,688	212,526	109,015
323,968	3,973	212,595	109,242
324,983	4,069	212,390	109,195
325,997	4,417	212,275	109,373
327,012	4,162	212,201	109,144
328,027	3,963	212,025	108,904
329,041	4,228	211,991	109,064
330,056	4,591	211,789	109,207
331,070	4,210	211,557	108,809
332,085	3,781	211,417	108,424
333,100	3,704	211,309	108,304
334,114	4,039	211,130	108,439
335,129	3,970	210,948	108,288
336,143	3,790	210,928	108,141
337,158	3,810	210,825	108,093
338,173	3,962	210,636	108,093
339,187	3,682	210,432	107,782
340,202	3,781	210,244	107,746
341,216	3,885	210,002	107,684
342,231	3,907	209,951	107,664
343,246	3,574	209,841	107,365
344,260	3,805	209,815	107,504
345,275	3,891	209,696	107,494
346,289	3,975	209,600	107,493
347,304	4,160	209,438	107,530
348,319	4,044	209,280	107,358
349,333	3,920	209,111	107,176
350,348	3,943	209,039	107,145
351,362	4,160	208,894	107,212
352,377	3,970	208,780	107,012
353,392	4,068	208,605	106,981
354,406	4,145	208,399	106,919
355,421	193,041	1346,033	1432,072
356,435	153,977	1484,765	1432,180
