DTS Sentinel unit serial number:	SN410029Multiplexer serial number:	ORYXHardware model number:	OX2-SRSoftware version number:	ORYX F/W v4,00 Oryx Data Collector v3.7.2.0data status	okinstallation	B6 Nyhavnadifferential loss correction	single-endedforward channel	channel 2reverse channel	N/Adate	2023/12/11time	06:50:08forward acquisition time	300,00reverse acquisition time	0,00gamma	499,1914k internal	0,3125k external	0,3125temperature offset calibration	1,0000default loss term (dB/km)	0,3820temperature slope calibration	1,0000multiplexer offset coefficient	1,0000multiplexer slope coefficient	1,0000fibre end	0,00T internal ref (°C)	19,36T ext. ref 1 (°C)	2,45T ext. ref 2 (°C)	2,49length (m)	temperature (°C)	Stokes	anti-Stokes-744,400	469,089	-0,034	0,056
-743,385	126,414	-0,116	0,110
-742,371	20,499	0,111	-0,067
-741,356	-115,374	-0,125	-0,017
-740,342	-115,086	0,084	0,012
-739,327	-123,424	-0,222	-0,026
-738,312	88,302	-0,137	-0,113
-737,298	-144,039	-0,336	-0,023
-736,283	-83,754	0,251	0,059
-735,269	-131,756	-0,213	0,020
-734,254	127,804	0,092	-0,087
-733,239	-10,741	-0,463	-0,227
-732,225	-162,028	0,143	0,005
-731,210	-2,727	0,057	0,030
-730,196	-58,202	-0,156	-0,050
-729,181	-200,000	0,016	-0,093
-728,167	-200,000	0,023	0,105
-727,152	216,088	-0,097	0,115
-726,137	22,061	0,035	0,021
-725,123	10,247	-0,103	-0,058
-724,108	97,027	-0,059	0,050
-723,094	355,827	-0,139	-0,206
-722,079	-200,000	-0,013	-0,082
-721,064	416,981	-0,030	0,048
-720,050	27,918	-0,059	-0,037
-719,035	291,618	-0,044	-0,060
-718,021	442,451	-0,011	-0,018
-717,006	48,918	-0,098	-0,068
-715,991	-200,000	-0,035	-0,145
-714,977	72,632	0,083	0,064
-713,962	-200,000	-0,017	0,061
-712,948	-200,000	0,005	-0,025
-711,933	-200,000	0,014	0,086
-710,918	-200,000	-0,012	-0,043
-709,904	264,638	-0,030	-0,039
-708,889	151,894	-0,069	-0,070
-707,875	-200,000	0,001	-0,049
-706,860	-200,000	-0,036	0,147
-705,845	800,000	0,014	-0,045
-704,831	-62,561	0,033	0,010
-703,816	-62,744	-0,167	0,051
-702,802	137,004	0,092	-0,089
-701,787	207,590	-0,068	-0,079
-700,772	-200,000	0,014	0,090
-699,758	378,884	-0,074	-0,114
-698,743	188,433	-0,100	0,111
-697,729	168,930	0,062	0,066
-696,714	-200,000	-0,003	0,122
-695,699	-200,000	-0,015	0,180
-694,685	-130,369	-0,104	0,010
-693,670	-33,671	0,018	-0,007
-692,656	73,283	-0,020	-0,016
-691,641	-200,000	0,034	0,134
-690,627	-58,004	0,184	0,059
-689,612	267,280	0,047	-0,062
-688,597	-200,000	0,002	0,094
-687,583	503,260	0,058	-0,100
-686,568	-200,000	-0,022	-0,175
-685,554	-200,000	-0,022	-0,113
-684,539	697,753	0,022	0,042
-683,524	-200,000	0,021	-0,128
-682,510	800,000	0,048	-0,125
-681,495	-200,000	-0,001	-0,035
-680,481	-200,000	-0,006	-0,035
-679,466	3,144	-0,194	-0,105
-678,451	-200,000	-0,005	-0,131
-677,437	243,054	-0,053	-0,066
-676,422	-147,230	0,037	-0,002
-675,408	-30,976	-0,189	-0,079
-674,393	-200,000	-0,032	-0,125
-673,378	359,576	-0,015	0,022
-672,364	-190,832	-0,078	-0,001
-671,349	-0,226	-0,083	-0,044
-670,335	552,480	0,058	-0,104
-669,320	-200,000	0,006	-0,024
-668,305	739,598	0,016	0,031
-667,291	-129,607	0,200	-0,020
-666,276	-20,955	-0,054	-0,024
-665,262	-200,000	-0,030	0,173
-664,247	-45,498	0,048	-0,018
-663,232	51,514	0,072	0,050
-662,218	-200,000	0,018	0,088
-661,203	328,334	-0,066	0,094
-660,189	-200,000	-0,026	-0,190
-659,174	17,945	-0,118	-0,069
-658,159	1,345	-0,095	-0,050
-657,145	-49,592	-0,157	0,055
-656,130	-80,815	-0,065	-0,016
-655,116	673,447	0,011	-0,022
-654,101	222,672	0,042	-0,050
-653,086	77,929	-0,113	-0,089
-652,072	2,538	-0,107	-0,057
-651,057	100,046	-0,076	-0,065
-650,043	39,774	-0,026	0,017
-649,028	-200,000	0,015	-0,050
-648,014	165,647	-0,070	0,073
-646,999	115,647	-0,060	0,055
-645,984	-7,605	0,063	0,031
-644,970	-200,000	-0,011	0,069
-643,955	800,000	0,010	-0,022
-642,941	-67,764	-0,163	0,047
-641,926	538,919	0,016	-0,028
-640,911	158,542	-0,072	0,074
-639,897	542,071	-0,054	0,096
-638,882	-106,587	-0,054	-0,009
-637,868	242,404	-0,181	-0,226
-636,853	226,255	-0,025	-0,030
-635,838	-30,661	-0,081	-0,034
-634,824	-62,960	-0,130	0,040
-633,809	12,084	0,081	-0,046
-632,795	-200,000	0,002	0,026
-631,780	38,404	-0,027	0,018
-630,765	195,601	-0,072	0,082
-629,751	201,670	0,023	-0,026
-628,736	-200,000	-0,011	-0,182
-627,722	-149,759	0,063	0,004
-626,707	205,287	-0,060	-0,070
-625,692	-78,151	0,060	-0,015
-624,678	-200,000	0,014	-0,067
-623,663	426,602	0,051	0,082
-622,649	-137,020	-0,021	-0,002
-621,634	-110,915	-0,162	-0,024
-620,619	-200,000	-0,023	-0,084
-619,605	620,155	0,035	0,065
-618,590	114,174	0,070	-0,063
-617,576	-35,432	0,096	0,039
-616,561	-200,000	-0,018	0,062
-615,546	554,299	-0,031	0,055
-614,532	-200,000	-0,000	-0,056
-613,517	158,877	0,066	0,068
-612,503	-200,000	-0,024	0,091
-611,488	156,209	-0,063	-0,065
-610,474	15,156	0,054	-0,031
-609,459	146,059	0,050	-0,050
-608,444	-200,000	0,013	-0,083
-607,430	31,400	-0,044	-0,028
-606,415	-200,000	0,035	-0,124
-605,401	-61,563	0,033	0,010
-604,386	-180,898	0,105	-0,002
-603,371	213,112	-0,094	0,110
-602,357	205,944	-0,060	-0,069
-601,342	-200,000	-0,014	0,088
-600,328	167,473	0,129	-0,136
-599,313	-132,561	-0,014	-0,001
-598,298	-200,000	0,018	-0,064
-597,284	-136,563	-0,073	0,006
-596,269	800,000	0,026	0,082
-595,255	-200,000	-0,010	0,056
-594,240	800,000	0,026	0,083
-593,225	288,897	-0,041	-0,056
-592,211	800,000	-0,021	0,055
-591,196	-200,000	0,025	-0,092
-590,182	-200,000	-0,019	-0,140
-589,167	-74,061	0,106	0,028
-588,152	-200,000	-0,014	-0,049
-587,138	-45,538	-0,074	0,027
-586,123	-117,108	0,050	0,007
-585,109	-28,540	-0,093	-0,040
-584,094	-49,811	-0,192	-0,067
-583,079	318,615	0,055	-0,078
-582,065	348,045	0,039	-0,056
-581,050	115,383	0,050	0,045
-580,036	41,046	0,023	0,015
-579,021	-116,300	0,128	-0,017
-578,006	800,000	-0,048	0,141
-576,992	390,920	0,062	-0,096
-575,977	290,375	0,062	-0,084
-574,963	98,351	-0,040	-0,034
-573,948	-133,239	0,143	0,013
-572,934	-200,000	0,002	-0,102
-571,919	-200,000	-0,008	-0,032
-570,904	-22,385	-0,157	-0,070
-569,890	209,680	-0,069	0,080
-568,875	-70,849	0,080	0,022
-567,861	-200,000	-0,023	-0,218
-566,846	-21,202	0,060	0,027
-565,831	-177,894	0,089	-0,002
-564,817	78,583	-0,066	0,052
-563,802	-115,600	0,078	0,011
-562,788	95,311	-0,071	0,060
-561,773	-200,000	-0,004	0,127
-560,758	162,303	-0,036	-0,037
-559,744	800,000	-0,030	0,066
-558,729	151,608	-0,007	-0,007
-557,715	188,547	-0,055	-0,061
-556,700	-200,000	0,002	0,005
-555,685	21,843	-0,031	-0,019
-554,671	-200,000	-0,009	0,095
-553,656	-97,599	-0,073	-0,014
-552,642	-200,000	-0,008	0,065
-551,627	800,000	0,021	-0,043
-550,612	135,933	-0,108	0,104
-549,598	123,119	0,068	-0,063
-548,583	-97,674	0,008	-0,001
-547,569	-41,669	0,049	-0,018
-546,554	-17,660	-0,099	0,046
-545,539	-200,000	0,031	0,161
-544,525	-63,896	0,116	-0,035
-543,510	372,636	-0,053	0,080
-542,496	800,000	-0,036	-0,081
-541,481	-18,337	0,049	0,022
-540,466	446,531	0,078	-0,127
-539,452	-113,465	0,054	0,008
-538,437	-0,465	0,112	-0,059
-537,423	2,613	-0,049	-0,026
-536,408	-99,493	0,065	-0,012
-535,393	-98,812	-0,054	-0,010
-534,379	331,160	-0,037	-0,052
-533,364	-199,953	-0,127	-0,000
-532,350	-84,778	-0,080	0,018
-531,335	-104,984	0,162	0,027
-530,321	-131,645	-0,167	-0,016
-529,306	106,309	-0,035	-0,030
-528,291	800,000	-0,012	0,034
-527,277	187,789	0,085	-0,093
-526,262	-200,000	0,005	0,072
-525,248	255,093	0,063	0,079
-524,233	-51,091	0,100	0,034
-523,218	41,274	-0,090	0,060
-522,204	-200,000	-0,005	0,026
-521,189	-74,977	0,012	0,003
-520,175	-28,430	0,096	0,041
-519,160	-200,000	0,011	0,101
-518,145	-200,000	0,009	-0,076
-517,131	-179,216	0,028	-0,000
-516,116	-133,125	-0,084	-0,008
-515,102	-200,000	-0,000	-0,021
-514,087	66,599	0,127	-0,095
-513,072	-200,000	0,001	-0,053
-512,058	-200,000	0,007	0,104
-511,043	800,000	-0,004	-0,012
-510,029	-33,249	0,122	0,050
-509,014	25,247	-0,099	-0,061
-507,999	534,888	-0,013	0,023
-506,985	13,838	0,019	-0,011
-505,970	800,000	0,066	-0,150
-504,956	443,152	0,068	-0,110
-503,941	-68,546	-0,144	-0,041
-502,926	122,655	0,092	-0,085
-501,912	42,275	0,128	-0,086
-500,897	-200,000	0,000	0,128
-499,883	-37,039	0,118	-0,046
-498,868	-112,083	-0,173	-0,025
-497,853	800,000	-0,063	-0,159
-496,839	-70,408	0,090	-0,025
-495,824	91,027	0,041	-0,034
-494,810	-200,000	-0,002	0,126
-493,795	215,661	0,093	-0,109
-492,781	224,978	0,070	-0,084
-491,766	273,343	-0,016	0,021
-490,751	800,000	0,062	-0,150
-489,737	83,705	-0,059	0,048
-488,722	-12,258	0,062	-0,030
-487,708	-115,755	-0,019	-0,003
-486,693	-200,000	0,038	0,156
-485,678	727,525	-0,016	-0,032
-484,664	168,061	-0,156	-0,164
-483,649	-56,791	-0,067	0,022
-482,635	-200,000	0,007	0,074
-481,620	460,872	-0,042	-0,069
-480,605	800,000	0,038	0,111
-479,591	413,915	-0,094	0,148
-478,576	800,000	0,041	0,133
-477,562	800,000	-0,029	-0,070
-476,547	-200,000	-0,027	-0,092
-475,532	609,457	0,048	-0,088
-474,518	800,000	-0,023	-0,059
-473,503	800,000	-0,047	0,152
-472,489	263,442	0,066	0,085
-471,474	-200,000	0,015	-0,083
-470,459	800,000	0,033	-0,078
-469,445	-200,000	-0,007	-0,035
-468,430	800,000	0,046	-0,098
-467,416	140,582	0,145	0,141
-466,401	-111,893	-0,063	-0,009
-465,386	0,512	-0,024	0,013
-464,372	-34,035	-0,099	0,040
-463,357	680,989	-0,069	0,134
-462,343	57,571	-0,033	-0,024
-461,328	-7,150	-0,052	0,026
-460,313	-71,488	0,100	-0,027
-459,299	-80,166	0,099	0,024
-458,284	-200,000	0,011	0,126
-457,270	49,345	-0,113	0,078
-456,255	24,314	-0,071	0,043
-455,241	138,716	-0,005	-0,005
-454,226	-200,000	0,039	-0,139
-453,211	193,227	0,104	0,116
-452,197	800,000	0,057	-0,137
-451,182	283,361	0,071	0,094
-450,168	-52,576	-0,126	-0,043
-449,153	-200,000	-0,012	-0,045
-448,138	-14,990	-0,099	0,047
-447,124	63,595	0,074	0,054
-446,109	249,166	-0,056	0,070
-445,095	-24,950	0,118	-0,051
-444,080	-121,750	-0,022	0,003
-443,065	-70,649	0,114	-0,031
-442,051	-56,236	-0,059	-0,019
-441,036	800,000	-0,038	-0,084
-440,022	6,187	-0,149	-0,081
-439,007	-89,324	-0,004	0,001
-437,992	-83,946	0,214	0,050
-436,978	800,000	-0,031	0,084
-435,963	359,563	-0,079	0,117
-434,949	113,309	-0,070	-0,063
-433,934	307,355	0,062	-0,086
-432,919	-200,000	-0,021	0,078
-431,905	-124,030	-0,007	0,001
-430,890	130,901	-0,079	0,074
-429,876	-200,000	-0,006	0,087
-428,861	35,734	-0,114	0,074
-427,846	275,411	0,014	-0,018
-426,832	-134,553	0,054	-0,005
-425,817	-200,000	0,015	-0,050
-424,803	-168,983	-0,038	-0,001
-423,788	148,314	0,046	0,046
-422,773	84,924	0,078	-0,062
-421,759	5,744	0,029	-0,016
-420,744	-200,000	-0,006	-0,116
-419,730	-200,000	0,007	-0,072
-418,715	800,000	0,025	0,053
-417,701	800,000	0,011	-0,024
-416,686	800,000	0,054	0,154
-415,671	-200,000	0,009	0,099
-414,657	-100,200	0,066	-0,012
-413,642	45,983	0,069	-0,047
-412,628	130,952	-0,064	-0,061
-411,613	-83,287	-0,096	0,022
-410,598	-200,000	-0,001	-0,040
-409,584	320,606	-0,059	0,083
-408,569	-200,000	-0,031	0,166
-407,555	11,071	0,060	0,034
-406,540	-79,345	-0,044	0,011
-405,525	394,902	0,035	0,053
-404,511	-8,624	-0,033	-0,016
-403,496	-104,070	-0,100	0,017
-402,482	678,684	0,044	0,085
-401,467	-121,589	0,161	-0,019
-400,452	-49,548	0,094	0,033
-399,438	-108,780	-0,071	0,011
-398,423	-133,549	0,086	-0,008
-397,409	116,689	-0,051	-0,046
-396,394	-170,649	-0,119	-0,003
-395,379	-200,000	-0,009	0,049
-394,365	-200,000	-0,034	0,125
-393,350	-200,000	0,005	-0,037
-392,336	32,233	-0,094	-0,059
-391,321	109,460	0,035	0,031
-390,306	800,000	-0,050	0,107
-389,292	-200,000	0,002	-0,010
-388,277	110,302	-0,056	-0,049
-387,263	-200,000	-0,029	0,096
-386,248	33,196	-0,055	-0,035
-385,233	22,249	0,079	0,047
-384,219	-200,000	-0,009	-0,029
-383,204	328,925	-0,099	-0,140
-382,190	175,890	-0,053	0,056
-381,175	651,457	0,039	0,073
-380,160	-24,637	0,032	0,014
-379,146	62,256	0,020	0,015
-378,131	800,000	-0,025	0,069
-377,117	-0,163	0,112	0,058
-376,102	-11,239	-0,057	-0,027
-375,088	-39,965	0,039	-0,015
-374,073	129,646	0,045	-0,042
-373,058	-70,314	0,106	0,029
-372,044	-125,803	-0,062	0,007
-371,029	-30,617	0,092	0,038
-370,015	-200,000	-0,034	0,175
-369,000	-46,125	0,170	-0,061
-367,985	-178,800	0,069	-0,001
-366,971	11,373	-0,199	0,111
-365,956	475,561	0,008	0,013
-364,942	-29,443	0,055	-0,023
-363,927	-57,240	0,147	0,047
-362,912	456,009	-0,016	0,027
-361,898	800,000	-0,020	-0,065
-360,883	739,159	0,057	0,113
-359,869	191,203	-0,061	-0,067
-358,854	-42,984	0,085	-0,031
-357,839	-117,193	0,074	0,010
-356,825	-200,000	0,008	0,037
-355,810	279,687	0,076	-0,100
-354,796	14,647	-0,161	-0,092
-353,781	-200,000	-0,012	-0,080
-352,766	-200,000	0,002	0,058
-351,752	713,038	-0,040	-0,077
-350,737	-200,000	0,041	-0,137
-349,723	800,000	-0,026	-0,079
-348,708	-98,774	-0,110	-0,020
-347,693	800,000	-0,024	-0,072
-346,679	351,340	-0,092	0,133
-345,664	33,078	-0,122	0,077
-344,650	-200,000	-0,040	0,000
-343,635	-62,273	0,086	0,026
-342,620	593,170	0,039	-0,072
-341,606	-200,000	-0,009	0,133
-340,591	220,243	0,042	-0,049
-339,577	-200,000	-0,007	-0,079
-338,562	-80,655	-0,050	-0,012
-337,548	317,147	-0,121	-0,168
-336,533	800,000	0,016	-0,042
-335,518	-200,000	-0,020	0,144
-334,504	-200,000	0,001	0,159
-333,489	345,175	0,032	-0,046
-332,475	553,518	-0,019	-0,034
-331,460	-200,000	-0,000	-0,034
-330,445	-69,232	0,079	0,022
-329,431	164,807	0,023	0,024
-328,416	-200,000	-0,013	0,081
-327,402	180,280	0,097	0,105
-326,387	-30,125	0,128	0,053
-325,372	-200,000	0,021	0,082
-324,358	-96,982	-0,120	0,023
-323,343	-200,000	-0,008	-0,087
-322,329	-61,073	0,208	0,064
-321,314	402,138	0,064	-0,099
-320,299	-200,000	-0,029	0,189
-319,285	-43,945	0,112	0,041
-318,270	800,000	-0,022	-0,059
-317,256	-136,115	-0,086	-0,007
-316,241	12,610	-0,041	-0,023
-315,226	-142,339	-0,040	-0,003
-314,212	-200,000	0,008	0,090
-313,197	-118,186	-0,131	0,017
-312,183	196,525	0,063	-0,071
-311,168	-200,000	-0,034	-0,117
-310,153	-200,000	0,019	-0,135
-309,139	525,247	0,019	0,034
-308,124	-138,295	0,101	0,008
-307,110	-113,824	-0,068	-0,010
-306,095	113,233	-0,038	0,034
-305,080	347,010	0,045	-0,065
-304,066	576,139	0,066	-0,118
-303,051	-82,195	0,094	-0,022
-302,037	165,290	-0,045	-0,047
-301,022	40,593	0,116	0,077
-300,008	276,365	0,033	-0,043
-298,993	516,227	0,020	-0,035
-297,978	800,000	0,049	0,133
-296,964	61,756	-0,083	0,061
-295,949	47,771	-0,227	-0,155
-294,935	-85,958	-0,111	-0,025
-293,920	800,000	-0,016	-0,052
-292,905	-200,000	0,014	0,065
-291,891	-110,274	0,131	0,020
-290,876	-200,000	0,012	-0,119
-289,862	-95,157	-0,091	-0,018
-288,847	800,000	-0,021	0,048
-287,832	-200,000	0,003	0,027
-286,818	-200,000	-0,008	-0,189
-285,803	-200,000	-0,143	0,000
-284,789	621,693	-0,040	0,075
-283,774	348,774	0,020	0,028
-282,759	53,762	0,154	0,108
-281,745	-72,068	0,083	0,022
-280,730	489,112	-0,028	-0,046
-279,716	189,819	-0,051	-0,056
-278,701	800,000	-0,027	0,061
-277,686	577,972	0,048	0,086
-276,672	-158,194	-0,089	0,004
-275,657	-11,691	0,119	-0,057
-274,643	-200,000	0,013	-0,097
-273,628	800,000	0,017	-0,046
-272,613	800,000	-0,050	0,114
-271,599	57,346	0,063	-0,045
-270,584	-87,903	0,127	0,028
-269,570	-200,000	-0,021	0,153
-268,555	-60,874	0,119	0,036
-267,540	-158,673	-0,110	0,005
-266,526	-102,188	-0,121	-0,021
-265,511	-63,742	-0,091	0,027
-264,497	800,000	-0,052	0,118
-263,482	-172,262	0,086	-0,002
-262,467	-131,133	-0,055	-0,005
-261,453	-200,000	-0,024	0,101
-260,438	-200,000	0,011	0,042
-259,424	-200,000	-0,054	0,238
-258,409	143,667	-0,052	-0,051
-257,395	-200,000	-0,003	-0,013
-256,380	477,578	0,069	0,114
-255,365	152,268	-0,088	0,088
-254,351	130,459	-0,083	0,077
-253,336	-200,000	0,015	-0,069
-252,322	-200,000	-0,029	-0,177
-251,307	-6,224	-0,053	0,026
-250,292	54,226	0,028	-0,019
-249,278	-200,000	-0,013	0,046
-248,263	-200,000	0,021	0,152
-247,249	-200,000	0,006	-0,058
-246,234	-200,000	-0,014	-0,060
-245,219	374,065	-0,050	-0,075
-244,205	-133,625	-0,130	-0,012
-243,190	37,488	0,085	0,055
-242,176	193,585	-0,046	0,051
-241,161	-200,000	-0,001	0,072
-240,146	-28,518	-0,099	0,042
-239,132	-101,304	-0,050	-0,009
-238,117	-200,000	-0,003	-0,152
-237,103	800,000	0,042	-0,106
-236,088	-12,469	0,035	0,016
-235,073	-72,585	0,055	0,015
-234,059	149,259	0,093	-0,092
-233,044	-200,000	-0,012	0,043
-232,030	103,367	-0,054	-0,046
-231,015	-200,000	0,024	-0,145
-230,000	301,890	-0,078	-0,105
-228,986	-160,207	-0,115	-0,004
-227,971	-200,000	0,011	0,104
-226,957	-200,000	0,028	0,142
-225,942	800,000	0,008	-0,019
-224,927	-200,000	0,020	0,154
-223,913	50,871	0,081	-0,056
-222,898	-200,000	-0,005	-0,085
-221,884	88,001	0,006	0,005
-220,869	461,088	0,080	-0,130
-219,855	-200,000	0,007	-0,100
-218,840	29,545	0,117	0,072
-217,825	-85,929	-0,149	-0,033
-216,811	27,032	-0,054	0,033
-215,796	-113,089	0,170	-0,024
-214,782	300,120	-0,009	-0,012
-213,767	175,615	0,025	0,026
-212,752	800,000	0,032	0,102
-211,738	-200,000	0,019	0,111
-210,723	-200,000	-0,010	0,150
-209,709	-200,000	-0,031	-0,119
-208,694	800,000	-0,091	-0,196
-207,679	85,822	0,070	0,056
-206,665	-58,798	0,097	0,031
-205,650	359,593	0,016	0,024
-204,636	-200,000	-0,016	0,126
-203,621	-200,000	-0,000	0,136
-202,606	-200,000	0,002	0,019
-201,592	-200,000	-0,014	-0,058
-200,577	800,000	-0,041	-0,131
-199,563	41,136	0,106	0,070
-198,548	254,403	0,064	0,080
-197,533	-200,000	-0,034	0,139
-196,519	446,767	-0,053	0,085
-195,504	-31,751	-0,130	-0,053
-194,490	-35,848	-0,074	0,029
-193,475	-200,000	0,020	-0,094
-192,460	800,000	-0,028	0,069
-191,446	-200,000	0,010	0,117
-190,431	126,317	-0,076	-0,070
-189,417	300,166	-0,048	-0,064
-188,402	79,854	0,030	-0,023
-187,387	106,968	0,080	-0,069
-186,373	-200,000	0,006	-0,184
-185,358	178,125	0,073	0,077
-184,344	8,040	0,197	-0,107
-183,329	-200,000	0,006	0,156
-182,315	-12,851	0,045	0,021
-181,300	31,608	0,145	-0,091
-180,285	-152,055	-0,139	-0,007
-179,271	-121,953	-0,124	0,015
-178,256	-200,000	0,047	-0,165
-177,242	46,477	0,109	0,074
-176,227	77,885	0,055	0,043
-175,212	69,137	-0,059	-0,044
-174,198	-49,248	-0,114	0,039
-173,183	-200,000	0,006	-0,142
-172,169	210,943	-0,092	-0,106
-171,154	665,104	0,042	-0,080
-170,139	-142,082	-0,141	-0,010
-169,125	-144,148	0,146	0,010
-168,110	239,719	-0,024	0,029
-167,096	-200,000	0,011	-0,087
-166,081	20,756	0,042	0,024
-165,066	-107,032	-0,046	-0,007
-164,052	168,494	0,075	-0,078
-163,037	-110,531	0,087	-0,013
-162,023	-200,000	0,017	0,165
-161,008	-62,753	0,117	0,035
-159,993	111,275	-0,082	-0,072
-158,979	-200,000	0,008	0,025
-157,964	800,000	0,043	0,087
-156,950	-24,438	-0,013	0,005
-155,935	-200,000	0,025	-0,082
-154,920	-200,000	0,006	-0,110
-153,906	800,000	0,019	-0,055
-152,891	134,780	-0,046	-0,044
-151,877	152,722	0,039	0,039
-150,862	-128,292	-0,075	-0,008
-149,847	-200,000	0,002	-0,070
-148,833	11,866	0,033	0,018
-147,818	170,094	0,200	-0,209
-146,804	-11,589	0,048	-0,023
-145,789	-200,000	-0,054	0,195
-144,775	-93,068	0,009	-0,002
-143,760	-23,216	-0,026	0,011
-142,745	800,000	0,057	-0,125
-141,731	-200,000	-0,012	-0,110
-140,716	246,293	-0,076	-0,093
-139,702	106,223	0,070	0,060
-138,687	582,430	0,093	0,166
-137,672	512,203	-0,026	-0,043
-136,658	-200,000	-0,022	-0,084
-135,643	180,134	-0,084	-0,090
-134,629	-200,000	0,001	0,181
-133,614	800,000	0,034	-0,088
-132,599	-114,946	-0,161	0,022
-131,585	454,935	-0,045	-0,072
-130,570	134,916	-0,116	-0,110
-129,556	-157,863	-0,087	-0,004
-128,541	-200,000	0,009	-0,054
-127,526	-200,000	-0,012	-0,067
-126,512	-200,000	-0,022	0,116
-125,497	-60,655	0,146	0,045
-124,483	-36,693	0,126	0,049
-123,468	-106,441	-0,089	-0,014
-122,453	-200,000	0,012	-0,042
-121,439	383,553	-0,064	-0,097
-120,424	12,658	0,130	0,073
-119,410	130,780	0,048	0,044
-118,395	183,561	0,053	-0,057
-117,380	143,011	0,075	0,072
-116,366	627,441	-0,080	-0,147
-115,351	-66,864	-0,098	0,028
-114,337	476,159	-0,026	0,043
-113,322	-200,000	-0,011	-0,135
-112,307	-89,060	0,083	-0,018
-111,293	511,271	-0,025	-0,042
-110,278	135,139	-0,054	-0,051
-109,264	-200,000	0,016	-0,133
-108,249	56,393	-0,019	0,014
-107,234	142,200	-0,058	-0,056
-106,220	60,379	-0,042	-0,030
-105,205	291,837	-0,025	0,034
-104,191	-200,000	0,007	0,029
-103,176	-172,017	-0,084	0,002
-102,162	156,334	-0,019	0,019
-101,147	105,041	-0,018	-0,015
-100,132	307,911	-0,035	-0,048
-99,118	800,000	0,046	-0,124
-98,103	128,505	-0,095	0,088
-97,089	-200,000	0,001	-0,129
-96,074	-99,925	0,098	0,018
-95,059	800,000	-0,021	-0,058
-94,045	800,000	0,025	-0,065
-93,030	182,094	-0,178	-0,190
-92,016	82,247	0,174	-0,137
-91,001	-93,863	-0,081	0,016
-89,986	23,000	0,068	0,041
-88,972	800,000	0,052	0,118
-87,957	-200,000	-0,007	-0,067
-86,943	-50,537	0,157	-0,054
-85,928	231,959	0,102	-0,122
-84,913	800,000	0,057	-0,126
-83,899	145,679	0,043	-0,041
-82,884	-50,939	0,082	0,028
-81,870	64,851	-0,098	0,071
-80,855	-10,135	-0,134	-0,065
-79,840	-200,000	0,009	-0,084
-78,826	385,549	-0,031	-0,046
-77,811	-200,000	-0,023	-0,109
-76,797	-5,120	0,065	0,032
-75,782	-200,000	0,003	-0,166
-74,767	27,346	-0,037	-0,023
-73,753	800,000	0,009	0,024
-72,738	-200,000	-0,007	-0,054
-71,724	-117,374	0,032	-0,004
-70,709	-120,675	-0,072	0,009
-69,694	-200,000	0,024	-0,121
-68,680	800,000	0,048	-0,110
-67,665	-87,060	-0,043	0,009
-66,651	122,763	-0,017	0,016
-65,636	800,000	-0,009	0,029
-64,622	693,746	-0,013	0,026
-63,607	-200,000	-0,018	-0,123
-62,592	191,587	0,037	0,041
-61,578	-188,956	-0,083	0,001
-60,563	-169,271	-0,227	-0,006
-59,549	-200,000	0,002	0,108
-58,534	-57,797	-1,561	-0,492
-57,519	800,000	-0,563	-1,269
-56,505	-200,000	-1,050	-4,616
-55,490	-110,409	0,598	-0,089
-54,476	800,000	5,413	11,871
-53,461	-200,000	15,305	274,540
-52,446	-200,000	695,562	2260,243
-51,432	583,060	1615,242	2886,117
-50,417	121,781	1624,616	1469,153
-49,403	82,382	1283,101	1008,618
-48,388	37,377	1024,927	657,304
-47,373	22,164	985,893	581,998
-46,359	21,121	975,046	572,134
-45,344	19,571	970,781	564,515
-44,330	19,673	969,378	564,011
-43,315	19,458	967,802	562,368
-42,300	19,366	966,699	561,402
-41,286	19,338	965,924	560,837
-40,271	19,414	964,753	560,384
-39,257	19,371	963,988	559,776
-38,242	19,378	963,137	559,283
-37,227	19,364	962,370	558,769
-36,213	19,383	961,526	558,318
-35,198	19,349	960,553	557,622
-34,184	19,410	959,924	557,433
-33,169	19,341	958,919	556,602
-32,154	19,390	958,074	556,250
-31,140	19,427	957,098	555,783
-30,125	19,465	956,331	555,437
-29,111	19,433	955,471	554,812
-28,096	19,432	954,855	554,428
-27,082	19,417	954,219	553,990
-26,067	19,409	953,509	553,529
-25,052	19,432	952,691	553,106
-24,038	19,412	952,039	552,641
-23,023	19,396	951,443	552,221
-22,009	19,407	950,576	551,732
-20,994	19,427	949,892	551,378
-19,979	19,421	949,202	550,934
-18,965	19,386	948,680	550,499
-17,950	19,362	948,173	550,105
-16,936	19,327	947,595	549,636
-15,921	19,365	946,765	549,254
-14,906	19,294	946,172	548,663
-13,892	19,232	945,454	548,026
-12,877	19,269	944,737	547,707
-11,863	19,276	944,106	547,342
-10,848	19,257	943,696	547,021
-9,833	19,368	943,187	547,059
-8,819	19,304	942,670	546,533
-7,804	19,294	942,045	546,118
-6,790	19,247	941,551	545,660
-5,775	19,227	940,967	545,234
-4,760	19,288	940,133	544,925
-3,746	19,232	939,554	544,390
-2,731	19,161	938,744	543,674
-1,717	19,114	938,132	543,147
-0,702	19,135	937,394	542,764
0,313	18,870	937,035	542,537
1,327	21,985	935,164	551,262
2,342	31,206	794,498	492,924
3,356	28,206	449,377	274,263
4,371	-2,269	294,809	149,321
5,386	-6,402	276,169	135,931
6,400	-7,948	270,607	131,736
7,415	-8,386	268,118	130,107
8,429	-7,837	267,035	130,076
9,444	-7,935	266,200	129,568
10,459	-7,876	265,709	129,372
11,473	-7,719	264,903	129,111
12,488	-7,790	264,499	128,838
13,502	-7,953	264,043	128,456
14,517	-7,649	263,596	128,504
15,531	-7,445	263,338	128,552
16,546	-7,238	262,938	128,534
17,561	-7,247	262,657	128,376
18,575	-6,959	262,045	128,325
19,590	-7,396	261,736	127,768
20,604	-7,140	261,550	127,897
21,619	-7,646	261,448	127,380
22,634	-7,481	260,988	127,293
23,648	-7,571	260,608	127,015
24,663	-7,395	260,414	127,067
25,677	-7,600	260,111	126,724
26,692	-7,411	260,027	126,841
27,707	-7,466	259,687	126,615
28,721	-7,419	259,400	126,506
29,736	-7,473	259,122	126,311
30,750	-7,509	258,960	126,189
31,765	-7,540	258,724	126,034
32,780	-7,520	258,502	125,934
33,794	-7,639	258,250	125,693
34,809	-7,513	257,975	125,660
35,823	-7,576	257,740	125,478
36,838	-7,587	257,425	125,304
37,853	-7,719	257,321	125,126
38,867	-7,514	256,986	125,133
39,882	-7,454	256,721	125,046
40,896	-7,711	256,618	124,757
41,911	-7,589	256,348	124,723
42,926	-7,596	256,141	124,605
43,940	-7,455	255,847	124,575
44,955	-7,790	255,589	124,143
45,969	-7,809	255,507	124,075
46,984	-7,735	255,109	123,936
47,999	-7,892	254,967	123,718
49,013	-8,097	254,700	123,398
50,028	-8,136	254,498	123,255
51,042	-8,147	254,088	123,035
52,057	-8,286	253,977	122,849
53,071	-8,032	253,733	122,943
54,086	-7,983	253,530	122,876
55,101	-8,058	253,452	122,762
56,115	-7,799	253,247	122,877
57,130	-7,506	253,136	123,067
58,144	-7,115	252,921	123,292
59,159	-7,212	252,658	123,069
60,174	-7,476	252,622	122,811
61,188	-7,429	252,410	122,738
62,203	-7,512	252,211	122,558
63,217	-7,448	251,903	122,452
64,232	-7,280	251,655	122,466
65,247	-7,481	251,554	122,232
66,261	-7,672	251,403	121,983
67,276	-7,685	251,033	121,782
68,290	-7,813	250,652	121,476
69,305	-8,076	250,588	121,207
70,320	-7,961	250,446	121,226
71,334	-7,705	250,472	121,449
72,349	-7,495	250,114	121,445
73,363	-7,664	249,906	121,188
74,378	-7,426	249,647	121,255
75,393	-7,441	249,491	121,156
76,407	-7,603	249,193	120,862
77,422	-7,451	249,006	120,891
78,436	-7,344	248,801	120,871
79,451	-7,745	248,757	120,497
80,466	-7,453	248,379	120,552
81,480	-7,675	248,189	120,260
82,495	-7,693	248,113	120,197
83,509	-7,861	247,887	119,934
84,524	-7,764	247,632	119,882
85,539	-7,799	247,409	119,734
86,553	-7,684	247,145	119,693
87,568	-7,737	247,076	119,604
88,582	-7,827	246,785	119,377
89,597	-7,754	246,645	119,360
90,611	-7,595	246,536	119,431
91,626	-7,694	246,515	119,326
92,641	-7,415	246,207	119,402
93,655	-7,644	245,969	119,083
94,670	-7,837	245,826	118,840
95,684	-7,596	245,446	118,849
96,699	-7,541	245,431	118,877
97,714	-7,663	245,230	118,667
98,728	-7,862	245,070	118,412
99,743	-7,897	244,693	118,189
100,757	-7,858	244,600	118,166
101,772	-7,938	244,526	118,053
102,787	-7,819	244,196	117,984
103,801	-7,776	244,088	117,957
104,816	-7,687	243,975	117,965
105,830	-7,510	243,848	118,042
106,845	-7,553	243,707	117,927
107,860	-7,516	243,294	117,748
108,874	-7,851	243,264	117,443
109,889	-7,656	242,870	117,405
110,903	-7,892	242,894	117,210
111,918	-7,882	242,582	117,057
112,933	-7,720	242,497	117,140
113,947	-7,753	242,339	117,026
114,962	-7,743	242,071	116,895
115,976	-7,670	241,829	116,827
116,991	-7,526	241,729	116,888
118,006	-7,452	241,525	116,840
119,020	-7,624	241,565	116,707
120,035	-7,487	241,436	116,748
121,049	-7,574	241,378	116,637
122,064	-7,600	241,161	116,500
123,079	-7,666	240,897	116,308
124,093	-7,910	240,683	115,993
125,108	-7,760	240,322	115,932
126,122	-7,725	240,077	115,833
127,137	-7,660	239,893	115,786
128,151	-7,940	239,881	115,541
129,166	-7,685	239,593	115,601
130,181	-7,907	239,530	115,379
131,195	-7,975	239,276	115,190
132,210	-7,925	239,069	115,121
133,224	-7,571	238,784	115,262
134,239	-7,782	238,703	115,041
135,254	-7,945	238,508	114,804
136,268	-7,839	238,410	114,832
137,283	-8,036	238,211	114,567
138,297	-7,918	237,977	114,539
139,312	-8,045	237,767	114,325
140,327	-7,838	237,774	114,487
141,341	-7,345	237,788	114,883
142,356	-7,349	237,441	114,702
143,370	-7,494	237,325	114,518
144,385	-7,485	237,341	114,522
145,400	-7,216	236,943	114,538
146,414	-7,367	236,786	114,331
147,429	-7,339	236,648	114,276
148,443	-7,564	236,496	114,010
149,458	-7,423	236,308	114,024
150,473	-7,594	236,204	113,826
151,487	-7,584	235,779	113,618
152,502	-7,507	235,853	113,706
153,516	-7,383	235,674	113,709
154,531	-7,341	235,510	113,653
155,546	-7,495	235,299	113,419
156,560	-7,625	235,102	113,209
157,575	-7,827	234,915	112,947
158,589	-7,451	234,493	113,035
159,604	-7,424	234,640	113,117
160,619	-7,411	234,527	113,063
161,633	-7,205	234,366	113,140
162,648	-7,223	234,101	112,987
163,662	-7,453	233,949	112,721
164,677	-7,559	233,804	112,556
165,692	-7,661	233,624	112,379
166,706	-7,281	233,527	112,624
167,721	-7,118	233,380	112,672
168,735	-7,381	233,309	112,419
169,750	-7,278	233,009	112,346
170,764	-7,295	232,928	112,284
171,779	-7,385	232,909	112,193
172,794	-7,282	232,585	112,108
173,808	-7,341	232,458	111,991
174,823	-7,861	231,982	111,341
175,837	-7,935	231,891	111,229
176,852	-7,509	231,801	111,512
177,867	-7,413	231,801	111,578
178,881	-7,463	231,560	111,412
179,896	-7,379	231,538	111,458
180,910	-7,407	231,297	111,310
181,925	-7,407	231,101	111,205
182,940	-7,359	230,965	111,168
183,954	-7,286	230,763	111,118
184,969	-7,080	230,756	111,267
185,983	-7,169	230,729	111,174
186,998	-7,066	230,605	111,185
188,013	-7,168	230,317	110,957
189,027	-7,079	230,076	110,900
190,042	-7,051	229,958	110,855
191,056	-7,062	229,710	110,717
192,071	-7,450	229,650	110,375
193,086	-7,409	229,314	110,236
194,100	-7,832	228,950	109,722
195,115	-9,173	228,409	108,412
196,129	-8,847	228,553	108,724
197,144	-4,122	230,009	113,097
198,159	0,670	231,483	117,568
199,173	3,985	232,066	120,452
200,188	4,266	232,313	120,789
201,202	4,267	232,122	120,680
202,217	4,564	231,980	120,828
203,232	4,594	231,806	120,750
204,246	4,760	231,641	120,782
205,261	4,780	231,586	120,759
206,275	4,863	231,473	120,754
207,290	4,837	231,319	120,643
208,304	4,679	230,945	120,314
209,319	4,688	231,118	120,400
210,334	4,731	230,758	120,236
211,348	4,394	230,542	119,850
212,363	4,052	230,354	119,477
213,377	3,922	230,072	119,219
214,392	3,575	230,076	118,941
215,407	3,818	229,681	118,914
216,421	3,671	229,646	118,772
217,436	3,861	229,448	118,806
218,450	3,708	229,209	118,553
219,465	3,487	229,039	118,284
220,480	3,673	229,005	118,400
221,494	3,555	228,884	118,236
222,509	3,617	228,734	118,196
223,523	3,871	228,568	118,295
224,538	3,768	228,346	118,090
225,553	3,795	228,177	118,013
226,567	3,813	228,209	118,033
227,582	3,949	227,980	118,007
228,596	4,209	227,970	118,191
229,611	4,020	227,870	117,984
230,626	3,694	227,496	117,531
231,640	3,595	227,401	117,395
232,655	3,965	227,252	117,591
233,669	4,488	227,158	117,931
234,684	4,259	227,112	117,722
235,699	4,270	226,723	117,518
236,713	4,212	226,692	117,448
237,728	4,122	226,421	117,228
238,742	3,898	226,351	117,011
239,757	3,969	226,228	116,991
240,772	3,844	226,032	116,784
241,786	4,023	225,826	116,803
242,801	4,264	225,839	116,983
243,815	4,276	225,797	116,959
244,830	4,302	225,639	116,887
245,844	4,265	225,380	116,714
246,859	3,987	225,166	116,383
247,874	4,076	225,120	116,416
248,888	4,111	224,969	116,354
249,903	4,000	224,810	116,177
250,917	3,990	224,641	116,072
251,932	3,984	224,490	115,980
252,947	4,022	224,313	115,906
253,961	3,885	224,221	115,745
254,976	4,017	223,961	115,700
255,990	4,010	223,969	115,689
257,005	4,286	223,803	115,799
258,020	4,005	223,694	115,522
259,034	4,236	223,665	115,670
260,049	4,062	223,446	115,416
261,063	4,010	223,205	115,243
262,078	4,146	223,127	115,294
263,093	4,192	223,016	115,260
264,107	4,078	222,839	115,073
265,122	4,172	222,603	115,012
266,136	4,440	222,548	115,173
267,151	4,368	222,335	114,998
268,166	4,084	222,172	114,693
269,180	3,549	221,961	114,175
270,195	3,856	221,771	114,295
271,209	3,985	221,688	114,339
272,224	4,019	221,535	114,274
273,239	3,862	221,489	114,124
274,253	3,740	221,323	113,938
275,268	3,524	221,031	113,617
276,282	3,561	220,926	113,581
277,297	3,479	220,931	113,513
278,312	3,660	220,558	113,444
279,326	3,930	220,571	113,640
280,341	3,929	220,504	113,595
281,355	3,691	220,228	113,267
282,370	3,949	219,972	113,315
283,384	3,731	219,899	113,107
284,399	3,526	219,867	112,929
285,414	3,793	219,656	113,007
286,428	4,047	219,491	113,099
287,443	4,011	219,526	113,081
288,457	4,018	219,321	112,971
289,472	3,912	219,176	112,808
290,487	3,550	218,882	112,381
291,501	3,687	218,736	112,396
292,516	3,702	218,566	112,310
293,530	3,672	218,622	112,307
294,545	3,564	218,320	112,063
295,560	3,854	218,309	112,259
296,574	3,898	218,166	112,208
297,589	3,815	218,019	112,062
298,603	4,009	217,879	112,121
299,618	3,823	217,899	111,986
300,633	3,945	217,653	111,938
301,647	4,260	217,455	112,055
302,662	4,276	217,448	112,054
303,676	4,092	217,192	111,778
304,691	4,218	217,094	111,809
305,706	4,266	217,010	111,790
306,720	4,122	216,851	111,594
307,735	4,040	216,663	111,428
308,749	3,894	216,550	111,255
309,764	3,978	216,421	111,239
310,779	4,083	216,305	111,245
311,793	4,120	216,102	111,158
312,808	4,083	215,880	111,007
313,822	3,969	215,810	110,879
314,837	3,925	215,662	110,761
315,852	3,689	215,590	110,545
316,866	3,839	215,438	110,565
317,881	4,118	215,387	110,729
318,895	4,201	215,208	110,687
319,910	3,884	214,964	110,324
320,925	3,622	214,726	110,004
321,939	3,303	214,691	109,747
322,954	3,559	214,587	109,869
323,968	3,880	214,530	110,059
324,983	3,908	214,405	110,005
325,997	3,886	214,313	109,933
327,012	3,817	214,139	109,784
328,027	3,915	214,042	109,794
329,041	4,235	213,711	109,843
330,056	3,981	213,901	109,750
331,070	3,982	213,539	109,555
332,085	3,607	213,278	109,144
333,100	3,773	213,191	109,208
334,114	4,073	213,216	109,425
335,129	3,947	212,873	109,150
336,143	3,822	212,678	108,951
337,158	3,690	212,660	108,838
338,173	3,821	212,488	108,833
339,187	3,793	212,357	108,737
340,202	3,486	212,225	108,442
341,216	3,385	212,100	108,298
342,231	3,823	211,882	108,486
343,246	3,717	211,944	108,433
344,260	3,985	211,845	108,562
345,275	3,934	211,640	108,411
346,289	3,982	211,585	108,407
347,304	4,034	211,394	108,336
348,319	4,030	211,271	108,261
349,333	3,975	210,951	108,049
350,348	3,971	210,906	108,013
351,362	4,097	210,857	108,067
352,377	3,873	210,733	107,836
353,392	3,838	210,489	107,677
354,406	3,961	210,364	107,691
355,421	193,753	1342,572	1429,286
356,435	154,658	1480,570	1429,351
