DTS Sentinel unit serial number:	SN410029Multiplexer serial number:	ORYXHardware model number:	OX2-SRSoftware version number:	ORYX F/W v4,00 Oryx Data Collector v3.7.2.0data status	okinstallation	B6 Nyhavnadifferential loss correction	single-endedforward channel	channel 2reverse channel	N/Adate	2023/12/10time	14:20:08forward acquisition time	300,00reverse acquisition time	0,00gamma	499,1914k internal	0,3122k external	0,3122temperature offset calibration	1,0000default loss term (dB/km)	0,3820temperature slope calibration	1,0000multiplexer offset coefficient	1,0000multiplexer slope coefficient	1,0000fibre end	0,00T internal ref (°C)	22,63T ext. ref 1 (°C)	6,13T ext. ref 2 (°C)	6,15length (m)	temperature (°C)	Stokes	anti-Stokes-744,400	-200,000	0,016	-0,118
-743,385	168,737	-0,210	0,224
-742,371	800,000	-0,032	-0,088
-741,356	371,693	-0,149	0,226
-740,342	108,422	0,080	-0,071
-739,327	77,120	-0,172	0,136
-738,312	8,363	-0,058	0,032
-737,298	30,572	-0,189	0,120
-736,283	-200,000	-0,018	0,060
-735,269	70,704	-0,228	0,175
-734,254	95,092	0,201	-0,170
-733,239	-76,865	-0,292	-0,076
-732,225	-60,374	0,084	-0,026
-731,210	-200,000	0,027	0,103
-730,196	-5,311	-0,041	0,021
-729,181	241,863	-0,033	-0,041
-728,167	800,000	0,020	-0,065
-727,152	800,000	0,020	0,056
-726,137	436,651	-0,036	-0,058
-725,123	-53,482	-0,032	0,011
-724,108	-26,718	-0,131	0,057
-723,094	-172,080	-0,186	-0,004
-722,079	41,075	-0,069	-0,046
-721,064	-200,000	-0,018	-0,068
-720,050	-148,116	-0,027	-0,002
-719,035	-200,000	0,010	0,056
-718,021	-142,361	-0,089	0,006
-717,006	149,070	-0,033	-0,033
-715,991	-29,947	-0,105	-0,044
-714,977	241,591	-0,043	0,053
-713,962	-200,000	-0,012	0,057
-712,948	577,739	-0,027	0,049
-711,933	800,000	-0,014	0,042
-710,918	-200,000	-0,002	0,038
-709,904	97,747	-0,113	-0,097
-708,889	82,688	-0,106	-0,086
-707,875	110,559	-0,127	-0,114
-706,860	-200,000	-0,005	-0,167
-705,845	-200,000	-0,011	0,050
-704,831	-200,000	0,024	0,093
-703,816	-200,000	0,009	0,157
-702,802	-90,450	-0,050	0,011
-701,787	-57,608	-0,177	0,057
-700,772	74,975	0,063	-0,050
-699,758	-200,000	-0,005	0,050
-698,743	101,634	0,063	0,055
-697,729	-14,437	-0,045	-0,022
-696,714	-180,271	-0,089	-0,001
-695,699	432,663	-0,088	0,142
-694,685	766,418	-0,017	0,035
-693,670	-69,946	-0,199	0,056
-692,656	-58,006	0,171	-0,055
-691,641	189,663	0,040	-0,045
-690,627	-98,642	0,034	-0,006
-689,612	-200,000	-0,016	0,131
-688,597	82,356	-0,069	-0,056
-687,583	49,544	-0,089	-0,062
-686,568	107,347	-0,077	-0,068
-685,554	389,029	-0,038	0,058
-684,539	-63,866	0,082	-0,025
-683,524	150,876	-0,042	-0,043
-682,510	-200,000	-0,004	-0,077
-681,495	-84,419	0,089	0,021
-680,481	-73,396	-0,101	0,027
-679,466	122,063	-0,069	-0,064
-678,451	25,762	-0,109	0,067
-677,437	-135,605	-0,046	0,004
-676,422	800,000	-0,026	-0,056
-675,408	660,865	-0,023	0,045
-674,393	800,000	0,033	0,074
-673,378	-163,438	-0,128	-0,004
-672,364	-136,136	0,116	-0,010
-671,349	-172,562	0,109	-0,003
-670,335	-200,000	-0,007	-0,133
-669,320	215,133	0,056	0,066
-668,305	16,178	-0,091	-0,053
-667,291	800,000	0,005	-0,013
-666,276	70,735	-0,081	-0,062
-665,262	763,077	-0,028	-0,057
-664,247	-124,751	-0,159	0,018
-663,232	-200,000	0,038	-0,152
-662,218	146,774	0,088	-0,088
-661,203	800,000	-0,013	0,041
-660,189	-200,000	-0,018	0,062
-659,174	-200,000	-0,005	-0,100
-658,159	800,000	-0,060	0,132
-657,145	638,967	-0,036	0,069
-656,130	33,398	-0,026	-0,017
-655,116	772,554	0,042	0,086
-654,101	-149,118	0,157	0,009
-653,086	9,050	-0,093	-0,052
-652,072	-161,696	-0,042	0,002
-651,057	-110,559	-0,060	0,009
-650,043	-119,247	0,049	-0,006
-649,028	-200,000	-0,011	-0,078
-648,014	401,573	0,061	-0,095
-646,999	-55,761	-0,085	-0,028
-645,984	196,814	0,089	-0,100
-644,970	228,341	-0,077	-0,094
-643,955	-200,000	-0,014	-0,109
-642,941	274,190	-0,056	0,074
-641,926	352,378	0,124	-0,184
-640,911	709,278	-0,041	0,081
-639,897	-109,017	0,049	0,008
-638,882	21,578	-0,100	-0,060
-637,868	335,994	0,025	-0,036
-636,853	185,105	-0,093	0,103
-635,838	-135,051	-0,077	-0,007
-634,824	800,000	-0,039	-0,109
-633,809	274,402	-0,034	0,045
-632,795	-106,304	-0,102	0,017
-631,780	-75,200	0,042	-0,011
-630,765	-200,000	0,012	0,097
-629,751	-139,537	-0,122	0,010
-628,736	-200,000	0,006	-0,054
-627,722	783,658	0,014	0,028
-626,707	800,000	-0,050	-0,126
-625,692	-93,967	0,021	-0,004
-624,678	156,532	-0,039	0,040
-623,663	1,025	-0,111	-0,059
-622,649	-64,320	0,086	0,026
-621,634	173,180	-0,060	-0,065
-620,619	-200,000	0,010	-0,084
-619,605	-31,804	0,065	-0,027
-618,590	-39,894	0,116	0,045
-617,576	-200,000	0,026	0,138
-616,561	-200,000	0,007	0,060
-615,546	-107,011	0,076	-0,012
-614,532	-80,400	0,003	0,001
-613,517	-200,000	-0,012	0,134
-612,503	302,991	0,031	0,042
-611,488	-200,000	-0,003	0,051
-610,474	178,532	-0,092	0,100
-609,459	-200,000	0,025	0,159
-608,444	-25,710	0,002	0,001
-607,430	367,940	-0,026	0,038
-606,415	50,036	-0,100	-0,070
-605,401	-98,115	0,004	0,001
-604,386	463,420	-0,089	-0,147
-603,371	-200,000	-0,003	-0,032
-602,357	-200,000	-0,001	0,083
-601,342	-78,755	0,159	-0,040
-600,328	-120,771	-0,107	-0,013
-599,313	320,315	-0,030	-0,042
-598,298	-200,000	-0,030	0,133
-597,284	-200,000	-0,021	0,095
-596,269	-107,005	-0,163	0,026
-595,255	131,901	0,077	0,073
-594,240	208,486	0,044	0,051
-593,225	-48,265	-0,035	-0,012
-592,211	189,453	-0,027	-0,030
-591,196	-200,000	0,002	0,016
-590,182	-200,000	0,011	0,192
-589,167	-195,284	0,052	-0,000
-588,152	-200,000	0,021	-0,131
-587,138	-68,225	0,050	0,014
-586,123	-32,667	-0,087	-0,036
-585,109	153,222	-0,092	-0,093
-584,094	-59,989	-0,057	-0,018
-583,079	-76,828	-0,057	0,015
-582,065	-200,000	0,013	-0,067
-581,050	118,483	-0,008	-0,008
-580,036	-148,066	0,047	-0,003
-579,021	95,970	-0,124	-0,105
-578,006	800,000	-0,041	-0,086
-576,992	35,793	0,114	0,074
-575,977	-114,785	-0,079	0,011
-574,963	276,822	-0,042	0,056
-573,948	166,646	0,126	-0,133
-572,934	16,974	0,040	0,024
-571,919	-102,866	-0,096	-0,017
-570,904	-200,000	0,003	0,088
-569,890	-66,091	-0,134	0,039
-568,875	-61,512	0,050	0,015
-567,861	-200,000	-0,014	-0,047
-566,846	44,160	0,070	-0,047
-565,831	-81,838	-0,148	0,036
-564,817	-200,000	-0,021	0,111
-563,802	5,885	-0,190	0,104
-562,788	-185,260	-0,062	0,001
-561,773	-185,031	0,140	0,002
-560,758	5,510	-0,067	0,036
-559,744	800,000	0,063	0,164
-558,729	-50,232	-0,140	-0,049
-557,715	142,672	0,028	-0,028
-556,700	34,993	-0,121	0,078
-555,685	-22,987	-0,052	0,023
-554,671	408,148	0,058	0,091
-553,656	-39,121	0,196	0,076
-552,642	800,000	0,065	0,137
-551,627	-200,000	0,015	-0,123
-550,612	-25,700	0,062	-0,027
-549,598	76,084	-0,098	-0,077
-548,583	114,546	0,083	-0,074
-547,569	178,143	-0,054	-0,059
-546,554	-95,175	-0,048	-0,010
-545,539	-61,703	0,093	0,029
-544,525	83,218	-0,016	0,013
-543,510	172,559	0,071	0,076
-542,496	-200,000	0,001	-0,028
-541,481	-200,000	0,018	-0,079
-540,466	-26,997	0,030	-0,013
-539,452	-200,000	0,027	0,144
-538,437	704,277	0,071	0,139
-537,423	-139,839	0,029	0,002
-536,408	-70,730	-0,166	0,046
-535,393	-34,008	-0,160	0,065
-534,379	-84,085	-0,042	0,010
-533,364	-200,000	-0,003	0,070
-532,350	64,383	-0,036	-0,027
-531,335	-16,349	-0,063	-0,029
-530,321	-173,162	0,104	0,002
-529,306	-200,000	0,006	0,079
-528,291	208,112	-0,042	-0,048
-527,277	800,000	0,026	-0,082
-526,262	-74,519	0,012	-0,003
-525,248	66,060	0,090	-0,067
-524,233	-27,471	0,035	-0,015
-523,218	472,832	-0,076	0,128
-522,204	-200,000	-0,001	0,054
-521,189	113,354	-0,024	0,021
-520,175	-200,000	-0,028	-0,135
-519,160	-96,602	0,053	-0,010
-518,145	622,510	0,008	-0,016
-517,131	460,276	0,006	-0,010
-516,116	86,917	0,073	-0,060
-515,102	271,913	-0,051	0,066
-514,087	-174,105	-0,191	0,004
-513,072	-105,133	0,105	-0,018
-512,058	-200,000	0,012	-0,090
-511,043	-200,000	0,032	0,129
-510,029	-200,000	-0,015	0,067
-509,014	-84,188	0,057	-0,013
-507,999	-24,285	0,074	-0,032
-506,985	-200,000	0,046	-0,211
-505,970	175,060	-0,075	0,080
-504,956	-119,376	0,026	-0,003
-503,941	-36,207	-0,054	-0,021
-502,926	-200,000	-0,004	-0,028
-501,912	-200,000	0,005	-0,019
-500,897	-88,902	-0,063	-0,014
-499,883	292,096	0,057	0,076
-498,868	212,485	-0,048	-0,056
-497,853	-110,417	0,116	0,018
-496,839	-200,000	-0,036	0,138
-495,824	-26,053	0,101	0,044
-494,810	30,482	0,049	0,031
-493,795	-200,000	-0,015	-0,061
-492,781	377,421	0,088	-0,134
-491,766	106,311	-0,111	-0,097
-490,751	800,000	-0,058	-0,188
-489,737	-200,000	0,003	0,044
-488,722	-26,768	-0,032	0,014
-487,708	367,504	0,080	0,120
-486,693	800,000	0,041	0,118
-485,678	14,099	-0,029	0,016
-484,664	-200,000	-0,007	-0,092
-483,649	800,000	-0,045	0,096
-482,635	343,336	-0,046	0,066
-481,620	265,288	0,049	0,063
-480,605	160,823	0,049	0,050
-479,591	-200,000	-0,005	0,123
-478,576	150,359	0,055	0,055
-477,562	-111,384	0,047	-0,007
-476,547	285,971	0,086	-0,115
-475,532	-200,000	0,011	-0,136
-474,518	-200,000	-0,006	-0,060
-473,503	-200,000	-0,001	0,111
-472,489	147,148	0,067	-0,067
-471,474	-200,000	0,020	-0,128
-470,459	-33,095	-0,070	-0,029
-469,445	-200,000	-0,004	0,063
-468,430	-79,230	0,067	-0,017
-467,416	135,195	0,080	-0,077
-466,401	-200,000	0,030	-0,117
-465,386	-173,181	-0,062	-0,001
-464,372	800,000	0,008	-0,025
-463,357	25,287	-0,062	-0,038
-462,343	-200,000	0,027	-0,101
-461,328	-200,000	0,006	-0,083
-460,313	180,401	0,006	0,006
-459,299	107,389	0,212	0,186
-458,284	800,000	0,026	0,059
-457,270	-157,152	0,041	-0,002
-456,255	258,507	0,023	0,029
-455,241	149,644	0,081	-0,081
-454,226	-200,000	0,000	0,082
-453,211	800,000	0,019	-0,061
-452,197	-43,210	0,157	-0,058
-451,182	-56,776	-0,166	0,054
-450,168	-49,437	0,100	0,035
-449,153	114,469	-0,054	-0,049
-448,138	-127,164	-0,044	0,005
-447,124	66,261	0,070	0,053
-446,109	-57,574	0,027	0,009
-445,095	84,535	0,106	-0,086
-444,080	-200,000	0,001	0,042
-443,065	-200,000	0,010	0,092
-442,051	102,732	0,046	-0,040
-441,036	-1,375	-0,041	-0,021
-440,022	100,936	-0,166	-0,142
-439,007	-130,070	0,032	-0,003
-437,992	114,467	0,062	0,055
-436,978	-200,000	-0,017	0,067
-435,963	-200,000	0,010	-0,056
-434,949	800,000	-0,024	-0,068
-433,934	598,794	-0,031	-0,057
-432,919	800,000	0,041	-0,126
-431,905	117,414	0,093	0,084
-430,890	800,000	-0,045	-0,099
-429,876	269,138	0,075	0,098
-428,861	-133,661	0,165	-0,015
-427,846	181,402	-0,061	-0,066
-426,832	175,122	-0,098	-0,105
-425,817	800,000	0,044	-0,104
-424,803	-13,919	-0,034	0,016
-423,788	93,079	0,060	-0,050
-422,773	-200,000	-0,008	0,156
-421,759	800,000	-0,023	0,049
-420,744	-180,963	0,040	0,001
-419,730	15,305	0,021	0,012
-418,715	523,681	0,006	-0,011
-417,701	85,107	-0,111	0,090
-416,686	-130,206	0,160	-0,016
-415,671	607,301	-0,049	0,091
-414,657	-148,107	0,120	-0,007
-413,642	-123,949	-0,088	0,010
-412,628	-200,000	0,026	-0,135
-411,613	141,003	0,036	0,035
-410,598	111,880	0,066	-0,059
-409,584	-57,391	-0,106	0,034
-408,569	12,300	-0,011	-0,006
-407,555	254,260	0,031	-0,040
-406,540	-200,000	0,002	-0,012
-405,525	-31,361	0,090	0,037
-404,511	406,825	0,114	-0,178
-403,496	800,000	0,034	-0,100
-402,482	542,671	0,081	0,142
-401,467	140,074	0,113	0,109
-400,452	78,658	-0,146	0,114
-399,438	3,103	0,119	-0,063
-398,423	800,000	-0,030	0,093
-397,409	134,210	-0,118	0,113
-396,394	204,320	-0,009	-0,010
-395,379	-33,061	0,063	0,026
-394,365	170,475	0,035	0,037
-393,350	-200,000	0,016	0,123
-392,336	-82,521	0,015	-0,004
-391,321	-200,000	-0,017	-0,065
-390,306	17,402	-0,033	0,019
-389,292	-200,000	-0,014	0,097
-388,277	167,591	-0,123	-0,129
-387,263	196,838	0,106	0,119
-386,248	-200,000	0,001	0,064
-385,233	539,131	0,085	0,150
-384,219	-200,000	0,003	-0,040
-383,204	-38,851	-0,114	0,044
-382,190	-200,000	-0,015	0,052
-381,175	-200,000	-0,011	0,102
-380,160	94,222	0,100	0,083
-379,146	800,000	0,053	0,134
-378,131	346,198	0,037	0,054
-377,117	-200,000	0,013	0,080
-376,102	-66,235	-0,057	0,017
-375,088	44,737	-0,108	-0,073
-374,073	-105,232	-0,045	0,007
-373,058	-200,000	-0,004	-0,135
-372,044	34,313	-0,073	-0,047
-371,029	800,000	-0,016	0,038
-370,015	240,112	-0,073	0,090
-369,000	-200,000	0,012	-0,082
-367,985	236,127	-0,029	-0,035
-366,971	184,963	-0,027	0,030
-365,956	-73,388	-0,020	0,005
-364,942	-105,286	0,063	0,010
-363,927	-43,306	0,023	-0,008
-362,912	-200,000	0,049	0,238
-361,898	67,705	0,057	-0,042
-360,883	221,688	0,045	-0,054
-359,869	-200,000	-0,032	-0,129
-358,854	163,143	0,057	0,059
-357,839	102,979	-0,043	0,037
-356,825	589,806	0,039	0,072
-355,810	-200,000	0,002	-0,010
-354,796	800,000	-0,040	-0,111
-353,781	-200,000	0,009	-0,108
-352,766	99,649	0,115	-0,098
-351,752	276,837	-0,057	-0,074
-350,737	-200,000	0,015	0,060
-349,723	-200,000	-0,015	0,096
-348,708	198,671	-0,045	-0,051
-347,693	800,000	-0,033	-0,076
-346,679	51,216	-0,121	-0,084
-345,664	-200,000	-0,015	-0,054
-344,650	114,055	-0,113	-0,101
-343,635	53,747	-0,068	0,048
-342,620	32,518	0,068	0,043
-341,606	-154,912	-0,115	-0,005
-340,591	424,664	0,064	0,101
-339,577	-159,919	-0,166	-0,007
-338,562	158,763	0,034	0,034
-337,548	800,000	-0,009	-0,019
-336,533	402,048	-0,049	0,076
-335,518	181,727	-0,010	-0,011
-334,504	58,360	-0,122	0,088
-333,489	-200,000	0,006	-0,083
-332,475	23,384	0,066	0,040
-331,460	-77,745	-0,069	0,017
-330,445	-196,499	0,129	0,001
-329,431	106,847	-0,079	0,069
-328,416	242,662	0,055	0,068
-327,402	-200,000	-0,005	-0,020
-326,387	-200,000	0,007	-0,108
-325,372	-200,000	0,017	-0,140
-324,358	800,000	0,062	-0,143
-323,343	479,230	-0,033	-0,056
-322,329	-200,000	0,063	-0,219
-321,314	-172,628	0,046	-0,001
-320,299	163,726	-0,015	-0,016
-319,285	149,786	-0,092	-0,091
-318,270	800,000	-0,012	-0,040
-317,256	800,000	-0,012	0,032
-316,241	224,561	0,019	0,023
-315,226	515,250	0,078	0,135
-314,212	781,807	-0,052	-0,105
-313,197	-37,245	-0,092	0,036
-312,183	-200,000	-0,001	0,088
-311,168	-200,000	-0,023	0,129
-310,153	-70,843	-0,097	0,027
-309,139	-65,347	-0,059	0,017
-308,124	-84,096	0,102	0,024
-307,110	7,497	0,010	0,006
-306,095	-200,000	-0,011	-0,109
-305,080	637,273	0,055	0,103
-304,066	278,753	0,121	-0,158
-303,051	800,000	-0,042	-0,107
-302,037	-91,162	-0,077	-0,016
-301,022	-53,968	0,049	-0,016
-300,008	-73,091	0,113	0,030
-298,993	49,091	0,054	-0,037
-297,978	143,962	0,054	-0,053
-296,964	46,146	-0,042	-0,028
-295,949	-200,000	-0,000	-0,141
-294,935	-200,000	-0,011	-0,048
-293,920	800,000	0,087	-0,194
-292,905	-200,000	-0,033	-0,141
-291,891	589,046	-0,085	0,154
-290,876	-195,414	0,049	0,000
-289,862	277,402	0,089	-0,116
-288,847	151,872	-0,075	-0,075
-287,832	92,758	-0,125	-0,103
-286,818	800,000	0,063	-0,157
-285,803	324,687	0,046	0,064
-284,789	212,262	0,050	0,058
-283,774	-200,000	-0,014	0,048
-282,759	14,743	-0,077	-0,044
-281,745	-200,000	0,036	-0,141
-280,730	121,429	-0,093	-0,085
-279,716	222,488	-0,063	0,074
-278,701	-159,484	0,063	0,003
-277,686	344,976	0,035	0,050
-276,672	-128,573	-0,092	0,009
-275,657	800,000	0,044	-0,111
-274,643	154,082	0,038	-0,038
-273,628	219,959	-0,043	-0,051
-272,613	800,000	-0,027	-0,068
-271,599	797,748	0,052	-0,105
-270,584	201,366	0,032	-0,036
-269,570	110,971	0,070	0,061
-268,555	-200,000	-0,014	0,161
-267,540	-200,000	0,010	-0,059
-266,526	-200,000	-0,008	0,030
-265,511	-15,056	-0,093	-0,044
-264,497	-125,377	0,097	0,011
-263,482	33,721	0,049	0,031
-262,467	-77,608	-0,062	0,015
-261,453	-102,205	0,079	0,014
-260,438	800,000	0,026	0,061
-259,424	274,835	0,043	0,055
-258,409	457,743	-0,042	0,069
-257,395	-59,451	0,049	0,015
-256,380	13,678	-0,063	-0,036
-255,365	148,951	-0,083	0,083
-254,351	472,484	-0,046	-0,076
-253,336	-200,000	-0,024	0,137
-252,322	800,000	-0,015	0,047
-251,307	800,000	-0,074	0,158
-250,292	520,014	0,046	0,080
-249,278	115,474	-0,111	0,099
-248,263	800,000	-0,028	0,071
-247,249	20,396	0,068	-0,040
-246,234	-200,000	-0,053	-0,192
-245,219	375,516	-0,063	0,094
-244,205	433,917	0,062	-0,099
-243,190	88,414	0,059	0,048
-242,176	-156,795	0,160	-0,007
-241,161	-63,324	-0,105	0,031
-240,146	-200,000	0,024	0,105
-239,132	20,646	0,084	-0,049
-238,117	592,991	0,062	-0,113
-237,103	-200,000	-0,033	0,142
-236,088	412,886	0,023	-0,036
-235,073	-105,005	0,062	0,010
-234,059	-146,866	-0,107	-0,007
-233,044	267,265	-0,084	-0,108
-232,030	800,000	0,004	0,011
-231,015	800,000	0,040	-0,093
-230,000	-58,417	-0,061	0,019
-228,986	21,895	-0,009	-0,005
-227,971	182,131	0,029	-0,031
-226,957	800,000	-0,061	-0,176
-225,942	-200,000	-0,012	-0,120
-224,927	674,449	-0,040	-0,075
-223,913	800,000	0,006	-0,017
-222,898	-35,908	0,083	0,032
-221,884	-200,000	0,011	0,045
-220,869	800,000	0,007	0,018
-219,855	-200,000	-0,049	0,170
-218,840	537,480	-0,041	-0,072
-217,825	-200,000	0,056	0,219
-216,811	-144,634	0,092	0,006
-215,796	-58,326	-0,052	-0,016
-214,782	-200,000	0,033	-0,144
-213,767	800,000	0,029	-0,082
-212,752	-200,000	0,020	-0,107
-211,738	800,000	-0,046	0,144
-210,723	42,789	0,086	-0,057
-209,709	-171,186	-0,060	0,001
-208,694	-128,261	-0,087	0,009
-207,679	163,233	-0,022	-0,023
-206,665	316,434	0,014	0,020
-205,650	-200,000	-0,008	-0,043
-204,636	240,446	-0,075	0,092
-203,621	-200,000	0,019	0,076
-202,606	-200,000	0,015	0,067
-201,592	240,818	-0,022	0,026
-200,577	-160,861	-0,219	0,008
-199,563	568,212	0,077	0,137
-198,548	241,174	-0,035	-0,043
-197,533	-114,922	0,057	0,008
-196,519	-124,956	0,085	0,009
-195,504	800,000	-0,027	0,083
-194,490	223,031	-0,074	-0,088
-193,475	-104,507	0,102	-0,017
-192,460	-30,559	-0,014	0,006
-191,446	-200,000	0,001	0,077
-190,431	-57,220	0,161	0,051
-189,417	287,826	-0,055	-0,073
-188,402	-200,000	0,006	-0,077
-187,387	-200,000	0,007	0,037
-186,373	116,780	-0,015	-0,013
-185,358	-200,000	-0,001	0,049
-184,344	-116,986	0,085	-0,011
-183,329	-200,000	-0,006	-0,137
-182,315	-200,000	0,009	0,086
-181,300	800,000	-0,058	0,123
-180,285	20,091	0,070	-0,041
-179,271	-200,000	-0,002	-0,013
-178,256	10,664	0,038	-0,021
-177,242	800,000	0,037	-0,114
-176,227	508,820	0,080	0,137
-175,212	307,470	0,074	0,101
-174,198	-19,575	-0,063	0,028
-173,183	80,241	0,112	-0,088
-172,169	99,241	-0,099	0,083
-171,154	389,043	-0,075	0,113
-170,139	-200,000	-0,015	0,063
-169,125	800,000	0,020	0,062
-168,110	74,871	-0,102	0,078
-167,096	48,261	-0,074	-0,050
-166,081	702,157	-0,049	0,095
-165,066	151,670	-0,097	-0,097
-164,052	579,994	0,044	-0,079
-163,037	101,940	0,081	-0,069
-162,023	-147,549	0,097	-0,006
-161,008	-109,272	0,060	-0,009
-159,993	717,237	0,055	-0,107
-158,979	800,000	0,025	-0,073
-157,964	-14,023	-0,114	-0,053
-156,950	-200,000	0,006	-0,071
-155,935	88,438	-0,066	0,053
-154,920	271,435	0,037	0,048
-153,906	-200,000	-0,021	0,084
-152,891	-200,000	0,025	0,193
-151,877	-200,000	0,005	0,036
-150,862	254,558	-0,063	-0,079
-149,847	-147,783	-0,076	-0,005
-148,833	55,861	0,081	0,057
-147,818	30,995	-0,078	0,048
-146,804	-110,538	-0,036	-0,005
-145,789	424,599	-0,079	0,124
-144,775	-200,000	-0,010	-0,141
-143,760	-62,221	0,085	0,026
-142,745	-74,803	-0,192	-0,050
-141,731	800,000	0,047	0,119
-140,716	200,514	-0,020	-0,023
-139,702	-200,000	-0,001	0,064
-138,687	105,044	-0,079	0,068
-137,672	194,844	-0,080	0,089
-136,658	167,403	-0,105	0,109
-135,643	-200,000	0,002	-0,011
-134,629	28,144	0,077	-0,047
-133,614	800,000	0,029	-0,083
-132,599	533,115	0,041	0,072
-131,585	106,295	0,065	0,056
-130,570	-200,000	0,024	-0,196
-129,556	573,082	-0,032	-0,056
-128,541	-55,290	-0,118	-0,038
-127,526	233,839	-0,071	-0,086
-126,512	41,820	0,118	-0,078
-125,497	94,423	0,056	-0,046
-124,483	-81,500	-0,086	-0,020
-123,468	-200,000	0,017	-0,087
-122,453	537,119	0,049	-0,086
-121,439	10,553	-0,086	0,048
-120,424	58,688	-0,174	-0,124
-119,410	-200,000	0,003	0,014
-118,395	-3,302	-0,059	0,030
-117,380	800,000	0,047	0,117
-116,366	800,000	0,037	-0,082
-115,351	-23,843	-0,108	-0,047
-114,337	800,000	0,035	0,075
-113,322	-26,954	0,057	0,024
-112,307	-109,206	0,100	0,015
-111,293	-200,000	-0,002	0,039
-110,278	800,000	-0,041	-0,102
-109,264	800,000	-0,032	-0,098
-108,249	-200,000	-0,014	-0,107
-107,234	-82,828	-0,162	-0,038
-106,220	-149,729	-0,057	-0,003
-105,205	800,000	0,080	0,186
-104,191	504,455	-0,029	0,049
-103,176	121,393	0,150	0,136
-102,162	-200,000	-0,002	0,135
-101,147	16,300	-0,032	-0,018
-100,132	-27,066	-0,113	0,048
-99,118	125,807	0,071	-0,065
-98,103	326,386	-0,082	-0,114
-97,089	-183,746	-0,007	0,000
-96,074	-25,279	0,077	0,033
-95,059	22,743	-0,098	-0,058
-94,045	800,000	-0,043	-0,120
-93,030	172,803	0,110	-0,115
-92,016	-200,000	0,017	-0,054
-91,001	-45,727	0,081	-0,029
-89,986	406,172	-0,068	-0,104
-88,972	800,000	0,009	-0,025
-87,957	77,045	0,093	0,072
-86,943	289,665	-0,074	0,098
-85,928	301,444	-0,084	-0,113
-84,913	-119,634	0,122	-0,015
-83,899	-26,423	-0,147	0,062
-82,884	293,200	0,085	0,113
-81,870	140,899	0,040	0,038
-80,855	241,811	0,115	-0,140
-79,840	115,018	0,013	0,011
-78,826	-123,145	-0,073	0,008
-77,811	372,771	-0,052	0,078
-76,797	239,198	-0,062	0,075
-75,782	-200,000	-0,043	0,225
-74,767	27,506	0,147	0,089
-73,753	-200,000	-0,041	0,148
-72,738	-44,464	-0,037	-0,014
-71,724	-200,000	-0,002	-0,023
-70,709	-58,446	-0,087	-0,027
-69,694	-200,000	-0,004	0,036
-68,680	-135,093	-0,058	-0,005
-67,665	-70,832	0,051	-0,014
-66,651	-200,000	-0,005	-0,092
-65,636	-109,390	-0,085	0,013
-64,622	-200,000	-0,011	-0,153
-63,607	78,850	-0,000	0,000
-62,592	-200,000	0,000	-0,012
-61,578	800,000	-0,032	0,073
-60,563	59,604	-0,045	0,032
-59,549	-200,000	-0,051	0,256
-58,534	-152,968	-1,328	-0,067
-57,519	586,685	-0,771	-1,383
-56,505	-200,000	-0,827	-4,577
-55,490	75,669	0,560	-0,429
-54,476	800,000	4,941	11,902
-53,461	-200,000	13,360	253,500
-52,446	-200,000	688,572	2271,785
-51,432	597,871	1622,862	2931,645
-50,417	120,939	1636,522	1477,451
-49,403	73,768	1290,622	980,782
-48,388	38,489	1025,289	662,000
-47,373	24,552	982,892	588,754
-46,359	23,820	972,543	580,127
-45,344	22,869	968,305	574,466
-44,330	22,821	966,993	573,510
-43,315	22,683	965,435	572,111
-42,300	22,689	964,465	571,535
-41,286	22,653	963,488	570,814
-40,271	22,645	962,655	570,274
-39,257	22,617	961,669	569,576
-38,242	22,657	960,564	569,028
-37,227	22,617	959,897	568,480
-36,213	22,630	958,806	567,853
-35,198	22,497	958,174	567,027
-34,184	22,691	957,471	567,214
-33,169	22,601	956,705	566,449
-32,154	22,637	955,715	565,957
-31,140	22,642	954,819	565,419
-30,125	22,627	954,062	564,902
-29,111	22,676	953,160	564,503
-28,096	22,687	952,489	564,115
-27,082	22,690	951,804	563,699
-26,067	22,640	951,027	563,057
-25,052	22,677	950,363	562,759
-24,038	22,713	949,672	562,443
-23,023	22,679	948,967	561,894
-22,009	22,760	948,250	561,707
-20,994	22,758	947,650	561,323
-19,979	22,726	947,024	560,827
-18,965	22,715	946,323	560,355
-17,950	22,685	946,018	560,057
-16,936	22,606	945,247	559,325
-15,921	22,635	944,377	558,881
-14,906	22,605	943,737	558,385
-13,892	22,573	943,088	557,875
-12,877	22,569	942,544	557,520
-11,863	22,584	941,872	557,146
-10,848	22,537	941,468	556,736
-9,833	22,626	940,798	556,599
-8,819	22,624	940,208	556,224
-7,804	22,570	939,595	555,668
-6,790	22,550	938,976	555,216
-5,775	22,634	938,368	555,101
-4,760	22,620	937,711	554,645
-3,746	22,594	937,156	554,212
-2,731	22,390	936,545	553,184
-1,717	22,389	935,729	552,678
-0,702	22,397	934,930	552,208
0,313	22,162	934,490	552,040
1,327	25,345	932,265	560,693
2,342	34,988	796,779	504,911
3,356	33,029	452,061	283,486
4,371	1,951	293,751	153,210
5,386	-2,615	274,672	138,925
6,400	-4,228	268,830	134,462
7,415	-4,808	266,407	132,705
8,429	-4,513	265,184	132,354
9,444	-4,407	264,476	132,085
10,459	-4,349	263,700	131,739
11,473	-4,479	263,233	131,376
12,488	-4,457	262,536	131,037
13,502	-4,699	262,176	130,626
14,517	-4,552	261,683	130,501
15,531	-4,471	261,254	130,349
16,546	-4,349	260,953	130,297
17,561	-4,375	260,534	130,053
18,575	-4,383	260,378	129,956
19,590	-4,471	259,941	129,647
20,604	-4,338	259,566	129,569
21,619	-4,332	259,342	129,450
22,634	-4,358	258,961	129,225
23,648	-4,436	258,595	128,961
24,663	-4,414	258,466	128,905
25,677	-4,416	258,270	128,794
26,692	-4,411	257,830	128,567
27,707	-4,494	257,682	128,409
28,721	-4,381	257,353	128,333
29,736	-4,440	257,156	128,171
30,750	-4,526	256,888	127,951
31,765	-4,463	256,656	127,880
32,780	-4,524	256,521	127,746
33,794	-4,346	256,365	127,814
34,809	-4,641	256,131	127,426
35,823	-4,499	255,797	127,374
36,838	-4,362	255,477	127,323
37,853	-4,563	255,370	127,083
38,867	-4,583	255,133	126,936
39,882	-4,582	255,052	126,885
40,896	-4,635	254,742	126,673
41,911	-4,492	254,455	126,644
42,926	-4,652	254,308	126,419
43,940	-4,674	253,922	126,197
44,955	-4,543	253,819	126,250
45,969	-4,554	253,456	126,048
46,984	-4,798	253,264	125,728
47,999	-5,162	253,113	125,325
49,013	-5,086	252,720	125,185
50,028	-5,109	252,571	125,081
51,042	-5,138	252,179	124,850
52,057	-5,525	252,195	124,511
53,071	-5,296	251,825	124,516
54,086	-5,272	251,744	124,485
55,101	-5,087	251,613	124,570
56,115	-4,971	251,554	124,629
57,130	-4,477	251,458	124,998
58,144	-4,205	251,068	125,028
59,159	-4,385	251,017	124,836
60,174	-4,365	250,756	124,712
61,188	-4,375	250,557	124,593
62,203	-4,410	250,375	124,462
63,217	-4,445	250,143	124,306
64,232	-4,308	249,880	124,281
65,247	-4,259	249,597	124,171
66,261	-4,411	249,486	123,975
67,276	-4,557	249,138	123,666
68,290	-4,780	249,064	123,427
69,305	-4,955	248,630	123,052
70,320	-5,207	248,732	122,876
71,334	-4,823	248,481	123,068
72,349	-4,323	248,262	123,376
73,363	-4,275	247,988	123,269
74,378	-4,320	247,768	123,111
75,393	-4,438	247,642	122,937
76,407	-4,321	247,437	122,924
77,422	-4,579	247,276	122,613
78,436	-4,523	247,128	122,576
79,451	-4,424	246,996	122,584
80,466	-4,558	246,672	122,299
81,480	-4,724	246,336	121,981
82,495	-4,647	246,153	121,945
83,509	-4,574	245,918	121,879
84,524	-4,518	245,732	121,823
85,539	-4,777	245,679	121,567
86,553	-4,827	245,387	121,371
87,568	-4,664	245,291	121,449
88,582	-4,849	245,252	121,263
89,597	-4,524	244,866	121,334
90,611	-4,663	244,739	121,144
91,626	-4,249	244,655	121,438
92,641	-4,481	244,461	121,137
93,655	-4,651	244,262	120,886
94,670	-4,551	244,132	120,895
95,684	-4,495	243,923	120,827
96,699	-4,478	243,613	120,676
97,714	-4,809	243,448	120,309
98,728	-4,876	243,366	120,201
99,743	-4,899	243,105	120,043
100,757	-4,899	242,914	119,938
101,772	-4,639	242,690	120,033
102,787	-4,647	242,581	119,961
103,801	-4,726	242,348	119,769
104,816	-4,569	242,218	119,825
105,830	-4,431	242,072	119,856
106,845	-4,541	241,854	119,646
107,860	-4,566	241,703	119,540
108,874	-4,430	241,469	119,526
109,889	-4,773	241,347	119,172
110,903	-4,638	241,110	119,156
111,918	-5,000	240,999	118,792
112,933	-4,728	240,799	118,907
113,947	-4,771	240,740	118,831
114,962	-4,458	240,371	118,896
115,976	-4,262	240,196	118,960
116,991	-4,535	240,254	118,754
118,006	-4,635	240,025	118,548
119,020	-4,618	239,904	118,491
120,035	-4,608	239,660	118,368
121,049	-4,590	239,662	118,374
122,064	-4,611	239,374	118,204
123,079	-4,493	239,102	118,155
124,093	-4,763	238,882	117,816
125,108	-4,840	238,740	117,672
126,122	-4,934	238,531	117,482
127,137	-4,888	238,313	117,402
128,151	-4,763	238,020	117,349
129,166	-4,906	238,110	117,266
130,181	-4,922	237,748	117,064
131,195	-5,032	237,671	116,927
132,210	-4,806	237,360	116,947
133,224	-4,623	237,288	117,049
134,239	-4,752	237,129	116,856
135,254	-4,433	236,931	117,006
136,268	-4,755	236,706	116,624
137,283	-4,991	236,555	116,349
138,297	-5,012	236,286	116,189
139,312	-4,916	236,031	116,131
140,327	-4,790	236,138	116,275
141,341	-4,304	235,987	116,582
142,356	-4,354	236,012	116,543
143,370	-4,217	235,782	116,529
144,385	-4,235	235,606	116,417
145,400	-4,152	235,368	116,356
146,414	-4,247	235,224	116,198
147,429	-4,376	235,031	115,989
148,443	-4,472	234,824	115,800
149,458	-4,379	234,810	115,857
150,473	-4,203	234,609	115,888
151,487	-4,256	234,372	115,718
152,502	-4,331	234,221	115,574
153,516	-4,148	233,994	115,597
154,531	-4,519	233,966	115,277
155,546	-4,238	233,585	115,303
156,560	-4,315	233,578	115,227
157,575	-4,369	233,340	115,057
158,589	-4,543	233,103	114,792
159,604	-4,167	233,034	115,046
160,619	-4,191	232,954	114,977
161,633	-3,986	232,741	115,025
162,648	-3,986	232,678	114,983
163,662	-4,370	232,479	114,571
164,677	-4,392	232,295	114,453
165,692	-4,100	232,133	114,593
166,706	-3,896	231,932	114,644
167,721	-4,152	231,961	114,446
168,735	-4,168	231,752	114,321
169,750	-4,063	231,452	114,245
170,764	-4,201	231,347	114,075
171,779	-4,286	231,235	113,942
172,794	-4,218	231,105	113,922
173,808	-4,275	230,953	113,791
174,823	-4,885	230,458	113,059
175,837	-4,788	230,281	113,038
176,852	-4,613	230,367	113,208
177,867	-4,229	230,209	113,421
178,881	-4,220	230,209	113,417
179,896	-4,122	230,137	113,448
180,910	-4,173	229,928	113,296
181,925	-3,983	229,599	113,271
182,940	-4,198	229,567	113,078
183,954	-4,171	229,405	113,009
184,969	-4,045	229,286	113,038
185,983	-3,920	229,165	113,066
186,998	-3,978	228,853	112,858
188,013	-4,042	228,889	112,815
189,027	-4,073	228,719	112,697
190,042	-4,086	228,548	112,593
191,056	-3,795	228,196	112,635
192,071	-4,103	228,260	112,418
193,086	-3,919	227,791	112,319
194,100	-4,231	227,778	112,062
195,115	-4,501	227,380	111,647
196,129	-5,550	227,250	110,763
197,144	-2,089	228,214	113,904
198,159	2,098	229,323	117,699
199,173	4,027	229,855	119,460
200,188	4,272	229,751	119,585
201,202	4,402	229,435	119,511
202,217	4,335	229,502	119,483
203,232	4,571	229,397	119,600
204,246	4,761	229,234	119,652
205,261	4,636	229,050	119,448
206,275	5,013	229,032	119,720
207,290	4,967	228,822	119,564
208,304	5,216	228,604	119,631
209,319	5,092	228,507	119,474
210,334	5,037	228,144	119,231
211,348	4,719	228,012	118,907
212,363	4,338	227,873	118,532
213,377	3,957	227,567	118,069
214,392	4,029	227,505	118,082
215,407	4,306	227,247	118,150
216,421	4,155	227,129	117,962
217,436	4,188	227,002	117,911
218,450	3,923	226,820	117,604
219,465	3,859	226,594	117,427
220,480	3,900	226,529	117,414
221,494	3,857	226,383	117,295
222,509	3,907	226,368	117,314
223,523	3,964	226,119	117,219
224,538	3,938	225,902	117,076
225,553	3,992	225,790	117,049
226,567	4,216	225,690	117,157
227,582	4,333	225,625	117,201
228,596	4,509	225,549	117,285
229,611	4,092	225,388	116,874
230,626	3,907	224,940	116,492
231,640	3,746	224,969	116,374
232,655	4,168	224,774	116,582
233,669	4,654	224,760	116,933
234,684	4,738	224,699	116,954
235,699	4,485	224,468	116,632
236,713	4,132	224,320	116,278
237,728	3,861	224,089	115,944
238,742	4,034	223,879	115,955
239,757	4,062	223,722	115,884
240,772	4,087	223,629	115,845
241,786	4,010	223,323	115,618
242,801	4,155	223,439	115,776
243,815	4,494	223,200	115,897
244,830	4,332	223,091	115,709
245,844	4,173	222,911	115,486
246,859	4,186	222,715	115,384
247,874	4,027	222,725	115,259
248,888	4,341	222,558	115,398
249,903	4,130	222,318	115,106
250,917	4,107	222,180	115,006
251,932	4,139	221,962	114,907
252,947	4,064	222,050	114,887
253,961	3,858	221,688	114,535
254,976	3,952	221,577	114,538
255,990	4,265	221,531	114,737
257,005	4,166	221,391	114,581
258,020	4,425	221,268	114,699
259,034	4,335	221,227	114,601
260,049	4,521	220,965	114,593
261,063	4,233	220,719	114,241
262,078	4,532	220,630	114,407
263,093	4,539	220,605	114,388
264,107	4,351	220,346	114,105
265,122	4,409	220,352	114,141
266,136	4,561	220,224	114,177
267,151	4,577	220,010	114,068
268,166	4,103	219,813	113,605
269,180	4,016	219,524	113,382
270,195	4,019	219,333	113,276
271,209	4,046	219,288	113,262
272,224	4,098	219,079	113,183
273,239	4,211	219,028	113,229
274,253	4,113	218,933	113,098
275,268	3,864	218,733	112,801
276,282	3,921	218,591	112,760
277,297	3,632	218,477	112,479
278,312	3,673	218,336	112,426
279,326	4,054	218,116	112,582
280,341	3,948	218,037	112,454
281,355	4,177	217,980	112,582
282,370	4,121	217,760	112,418
283,384	4,050	217,521	112,232
284,399	3,964	217,447	112,121
285,414	4,063	217,228	112,071
286,428	3,967	217,171	111,961
287,443	4,253	217,052	112,098
288,457	4,273	216,977	112,063
289,472	4,126	216,874	111,894
290,487	3,761	216,489	111,421
291,501	3,488	216,450	111,193
292,516	3,655	216,238	111,195
293,530	3,907	216,177	111,336
294,545	3,731	216,046	111,131
295,560	3,763	215,907	111,073
296,574	3,890	215,923	111,162
297,589	4,102	215,656	111,169
298,603	4,170	215,560	111,158
299,618	4,266	215,360	111,114
300,633	4,308	215,229	111,067
301,647	4,495	215,215	111,185
302,662	4,147	215,213	110,923
303,676	4,397	214,988	110,977
304,691	4,179	214,989	110,811
305,706	4,349	214,704	110,776
306,720	4,416	214,583	110,752
307,735	4,169	214,325	110,432
308,749	3,876	214,195	110,145
309,764	4,149	214,116	110,290
310,779	4,266	214,008	110,309
311,793	4,274	213,866	110,231
312,808	4,089	213,705	110,006
313,822	4,031	213,531	109,866
314,837	3,935	213,454	109,748
315,852	3,936	213,113	109,563
316,866	3,933	213,018	109,502
317,881	4,201	213,120	109,736
318,895	4,365	212,746	109,650
319,910	4,098	212,763	109,459
320,925	3,881	212,508	109,164
321,939	3,574	212,141	108,749
322,954	3,574	212,230	108,784
323,968	3,957	212,181	109,021
324,983	4,074	212,104	109,055
325,997	4,320	211,943	109,136
327,012	4,327	211,623	108,967
328,027	4,256	211,626	108,908
329,041	4,396	211,592	108,980
330,056	4,692	211,517	109,140
331,070	4,315	211,214	108,709
332,085	4,002	211,095	108,417
333,100	3,900	211,052	108,314
334,114	4,102	210,869	108,352
335,129	4,079	210,596	108,186
336,143	3,724	210,523	107,889
337,158	4,055	210,388	108,043
338,173	3,956	210,250	107,893
339,187	3,688	210,138	107,639
340,202	3,692	209,897	107,508
341,216	3,687	209,725	107,407
342,231	3,945	209,614	107,521
343,246	3,914	209,414	107,387
344,260	3,675	209,355	107,180
345,275	4,241	209,308	107,542
346,289	4,143	209,223	107,420
347,304	4,160	209,108	107,363
348,319	4,212	208,974	107,321
349,333	4,193	208,777	107,197
350,348	4,027	208,770	107,068
351,362	4,453	208,601	107,269
352,377	4,314	208,476	107,098
353,392	4,183	208,291	106,903
354,406	4,076	208,255	106,801
355,421	193,536	1346,132	1433,842
356,435	154,396	1484,884	1433,968
