DTS Sentinel unit serial number:	SN410029Multiplexer serial number:	ORYXHardware model number:	OX2-SRSoftware version number:	ORYX F/W v4,00 Oryx Data Collector v3.7.2.0data status	okinstallation	B6 Nyhavnadifferential loss correction	single-endedforward channel	channel 2reverse channel	N/Adate	2023/12/09time	01:45:08forward acquisition time	300,00reverse acquisition time	0,00gamma	499,1914k internal	0,3155k external	0,3155temperature offset calibration	1,0000default loss term (dB/km)	0,3820temperature slope calibration	1,0000multiplexer offset coefficient	1,0000multiplexer slope coefficient	1,0000fibre end	0,00T internal ref (°C)	15,82T ext. ref 1 (°C)	-0,49T ext. ref 2 (°C)	-0,51length (m)	temperature (°C)	Stokes	anti-Stokes-744,400	-200,000	-0,016	0,065
-743,385	-107,406	-0,264	-0,042
-742,371	40,534	0,131	0,087
-741,356	-79,878	-0,267	0,066
-740,342	231,430	0,082	0,100
-739,327	-67,419	-0,285	-0,082
-738,312	160,152	-0,004	0,004
-737,298	-86,105	-0,321	-0,072
-736,283	162,095	0,073	0,075
-735,269	-144,289	-0,250	0,017
-734,254	-19,523	0,186	0,085
-733,239	-127,191	-0,588	-0,063
-732,225	-122,620	0,194	-0,023
-731,210	-101,530	-0,066	-0,012
-730,196	554,818	-0,053	-0,095
-729,181	-31,051	-0,182	-0,075
-728,167	202,836	-0,117	0,133
-727,152	-43,390	0,058	0,022
-726,137	-79,205	-0,119	-0,030
-725,123	-99,482	-0,023	-0,004
-724,108	800,000	-0,025	-0,067
-723,094	105,228	0,095	-0,083
-722,079	-200,000	-0,016	0,102
-721,064	-200,000	-0,026	0,088
-720,050	800,000	-0,042	-0,094
-719,035	-200,000	-0,000	-0,033
-718,021	-200,000	-0,014	-0,077
-717,006	800,000	0,045	-0,129
-715,991	250,393	-0,064	-0,080
-714,977	47,193	-0,082	-0,056
-713,962	-200,000	-0,002	-0,127
-712,948	360,327	-0,132	-0,195
-711,933	584,409	-0,051	0,092
-710,918	211,823	-0,060	-0,069
-709,904	800,000	-0,043	-0,126
-708,889	-200,000	0,004	0,017
-707,875	137,715	-0,099	0,096
-706,860	-68,069	0,059	0,017
-705,845	-148,420	0,152	0,009
-704,831	-200,000	0,027	0,110
-703,816	-57,521	0,036	-0,012
-702,802	800,000	-0,015	-0,043
-701,787	43,478	-0,128	0,086
-700,772	503,266	-0,067	0,114
-699,758	-200,000	-0,001	0,030
-698,743	178,362	0,030	-0,032
-697,729	800,000	0,019	0,046
-696,714	-200,000	-0,022	-0,133
-695,699	71,086	0,007	0,005
-694,685	-161,312	0,045	0,002
-693,670	-97,356	-0,138	-0,026
-692,656	52,440	0,077	-0,054
-691,641	262,203	-0,044	-0,056
-690,627	-141,655	0,072	0,005
-689,612	-5,981	-0,080	0,040
-688,597	8,596	-0,041	-0,023
-687,583	-187,592	-0,166	0,002
-686,568	-147,508	0,011	-0,001
-685,554	-50,665	0,116	-0,040
-684,539	540,697	0,092	-0,162
-683,524	779,665	-0,045	0,091
-682,510	-200,000	-0,012	0,048
-681,495	-52,157	-0,147	0,050
-680,481	515,161	-0,101	-0,174
-679,466	-45,489	-0,155	-0,056
-678,451	-23,585	-0,165	-0,072
-677,437	-200,000	0,045	-0,150
-676,422	17,127	-0,021	0,012
-675,408	333,099	-0,074	-0,105
-674,393	-99,021	-0,166	0,031
-673,378	-200,000	0,004	0,064
-672,364	-43,266	-0,039	-0,015
-671,349	81,078	0,105	-0,084
-670,335	-200,000	-0,008	-0,049
-669,320	60,980	-0,043	0,031
-668,305	800,000	-0,067	0,151
-667,291	-72,751	0,016	-0,004
-666,276	-200,000	0,014	-0,078
-665,262	663,811	-0,069	-0,131
-664,247	-200,000	0,012	-0,077
-663,232	-200,000	0,027	-0,115
-662,218	-200,000	-0,013	0,147
-661,203	78,922	0,062	-0,049
-660,189	-82,068	-0,101	-0,024
-659,174	-200,000	-0,009	-0,145
-658,159	65,916	-0,078	-0,058
-657,145	-200,000	0,016	-0,095
-656,130	88,276	0,077	0,063
-655,116	-200,000	-0,006	-0,037
-654,101	800,000	-0,055	0,124
-653,086	-154,377	-0,153	0,007
-652,072	772,388	0,055	-0,111
-651,057	-66,304	0,035	-0,010
-650,043	268,040	-0,057	-0,074
-649,028	-20,325	0,124	-0,056
-648,014	-200,000	0,015	0,130
-646,999	-1,279	0,150	-0,078
-645,984	146,383	0,065	0,064
-644,970	31,002	-0,136	-0,086
-643,955	-200,000	-0,033	-0,108
-642,941	70,504	-0,088	-0,067
-641,926	135,825	-0,082	0,078
-640,911	800,000	-0,016	-0,041
-639,897	111,083	0,058	-0,051
-638,882	-130,127	-0,077	-0,008
-637,868	30,566	-0,092	-0,058
-636,853	800,000	0,023	-0,064
-635,838	330,715	-0,097	-0,137
-634,824	-111,091	-0,177	0,026
-633,809	246,117	0,082	0,102
-632,795	240,638	0,015	-0,019
-631,780	-90,584	-0,106	-0,022
-630,765	85,422	-0,077	0,062
-629,751	298,873	-0,047	0,064
-628,736	-200,000	0,007	0,106
-627,722	212,985	-0,010	0,012
-626,707	-84,366	0,058	0,013
-625,692	87,860	0,050	0,041
-624,678	-74,743	0,068	0,018
-623,663	-200,000	-0,016	0,052
-622,649	800,000	0,029	0,062
-621,634	800,000	-0,023	-0,049
-620,619	20,886	-0,056	0,033
-619,605	-105,187	0,090	0,015
-618,590	417,286	-0,044	0,069
-617,576	31,054	-0,080	0,050
-616,561	130,503	0,101	0,095
-615,546	-10,184	-0,060	-0,029
-614,532	-200,000	-0,009	-0,040
-613,517	-200,000	-0,001	0,003
-612,503	43,185	-0,132	-0,088
-611,488	-163,923	0,121	0,004
-610,474	50,033	0,019	-0,013
-609,459	800,000	0,042	-0,122
-608,444	-2,530	-0,041	-0,021
-607,430	800,000	-0,020	-0,064
-606,415	9,142	-0,076	0,042
-605,401	82,872	0,055	-0,044
-604,386	-181,190	-0,050	0,001
-603,371	-21,572	-0,087	-0,039
-602,357	800,000	0,064	-0,139
-601,342	27,991	-0,121	-0,075
-600,328	50,369	0,026	-0,018
-599,313	445,908	-0,039	-0,063
-598,298	361,845	-0,151	-0,223
-597,284	-48,914	0,081	0,028
-596,269	-109,011	0,077	-0,012
-595,255	236,364	-0,080	-0,098
-594,240	199,171	-0,043	0,048
-593,225	615,230	-0,016	-0,029
-592,211	-200,000	-0,012	-0,174
-591,196	145,934	0,092	0,090
-590,182	-109,649	-0,205	-0,031
-589,167	782,816	-0,018	0,036
-588,152	245,644	-0,017	-0,021
-587,138	-200,000	0,001	-0,105
-586,123	137,151	-0,109	-0,104
-585,109	569,343	0,015	-0,027
-584,094	800,000	0,039	-0,121
-583,079	112,301	0,043	-0,038
-582,065	73,137	0,070	0,054
-581,050	-28,425	0,034	-0,015
-580,036	-90,900	-0,128	0,027
-579,021	84,197	-0,092	-0,074
-578,006	-158,779	-0,099	0,004
-576,992	800,000	-0,031	-0,068
-575,977	-103,927	-0,079	0,013
-574,963	120,826	0,078	0,071
-573,948	-200,000	0,013	0,102
-572,934	-200,000	-0,011	0,165
-571,919	-85,280	0,115	-0,026
-570,904	-200,000	-0,043	-0,181
-569,890	800,000	-0,030	0,067
-568,875	-53,083	-0,124	0,042
-567,861	-64,457	-0,075	0,022
-566,846	800,000	-0,051	-0,111
-565,831	-200,000	0,020	0,076
-564,817	109,713	-0,014	-0,012
-563,802	336,694	-0,051	-0,073
-562,788	800,000	-0,018	-0,052
-561,773	-124,512	-0,025	0,003
-560,758	65,590	0,063	0,047
-559,744	28,938	0,093	0,058
-558,729	725,374	0,036	0,071
-557,715	-130,661	-0,164	0,016
-556,700	44,709	-0,096	-0,065
-555,685	-200,000	0,015	0,087
-554,671	80,614	0,078	-0,061
-553,656	332,091	0,054	0,076
-552,642	281,425	-0,063	-0,083
-551,627	563,874	-0,052	-0,093
-550,612	-99,264	0,091	0,017
-549,598	-111,378	-0,035	-0,005
-548,583	131,539	-0,062	-0,058
-547,569	-18,062	0,041	-0,019
-546,554	-200,000	0,019	0,075
-545,539	10,412	0,084	0,047
-544,525	-9,022	-0,139	-0,068
-543,510	286,368	0,067	-0,089
-542,496	604,934	0,051	-0,093
-541,481	-200,000	-0,006	-0,056
-540,466	74,587	-0,024	-0,019
-539,452	-138,946	0,138	-0,011
-538,437	344,098	0,091	-0,131
-537,423	-200,000	-0,052	-0,169
-536,408	54,845	0,054	0,038
-535,393	127,320	-0,058	0,054
-534,379	558,994	-0,024	-0,042
-533,364	-55,188	0,013	-0,004
-532,350	170,507	0,081	0,085
-531,335	378,574	-0,030	-0,046
-530,321	-200,000	-0,001	-0,102
-529,306	-153,010	-0,110	0,006
-528,291	213,537	0,070	-0,082
-527,277	800,000	-0,071	-0,185
-526,262	-200,000	-0,008	-0,146
-525,248	-200,000	-0,003	0,077
-524,233	-200,000	-0,032	0,195
-523,218	56,886	-0,062	0,044
-522,204	54,228	-0,076	0,053
-521,189	-184,874	-0,063	0,001
-520,175	282,218	-0,097	-0,128
-519,160	800,000	0,061	0,184
-518,145	316,157	-0,044	0,061
-517,131	66,926	0,102	0,076
-516,116	244,446	-0,091	0,112
-515,102	-38,087	0,011	-0,004
-514,087	-200,000	-0,009	-0,101
-513,072	-200,000	0,017	-0,083
-512,058	-200,000	0,003	-0,233
-511,043	-200,000	-0,040	0,154
-510,029	800,000	0,056	-0,127
-509,014	369,192	0,052	-0,077
-507,999	69,599	-0,048	0,036
-506,985	800,000	-0,043	0,132
-505,970	127,330	-0,041	-0,038
-504,956	86,558	-0,110	0,089
-503,941	-84,915	-0,053	-0,012
-502,926	65,432	0,105	-0,078
-501,912	-166,090	0,052	0,002
-500,897	800,000	-0,024	0,068
-499,883	-200,000	0,027	-0,134
-498,868	21,670	-0,108	-0,064
-497,853	-51,018	-0,063	-0,021
-496,839	-200,000	0,016	0,087
-495,824	-44,056	0,202	-0,074
-494,810	72,868	-0,092	-0,070
-493,795	-200,000	0,027	0,140
-492,781	129,933	-0,111	0,104
-491,766	800,000	0,017	-0,034
-490,751	630,402	-0,064	0,118
-489,737	-136,262	-0,112	-0,009
-488,722	58,510	0,065	0,046
-487,708	164,668	0,102	0,105
-486,693	-200,000	0,023	0,085
-485,678	-109,690	-0,091	-0,014
-484,664	800,000	-0,033	-0,080
-483,649	-200,000	0,023	0,083
-482,635	-11,052	-0,020	0,010
-481,620	800,000	-0,037	0,091
-480,605	45,463	-0,175	0,118
-479,591	113,016	0,089	0,079
-478,576	796,115	-0,032	-0,064
-477,562	-200,000	-0,009	-0,070
-476,547	-200,000	0,012	-0,069
-475,532	-69,361	0,050	0,014
-474,518	48,415	0,035	-0,024
-473,503	-118,533	0,170	0,022
-472,489	-65,423	-0,095	-0,028
-471,474	-200,000	-0,039	-0,128
-470,459	237,326	0,061	0,074
-469,445	800,000	0,018	-0,046
-468,430	-14,038	-0,079	-0,037
-467,416	-200,000	-0,007	-0,103
-466,401	515,728	0,060	0,103
-465,386	-200,000	-0,001	0,046
-464,372	800,000	0,047	0,106
-463,357	800,000	-0,033	-0,075
-462,343	425,379	-0,027	-0,043
-461,328	527,293	0,039	0,068
-460,313	131,659	-0,018	0,016
-459,299	-40,038	0,129	-0,049
-458,284	303,838	0,084	-0,114
-457,270	-200,000	-0,019	-0,078
-456,255	-181,613	-0,144	-0,002
-455,241	-39,466	-0,143	-0,054
-454,226	-16,249	0,112	0,052
-453,211	-55,268	-0,147	-0,048
-452,197	-47,097	0,111	-0,039
-451,182	21,820	0,060	-0,035
-450,168	-147,597	-0,107	0,006
-449,153	800,000	-0,008	0,018
-448,138	628,130	0,031	-0,057
-447,124	-2,157	0,144	-0,073
-446,109	99,326	-0,076	-0,064
-445,095	-200,000	0,031	0,167
-444,080	27,838	0,067	0,041
-443,065	800,000	-0,046	0,135
-442,051	-200,000	0,006	0,037
-441,036	-200,000	-0,006	-0,033
-440,022	-9,545	0,088	0,043
-439,007	6,292	-0,001	-0,001
-437,992	-11,066	0,154	0,074
-436,978	-7,223	-0,178	0,088
-435,963	29,022	-0,003	-0,002
-434,949	-200,000	-0,009	0,089
-433,934	-65,692	0,081	0,024
-432,919	-75,870	-0,050	0,013
-431,905	79,935	-0,087	-0,068
-430,890	109,765	0,060	0,052
-429,876	-9,982	0,099	-0,048
-428,861	164,104	0,091	-0,094
-427,846	501,640	-0,067	0,112
-426,832	-200,000	-0,006	-0,128
-425,817	-200,000	0,011	-0,088
-424,803	-146,915	-0,145	0,009
-423,788	773,631	-0,026	-0,052
-422,773	-200,000	-0,050	0,207
-421,759	-200,000	0,002	-0,054
-420,744	-42,666	-0,064	-0,024
-419,730	81,758	0,126	0,099
-418,715	-33,579	-0,093	0,037
-417,701	-61,320	0,148	-0,045
-416,686	-69,837	0,022	-0,006
-415,671	800,000	0,023	0,051
-414,657	-200,000	0,002	0,205
-413,642	729,046	0,074	0,144
-412,628	446,591	-0,008	0,013
-411,613	-21,336	-0,101	0,045
-410,598	96,675	-0,077	0,064
-409,584	-37,574	0,107	-0,041
-408,569	-83,431	0,103	0,024
-407,555	152,385	-0,045	-0,045
-406,540	88,146	-0,101	0,082
-405,525	219,850	0,039	0,045
-404,511	-200,000	0,024	-0,138
-403,496	-108,398	0,119	0,018
-402,482	-38,206	-0,040	0,015
-401,467	122,400	-0,067	-0,061
-400,452	-14,808	0,118	-0,055
-399,438	317,681	0,083	-0,115
-398,423	-108,328	-0,107	-0,017
-397,409	161,152	-0,058	-0,059
-396,394	-200,000	0,007	0,096
-395,379	260,150	0,011	0,014
-394,365	499,325	-0,018	0,031
-393,350	474,863	0,124	0,205
-392,336	89,821	-0,113	0,092
-391,321	-93,706	-0,033	-0,007
-390,306	800,000	0,020	-0,053
-389,292	-149,392	-0,132	-0,007
-388,277	758,178	0,032	-0,064
-387,263	466,034	-0,048	-0,078
-386,248	-200,000	-0,003	-0,012
-385,233	222,700	0,057	0,067
-384,219	272,678	0,078	-0,101
-383,204	800,000	-0,062	-0,142
-382,190	93,634	0,033	0,027
-381,175	210,165	-0,099	-0,114
-380,160	-200,000	0,022	-0,131
-379,146	367,601	-0,020	-0,030
-378,131	-200,000	-0,017	-0,086
-377,117	800,000	-0,033	0,085
-376,102	92,052	-0,054	-0,045
-375,088	76,596	-0,022	-0,017
-374,073	572,151	0,018	0,032
-373,058	-126,325	0,146	-0,016
-372,044	455,007	-0,035	0,057
-371,029	128,610	-0,016	-0,015
-370,015	-200,000	0,041	0,189
-369,000	513,804	-0,052	-0,088
-367,985	592,913	0,007	-0,012
-366,971	-200,000	-0,002	-0,122
-365,956	-46,066	0,197	0,070
-364,942	36,827	0,077	0,049
-363,927	-132,901	0,177	0,016
-362,912	238,721	0,083	0,100
-361,898	92,070	-0,049	0,040
-360,883	704,738	0,052	-0,100
-359,869	-97,689	-0,102	0,019
-358,854	131,810	-0,082	-0,077
-357,839	-130,540	0,081	-0,008
-356,825	-112,271	-0,045	0,006
-355,810	-69,462	0,034	-0,009
-354,796	-200,000	0,024	0,140
-353,781	-200,000	-0,030	-0,194
-352,766	323,210	-0,156	-0,217
-351,752	34,235	-0,153	-0,096
-350,737	-200,000	0,020	-0,085
-349,723	-68,953	0,179	0,050
-348,708	-47,987	0,119	0,042
-347,693	-93,743	-0,158	-0,031
-346,679	153,622	0,078	-0,077
-345,664	-53,743	0,030	-0,010
-344,650	-139,703	0,204	0,016
-343,635	-105,114	0,091	0,015
-342,620	381,062	0,068	0,102
-341,606	800,000	-0,015	0,039
-340,591	-20,774	-0,057	0,025
-339,577	-153,494	0,156	-0,008
-338,562	493,641	-0,054	-0,091
-337,548	145,442	0,102	0,099
-336,533	637,074	-0,004	0,008
-335,518	-200,000	-0,008	-0,136
-334,504	255,411	-0,145	0,181
-333,489	131,499	0,099	0,092
-332,475	-72,671	0,094	0,025
-331,460	-200,000	-0,020	-0,099
-330,445	21,676	-0,132	-0,078
-329,431	84,180	0,119	-0,095
-328,416	51,313	0,127	0,088
-327,402	800,000	0,061	-0,157
-326,387	-129,149	-0,057	-0,006
-325,372	65,408	-0,020	-0,014
-324,358	401,493	0,099	-0,152
-323,343	-126,453	-0,076	-0,008
-322,329	112,515	0,100	0,088
-321,314	270,986	-0,028	0,036
-320,299	-200,000	-0,000	0,125
-319,285	68,606	-0,029	-0,022
-318,270	357,048	-0,057	-0,083
-317,256	59,222	0,122	-0,087
-316,241	-200,000	0,004	-0,034
-315,226	-200,000	-0,013	-0,068
-314,212	538,731	0,064	0,111
-313,197	-200,000	-0,013	0,204
-312,183	-200,000	0,004	0,106
-311,168	-24,516	0,050	-0,021
-310,153	-90,767	-0,095	0,020
-309,139	-64,187	0,012	-0,003
-308,124	-82,848	-0,122	0,028
-307,110	-150,518	-0,057	0,003
-306,095	-20,675	0,150	0,066
-305,080	238,227	-0,065	0,078
-304,066	690,009	0,035	-0,067
-303,051	-200,000	-0,005	-0,061
-302,037	228,269	-0,052	-0,061
-301,022	-32,615	0,067	0,027
-300,008	800,000	-0,040	-0,109
-298,993	264,059	0,039	-0,050
-297,978	32,170	-0,026	-0,016
-296,964	-134,712	-0,136	-0,012
-295,949	-200,000	-0,001	-0,060
-294,935	449,461	0,033	-0,053
-293,920	-200,000	-0,011	0,042
-292,905	800,000	-0,043	0,128
-291,891	-200,000	-0,010	0,149
-290,876	-116,025	-0,091	-0,012
-289,862	-35,171	-0,040	-0,016
-288,847	9,512	0,091	0,050
-287,832	-200,000	0,014	0,076
-286,818	130,435	-0,066	-0,061
-285,803	-2,961	0,022	0,011
-284,789	-200,000	-0,024	0,169
-283,774	107,772	-0,061	0,053
-282,759	-200,000	0,008	0,121
-281,745	77,806	0,010	-0,008
-280,730	243,114	0,085	-0,103
-279,716	73,841	-0,032	0,024
-278,701	800,000	0,053	0,156
-277,686	-45,852	-0,087	0,031
-276,672	18,221	0,097	0,056
-275,657	115,347	0,057	-0,051
-274,643	-200,000	-0,024	-0,086
-273,628	415,519	0,037	-0,057
-272,613	-78,261	0,067	-0,016
-271,599	30,516	0,083	0,051
-270,584	-200,000	-0,009	0,032
-269,570	-200,000	0,019	-0,119
-268,555	800,000	0,041	0,100
-267,540	-200,000	0,014	0,176
-266,526	-91,574	0,117	-0,024
-265,511	800,000	-0,010	0,023
-264,497	76,569	0,057	0,044
-263,482	16,048	0,126	-0,071
-262,467	-200,000	-0,032	0,108
-261,453	-102,835	-0,117	0,020
-260,438	242,618	-0,128	-0,155
-259,424	39,296	0,185	-0,119
-258,409	156,183	-0,028	0,028
-257,395	-200,000	-0,010	0,089
-256,380	-200,000	0,011	0,067
-255,365	-13,996	-0,036	-0,017
-254,351	24,454	0,080	0,048
-253,336	352,051	-0,048	0,068
-252,322	-52,287	-0,041	0,014
-251,307	-200,000	-0,011	0,092
-250,292	245,922	-0,134	0,163
-249,278	427,287	0,018	0,028
-248,263	572,001	0,010	0,017
-247,249	210,326	0,084	-0,095
-246,234	-200,000	0,047	0,253
-245,219	-102,494	0,088	0,015
-244,205	-200,000	0,028	0,124
-243,190	-200,000	0,007	-0,052
-242,176	394,444	0,045	-0,068
-241,161	480,369	-0,018	0,030
-240,146	155,249	-0,039	-0,039
-239,132	89,175	-0,023	0,019
-238,117	669,117	0,077	-0,144
-237,103	800,000	-0,058	-0,154
-236,088	575,198	0,042	-0,075
-235,073	-200,000	0,015	-0,091
-234,059	-200,000	-0,016	-0,068
-233,044	-158,238	-0,085	0,004
-232,030	-40,131	-0,112	-0,042
-231,015	451,305	0,025	-0,041
-230,000	1,223	0,061	0,032
-228,986	598,784	0,069	0,123
-227,971	51,893	-0,070	0,048
-226,957	101,368	0,036	-0,030
-225,942	-134,460	-0,056	-0,005
-224,927	-200,000	0,042	0,177
-223,913	-200,000	0,004	0,051
-222,898	-114,193	-0,158	-0,022
-221,884	114,343	0,052	0,046
-220,869	675,125	-0,038	0,072
-219,855	800,000	-0,018	0,045
-218,840	-200,000	-0,007	0,228
-217,825	-200,000	0,013	-0,101
-216,811	77,944	-0,109	-0,084
-215,796	800,000	0,032	-0,070
-214,782	70,537	0,046	-0,034
-213,767	143,986	-0,064	0,062
-212,752	-89,253	-0,071	-0,015
-211,738	-4,775	0,072	-0,036
-210,723	425,469	0,015	-0,024
-209,709	88,436	-0,086	-0,069
-208,694	-45,896	-0,148	-0,052
-207,679	-200,000	-0,013	0,086
-206,665	102,078	0,091	0,077
-205,650	800,000	0,065	0,165
-204,636	-49,625	0,073	0,025
-203,621	-200,000	0,016	-0,116
-202,606	-200,000	-0,006	0,077
-201,592	-200,000	-0,010	-0,169
-200,577	0,725	0,068	-0,035
-199,563	-106,189	-0,145	-0,023
-198,548	-135,983	0,128	-0,011
-197,533	97,630	-0,120	0,100
-196,519	35,435	0,127	0,081
-195,504	157,165	0,117	0,117
-194,490	-65,704	-0,097	-0,028
-193,475	-170,152	0,059	0,001
-192,460	-33,469	0,100	-0,040
-191,446	-99,102	-0,062	-0,011
-190,431	-119,989	0,076	-0,009
-189,417	167,550	-0,120	0,123
-188,402	-18,453	-0,011	0,005
-187,387	429,220	-0,021	-0,032
-186,373	-30,650	0,108	0,044
-185,358	800,000	-0,028	0,059
-184,344	83,793	0,100	0,079
-183,329	394,761	0,053	-0,080
-182,315	-184,427	0,098	-0,001
-181,300	75,652	0,023	0,017
-180,285	800,000	-0,014	-0,032
-179,271	-200,000	-0,018	-0,072
-178,256	767,511	0,049	-0,096
-177,242	-40,765	0,079	0,029
-176,227	-200,000	0,009	0,097
-175,212	-165,041	0,118	-0,004
-174,198	800,000	-0,031	-0,075
-173,183	252,053	0,123	0,151
-172,169	67,263	0,056	0,041
-171,154	-200,000	-0,004	-0,023
-170,139	800,000	-0,062	-0,163
-169,125	-200,000	0,046	0,219
-168,110	-58,341	-0,073	-0,023
-167,096	-200,000	0,020	0,124
-166,081	-181,441	-0,058	-0,001
-165,066	800,000	0,054	-0,110
-164,052	100,682	-0,047	-0,039
-163,037	-200,000	-0,004	-0,032
-162,023	-200,000	0,011	0,051
-161,008	-200,000	-0,018	0,148
-159,993	-200,000	-0,009	0,031
-158,979	-139,458	-0,080	-0,006
-157,964	800,000	0,059	-0,121
-156,950	323,677	-0,047	0,064
-155,935	35,086	0,075	0,047
-154,920	423,885	0,054	-0,084
-153,906	218,231	0,062	-0,072
-152,891	67,917	-0,139	0,102
-151,877	207,431	-0,108	-0,122
-150,862	-200,000	-0,011	-0,067
-149,847	-137,326	-0,057	-0,005
-148,833	681,100	0,043	0,082
-147,818	40,567	0,059	0,038
-146,804	216,608	-0,028	0,032
-145,789	187,918	-0,028	0,030
-144,775	-20,638	-0,074	-0,033
-143,760	472,978	0,074	-0,121
-142,745	52,971	0,059	-0,041
-141,731	98,895	-0,089	0,074
-140,716	-126,250	0,147	-0,016
-139,702	361,238	-0,094	0,136
-138,687	241,401	0,069	-0,084
-137,672	-40,332	0,104	0,039
-136,658	-8,627	0,013	-0,006
-135,643	104,017	0,086	-0,073
-134,629	34,764	-0,040	0,025
-133,614	112,057	0,030	0,026
-132,599	-200,000	0,000	0,046
-131,585	72,885	0,022	-0,016
-130,570	2,472	-0,072	0,037
-129,556	170,087	-0,094	0,096
-128,541	22,423	-0,111	-0,065
-127,526	-121,947	0,138	0,016
-126,512	183,364	0,060	-0,064
-125,497	31,896	-0,079	0,049
-124,483	800,000	0,052	-0,137
-123,468	800,000	0,049	-0,133
-122,453	495,400	-0,023	-0,039
-121,439	-200,000	0,006	-0,069
-120,424	-200,000	0,007	-0,029
-119,410	389,907	-0,051	0,076
-118,395	-35,547	0,129	-0,050
-117,380	-200,000	0,012	-0,129
-116,366	770,619	0,022	-0,043
-115,351	-152,805	0,089	-0,004
-114,337	114,943	0,020	0,018
-113,322	-200,000	-0,002	0,039
-112,307	-200,000	0,014	-0,074
-111,293	300,770	0,020	0,026
-110,278	-103,901	-0,042	-0,007
-109,264	453,251	0,096	-0,154
-108,249	119,855	0,043	-0,038
-107,234	-200,000	-0,009	0,161
-106,220	-18,541	0,042	0,019
-105,205	-0,952	0,059	-0,030
-104,191	-24,031	-0,067	0,029
-103,176	-200,000	0,019	0,099
-102,162	-200,000	-0,015	-0,069
-101,147	133,783	0,046	-0,043
-100,132	800,000	-0,026	-0,065
-99,118	-9,196	0,006	0,003
-98,103	104,502	0,121	-0,102
-97,089	-35,256	0,147	0,057
-96,074	-7,649	0,085	-0,041
-95,059	57,359	-0,065	0,046
-94,045	8,282	-0,075	-0,040
-93,030	-12,892	0,045	-0,021
-92,016	800,000	-0,024	-0,066
-91,001	68,830	0,078	-0,058
-89,986	208,535	0,031	0,035
-88,972	-200,000	-0,027	0,098
-87,957	-165,497	-0,054	-0,002
-86,943	49,142	-0,050	-0,034
-85,928	129,815	0,060	-0,056
-84,913	59,495	-0,043	0,030
-83,899	764,959	0,014	0,027
-82,884	281,099	-0,084	0,108
-81,870	-15,962	0,083	0,038
-80,855	131,116	0,024	0,022
-79,840	-200,000	-0,003	0,143
-78,826	800,000	0,038	-0,102
-77,811	265,204	-0,016	0,021
-76,797	-200,000	0,011	-0,100
-75,782	-200,000	-0,001	-0,062
-74,767	190,792	0,133	0,144
-73,753	-200,000	0,001	0,041
-72,738	-200,000	-0,010	-0,100
-71,724	-200,000	0,031	-0,122
-70,709	-200,000	-0,032	-0,145
-69,694	22,413	-0,078	-0,046
-68,680	179,581	0,106	0,111
-67,665	18,259	0,111	0,063
-66,651	-200,000	-0,010	-0,066
-65,636	-66,413	0,020	-0,006
-64,622	-52,526	-0,110	0,036
-63,607	-200,000	-0,004	-0,034
-62,592	-200,000	0,031	-0,164
-61,578	-200,000	-0,015	-0,095
-60,563	181,496	0,048	-0,051
-59,549	800,000	-0,028	0,076
-58,534	23,091	-1,903	-1,119
-57,519	-200,000	-0,233	-0,844
-56,505	-200,000	-1,330	-4,842
-55,490	-67,194	0,822	0,231
-54,476	800,000	5,324	12,208
-53,461	-200,000	17,533	284,368
-52,446	800,000	722,542	2218,228
-51,432	536,576	1635,362	2799,035
-50,417	111,270	1627,570	1408,318
-49,403	74,544	1284,757	969,161
-48,388	32,524	1028,955	637,147
-47,373	20,031	991,119	572,440
-46,359	18,593	979,293	560,860
-45,344	16,145	975,324	550,536
-44,330	16,272	973,933	550,145
-43,315	15,876	972,001	547,737
-42,300	15,833	970,971	546,994
-41,286	15,828	970,003	546,410
-40,271	15,815	969,058	545,815
-39,257	15,866	968,157	545,450
-38,242	15,893	967,137	544,944
-37,227	15,863	966,497	544,462
-36,213	15,832	965,621	543,848
-35,198	15,844	964,535	543,252
-34,184	15,878	963,995	543,038
-33,169	15,801	962,853	542,123
-32,154	15,864	962,030	541,840
-31,140	15,913	961,170	541,496
-30,125	15,903	960,290	540,944
-29,111	15,869	959,522	540,381
-28,096	15,888	958,978	540,115
-27,082	15,881	958,338	539,710
-26,067	15,850	957,668	539,211
-25,052	15,789	956,920	538,571
-24,038	15,823	956,079	538,186
-23,023	15,888	955,442	538,016
-22,009	15,907	954,691	537,631
-20,994	15,851	954,266	537,193
-19,979	15,873	953,618	536,877
-18,965	15,804	953,016	536,295
-17,950	15,877	952,147	536,020
-16,936	15,804	951,777	535,554
-15,921	15,795	950,871	534,995
-14,906	15,751	950,159	534,432
-13,892	15,715	949,751	534,067
-12,877	15,730	949,149	533,756
-11,863	15,748	948,309	533,318
-10,848	15,745	948,087	533,164
-9,833	15,836	947,423	533,061
-8,819	15,837	946,755	532,666
-7,804	15,747	946,041	531,955
-6,790	15,746	945,496	531,625
-5,775	15,784	944,992	531,443
-4,760	15,791	944,307	531,057
-3,746	15,741	943,776	530,580
-2,731	15,598	942,922	529,625
-1,717	15,604	942,335	529,294
-0,702	15,553	941,680	528,742
0,313	15,421	940,909	528,690
1,327	18,731	939,051	538,050
2,342	27,908	793,402	478,882
3,356	24,613	447,089	264,926
4,371	-4,814	296,498	146,173
5,386	-8,624	278,065	133,449
6,400	-10,054	272,530	129,447
7,415	-10,217	270,207	128,181
8,429	-10,131	268,770	127,568
9,444	-10,392	268,137	127,016
10,459	-10,370	267,362	126,658
11,473	-10,334	266,714	126,372
12,488	-10,517	266,271	125,984
13,502	-10,606	265,609	125,579
14,517	-10,622	265,219	125,369
15,531	-10,692	264,809	125,100
16,546	-10,481	264,546	125,155
17,561	-10,559	263,911	124,774
18,575	-10,431	263,742	124,798
19,590	-10,521	263,520	124,601
20,604	-10,421	263,072	124,467
21,619	-10,697	262,876	124,116
22,634	-10,611	262,465	123,988
23,648	-10,676	262,050	123,723
24,663	-10,452	261,700	123,747
25,677	-10,751	261,704	123,470
26,692	-10,616	261,314	123,396
27,707	-10,662	261,114	123,250
28,721	-10,771	261,026	123,100
29,736	-10,780	260,546	122,854
30,750	-10,558	260,278	122,915
31,765	-10,718	260,048	122,653
32,780	-10,748	259,867	122,530
33,794	-10,583	259,607	122,543
34,809	-10,821	259,507	122,273
35,823	-10,639	258,910	122,143
36,838	-10,758	258,799	121,974
37,853	-10,910	258,626	121,747
38,867	-10,661	258,217	121,763
39,882	-10,911	258,124	121,488
40,896	-10,717	257,819	121,504
41,911	-10,628	257,628	121,482
42,926	-10,937	257,499	121,138
43,940	-10,822	257,097	121,040
44,955	-10,855	256,852	120,885
45,969	-10,897	256,835	120,828
46,984	-11,174	256,443	120,391
47,999	-11,324	256,038	120,060
49,013	-11,427	255,875	119,882
50,028	-11,638	255,774	119,640
51,042	-11,624	255,255	119,398
52,057	-11,755	255,230	119,262
53,071	-11,708	255,057	119,212
54,086	-11,680	254,791	119,100
55,101	-11,349	254,546	119,263
56,115	-11,235	254,643	119,396
57,130	-10,670	254,385	119,756
58,144	-10,546	254,326	119,825
59,159	-10,367	253,976	119,804
60,174	-10,354	253,756	119,701
61,188	-10,572	253,628	119,441
62,203	-10,604	253,301	119,250
63,217	-10,503	253,085	119,224
64,232	-10,415	252,925	119,214
65,247	-10,592	252,705	118,947
66,261	-10,723	252,407	118,683
67,276	-10,802	252,160	118,489
68,290	-11,096	251,948	118,126
69,305	-11,231	251,625	117,849
70,320	-10,976	251,525	118,010
71,334	-10,959	251,449	117,978
72,349	-10,498	251,218	118,254
73,363	-10,615	251,145	118,109
74,378	-10,576	250,910	118,021
75,393	-10,675	250,603	117,782
76,407	-10,659	250,437	117,707
77,422	-10,663	250,199	117,581
78,436	-10,536	250,003	117,586
79,451	-10,728	249,935	117,381
80,466	-10,835	249,493	117,072
81,480	-10,815	249,264	116,972
82,495	-10,913	248,964	116,737
83,509	-10,922	248,893	116,686
84,524	-11,057	248,768	116,502
85,539	-11,147	248,492	116,286
86,553	-11,109	248,291	116,214
87,568	-10,953	248,147	116,267
88,582	-10,976	247,854	116,101
89,597	-11,154	247,824	115,926
90,611	-10,866	247,664	116,084
91,626	-10,812	247,669	116,121
92,641	-10,606	247,141	116,036
93,655	-10,810	247,037	115,806
94,670	-10,957	246,915	115,615
95,684	-10,870	246,631	115,545
96,699	-10,665	246,490	115,641
97,714	-11,060	246,195	115,161
98,728	-11,113	246,122	115,072
99,743	-11,199	245,821	114,849
100,757	-11,293	245,706	114,706
101,772	-11,190	245,399	114,640
102,787	-11,123	245,285	114,631
103,801	-10,991	245,168	114,677
104,816	-10,963	244,955	114,590
105,830	-10,862	244,878	114,628
106,845	-10,639	244,668	114,704
107,860	-10,907	244,491	114,389
108,874	-10,954	244,179	114,194
109,889	-11,015	244,135	114,112
110,903	-10,989	243,820	113,977
111,918	-11,066	243,725	113,859
112,933	-10,917	243,563	113,895
113,947	-10,775	243,440	113,945
114,962	-10,934	243,165	113,675
115,976	-10,738	242,939	113,721
116,991	-10,767	242,960	113,697
118,006	-10,689	242,625	113,593
119,020	-10,601	242,490	113,593
120,035	-10,735	242,446	113,452
121,049	-10,590	242,294	113,490
122,064	-10,474	241,984	113,429
123,079	-10,774	241,782	113,079
124,093	-10,877	241,520	112,863
125,108	-11,058	241,232	112,570
126,122	-11,100	241,028	112,430
127,137	-11,275	240,892	112,213
128,151	-11,259	240,809	112,178
129,166	-10,986	240,520	112,256
130,181	-11,268	240,489	112,001
131,195	-11,241	240,190	111,875
132,210	-11,088	240,159	111,974
133,224	-10,752	239,928	112,130
134,239	-10,734	239,818	112,083
135,254	-10,721	239,628	111,995
136,268	-10,885	239,414	111,752
137,283	-11,310	239,185	111,291
138,297	-11,296	238,974	111,194
139,312	-11,350	238,716	111,020
140,327	-10,978	238,650	111,280
141,341	-10,500	238,746	111,701
142,356	-10,423	238,454	111,617
143,370	-10,379	238,376	111,606
144,385	-10,247	238,223	111,632
145,400	-10,394	238,001	111,398
146,414	-10,385	237,775	111,290
147,429	-10,336	237,550	111,214
148,443	-10,309	237,342	111,129
149,458	-10,436	237,349	111,020
150,473	-10,488	237,177	110,888
151,487	-10,534	236,936	110,728
152,502	-10,523	236,744	110,638
153,516	-10,317	236,707	110,775
154,531	-10,435	236,394	110,525
155,546	-10,674	236,317	110,287
156,560	-10,691	236,282	110,248
157,575	-10,612	235,789	110,071
158,589	-10,482	235,599	110,077
159,604	-10,459	235,725	110,144
160,619	-10,253	235,414	110,152
161,633	-10,196	235,227	110,100
162,648	-10,202	235,158	110,053
163,662	-10,409	234,864	109,742
164,677	-10,404	234,744	109,680
165,692	-10,470	234,618	109,559
166,706	-10,219	234,576	109,729
167,721	-10,387	234,480	109,540
168,735	-10,327	234,250	109,471
169,750	-10,371	234,182	109,395
170,764	-9,954	233,851	109,560
171,779	-10,308	233,880	109,284
172,794	-10,352	233,798	109,201
173,808	-10,600	233,336	108,780
174,823	-11,016	233,058	108,313
175,837	-11,208	232,867	108,064
176,852	-10,834	232,901	108,364
177,867	-10,529	232,834	108,563
178,881	-10,430	232,867	108,647
179,896	-10,209	232,506	108,642
180,910	-10,329	232,444	108,510
181,925	-10,426	232,195	108,307
182,940	-10,214	231,987	108,367
183,954	-10,267	231,956	108,301
184,969	-10,191	231,736	108,249
185,983	-10,203	231,629	108,179
186,998	-10,059	231,456	108,201
188,013	-10,031	231,218	108,101
189,027	-10,239	231,263	107,951
190,042	-10,120	231,041	107,930
191,056	-10,039	230,663	107,807
192,071	-10,064	230,686	107,789
193,086	-10,068	230,489	107,685
194,100	-9,849	230,252	107,733
195,115	-10,396	230,081	107,220
196,129	-10,645	230,094	107,023
197,144	-5,175	231,644	112,000
198,159	0,271	233,473	117,140
199,173	3,256	234,221	119,844
200,188	3,775	234,001	120,127
201,202	3,789	233,902	120,076
202,217	3,807	233,793	120,024
203,232	3,949	233,727	120,091
204,246	4,010	233,691	120,109
205,261	4,040	233,529	120,038
206,275	4,180	233,377	120,058
207,290	4,418	233,267	120,176
208,304	4,277	233,027	119,932
209,319	4,065	232,941	119,713
210,334	3,982	232,762	119,546
211,348	4,028	232,505	119,439
212,363	3,358	232,251	118,778
213,377	3,120	232,075	118,493
214,392	3,469	231,860	118,643
215,407	3,749	231,591	118,711
216,421	3,501	231,656	118,542
217,436	3,533	231,360	118,405
218,450	3,068	231,214	117,960
219,465	3,160	230,915	117,869
220,480	3,253	230,872	117,908
221,494	3,427	230,687	117,937
222,509	3,375	230,646	117,865
223,523	3,421	230,564	117,848
224,538	3,343	230,424	117,705
225,553	3,346	230,096	117,530
226,567	3,470	230,029	117,580
227,582	3,649	229,997	117,691
228,596	3,859	229,886	117,785
229,611	3,606	229,678	117,474
230,626	3,045	229,462	116,923
231,640	3,206	229,254	116,930
232,655	3,440	229,247	117,095
233,669	3,944	229,314	117,504
234,684	4,235	229,030	117,570
235,699	3,688	228,759	117,003
236,713	3,607	228,575	116,837
237,728	3,486	228,397	116,644
238,742	3,335	228,133	116,383
239,757	3,380	228,023	116,351
240,772	3,513	227,710	116,283
241,786	3,348	227,859	116,223
242,801	3,528	227,751	116,294
243,815	3,829	227,681	116,476
244,830	3,941	227,536	116,476
245,844	3,584	227,357	116,104
246,859	3,299	227,097	115,745
247,874	3,686	226,987	115,972
248,888	3,634	226,977	115,917
249,903	3,795	226,632	115,852
250,917	3,467	226,416	115,483
251,932	3,475	226,330	115,435
252,947	3,266	226,229	115,217
253,961	3,103	226,014	114,974
254,976	3,257	225,931	115,038
255,990	3,544	225,798	115,175
257,005	3,588	225,716	115,156
258,020	3,464	225,542	114,964
259,034	3,744	225,439	115,111
260,049	3,839	225,308	115,105
261,063	3,683	225,034	114,838
262,078	3,682	225,075	114,848
263,093	3,970	224,804	114,915
264,107	3,746	224,698	114,683
265,122	3,519	224,655	114,481
266,136	3,875	224,510	114,663
267,151	3,769	224,269	114,451
268,166	3,462	224,065	114,108
269,180	3,221	223,811	113,789
270,195	3,298	223,763	113,812
271,209	3,385	223,563	113,765
272,224	3,540	223,323	113,747
273,239	3,360	223,414	113,650
274,253	3,181	223,270	113,433
275,268	3,303	222,950	113,351
276,282	3,046	222,782	113,065
277,297	2,998	222,623	112,940
278,312	3,165	222,503	112,992
279,326	3,396	222,520	113,161
280,341	3,498	222,407	113,169
281,355	3,365	222,162	112,936
282,370	3,447	221,966	112,887
283,384	3,250	221,674	112,583
284,399	3,149	221,498	112,409
285,414	3,138	221,428	112,356
286,428	3,678	221,342	112,699
287,443	3,408	221,387	112,513
288,457	3,672	221,063	112,532
289,472	3,286	221,009	112,212
290,487	2,936	220,648	111,762
291,501	2,914	220,536	111,680
292,516	3,035	220,492	111,736
293,530	3,204	220,457	111,831
294,545	3,224	220,186	111,699
295,560	3,307	220,149	111,730
296,574	3,492	219,909	111,734
297,589	3,326	219,857	111,576
298,603	3,394	219,678	111,525
299,618	3,248	219,718	111,429
300,633	3,624	219,408	111,535
301,647	3,724	219,412	111,600
302,662	3,869	219,270	111,623
303,676	3,544	219,153	111,317
304,691	3,629	219,128	111,357
305,706	3,691	218,886	111,269
306,720	3,928	218,565	111,267
307,735	3,352	218,506	110,810
308,749	3,422	218,346	110,770
309,764	3,540	218,157	110,750
310,779	3,775	218,195	110,928
311,793	3,403	218,082	110,593
312,808	3,617	217,805	110,597
313,822	3,573	217,534	110,417
314,837	3,604	217,470	110,398
315,852	3,412	217,160	110,092
316,866	3,352	217,256	110,088
317,881	3,582	217,166	110,198
318,895	3,707	216,986	110,186
319,910	3,296	216,836	109,806
320,925	3,149	216,404	109,472
321,939	2,692	216,369	109,118
322,954	3,337	216,420	109,595
323,968	3,733	216,247	109,781
324,983	3,691	216,165	109,700
325,997	3,840	216,144	109,786
327,012	3,543	215,849	109,414
328,027	3,620	215,658	109,362
329,041	3,555	215,906	109,432
330,056	4,093	215,554	109,626
331,070	3,710	215,265	109,198
332,085	3,219	215,074	108,742
333,100	3,345	214,942	108,755
334,114	3,405	214,874	108,754
335,129	3,299	214,828	108,646
336,143	3,238	214,650	108,502
337,158	3,399	214,533	108,548
338,173	3,278	214,349	108,359
339,187	3,440	214,116	108,346
340,202	3,193	213,975	108,091
341,216	3,050	213,736	107,860
342,231	3,170	213,790	107,962
343,246	3,189	213,699	107,920
344,260	3,130	213,470	107,753
345,275	3,455	213,361	107,917
346,289	3,363	213,299	107,811
347,304	3,663	213,278	108,002
348,319	3,338	213,160	107,704
349,333	3,481	212,847	107,637
350,348	3,458	212,861	107,618
351,362	3,638	212,766	107,687
352,377	3,825	212,477	107,662
353,392	3,546	212,437	107,437
354,406	3,811	212,170	107,478
355,421	196,934	1341,898	1425,268
356,435	157,382	1479,520	1425,252
