DTS Sentinel unit serial number:	SN410029Multiplexer serial number:	ORYXHardware model number:	OX2-SRSoftware version number:	ORYX F/W v4,00 Oryx Data Collector v3.7.2.0data status	okinstallation	B6 Nyhavnadifferential loss correction	single-endedforward channel	channel 2reverse channel	N/Adate	2023/12/10time	10:00:08forward acquisition time	300,00reverse acquisition time	0,00gamma	499,1914k internal	0,3123k external	0,3123temperature offset calibration	1,0000default loss term (dB/km)	0,3820temperature slope calibration	1,0000multiplexer offset coefficient	1,0000multiplexer slope coefficient	1,0000fibre end	0,00T internal ref (°C)	22,56T ext. ref 1 (°C)	6,38T ext. ref 2 (°C)	6,37length (m)	temperature (°C)	Stokes	anti-Stokes-744,400	-200,000	0,012	0,101
-743,385	-76,208	-0,265	0,069
-742,371	192,276	0,063	0,071
-741,356	34,891	-0,100	0,065
-740,342	35,503	0,056	-0,036
-739,327	800,000	-0,112	0,273
-738,312	148,026	-0,059	-0,060
-737,298	-11,977	-0,199	0,097
-736,283	800,000	-0,041	-0,102
-735,269	81,136	-0,200	0,161
-734,254	5,436	0,140	-0,077
-733,239	-67,935	-0,402	-0,116
-732,225	1,483	0,048	-0,026
-731,210	146,142	0,065	0,065
-730,196	-200,000	-0,002	0,033
-729,181	-29,158	0,039	-0,016
-728,167	-44,141	0,088	0,033
-727,152	93,884	0,122	-0,103
-726,137	44,269	-0,019	-0,013
-725,123	4,042	-0,103	0,056
-724,108	-155,997	-0,068	0,003
-723,094	-200,000	-0,001	-0,070
-722,079	-46,510	0,143	-0,052
-721,064	-74,139	0,119	0,032
-720,050	-86,925	0,114	0,026
-719,035	608,418	-0,039	0,073
-718,021	-31,724	-0,076	-0,032
-717,006	-53,382	0,086	-0,029
-715,991	346,357	-0,044	-0,064
-714,977	-85,984	-0,088	0,020
-713,962	-200,000	0,015	-0,088
-712,948	100,882	0,060	-0,052
-711,933	84,838	-0,093	0,076
-710,918	-33,819	0,110	-0,045
-709,904	-102,688	-0,138	0,024
-708,889	-200,000	-0,095	0,000
-707,875	130,498	-0,044	-0,042
-706,860	37,238	-0,019	-0,013
-705,845	263,301	-0,015	-0,020
-704,831	-200,000	0,013	-0,152
-703,816	-84,020	-0,074	0,017
-702,802	-200,000	-0,039	-0,145
-701,787	-10,682	-0,182	-0,089
-700,772	-200,000	0,027	0,107
-699,758	-106,163	-0,039	0,006
-698,743	-107,872	0,131	0,021
-697,729	-27,114	0,049	0,021
-696,714	-103,441	0,032	-0,006
-695,699	349,155	0,034	0,049
-694,685	-84,726	-0,141	0,033
-693,670	-200,000	-0,020	-0,087
-692,656	800,000	0,023	0,072
-691,641	689,207	-0,068	0,133
-690,627	-200,000	0,012	0,110
-689,612	-200,000	0,026	0,151
-688,597	71,713	-0,038	0,030
-687,583	800,000	-0,009	0,025
-686,568	-200,000	-0,045	-0,170
-685,554	-200,000	0,003	-0,092
-684,539	443,052	-0,071	-0,116
-683,524	-63,100	-0,028	-0,009
-682,510	-132,625	0,068	0,006
-681,495	-200,000	-0,026	-0,165
-680,481	152,302	0,045	-0,046
-679,466	518,045	0,043	0,076
-678,451	-121,345	-0,142	-0,017
-677,437	163,153	-0,065	0,068
-676,422	294,672	0,057	0,077
-675,408	-34,704	-0,058	0,023
-674,393	-200,000	0,005	-0,028
-673,378	200,653	-0,081	0,093
-672,364	341,581	-0,030	-0,044
-671,349	800,000	-0,048	-0,150
-670,335	-200,000	-0,003	0,023
-669,320	554,590	0,095	0,170
-668,305	-124,258	0,102	0,012
-667,291	328,791	0,066	0,095
-666,276	-62,351	-0,061	0,019
-665,262	-147,623	-0,100	0,006
-664,247	5,365	-0,109	0,059
-663,232	800,000	0,032	0,071
-662,218	-200,000	0,125	0,000
-661,203	109,679	0,038	0,034
-660,189	-200,000	0,005	0,069
-659,174	800,000	-0,049	-0,129
-658,159	-124,913	-0,118	-0,013
-657,145	-200,000	0,002	0,016
-656,130	-11,100	0,108	0,053
-655,116	-200,000	0,009	0,070
-654,101	39,101	-0,038	0,025
-653,086	335,073	0,064	0,092
-652,072	79,188	0,064	0,051
-651,057	146,091	-0,090	0,090
-650,043	-29,814	-0,074	-0,031
-649,028	-200,000	0,014	0,073
-648,014	554,935	-0,044	-0,079
-646,999	-190,620	0,012	0,000
-645,984	250,805	0,076	-0,096
-644,970	-200,000	0,009	0,041
-643,955	-9,764	-0,068	0,034
-642,941	252,487	-0,114	-0,145
-641,926	302,357	0,047	-0,065
-640,911	142,910	-0,015	-0,015
-639,897	800,000	0,051	0,118
-638,882	264,712	-0,091	-0,118
-637,868	118,742	0,077	-0,071
-636,853	-200,000	0,013	-0,257
-635,838	-200,000	-0,019	0,156
-634,824	377,403	-0,043	0,066
-633,809	188,601	-0,034	-0,037
-632,795	-23,690	0,106	-0,047
-631,780	800,000	0,037	-0,108
-630,765	-89,950	0,090	-0,019
-629,751	181,397	-0,058	-0,063
-628,736	-200,000	-0,004	-0,038
-627,722	265,059	0,096	-0,124
-626,707	-31,134	-0,038	0,016
-625,692	-200,000	0,000	0,049
-624,678	36,859	-0,068	-0,045
-623,663	-200,000	-0,002	0,071
-622,649	-79,399	-0,065	-0,016
-621,634	-200,000	-0,006	-0,161
-620,619	-76,300	-0,051	0,013
-619,605	-34,518	0,076	-0,031
-618,590	800,000	-0,048	0,104
-617,576	107,952	-0,069	0,061
-616,561	47,761	-0,043	0,029
-615,546	328,858	-0,089	-0,128
-614,532	-200,000	-0,020	0,067
-613,517	174,454	-0,045	0,048
-612,503	-53,848	0,051	0,017
-611,488	19,372	0,068	-0,040
-610,474	-10,184	0,083	-0,041
-609,459	-200,000	0,014	0,084
-608,444	800,000	-0,017	-0,035
-607,430	-128,266	-0,008	0,001
-606,415	-200,000	0,033	-0,148
-605,401	-200,000	-0,039	0,177
-604,386	-200,000	-0,034	0,117
-603,371	-200,000	0,003	-0,051
-602,357	800,000	0,009	0,023
-601,342	-55,689	-0,194	0,064
-600,328	-59,565	0,025	-0,008
-599,313	26,272	-0,099	-0,061
-598,298	196,851	0,083	-0,094
-597,284	-200,000	0,008	-0,080
-596,269	75,623	0,129	0,101
-595,255	-103,544	0,164	0,028
-594,240	-36,118	-0,034	0,014
-593,225	-35,667	0,134	-0,053
-592,211	174,451	-0,057	0,061
-591,196	-185,384	-0,095	-0,001
-590,182	-10,081	0,026	-0,013
-589,167	800,000	0,086	0,200
-588,152	260,274	0,081	-0,104
-587,138	311,997	-0,072	0,101
-586,123	150,792	-0,116	-0,117
-585,109	85,496	-0,069	-0,056
-584,094	800,000	-0,037	-0,080
-583,079	747,202	-0,041	-0,081
-582,065	-18,711	-0,054	0,025
-581,050	-200,000	0,014	0,101
-580,036	-172,513	-0,061	-0,001
-579,021	-110,285	-0,100	-0,015
-578,006	-67,825	0,080	-0,023
-576,992	-200,000	0,025	-0,110
-575,977	-200,000	-0,035	0,242
-574,963	259,452	0,177	0,227
-573,948	-169,292	-0,061	0,002
-572,934	-115,059	0,077	0,011
-571,919	54,170	-0,093	0,066
-570,904	-54,544	0,076	0,025
-569,890	-200,000	0,003	-0,105
-568,875	10,362	-0,027	0,015
-567,861	-200,000	-0,007	0,066
-566,846	-112,821	-0,040	0,006
-565,831	91,021	0,045	-0,037
-564,817	69,555	-0,191	-0,146
-563,802	800,000	-0,072	-0,208
-562,788	254,269	0,050	-0,064
-561,773	-200,000	-0,020	-0,140
-560,758	-200,000	0,003	-0,095
-559,744	-76,246	0,076	-0,020
-558,729	155,108	-0,084	0,085
-557,715	-96,992	-0,009	-0,002
-556,700	800,000	-0,036	-0,110
-555,685	-200,000	0,012	-0,086
-554,671	800,000	-0,033	-0,099
-553,656	800,000	-0,036	0,080
-552,642	-14,372	0,044	0,021
-551,627	-3,589	-0,103	-0,053
-550,612	226,537	-0,085	-0,102
-549,598	-104,379	0,042	-0,007
-548,583	637,336	0,072	0,136
-547,569	610,366	-0,032	0,060
-546,554	-21,512	-0,085	0,038
-545,539	800,000	-0,046	-0,105
-544,525	44,432	-0,110	0,075
-543,510	-107,952	-0,102	0,016
-542,496	317,785	0,004	-0,005
-541,481	-127,290	-0,057	0,006
-540,466	-78,371	-0,079	-0,020
-539,452	100,476	-0,055	-0,047
-538,437	-86,648	0,050	-0,011
-537,423	-111,868	0,058	0,009
-536,408	-200,000	0,003	-0,059
-535,393	-105,949	-0,116	-0,019
-534,379	-147,453	0,065	0,004
-533,364	800,000	-0,058	0,137
-532,350	474,994	0,040	0,067
-531,335	511,604	-0,055	-0,095
-530,321	-72,946	-0,131	0,035
-529,306	217,970	-0,089	0,105
-528,291	-200,000	0,002	-0,061
-527,277	-200,000	0,005	0,070
-526,262	-117,198	-0,119	-0,016
-525,248	-200,000	0,018	-0,090
-524,233	91,043	0,011	0,009
-523,218	800,000	0,008	0,018
-522,204	178,319	0,052	0,056
-521,189	-96,036	-0,134	-0,026
-520,175	-97,364	-0,063	-0,012
-519,160	-200,000	0,037	-0,184
-518,145	612,459	-0,044	-0,083
-517,131	800,000	0,018	-0,056
-516,116	-200,000	0,023	0,081
-515,102	-200,000	-0,020	-0,098
-514,087	271,351	0,029	0,038
-513,072	64,103	-0,041	-0,030
-512,058	-200,000	-0,027	-0,092
-511,043	800,000	0,048	-0,103
-510,029	-108,205	-0,065	-0,010
-509,014	606,589	0,049	0,091
-507,999	428,895	-0,047	0,076
-506,985	-2,002	-0,075	-0,039
-505,970	-79,563	0,063	0,015
-504,956	-200,000	-0,004	-0,043
-503,941	-200,000	0,011	0,086
-502,926	66,863	0,114	-0,086
-501,912	-148,786	0,085	0,005
-500,897	-200,000	0,011	0,054
-499,883	253,015	-0,039	0,049
-498,868	-200,000	-0,024	-0,096
-497,853	140,429	0,123	-0,120
-496,839	-94,100	-0,061	-0,012
-495,824	-39,678	0,168	0,065
-494,810	-200,000	0,005	-0,020
-493,795	-11,746	0,040	-0,019
-492,781	-43,139	-0,090	-0,034
-491,766	385,001	-0,049	-0,074
-490,751	-200,000	0,018	-0,065
-489,737	-86,185	0,053	0,012
-488,722	-52,043	0,083	-0,028
-487,708	-92,989	0,109	0,022
-486,693	56,766	0,044	-0,031
-485,678	-173,291	0,023	-0,001
-484,664	-94,394	0,095	0,019
-483,649	65,447	-0,038	-0,028
-482,635	800,000	-0,026	-0,076
-481,620	-141,982	-0,024	0,002
-480,605	-111,865	-0,067	0,010
-479,591	594,904	-0,010	-0,018
-478,576	-61,161	0,074	0,023
-477,562	-156,935	-0,104	-0,005
-476,547	-128,502	0,105	0,011
-475,532	800,000	-0,053	0,133
-474,518	166,387	0,077	0,080
-473,503	800,000	0,042	0,101
-472,489	800,000	0,033	-0,081
-471,474	-200,000	-0,004	0,108
-470,459	-115,003	-0,010	0,001
-469,445	153,550	-0,045	0,045
-468,430	58,210	-0,050	0,036
-467,416	300,424	0,062	0,085
-466,401	103,165	-0,035	0,031
-465,386	-54,506	0,053	-0,018
-464,372	-200,000	0,036	-0,121
-463,357	448,622	-0,097	-0,158
-462,343	24,688	0,015	-0,009
-461,328	-200,000	-0,007	0,133
-460,313	-98,283	-0,072	0,014
-459,299	-18,128	0,066	0,030
-458,284	28,198	0,104	-0,065
-457,270	674,418	-0,029	-0,056
-456,255	800,000	-0,048	-0,150
-455,241	-200,000	-0,012	-0,159
-454,226	154,400	0,091	-0,092
-453,211	-186,835	0,079	0,001
-452,197	-200,000	-0,012	0,055
-451,182	-92,798	0,072	0,015
-450,168	800,000	-0,067	0,146
-449,153	-200,000	-0,007	-0,029
-448,138	-200,000	0,010	0,065
-447,124	436,543	-0,038	-0,061
-446,109	80,800	-0,036	0,029
-445,095	350,502	-0,047	0,069
-444,080	547,430	-0,051	0,091
-443,065	-200,000	0,022	0,090
-442,051	800,000	0,017	-0,050
-441,036	188,599	-0,098	0,108
-440,022	91,648	-0,085	-0,070
-439,007	265,530	-0,011	0,015
-437,992	-134,502	-0,042	-0,004
-436,978	-75,279	0,077	0,020
-435,963	124,016	-0,043	-0,040
-434,949	-200,000	-0,008	0,062
-433,934	-200,000	0,015	0,107
-432,919	9,442	-0,111	0,062
-431,905	277,493	0,032	-0,042
-430,890	-56,147	0,035	0,011
-429,876	20,453	0,030	-0,018
-428,861	-200,000	0,006	0,155
-427,846	94,596	0,099	-0,083
-426,832	540,375	-0,021	-0,037
-425,817	62,972	-0,038	-0,028
-424,803	-60,227	-0,083	0,026
-423,788	-200,000	0,010	0,210
-422,773	-30,434	0,080	-0,033
-421,759	-200,000	0,032	0,108
-420,744	496,661	-0,040	0,069
-419,730	-200,000	0,020	-0,079
-418,715	-144,848	-0,217	-0,014
-417,701	-200,000	-0,011	0,130
-416,686	-61,775	0,095	0,029
-415,671	123,593	0,071	-0,066
-414,657	207,116	-0,074	-0,085
-413,642	28,279	-0,040	0,025
-412,628	472,329	0,057	-0,095
-411,613	181,900	-0,040	-0,043
-410,598	-200,000	-0,005	0,069
-409,584	-158,372	-0,097	-0,004
-408,569	800,000	0,005	-0,015
-407,555	-101,866	0,173	0,030
-406,540	49,057	0,052	-0,036
-405,525	-69,544	-0,100	-0,028
-404,511	-200,000	0,000	-0,096
-403,496	800,000	0,035	0,078
-402,482	-126,049	0,052	-0,006
-401,467	477,035	0,060	0,101
-400,452	-105,794	0,115	-0,019
-399,438	-51,729	-0,047	0,016
-398,423	-139,491	-0,126	-0,010
-397,409	800,000	0,044	-0,126
-396,394	800,000	0,044	-0,134
-395,379	-200,000	-0,019	-0,079
-394,365	95,257	-0,054	0,045
-393,350	753,152	0,071	0,142
-392,336	800,000	0,042	0,102
-391,321	21,750	-0,111	-0,066
-390,306	601,950	0,063	-0,115
-389,292	58,560	0,034	0,024
-388,277	-137,570	0,054	-0,004
-387,263	800,000	0,023	-0,048
-386,248	-200,000	-0,035	0,128
-385,233	800,000	-0,016	0,038
-384,219	-200,000	0,000	0,095
-383,204	-44,385	0,057	-0,021
-382,190	-200,000	0,011	-0,219
-381,175	800,000	-0,037	0,087
-380,160	-100,117	0,122	0,022
-379,146	149,942	-0,058	0,058
-378,131	252,416	0,072	0,090
-377,117	-200,000	-0,002	-0,019
-376,102	89,929	-0,120	-0,098
-375,088	401,589	-0,042	-0,066
-374,073	800,000	0,037	-0,086
-373,058	-200,000	-0,005	0,069
-372,044	70,122	0,055	0,042
-371,029	-200,000	-0,003	0,141
-370,015	800,000	0,027	-0,062
-369,000	-72,873	0,093	0,025
-367,985	-200,000	0,000	-0,071
-366,971	-133,915	-0,050	-0,005
-365,956	-200,000	-0,003	-0,046
-364,942	-139,841	0,134	-0,010
-363,927	800,000	0,059	0,153
-362,912	159,821	-0,130	0,133
-361,898	192,961	-0,013	0,015
-360,883	800,000	-0,079	-0,164
-359,869	42,455	-0,178	0,119
-358,854	209,493	-0,059	-0,068
-357,839	52,607	0,032	0,022
-356,825	638,434	0,023	-0,043
-355,810	800,000	-0,013	-0,039
-354,796	-83,650	-0,042	0,010
-353,781	-106,136	-0,150	0,025
-352,766	800,000	0,039	0,084
-351,752	152,068	0,062	0,063
-350,737	-200,000	0,037	0,185
-349,723	-101,752	0,062	0,011
-348,708	390,464	0,102	-0,155
-347,693	728,455	-0,045	-0,089
-346,679	800,000	0,053	-0,121
-345,664	289,192	0,105	0,140
-344,650	605,955	-0,072	0,132
-343,635	-188,171	0,091	-0,001
-342,620	12,015	0,025	-0,014
-341,606	32,413	-0,064	-0,040
-340,591	-200,000	-0,015	-0,107
-339,577	142,052	0,110	0,107
-338,562	-200,000	0,001	-0,107
-337,548	216,002	0,080	0,093
-336,533	85,913	0,063	0,051
-335,518	800,000	0,081	0,176
-334,504	-200,000	-0,015	0,099
-333,489	242,449	0,024	-0,030
-332,475	-55,660	-0,114	0,037
-331,460	-200,000	0,011	0,062
-330,445	800,000	0,061	0,138
-329,431	111,816	-0,065	-0,058
-328,416	-200,000	0,037	0,143
-327,402	800,000	-0,028	0,071
-326,387	-28,600	0,046	0,019
-325,372	800,000	0,053	0,157
-324,358	-132,844	0,103	-0,009
-323,343	-40,617	-0,177	-0,067
-322,329	633,506	0,061	0,114
-321,314	344,459	0,076	0,110
-320,299	99,863	0,128	0,108
-319,285	-200,000	0,050	0,176
-318,270	354,460	0,076	0,111
-317,256	-173,285	0,056	0,001
-316,241	36,485	0,135	0,087
-315,226	800,000	0,011	0,027
-314,212	-200,000	0,012	0,082
-313,197	-129,586	0,087	-0,009
-312,183	782,783	0,034	0,069
-311,168	604,813	0,022	0,040
-310,153	77,903	-0,002	0,002
-309,139	800,000	0,034	-0,077
-308,124	-200,000	-0,008	-0,060
-307,110	-20,700	0,163	0,073
-306,095	549,944	-0,070	-0,124
-305,080	126,136	0,042	-0,039
-304,066	23,223	-0,150	-0,090
-303,051	-104,735	-0,085	-0,014
-302,037	-200,000	-0,004	0,048
-301,022	302,767	0,026	0,036
-300,008	-10,290	-0,085	-0,041
-298,993	-48,860	0,080	0,028
-297,978	71,659	0,126	-0,095
-296,964	-126,654	-0,094	0,010
-295,949	-200,000	0,013	-0,137
-294,935	262,034	-0,058	-0,074
-293,920	117,675	-0,076	0,069
-292,905	-200,000	-0,003	-0,052
-291,891	200,445	0,093	-0,105
-290,876	18,103	0,095	0,055
-289,862	679,909	-0,054	-0,103
-288,847	-33,915	-0,131	0,053
-287,832	400,418	-0,074	-0,114
-286,818	526,761	0,043	-0,074
-285,803	-6,669	0,050	0,025
-284,789	129,115	0,036	0,034
-283,774	-200,000	0,005	0,091
-282,759	439,217	0,072	-0,116
-281,745	-56,980	-0,051	0,016
-280,730	588,981	0,012	-0,021
-279,716	27,682	-0,090	-0,055
-278,701	-126,439	0,094	0,010
-277,686	800,000	0,056	0,144
-276,672	-76,979	0,095	0,024
-275,657	-200,000	-0,036	0,120
-274,643	-200,000	0,020	-0,073
-273,628	227,200	-0,080	-0,096
-272,613	800,000	0,020	-0,062
-271,599	-66,964	0,145	0,042
-270,584	-200,000	0,016	0,067
-269,570	70,695	0,060	0,045
-268,555	152,420	-0,058	-0,058
-267,540	-200,000	0,023	0,093
-266,526	46,550	-0,126	0,085
-265,511	-200,000	-0,033	-0,157
-264,497	-200,000	0,004	-0,025
-263,482	6,482	0,068	-0,037
-262,467	-179,258	0,063	0,001
-261,453	53,910	-0,053	0,037
-260,438	54,405	0,043	-0,030
-259,424	800,000	-0,061	-0,139
-258,409	-200,000	-0,002	0,053
-257,395	297,594	-0,067	0,090
-256,380	-200,000	0,012	-0,052
-255,365	-200,000	-0,014	0,122
-254,351	-89,855	-0,098	0,021
-253,336	5,734	0,052	-0,028
-252,322	193,533	-0,078	-0,086
-251,307	237,283	-0,051	-0,062
-250,292	800,000	0,026	0,059
-249,278	-200,000	0,023	0,075
-248,263	-200,000	0,004	0,038
-247,249	-139,546	0,058	0,004
-246,234	76,745	-0,006	0,005
-245,219	-138,381	-0,061	-0,005
-244,205	76,238	-0,100	-0,077
-243,190	454,384	0,062	0,100
-242,176	471,222	0,066	-0,108
-241,161	800,000	-0,011	-0,033
-240,146	800,000	-0,011	0,030
-239,132	-190,777	0,084	-0,001
-238,117	-200,000	-0,011	-0,093
-237,103	800,000	0,066	-0,172
-236,088	438,288	-0,082	0,131
-235,073	-119,003	0,126	0,016
-234,059	134,172	0,045	0,042
-233,044	-200,000	-0,010	0,162
-232,030	-119,747	-0,048	0,006
-231,015	-200,000	-0,010	-0,070
-230,000	3,285	-0,064	-0,034
-228,986	-3,380	0,177	0,090
-227,971	433,130	-0,046	0,074
-226,957	55,721	0,042	0,029
-225,942	27,492	0,146	-0,090
-224,927	273,840	-0,015	0,020
-223,913	60,745	-0,107	0,077
-222,898	-21,240	-0,155	-0,069
-221,884	-66,442	-0,070	0,020
-220,869	71,559	-0,078	0,059
-219,855	-200,000	-0,000	0,100
-218,840	27,494	0,164	0,101
-217,825	-17,571	-0,156	-0,071
-216,811	290,632	0,019	-0,026
-215,796	800,000	-0,034	-0,076
-214,782	800,000	-0,047	-0,097
-213,767	289,427	-0,089	0,118
-212,752	-1,297	0,075	-0,039
-211,738	-200,000	0,003	-0,113
-210,723	800,000	-0,022	0,055
-209,709	-200,000	-0,010	0,109
-208,694	80,546	-0,090	0,071
-207,679	800,000	0,042	-0,126
-206,665	-200,000	0,030	0,110
-205,650	227,886	-0,027	-0,032
-204,636	60,949	0,043	0,031
-203,621	631,954	0,100	-0,185
-202,606	-103,457	-0,120	-0,020
-201,592	-22,471	-0,061	-0,027
-200,577	167,780	-0,051	-0,053
-199,563	19,574	0,040	0,023
-198,548	108,934	0,147	0,128
-197,533	200,030	-0,115	-0,129
-196,519	800,000	-0,012	0,030
-195,504	232,169	-0,036	0,043
-194,490	115,795	0,043	-0,038
-193,475	218,397	0,064	-0,075
-192,460	458,431	-0,064	0,105
-191,446	52,016	0,086	-0,060
-190,431	800,000	-0,022	0,050
-189,417	800,000	0,023	0,069
-188,402	-200,000	-0,012	-0,154
-187,387	8,834	-0,140	0,077
-186,373	-91,585	-0,118	-0,024
-185,358	74,066	0,104	0,080
-184,344	42,971	0,132	0,087
-183,329	-55,607	0,054	0,018
-182,315	629,469	0,044	0,082
-181,300	-200,000	0,014	-0,067
-180,285	240,928	-0,032	0,039
-179,271	3,682	-0,056	0,030
-178,256	-157,794	0,084	0,004
-177,242	-200,000	0,006	0,040
-176,227	131,708	0,112	0,105
-175,212	-160,534	0,049	0,002
-174,198	9,323	-0,151	-0,083
-173,183	-200,000	-0,003	-0,172
-172,169	800,000	0,019	0,050
-171,154	620,003	-0,076	-0,139
-170,139	401,460	0,078	0,119
-169,125	800,000	0,046	-0,131
-168,110	228,860	-0,013	-0,015
-167,096	163,428	0,011	-0,011
-166,081	201,868	-0,082	-0,093
-165,066	-200,000	-0,011	-0,127
-164,052	800,000	0,039	-0,123
-163,037	-33,830	-0,014	0,005
-162,023	43,386	-0,065	-0,043
-161,008	-167,350	-0,027	0,001
-159,993	-200,000	-0,022	0,101
-158,979	-200,000	0,011	-0,088
-157,964	81,314	-0,044	0,034
-156,950	-35,730	-0,037	-0,015
-155,935	-122,019	0,095	0,011
-154,920	64,113	0,034	-0,025
-153,906	800,000	0,044	0,098
-152,891	800,000	-0,015	-0,047
-151,877	-200,000	-0,042	-0,162
-150,862	-145,923	-0,043	0,003
-149,847	-65,325	0,055	-0,016
-148,833	-58,752	0,020	-0,006
-147,818	800,000	0,020	0,055
-146,804	374,712	0,022	-0,033
-145,789	800,000	-0,045	0,133
-144,775	-9,192	-0,055	0,027
-143,760	395,293	-0,062	-0,094
-142,745	173,490	0,020	-0,021
-141,731	800,000	0,047	-0,130
-140,716	-143,746	0,103	-0,007
-139,702	800,000	-0,020	-0,053
-138,687	6,313	-0,068	0,037
-137,672	800,000	-0,039	0,082
-136,658	473,490	-0,013	-0,022
-135,643	-200,000	-0,005	0,089
-134,629	-51,761	0,067	-0,022
-133,614	-200,000	-0,037	0,160
-132,599	-200,000	-0,012	0,197
-131,585	636,175	0,017	-0,032
-130,570	-200,000	-0,012	-0,052
-129,556	101,352	-0,088	-0,074
-128,541	-200,000	-0,012	-0,054
-127,526	527,363	-0,079	-0,136
-126,512	-146,337	0,149	0,009
-125,497	-12,145	0,043	0,020
-124,483	114,749	0,062	0,055
-123,468	117,691	0,048	-0,043
-122,453	-45,972	-0,063	0,022
-121,439	-43,493	0,038	0,014
-120,424	-86,262	-0,050	0,011
-119,410	-147,652	0,122	-0,007
-118,395	800,000	0,081	0,197
-117,380	-9,454	-0,013	-0,006
-116,366	3,601	-0,044	-0,023
-115,351	305,025	0,055	0,074
-114,337	800,000	0,043	-0,109
-113,322	226,143	0,070	-0,083
-112,307	800,000	0,031	-0,092
-111,293	110,190	0,083	0,072
-110,278	-72,991	0,034	0,009
-109,264	233,598	-0,048	-0,058
-108,249	-96,259	-0,065	-0,012
-107,234	-66,347	-0,080	-0,023
-106,220	481,432	-0,065	-0,108
-105,205	91,481	0,038	-0,031
-104,191	-200,000	0,010	0,035
-103,176	-50,117	0,088	0,030
-102,162	643,638	-0,009	0,017
-101,147	1,699	0,066	0,034
-100,132	49,458	0,035	-0,024
-99,118	800,000	-0,029	-0,080
-98,103	132,682	-0,065	0,061
-97,089	-128,767	0,062	-0,006
-96,074	-122,785	0,064	-0,007
-95,059	152,927	-0,110	-0,109
-94,045	798,744	-0,054	-0,108
-93,030	-131,249	-0,071	-0,007
-92,016	-200,000	0,022	-0,075
-91,001	-200,000	-0,034	-0,127
-89,986	-200,000	0,043	0,151
-88,972	-5,975	0,160	0,079
-87,957	-200,000	-0,031	0,149
-86,943	39,151	-0,126	0,082
-85,928	-200,000	-0,019	0,113
-84,913	-14,569	-0,058	0,027
-83,899	-200,000	-0,002	0,081
-82,884	800,000	0,045	0,092
-81,870	-1,470	-0,033	-0,017
-80,855	-29,520	0,049	0,020
-79,840	-145,201	-0,059	-0,004
-78,826	579,557	0,065	-0,116
-77,811	133,374	-0,080	-0,075
-76,797	285,536	0,047	-0,062
-75,782	-200,000	0,011	0,046
-74,767	800,000	-0,052	0,111
-73,753	11,693	0,119	0,066
-72,738	800,000	0,020	-0,051
-71,724	113,485	-0,105	-0,093
-70,709	30,135	0,011	0,007
-69,694	-70,685	0,163	0,044
-68,680	29,337	0,086	-0,053
-67,665	-7,739	0,065	0,032
-66,651	224,538	0,101	0,119
-65,636	724,073	0,064	0,125
-64,622	-200,000	0,022	0,114
-63,607	-53,251	-0,155	-0,051
-62,592	92,129	0,042	-0,034
-61,578	349,075	-0,075	0,108
-60,563	-20,177	0,070	0,031
-59,549	-200,000	0,006	0,033
-58,534	-188,386	-1,438	0,013
-57,519	664,823	-0,826	-1,555
-56,505	-200,000	-0,874	-4,421
-55,490	49,355	0,641	-0,437
-54,476	800,000	5,042	11,885
-53,461	-200,000	13,203	252,443
-52,446	-200,000	688,394	2266,820
-51,432	596,241	1622,315	2926,700
-50,417	120,750	1635,980	1475,659
-49,403	73,658	1290,065	979,641
-48,388	38,415	1024,826	661,268
-47,373	24,501	982,415	588,137
-46,359	23,717	972,043	579,331
-45,344	22,768	967,853	573,709
-44,330	22,720	966,335	572,630
-43,315	22,637	964,962	571,524
-42,300	22,634	963,896	570,859
-41,286	22,618	963,001	570,255
-40,271	22,578	961,990	569,504
-39,257	22,600	961,117	569,036
-38,242	22,571	960,168	568,359
-37,227	22,593	959,244	567,859
-36,213	22,527	958,494	567,179
-35,198	22,532	957,636	566,666
-34,184	22,603	956,873	566,419
-33,169	22,590	956,024	565,852
-32,154	22,612	955,259	565,447
-31,140	22,517	954,435	564,633
-30,125	22,554	953,389	564,111
-29,111	22,599	952,607	563,771
-28,096	22,639	951,940	563,482
-27,082	22,646	951,155	563,018
-26,067	22,613	950,342	562,406
-25,052	22,606	949,812	562,050
-24,038	22,553	949,255	561,527
-23,023	22,572	948,465	561,099
-22,009	22,630	947,706	560,812
-20,994	22,589	947,243	560,385
-19,979	22,655	946,578	560,182
-18,965	22,632	946,058	559,777
-17,950	22,594	945,411	559,251
-16,936	22,556	944,621	558,641
-15,921	22,517	943,892	558,064
-14,906	22,504	943,145	557,559
-13,892	22,491	942,723	557,245
-12,877	22,536	941,836	556,842
-11,863	22,429	941,401	556,221
-10,848	22,481	941,001	556,129
-9,833	22,576	940,286	555,986
-8,819	22,574	939,681	555,600
-7,804	22,527	938,995	555,022
-6,790	22,476	938,530	554,565
-5,775	22,475	938,077	554,271
-4,760	22,441	937,451	553,773
-3,746	22,489	936,829	553,536
-2,731	22,338	936,036	552,568
-1,717	22,308	935,242	551,980
-0,702	22,359	934,495	551,679
0,313	22,131	933,886	551,436
1,327	25,147	931,980	559,747
2,342	34,756	796,812	504,176
3,356	32,812	452,377	283,279
4,371	2,014	293,898	153,307
5,386	-2,360	274,804	139,196
6,400	-4,061	268,998	134,664
7,415	-4,433	266,588	133,103
8,429	-4,297	265,327	132,587
9,444	-4,168	264,448	132,253
10,459	-4,090	263,766	131,971
11,473	-4,396	263,311	131,454
12,488	-4,259	262,594	131,208
13,502	-4,430	262,282	130,886
14,517	-4,528	261,862	130,577
15,531	-4,366	261,254	130,407
16,546	-4,310	260,946	130,293
17,561	-4,406	260,714	130,079
18,575	-4,480	260,457	129,873
19,590	-4,397	259,915	129,665
20,604	-4,308	259,765	129,659
21,619	-4,322	259,312	129,408
22,634	-4,273	259,081	129,325
23,648	-4,464	258,825	129,016
24,663	-4,412	258,434	128,855
25,677	-4,525	258,404	128,729
26,692	-4,592	258,127	128,519
27,707	-4,372	257,785	128,533
28,721	-4,526	257,490	128,237
29,736	-4,327	257,162	128,239
30,750	-4,370	256,986	128,102
31,765	-4,550	256,753	127,815
32,780	-4,394	256,650	127,890
33,794	-4,541	256,378	127,614
34,809	-4,378	255,951	127,533
35,823	-4,470	255,688	127,310
36,838	-4,664	255,603	127,085
37,853	-4,430	255,236	127,098
38,867	-4,623	255,200	126,899
39,882	-4,458	255,049	126,957
40,896	-4,725	254,732	126,554
41,911	-4,516	254,426	126,574
42,926	-4,399	254,084	126,494
43,940	-4,606	253,999	126,260
44,955	-4,622	253,665	126,068
45,969	-4,675	253,541	125,950
46,984	-4,980	253,383	125,594
47,999	-5,164	253,040	125,253
49,013	-5,070	252,670	125,140
50,028	-5,096	252,415	124,980
51,042	-5,355	252,375	124,724
52,057	-5,382	252,096	124,552
53,071	-5,198	251,929	124,618
54,086	-5,272	251,778	124,468
55,101	-4,879	251,525	124,671
56,115	-4,873	251,443	124,625
57,130	-4,624	251,302	124,759
58,144	-4,221	251,146	125,018
59,159	-4,439	250,988	124,740
60,174	-4,268	250,811	124,788
61,188	-4,398	250,639	124,580
62,203	-4,339	250,388	124,495
63,217	-4,475	250,229	124,288
64,232	-4,329	249,949	124,263
65,247	-4,571	249,886	124,013
66,261	-4,386	249,513	123,975
67,276	-4,537	249,189	123,674
68,290	-4,641	249,015	123,488
69,305	-4,949	248,809	123,112
70,320	-4,702	248,601	123,208
71,334	-4,595	248,526	123,251
72,349	-4,158	248,308	123,505
73,363	-4,074	248,096	123,460
74,378	-4,461	247,986	123,064
75,393	-4,594	247,773	122,835
76,407	-4,570	247,574	122,746
77,422	-4,501	247,379	122,696
78,436	-4,384	247,166	122,679
79,451	-4,341	246,856	122,551
80,466	-4,551	246,695	122,283
81,480	-4,459	246,491	122,248
82,495	-4,432	246,130	122,081
83,509	-4,517	246,040	121,954
84,524	-4,773	245,945	121,680
85,539	-4,853	245,648	121,454
86,553	-4,828	245,581	121,432
87,568	-4,652	245,248	121,404
88,582	-4,696	245,208	121,337
89,597	-4,702	245,064	121,250
90,611	-4,671	244,900	121,184
91,626	-4,534	244,754	121,215
92,641	-4,462	244,670	121,223
93,655	-4,638	244,307	120,885
94,670	-4,538	244,012	120,813
95,684	-4,534	243,827	120,713
96,699	-4,584	243,726	120,611
97,714	-4,563	243,528	120,519
98,728	-4,562	243,276	120,385
99,743	-4,741	243,009	120,093
100,757	-5,051	242,929	119,785
101,772	-4,865	242,771	119,851
102,787	-4,739	242,597	119,859
103,801	-4,591	242,387	119,867
104,816	-4,526	242,260	119,848
105,830	-4,345	242,128	119,922
106,845	-4,398	241,948	119,778
107,860	-4,537	241,769	119,564
108,874	-4,596	241,559	119,401
109,889	-4,797	241,376	119,134
110,903	-4,569	241,105	119,177
111,918	-4,807	241,057	118,946
112,933	-4,688	240,838	118,926
113,947	-4,566	240,710	118,952
114,962	-4,527	240,622	118,931
115,976	-4,707	240,445	118,684
116,991	-4,226	240,077	118,887
118,006	-4,522	239,853	118,522
119,020	-4,415	239,966	118,656
120,035	-4,213	239,716	118,687
121,049	-4,522	239,558	118,345
122,064	-4,429	239,418	118,342
123,079	-4,632	239,236	118,075
124,093	-4,498	238,958	118,037
125,108	-4,653	238,720	117,783
126,122	-4,879	238,420	117,440
127,137	-5,010	238,358	117,292
128,151	-4,904	238,299	117,339
129,166	-4,775	238,099	117,335
130,181	-4,791	237,801	117,165
131,195	-4,820	237,667	117,065
132,210	-4,828	237,587	117,008
133,224	-4,656	237,382	117,036
134,239	-4,252	237,252	117,289
135,254	-4,435	237,089	117,050
136,268	-4,690	237,010	116,794
137,283	-4,770	236,605	116,519
138,297	-5,103	236,415	116,147
139,312	-4,971	236,230	116,152
140,327	-4,667	236,200	116,372
141,341	-4,216	236,198	116,723
142,356	-4,246	235,956	116,570
143,370	-4,292	235,898	116,494
144,385	-4,041	235,602	116,539
145,400	-4,097	235,556	116,460
146,414	-4,250	235,312	116,207
147,429	-4,400	235,222	116,032
148,443	-4,207	234,867	116,001
149,458	-4,141	234,668	115,945
150,473	-4,251	234,744	115,884
151,487	-4,292	234,485	115,713
152,502	-4,302	234,339	115,623
153,516	-4,044	234,179	115,740
154,531	-4,283	234,032	115,466
155,546	-4,291	233,785	115,327
156,560	-4,227	233,567	115,261
157,575	-4,408	233,411	115,030
158,589	-4,344	233,275	115,003
159,604	-4,315	233,156	114,957
160,619	-4,105	233,156	115,113
161,633	-4,091	232,783	114,930
162,648	-4,163	232,802	114,872
163,662	-4,096	232,553	114,792
164,677	-4,267	232,316	114,530
165,692	-4,179	232,233	114,548
166,706	-4,178	232,122	114,485
167,721	-3,912	231,907	114,577
168,735	-4,170	231,876	114,349
169,750	-3,968	231,618	114,371
170,764	-4,135	231,492	114,167
171,779	-4,147	231,187	113,997
172,794	-4,153	231,159	113,968
173,808	-4,075	231,025	113,952
174,823	-4,663	230,627	113,285
175,837	-4,928	230,573	113,040
176,852	-4,479	230,498	113,346
177,867	-4,192	230,463	113,543
178,881	-4,332	230,305	113,346
179,896	-3,961	230,082	113,516
180,910	-4,154	229,848	113,240
181,925	-4,114	229,764	113,220
182,940	-3,800	229,457	113,303
183,954	-4,050	229,505	113,122
184,969	-4,038	229,386	113,062
185,983	-4,192	229,220	112,850
186,998	-3,948	229,066	112,954
188,013	-4,099	228,943	112,767
189,027	-3,946	228,733	112,771
190,042	-3,989	228,545	112,635
191,056	-4,180	228,531	112,470
192,071	-4,022	228,355	112,496
193,086	-3,787	228,048	112,517
194,100	-4,074	227,974	112,248
195,115	-4,112	227,675	112,061
196,129	-4,823	227,564	111,448
197,144	-1,241	228,789	114,817
198,159	2,723	229,712	118,351
199,173	4,038	229,897	119,457
200,188	4,032	229,688	119,333
201,202	4,208	229,599	119,413
202,217	4,102	229,511	119,275
203,232	4,499	229,322	119,473
204,246	4,832	229,234	119,673
205,261	4,639	229,198	119,495
206,275	4,769	229,122	119,545
207,290	5,027	228,778	119,553
208,304	5,020	228,720	119,508
209,319	4,643	228,609	119,149
210,334	4,676	228,437	119,073
211,348	4,699	228,065	118,887
212,363	4,246	227,799	118,390
213,377	3,986	227,711	118,134
214,392	4,055	227,460	118,046
215,407	3,996	227,466	117,993
216,421	4,345	227,126	118,074
217,436	3,967	227,150	117,786
218,450	4,033	226,750	117,618
219,465	3,728	226,691	117,344
220,480	3,609	226,729	117,263
221,494	3,681	226,449	117,162
222,509	3,895	226,335	117,256
223,523	3,902	226,167	117,164
224,538	3,855	226,154	117,111
225,553	4,114	225,892	117,162
226,567	4,228	225,797	117,189
227,582	4,332	225,693	117,204
228,596	4,165	225,686	117,062
229,611	4,056	225,515	116,880
230,626	3,818	225,006	116,426
231,640	3,758	224,989	116,361
232,655	4,017	224,986	116,545
233,669	4,377	225,041	116,837
234,684	4,660	224,826	116,928
235,699	4,429	224,594	116,623
236,713	3,951	224,432	116,167
237,728	3,878	224,147	115,954
238,742	3,874	224,008	115,869
239,757	3,740	223,893	115,698
240,772	4,172	223,558	115,840
241,786	4,014	223,497	115,679
242,801	3,965	223,439	115,602
243,815	4,345	223,406	115,860
244,830	4,493	223,196	115,852
245,844	4,121	223,093	115,509
246,859	4,118	222,961	115,428
247,874	4,150	222,869	115,394
248,888	4,285	222,596	115,343
249,903	4,204	222,372	115,157
250,917	4,110	222,296	115,037
251,932	3,936	222,102	114,796
252,947	3,966	221,938	114,724
253,961	3,709	221,882	114,493
254,976	3,852	221,491	114,387
255,990	4,121	221,588	114,628
257,005	4,218	221,393	114,589
258,020	4,289	221,280	114,573
259,034	4,208	221,384	114,556
260,049	4,191	221,073	114,373
261,063	4,072	220,871	114,170
262,078	4,205	220,806	114,224
263,093	4,277	220,721	114,224
264,107	4,234	220,550	114,092
265,122	4,265	220,392	114,023
266,136	4,256	220,404	114,013
267,151	4,255	220,176	113,884
268,166	4,113	219,749	113,549
269,180	3,796	219,573	113,214
270,195	3,729	219,529	113,131
271,209	3,754	219,310	113,028
272,224	3,855	219,286	113,079
273,239	4,096	219,134	113,168
274,253	3,845	219,030	112,920
275,268	3,750	218,747	112,694
276,282	3,609	218,603	112,506
277,297	3,486	218,473	112,339
278,312	3,691	218,427	112,455
279,326	3,825	218,278	112,467
280,341	4,040	218,229	112,589
281,355	3,816	218,113	112,356
282,370	3,930	217,747	112,240
283,384	3,706	217,688	112,036
284,399	3,733	217,498	111,949
285,414	3,599	217,353	111,766
286,428	3,997	217,185	111,959
287,443	3,856	217,269	111,890
288,457	3,995	217,221	111,957
289,472	3,811	216,929	111,662
290,487	3,689	216,514	111,350
291,501	3,342	216,506	111,084
292,516	3,709	216,491	111,333
293,530	3,749	216,172	111,188
294,545	3,819	216,195	111,240
295,560	3,834	216,015	111,149
296,574	3,856	215,853	111,071
297,589	3,958	215,698	111,055
298,603	4,164	215,529	111,107
299,618	4,238	215,349	111,058
300,633	4,107	215,439	111,000
301,647	4,096	215,378	110,950
302,662	4,197	215,195	110,919
303,676	4,176	214,973	110,780
304,691	4,381	214,667	110,760
305,706	4,361	214,813	110,810
306,720	4,277	214,537	110,598
307,735	3,941	214,291	110,220
308,749	3,709	214,272	110,035
309,764	4,213	214,046	110,270
310,779	4,011	214,038	110,110
311,793	4,208	213,904	110,173
312,808	4,132	213,840	110,076
313,822	3,902	213,588	109,773
314,837	3,944	213,352	109,671
315,852	3,862	213,230	109,540
316,866	3,881	213,276	109,568
317,881	3,963	213,161	109,558
318,895	4,110	212,915	109,525
319,910	4,143	212,689	109,423
320,925	3,696	212,503	109,000
321,939	3,237	212,443	108,633
322,954	3,413	212,348	108,701
323,968	3,816	212,345	108,975
324,983	4,164	212,083	109,077
325,997	4,263	212,022	109,106
327,012	3,881	211,794	108,709
328,027	4,086	211,582	108,735
329,041	4,436	211,622	108,994
330,056	4,346	211,564	108,890
331,070	3,970	211,374	108,518
332,085	3,886	211,146	108,331
333,100	4,107	210,879	108,340
334,114	3,939	210,750	108,147
335,129	4,039	210,653	108,157
336,143	3,645	210,633	107,860
337,158	3,868	210,451	107,914
338,173	4,038	210,372	107,984
339,187	3,660	210,287	107,665
340,202	3,239	210,152	107,291
341,216	3,554	209,890	107,369
342,231	3,721	209,617	107,336
343,246	3,522	209,733	107,247
344,260	3,722	209,508	107,261
345,275	3,918	209,427	107,348
346,289	4,040	209,350	107,383
347,304	3,802	209,267	107,165
348,319	3,641	209,074	106,945
349,333	3,913	208,924	107,048
350,348	4,127	208,694	107,070
351,362	4,027	208,724	107,006
352,377	3,882	208,723	106,894
353,392	3,948	208,431	106,782
354,406	3,806	208,344	106,629
355,421	193,642	1346,818	1434,524
356,435	154,483	1485,641	1434,644
