DTS Sentinel unit serial number:	SN410029Multiplexer serial number:	ORYXHardware model number:	OX2-SRSoftware version number:	ORYX F/W v4,00 Oryx Data Collector v3.7.2.0data status	okinstallation	B6 Nyhavnadifferential loss correction	single-endedforward channel	channel 2reverse channel	N/Adate	2023/12/07time	21:00:08forward acquisition time	300,00reverse acquisition time	0,00gamma	499,1914k internal	0,3164k external	0,3164temperature offset calibration	1,0000default loss term (dB/km)	0,3820temperature slope calibration	1,0000multiplexer offset coefficient	1,0000multiplexer slope coefficient	1,0000fibre end	0,00T internal ref (°C)	13,75T ext. ref 1 (°C)	-3,12T ext. ref 2 (°C)	-3,15length (m)	temperature (°C)	Stokes	anti-Stokes-744,400	-168,484	0,166	0,005
-743,385	-109,774	-0,256	0,039
-742,371	48,370	0,135	0,093
-741,356	143,037	-0,201	0,197
-740,342	78,275	0,122	-0,096
-739,327	-146,200	-0,180	-0,011
-738,312	355,333	0,070	0,103
-737,298	-17,736	-0,232	-0,107
-736,283	257,007	0,074	0,094
-735,269	-77,548	-0,382	0,097
-734,254	-68,986	0,123	0,035
-733,239	-87,401	-0,441	-0,098
-732,225	-109,463	0,209	0,032
-731,210	139,239	0,073	0,071
-730,196	-114,493	-0,076	0,011
-729,181	800,000	-0,054	-0,153
-728,167	-126,846	-0,130	0,014
-727,152	-35,274	-0,074	-0,029
-726,137	-154,621	-0,084	0,004
-725,123	86,796	-0,141	-0,114
-724,108	51,290	-0,134	-0,093
-723,094	800,000	-0,018	0,042
-722,079	-200,000	0,027	-0,208
-721,064	108,960	-0,115	-0,101
-720,050	-87,376	-0,066	-0,015
-719,035	78,045	0,070	-0,055
-718,021	694,724	-0,078	-0,151
-717,006	-55,934	-0,023	-0,007
-715,991	-148,138	-0,165	-0,010
-714,977	-200,000	0,005	-0,130
-713,962	-97,690	-0,130	0,025
-712,948	-200,000	-0,006	0,174
-711,933	130,651	0,077	-0,072
-710,918	-29,398	-0,153	0,064
-709,904	118,288	-0,052	0,047
-708,889	-143,229	-0,076	-0,005
-707,875	-26,024	-0,038	-0,016
-706,860	-54,770	0,055	0,018
-705,845	37,444	0,060	-0,039
-704,831	149,322	-0,075	0,075
-703,816	151,620	-0,019	-0,019
-702,802	-200,000	-0,010	-0,119
-701,787	800,000	0,039	-0,105
-700,772	-81,986	-0,088	-0,021
-699,758	-26,935	0,052	-0,022
-698,743	800,000	0,052	-0,140
-697,729	40,202	0,084	-0,055
-696,714	-200,000	-0,018	-0,110
-695,699	800,000	-0,047	-0,099
-694,685	-127,668	-0,139	-0,015
-693,670	108,112	-0,050	-0,044
-692,656	107,424	-0,032	-0,028
-691,641	228,569	0,092	0,111
-690,627	693,714	0,025	-0,049
-689,612	-126,182	-0,216	0,023
-688,597	-139,262	-0,138	0,011
-687,583	800,000	-0,043	-0,113
-686,568	-200,000	0,005	-0,086
-685,554	312,113	0,053	-0,073
-684,539	39,078	0,091	0,059
-683,524	-200,000	-0,012	0,110
-682,510	-200,000	-0,003	0,025
-681,495	10,782	0,149	0,083
-680,481	33,775	-0,056	-0,036
-679,466	-200,000	-0,012	-0,056
-678,451	-136,121	-0,105	-0,009
-677,437	320,749	-0,038	-0,053
-676,422	165,081	0,109	-0,113
-675,408	148,643	0,071	0,071
-674,393	456,761	-0,042	0,068
-673,378	-29,527	-0,079	-0,033
-672,364	34,175	-0,097	0,062
-671,349	800,000	-0,033	-0,080
-670,335	-200,000	-0,008	-0,068
-669,320	-61,371	-0,117	0,036
-668,305	-125,249	0,078	-0,009
-667,291	203,838	0,084	0,095
-666,276	414,650	-0,106	-0,166
-665,262	-200,000	0,003	0,049
-664,247	-107,128	-0,065	0,010
-663,232	-31,958	-0,165	0,068
-662,218	-200,000	-0,029	0,106
-661,203	276,468	-0,029	-0,038
-660,189	324,409	-0,027	0,038
-659,174	26,414	0,111	-0,068
-658,159	-81,313	-0,117	-0,028
-657,145	-200,000	0,017	0,084
-656,130	117,689	-0,079	-0,071
-655,116	-12,661	-0,063	0,030
-654,101	226,423	-0,064	0,076
-653,086	137,925	-0,114	0,109
-652,072	-200,000	-0,003	-0,090
-651,057	-130,891	-0,192	-0,019
-650,043	257,646	-0,023	-0,029
-649,028	218,742	0,038	-0,045
-648,014	31,714	-0,041	0,026
-646,999	603,139	-0,038	-0,069
-645,984	13,854	-0,168	0,096
-644,970	800,000	-0,044	-0,119
-643,955	-94,057	0,083	0,016
-642,941	-200,000	0,013	-0,121
-641,926	-153,412	0,146	0,007
-640,911	-46,828	-0,158	0,056
-639,897	276,888	0,057	-0,075
-638,882	288,103	-0,058	0,077
-637,868	800,000	0,042	-0,109
-636,853	-45,023	-0,130	0,047
-635,838	373,940	-0,089	-0,133
-634,824	-200,000	0,012	-0,130
-633,809	-200,000	-0,020	-0,095
-632,795	226,951	0,024	0,029
-631,780	-200,000	0,016	0,087
-630,765	-114,568	-0,011	0,002
-629,751	-1,083	-0,077	-0,040
-628,736	-179,392	-0,098	0,002
-627,722	-5,074	0,061	-0,031
-626,707	120,976	0,050	0,046
-625,692	481,640	0,059	-0,099
-624,678	-71,314	-0,017	0,005
-623,663	8,918	-0,028	0,015
-622,649	295,616	-0,074	-0,100
-621,634	-200,000	-0,013	-0,113
-620,619	212,987	0,064	-0,074
-619,605	280,899	0,035	0,046
-618,590	800,000	0,046	0,147
-617,576	782,566	0,113	0,228
-616,561	372,373	0,033	0,049
-615,546	23,034	-0,169	-0,101
-614,532	800,000	-0,038	-0,095
-613,517	215,781	-0,044	0,051
-612,503	258,125	-0,051	-0,065
-611,488	-200,000	0,019	-0,066
-610,474	476,778	-0,079	0,131
-609,459	800,000	-0,013	0,030
-608,444	-100,594	-0,056	0,010
-607,430	-200,000	-0,027	-0,131
-606,415	-4,347	0,020	-0,010
-605,401	-200,000	0,031	0,104
-604,386	112,355	0,070	0,062
-603,371	800,000	-0,045	-0,127
-602,357	-112,207	-0,052	0,007
-601,342	8,299	-0,133	-0,073
-600,328	33,225	-0,028	-0,018
-599,313	-175,333	0,045	-0,001
-598,298	-70,708	-0,053	0,015
-597,284	800,000	-0,028	0,062
-596,269	504,678	0,006	-0,011
-595,255	-200,000	-0,012	-0,071
-594,240	-200,000	0,014	0,142
-593,225	21,088	0,044	0,026
-592,211	-200,000	-0,001	-0,025
-591,196	-142,670	0,217	-0,015
-590,182	-200,000	-0,005	0,026
-589,167	95,418	-0,019	-0,016
-588,152	-75,439	0,123	0,032
-587,138	306,191	-0,082	-0,112
-586,123	-106,390	0,180	-0,029
-585,109	74,601	-0,074	0,057
-584,094	51,122	-0,148	-0,103
-583,079	800,000	-0,026	-0,065
-582,065	378,519	-0,055	0,083
-581,050	519,659	0,061	0,104
-580,036	263,781	-0,031	-0,040
-579,021	-200,000	0,025	-0,178
-578,006	800,000	-0,045	-0,108
-576,992	167,262	-0,044	-0,046
-575,977	193,350	-0,043	-0,047
-574,963	800,000	0,047	0,127
-573,948	800,000	-0,029	0,064
-572,934	-63,563	0,065	-0,019
-571,919	-200,000	-0,008	0,072
-570,904	158,465	-0,086	-0,088
-569,890	-128,242	0,054	-0,006
-568,875	-10,530	0,010	0,005
-567,861	350,498	-0,034	-0,049
-566,846	-96,571	0,073	0,014
-565,831	-147,268	0,039	0,002
-564,817	18,108	-0,025	0,014
-563,802	552,951	-0,089	-0,157
-562,788	-128,906	0,209	-0,021
-561,773	217,811	-0,049	0,057
-560,758	558,104	-0,060	-0,105
-559,744	-12,370	-0,111	-0,053
-558,729	8,054	-0,104	-0,057
-557,715	278,166	-0,122	-0,159
-556,700	800,000	0,039	-0,115
-555,685	204,225	-0,127	-0,143
-554,671	-39,637	-0,126	-0,048
-553,656	30,334	0,048	0,030
-552,642	16,025	0,049	-0,028
-551,627	800,000	0,086	-0,206
-550,612	42,035	-0,013	-0,009
-549,598	-200,000	-0,005	-0,017
-548,583	-34,974	-0,081	0,032
-547,569	-142,004	-0,124	0,009
-546,554	-102,130	0,083	0,014
-545,539	431,384	0,095	-0,150
-544,525	793,056	-0,064	-0,129
-543,510	-166,556	0,052	0,002
-542,496	555,518	-0,065	-0,115
-541,481	-200,000	0,014	-0,050
-540,466	664,321	0,019	0,035
-539,452	-106,147	0,215	0,035
-538,437	19,516	0,071	-0,042
-537,423	-84,314	-0,045	-0,010
-536,408	-30,072	0,148	-0,061
-535,393	800,000	0,018	0,045
-534,379	102,923	-0,021	0,018
-533,364	-200,000	-0,022	0,108
-532,350	191,889	0,047	-0,052
-531,335	-130,519	0,096	0,009
-530,321	-200,000	0,010	-0,086
-529,306	205,029	0,068	-0,077
-528,291	39,333	-0,112	-0,073
-527,277	126,589	-0,110	-0,102
-526,262	137,514	-0,073	0,070
-525,248	-200,000	-0,008	0,132
-524,233	414,731	-0,056	0,087
-523,218	-200,000	0,016	0,161
-522,204	-28,767	0,138	0,058
-521,189	-0,057	-0,079	-0,041
-520,175	800,000	0,064	0,159
-519,160	-64,808	0,062	-0,018
-518,145	12,812	-0,118	0,066
-517,131	14,789	0,079	0,045
-516,116	800,000	-0,054	0,125
-515,102	-200,000	0,010	0,045
-514,087	165,760	-0,063	-0,065
-513,072	388,038	0,080	-0,121
-512,058	-176,140	-0,197	-0,004
-511,043	-110,683	0,055	0,008
-510,029	106,048	0,093	-0,080
-509,014	-200,000	-0,007	-0,064
-507,999	-90,304	0,070	0,015
-506,985	-200,000	0,035	0,133
-505,970	800,000	-0,039	-0,104
-504,956	800,000	0,036	0,074
-503,941	-200,000	-0,013	-0,106
-502,926	-114,967	0,027	0,004
-501,912	800,000	-0,042	0,099
-500,897	-66,380	-0,050	-0,014
-499,883	102,742	0,059	0,050
-498,868	-200,000	0,006	-0,112
-497,853	800,000	-0,023	0,073
-496,839	64,185	0,175	0,128
-495,824	596,109	-0,033	-0,060
-494,810	-80,911	0,071	-0,017
-493,795	-16,727	0,053	0,024
-492,781	54,406	-0,102	0,071
-491,766	93,500	-0,169	0,139
-490,751	164,332	0,090	-0,093
-489,737	-200,000	-0,007	0,044
-488,722	800,000	-0,062	0,135
-487,708	212,666	-0,053	0,061
-486,693	-148,287	0,135	-0,008
-485,678	127,027	0,016	0,014
-484,664	-200,000	0,000	-0,046
-483,649	-200,000	-0,002	-0,102
-482,635	-134,712	-0,207	-0,018
-481,620	800,000	-0,030	0,087
-480,605	800,000	0,023	-0,063
-479,591	-52,319	0,138	0,046
-478,576	-41,630	0,149	0,055
-477,562	232,842	-0,070	0,084
-476,547	290,183	0,051	-0,068
-475,532	-18,539	-0,133	0,060
-474,518	-200,000	0,011	0,174
-473,503	159,180	0,025	0,025
-472,489	245,731	0,043	-0,052
-471,474	800,000	0,026	0,083
-470,459	-200,000	-0,006	-0,217
-469,445	797,662	0,038	-0,076
-468,430	-200,000	-0,013	0,082
-467,416	625,563	0,105	-0,193
-466,401	-90,671	-0,095	-0,020
-465,386	-200,000	-0,017	-0,087
-464,372	41,798	-0,144	0,095
-463,357	800,000	0,022	-0,048
-462,343	-200,000	-0,027	-0,198
-461,328	-168,936	-0,134	-0,004
-460,313	418,578	0,068	0,106
-459,299	-9,124	-0,042	0,020
-458,284	-200,000	0,010	0,038
-457,270	-200,000	-0,010	0,164
-456,255	762,540	-0,060	-0,120
-455,241	-176,316	0,063	0,001
-454,226	341,505	0,042	0,059
-453,211	420,236	-0,018	-0,028
-452,197	93,888	-0,004	-0,003
-451,182	-200,000	0,018	0,090
-450,168	-200,000	-0,000	-0,043
-449,153	232,764	0,080	0,096
-448,138	118,077	-0,123	0,110
-447,124	581,637	-0,021	0,038
-446,109	800,000	-0,021	-0,045
-445,095	800,000	0,003	0,006
-444,080	-200,000	-0,028	0,100
-443,065	71,214	-0,033	-0,025
-442,051	-124,035	-0,208	0,023
-441,036	-37,772	0,079	-0,030
-440,022	-56,331	-0,107	-0,034
-439,007	34,651	-0,045	-0,029
-437,992	-148,361	-0,062	-0,004
-436,978	-200,000	-0,034	0,128
-435,963	187,202	0,069	0,075
-434,949	-90,497	-0,064	0,013
-433,934	-200,000	-0,011	-0,064
-432,919	139,771	-0,033	-0,032
-431,905	202,417	0,078	0,087
-430,890	-76,260	0,143	0,036
-429,876	397,731	0,057	0,086
-428,861	254,052	-0,099	0,123
-427,846	800,000	-0,081	0,176
-426,832	-102,871	0,109	-0,019
-425,817	-200,000	-0,004	0,017
-424,803	360,997	0,063	-0,093
-423,788	368,746	0,039	-0,057
-422,773	-128,021	-0,044	0,005
-421,759	-200,000	0,023	0,161
-420,744	-31,800	0,113	0,046
-419,730	-87,664	-0,060	-0,013
-418,715	-200,000	0,005	-0,096
-417,701	-64,940	0,084	-0,024
-416,686	208,377	-0,018	-0,021
-415,671	478,310	0,086	0,143
-414,657	264,836	-0,065	0,082
-413,642	271,451	-0,045	0,057
-412,628	-98,678	-0,106	0,019
-411,613	-68,367	-0,042	-0,012
-410,598	-200,000	0,026	-0,085
-409,584	370,575	0,078	0,115
-408,569	-200,000	0,058	0,234
-407,555	526,214	0,024	-0,042
-406,540	800,000	-0,044	-0,118
-405,525	-51,369	0,104	-0,035
-404,511	800,000	0,092	-0,202
-403,496	500,112	0,043	-0,072
-402,482	-200,000	-0,013	0,167
-401,467	168,145	0,054	-0,056
-400,452	21,221	0,135	-0,080
-399,438	309,620	0,001	0,001
-398,423	-96,521	-0,107	0,020
-397,409	325,543	-0,078	-0,109
-396,394	-200,000	-0,010	-0,140
-395,379	221,180	0,071	-0,083
-394,365	63,100	-0,050	0,036
-393,350	132,799	0,077	0,072
-392,336	176,957	0,035	-0,037
-391,321	408,094	-0,109	0,168
-390,306	-0,673	0,083	0,043
-389,292	-100,424	-0,057	0,010
-388,277	325,177	0,036	0,051
-387,263	85,525	0,045	-0,035
-386,248	-117,029	0,073	-0,010
-385,233	-200,000	0,000	0,154
-384,219	-26,183	0,084	-0,036
-383,204	326,084	-0,058	-0,081
-382,190	171,059	-0,072	0,075
-381,175	75,141	0,040	0,030
-380,160	-200,000	-0,005	-0,044
-379,146	-200,000	-0,039	-0,134
-378,131	-200,000	0,005	0,066
-377,117	-85,225	-0,044	0,010
-376,102	323,409	-0,062	0,085
-375,088	-200,000	0,011	-0,090
-374,073	38,381	0,015	-0,010
-373,058	322,966	0,019	0,026
-372,044	27,307	0,002	0,001
-371,029	-79,916	-0,102	0,025
-370,015	183,525	0,043	0,046
-369,000	-200,000	-0,011	-0,121
-367,985	229,551	0,103	-0,122
-366,971	110,062	0,055	-0,048
-365,956	-65,472	0,198	0,057
-364,942	-40,363	0,108	-0,040
-363,927	172,651	-0,040	0,042
-362,912	-200,000	-0,017	0,069
-361,898	-48,142	-0,176	0,061
-360,883	-153,297	0,114	0,006
-359,869	800,000	0,044	-0,129
-358,854	-124,618	0,180	-0,020
-357,839	299,856	-0,080	0,107
-356,825	-200,000	0,006	0,056
-355,810	-169,308	0,116	-0,003
-354,796	-200,000	0,032	-0,117
-353,781	334,788	-0,108	-0,152
-352,766	31,538	0,119	0,074
-351,752	77,063	0,069	0,053
-350,737	-200,000	0,003	0,034
-349,723	800,000	-0,060	0,153
-348,708	-200,000	-0,069	0,233
-347,693	181,551	-0,053	-0,057
-346,679	154,642	0,133	0,133
-345,664	-97,596	0,104	-0,019
-344,650	-12,450	-0,045	0,021
-343,635	634,908	0,042	0,077
-342,620	5,696	0,057	-0,030
-341,606	163,666	0,040	-0,041
-340,591	6,427	-0,134	-0,072
-339,577	-27,258	0,097	0,041
-338,562	-89,481	0,112	-0,024
-337,548	287,586	-0,016	-0,021
-336,533	-200,000	0,011	-0,065
-335,518	-125,352	0,106	0,012
-334,504	-200,000	-0,033	0,187
-333,489	102,948	-0,067	0,057
-332,475	28,526	-0,155	-0,095
-331,460	-8,102	0,090	0,044
-330,445	-76,453	-0,196	0,050
-329,431	93,799	-0,046	0,038
-328,416	800,000	0,055	0,131
-327,402	-200,000	-0,045	0,183
-326,387	800,000	-0,057	-0,125
-325,372	92,878	-0,071	-0,058
-324,358	367,575	-0,057	-0,084
-323,343	-123,882	0,032	0,004
-322,329	-158,969	-0,095	0,004
-321,314	800,000	-0,002	-0,004
-320,299	572,205	-0,047	-0,082
-319,285	-200,000	0,012	0,082
-318,270	306,155	-0,045	0,061
-317,256	44,300	0,070	0,046
-316,241	-200,000	0,008	-0,075
-315,226	-85,822	0,052	0,012
-314,212	13,493	0,133	0,074
-313,197	-200,000	0,005	0,017
-312,183	-200,000	-0,035	0,189
-311,168	98,249	-0,082	-0,068
-310,153	365,883	-0,093	-0,136
-309,139	-132,782	0,056	-0,005
-308,124	101,335	-0,079	0,066
-307,110	47,297	0,142	-0,095
-306,095	-77,660	-0,034	0,008
-305,080	-150,357	-0,116	0,006
-304,066	-90,865	0,074	0,015
-303,051	219,812	0,036	0,042
-302,037	139,301	-0,080	-0,076
-301,022	198,388	-0,053	-0,059
-300,008	-27,531	0,118	0,049
-298,993	126,370	0,207	0,190
-297,978	-200,000	-0,018	0,091
-296,964	40,475	0,077	0,050
-295,949	-200,000	-0,044	-0,165
-294,935	219,563	0,028	-0,033
-293,920	9,315	0,116	-0,063
-292,905	800,000	0,019	0,043
-291,891	139,576	-0,054	0,052
-290,876	419,681	0,110	-0,171
-289,862	-110,265	0,061	-0,009
-288,847	800,000	-0,016	0,045
-287,832	-122,438	0,084	-0,010
-286,818	-96,861	-0,168	0,032
-285,803	137,474	0,137	0,129
-284,789	16,314	0,083	0,047
-283,774	-73,567	-0,065	0,017
-282,759	-6,716	-0,025	0,012
-281,745	131,312	-0,011	0,010
-280,730	-200,000	0,000	-0,152
-279,716	-40,026	-0,022	0,008
-278,701	800,000	-0,013	-0,033
-277,686	-200,000	0,002	-0,116
-276,672	59,596	0,075	-0,054
-275,657	632,970	0,032	-0,058
-274,643	317,251	-0,076	-0,104
-273,628	-11,099	-0,125	0,059
-272,613	-5,912	-0,165	-0,081
-271,599	590,843	0,036	0,065
-270,584	-131,256	0,095	-0,009
-269,570	205,550	-0,032	0,036
-268,555	-56,612	-0,150	0,048
-267,540	302,168	0,056	0,075
-266,526	677,573	-0,074	-0,140
-265,511	367,987	-0,066	-0,097
-264,497	-200,000	-0,033	0,124
-263,482	71,755	0,170	-0,128
-262,467	-102,382	-0,025	0,004
-261,453	346,125	-0,060	0,086
-260,438	88,424	0,059	-0,047
-259,424	800,000	0,059	-0,133
-258,409	-200,000	-0,005	0,104
-257,395	378,311	0,061	0,090
-256,380	776,563	-0,043	0,086
-255,365	180,775	0,011	-0,011
-254,351	-7,858	-0,037	-0,018
-253,336	404,546	-0,055	-0,084
-252,322	543,048	0,026	-0,045
-251,307	-200,000	0,031	-0,111
-250,292	228,775	0,052	0,061
-249,278	-68,834	0,041	0,011
-248,263	-74,892	-0,124	-0,032
-247,249	504,298	0,055	-0,092
-246,234	246,397	0,023	-0,029
-245,219	64,483	0,068	0,049
-244,205	800,000	0,037	-0,079
-243,190	800,000	-0,029	0,077
-242,176	70,491	-0,065	0,048
-241,161	-162,909	0,054	0,002
-240,146	-5,340	0,054	0,027
-239,132	-140,105	-0,092	-0,007
-238,117	-115,284	0,050	0,007
-237,103	210,161	0,019	0,022
-236,088	-200,000	-0,009	-0,033
-235,073	-200,000	0,028	-0,099
-234,059	-145,370	-0,126	0,008
-233,044	-130,176	0,104	-0,010
-232,030	-71,109	-0,106	0,028
-231,015	530,598	-0,033	0,056
-230,000	-200,000	-0,027	0,167
-228,986	721,928	0,025	-0,048
-227,971	-181,304	0,095	-0,001
-226,957	673,882	-0,059	-0,111
-225,942	-111,177	0,052	-0,008
-224,927	183,985	-0,078	-0,083
-223,913	119,618	0,026	0,023
-222,898	438,837	0,046	-0,072
-221,884	-66,807	0,074	0,021
-220,869	432,999	-0,047	-0,074
-219,855	146,773	0,074	0,072
-218,840	633,940	0,020	0,037
-217,825	-200,000	-0,016	-0,089
-216,811	-94,752	-0,009	0,002
-215,796	-24,881	-0,155	-0,066
-214,782	-30,422	0,067	0,027
-213,767	41,357	0,034	-0,022
-212,752	-200,000	-0,001	0,070
-211,738	-200,000	0,040	-0,168
-210,723	196,834	0,078	0,085
-209,709	340,137	-0,068	-0,096
-208,694	-161,097	-0,119	-0,004
-207,679	800,000	0,021	-0,048
-206,665	245,482	-0,084	-0,102
-205,650	-200,000	-0,003	0,066
-204,636	-39,650	0,038	0,014
-203,621	-159,069	0,171	-0,007
-202,606	-138,599	-0,018	-0,001
-201,592	-200,000	-0,001	0,010
-200,577	-200,000	0,008	-0,040
-199,563	28,471	-0,049	0,030
-198,548	-200,000	-0,040	0,167
-197,533	627,193	-0,027	-0,049
-196,519	800,000	0,031	0,090
-195,504	800,000	0,048	-0,119
-194,490	467,455	-0,040	-0,065
-193,475	-9,422	-0,096	0,046
-192,460	762,717	-0,015	-0,030
-191,446	-81,122	-0,079	-0,019
-190,431	-135,175	0,155	-0,013
-189,417	-200,000	-0,020	0,091
-188,402	26,321	0,098	0,059
-187,387	-61,598	0,035	0,011
-186,373	-93,295	-0,169	-0,034
-185,358	-48,982	0,018	-0,006
-184,344	-116,430	0,072	-0,009
-183,329	-200,000	0,006	0,087
-182,315	120,116	0,042	0,037
-181,300	-200,000	-0,009	0,092
-180,285	-45,903	-0,093	-0,033
-179,271	-38,015	-0,081	0,031
-178,256	-200,000	0,007	0,043
-177,242	194,851	0,054	-0,059
-176,227	-200,000	-0,023	0,154
-175,212	170,785	-0,019	0,019
-174,198	800,000	-0,033	0,075
-173,183	-200,000	-0,008	0,075
-172,169	-200,000	0,012	0,119
-171,154	800,000	0,033	0,103
-170,139	800,000	0,086	-0,182
-169,125	-200,000	0,043	0,161
-168,110	-200,000	-0,027	-0,089
-167,096	-200,000	-0,001	0,017
-166,081	215,814	-0,041	0,047
-165,066	139,993	-0,048	-0,046
-164,052	-200,000	-0,036	0,146
-163,037	-56,935	-0,072	-0,023
-162,023	-6,480	0,060	0,029
-161,008	-200,000	-0,006	0,031
-159,993	-137,761	0,163	0,013
-158,979	-50,140	-0,162	-0,055
-157,964	-200,000	0,007	-0,110
-156,950	800,000	0,073	-0,149
-155,935	-3,093	-0,074	-0,037
-154,920	-165,139	0,049	-0,002
-153,906	800,000	0,020	0,051
-152,891	800,000	-0,037	0,098
-151,877	234,906	-0,055	-0,066
-150,862	166,468	-0,005	-0,005
-149,847	101,524	0,017	-0,014
-148,833	-200,000	-0,010	0,062
-147,818	328,631	0,084	0,117
-146,804	-93,539	-0,117	-0,023
-145,789	800,000	-0,027	0,084
-144,775	67,734	-0,111	-0,081
-143,760	397,210	-0,067	0,101
-142,745	-200,000	0,003	-0,066
-141,731	-157,396	0,080	0,003
-140,716	800,000	-0,018	-0,045
-139,702	-11,814	0,022	-0,010
-138,687	270,511	-0,024	-0,030
-137,672	-59,857	-0,157	-0,048
-136,658	-46,987	0,085	-0,030
-135,643	282,220	-0,023	-0,029
-134,629	-200,000	-0,007	0,080
-133,614	800,000	0,067	0,140
-132,599	-104,287	0,127	0,021
-131,585	800,000	0,012	0,030
-130,570	-200,000	0,006	-0,031
-129,556	800,000	0,025	-0,053
-128,541	174,720	-0,174	-0,181
-127,526	190,716	0,053	0,057
-126,512	105,968	0,106	0,090
-125,497	32,533	0,041	-0,025
-124,483	209,412	0,046	0,052
-123,468	-200,000	0,023	0,083
-122,453	147,590	0,054	0,052
-121,439	-47,597	-0,166	0,058
-120,424	147,900	0,023	-0,022
-119,410	487,568	-0,061	-0,100
-118,395	800,000	0,022	-0,060
-117,380	800,000	0,012	0,030
-116,366	320,738	-0,013	0,018
-115,351	-123,037	0,095	0,011
-114,337	800,000	-0,029	-0,066
-113,322	267,228	0,097	-0,122
-112,307	-88,237	-0,086	0,018
-111,293	-200,000	-0,008	-0,068
-110,278	-200,000	-0,008	0,071
-109,264	173,528	-0,053	0,055
-108,249	-149,167	-0,063	0,004
-107,234	157,935	-0,017	-0,017
-106,220	-6,428	-0,102	0,050
-105,205	800,000	-0,031	0,074
-104,191	346,501	0,054	0,076
-103,176	-45,862	0,192	0,068
-102,162	342,153	0,066	0,093
-101,147	491,342	-0,012	0,019
-100,132	-170,647	-0,156	-0,004
-99,118	-200,000	-0,007	0,107
-98,103	-200,000	-0,006	-0,053
-97,089	800,000	-0,010	-0,020
-96,074	-200,000	0,017	-0,222
-95,059	-62,590	0,182	-0,054
-94,045	800,000	-0,025	-0,075
-93,030	66,292	-0,021	0,016
-92,016	281,852	-0,102	-0,132
-91,001	-22,953	-0,101	-0,044
-89,986	267,398	0,041	0,052
-88,972	747,279	0,042	-0,081
-87,957	-200,000	-0,015	-0,057
-86,943	-200,000	0,012	-0,112
-85,928	182,704	-0,037	-0,039
-84,913	299,732	-0,051	-0,068
-83,899	36,371	-0,129	-0,081
-82,884	-95,671	0,113	0,021
-81,870	-200,000	-0,020	0,103
-80,855	-113,474	0,004	-0,001
-79,840	442,638	-0,053	0,083
-78,826	-0,020	-0,036	-0,018
-77,811	54,712	-0,059	-0,041
-76,797	-41,362	0,162	-0,060
-75,782	100,984	0,083	-0,069
-74,767	-200,000	0,010	0,125
-73,753	-200,000	0,004	-0,164
-72,738	647,821	-0,043	-0,080
-71,724	16,889	-0,060	0,034
-70,709	-154,382	-0,031	-0,001
-69,694	-200,000	-0,014	-0,068
-68,680	93,748	0,089	-0,073
-67,665	800,000	0,096	0,207
-66,651	-200,000	0,016	0,161
-65,636	-121,101	-0,051	0,006
-64,622	160,363	0,034	-0,034
-63,607	-53,319	0,034	0,011
-62,592	422,613	0,037	0,057
-61,578	389,916	-0,064	0,095
-60,563	-146,185	0,132	-0,008
-59,549	384,851	-0,026	-0,039
-58,534	37,126	-2,094	-1,325
-57,519	-200,000	-0,094	-0,669
-56,505	-200,000	-1,409	-5,160
-55,490	83,245	0,956	0,745
-54,476	800,000	5,495	12,153
-53,461	-200,000	18,444	306,207
-52,446	800,000	737,555	2274,015
-51,432	536,207	1650,924	2816,898
-50,417	108,280	1635,834	1397,175
-49,403	71,904	1286,536	957,187
-48,388	29,812	1027,614	625,312
-47,373	19,800	990,068	569,454
-46,359	17,404	977,720	554,480
-45,344	14,088	973,775	541,378
-44,330	14,464	972,132	541,671
-43,315	13,837	970,353	538,612
-42,300	13,766	969,337	537,796
-41,286	13,748	968,499	537,252
-40,271	13,708	967,591	536,596
-39,257	13,828	966,657	536,447
-38,242	13,734	965,975	535,743
-37,227	13,771	965,029	535,314
-36,213	13,783	964,004	534,765
-35,198	13,729	963,199	534,122
-34,184	13,770	962,511	533,851
-33,169	13,701	961,624	533,117
-32,154	13,796	960,525	532,794
-31,140	13,853	959,506	532,389
-30,125	13,793	958,850	531,813
-29,111	13,756	958,253	531,341
-28,096	13,792	957,525	531,030
-27,082	13,808	956,766	530,640
-26,067	13,771	956,021	530,087
-25,052	13,756	955,134	529,527
-24,038	13,786	954,548	529,277
-23,023	13,762	954,111	528,937
-22,009	13,754	953,351	528,469
-20,994	13,758	952,670	528,083
-19,979	13,777	952,220	527,875
-18,965	13,818	951,467	527,567
-17,950	13,814	950,835	527,182
-16,936	13,721	950,260	526,547
-15,921	13,747	949,447	526,158
-14,906	13,705	948,806	525,647
-13,892	13,685	948,242	525,251
-12,877	13,716	947,426	524,875
-11,863	13,636	947,102	524,421
-10,848	13,693	946,368	524,175
-9,833	13,749	945,898	524,072
-8,819	13,767	945,163	523,699
-7,804	13,690	944,643	523,147
-6,790	13,719	943,897	522,807
-5,775	13,719	943,480	522,552
-4,760	13,671	942,915	522,069
-3,746	13,630	942,298	521,575
-2,731	13,583	941,565	521,002
-1,717	13,562	940,785	520,482
-0,702	13,457	940,239	519,828
0,313	13,350	939,719	519,988
1,327	16,773	937,406	529,440
2,342	25,874	788,630	469,335
3,356	22,036	443,501	258,250
4,371	-7,489	296,328	142,973
5,386	-11,273	278,122	130,583
6,400	-12,477	272,234	126,687
7,415	-12,487	270,146	125,695
8,429	-12,905	268,696	124,625
9,444	-12,607	267,795	124,469
10,459	-12,681	267,150	124,091
11,473	-12,863	266,457	123,592
12,488	-12,947	265,939	123,264
13,502	-13,108	265,326	122,823
14,517	-12,995	264,880	122,707
15,531	-12,897	264,444	122,584
16,546	-12,793	264,264	122,584
17,561	-12,952	263,586	122,114
18,575	-12,878	263,457	122,110
19,590	-13,043	263,071	121,772
20,604	-12,883	262,776	121,769
21,619	-12,932	262,626	121,644
22,634	-12,939	262,083	121,376
23,648	-13,017	261,801	121,164
24,663	-12,928	261,470	121,080
25,677	-13,306	261,456	120,725
26,692	-13,135	261,041	120,676
27,707	-13,078	260,611	120,516
28,721	-12,947	260,439	120,543
29,736	-13,112	260,245	120,295
30,750	-12,998	259,841	120,199
31,765	-12,957	259,517	120,075
32,780	-13,089	259,456	119,919
33,794	-13,158	259,080	119,673
34,809	-13,159	258,998	119,624
35,823	-13,198	258,626	119,407
36,838	-13,069	258,384	119,399
37,853	-13,046	258,121	119,287
38,867	-13,112	258,006	119,165
39,882	-13,100	257,573	118,965
40,896	-13,150	257,605	118,925
41,911	-12,967	257,110	118,846
42,926	-13,240	256,955	118,525
43,940	-13,209	256,668	118,409
44,955	-13,194	256,401	118,289
45,969	-13,244	256,251	118,165
46,984	-13,488	256,055	117,851
47,999	-13,503	255,656	117,644
49,013	-13,535	255,500	117,534
50,028	-13,648	255,170	117,273
51,042	-13,817	255,013	117,044
52,057	-13,923	254,829	116,857
53,071	-13,964	254,662	116,734
54,086	-13,842	254,241	116,636
55,101	-13,615	254,279	116,841
56,115	-13,441	254,115	116,905
57,130	-13,036	253,931	117,160
58,144	-12,868	253,775	117,223
59,159	-12,702	253,508	117,232
60,174	-12,742	253,202	117,046
61,188	-12,857	253,136	116,906
62,203	-12,955	252,910	116,706
63,217	-13,004	252,766	116,588
64,232	-12,753	252,439	116,642
65,247	-13,030	252,273	116,317
66,261	-12,947	252,059	116,279
67,276	-13,046	251,672	116,006
68,290	-13,319	251,455	115,662
69,305	-13,382	251,236	115,498
70,320	-13,320	251,007	115,434
71,334	-13,263	251,090	115,511
72,349	-12,879	250,593	115,599
73,363	-12,832	250,532	115,600
74,378	-12,985	250,372	115,386
75,393	-13,007	250,135	115,248
76,407	-12,983	249,796	115,102
77,422	-12,825	249,577	115,125
78,436	-12,931	249,399	114,943
79,451	-12,899	249,200	114,867
80,466	-13,060	249,101	114,676
81,480	-13,249	248,741	114,340
82,495	-13,152	248,524	114,312
83,509	-13,173	248,519	114,281
84,524	-13,059	248,234	114,236
85,539	-13,268	248,191	114,030
86,553	-13,331	247,911	113,839
87,568	-13,276	247,585	113,725
88,582	-13,131	247,579	113,834
89,597	-13,311	247,269	113,530
90,611	-13,104	247,188	113,656
91,626	-13,043	246,947	113,587
92,641	-13,122	246,783	113,435
93,655	-13,205	246,725	113,329
94,670	-13,112	246,289	113,196
95,684	-13,216	246,247	113,080
96,699	-13,113	245,946	113,017
97,714	-13,382	245,913	112,768
98,728	-13,312	245,717	112,726
99,743	-13,425	245,266	112,415
100,757	-13,502	245,158	112,291
101,772	-13,276	244,926	112,363
102,787	-13,291	244,845	112,304
103,801	-13,308	244,513	112,127
104,816	-13,021	244,404	112,305
105,830	-13,153	244,284	112,131
106,845	-13,016	244,195	112,193
107,860	-13,048	244,040	112,085
108,874	-13,099	243,599	111,831
109,889	-13,098	243,502	111,777
110,903	-13,217	243,342	111,596
111,918	-13,160	243,053	111,500
112,933	-13,244	243,003	111,398
113,947	-13,143	242,932	111,438
114,962	-12,901	242,579	111,466
115,976	-12,892	242,514	111,433
116,991	-13,212	242,305	111,065
118,006	-13,040	242,104	111,104
119,020	-13,053	242,002	111,036
120,035	-13,162	241,843	110,864
121,049	-12,972	241,556	110,878
122,064	-13,038	241,490	110,784
123,079	-13,099	241,254	110,615
124,093	-13,093	240,979	110,485
125,108	-13,318	240,800	110,209
126,122	-13,462	240,533	109,960
127,137	-13,436	240,481	109,948
128,151	-13,502	240,233	109,771
129,166	-13,325	240,092	109,841
130,181	-13,253	239,840	109,774
131,195	-13,498	239,528	109,423
132,210	-13,266	239,646	109,655
133,224	-13,231	239,476	109,596
134,239	-13,331	239,256	109,404
135,254	-13,160	239,051	109,439
136,268	-13,360	238,722	109,118
137,283	-13,353	238,391	108,962
138,297	-13,604	238,302	108,709
139,312	-13,465	238,034	108,689
140,327	-13,325	238,182	108,860
141,341	-12,837	238,000	109,159
142,356	-12,898	237,924	109,066
143,370	-12,992	237,876	108,958
144,385	-12,714	237,584	109,038
145,400	-12,712	237,269	108,885
146,414	-12,731	237,120	108,792
147,429	-12,878	236,783	108,511
148,443	-12,906	236,781	108,477
149,458	-12,849	236,481	108,375
150,473	-12,980	236,538	108,288
151,487	-12,892	236,255	108,219
152,502	-12,829	235,978	108,132
153,516	-12,688	235,865	108,183
154,531	-13,033	235,781	107,861
155,546	-12,987	235,544	107,779
156,560	-12,781	235,229	107,788
157,575	-12,705	235,007	107,737
158,589	-12,712	234,877	107,663
159,604	-12,713	234,781	107,609
160,619	-12,552	234,683	107,681
161,633	-12,718	234,570	107,489
162,648	-12,700	234,419	107,424
163,662	-12,695	234,261	107,346
164,677	-12,913	233,992	107,041
165,692	-13,040	234,057	106,961
166,706	-12,772	233,893	107,088
167,721	-12,763	233,593	106,948
168,735	-12,519	233,542	107,107
169,750	-12,698	233,452	106,916
170,764	-12,763	233,199	106,739
171,779	-12,672	233,017	106,718
172,794	-12,581	232,956	106,751
173,808	-12,829	232,599	106,384
174,823	-13,370	232,347	105,836
175,837	-13,546	232,211	105,627
176,852	-13,052	232,238	106,016
177,867	-12,809	232,102	106,135
178,881	-12,835	231,982	106,050
179,896	-12,650	231,674	106,044
180,910	-12,679	231,696	106,022
181,925	-12,713	231,316	105,812
182,940	-12,809	231,324	105,732
183,954	-12,425	231,086	105,913
184,969	-12,604	230,955	105,703
185,983	-12,563	230,836	105,671
186,998	-12,468	230,701	105,674
188,013	-12,633	230,426	105,411
189,027	-12,484	230,242	105,433
190,042	-12,534	230,108	105,323
191,056	-12,554	230,075	105,283
192,071	-12,517	229,947	105,244
193,086	-12,593	229,673	105,050
194,100	-12,783	229,714	104,913
195,115	-12,780	229,105	104,628
196,129	-13,066	229,125	104,407
197,144	-7,504	231,191	109,659
198,159	-1,523	232,831	115,092
199,173	1,891	233,724	118,188
200,188	2,509	233,706	118,650
201,202	2,376	233,509	118,437
202,217	2,186	233,468	118,257
203,232	2,432	233,392	118,400
204,246	2,324	233,099	118,157
205,261	2,826	233,015	118,493
206,275	2,717	232,820	118,299
207,290	2,827	232,807	118,367
208,304	2,801	232,694	118,279
209,319	2,723	232,477	118,097
210,334	2,752	232,268	118,003
211,348	2,302	232,049	117,534
212,363	2,122	231,695	117,205
213,377	1,935	231,470	116,937
214,392	2,071	231,389	116,990
215,407	2,049	231,424	116,980
216,421	2,108	231,205	116,904
217,436	1,971	231,022	116,696
218,450	1,880	230,766	116,486
219,465	1,977	230,595	116,464
220,480	1,695	230,553	116,216
221,494	1,864	230,255	116,185
222,509	2,074	230,288	116,353
223,523	1,957	230,053	116,134
224,538	1,893	229,866	115,980
225,553	1,882	229,766	115,911
226,567	2,151	229,414	115,928
227,582	2,244	229,550	116,058
228,596	2,536	229,450	116,220
229,611	2,156	229,376	115,882
230,626	1,895	228,917	115,441
231,640	1,758	228,801	115,268
232,655	2,248	228,864	115,663
233,669	2,488	228,684	115,744
234,684	2,517	228,706	115,767
235,699	2,384	228,446	115,523
236,713	2,477	228,141	115,430
237,728	2,169	227,973	115,101
238,742	1,848	227,784	114,752
239,757	2,061	227,754	114,888
240,772	2,258	227,360	114,828
241,786	1,994	227,318	114,597
242,801	2,199	227,307	114,736
243,815	2,488	227,360	114,971
244,830	2,518	227,032	114,817
245,844	2,160	226,711	114,375
246,859	2,106	226,565	114,251
247,874	2,222	226,567	114,329
248,888	2,380	226,424	114,365
249,903	2,243	226,203	114,140
250,917	2,045	226,157	113,959
251,932	2,060	225,951	113,856
252,947	1,787	225,773	113,551
253,961	1,788	225,530	113,420
254,976	1,943	225,563	113,543
255,990	2,187	225,533	113,700
257,005	2,528	225,148	113,750
258,020	2,001	225,143	113,343
259,034	2,168	225,069	113,421
260,049	2,139	224,924	113,316
261,063	2,382	224,565	113,307
262,078	2,336	224,644	113,301
263,093	2,579	224,438	113,369
264,107	2,116	224,389	112,989
265,122	2,367	224,115	113,028
266,136	2,560	224,123	113,165
267,151	2,578	223,832	113,022
268,166	2,082	223,582	112,518
269,180	1,831	223,336	112,198
270,195	1,863	223,363	112,225
271,209	1,866	223,112	112,091
272,224	1,944	223,153	112,160
273,239	2,153	222,772	112,112
274,253	2,177	222,702	112,085
275,268	1,879	222,425	111,715
276,282	1,644	222,333	111,486
277,297	1,764	222,170	111,483
278,312	1,995	222,115	111,616
279,326	2,052	222,110	111,645
280,341	2,076	221,966	111,581
281,355	2,211	221,812	111,592
282,370	2,074	221,822	111,486
283,384	2,244	221,222	111,300
284,399	1,657	221,235	110,866
285,414	1,742	221,143	110,872
286,428	1,940	221,135	111,003
287,443	2,279	220,890	111,118
288,457	2,197	220,847	111,027
289,472	2,070	220,404	110,702
290,487	1,623	220,303	110,315
291,501	1,535	220,070	110,125
292,516	1,444	220,090	110,058
293,530	1,629	219,954	110,115
294,545	1,745	219,888	110,157
295,560	1,880	219,793	110,198
296,574	2,045	219,615	110,219
297,589	1,929	219,446	110,040
298,603	2,043	219,420	110,099
299,618	2,105	219,189	110,019
300,633	2,147	219,164	110,026
301,647	2,215	218,999	109,983
302,662	2,206	218,892	109,914
303,676	2,309	218,836	109,950
304,691	2,503	218,546	109,934
305,706	2,359	218,329	109,712
306,720	2,209	218,306	109,582
307,735	2,223	218,039	109,448
308,749	2,081	217,941	109,287
309,764	2,233	217,891	109,361
310,779	2,227	217,784	109,293
311,793	2,335	217,530	109,234
312,808	2,056	217,485	109,002
313,822	2,244	217,319	109,043
314,837	2,189	217,024	108,847
315,852	2,115	216,926	108,735
316,866	2,227	216,893	108,788
317,881	2,287	216,776	108,763
318,895	2,160	216,595	108,572
319,910	2,169	216,210	108,375
320,925	1,538	216,242	107,931
321,939	1,433	215,990	107,721
322,954	1,668	216,064	107,916
323,968	2,042	215,972	108,127
324,983	2,163	215,804	108,120
325,997	2,506	215,682	108,292
327,012	2,553	215,663	108,307
328,027	2,299	215,427	107,998
329,041	2,674	215,289	108,186
330,056	2,368	215,217	107,923
331,070	2,249	214,959	107,700
332,085	1,985	214,661	107,354
333,100	1,984	214,693	107,359
334,114	2,242	214,494	107,433
335,129	2,287	214,368	107,392
336,143	2,100	214,195	107,163
337,158	2,147	214,105	107,142
338,173	1,959	213,901	106,898
339,187	1,774	213,705	106,660
340,202	1,674	213,439	106,448
341,216	1,763	213,576	106,569
342,231	2,479	213,442	106,996
343,246	2,285	213,300	106,779
344,260	2,355	213,022	106,680
345,275	2,397	213,260	106,819
346,289	2,575	212,926	106,767
347,304	2,400	212,681	106,512
348,319	2,354	212,522	106,390
349,333	2,148	212,531	106,241
350,348	2,140	212,349	106,135
351,362	2,385	212,219	106,232
352,377	2,278	212,071	106,074
353,392	2,282	211,989	106,026
354,406	2,132	211,898	105,867
355,421	196,436	1314,618	1390,782
356,435	157,094	1448,902	1390,734
