DTS Sentinel unit serial number:	SN410029Multiplexer serial number:	ORYXHardware model number:	OX2-SRSoftware version number:	ORYX F/W v4,00 Oryx Data Collector v3.7.2.0data status	okinstallation	B6 Nyhavnadifferential loss correction	single-endedforward channel	channel 2reverse channel	N/Adate	2023/12/10time	16:05:08forward acquisition time	300,00reverse acquisition time	0,00gamma	499,1914k internal	0,3123k external	0,3123temperature offset calibration	1,0000default loss term (dB/km)	0,3820temperature slope calibration	1,0000multiplexer offset coefficient	1,0000multiplexer slope coefficient	1,0000fibre end	0,00T internal ref (°C)	22,38T ext. ref 1 (°C)	6,05T ext. ref 2 (°C)	6,05length (m)	temperature (°C)	Stokes	anti-Stokes-744,400	-200,000	0,008	0,040
-743,385	-124,850	-0,200	0,023
-742,371	51,949	0,101	0,071
-741,356	195,476	-0,248	0,282
-740,342	49,643	-0,017	0,012
-739,327	21,153	-0,247	0,149
-738,312	111,745	0,115	0,104
-737,298	-37,982	-0,240	0,094
-736,283	-200,000	0,005	0,018
-735,269	-53,408	-0,057	0,019
-734,254	-200,000	0,012	-0,043
-733,239	-54,834	-0,383	-0,128
-732,225	-50,716	0,085	-0,030
-731,210	-66,135	-0,048	0,014
-730,196	-60,837	0,051	-0,016
-729,181	-16,605	-0,127	0,060
-728,167	-144,994	0,093	-0,006
-727,152	-137,945	-0,060	0,005
-726,137	-146,846	-0,291	0,018
-725,123	260,152	-0,133	-0,171
-724,108	566,753	-0,095	-0,173
-723,094	-200,000	0,033	-0,176
-722,079	-200,000	0,002	0,042
-721,064	-200,000	0,018	-0,081
-720,050	-200,000	0,004	0,078
-719,035	-200,000	-0,012	0,079
-718,021	48,224	-0,131	-0,091
-717,006	266,648	-0,111	-0,145
-715,991	96,345	-0,167	-0,143
-714,977	-64,607	-0,066	0,020
-713,962	-42,217	0,078	0,030
-712,948	-200,000	-0,007	0,033
-711,933	-90,599	0,063	-0,013
-710,918	-200,000	-0,024	-0,122
-709,904	11,382	-0,078	-0,044
-708,889	-200,000	0,002	-0,028
-707,875	57,573	-0,113	-0,082
-706,860	434,562	0,019	0,031
-705,845	87,743	0,033	0,027
-704,831	46,365	0,012	0,008
-703,816	-112,155	-0,104	-0,015
-702,802	-12,707	0,148	-0,071
-701,787	439,275	-0,037	-0,061
-700,772	-3,681	0,076	0,039
-699,758	455,972	-0,034	-0,056
-698,743	-21,415	-0,080	-0,036
-697,729	161,648	0,023	0,024
-696,714	60,224	-0,128	0,094
-695,699	110,435	-0,121	0,108
-694,685	-200,000	-0,020	-0,175
-693,670	111,487	-0,062	-0,056
-692,656	605,630	-0,036	-0,068
-691,641	493,546	-0,037	-0,064
-690,627	321,863	-0,111	0,157
-689,612	37,350	-0,069	0,046
-688,597	-0,242	-0,091	-0,048
-687,583	79,839	-0,137	0,109
-686,568	-51,237	0,081	-0,028
-685,554	609,219	-0,055	-0,103
-684,539	-132,374	-0,079	-0,008
-683,524	800,000	-0,008	-0,023
-682,510	800,000	-0,060	0,163
-681,495	93,439	-0,152	0,128
-680,481	800,000	-0,040	0,116
-679,466	-15,311	-0,082	-0,039
-678,451	-24,068	-0,102	-0,045
-677,437	114,788	0,082	-0,075
-676,422	302,478	-0,065	0,090
-675,408	-46,418	-0,050	0,018
-674,393	-2,931	0,076	-0,039
-673,378	506,577	-0,088	0,152
-672,364	18,838	-0,101	0,060
-671,349	161,504	-0,098	-0,101
-670,335	7,240	0,061	-0,034
-669,320	256,541	0,077	-0,099
-668,305	74,138	0,019	0,015
-667,291	187,475	-0,071	0,078
-666,276	337,788	-0,025	-0,036
-665,262	800,000	0,013	-0,033
-664,247	156,218	0,029	-0,030
-663,232	800,000	-0,021	-0,048
-662,218	-28,466	0,066	0,028
-661,203	335,513	-0,100	0,144
-660,189	800,000	0,021	0,057
-659,174	18,275	-0,042	0,025
-658,159	-200,000	0,022	-0,142
-657,145	-118,710	-0,084	0,011
-656,130	-46,509	0,120	-0,043
-655,116	146,526	-0,058	0,058
-654,101	-82,733	-0,064	-0,015
-653,086	800,000	0,033	0,068
-652,072	6,221	-0,127	0,070
-651,057	-22,997	-0,163	-0,073
-650,043	84,216	-0,077	0,063
-649,028	0,393	-0,014	0,007
-648,014	-139,679	0,023	-0,002
-646,999	663,409	-0,033	-0,063
-645,984	800,000	-0,028	-0,071
-644,970	-200,000	-0,045	-0,169
-643,955	-200,000	0,011	-0,120
-642,941	784,569	-0,091	-0,186
-641,926	483,616	-0,051	-0,086
-640,911	149,904	0,026	-0,026
-639,897	-82,360	-0,024	0,006
-638,882	147,382	-0,073	0,073
-637,868	-99,095	-0,050	0,009
-636,853	-42,011	-0,257	0,097
-635,838	52,837	-0,060	-0,042
-634,824	11,369	-0,009	-0,005
-633,809	105,812	0,011	-0,009
-632,795	-200,000	-0,001	0,123
-631,780	-99,694	0,052	0,010
-630,765	363,005	0,069	0,103
-629,751	413,159	0,058	-0,092
-628,736	10,893	-0,108	-0,061
-627,722	278,259	0,075	-0,100
-626,707	293,739	-0,037	-0,051
-625,692	315,740	0,040	0,056
-624,678	-125,718	-0,051	0,006
-623,663	-133,108	0,097	0,009
-622,649	669,054	-0,065	0,125
-621,634	800,000	-0,062	-0,184
-620,619	298,780	-0,114	-0,156
-619,605	-142,665	0,094	0,007
-618,590	-200,000	0,007	-0,135
-617,576	800,000	-0,015	0,032
-616,561	40,891	-0,133	-0,089
-615,546	230,131	-0,123	-0,150
-614,532	-200,000	0,017	0,081
-613,517	-132,478	-0,005	-0,001
-612,503	115,242	0,066	0,060
-611,488	-200,000	-0,021	0,105
-610,474	-42,477	-0,159	0,060
-609,459	489,335	-0,037	0,063
-608,444	-33,092	0,091	-0,037
-607,430	-161,646	-0,108	0,004
-606,415	143,407	-0,062	-0,061
-605,401	-200,000	0,018	-0,078
-604,386	78,172	0,073	0,058
-603,371	44,954	-0,089	-0,060
-602,357	119,749	-0,068	-0,062
-601,342	596,833	-0,033	0,062
-600,328	-162,544	-0,177	-0,006
-599,313	800,000	-0,016	0,046
-598,298	-200,000	0,005	-0,026
-597,284	-200,000	-0,052	0,180
-596,269	-171,763	0,096	0,002
-595,255	-9,609	-0,083	-0,041
-594,240	576,206	-0,087	-0,158
-593,225	32,690	0,134	-0,086
-592,211	378,923	0,048	-0,073
-591,196	-11,826	-0,114	-0,055
-590,182	21,301	-0,071	0,042
-589,167	-200,000	0,009	-0,046
-588,152	96,637	0,039	-0,033
-587,138	139,634	-0,050	0,049
-586,123	634,895	0,032	-0,061
-585,109	9,978	-0,136	0,076
-584,094	800,000	-0,033	-0,083
-583,079	-200,000	0,007	0,051
-582,065	-200,000	0,024	0,097
-581,050	63,682	0,072	-0,053
-580,036	88,600	0,031	-0,026
-579,021	192,123	-0,082	0,092
-578,006	658,818	0,012	-0,022
-576,992	-139,833	-0,104	-0,008
-575,977	-200,000	0,001	0,032
-574,963	-200,000	-0,010	-0,116
-573,948	-68,071	0,143	-0,041
-572,934	-39,162	0,090	-0,035
-571,919	-125,681	-0,065	0,007
-570,904	434,230	-0,026	0,043
-569,890	504,651	-0,016	0,027
-568,875	42,583	0,127	0,085
-567,861	-41,312	-0,071	-0,027
-566,846	-18,690	0,023	0,011
-565,831	-200,000	-0,002	-0,010
-564,817	-135,082	0,056	0,005
-563,802	-200,000	-0,005	0,072
-562,788	-200,000	-0,010	-0,115
-561,773	-117,418	-0,031	-0,004
-560,758	456,571	0,070	0,115
-559,744	-200,000	0,011	0,038
-558,729	-24,659	0,141	-0,062
-557,715	800,000	0,052	-0,109
-556,700	-138,517	-0,139	0,011
-555,685	-2,557	0,033	0,017
-554,671	-145,873	-0,172	0,011
-553,656	68,412	-0,038	-0,029
-552,642	288,577	0,046	-0,062
-551,627	800,000	-0,007	0,021
-550,612	800,000	0,018	-0,054
-549,598	4,445	0,120	0,065
-548,583	-17,094	-0,174	0,081
-547,569	54,759	-0,065	-0,047
-546,554	169,921	0,030	0,032
-545,539	270,072	-0,071	0,092
-544,525	-28,888	-0,096	0,041
-543,510	258,196	-0,080	-0,103
-542,496	-54,387	0,154	-0,051
-541,481	177,972	0,060	-0,065
-540,466	-18,184	-0,072	-0,033
-539,452	248,914	0,042	0,053
-538,437	0,353	0,040	0,021
-537,423	-15,120	0,029	-0,014
-536,408	-80,590	-0,016	-0,004
-535,393	69,188	-0,033	0,025
-534,379	485,600	0,043	-0,073
-533,364	352,248	0,065	-0,095
-532,350	-200,000	-0,027	0,140
-531,335	35,809	0,090	0,059
-530,321	98,683	0,019	-0,016
-529,306	800,000	0,038	-0,090
-528,291	-15,461	-0,038	0,018
-527,277	800,000	0,013	-0,030
-526,262	-85,118	0,051	0,012
-525,248	196,260	0,025	-0,028
-524,233	-200,000	0,012	0,145
-523,218	513,900	0,070	0,121
-522,204	-125,643	0,083	-0,009
-521,189	207,506	-0,045	-0,052
-520,175	-162,626	0,084	-0,003
-519,160	-89,592	-0,027	-0,006
-518,145	800,000	-0,023	0,063
-517,131	-200,000	0,020	-0,212
-516,116	304,463	-0,014	0,019
-515,102	-35,940	-0,100	-0,040
-514,087	-104,730	-0,086	-0,014
-513,072	-106,942	-0,066	-0,011
-512,058	-117,102	-0,111	-0,015
-511,043	285,397	0,060	0,080
-510,029	-200,000	0,018	-0,064
-509,014	98,892	-0,124	0,105
-507,999	63,403	0,066	0,049
-506,985	-93,589	0,041	-0,008
-505,970	597,554	-0,060	0,109
-504,956	149,135	-0,136	-0,136
-503,941	212,674	0,156	-0,182
-502,926	800,000	-0,020	-0,041
-501,912	-200,000	0,041	0,202
-500,897	586,085	0,048	0,087
-499,883	446,585	-0,050	-0,082
-498,868	144,932	0,035	0,035
-497,853	-39,202	0,149	-0,058
-496,839	153,876	0,074	-0,075
-495,824	-200,000	0,017	0,080
-494,810	159,180	0,087	0,089
-493,795	-169,765	0,024	-0,001
-492,781	-200,000	0,009	0,056
-491,766	65,604	-0,021	0,016
-490,751	-200,000	-0,008	0,084
-489,737	190,971	0,106	0,118
-488,722	279,457	0,110	0,146
-487,708	91,481	-0,096	0,080
-486,693	-115,702	0,123	0,017
-485,678	800,000	-0,009	0,029
-484,664	444,563	-0,030	0,049
-483,649	119,925	0,080	-0,073
-482,635	177,822	0,018	-0,019
-481,620	-97,180	0,078	0,015
-480,605	-200,000	-0,005	0,071
-479,591	580,179	0,089	0,162
-478,576	-127,998	-0,121	-0,013
-477,562	-200,000	-0,047	-0,158
-476,547	74,437	-0,062	-0,048
-475,532	-133,745	0,150	0,014
-474,518	156,641	0,060	-0,061
-473,503	800,000	-0,037	-0,089
-472,489	428,652	0,117	-0,187
-471,474	-120,956	-0,122	0,015
-470,459	80,370	-0,040	0,032
-469,445	-178,528	-0,070	-0,001
-468,430	-26,525	-0,115	-0,050
-467,416	8,510	0,035	-0,019
-466,401	648,604	0,043	-0,082
-465,386	-200,000	0,042	-0,145
-464,372	-97,953	0,076	-0,014
-463,357	800,000	-0,089	-0,196
-462,343	-200,000	-0,021	0,096
-461,328	800,000	-0,039	0,107
-460,313	123,050	0,033	-0,030
-459,299	-200,000	0,027	-0,100
-458,284	-103,906	-0,059	-0,010
-457,270	38,289	0,109	-0,071
-456,255	4,543	-0,146	0,079
-455,241	-200,000	0,003	-0,084
-454,226	96,446	0,080	-0,067
-453,211	52,406	-0,076	-0,054
-452,197	715,406	0,054	0,107
-451,182	39,757	0,032	0,021
-450,168	-89,971	0,081	0,017
-449,153	-15,790	0,074	-0,035
-448,138	-200,000	0,027	-0,176
-447,124	298,146	-0,053	-0,072
-446,109	146,830	-0,025	-0,025
-445,095	-35,182	0,093	-0,037
-444,080	43,171	-0,088	0,059
-443,065	-200,000	0,041	-0,148
-442,051	320,498	-0,042	0,058
-441,036	-96,260	0,084	-0,016
-440,022	800,000	0,026	-0,071
-439,007	174,247	-0,055	-0,059
-437,992	103,082	-0,031	-0,027
-436,978	65,527	-0,030	-0,023
-435,963	96,992	-0,034	-0,029
-434,949	55,032	-0,095	0,068
-433,934	84,967	0,121	0,097
-432,919	-200,000	-0,033	-0,144
-431,905	800,000	-0,032	0,071
-430,890	800,000	0,031	-0,090
-429,876	9,664	-0,028	-0,015
-428,861	139,020	-0,079	0,076
-427,846	337,298	-0,075	0,108
-426,832	-200,000	0,010	-0,116
-425,817	-200,000	0,031	-0,106
-424,803	214,345	0,022	0,025
-423,788	800,000	0,034	-0,071
-422,773	-151,583	-0,132	0,007
-421,759	800,000	-0,022	-0,049
-420,744	-200,000	-0,027	-0,096
-419,730	56,228	0,103	0,074
-418,715	-58,092	-0,124	0,040
-417,701	165,783	0,048	-0,050
-416,686	-200,000	0,018	0,147
-415,671	-200,000	-0,016	-0,072
-414,657	-200,000	0,013	-0,059
-413,642	-102,937	0,091	-0,016
-412,628	800,000	0,005	0,013
-411,613	-200,000	0,015	-0,114
-410,598	-200,000	0,001	-0,057
-409,584	-200,000	0,001	0,093
-408,569	-118,958	-0,093	-0,012
-407,555	26,739	-0,031	-0,019
-406,540	239,720	0,027	0,034
-405,525	800,000	0,029	-0,060
-404,511	-19,322	-0,074	0,034
-403,496	-200,000	-0,013	-0,154
-402,482	90,869	0,021	-0,017
-401,467	-60,485	-0,051	-0,016
-400,452	81,464	0,073	0,058
-399,438	-200,000	0,004	0,060
-398,423	800,000	-0,021	0,043
-397,409	89,439	0,150	0,123
-396,394	442,612	-0,091	-0,148
-395,379	-33,741	0,067	-0,027
-394,365	-200,000	-0,034	0,126
-393,350	7,159	0,107	0,058
-392,336	800,000	-0,041	0,131
-391,321	226,327	-0,119	-0,142
-390,306	48,430	-0,058	0,040
-389,292	-200,000	0,006	-0,215
-388,277	-12,066	-0,095	-0,046
-387,263	128,037	-0,073	0,068
-386,248	117,442	0,028	-0,026
-385,233	408,621	0,068	0,107
-384,219	-37,555	0,033	0,013
-383,204	140,140	-0,050	-0,049
-382,190	800,000	-0,070	-0,178
-381,175	100,719	-0,058	-0,050
-380,160	-200,000	-0,025	0,117
-379,146	-200,000	0,031	0,100
-378,131	70,382	0,085	0,064
-377,117	-200,000	0,021	0,091
-376,102	-200,000	-0,001	-0,097
-375,088	-36,043	-0,155	-0,061
-374,073	308,623	0,118	0,162
-373,058	-77,354	-0,067	0,017
-372,044	388,057	-0,032	0,049
-371,029	-57,016	-0,068	-0,022
-370,015	-200,000	0,007	0,067
-369,000	-187,510	-0,126	0,001
-367,985	-200,000	0,002	-0,017
-366,971	224,785	0,035	0,042
-365,956	800,000	-0,015	0,040
-364,942	50,235	0,153	0,106
-363,927	76,209	-0,032	0,025
-362,912	-99,487	0,033	0,006
-361,898	57,560	-0,054	0,039
-360,883	393,411	0,070	-0,108
-359,869	555,474	-0,033	-0,059
-358,854	-111,534	-0,034	0,005
-357,839	800,000	-0,063	-0,154
-356,825	800,000	0,047	0,122
-355,810	412,251	0,065	0,102
-354,796	-15,060	-0,159	0,075
-353,781	108,663	-0,072	0,063
-352,766	399,319	0,080	0,124
-351,752	222,430	0,018	0,021
-350,737	-200,000	0,032	0,154
-349,723	71,033	0,128	0,097
-348,708	131,335	-0,042	0,039
-347,693	-171,380	-0,044	-0,001
-346,679	800,000	-0,022	0,060
-345,664	347,082	-0,039	0,057
-344,650	-73,089	0,061	0,016
-343,635	800,000	0,023	0,058
-342,620	47,062	0,090	-0,061
-341,606	-200,000	-0,001	0,009
-340,591	-58,363	0,037	0,012
-339,577	-115,269	0,067	-0,009
-338,562	212,400	-0,042	-0,049
-337,548	-200,000	0,023	-0,076
-336,533	461,585	-0,048	0,078
-335,518	-15,296	-0,061	0,028
-334,504	-200,000	0,010	-0,081
-333,489	67,824	-0,103	-0,077
-332,475	-110,719	-0,022	0,003
-331,460	345,133	-0,033	-0,048
-330,445	495,460	0,019	-0,032
-329,431	-164,527	-0,041	0,001
-328,416	-200,000	0,032	0,104
-327,402	-200,000	-0,007	0,076
-326,387	120,119	0,090	-0,082
-325,372	-200,000	0,006	0,054
-324,358	-200,000	-0,026	0,110
-323,343	-200,000	0,004	0,066
-322,329	-200,000	-0,004	-0,096
-321,314	-200,000	-0,021	0,172
-320,299	-200,000	-0,009	0,051
-319,285	-6,661	0,027	-0,014
-318,270	-82,415	0,064	-0,015
-317,256	8,254	-0,051	0,028
-316,241	800,000	0,041	-0,083
-315,226	-200,000	0,038	-0,128
-314,212	56,091	0,092	0,065
-313,197	179,880	0,171	0,184
-312,183	-200,000	0,002	-0,057
-311,168	-200,000	-0,028	-0,186
-310,153	-106,876	-0,109	-0,017
-309,139	800,000	0,056	-0,157
-308,124	-71,447	-0,015	0,004
-307,110	-66,935	0,180	0,052
-306,095	-200,000	0,046	0,208
-305,080	800,000	0,047	0,119
-304,066	-40,731	0,069	-0,026
-303,051	-139,059	-0,080	0,006
-302,037	-200,000	-0,026	-0,097
-301,022	469,686	0,009	-0,015
-300,008	91,341	-0,069	0,057
-298,993	141,402	0,042	0,041
-297,978	-81,467	0,099	-0,024
-296,964	-59,127	-0,125	0,039
-295,949	596,222	-0,051	0,093
-294,935	-200,000	-0,001	-0,018
-293,920	63,510	-0,119	0,087
-292,905	-200,000	0,032	0,186
-291,891	593,838	-0,072	0,131
-290,876	-200,000	-0,023	-0,206
-289,862	800,000	0,016	0,047
-288,847	-44,001	-0,008	0,003
-287,832	-165,422	0,090	0,003
-286,818	800,000	-0,044	0,103
-285,803	800,000	-0,026	-0,071
-284,789	-73,471	0,132	0,035
-283,774	535,900	0,044	0,077
-282,759	366,804	0,039	-0,057
-281,745	22,744	0,085	-0,051
-280,730	483,197	-0,070	-0,118
-279,716	-200,000	0,034	-0,159
-278,701	26,724	0,059	0,036
-277,686	-200,000	-0,021	0,131
-276,672	-68,747	-0,075	0,021
-275,657	267,081	-0,033	-0,042
-274,643	20,583	-0,024	0,014
-273,628	800,000	0,013	0,027
-272,613	384,876	-0,035	-0,054
-271,599	800,000	0,023	0,067
-270,584	-200,000	0,028	0,120
-269,570	-200,000	0,017	0,132
-268,555	-78,358	0,117	-0,029
-267,540	48,485	-0,063	-0,043
-266,526	81,887	-0,055	0,044
-265,511	-200,000	0,015	-0,086
-264,497	-200,000	0,107	0,000
-263,482	176,758	-0,091	-0,097
-262,467	-160,922	0,068	-0,003
-261,453	81,728	0,044	0,035
-260,438	-67,245	0,019	0,005
-259,424	-80,590	-0,034	-0,008
-258,409	-200,000	-0,000	-0,024
-257,395	-119,189	0,066	0,008
-256,380	62,400	0,102	0,074
-255,365	-104,966	0,010	0,002
-254,351	-78,765	0,067	-0,017
-253,336	190,976	0,029	-0,031
-252,322	-200,000	0,017	-0,059
-251,307	261,701	-0,090	-0,114
-250,292	259,223	-0,041	-0,052
-249,278	-116,126	0,126	0,017
-248,263	-176,301	-0,054	0,001
-247,249	-200,000	-0,013	0,053
-246,234	70,915	-0,062	-0,047
-245,219	177,217	0,076	0,081
-244,205	133,663	0,054	-0,051
-243,190	800,000	-0,028	-0,089
-242,176	204,996	-0,047	0,053
-241,161	-99,916	-0,155	0,028
-240,146	763,628	-0,032	-0,063
-239,132	-200,000	-0,021	-0,088
-238,117	456,621	-0,037	0,060
-237,103	-172,398	-0,010	0,000
-236,088	-101,013	0,024	0,004
-235,073	-4,578	0,057	0,029
-234,059	-200,000	0,012	0,114
-233,044	-200,000	0,002	0,028
-232,030	800,000	0,051	0,108
-231,015	-172,463	-0,138	-0,003
-230,000	68,313	0,067	-0,050
-228,986	140,332	0,040	-0,039
-227,971	-50,499	-0,027	-0,009
-226,957	330,573	0,055	0,077
-225,942	-161,547	-0,064	-0,002
-224,927	-200,000	0,000	-0,091
-223,913	301,447	-0,054	-0,073
-222,898	800,000	0,061	0,135
-221,884	146,769	-0,040	-0,039
-220,869	267,569	-0,058	-0,074
-219,855	-143,405	-0,037	0,003
-218,840	-200,000	-0,001	0,102
-217,825	42,538	0,139	0,092
-216,811	291,207	0,070	-0,094
-215,796	-38,662	-0,030	-0,012
-214,782	195,632	-0,038	-0,042
-213,767	274,890	-0,041	-0,053
-212,752	221,937	0,021	0,025
-211,738	-200,000	0,009	0,072
-210,723	-28,541	0,082	0,034
-209,709	-200,000	-0,001	0,031
-208,694	139,969	0,076	-0,073
-207,679	800,000	-0,045	-0,121
-206,665	199,718	0,038	-0,043
-205,650	-200,000	0,003	0,073
-204,636	-200,000	0,043	0,168
-203,621	-200,000	0,011	-0,090
-202,606	205,550	0,050	-0,057
-201,592	800,000	-0,020	-0,051
-200,577	326,333	0,060	-0,084
-199,563	182,188	0,095	0,102
-198,548	-2,491	0,038	-0,019
-197,533	579,361	0,094	0,169
-196,519	800,000	0,051	0,164
-195,504	487,261	-0,073	-0,123
-194,490	-55,948	0,105	-0,034
-193,475	800,000	-0,007	0,021
-192,460	421,246	-0,042	0,066
-191,446	-200,000	-0,000	0,064
-190,431	57,450	0,079	0,056
-189,417	-200,000	0,013	0,143
-188,402	774,142	0,022	0,045
-187,387	-92,140	0,039	-0,008
-186,373	407,249	-0,026	0,040
-185,358	800,000	0,048	-0,118
-184,344	-200,000	-0,010	-0,155
-183,329	-200,000	-0,021	0,144
-182,315	148,979	-0,073	0,072
-181,300	0,695	-0,054	0,028
-180,285	800,000	-0,009	0,025
-179,271	-25,410	0,103	-0,044
-178,256	-200,000	-0,003	-0,015
-177,242	152,597	-0,032	0,031
-176,227	-121,799	0,072	0,009
-175,212	800,000	-0,017	0,043
-174,198	-99,009	-0,091	0,017
-173,183	264,797	0,004	0,005
-172,169	69,112	0,057	0,042
-171,154	-200,000	0,010	-0,130
-170,139	191,708	0,038	0,042
-169,125	800,000	-0,007	-0,019
-168,110	-200,000	0,011	0,063
-167,096	-200,000	0,032	0,139
-166,081	171,519	-0,062	0,065
-165,066	77,360	0,072	0,056
-164,052	-200,000	0,002	-0,115
-163,037	-144,177	0,072	-0,005
-162,023	-109,478	0,061	0,009
-161,008	-35,879	-0,152	0,060
-159,993	-200,000	0,006	0,142
-158,979	160,426	0,049	-0,050
-157,964	243,210	-0,089	-0,109
-156,950	-200,000	-0,002	-0,061
-155,935	800,000	0,012	0,037
-154,920	26,857	0,059	-0,036
-153,906	-105,382	-0,082	-0,013
-152,891	519,413	0,022	-0,037
-151,877	10,372	0,039	-0,022
-150,862	788,967	-0,030	0,060
-149,847	-110,065	-0,045	0,007
-148,833	-200,000	0,023	0,216
-147,818	800,000	-0,050	-0,102
-146,804	800,000	0,035	-0,079
-145,789	36,459	-0,073	-0,047
-144,775	-128,161	-0,043	-0,004
-143,760	800,000	0,056	0,167
-142,745	146,919	-0,074	0,073
-141,731	-100,556	-0,103	-0,018
-140,716	800,000	-0,030	0,075
-139,702	57,421	-0,070	0,050
-138,687	600,426	-0,044	0,080
-137,672	-85,731	-0,066	0,015
-136,658	140,985	0,047	-0,045
-135,643	-200,000	0,015	-0,206
-134,629	59,860	0,022	-0,016
-133,614	-119,411	-0,051	0,006
-132,599	-200,000	-0,007	0,088
-131,585	800,000	0,034	0,082
-130,570	800,000	0,021	0,057
-129,556	-127,415	-0,090	-0,009
-128,541	800,000	-0,043	-0,092
-127,526	-141,179	0,065	0,005
-126,512	-131,353	0,126	-0,012
-125,497	-200,000	0,027	0,095
-124,483	222,065	-0,077	0,090
-123,468	-200,000	-0,029	0,100
-122,453	-200,000	-0,070	0,258
-121,439	-120,669	-0,108	0,013
-120,424	351,268	0,097	-0,140
-119,410	266,970	0,056	-0,071
-118,395	800,000	-0,019	-0,059
-117,380	800,000	-0,036	0,085
-116,366	-200,000	-0,024	0,142
-115,351	-78,633	-0,037	0,009
-114,337	-54,058	-0,067	-0,022
-113,322	16,349	-0,120	0,069
-112,307	174,730	0,066	0,069
-111,293	-200,000	0,002	-0,133
-110,278	365,171	0,094	0,138
-109,264	800,000	0,047	-0,143
-108,249	800,000	-0,077	0,161
-107,234	-125,354	0,110	0,012
-106,220	534,002	-0,034	0,059
-105,205	800,000	0,031	0,098
-104,191	-200,000	0,008	-0,062
-103,176	205,548	-0,041	-0,046
-102,162	-200,000	0,000	-0,051
-101,147	-8,051	-0,089	-0,043
-100,132	-63,575	-0,094	-0,028
-99,118	81,602	0,082	0,065
-98,103	-173,660	-0,171	-0,004
-97,089	777,144	-0,040	0,081
-96,074	-200,000	-0,035	0,121
-95,059	-10,624	-0,060	-0,029
-94,045	286,842	-0,105	-0,138
-93,030	800,000	0,023	0,048
-92,016	204,772	-0,056	-0,063
-91,001	118,423	0,055	0,050
-89,986	-147,172	0,043	0,003
-88,972	42,880	0,029	-0,019
-87,957	785,748	-0,038	0,076
-86,943	105,828	0,146	-0,126
-85,928	-200,000	0,016	-0,114
-84,913	460,784	-0,034	0,055
-83,899	-200,000	-0,010	0,084
-82,884	-118,456	-0,120	-0,015
-81,870	7,079	0,039	0,021
-80,855	-200,000	0,003	0,011
-79,840	74,960	-0,125	-0,096
-78,826	57,080	-0,156	-0,111
-77,811	50,033	-0,043	0,030
-76,797	90,895	0,047	0,038
-75,782	-65,483	0,010	-0,003
-74,767	-16,639	-0,137	0,063
-73,753	-30,068	0,042	0,017
-72,738	800,000	0,052	-0,113
-71,724	62,824	-0,114	-0,083
-70,709	-200,000	0,001	-0,043
-69,694	-200,000	-0,000	0,031
-68,680	-200,000	0,042	0,143
-67,665	363,941	0,066	0,097
-66,651	-34,009	-0,133	0,053
-65,636	85,720	0,025	0,020
-64,622	180,750	0,064	-0,068
-63,607	-200,000	0,009	-0,150
-62,592	-88,515	0,097	-0,021
-61,578	32,710	-0,047	-0,029
-60,563	15,686	0,055	-0,031
-59,549	-200,000	0,007	0,058
-58,534	-104,504	-1,334	-0,221
-57,519	730,127	-0,801	-1,561
-56,505	-200,000	-0,956	-4,392
-55,490	130,434	0,496	-0,462
-54,476	800,000	4,931	11,848
-53,461	-200,000	13,433	253,087
-52,446	-200,000	689,545	2259,799
-51,432	591,389	1622,166	2917,397
-50,417	119,392	1634,898	1468,421
-49,403	73,301	1288,940	977,462
-48,388	38,099	1024,100	659,812
-47,373	24,369	981,772	587,391
-46,359	23,594	971,505	578,685
-45,344	22,578	967,200	572,777
-44,330	22,565	965,722	571,836
-43,315	22,381	964,348	570,399
-42,300	22,408	963,380	569,894
-41,286	22,419	962,389	569,319
-40,271	22,348	961,580	568,588
-39,257	22,345	960,683	568,026
-38,242	22,394	959,447	567,430
-37,227	22,385	958,442	566,785
-36,213	22,325	957,874	566,233
-35,198	22,333	956,964	565,697
-34,184	22,402	956,390	565,558
-33,169	22,364	955,390	564,821
-32,154	22,442	954,473	564,508
-31,140	22,427	953,565	563,902
-30,125	22,473	952,725	563,530
-29,111	22,429	952,010	562,943
-28,096	22,436	951,407	562,588
-27,082	22,410	950,589	561,996
-26,067	22,429	949,822	561,583
-25,052	22,415	949,140	561,113
-24,038	22,416	948,532	560,733
-23,023	22,370	948,005	560,253
-22,009	22,470	947,231	560,092
-20,994	22,428	946,551	559,534
-19,979	22,521	945,752	559,336
-18,965	22,464	945,472	558,968
-17,950	22,411	944,732	558,338
-16,936	22,366	944,102	557,802
-15,921	22,373	943,406	557,389
-14,906	22,326	942,718	556,810
-13,892	22,277	942,204	556,330
-12,877	22,308	941,514	555,999
-11,863	22,234	940,811	555,327
-10,848	22,304	940,227	555,183
-9,833	22,385	939,804	555,167
-8,819	22,394	939,264	554,854
-7,804	22,270	938,510	553,995
-6,790	22,295	937,953	553,722
-5,775	22,405	937,114	553,553
-4,760	22,343	936,662	553,067
-3,746	22,286	936,121	552,546
-2,731	22,168	935,461	551,764
-1,717	22,141	934,705	551,210
-0,702	22,088	934,017	550,615
0,313	21,950	933,467	550,687
1,327	25,058	931,427	559,207
2,342	34,776	796,084	503,834
3,356	32,820	451,463	282,756
4,371	1,760	293,619	152,926
5,386	-2,692	274,552	138,772
6,400	-4,336	268,795	134,325
7,415	-4,762	266,307	132,678
8,429	-4,325	264,976	132,402
9,444	-4,420	264,299	131,966
10,459	-4,526	263,604	131,511
11,473	-4,500	262,909	131,177
12,488	-4,645	262,552	130,855
13,502	-4,782	261,904	130,397
14,517	-4,624	261,588	130,370
15,531	-4,467	261,208	130,311
16,546	-4,635	260,869	129,979
17,561	-4,673	260,559	129,778
18,575	-4,494	260,107	129,702
19,590	-4,566	259,770	129,458
20,604	-4,559	259,503	129,319
21,619	-4,602	259,069	129,053
22,634	-4,847	258,891	128,735
23,648	-4,839	258,621	128,596
24,663	-4,872	258,402	128,446
25,677	-4,678	258,079	128,447
26,692	-4,641	257,812	128,335
27,707	-4,810	257,479	128,009
28,721	-4,761	257,348	127,975
29,736	-4,857	256,912	127,662
30,750	-4,898	256,744	127,531
31,765	-4,845	256,549	127,469
32,780	-4,813	256,294	127,360
33,794	-4,769	256,107	127,295
34,809	-4,803	255,948	127,175
35,823	-4,806	255,572	126,973
36,838	-4,839	255,353	126,824
37,853	-4,943	255,191	126,641
38,867	-4,840	254,732	126,492
39,882	-4,894	254,649	126,393
40,896	-4,932	254,522	126,284
41,911	-4,818	254,134	126,180
42,926	-4,959	253,918	125,939
43,940	-5,045	253,754	125,771
44,955	-4,848	253,484	125,798
45,969	-5,031	253,345	125,558
46,984	-5,096	252,997	125,318
47,999	-5,451	252,857	124,929
49,013	-5,700	252,568	124,558
50,028	-5,610	252,279	124,483
51,042	-5,666	251,988	124,279
52,057	-5,751	251,808	124,106
53,071	-5,519	251,509	124,148
54,086	-5,442	251,435	124,168
55,101	-5,326	251,247	124,164
56,115	-5,095	251,068	124,264
57,130	-4,915	251,132	124,440
58,144	-4,643	250,851	124,524
59,159	-4,587	250,693	124,483
60,174	-4,653	250,521	124,329
61,188	-4,515	250,267	124,310
62,203	-4,808	250,237	124,033
63,217	-4,659	249,871	123,968
64,232	-4,519	249,643	123,964
65,247	-4,706	249,479	123,711
66,261	-4,764	249,272	123,548
67,276	-4,846	248,949	123,307
68,290	-4,955	248,642	123,051
69,305	-5,125	248,420	122,784
70,320	-5,143	248,295	122,697
71,334	-4,960	248,327	122,858
72,349	-4,576	248,056	123,039
73,363	-4,814	247,933	122,765
74,378	-4,491	247,591	122,859
75,393	-4,622	247,415	122,650
76,407	-4,636	247,284	122,562
77,422	-4,810	247,041	122,283
78,436	-4,609	246,912	122,379
79,451	-4,628	246,635	122,214
80,466	-4,687	246,464	122,068
81,480	-5,093	246,272	121,620
82,495	-5,088	246,054	121,506
83,509	-4,808	245,853	121,632
84,524	-4,902	245,583	121,408
85,539	-5,145	245,484	121,144
86,553	-4,905	245,191	121,190
87,568	-4,908	245,045	121,105
88,582	-4,846	244,812	121,031
89,597	-5,048	244,634	120,763
90,611	-4,850	244,632	120,917
91,626	-4,713	244,417	120,914
92,641	-4,656	244,119	120,804
93,655	-5,090	243,931	120,337
94,670	-4,558	243,761	120,687
95,684	-4,756	243,537	120,401
96,699	-4,945	243,379	120,154
97,714	-4,849	243,259	120,164
98,728	-5,056	243,115	119,910
99,743	-5,097	242,800	119,709
100,757	-5,256	242,581	119,459
101,772	-5,231	242,434	119,397
102,787	-5,177	242,336	119,382
103,801	-4,954	242,119	119,450
104,816	-5,007	242,030	119,351
105,830	-4,801	241,834	119,414
106,845	-4,747	241,742	119,403
107,860	-4,854	241,610	119,239
108,874	-4,897	241,287	119,033
109,889	-4,856	240,999	118,914
110,903	-5,051	240,966	118,726
111,918	-4,958	240,620	118,622
112,933	-4,858	240,471	118,621
113,947	-4,847	240,389	118,579
114,962	-4,804	240,359	118,588
115,976	-4,729	239,966	118,445
116,991	-4,923	239,874	118,231
118,006	-4,910	239,763	118,175
119,020	-4,779	239,559	118,172
120,035	-4,570	239,450	118,278
121,049	-4,470	239,356	118,303
122,064	-4,645	238,916	117,932
123,079	-4,916	239,008	117,746
124,093	-4,745	238,624	117,686
125,108	-5,148	238,513	117,292
126,122	-5,071	238,195	117,188
127,137	-5,201	238,045	116,998
128,151	-5,199	237,952	116,944
129,166	-4,860	237,791	117,130
130,181	-5,158	237,557	116,762
131,195	-4,989	237,309	116,767
132,210	-5,092	237,353	116,694
133,224	-4,709	237,112	116,875
134,239	-4,826	236,966	116,698
135,254	-4,776	236,883	116,687
136,268	-4,879	236,603	116,456
137,283	-5,215	236,306	116,028
138,297	-5,346	236,173	115,847
139,312	-5,459	236,103	115,711
140,327	-5,181	235,865	115,808
141,341	-4,360	235,801	116,427
142,356	-4,407	235,711	116,334
143,370	-4,349	235,572	116,301
144,385	-4,397	235,432	116,184
145,400	-4,324	235,227	116,131
146,414	-4,414	235,028	115,950
147,429	-4,469	234,765	115,766
148,443	-4,648	234,826	115,643
149,458	-4,707	234,699	115,522
150,473	-4,724	234,473	115,388
151,487	-4,632	234,272	115,352
152,502	-4,774	234,142	115,164
153,516	-4,474	233,857	115,252
154,531	-4,435	233,750	115,221
155,546	-4,465	233,574	115,100
156,560	-4,687	233,359	114,807
157,575	-4,694	233,112	114,670
158,589	-4,643	232,997	114,644
159,604	-4,489	232,809	114,663
160,619	-4,287	232,664	114,741
161,633	-4,267	232,627	114,729
162,648	-4,444	232,526	114,529
163,662	-4,426	232,307	114,425
164,677	-4,617	232,106	114,165
165,692	-4,516	232,095	114,229
166,706	-4,556	231,862	114,072
167,721	-4,318	231,647	114,144
168,735	-4,412	231,616	114,045
169,750	-4,529	231,473	113,872
170,764	-4,450	231,196	113,788
171,779	-4,477	231,187	113,752
172,794	-4,392	230,856	113,646
173,808	-4,663	230,717	113,354
174,823	-4,975	230,303	112,896
175,837	-5,103	230,285	112,777
176,852	-4,724	230,103	112,974
177,867	-4,379	230,107	113,236
178,881	-4,430	229,909	113,089
179,896	-4,371	229,902	113,122
180,910	-4,522	229,674	112,882
181,925	-4,342	229,492	112,922
182,940	-4,481	229,395	112,756
183,954	-4,406	229,254	112,735
184,969	-4,276	229,091	112,746
185,983	-4,145	228,935	112,761
186,998	-4,166	228,841	112,688
188,013	-4,151	228,530	112,537
189,027	-4,329	228,545	112,396
190,042	-4,238	228,279	112,326
191,056	-4,277	228,171	112,233
192,071	-4,381	228,049	112,082
193,086	-4,284	227,842	112,045
194,100	-4,179	227,646	112,020
195,115	-4,374	227,284	111,681
196,129	-5,095	227,280	111,113
197,144	-1,612	228,091	114,195
198,159	1,896	229,216	117,470
199,173	4,240	229,792	119,575
200,188	4,546	229,574	119,688
201,202	4,402	229,581	119,569
202,217	4,338	229,208	119,315
203,232	4,600	229,370	119,591
204,246	4,747	229,020	119,511
205,261	4,731	228,971	119,463
206,275	4,874	228,902	119,527
207,290	4,996	228,747	119,530
208,304	5,054	228,463	119,415
209,319	4,960	228,437	119,318
210,334	4,698	228,244	119,005
211,348	4,591	228,045	118,809
212,363	4,387	227,708	118,466
213,377	4,120	227,607	118,198
214,392	3,783	227,548	117,898
215,407	4,002	227,193	117,871
216,421	4,104	227,055	117,868
217,436	4,207	226,875	117,842
218,450	3,966	226,661	117,536
219,465	3,702	226,606	117,296
220,480	3,860	226,419	117,309
221,494	3,826	226,268	117,195
222,509	3,951	226,137	117,211
223,523	4,206	225,837	117,240
224,538	3,857	225,819	116,955
225,553	3,874	225,657	116,872
226,567	3,879	225,674	116,875
227,582	4,341	225,548	117,151
228,596	4,648	225,310	117,249
229,611	4,289	225,110	116,863
230,626	3,938	225,001	116,530
231,640	3,957	224,900	116,481
232,655	4,253	224,834	116,660
233,669	4,619	224,725	116,871
234,684	4,603	224,612	116,789
235,699	4,363	224,379	116,477
236,713	4,296	224,159	116,301
237,728	4,110	224,038	116,088
238,742	4,066	223,731	115,886
239,757	4,101	223,632	115,850
240,772	3,799	223,559	115,575
241,786	3,867	223,335	115,500
242,801	4,159	223,421	115,754
243,815	4,260	223,293	115,753
244,830	4,353	222,969	115,644
245,844	4,296	222,897	115,554
246,859	4,304	222,823	115,511
247,874	4,441	222,550	115,462
248,888	4,390	222,500	115,388
249,903	4,129	222,256	115,055
250,917	4,202	222,071	115,004
251,932	4,162	221,990	114,922
252,947	4,023	221,803	114,711
253,961	3,938	221,647	114,557
254,976	3,985	221,517	114,515
255,990	4,267	221,444	114,677
257,005	4,203	221,378	114,585
258,020	4,315	221,239	114,585
259,034	4,529	221,161	114,694
260,049	4,235	220,958	114,360
261,063	4,379	220,742	114,345
262,078	4,463	220,592	114,319
263,093	4,511	220,622	114,360
264,107	4,298	220,445	114,101
265,122	4,391	220,276	114,072
266,136	4,535	220,238	114,148
267,151	4,519	219,933	113,969
268,166	4,412	219,661	113,738
269,180	3,921	219,464	113,265
270,195	4,029	219,334	113,267
271,209	4,036	219,224	113,205
272,224	4,036	219,186	113,175
273,239	4,099	219,065	113,149
274,253	4,060	218,760	112,953
275,268	3,979	218,657	112,830
276,282	4,016	218,370	112,699
277,297	3,812	218,255	112,480
278,312	3,830	218,132	112,420
279,326	4,150	218,143	112,650
280,341	4,043	217,999	112,487
281,355	4,302	217,874	112,602
282,370	4,039	217,710	112,315
283,384	3,946	217,445	112,101
284,399	3,837	217,247	111,909
285,414	3,918	217,154	111,911
286,428	4,086	217,101	111,995
287,443	4,028	216,987	111,885
288,457	4,228	216,933	111,992
289,472	4,213	216,707	111,854
290,487	3,534	216,529	111,261
291,501	3,769	216,320	111,313
292,516	3,793	216,274	111,296
293,530	3,756	216,130	111,186
294,545	3,738	215,906	111,048
295,560	3,967	215,945	111,223
296,574	3,857	215,820	111,070
297,589	4,069	215,706	111,154
298,603	4,039	215,557	111,046
299,618	4,268	215,300	111,068
300,633	3,961	215,294	110,835
301,647	4,191	215,155	110,919
302,662	4,260	215,040	110,899
303,676	4,151	214,952	110,765
304,691	4,112	214,830	110,665
305,706	4,387	214,661	110,765
306,720	4,335	214,419	110,593
307,735	3,949	214,314	110,252
308,749	3,986	214,157	110,188
309,764	4,324	214,037	110,359
310,779	4,283	213,841	110,218
311,793	4,281	213,876	110,225
312,808	3,983	213,635	109,878
313,822	3,945	213,593	109,820
314,837	4,181	213,321	109,838
315,852	3,859	213,163	109,518
316,866	3,959	213,142	109,568
317,881	4,541	212,902	109,849
318,895	4,127	212,811	109,498
319,910	4,084	212,633	109,366
320,925	3,960	212,427	109,163
321,939	3,679	212,208	108,842
322,954	3,455	212,111	108,623
323,968	4,075	212,018	109,005
324,983	4,282	212,115	109,192
325,997	4,133	212,038	109,037
327,012	4,062	211,660	108,783
328,027	4,162	211,521	108,772
329,041	4,166	211,640	108,826
330,056	4,544	211,405	108,962
331,070	4,361	211,138	108,686
332,085	4,055	210,980	108,380
333,100	3,917	210,824	108,193
334,114	4,168	210,793	108,344
335,129	4,258	210,622	108,309
336,143	3,988	210,586	108,092
337,158	4,042	210,305	107,976
338,173	3,920	210,198	107,825
339,187	3,965	209,981	107,736
340,202	3,679	209,814	107,441
341,216	3,623	209,775	107,372
342,231	3,775	209,665	107,413
343,246	3,885	209,535	107,413
344,260	3,980	209,358	107,379
345,275	4,004	209,334	107,374
346,289	3,943	209,258	107,282
347,304	4,242	209,087	107,394
348,319	4,187	208,802	107,200
349,333	4,032	208,886	107,125
350,348	4,179	208,700	107,123
351,362	4,208	208,607	107,085
352,377	4,318	208,374	107,033
353,392	4,026	208,280	106,772
354,406	4,113	208,228	106,797
355,421	193,560	1344,114	1431,562
356,435	154,428	1482,610	1431,689
