DTS Sentinel unit serial number:	SN410029Multiplexer serial number:	ORYXHardware model number:	OX2-SRSoftware version number:	ORYX F/W v4,00 Oryx Data Collector v3.7.2.0data status	okinstallation	B6 Nyhavnadifferential loss correction	single-endedforward channel	channel 2reverse channel	N/Adate	2023/12/07time	11:25:08forward acquisition time	300,00reverse acquisition time	0,00gamma	499,1914k internal	0,3202k external	0,3202temperature offset calibration	1,0000default loss term (dB/km)	0,3820temperature slope calibration	1,0000multiplexer offset coefficient	1,0000multiplexer slope coefficient	1,0000fibre end	0,00T internal ref (°C)	8,37T ext. ref 1 (°C)	-5,58T ext. ref 2 (°C)	-5,60length (m)	temperature (°C)	Stokes	anti-Stokes-744,400	-108,078	0,358	-0,056
-743,385	-92,337	-0,368	0,075
-742,371	-47,527	0,121	0,043
-741,356	-135,743	-0,362	-0,031
-740,342	28,017	0,157	0,096
-739,327	-24,247	-0,380	-0,164
-738,312	-34,183	0,145	-0,058
-737,298	-88,630	-0,428	-0,092
-736,283	72,064	0,147	0,111
-735,269	-71,234	-0,390	-0,106
-734,254	73,391	0,230	0,174
-733,239	-50,948	-0,679	-0,230
-732,225	-56,513	0,215	0,069
-731,210	343,773	-0,038	-0,055
-730,196	31,922	-0,124	-0,077
-729,181	-200,000	-0,010	-0,048
-728,167	84,675	0,027	-0,021
-727,152	-200,000	-0,002	-0,053
-726,137	48,043	0,054	0,036
-725,123	-63,702	-0,142	0,042
-724,108	-200,000	0,010	-0,079
-723,094	-161,340	-0,197	-0,007
-722,079	-200,000	0,016	0,158
-721,064	-200,000	-0,020	-0,080
-720,050	400,802	0,019	0,029
-719,035	159,212	-0,016	0,016
-718,021	-79,549	0,058	0,014
-717,006	44,395	-0,103	0,069
-715,991	605,031	-0,059	-0,107
-714,977	605,851	-0,021	-0,039
-713,962	-133,685	-0,032	-0,003
-712,948	-135,583	-0,041	0,004
-711,933	800,000	0,020	0,055
-710,918	800,000	-0,031	0,066
-709,904	800,000	0,014	-0,043
-708,889	-200,000	0,002	-0,104
-707,875	-200,000	-0,004	0,037
-706,860	-70,819	0,081	0,022
-705,845	800,000	-0,044	-0,123
-704,831	1,111	-0,146	0,076
-703,816	-200,000	0,004	0,107
-702,802	16,141	-0,144	0,082
-701,787	-33,620	-0,032	0,013
-700,772	-6,194	0,055	-0,027
-699,758	207,280	0,038	-0,043
-698,743	208,396	-0,071	-0,081
-697,729	338,691	-0,018	0,025
-696,714	-152,797	-0,063	0,003
-695,699	48,224	0,078	-0,053
-694,685	94,258	-0,126	-0,104
-693,670	659,839	-0,068	-0,127
-692,656	-23,054	-0,022	0,010
-691,641	132,914	0,108	0,102
-690,627	-200,000	0,012	0,117
-689,612	34,828	0,063	0,040
-688,597	-200,000	-0,002	0,064
-687,583	5,532	-0,161	-0,086
-686,568	800,000	0,044	-0,124
-685,554	-55,236	0,095	-0,031
-684,539	800,000	-0,051	-0,160
-683,524	-79,723	-0,060	-0,015
-682,510	707,674	0,050	0,096
-681,495	-200,000	0,015	-0,125
-680,481	649,401	0,007	-0,013
-679,466	800,000	-0,014	-0,033
-678,451	262,274	-0,035	0,044
-677,437	-123,094	0,114	-0,013
-676,422	130,417	-0,053	-0,049
-675,408	-82,768	-0,049	0,011
-674,393	800,000	0,002	0,006
-673,378	100,660	-0,119	0,100
-672,364	96,975	0,089	0,074
-671,349	-89,964	-0,130	-0,027
-670,335	-129,926	-0,067	0,007
-669,320	-200,000	0,004	-0,021
-668,305	-145,127	0,126	-0,008
-667,291	-200,000	0,002	0,060
-666,276	-200,000	-0,016	0,083
-665,262	800,000	-0,033	-0,071
-664,247	-200,000	0,026	-0,170
-663,232	-155,841	0,105	0,005
-662,218	-39,663	0,099	0,038
-661,203	55,649	-0,159	-0,111
-660,189	-200,000	0,019	-0,133
-659,174	33,436	0,030	-0,019
-658,159	-156,451	-0,159	-0,007
-657,145	109,444	0,051	-0,044
-656,130	183,192	-0,111	0,119
-655,116	-64,739	0,097	0,028
-654,101	-86,660	-0,101	0,022
-653,086	87,913	-0,102	-0,082
-652,072	-200,000	-0,001	-0,067
-651,057	144,012	0,013	0,013
-650,043	-89,761	-0,129	-0,027
-649,028	368,903	-0,090	0,133
-648,014	-13,202	0,068	-0,032
-646,999	-200,000	-0,029	0,121
-645,984	151,785	0,059	-0,058
-644,970	-107,892	-0,063	-0,010
-643,955	-137,397	-0,011	-0,001
-642,941	289,612	-0,036	-0,048
-641,926	338,490	0,065	-0,092
-640,911	6,665	0,054	0,029
-639,897	-11,840	0,033	0,015
-638,882	800,000	-0,052	0,128
-637,868	218,569	-0,060	0,069
-636,853	-200,000	0,019	-0,137
-635,838	800,000	-0,039	-0,081
-634,824	140,444	-0,098	-0,094
-633,809	29,410	0,074	-0,046
-632,795	-200,000	-0,017	-0,087
-631,780	800,000	0,072	-0,168
-630,765	-200,000	-0,013	0,057
-629,751	-200,000	0,036	-0,123
-628,736	585,295	-0,042	-0,076
-627,722	-97,498	0,033	-0,006
-626,707	7,185	0,122	-0,066
-625,692	372,198	0,039	0,057
-624,678	-200,000	-0,051	0,172
-623,663	-41,218	-0,076	0,028
-622,649	-200,000	0,034	-0,129
-621,634	-166,879	0,065	-0,002
-620,619	-44,740	-0,068	-0,024
-619,605	64,957	0,120	0,087
-618,590	-160,656	0,085	-0,003
-617,576	59,738	-0,082	-0,058
-616,561	334,318	-0,059	-0,083
-615,546	-200,000	0,019	-0,098
-614,532	-127,525	-0,077	0,008
-613,517	-200,000	0,030	0,101
-612,503	-3,970	-0,045	0,023
-611,488	283,016	-0,103	0,134
-610,474	-25,950	0,107	-0,045
-609,459	5,301	0,087	0,046
-608,444	69,325	0,104	-0,078
-607,430	-27,593	-0,137	-0,057
-606,415	405,110	-0,052	0,080
-605,401	800,000	0,025	-0,070
-604,386	-200,000	0,016	0,098
-603,371	228,910	0,112	0,133
-602,357	-200,000	-0,031	0,121
-601,342	-138,658	-0,147	-0,012
-600,328	-106,598	0,073	0,012
-599,313	-200,000	-0,071	-0,000
-598,298	-200,000	-0,008	0,093
-597,284	-200,000	0,007	0,087
-596,269	-200,000	-0,018	0,067
-595,255	-200,000	0,001	-0,015
-594,240	-200,000	0,001	0,059
-593,225	-200,000	0,014	-0,167
-592,211	-132,233	-0,111	0,010
-591,196	-200,000	-0,005	-0,085
-590,182	-138,541	0,069	-0,005
-589,167	106,970	-0,129	0,111
-588,152	-86,700	-0,082	0,018
-587,138	-10,925	0,095	-0,045
-586,123	-41,579	-0,051	0,019
-585,109	52,586	0,036	-0,025
-584,094	151,352	-0,113	0,111
-583,079	52,671	0,080	0,055
-582,065	284,074	-0,036	0,046
-581,050	800,000	-0,041	0,095
-580,036	-45,973	0,073	-0,026
-579,021	19,488	-0,089	-0,052
-578,006	235,412	-0,083	0,099
-576,992	-200,000	0,014	0,123
-575,977	-134,870	-0,094	0,008
-574,963	95,865	-0,013	0,011
-573,948	372,640	0,085	0,125
-572,934	800,000	0,011	0,024
-571,919	800,000	0,022	-0,059
-570,904	397,733	0,010	0,015
-569,890	-123,874	0,118	-0,013
-568,875	39,990	0,088	0,057
-567,861	800,000	-0,040	0,119
-566,846	-200,000	-0,033	0,110
-565,831	-8,534	0,093	0,045
-564,817	-200,000	-0,003	0,076
-563,802	27,784	-0,122	-0,074
-562,788	800,000	-0,020	-0,062
-561,773	21,597	-0,044	-0,026
-560,758	-164,832	0,114	-0,004
-559,744	-200,000	-0,002	-0,181
-558,729	-116,176	0,089	-0,012
-557,715	26,933	-0,060	-0,036
-556,700	92,216	-0,072	-0,058
-555,685	-200,000	-0,003	-0,028
-554,671	-200,000	-0,031	0,115
-553,656	242,953	0,084	0,101
-552,642	-200,000	0,013	0,089
-551,627	-200,000	0,013	-0,130
-550,612	800,000	-0,019	0,056
-549,598	133,137	0,029	0,027
-548,583	467,493	0,027	-0,044
-547,569	140,997	-0,079	0,075
-546,554	164,374	0,081	0,082
-545,539	655,632	0,065	0,121
-544,525	735,314	-0,043	-0,084
-543,510	-200,000	-0,003	0,033
-542,496	17,576	0,098	-0,056
-541,481	187,503	-0,113	-0,121
-540,466	99,744	-0,107	-0,089
-539,452	-77,102	-0,053	-0,013
-538,437	310,871	0,057	0,078
-537,423	-200,000	-0,015	0,084
-536,408	655,018	-0,056	0,105
-535,393	800,000	-0,015	-0,046
-534,379	-200,000	-0,022	0,093
-533,364	-200,000	-0,027	0,088
-532,350	56,107	0,066	0,046
-531,335	-12,227	0,138	0,065
-530,321	-49,042	-0,010	0,003
-529,306	800,000	0,075	0,188
-528,291	-143,851	-0,028	-0,002
-527,277	487,189	-0,010	0,016
-526,262	-200,000	-0,010	0,074
-525,248	-136,826	-0,023	-0,002
-524,233	-12,496	-0,116	0,054
-523,218	205,573	0,023	0,026
-522,204	-122,330	-0,027	0,003
-521,189	-120,649	0,036	-0,004
-520,175	-200,000	0,041	-0,182
-519,160	-200,000	0,028	-0,141
-518,145	-200,000	-0,037	-0,119
-517,131	18,035	0,071	0,041
-516,116	179,619	-0,087	0,092
-515,102	196,126	-0,048	0,053
-514,087	-119,663	-0,120	-0,015
-513,072	28,694	0,035	0,022
-512,058	800,000	0,025	-0,072
-511,043	328,307	0,019	-0,026
-510,029	169,772	0,065	0,067
-509,014	-61,729	-0,036	0,011
-507,999	-21,900	-0,157	0,069
-506,985	9,475	0,122	0,066
-505,970	499,958	-0,073	0,122
-504,956	48,407	-0,016	-0,010
-503,941	-200,000	-0,017	-0,195
-502,926	58,598	0,050	0,035
-501,912	380,803	-0,069	0,103
-500,897	97,093	0,034	0,028
-499,883	800,000	-0,081	-0,161
-498,868	-200,000	0,022	-0,088
-497,853	800,000	-0,046	-0,103
-496,839	800,000	-0,014	0,037
-495,824	-149,202	-0,056	0,003
-494,810	800,000	0,024	-0,073
-493,795	671,621	0,027	0,051
-492,781	800,000	-0,016	0,050
-491,766	10,607	-0,089	0,049
-490,751	306,765	-0,096	-0,129
-489,737	5,618	0,146	-0,077
-488,722	687,461	0,045	-0,086
-487,708	-200,000	0,033	0,176
-486,693	-200,000	-0,014	0,255
-485,678	320,235	-0,061	-0,084
-484,664	54,990	-0,118	-0,082
-483,649	-200,000	-0,006	-0,186
-482,635	16,981	-0,179	-0,102
-481,620	800,000	-0,048	-0,098
-480,605	733,719	-0,023	0,045
-479,591	800,000	0,066	0,160
-478,576	-200,000	0,008	-0,075
-477,562	800,000	-0,043	0,120
-476,547	46,962	-0,106	-0,071
-475,532	-120,231	0,152	-0,018
-474,518	-36,101	-0,104	0,040
-473,503	-200,000	-0,041	0,270
-472,489	-200,000	0,020	0,071
-471,474	-13,195	-0,075	0,035
-470,459	249,189	-0,066	-0,081
-469,445	275,683	-0,051	-0,065
-468,430	800,000	-0,061	0,134
-467,416	121,154	-0,103	0,092
-466,401	8,855	0,142	0,077
-465,386	-24,680	0,045	0,019
-464,372	-69,373	-0,052	0,014
-463,357	-42,396	0,038	0,014
-462,343	358,708	0,080	-0,116
-461,328	-9,241	0,067	0,032
-460,313	304,532	-0,057	0,076
-459,299	463,496	0,073	-0,118
-458,284	-200,000	0,017	0,113
-457,270	-200,000	-0,014	0,049
-456,255	800,000	-0,039	-0,110
-455,241	31,777	-0,110	-0,068
-454,226	-200,000	-0,046	-0,159
-453,211	-175,042	0,107	-0,002
-452,197	800,000	0,017	-0,045
-451,182	-107,810	-0,110	-0,017
-450,168	265,744	0,076	0,095
-449,153	-166,113	-0,034	-0,001
-448,138	-76,061	-0,055	-0,014
-447,124	33,860	0,048	-0,030
-446,109	-200,000	-0,020	-0,144
-445,095	529,899	0,073	0,124
-444,080	-78,779	0,013	0,003
-443,065	78,179	-0,069	0,053
-442,051	278,527	0,020	-0,026
-441,036	-22,528	0,040	0,017
-440,022	-200,000	-0,002	-0,110
-439,007	-53,837	0,045	0,015
-437,992	138,956	-0,085	0,080
-436,978	791,270	0,026	0,051
-435,963	-96,812	-0,063	-0,012
-434,949	-200,000	-0,003	-0,057
-433,934	800,000	0,009	-0,026
-432,919	-120,546	-0,282	-0,034
-431,905	279,458	0,042	0,054
-430,890	8,624	0,077	0,041
-429,876	-49,892	0,075	-0,025
-428,861	228,968	-0,045	0,052
-427,846	-55,801	-0,147	-0,047
-426,832	180,236	0,027	-0,028
-425,817	36,746	-0,045	0,028
-424,803	268,449	0,018	0,023
-423,788	-188,900	0,124	-0,001
-422,773	-200,000	-0,019	-0,064
-421,759	-21,193	0,023	0,010
-420,744	-88,304	0,018	0,004
-419,730	-79,856	0,219	-0,053
-418,715	-200,000	-0,001	-0,062
-417,701	800,000	0,036	0,082
-416,686	300,778	0,034	0,045
-415,671	49,762	0,094	0,064
-414,657	27,716	0,091	-0,055
-413,642	-14,535	0,057	-0,026
-412,628	800,000	-0,032	-0,085
-411,613	800,000	0,060	-0,162
-410,598	444,465	0,045	-0,071
-409,584	-108,832	0,074	-0,011
-408,569	-139,092	0,167	0,013
-407,555	228,600	0,036	0,043
-406,540	-134,186	-0,081	0,007
-405,525	536,331	0,021	-0,036
-404,511	800,000	-0,024	-0,060
-403,496	-50,341	-0,060	0,020
-402,482	124,476	-0,075	-0,068
-401,467	800,000	0,055	0,135
-400,452	-79,345	0,042	0,010
-399,438	-175,357	0,092	0,002
-398,423	99,639	0,093	-0,077
-397,409	276,333	0,064	0,081
-396,394	-200,000	0,007	-0,080
-395,379	-146,208	0,046	-0,003
-394,365	-79,775	0,297	-0,071
-393,350	-113,013	0,137	-0,019
-392,336	800,000	0,054	-0,116
-391,321	-117,488	-0,051	-0,007
-390,306	-200,000	0,013	0,041
-389,292	343,392	0,038	-0,053
-388,277	26,222	0,059	0,035
-387,263	-109,010	-0,069	0,010
-386,248	-25,693	0,045	-0,019
-385,233	-200,000	0,036	0,173
-384,219	39,451	-0,075	0,048
-383,204	226,002	-0,048	-0,056
-382,190	-17,107	0,051	-0,023
-381,175	54,115	-0,054	-0,037
-380,160	800,000	-0,048	0,150
-379,146	357,219	-0,048	0,069
-378,131	36,866	-0,025	0,015
-377,117	710,356	0,022	0,042
-376,102	-200,000	-0,043	-0,138
-375,088	-200,000	-0,013	-0,071
-374,073	31,508	-0,151	-0,093
-373,058	397,904	0,034	0,051
-372,044	-75,261	0,123	-0,031
-371,029	-200,000	-0,008	0,071
-370,015	-200,000	0,008	-0,085
-369,000	237,852	-0,083	-0,098
-367,985	-100,247	-0,021	-0,004
-366,971	111,312	-0,119	-0,103
-365,956	-22,802	-0,065	0,028
-364,942	-200,000	0,004	0,223
-363,927	-29,551	0,070	0,029
-362,912	-178,060	-0,057	-0,001
-361,898	-200,000	-0,028	-0,107
-360,883	-38,253	-0,053	0,020
-359,869	3,863	0,042	0,022
-358,854	87,344	0,109	0,086
-357,839	176,171	-0,044	-0,045
-356,825	72,997	0,114	0,085
-355,810	800,000	-0,018	0,046
-354,796	-189,779	-0,126	0,001
-353,781	28,987	-0,043	0,026
-352,766	2,757	-0,121	0,063
-351,752	-113,299	0,113	-0,016
-350,737	800,000	0,028	-0,058
-349,723	209,679	-0,040	-0,046
-348,708	-52,254	-0,029	0,010
-347,693	65,157	-0,052	-0,038
-346,679	-200,000	0,008	-0,100
-345,664	800,000	0,049	0,122
-344,650	-109,508	-0,042	0,006
-343,635	3,306	-0,150	0,078
-342,620	-34,101	0,145	0,057
-341,606	-200,000	0,011	0,310
-340,591	-200,000	0,003	-0,016
-339,577	63,710	0,084	0,060
-338,562	-115,511	-0,070	-0,009
-337,548	800,000	0,023	0,052
-336,533	786,364	0,030	0,058
-335,518	199,142	-0,026	0,029
-334,504	104,321	0,027	0,022
-333,489	-200,000	-0,017	-0,091
-332,475	95,191	0,062	-0,050
-331,460	-40,801	0,068	-0,025
-330,445	-177,826	-0,066	0,001
-329,431	440,535	-0,020	-0,032
-328,416	-62,817	0,105	0,031
-327,402	196,394	-0,072	0,079
-326,387	4,982	-0,104	-0,055
-325,372	-200,000	-0,027	-0,119
-324,358	328,324	-0,010	0,014
-323,343	51,322	0,064	0,044
-322,329	457,418	-0,010	0,015
-321,314	141,929	-0,066	0,063
-320,299	169,170	-0,089	0,091
-319,285	-200,000	0,006	-0,018
-318,270	800,000	-0,022	-0,069
-317,256	66,167	-0,054	-0,039
-316,241	-200,000	-0,037	-0,132
-315,226	-200,000	0,010	0,175
-314,212	800,000	-0,036	-0,072
-313,197	-82,207	0,102	0,023
-312,183	259,478	-0,094	0,116
-311,168	33,291	0,072	0,044
-310,153	125,932	0,089	-0,081
-309,139	-12,463	-0,046	-0,022
-308,124	43,953	-0,045	-0,030
-307,110	402,822	0,005	0,008
-306,095	12,889	0,068	0,037
-305,080	-55,817	0,033	0,010
-304,066	-34,721	0,078	-0,030
-303,051	522,028	-0,040	-0,068
-302,037	170,253	-0,060	-0,061
-301,022	800,000	0,031	-0,094
-300,008	206,754	0,033	0,037
-298,993	180,461	-0,106	-0,111
-297,978	-148,612	-0,031	-0,002
-296,964	132,358	-0,143	-0,132
-295,949	800,000	-0,029	0,061
-294,935	-200,000	0,016	0,080
-293,920	-125,348	0,171	-0,018
-292,905	-200,000	0,103	-0,000
-291,891	-200,000	-0,011	-0,052
-290,876	800,000	-0,017	-0,053
-289,862	62,482	-0,138	0,098
-288,847	124,019	-0,121	-0,109
-287,832	320,776	0,039	-0,053
-286,818	14,314	0,111	-0,062
-285,803	-100,259	-0,134	-0,024
-284,789	800,000	0,052	0,102
-283,774	220,379	0,082	0,094
-282,759	199,592	-0,064	0,070
-281,745	800,000	-0,027	-0,073
-280,730	381,496	0,017	0,025
-279,716	-200,000	0,010	-0,044
-278,701	325,114	-0,043	-0,058
-277,686	-200,000	0,013	0,077
-276,672	-153,666	0,041	0,002
-275,657	78,691	-0,078	-0,059
-274,643	-161,196	0,072	-0,003
-273,628	65,062	-0,091	0,065
-272,613	-200,000	-0,033	0,149
-271,599	110,004	0,080	0,068
-270,584	-55,463	0,120	-0,038
-269,570	-200,000	-0,014	-0,052
-268,555	-11,604	0,053	-0,025
-267,540	573,500	0,039	0,068
-266,526	43,592	-0,041	0,027
-265,511	800,000	-0,066	-0,200
-264,497	5,139	-0,063	-0,033
-263,482	-17,617	0,144	-0,064
-262,467	11,508	0,025	0,014
-261,453	800,000	0,043	0,102
-260,438	-200,000	0,003	0,036
-259,424	-36,409	-0,059	0,022
-258,409	-55,043	0,133	-0,043
-257,395	-49,517	-0,128	-0,043
-256,380	-200,000	0,016	0,062
-255,365	-200,000	-0,014	-0,072
-254,351	-200,000	0,006	-0,078
-253,336	-86,264	0,122	-0,027
-252,322	-200,000	0,036	-0,126
-251,307	-200,000	0,032	-0,103
-250,292	-13,890	-0,024	0,011
-249,278	50,391	0,147	-0,099
-248,263	-200,000	0,043	0,154
-247,249	800,000	-0,042	0,121
-246,234	-200,000	0,006	-0,049
-245,219	-200,000	-0,023	-0,101
-244,205	-155,342	0,113	-0,005
-243,190	-200,000	-0,013	-0,091
-242,176	-62,974	0,156	0,046
-241,161	-1,594	0,078	0,039
-240,146	82,459	0,146	0,113
-239,132	-200,000	-0,019	-0,069
-238,117	458,018	-0,031	-0,049
-237,103	-200,000	-0,024	0,086
-236,088	-5,507	-0,159	0,077
-235,073	14,299	-0,088	0,049
-234,059	800,000	-0,039	-0,104
-233,044	105,298	0,052	-0,043
-232,030	201,362	0,052	0,057
-231,015	40,168	0,051	-0,033
-230,000	-200,000	0,018	-0,089
-228,986	43,382	-0,066	0,043
-227,971	-181,541	-0,108	0,001
-226,957	64,247	0,235	0,168
-225,942	13,683	-0,034	-0,019
-224,927	-200,000	0,009	0,049
-223,913	-200,000	0,003	-0,029
-222,898	-49,135	-0,180	0,061
-221,884	-20,233	0,035	0,015
-220,869	606,037	0,042	0,074
-219,855	-200,000	-0,014	-0,077
-218,840	-81,021	-0,032	-0,007
-217,825	309,162	-0,025	-0,033
-216,811	-200,000	-0,017	-0,110
-215,796	-135,380	-0,043	-0,004
-214,782	14,344	0,050	-0,028
-213,767	-200,000	-0,021	0,176
-212,752	12,291	-0,087	-0,048
-211,738	-200,000	-0,004	0,024
-210,723	428,449	-0,046	0,070
-209,709	466,064	-0,074	-0,118
-208,694	421,312	0,093	-0,142
-207,679	-6,931	0,033	-0,016
-206,665	111,751	0,080	-0,068
-205,650	280,914	0,032	0,041
-204,636	-200,000	0,000	-0,020
-203,621	188,071	0,022	-0,024
-202,606	282,646	-0,044	0,056
-201,592	-93,927	-0,098	-0,019
-200,577	562,913	-0,028	0,049
-199,563	88,095	-0,068	-0,054
-198,548	-100,045	0,081	-0,014
-197,533	59,280	0,041	-0,029
-196,519	-92,951	-0,174	0,034
-195,504	266,069	-0,118	-0,147
-194,490	-200,000	0,019	-0,109
-193,475	510,173	-0,054	-0,090
-192,460	-200,000	0,014	-0,082
-191,446	186,941	0,137	0,146
-190,431	0,517	0,016	-0,008
-189,417	305,508	-0,135	0,179
-188,402	220,258	-0,092	-0,105
-187,387	-73,950	-0,031	0,008
-186,373	-200,000	0,014	0,098
-185,358	420,498	0,058	0,089
-184,344	161,483	0,073	-0,072
-183,329	222,497	-0,107	-0,123
-182,315	-112,640	0,080	0,011
-181,300	-25,218	-0,084	-0,035
-180,285	-49,786	-0,057	0,019
-179,271	800,000	0,040	-0,097
-178,256	800,000	0,035	0,072
-177,242	800,000	0,016	0,050
-176,227	-59,673	0,109	-0,033
-175,212	-7,915	0,060	-0,028
-174,198	-37,081	0,073	0,028
-173,183	559,926	-0,085	-0,146
-172,169	-200,000	0,036	-0,204
-171,154	-44,844	0,092	-0,033
-170,139	183,287	0,040	-0,043
-169,125	-200,000	0,013	0,083
-168,110	-200,000	0,027	-0,107
-167,096	40,418	0,032	0,020
-166,081	785,270	-0,077	-0,150
-165,066	197,226	0,067	0,073
-164,052	-200,000	0,083	-0,295
-163,037	-81,455	0,079	-0,018
-162,023	-112,312	0,111	0,016
-161,008	154,801	-0,083	-0,081
-159,993	48,389	0,061	0,041
-158,979	112,099	-0,095	0,082
-157,964	-173,300	-0,093	0,002
-156,950	136,070	0,045	-0,042
-155,935	-43,169	-0,018	0,006
-154,920	-200,000	0,026	0,092
-153,906	-200,000	0,042	0,179
-152,891	-59,372	-0,071	-0,022
-151,877	-69,929	-0,110	-0,030
-150,862	282,011	-0,024	0,031
-149,847	-56,405	-0,132	0,041
-148,833	-200,000	-0,007	0,040
-147,818	18,532	0,185	0,105
-146,804	-58,138	-0,076	0,023
-145,789	800,000	-0,020	0,042
-144,775	137,253	-0,083	0,077
-143,760	-38,990	-0,051	0,019
-142,745	-75,571	0,120	0,030
-141,731	-62,541	0,114	-0,033
-140,716	777,518	0,072	0,141
-139,702	-200,000	0,004	-0,096
-138,687	-122,785	0,092	-0,010
-137,672	571,654	-0,042	-0,074
-136,658	-187,452	-0,204	0,002
-135,643	297,875	-0,021	0,027
-134,629	101,677	-0,023	0,019
-133,614	188,894	0,087	0,093
-132,599	-60,522	-0,083	-0,025
-131,585	367,708	0,035	0,050
-130,570	-114,718	-0,136	-0,018
-129,556	-200,000	-0,006	-0,052
-128,541	-200,000	0,067	-0,250
-127,526	-200,000	0,011	-0,130
-126,512	-105,748	0,150	0,024
-125,497	278,871	-0,110	0,140
-124,483	-200,000	0,010	0,037
-123,468	-43,244	-0,041	-0,015
-122,453	428,297	-0,029	-0,044
-121,439	228,340	0,088	-0,102
-120,424	800,000	-0,062	-0,126
-119,410	-200,000	0,006	0,033
-118,395	-13,900	0,070	-0,032
-117,380	-200,000	-0,023	0,153
-116,366	800,000	-0,014	-0,041
-115,351	108,151	-0,127	0,107
-114,337	263,215	-0,089	-0,110
-113,322	109,705	0,055	-0,047
-112,307	134,304	-0,055	-0,050
-111,293	800,000	0,024	0,065
-110,278	800,000	-0,028	0,055
-109,264	-200,000	-0,026	-0,110
-108,249	422,977	-0,070	-0,107
-107,234	-200,000	-0,024	-0,087
-106,220	573,607	0,046	-0,080
-105,205	66,629	0,005	-0,004
-104,191	-200,000	0,008	0,037
-103,176	-200,000	0,023	0,156
-102,162	774,962	-0,030	0,058
-101,147	-200,000	0,003	0,061
-100,132	710,781	-0,085	-0,160
-99,118	800,000	-0,086	-0,188
-98,103	800,000	-0,045	-0,103
-97,089	132,118	0,021	0,019
-96,074	70,449	0,047	-0,035
-95,059	-200,000	0,021	0,172
-94,045	-81,297	0,036	0,008
-93,030	-196,606	-0,204	-0,001
-92,016	73,564	-0,048	-0,035
-91,001	-200,000	0,002	-0,054
-89,986	373,713	-0,045	-0,065
-88,972	800,000	0,065	0,132
-87,957	37,083	-0,030	-0,019
-86,943	110,640	0,104	-0,088
-85,928	54,806	-0,108	-0,074
-84,913	-117,716	-0,098	0,012
-83,899	800,000	-0,079	0,170
-82,884	537,566	0,054	0,090
-81,870	207,760	0,066	-0,074
-80,855	-76,505	0,187	0,046
-79,840	-54,788	0,060	-0,019
-78,826	800,000	0,032	-0,090
-77,811	577,778	-0,030	0,051
-76,797	-128,769	-0,034	-0,003
-75,782	800,000	0,039	0,086
-74,767	460,366	0,072	-0,114
-73,753	-200,000	-0,001	-0,061
-72,738	-124,881	0,092	0,010
-71,724	82,400	-0,048	-0,037
-70,709	302,535	0,051	-0,067
-69,694	-66,846	0,156	-0,043
-68,680	-200,000	0,018	0,194
-67,665	-145,257	-0,148	-0,009
-66,651	130,720	0,038	0,034
-65,636	-200,000	-0,126	0,000
-64,622	-200,000	0,020	0,063
-63,607	77,360	-0,122	-0,092
-62,592	131,561	0,115	0,105
-61,578	-155,792	0,055	-0,002
-60,563	105,849	0,262	-0,220
-59,549	800,000	-0,068	0,143
-58,534	69,290	-2,822	-2,053
-57,519	18,698	0,484	-0,274
-56,505	800,000	-1,763	-5,474
-55,490	278,567	1,227	1,552
-54,476	800,000	5,448	11,853
-53,461	-200,000	21,924	341,847
-52,446	800,000	761,410	2282,859
-51,432	516,310	1654,398	2746,811
-50,417	66,732	1662,446	1195,847
-49,403	15,261	1581,171	875,096
-48,388	10,074	1533,972	822,448
-47,373	18,396	1527,701	861,319
-46,359	13,330	1516,264	829,341
-45,344	8,548	1512,365	803,066
-44,330	8,495	1510,284	801,658
-43,315	8,391	1508,774	800,302
-42,300	8,433	1506,764	799,419
-41,286	8,418	1505,194	798,475
-40,271	8,377	1503,744	797,471
-39,257	8,399	1502,240	796,750
-38,242	8,420	1500,909	796,116
-37,227	8,403	1499,505	795,257
-36,213	8,357	1498,235	794,323
-35,198	8,365	1497,004	793,677
-34,184	8,399	1495,670	793,110
-33,169	8,392	1494,067	792,194
-32,154	8,443	1492,712	791,696
-31,140	8,441	1491,220	790,865
-30,125	8,407	1489,959	789,992
-29,111	8,416	1488,659	789,321
-28,096	8,424	1487,728	788,835
-27,082	8,442	1486,755	788,377
-26,067	8,421	1485,423	787,534
-25,052	8,393	1484,360	786,798
-24,038	8,372	1483,151	786,023
-23,023	8,334	1482,371	785,392
-22,009	8,357	1481,510	785,017
-20,994	8,470	1480,162	784,832
-19,979	8,460	1479,038	784,152
-18,965	8,414	1478,025	783,358
-17,950	8,425	1477,174	782,929
-16,936	8,406	1476,154	782,265
-15,921	8,376	1474,850	781,396
-14,906	8,304	1473,826	780,471
-13,892	8,290	1472,894	779,876
-12,877	8,289	1472,036	779,386
-11,863	8,257	1470,840	778,561
-10,848	8,309	1469,845	778,260
-9,833	8,382	1469,044	778,166
-8,819	8,356	1468,272	777,596
-7,804	8,316	1467,155	776,777
-6,790	8,323	1466,412	776,391
-5,775	8,329	1465,624	775,968
-4,760	8,403	1464,509	775,711
-3,746	8,302	1463,593	774,701
-2,731	8,182	1462,444	773,478
-1,717	8,136	1461,376	772,657
-0,702	8,118	1460,365	772,003
0,313	7,975	1459,255	771,888
1,327	11,612	1456,581	788,076
2,342	20,720	1216,978	695,141
3,356	16,574	683,034	380,747
4,371	-11,306	463,019	214,822
5,386	-14,469	435,580	197,418
6,400	-15,511	426,744	191,892
7,415	-15,108	423,177	190,848
8,429	-16,648	420,322	187,355
9,444	-16,773	418,900	186,528
10,459	-16,988	417,724	185,683
11,473	-17,127	416,888	185,100
12,488	-17,212	415,942	184,543
13,502	-17,288	415,133	184,062
14,517	-17,210	414,212	183,746
15,531	-17,458	413,432	183,037
16,546	-17,608	412,783	182,524
17,561	-17,590	412,173	182,262
18,575	-17,685	411,673	181,893
19,590	-17,599	411,100	181,743
20,604	-17,548	410,643	181,597
21,619	-17,523	409,878	181,277
22,634	-17,559	409,459	181,025
23,648	-17,647	408,977	180,674
24,663	-17,833	408,628	180,247
25,677	-17,702	408,251	180,245
26,692	-17,611	407,738	180,128
27,707	-17,719	407,366	179,800
28,721	-17,664	407,005	179,700
29,736	-17,604	406,432	179,513
30,750	-17,685	406,017	179,203
31,765	-17,626	405,654	179,107
32,780	-17,760	405,387	178,789
33,794	-17,752	404,861	178,553
34,809	-17,805	404,460	178,288
35,823	-17,775	403,864	178,050
36,838	-17,748	403,627	177,967
37,853	-17,727	403,223	177,801
38,867	-17,587	402,799	177,788
39,882	-17,728	402,565	177,478
40,896	-17,703	402,124	177,301
41,911	-17,726	401,688	177,063
42,926	-17,720	401,379	176,918
43,940	-17,628	400,919	176,824
44,955	-17,742	400,581	176,506
45,969	-17,841	400,259	176,215
46,984	-17,874	400,075	176,073
47,999	-17,817	399,602	175,926
49,013	-17,839	399,227	175,715
50,028	-17,958	398,781	175,343
51,042	-17,955	398,495	175,207
52,057	-17,929	398,091	175,048
53,071	-18,047	397,814	174,752
54,086	-17,801	397,409	174,888
55,101	-17,774	397,179	174,808
56,115	-17,758	396,967	174,720
57,130	-17,575	396,648	174,809
58,144	-17,411	396,194	174,812
59,159	-17,420	395,776	174,600
60,174	-17,397	395,379	174,440
61,188	-17,443	395,124	174,250
62,203	-17,587	394,772	173,888
63,217	-17,390	394,234	173,898
64,232	-17,411	394,101	173,796
65,247	-17,526	393,778	173,485
66,261	-17,562	393,381	173,246
67,276	-17,766	392,954	172,774
68,290	-17,722	392,409	172,576
69,305	-17,745	392,291	172,479
70,320	-17,704	391,860	172,328
71,334	-17,729	391,699	172,209
72,349	-17,520	391,391	172,334
73,363	-17,403	391,032	172,313
74,378	-17,383	390,540	172,108
75,393	-17,427	390,407	171,976
76,407	-17,629	389,951	171,495
77,422	-17,497	389,758	171,568
78,436	-17,481	389,402	171,417
79,451	-17,521	389,007	171,176
80,466	-17,516	388,484	170,937
81,480	-17,532	388,059	170,714
82,495	-17,663	387,820	170,422
83,509	-17,556	387,704	170,495
84,524	-17,677	387,373	170,178
85,539	-17,608	386,917	170,051
86,553	-17,593	386,536	169,889
87,568	-17,570	386,249	169,777
88,582	-17,662	385,890	169,484
89,597	-17,618	385,701	169,443
90,611	-17,586	385,389	169,333
91,626	-17,448	385,318	169,466
92,641	-17,530	384,825	169,127
93,655	-17,603	384,592	168,915
94,670	-17,661	384,249	168,675
95,684	-17,464	383,755	168,697
96,699	-17,600	383,813	168,532
97,714	-17,512	383,325	168,416
98,728	-17,704	383,015	168,018
99,743	-17,623	382,608	167,929
100,757	-17,670	382,258	167,700
101,772	-17,666	382,246	167,685
102,787	-17,505	381,634	167,607
103,801	-17,583	381,513	167,439
104,816	-17,610	381,221	167,262
105,830	-17,374	380,887	167,401
106,845	-17,367	380,613	167,275
107,860	-17,276	380,318	167,247
108,874	-17,410	380,068	166,951
109,889	-17,359	379,582	166,787
110,903	-17,409	379,433	166,644
111,918	-17,502	379,126	166,376
112,933	-17,379	378,698	166,329
113,947	-17,416	378,699	166,268
114,962	-17,259	378,180	166,224
115,976	-17,400	377,912	165,914
116,991	-17,378	377,615	165,795
118,006	-17,464	377,323	165,544
119,020	-17,397	377,142	165,535
120,035	-17,334	376,963	165,521
121,049	-17,271	376,503	165,384
122,064	-17,236	376,370	165,355
123,079	-17,320	375,970	165,058
124,093	-17,351	375,707	164,889
125,108	-17,621	375,344	164,375
126,122	-17,608	374,796	164,137
127,137	-17,618	374,602	164,026
128,151	-17,538	374,424	164,032
129,166	-17,498	374,053	163,906
130,181	-17,551	373,691	163,667
131,195	-17,558	373,502	163,560
132,210	-17,500	373,374	163,562
133,224	-17,339	373,105	163,630
134,239	-17,275	372,548	163,451
135,254	-17,329	372,580	163,384
136,268	-17,417	372,233	163,107
137,283	-17,485	371,695	162,773
138,297	-17,704	371,489	162,395
139,312	-17,403	370,990	162,537
140,327	-17,301	370,829	162,578
141,341	-17,205	370,708	162,629
142,356	-17,154	370,573	162,619
143,370	-17,181	370,179	162,398
144,385	-17,310	369,938	162,118
145,400	-17,178	369,548	162,096
146,414	-17,394	369,426	161,762
147,429	-17,272	369,061	161,737
148,443	-17,190	368,855	161,734
149,458	-17,210	368,679	161,617
150,473	-17,120	368,314	161,554
151,487	-17,021	367,842	161,454
152,502	-17,223	367,717	161,137
153,516	-17,283	367,547	160,974
154,531	-17,178	367,163	160,920
155,546	-17,157	366,841	160,790
156,560	-17,258	366,713	160,596
157,575	-17,240	366,380	160,458
158,589	-17,295	366,209	160,302
159,604	-17,224	365,819	160,203
160,619	-17,200	365,576	160,112
161,633	-17,258	365,330	159,920
162,648	-17,294	364,996	159,715
163,662	-17,152	364,840	159,805
164,677	-17,265	364,677	159,582
165,692	-17,144	364,264	159,534
166,706	-17,097	364,137	159,522
167,721	-17,173	363,778	159,257
168,735	-16,925	363,455	159,403
169,750	-17,262	363,511	159,005
170,764	-17,124	363,159	159,005
171,779	-17,145	362,912	158,856
172,794	-17,077	362,750	158,853
173,808	-17,193	362,364	158,530
174,823	-17,424	362,119	158,129
175,837	-17,489	361,724	157,864
176,852	-17,271	361,588	158,054
177,867	-17,120	361,445	158,160
178,881	-17,077	361,284	158,126
179,896	-17,003	360,636	157,918
180,910	-16,985	360,415	157,829
181,925	-17,043	360,194	157,649
182,940	-17,144	359,988	157,423
183,954	-17,141	359,803	157,331
184,969	-17,103	359,623	157,284
185,983	-17,114	359,392	157,156
186,998	-17,017	359,077	157,120
188,013	-17,054	358,967	157,014
189,027	-17,011	358,657	156,916
190,042	-17,059	358,393	156,729
191,056	-16,987	358,197	156,715
192,071	-16,931	357,975	156,671
193,086	-16,891	357,724	156,594
194,100	-16,331	357,714	157,243
195,115	-15,556	357,713	158,149
196,129	-14,599	358,370	159,567
197,144	-10,657	360,103	165,041
198,159	-7,368	361,724	169,717
199,173	-4,268	362,780	173,922
200,188	-3,649	363,079	174,794
201,202	-3,405	362,956	175,012
202,217	-3,325	362,776	175,005
203,232	-2,884	362,551	175,410
204,246	-3,044	362,337	175,099
205,261	-2,991	362,161	175,062
206,275	-2,784	361,872	175,155
207,290	-2,863	361,682	174,953
208,304	-2,774	361,447	174,929
209,319	-2,770	361,173	174,786
210,334	-2,790	360,852	174,592
211,348	-2,803	360,741	174,507
212,363	-2,802	360,560	174,404
213,377	-2,537	360,336	174,596
214,392	-2,726	360,137	174,259
215,407	-2,663	359,864	174,187
216,421	-2,686	359,623	174,027
217,436	-2,683	359,287	173,853
218,450	-2,634	359,071	173,791
219,465	-2,562	358,935	173,795
220,480	-2,607	358,637	173,581
221,494	-2,530	358,409	173,547
222,509	-2,493	358,125	173,437
223,523	-2,709	358,010	173,111
224,538	-2,702	357,803	173,004
225,553	-2,694	357,620	172,910
226,567	-2,551	357,202	172,861
227,582	-2,587	357,017	172,713
228,596	-2,623	356,804	172,553
229,611	-2,552	356,670	172,555
230,626	-2,678	356,254	172,191
231,640	-2,641	356,027	172,109
232,655	-2,700	355,747	171,889
233,669	-2,588	355,731	171,997
234,684	-2,775	355,450	171,627
235,699	-2,605	355,137	171,659
236,713	-2,634	354,868	171,481
237,728	-2,539	354,748	171,519
238,742	-2,610	354,454	171,278
239,757	-2,527	354,063	171,171
240,772	-2,627	353,853	170,938
241,786	-2,457	353,751	171,071
242,801	-2,587	353,542	170,803
243,815	-2,471	353,231	170,773
244,830	-2,550	352,939	170,524
245,844	-2,351	352,870	170,707
246,859	-2,487	352,484	170,347
247,874	-2,425	352,227	170,280
248,888	-2,508	352,003	170,061
249,903	-2,536	351,808	169,918
250,917	-2,460	351,592	169,887
251,932	-2,427	351,428	169,830
252,947	-2,393	351,112	169,702
253,961	-2,566	350,943	169,406
254,976	-2,479	350,675	169,362
255,990	-2,505	350,570	169,265
257,005	-2,635	350,399	169,018
258,020	-2,386	349,996	169,095
259,034	-2,431	349,863	168,964
260,049	-2,402	349,732	168,919
261,063	-2,447	349,471	168,727
262,078	-2,424	349,119	168,568
263,093	-2,478	348,919	168,394
264,107	-2,440	348,631	168,284
265,122	-2,518	348,548	168,139
266,136	-2,490	348,353	168,062
267,151	-2,288	347,964	168,090
268,166	-2,450	347,832	167,827
269,180	-2,564	347,577	167,558
270,195	-2,368	347,316	167,641
271,209	-2,403	347,134	167,498
272,224	-2,511	346,996	167,294
273,239	-2,418	346,772	167,277
274,253	-2,493	346,374	166,985
275,268	-2,378	346,126	166,981
276,282	-2,213	345,904	167,047
277,297	-2,532	345,814	166,626
278,312	-2,466	345,649	166,607
279,326	-2,431	345,370	166,497
280,341	-2,349	345,099	166,444
281,355	-2,368	344,913	166,318
282,370	-2,305	344,691	166,267
283,384	-2,460	344,282	165,880
284,399	-2,390	344,308	165,957
285,414	-2,329	344,134	165,928
286,428	-2,338	343,860	165,770
287,443	-2,483	343,722	165,525
288,457	-2,316	343,333	165,512
289,472	-2,349	343,147	165,370
290,487	-2,280	342,917	165,322
291,501	-2,369	342,590	165,050
292,516	-2,225	342,609	165,206
293,530	-2,225	342,252	165,019
294,545	-2,106	341,946	164,991
295,560	-2,320	341,914	164,720
296,574	-2,068	341,687	164,879
297,589	-2,076	341,474	164,752
298,603	-2,155	341,175	164,504
299,618	-2,179	340,952	164,356
300,633	-2,169	340,738	164,249
301,647	-2,065	340,455	164,214
302,662	-2,227	340,367	163,976
303,676	-2,252	340,197	163,852
304,691	-2,255	339,915	163,698
305,706	-2,166	339,665	163,661
306,720	-2,181	339,346	163,477
307,735	-2,317	339,332	163,304
308,749	-2,056	338,991	163,416
309,764	-2,072	338,635	163,212
310,779	-2,084	338,550	163,143
311,793	-2,146	338,395	162,985
312,808	-1,989	338,237	163,068
313,822	-2,041	337,741	162,757
314,837	-2,047	337,649	162,692
315,852	-2,092	337,527	162,569
316,866	-2,152	337,536	162,492
317,881	-2,198	337,285	162,305
318,895	-2,032	336,809	162,245
319,910	-2,110	336,615	162,051
320,925	-2,061	336,484	162,029
321,939	-1,966	336,150	161,956
322,954	-2,062	336,116	161,821
323,968	-2,073	335,861	161,672
324,983	-1,815	335,505	161,768
325,997	-1,885	335,301	161,579
327,012	-2,079	335,209	161,308
328,027	-2,174	334,944	161,061
329,041	-2,028	334,602	161,043
330,056	-2,018	334,482	160,982
331,070	-1,954	334,359	160,978
332,085	-1,896	334,094	160,899
333,100	-1,964	333,914	160,725
334,114	-1,753	333,653	160,814
335,129	-2,018	333,516	160,444
336,143	-1,909	333,090	160,344
337,158	-1,985	333,051	160,229
338,173	-2,014	332,850	160,086
339,187	-1,932	332,608	160,044
340,202	-2,087	332,330	159,729
341,216	-1,945	332,139	159,776
342,231	-1,943	331,890	159,644
343,246	-1,879	331,678	159,597
344,260	-1,768	331,355	159,548
345,275	-1,835	331,101	159,338
346,289	-1,985	331,082	159,154
347,304	-1,954	330,934	159,101
348,319	-1,830	330,588	159,055
349,333	-1,790	330,564	159,072
350,348	-1,977	330,279	158,719
351,362	-1,964	330,015	158,592
352,377	-1,905	329,859	158,567
353,392	-1,737	329,663	158,639
354,406	-1,839	329,514	158,444
355,421	196,756	1324,556	1385,927
356,435	161,007	1445,595	1385,764
