DTS Sentinel unit serial number:	SN410029Multiplexer serial number:	ORYXHardware model number:	OX2-SRSoftware version number:	ORYX F/W v4,00 Oryx Data Collector v3.7.2.0data status	okinstallation	B6 Nyhavnadifferential loss correction	single-endedforward channel	channel 2reverse channel	N/Adate	2023/12/10time	01:20:08forward acquisition time	300,00reverse acquisition time	0,00gamma	499,1914k internal	0,3126k external	0,3126temperature offset calibration	1,0000default loss term (dB/km)	0,3820temperature slope calibration	1,0000multiplexer offset coefficient	1,0000multiplexer slope coefficient	1,0000fibre end	0,00T internal ref (°C)	21,91T ext. ref 1 (°C)	5,69T ext. ref 2 (°C)	5,69length (m)	temperature (°C)	Stokes	anti-Stokes-744,400	800,000	0,051	-0,108
-743,385	-99,155	-0,242	0,045
-742,371	405,109	0,033	-0,052
-741,356	-49,032	-0,156	-0,055
-740,342	-88,976	0,063	0,014
-739,327	-14,611	-0,265	0,127
-738,312	-200,000	0,006	-0,101
-737,298	-107,221	-0,264	0,043
-736,283	77,371	-0,022	0,017
-735,269	130,947	-0,212	0,202
-734,254	-200,000	0,002	0,056
-733,239	-98,599	-0,428	-0,081
-732,225	-32,003	0,077	-0,032
-731,210	800,000	0,040	-0,114
-730,196	-4,576	-0,045	-0,023
-729,181	59,995	-0,075	-0,055
-728,167	-200,000	0,005	-0,057
-727,152	-200,000	0,033	-0,130
-726,137	30,574	-0,081	0,051
-725,123	800,000	-0,023	-0,072
-724,108	800,000	-0,059	-0,178
-723,094	83,567	0,083	0,067
-722,079	-45,288	-0,157	0,058
-721,064	800,000	0,045	0,124
-720,050	-38,447	-0,109	0,043
-719,035	-76,854	-0,111	0,029
-718,021	245,897	-0,036	-0,045
-717,006	-140,279	-0,136	0,010
-715,991	276,918	-0,026	0,034
-714,977	-168,158	-0,027	-0,001
-713,962	121,861	-0,079	0,073
-712,948	-53,722	-0,122	-0,041
-711,933	414,420	-0,085	0,136
-710,918	-50,213	0,016	0,006
-709,904	-44,612	0,089	0,033
-708,889	800,000	-0,085	-0,246
-707,875	-87,254	-0,202	-0,045
-706,860	-200,000	-0,012	-0,139
-705,845	-69,294	-0,071	0,020
-704,831	511,701	-0,045	0,078
-703,816	337,587	-0,080	0,116
-702,802	65,053	0,032	-0,024
-701,787	800,000	-0,040	-0,112
-700,772	-200,000	0,013	-0,146
-699,758	54,320	0,010	0,007
-698,743	544,540	0,054	-0,097
-697,729	-200,000	-0,006	-0,062
-696,714	558,308	0,083	0,150
-695,699	800,000	-0,020	-0,062
-694,685	193,140	0,021	0,024
-693,670	-85,435	-0,049	-0,011
-692,656	-200,000	0,007	0,137
-691,641	319,760	-0,126	-0,178
-690,627	190,601	0,030	0,034
-689,612	-104,974	-0,013	0,002
-688,597	755,466	0,043	-0,087
-687,583	14,382	-0,084	0,049
-686,568	15,893	-0,079	0,046
-685,554	-131,672	-0,023	-0,002
-684,539	-200,000	0,001	-0,046
-683,524	-104,810	-0,062	0,011
-682,510	-62,487	-0,048	-0,015
-681,495	-40,502	0,047	-0,018
-680,481	-173,169	-0,116	0,003
-679,466	-200,000	-0,004	-0,098
-678,451	-151,356	-0,040	-0,002
-677,437	-200,000	-0,032	0,150
-676,422	-122,724	-0,143	-0,017
-675,408	-200,000	0,006	-0,074
-674,393	-200,000	0,006	-0,077
-673,378	-200,000	-0,007	-0,067
-672,364	-200,000	-0,039	0,164
-671,349	98,711	-0,042	-0,036
-670,335	167,854	0,042	-0,045
-669,320	87,554	0,074	-0,061
-668,305	-129,790	-0,066	0,007
-667,291	755,297	-0,040	-0,081
-666,276	800,000	-0,052	0,109
-665,262	4,672	-0,168	-0,092
-664,247	117,236	-0,062	-0,057
-663,232	-17,156	-0,107	-0,050
-662,218	93,474	0,133	0,112
-661,203	10,791	0,174	0,098
-660,189	252,172	-0,070	-0,088
-659,174	22,888	-0,152	0,092
-658,159	800,000	0,031	-0,084
-657,145	96,763	0,024	0,020
-656,130	142,775	0,029	-0,029
-655,116	26,180	-0,128	-0,079
-654,101	-200,000	-0,004	0,121
-653,086	102,350	0,074	-0,065
-652,072	-152,601	-0,106	-0,006
-651,057	86,407	-0,135	-0,110
-650,043	773,753	-0,013	0,026
-649,028	-34,825	-0,089	0,036
-648,014	-130,963	0,117	-0,011
-646,999	108,554	-0,057	0,051
-645,984	800,000	0,019	0,043
-644,970	-27,964	0,054	-0,023
-643,955	-43,655	-0,145	-0,054
-642,941	-200,000	-0,020	-0,075
-641,926	-185,359	0,135	0,002
-640,911	-29,160	-0,020	-0,008
-639,897	-14,669	0,108	-0,051
-638,882	-70,804	-0,078	-0,022
-637,868	590,835	0,041	0,076
-636,853	-200,000	-0,011	0,101
-635,838	-24,205	-0,079	-0,035
-634,824	69,662	0,037	0,028
-633,809	261,054	-0,018	0,023
-632,795	683,180	-0,065	0,127
-631,780	800,000	-0,071	0,207
-630,765	-106,064	-0,173	0,029
-629,751	12,507	0,069	0,039
-628,736	11,172	-0,077	-0,043
-627,722	-200,000	0,006	-0,070
-626,707	447,352	-0,025	0,041
-625,692	117,154	-0,083	-0,076
-624,678	800,000	-0,082	-0,215
-623,663	-44,454	0,039	0,014
-622,649	-198,657	0,070	-0,000
-621,634	-200,000	0,019	-0,158
-620,619	-200,000	-0,026	0,172
-619,605	-53,384	0,064	-0,021
-618,590	161,579	0,044	-0,046
-617,576	21,225	-0,022	0,013
-616,561	134,827	0,068	-0,065
-615,546	719,905	-0,088	-0,175
-614,532	-56,294	-0,068	-0,022
-613,517	-119,184	-0,052	0,007
-612,503	683,956	-0,049	0,096
-611,488	27,801	0,080	-0,050
-610,474	269,468	0,034	-0,044
-609,459	515,891	-0,057	-0,099
-608,444	-77,561	-0,075	-0,019
-607,430	800,000	0,047	-0,130
-606,415	-40,556	-0,011	-0,004
-605,401	-200,000	0,011	0,095
-604,386	694,879	0,025	0,048
-603,371	10,687	-0,014	-0,008
-602,357	-115,910	0,027	-0,004
-601,342	-200,000	0,027	-0,113
-600,328	-111,974	-0,143	-0,021
-599,313	-71,321	-0,064	-0,018
-598,298	-200,000	-0,012	-0,080
-597,284	-126,425	0,022	-0,002
-596,269	800,000	-0,045	0,096
-595,255	259,672	0,050	0,064
-594,240	247,381	-0,093	0,117
-593,225	55,498	-0,032	-0,023
-592,211	146,443	-0,028	-0,028
-591,196	-200,000	-0,006	0,065
-590,182	326,171	-0,071	0,101
-589,167	145,263	-0,082	0,081
-588,152	-191,090	-0,110	-0,001
-587,138	-200,000	0,001	-0,029
-586,123	47,010	0,035	0,024
-585,109	-66,422	0,189	-0,055
-584,094	71,281	-0,034	-0,026
-583,079	24,480	0,024	0,015
-582,065	-156,774	0,098	-0,004
-581,050	-93,661	-0,146	-0,029
-580,036	-200,000	-0,005	-0,050
-579,021	179,539	-0,044	-0,048
-578,006	-200,000	-0,008	0,071
-576,992	-200,000	0,025	-0,222
-575,977	-4,655	0,070	0,036
-574,963	-200,000	-0,033	0,195
-573,948	-200,000	-0,001	0,111
-572,934	-33,466	-0,099	-0,040
-571,919	800,000	-0,009	-0,024
-570,904	-66,340	-0,112	0,033
-569,890	-64,325	-0,037	0,011
-568,875	-16,431	0,061	0,028
-567,861	62,626	-0,048	0,035
-566,846	800,000	0,012	0,037
-565,831	370,568	0,063	0,094
-564,817	86,655	-0,031	-0,025
-563,802	74,901	-0,082	-0,064
-562,788	130,173	-0,032	0,030
-561,773	-65,936	0,099	0,029
-560,758	105,269	0,051	-0,045
-559,744	298,476	0,098	-0,134
-558,729	-200,000	0,028	-0,199
-557,715	301,359	-0,074	0,102
-556,700	98,214	0,068	0,058
-555,685	321,430	-0,053	0,074
-554,671	3,851	0,114	0,061
-553,656	-95,048	0,053	-0,011
-552,642	-182,570	-0,049	0,001
-551,627	-19,854	0,063	0,028
-550,612	22,160	0,085	0,051
-549,598	800,000	-0,022	0,057
-548,583	13,974	-0,121	-0,070
-547,569	-123,315	0,062	-0,007
-546,554	28,053	-0,119	-0,074
-545,539	146,622	0,059	-0,058
-544,525	418,135	-0,089	0,141
-543,510	482,627	-0,063	0,107
-542,496	-200,000	0,006	-0,030
-541,481	257,271	0,077	0,098
-540,466	-162,372	-0,027	-0,001
-539,452	230,375	0,095	-0,115
-538,437	-116,351	0,070	0,009
-537,423	53,520	-0,118	0,083
-536,408	-200,000	0,019	0,084
-535,393	800,000	0,042	0,100
-534,379	607,019	-0,083	-0,153
-533,364	-200,000	0,040	-0,154
-532,350	35,552	-0,120	0,077
-531,335	-200,000	0,002	0,047
-530,321	438,087	0,027	-0,044
-529,306	-163,515	0,017	0,001
-528,291	800,000	0,057	-0,130
-527,277	-100,725	-0,158	-0,028
-526,262	279,537	0,110	-0,146
-525,248	52,000	0,029	0,021
-524,233	-43,264	0,188	-0,070
-523,218	-200,000	-0,010	-0,043
-522,204	-67,148	-0,140	0,040
-521,189	118,407	-0,132	-0,120
-520,175	-200,000	-0,046	-0,208
-519,160	-128,732	0,134	0,014
-518,145	-200,000	0,024	0,086
-517,131	-200,000	0,005	0,108
-516,116	-200,000	0,009	0,174
-515,102	-200,000	-0,004	0,039
-514,087	800,000	0,028	-0,067
-513,072	-200,000	-0,009	-0,037
-512,058	42,542	-0,066	0,044
-511,043	800,000	0,028	0,084
-510,029	239,835	0,056	0,069
-509,014	-72,136	0,047	-0,013
-507,999	-200,000	0,001	0,064
-506,985	800,000	-0,054	-0,155
-505,970	404,374	0,028	-0,044
-504,956	3,785	-0,044	-0,024
-503,941	-35,994	-0,041	-0,016
-502,926	109,700	0,065	0,058
-501,912	-200,000	-0,001	0,086
-500,897	636,640	0,048	0,091
-499,883	800,000	0,006	-0,019
-498,868	41,462	0,065	-0,043
-497,853	92,372	-0,057	0,048
-496,839	-200,000	-0,005	-0,015
-495,824	375,725	0,031	0,047
-494,810	-53,611	-0,044	0,015
-493,795	267,671	0,064	0,083
-492,781	-156,846	0,052	-0,002
-491,766	-109,289	-0,088	-0,014
-490,751	84,054	-0,053	-0,043
-489,737	-200,000	0,002	-0,016
-488,722	142,483	0,018	-0,018
-487,708	-26,929	0,155	-0,066
-486,693	286,003	-0,105	-0,140
-485,678	800,000	-0,041	0,122
-484,664	578,424	-0,009	-0,016
-483,649	-200,000	0,003	0,052
-482,635	-200,000	-0,006	0,111
-481,620	224,444	-0,024	0,028
-480,605	-138,782	0,156	0,012
-479,591	184,118	-0,074	-0,081
-478,576	416,596	-0,056	0,089
-477,562	-29,000	-0,092	0,039
-476,547	-130,159	-0,090	0,009
-475,532	715,780	0,022	0,043
-474,518	800,000	0,058	-0,144
-473,503	-200,000	0,007	-0,059
-472,489	-56,720	0,107	-0,035
-471,474	-85,820	-0,069	0,016
-470,459	-93,033	-0,097	-0,020
-469,445	-162,927	-0,096	-0,003
-468,430	31,462	-0,183	0,116
-467,416	25,156	-0,102	-0,062
-466,401	236,896	0,060	0,073
-465,386	409,281	0,025	-0,039
-464,372	195,765	-0,084	0,094
-463,357	-200,000	-0,006	0,044
-462,343	501,008	-0,014	-0,025
-461,328	105,602	-0,166	-0,145
-460,313	-53,344	0,079	0,026
-459,299	-30,017	0,120	0,050
-458,284	-20,396	-0,024	-0,011
-457,270	416,916	-0,009	0,015
-456,255	-200,000	-0,002	0,017
-455,241	127,952	-0,043	-0,041
-454,226	-10,053	-0,005	0,002
-453,211	-55,716	-0,082	0,027
-452,197	-136,473	0,121	-0,010
-451,182	-0,746	-0,031	-0,016
-450,168	496,466	0,039	0,066
-449,153	466,013	0,042	0,070
-448,138	85,947	0,020	-0,016
-447,124	-200,000	-0,007	0,071
-446,109	25,969	0,092	0,056
-445,095	-200,000	-0,012	0,078
-444,080	431,753	-0,056	-0,089
-443,065	800,000	0,025	0,057
-442,051	-10,684	-0,105	-0,051
-441,036	-200,000	-0,027	-0,089
-440,022	61,070	0,053	0,039
-439,007	-200,000	0,009	-0,065
-437,992	-114,306	-0,028	-0,004
-436,978	345,184	0,058	0,083
-435,963	8,622	0,040	0,022
-434,949	-25,026	-0,057	0,025
-433,934	59,788	0,039	0,028
-432,919	585,347	-0,029	-0,053
-431,905	-200,000	0,017	0,069
-430,890	438,561	0,041	0,067
-429,876	456,891	0,055	-0,091
-428,861	-77,539	-0,046	0,012
-427,846	-200,000	0,002	0,037
-426,832	85,865	-0,071	-0,057
-425,817	800,000	-0,059	-0,127
-424,803	800,000	0,018	-0,045
-423,788	-21,202	0,046	-0,021
-422,773	327,124	-0,043	0,061
-421,759	0,941	0,053	-0,028
-420,744	59,204	-0,084	-0,060
-419,730	-200,000	-0,013	0,041
-418,715	187,289	-0,055	-0,060
-417,701	-134,841	-0,080	0,007
-416,686	569,307	0,020	0,036
-415,671	-40,766	0,117	0,044
-414,657	-3,693	-0,032	0,016
-413,642	-71,046	-0,072	-0,020
-412,628	257,283	0,080	-0,101
-411,613	-200,000	-0,002	-0,136
-410,598	-17,740	-0,180	-0,083
-409,584	-200,000	0,002	-0,042
-408,569	-200,000	0,005	0,042
-407,555	-163,697	0,139	-0,005
-406,540	-200,000	-0,015	0,129
-405,525	-200,000	0,003	0,084
-404,511	181,112	0,044	0,048
-403,496	29,091	-0,081	0,050
-402,482	30,690	0,116	0,073
-401,467	-27,910	0,059	-0,025
-400,452	123,227	0,114	0,105
-399,438	131,916	0,110	0,104
-398,423	-7,678	-0,078	-0,038
-397,409	-200,000	0,058	0,187
-396,394	-200,000	0,004	0,049
-395,379	-200,000	0,016	-0,102
-394,365	-15,320	0,021	-0,010
-393,350	-200,000	0,024	0,154
-392,336	583,474	0,058	-0,105
-391,321	-24,954	-0,069	-0,030
-390,306	-200,000	0,065	0,000
-389,292	800,000	-0,008	-0,017
-388,277	13,121	-0,144	0,082
-387,263	-107,921	0,129	-0,020
-386,248	-4,229	0,132	-0,067
-385,233	-102,201	0,032	-0,006
-384,219	-200,000	0,025	-0,109
-383,204	-200,000	0,017	0,069
-382,190	800,000	0,027	-0,087
-381,175	-117,130	-0,045	0,006
-380,160	-119,284	0,169	0,021
-379,146	257,388	-0,063	-0,080
-378,131	-49,682	0,068	0,024
-377,117	125,040	0,056	-0,052
-376,102	608,187	-0,049	0,089
-375,088	183,774	0,025	0,027
-374,073	-145,245	-0,089	0,006
-373,058	558,674	0,028	-0,050
-372,044	-200,000	-0,001	0,163
-371,029	-32,850	0,021	-0,009
-370,015	-200,000	-0,002	0,036
-369,000	275,719	-0,070	-0,092
-367,985	-128,422	-0,175	-0,018
-366,971	5,171	-0,054	-0,029
-365,956	319,573	0,030	-0,042
-364,942	-68,607	0,135	-0,038
-363,927	-56,868	0,015	0,005
-362,912	800,000	-0,006	0,015
-361,898	-6,971	0,137	-0,068
-360,883	215,654	-0,094	0,110
-359,869	-200,000	-0,003	-0,195
-358,854	272,124	0,014	0,018
-357,839	-84,747	-0,104	-0,024
-356,825	-2,378	0,089	0,045
-355,810	436,163	-0,041	-0,066
-354,796	-151,766	0,066	0,003
-353,781	-70,865	-0,027	0,007
-352,766	692,116	0,036	0,069
-351,752	6,059	-0,199	0,108
-350,737	404,798	-0,032	0,049
-349,723	-200,000	-0,006	0,073
-348,708	1,581	0,135	0,071
-347,693	-43,694	-0,147	-0,054
-346,679	-141,964	0,067	0,005
-345,664	-200,000	0,003	0,065
-344,650	477,721	-0,024	-0,040
-343,635	800,000	-0,033	0,102
-342,620	-200,000	-0,003	-0,012
-341,606	24,087	0,151	0,091
-340,591	-4,546	-0,067	0,034
-339,577	-200,000	-0,005	-0,017
-338,562	-131,411	-0,037	-0,004
-337,548	224,613	0,041	0,048
-336,533	-46,223	0,074	0,026
-335,518	23,476	-0,093	0,056
-334,504	1,334	0,077	0,040
-333,489	-200,000	0,004	0,072
-332,475	-200,000	0,006	0,144
-331,460	28,359	0,105	-0,065
-330,445	800,000	0,019	0,055
-329,431	-17,953	0,083	-0,038
-328,416	136,378	0,085	-0,081
-327,402	800,000	-0,023	-0,059
-326,387	-57,850	0,037	-0,012
-325,372	31,513	-0,077	-0,048
-324,358	-200,000	0,007	-0,053
-323,343	216,101	0,024	-0,028
-322,329	-59,534	-0,136	-0,042
-321,314	800,000	0,017	0,049
-320,299	-200,000	0,029	0,108
-319,285	800,000	-0,038	0,088
-318,270	-22,475	-0,149	-0,066
-317,256	101,452	0,055	-0,047
-316,241	85,974	-0,145	-0,117
-315,226	29,504	-0,076	0,047
-314,212	-200,000	-0,005	-0,059
-313,197	-200,000	0,006	-0,024
-312,183	-69,419	-0,146	-0,041
-311,168	-86,147	-0,147	0,033
-310,153	-162,754	0,076	-0,003
-309,139	800,000	0,036	0,095
-308,124	748,749	-0,022	-0,043
-307,110	35,249	0,085	0,054
-306,095	-130,434	0,200	-0,020
-305,080	114,769	0,075	0,067
-304,066	-19,474	-0,050	-0,023
-303,051	-131,243	-0,124	0,012
-302,037	800,000	0,004	-0,013
-301,022	-200,000	0,001	0,013
-300,008	-38,888	0,053	-0,020
-298,993	-29,382	-0,004	0,002
-297,978	-176,219	-0,048	0,001
-296,964	-19,674	-0,090	-0,040
-295,949	800,000	-0,031	-0,092
-294,935	570,838	0,046	-0,081
-293,920	154,277	0,071	0,072
-292,905	800,000	0,052	-0,124
-291,891	-35,997	0,045	0,018
-290,876	-23,484	0,045	0,020
-289,862	170,763	-0,069	-0,073
-288,847	-156,067	0,104	0,005
-287,832	125,937	-0,065	-0,060
-286,818	-182,321	-0,032	0,000
-285,803	78,835	0,113	0,089
-284,789	-200,000	-0,003	0,180
-283,774	-200,000	0,013	0,082
-282,759	41,511	0,044	-0,029
-281,745	800,000	-0,031	-0,085
-280,730	-200,000	0,002	0,044
-279,716	172,128	-0,030	0,031
-278,701	-60,421	-0,065	0,020
-277,686	-200,000	0,004	-0,070
-276,672	-7,720	0,074	-0,037
-275,657	101,913	0,062	0,053
-274,643	-200,000	-0,004	-0,017
-273,628	48,670	-0,078	-0,054
-272,613	-59,359	-0,140	0,044
-271,599	800,000	-0,059	0,178
-270,584	315,670	-0,013	0,018
-269,570	77,917	0,091	0,071
-268,555	230,331	0,045	0,054
-267,540	197,077	-0,042	0,047
-266,526	-200,000	0,033	-0,139
-265,511	151,461	0,070	-0,069
-264,497	148,832	0,074	0,073
-263,482	800,000	-0,025	0,059
-262,467	-200,000	-0,011	0,119
-261,453	800,000	-0,075	-0,195
-260,438	699,592	0,019	0,037
-259,424	-200,000	-0,024	-0,120
-258,409	177,168	-0,111	-0,118
-257,395	177,246	-0,019	0,020
-256,380	563,218	0,049	0,087
-255,365	609,518	-0,058	-0,106
-254,351	800,000	-0,022	0,061
-253,336	-200,000	-0,006	-0,048
-252,322	-200,000	-0,001	-0,087
-251,307	-137,447	0,089	0,007
-250,292	607,349	-0,018	-0,033
-249,278	172,628	0,089	0,093
-248,263	-200,000	0,007	0,086
-247,249	169,792	0,082	0,086
-246,234	64,805	-0,036	-0,026
-245,219	-200,000	0,012	-0,082
-244,205	118,648	-0,111	-0,100
-243,190	-154,200	-0,021	-0,001
-242,176	168,590	0,058	-0,061
-241,161	4,933	-0,057	0,031
-240,146	800,000	-0,029	0,060
-239,132	4,108	0,121	-0,064
-238,117	-200,000	0,004	-0,180
-237,103	-150,112	-0,026	-0,001
-236,088	-176,845	0,048	-0,001
-235,073	50,693	-0,074	0,051
-234,059	44,663	0,058	0,039
-233,044	-53,608	-0,087	0,029
-232,030	235,663	-0,080	-0,097
-231,015	800,000	0,061	-0,177
-230,000	-200,000	0,015	-0,109
-228,986	46,429	0,092	-0,062
-227,971	-45,200	0,153	0,055
-226,957	-151,157	0,021	0,001
-225,942	-200,000	-0,020	-0,087
-224,927	-55,590	0,044	-0,014
-223,913	187,228	0,049	-0,053
-222,898	800,000	-0,062	-0,135
-221,884	-47,792	0,058	-0,020
-220,869	-154,417	0,086	0,004
-219,855	-200,000	0,002	-0,011
-218,840	-123,562	-0,048	-0,005
-217,825	-67,578	-0,041	0,012
-216,811	26,389	-0,119	0,072
-215,796	303,418	0,060	-0,082
-214,782	-200,000	-0,028	-0,217
-213,767	-104,554	0,015	0,002
-212,752	-200,000	-0,002	0,041
-211,738	44,464	0,078	-0,052
-210,723	142,910	-0,013	0,012
-209,709	712,633	0,037	-0,071
-208,694	189,470	-0,011	0,012
-207,679	709,732	-0,031	-0,060
-206,665	-34,247	-0,056	0,023
-205,650	-18,431	0,052	0,024
-204,636	46,952	0,056	0,038
-203,621	-200,000	-0,006	0,096
-202,606	559,960	-0,067	-0,118
-201,592	-79,694	0,037	-0,009
-200,577	-90,461	-0,178	0,037
-199,563	78,269	-0,147	0,114
-198,548	-104,823	0,063	0,010
-197,533	800,000	0,045	0,124
-196,519	-200,000	-0,017	0,096
-195,504	84,759	0,085	-0,068
-194,490	-200,000	0,013	-0,128
-193,475	-81,716	0,012	0,003
-192,460	-200,000	0,007	0,031
-191,446	-24,652	0,140	-0,060
-190,431	-200,000	0,040	0,133
-189,417	-200,000	0,003	0,094
-188,402	38,925	-0,148	0,096
-187,387	-50,840	-0,075	0,026
-186,373	-200,000	-0,014	-0,081
-185,358	141,968	-0,047	0,045
-184,344	184,472	0,110	-0,119
-183,329	-26,416	0,114	0,049
-182,315	-61,337	-0,107	0,033
-181,300	800,000	0,013	-0,028
-180,285	279,979	-0,066	0,086
-179,271	-67,169	-0,125	0,036
-178,256	-40,856	-0,053	0,020
-177,242	-112,164	0,087	-0,013
-176,227	-35,836	0,156	-0,061
-175,212	-16,806	0,137	-0,063
-174,198	742,050	0,028	-0,055
-173,183	800,000	-0,069	-0,146
-172,169	10,815	0,052	0,029
-171,154	481,860	-0,019	0,031
-170,139	-200,000	-0,001	-0,016
-169,125	48,582	0,116	0,079
-168,110	-200,000	-0,028	-0,100
-167,096	800,000	0,012	0,025
-166,081	-7,103	0,102	0,050
-165,066	515,245	-0,121	0,207
-164,052	117,789	0,109	-0,098
-163,037	254,208	0,063	-0,078
-162,023	507,638	0,041	0,070
-161,008	534,905	0,023	0,039
-159,993	-32,115	-0,034	0,014
-158,979	-200,000	-0,022	0,109
-157,964	-200,000	0,005	-0,129
-156,950	-20,428	0,069	0,031
-155,935	171,352	0,072	-0,076
-154,920	-76,314	0,195	0,050
-153,906	674,083	-0,051	-0,096
-152,891	800,000	0,017	-0,047
-151,877	-2,884	0,197	0,100
-150,862	66,321	-0,108	-0,080
-149,847	-200,000	0,018	-0,096
-148,833	-4,715	0,078	-0,039
-147,818	47,192	0,044	-0,029
-146,804	-200,000	-0,047	0,171
-145,789	146,058	0,114	0,111
-144,775	531,025	-0,019	-0,032
-143,760	79,846	-0,095	0,075
-142,745	49,770	0,128	-0,088
-141,731	-134,833	-0,049	0,004
-140,716	338,817	0,046	-0,065
-139,702	-167,794	0,164	-0,005
-138,687	-200,000	-0,021	0,094
-137,672	-200,000	0,006	0,118
-136,658	212,979	-0,028	0,032
-135,643	-106,683	-0,056	0,009
-134,629	-164,362	-0,119	-0,004
-133,614	46,599	0,030	0,020
-132,599	800,000	0,005	-0,013
-131,585	800,000	0,048	0,144
-130,570	16,280	-0,035	0,020
-129,556	165,204	0,133	-0,136
-128,541	-53,880	-0,087	-0,029
-127,526	-94,364	0,067	-0,013
-126,512	149,737	-0,196	-0,194
-125,497	-200,000	0,015	0,053
-124,483	119,864	0,099	0,089
-123,468	424,155	-0,033	0,052
-122,453	-200,000	0,016	0,118
-121,439	800,000	0,010	0,031
-120,424	-134,492	0,079	-0,007
-119,410	-108,396	0,229	0,036
-118,395	477,612	0,038	0,063
-117,380	175,727	0,051	0,054
-116,366	-20,554	0,050	0,022
-115,351	-200,000	-0,013	-0,063
-114,337	66,074	-0,081	-0,060
-113,322	111,552	-0,012	-0,010
-112,307	417,312	-0,095	-0,148
-111,293	7,974	-0,082	0,045
-110,278	-34,833	-0,027	0,010
-109,264	-142,481	0,236	-0,017
-108,249	-200,000	0,024	-0,116
-107,234	-54,603	-0,119	0,039
-106,220	-52,416	0,065	-0,022
-105,205	245,129	-0,071	0,088
-104,191	2,307	0,037	0,019
-103,176	-10,099	0,094	0,045
-102,162	-200,000	-0,026	0,125
-101,147	200,254	-0,034	0,038
-100,132	563,095	0,053	-0,094
-99,118	-200,000	-0,001	0,146
-98,103	-200,000	0,009	-0,162
-97,089	800,000	0,018	-0,055
-96,074	-102,848	-0,116	-0,020
-95,059	-200,000	0,007	0,058
-94,045	117,482	0,070	-0,063
-93,030	-57,613	-0,084	0,027
-92,016	-200,000	0,023	-0,257
-91,001	-173,283	-0,113	-0,002
-89,986	-200,000	-0,014	-0,115
-88,972	-137,206	-0,089	0,007
-87,957	71,484	0,115	0,087
-86,943	800,000	0,005	-0,013
-85,928	-134,922	-0,105	0,009
-84,913	29,770	0,031	-0,019
-83,899	-200,000	-0,012	-0,189
-82,884	109,726	0,148	-0,129
-81,870	-4,189	0,094	-0,047
-80,855	-200,000	0,031	0,168
-79,840	390,398	-0,040	0,061
-78,826	800,000	0,038	-0,088
-77,811	95,147	0,048	0,040
-76,797	800,000	-0,023	-0,050
-75,782	326,806	-0,091	0,127
-74,767	-200,000	-0,002	0,051
-73,753	-62,289	-0,127	0,038
-72,738	-127,114	0,032	0,003
-71,724	-200,000	0,020	-0,150
-70,709	-68,320	-0,109	0,030
-69,694	-200,000	0,031	0,114
-68,680	705,820	-0,027	-0,052
-67,665	-200,000	-0,031	0,137
-66,651	-150,415	-0,153	-0,008
-65,636	-200,000	-0,004	-0,087
-64,622	111,743	0,069	-0,060
-63,607	21,159	0,038	-0,022
-62,592	49,179	0,136	-0,093
-61,578	237,682	-0,088	0,106
-60,563	135,084	-0,088	0,083
-59,549	5,989	0,015	-0,008
-58,534	-125,865	-1,319	-0,142
-57,519	551,309	-0,889	-1,554
-56,505	-200,000	-1,004	-4,410
-55,490	-25,808	0,711	-0,302
-54,476	800,000	4,902	11,752
-53,461	-200,000	14,001	253,341
-52,446	-200,000	693,337	2239,550
-51,432	574,338	1623,959	2884,283
-50,417	117,569	1633,161	1456,868
-49,403	72,348	1287,058	971,288
-48,388	37,555	1023,119	656,739
-47,373	23,918	981,381	585,134
-46,359	23,070	971,031	576,163
-45,344	22,085	966,679	570,343
-44,330	22,086	964,957	569,307
-43,315	21,988	963,732	568,243
-42,300	21,964	962,860	567,626
-41,286	21,899	961,729	566,725
-40,271	21,871	961,009	566,190
-39,257	21,897	959,917	565,606
-38,242	21,963	958,912	565,206
-37,227	21,897	958,184	564,541
-36,213	21,887	957,107	563,853
-35,198	21,914	956,210	563,387
-34,184	21,912	955,788	563,110
-33,169	21,889	954,958	562,524
-32,154	21,953	953,999	562,143
-31,140	21,967	952,960	561,555
-30,125	21,917	952,265	560,964
-29,111	21,900	951,361	560,353
-28,096	21,977	950,645	560,156
-27,082	21,930	949,923	559,558
-26,067	21,930	949,279	559,155
-25,052	22,020	948,474	558,949
-24,038	21,974	947,825	558,396
-23,023	21,948	947,230	557,939
-22,009	21,993	946,470	557,615
-20,994	21,979	945,920	557,224
-19,979	21,988	945,321	556,875
-18,965	21,912	944,790	556,299
-17,950	21,972	943,942	555,971
-16,936	21,855	943,563	555,353
-15,921	21,841	942,740	554,800
-14,906	21,871	941,966	554,418
-13,892	21,862	941,282	553,964
-12,877	21,826	940,617	553,438
-11,863	21,833	940,184	553,184
-10,848	21,796	939,683	552,748
-9,833	21,929	939,191	552,859
-8,819	21,972	938,475	552,551
-7,804	21,840	937,820	551,727
-6,790	21,821	937,263	551,317
-5,775	21,917	936,664	551,245
-4,760	21,808	936,015	550,498
-3,746	21,820	935,353	550,125
-2,731	21,692	934,678	549,301
-1,717	21,627	934,033	548,696
-0,702	21,678	933,240	548,369
0,313	21,441	932,800	548,192
1,327	24,566	930,735	556,747
2,342	34,041	794,860	500,659
3,356	31,757	450,768	280,466
4,371	1,192	293,489	152,147
5,386	-3,413	274,421	137,899
6,400	-4,582	268,693	133,924
7,415	-5,102	266,467	132,326
8,429	-4,835	265,339	131,998
9,444	-4,780	264,354	131,546
10,459	-4,814	263,631	131,144
11,473	-4,963	263,231	130,798
12,488	-4,890	262,578	130,528
13,502	-5,188	262,219	130,068
14,517	-4,816	261,735	130,153
15,531	-5,228	261,482	129,644
16,546	-5,113	261,046	129,520
17,561	-4,963	260,496	129,370
18,575	-4,835	260,405	129,428
19,590	-4,919	259,999	129,139
20,604	-4,878	259,663	128,998
21,619	-4,916	259,374	128,808
22,634	-4,939	259,086	128,633
23,648	-5,049	258,807	128,386
24,663	-4,911	258,509	128,349
25,677	-4,963	258,263	128,169
26,692	-5,035	258,045	127,986
27,707	-4,938	257,731	127,904
28,721	-5,034	257,524	127,706
29,736	-4,977	257,016	127,493
30,750	-4,969	256,970	127,465
31,765	-5,124	256,850	127,258
32,780	-4,968	256,462	127,192
33,794	-5,067	256,362	127,044
34,809	-4,963	256,040	126,964
35,823	-5,064	255,879	126,784
36,838	-5,265	255,585	126,450
37,853	-4,981	255,316	126,556
38,867	-5,115	255,198	126,368
39,882	-5,133	254,875	126,181
40,896	-5,103	254,648	126,084
41,911	-4,882	254,458	126,172
42,926	-5,061	254,150	125,851
43,940	-5,228	253,994	125,617
44,955	-5,270	253,860	125,503
45,969	-5,381	253,586	125,259
46,984	-5,558	253,377	124,991
47,999	-5,597	253,077	124,797
49,013	-5,559	252,791	124,679
50,028	-5,629	252,494	124,459
51,042	-5,893	252,360	124,154
52,057	-5,790	252,158	124,132
53,071	-5,736	251,923	124,053
54,086	-5,632	251,779	124,061
55,101	-5,258	251,454	124,213
56,115	-5,412	251,460	124,071
57,130	-5,065	251,353	124,307
58,144	-5,083	251,142	124,176
59,159	-4,783	250,926	124,317
60,174	-4,765	250,729	124,224
61,188	-4,782	250,452	124,060
62,203	-4,831	250,223	123,895
63,217	-5,112	250,241	123,651
64,232	-4,969	249,976	123,631
65,247	-4,995	249,839	123,530
66,261	-4,844	249,524	123,493
67,276	-4,952	249,043	123,152
68,290	-5,332	249,096	122,842
69,305	-5,328	248,697	122,638
70,320	-5,366	248,465	122,480
71,334	-5,047	248,466	122,741
72,349	-4,860	248,313	122,814
73,363	-4,864	248,083	122,686
74,378	-4,874	247,908	122,581
75,393	-4,997	247,586	122,306
76,407	-5,220	247,630	122,127
77,422	-4,905	247,337	122,239
78,436	-4,869	247,066	122,124
79,451	-4,926	246,862	121,965
80,466	-4,977	246,651	121,807
81,480	-5,369	246,329	121,305
82,495	-5,403	246,256	121,230
83,509	-5,183	245,996	121,276
84,524	-4,982	245,766	121,322
85,539	-5,185	245,562	121,039
86,553	-5,348	245,438	120,831
87,568	-5,370	245,308	120,737
88,582	-5,081	245,178	120,905
89,597	-5,322	244,938	120,573
90,611	-5,070	244,768	120,690
91,626	-5,054	244,698	120,658
92,641	-5,060	244,589	120,589
93,655	-4,833	244,135	120,544
94,670	-5,015	243,978	120,304
95,684	-5,102	243,850	120,157
96,699	-5,055	243,580	120,053
97,714	-5,288	243,441	119,780
98,728	-5,209	243,211	119,721
99,743	-5,266	243,082	119,600
100,757	-5,446	242,768	119,285
101,772	-5,240	242,639	119,382
102,787	-5,154	242,416	119,333
103,801	-5,202	242,366	119,258
104,816	-5,025	242,182	119,304
105,830	-5,119	242,072	119,161
106,845	-4,916	241,850	119,209
107,860	-4,861	241,631	119,136
108,874	-5,190	241,482	118,780
109,889	-5,248	241,290	118,627
110,903	-5,338	241,162	118,479
111,918	-5,148	240,857	118,475
112,933	-5,132	240,672	118,387
113,947	-5,035	240,482	118,363
114,962	-4,950	240,448	118,405
115,976	-4,992	240,286	118,280
116,991	-4,870	240,029	118,243
118,006	-5,065	240,107	118,111
119,020	-4,896	239,798	118,087
120,035	-4,897	239,641	117,999
121,049	-5,052	239,577	117,829
122,064	-5,180	239,510	117,682
123,079	-4,868	239,038	117,694
124,093	-5,012	238,878	117,487
125,108	-5,087	238,590	117,274
126,122	-5,369	238,347	116,914
127,137	-5,612	238,093	116,582
128,151	-5,408	238,191	116,785
129,166	-5,189	237,941	116,831
130,181	-5,248	237,780	116,693
131,195	-5,527	237,671	116,403
132,210	-5,111	237,483	116,638
133,224	-5,131	237,323	116,532
134,239	-5,006	237,126	116,526
135,254	-5,024	237,035	116,457
136,268	-4,962	236,721	116,341
137,283	-5,400	236,628	115,933
138,297	-5,496	236,445	115,755
139,312	-5,319	236,127	115,732
140,327	-5,203	236,125	115,814
141,341	-4,729	235,981	116,114
142,356	-4,992	235,956	115,880
143,370	-4,898	235,802	115,869
144,385	-4,826	235,690	115,862
145,400	-4,702	235,310	115,765
146,414	-4,813	235,152	115,587
147,429	-4,851	234,978	115,461
148,443	-4,758	234,808	115,441
149,458	-4,846	234,726	115,321
150,473	-4,615	234,548	115,407
151,487	-4,935	234,284	115,011
152,502	-4,848	234,275	115,067
153,516	-4,876	234,179	114,987
154,531	-4,833	233,838	114,843
155,546	-4,916	233,717	114,708
156,560	-4,905	233,541	114,620
157,575	-4,969	233,321	114,450
158,589	-5,001	233,183	114,347
159,604	-4,813	233,012	114,402
160,619	-4,769	232,820	114,333
161,633	-4,759	232,801	114,321
162,648	-4,617	232,513	114,282
163,662	-4,984	232,343	113,898
164,677	-4,941	232,286	113,894
165,692	-4,893	232,164	113,862
166,706	-4,755	232,044	113,902
167,721	-4,803	231,873	113,770
168,735	-4,640	231,713	113,810
169,750	-4,660	231,548	113,703
170,764	-4,718	231,458	113,603
171,779	-4,715	231,206	113,471
172,794	-4,861	231,192	113,340
173,808	-5,081	231,015	113,070
174,823	-5,204	230,493	112,708
175,837	-5,343	230,448	112,567
176,852	-4,984	230,308	112,770
177,867	-4,628	230,249	113,009
178,881	-4,799	230,170	112,827
179,896	-4,466	229,896	112,942
180,910	-4,724	229,744	112,656
181,925	-4,704	229,633	112,608
182,940	-4,649	229,563	112,606
183,954	-4,614	229,303	112,496
184,969	-4,615	229,149	112,410
185,983	-4,844	229,188	112,240
186,998	-4,737	229,057	112,249
188,013	-4,656	228,853	112,202
189,027	-4,558	228,553	112,121
190,042	-4,495	228,404	112,087
191,056	-4,554	228,279	111,969
192,071	-4,537	228,083	111,877
193,086	-4,529	227,943	111,805
194,100	-4,683	227,801	111,605
195,115	-4,762	227,467	111,371
196,129	-5,143	227,245	110,959
197,144	-2,523	228,180	113,432
198,159	1,472	229,299	117,078
199,173	3,878	229,791	119,186
200,188	3,859	229,724	119,126
201,202	3,832	229,639	119,050
202,217	4,011	229,552	119,133
203,232	4,401	229,347	119,317
204,246	4,491	229,213	119,307
205,261	4,429	229,163	119,222
206,275	4,769	228,989	119,384
207,290	4,757	228,883	119,308
208,304	4,729	228,609	119,133
209,319	4,655	228,563	119,042
210,334	4,526	228,340	118,816
211,348	4,279	228,110	118,495
212,363	3,897	227,870	118,067
213,377	3,938	227,583	117,939
214,392	3,640	227,608	117,713
215,407	3,881	227,462	117,812
216,421	3,806	227,356	117,689
217,436	3,771	227,120	117,530
218,450	3,639	226,793	117,249
219,465	3,482	226,657	117,048
220,480	3,603	226,628	117,115
221,494	3,639	226,457	117,044
222,509	3,879	226,430	117,202
223,523	3,641	226,267	116,926
224,538	3,510	226,065	116,712
225,553	3,822	225,959	116,884
226,567	3,898	225,790	116,844
227,582	4,033	225,712	116,896
228,596	4,213	225,564	116,945
229,611	3,872	225,317	116,549
230,626	3,485	225,236	116,203
231,640	3,650	224,830	116,108
232,655	3,958	224,827	116,329
233,669	4,428	224,843	116,682
234,684	4,534	224,785	116,722
235,699	4,413	224,509	116,477
236,713	4,025	224,285	116,058
237,728	3,675	224,046	115,660
238,742	3,738	223,939	115,642
239,757	3,836	223,731	115,598
240,772	3,864	223,514	115,496
241,786	3,790	223,505	115,425
242,801	3,822	223,515	115,445
243,815	4,043	223,409	115,546
244,830	4,048	223,192	115,427
245,844	3,865	223,075	115,219
246,859	3,896	222,890	115,136
247,874	3,967	222,772	115,118
248,888	3,980	222,608	115,033
249,903	4,035	222,334	114,922
250,917	3,846	222,348	114,778
251,932	3,778	222,125	114,601
252,947	3,669	221,909	114,399
253,961	3,820	221,762	114,425
254,976	3,736	221,620	114,279
255,990	3,803	221,454	114,233
257,005	3,980	221,472	114,364
258,020	3,948	221,368	114,277
259,034	4,252	221,184	114,397
260,049	4,345	221,055	114,389
261,063	4,096	220,963	114,146
262,078	4,061	220,862	114,058
263,093	4,107	220,708	114,002
264,107	4,319	220,302	113,939
265,122	4,301	220,288	113,909
266,136	4,250	220,289	113,861
267,151	4,446	220,038	113,866
268,166	4,059	219,808	113,452
269,180	3,617	219,561	112,989
270,195	3,731	219,441	113,001
271,209	3,684	219,377	112,923
272,224	3,522	219,311	112,760
273,239	3,899	219,092	112,915
274,253	3,653	218,976	112,664
275,268	3,394	218,905	112,427
276,282	3,451	218,615	112,310
277,297	3,312	218,511	112,145
278,312	3,549	218,361	112,231
279,326	3,931	218,214	112,425
280,341	3,725	218,070	112,190
281,355	3,900	217,942	112,242
282,370	3,670	217,963	112,075
283,384	3,528	217,647	111,799
284,399	3,533	217,470	111,701
285,414	3,489	217,363	111,605
286,428	3,636	217,345	111,693
287,443	3,805	217,308	111,787
288,457	4,042	217,011	111,796
289,472	4,044	216,688	111,621
290,487	3,485	216,485	111,102
291,501	3,545	216,408	111,096
292,516	3,459	216,339	110,988
293,530	3,519	216,272	110,987
294,545	3,445	216,128	110,850
295,560	3,613	216,130	110,963
296,574	4,127	215,988	111,251
297,589	3,709	215,940	110,914
298,603	4,280	215,668	111,176
299,618	3,871	215,328	110,697
300,633	3,821	215,359	110,667
301,647	4,011	215,329	110,779
302,662	4,031	215,140	110,686
303,676	3,960	215,114	110,611
304,691	4,001	214,961	110,553
305,706	4,236	214,766	110,611
306,720	4,297	214,553	110,535
307,735	3,792	214,470	110,121
308,749	3,906	214,278	110,094
309,764	3,902	214,141	110,010
310,779	3,992	214,043	110,015
311,793	3,881	213,912	109,859
312,808	4,042	213,676	109,842
313,822	3,910	213,647	109,723
314,837	3,826	213,474	109,565
315,852	3,362	213,320	109,146
316,866	3,749	213,259	109,380
317,881	3,653	213,318	109,333
318,895	4,184	212,901	109,487
319,910	3,690	212,707	109,026
320,925	3,559	212,440	108,787
321,939	3,301	212,392	108,570
322,954	3,333	212,322	108,547
323,968	3,835	212,168	108,813
324,983	3,906	212,203	108,872
325,997	3,984	212,018	108,823
327,012	3,794	211,817	108,576
328,027	3,903	211,746	108,606
329,041	4,176	211,633	108,731
330,056	4,048	211,544	108,586
331,070	3,858	211,239	108,286
332,085	3,590	211,165	108,050
333,100	3,760	210,924	108,036
334,114	3,896	210,839	108,078
335,129	3,897	210,696	107,997
336,143	3,588	210,536	107,688
337,158	3,679	210,330	107,637
338,173	3,630	210,271	107,563
339,187	3,578	210,187	107,473
340,202	3,597	209,934	107,348
341,216	3,421	209,883	107,189
342,231	3,468	209,729	107,134
343,246	3,605	209,572	107,140
344,260	3,396	209,570	106,983
345,275	3,589	209,546	107,096
346,289	4,151	209,248	107,326
347,304	4,053	209,124	107,185
348,319	3,943	208,944	107,006
349,333	3,878	208,892	106,924
350,348	3,800	208,697	106,761
351,362	3,950	208,537	106,774
352,377	3,945	208,628	106,807
353,392	3,868	208,278	106,566
354,406	3,985	208,221	106,607
355,421	193,919	1345,237	1432,643
356,435	154,715	1483,873	1432,740
