DTS Sentinel unit serial number:	SN410029Multiplexer serial number:	ORYXHardware model number:	OX2-SRSoftware version number:	ORYX F/W v4,00 Oryx Data Collector v3.7.2.0data status	okinstallation	B6 Nyhavnadifferential loss correction	single-endedforward channel	channel 2reverse channel	N/Adate	2023/12/07time	15:25:08forward acquisition time	300,00reverse acquisition time	0,00gamma	499,1914k internal	0,3150k external	0,3150temperature offset calibration	1,0000default loss term (dB/km)	0,3820temperature slope calibration	1,0000multiplexer offset coefficient	1,0000multiplexer slope coefficient	1,0000fibre end	0,00T internal ref (°C)	14,36T ext. ref 1 (°C)	-1,90T ext. ref 2 (°C)	-1,89length (m)	temperature (°C)	Stokes	anti-Stokes-744,400	-200,000	0,008	0,044
-743,385	1,529	-0,302	0,160
-742,371	-121,306	0,077	0,009
-741,356	-35,378	-0,292	0,117
-740,342	3,797	0,152	0,082
-739,327	-77,515	-0,353	-0,090
-738,312	-200,000	-0,008	-0,056
-737,298	-55,668	-0,290	-0,095
-736,283	-131,451	0,048	0,005
-735,269	32,050	-0,081	0,052
-734,254	-200,000	-0,005	0,094
-733,239	-18,564	-0,565	-0,259
-732,225	244,411	0,130	-0,162
-731,210	-6,550	0,095	0,048
-730,196	104,337	0,068	-0,060
-729,181	-30,052	-0,012	-0,005
-728,167	157,935	-0,062	0,063
-727,152	800,000	-0,015	-0,039
-726,137	-9,327	-0,129	-0,063
-725,123	-96,439	-0,107	0,021
-724,108	-96,028	-0,107	0,021
-723,094	428,049	-0,076	-0,121
-722,079	-200,000	-0,022	-0,096
-721,064	59,150	0,074	0,053
-720,050	394,838	0,035	0,054
-719,035	124,150	-0,015	0,014
-718,021	800,000	-0,028	0,076
-717,006	-200,000	0,002	-0,063
-715,991	-21,389	-0,242	-0,108
-714,977	158,358	0,137	-0,140
-713,962	800,000	0,006	-0,015
-712,948	-200,000	-0,076	-0,000
-711,933	-31,664	0,069	-0,029
-710,918	-200,000	-0,021	0,211
-709,904	-158,356	0,040	0,002
-708,889	138,997	-0,053	-0,051
-707,875	-92,529	-0,149	0,031
-706,860	800,000	0,045	0,101
-705,845	121,868	-0,039	-0,036
-704,831	87,089	-0,121	-0,099
-703,816	800,000	0,049	0,129
-702,802	-64,496	-0,103	-0,031
-701,787	-200,000	0,031	-0,116
-700,772	-59,817	-0,164	-0,051
-699,758	704,944	-0,058	-0,114
-698,743	-46,875	0,094	-0,034
-697,729	35,515	0,124	0,080
-696,714	-136,381	0,157	0,013
-695,699	-200,000	0,002	-0,019
-694,685	16,137	-0,050	-0,029
-693,670	-22,242	-0,062	-0,028
-692,656	-101,455	-0,055	-0,010
-691,641	-124,513	-0,134	0,015
-690,627	237,751	0,007	0,009
-689,612	-4,473	-0,011	0,006
-688,597	185,014	-0,054	-0,059
-687,583	2,407	-0,058	0,031
-686,568	76,061	0,059	-0,046
-685,554	800,000	0,038	0,108
-684,539	800,000	0,060	0,159
-683,524	-65,785	-0,090	-0,026
-682,510	-57,482	0,090	0,029
-681,495	-59,670	-0,132	0,042
-680,481	-80,879	-0,071	-0,017
-679,466	-50,736	0,061	0,021
-678,451	800,000	0,035	-0,087
-677,437	-97,016	-0,048	0,009
-676,422	427,434	-0,062	0,099
-675,408	-132,532	0,065	0,006
-674,393	485,411	0,074	0,124
-673,378	-200,000	0,030	-0,120
-672,364	709,972	0,037	-0,072
-671,349	-200,000	0,035	0,129
-670,335	-78,829	-0,085	-0,021
-669,320	-172,707	-0,142	0,003
-668,305	-200,000	-0,013	0,086
-667,291	712,126	-0,032	0,063
-666,276	-200,000	-0,028	0,159
-665,262	222,238	-0,103	-0,122
-664,247	800,000	-0,011	-0,031
-663,232	159,622	0,051	0,052
-662,218	168,146	-0,094	0,099
-661,203	-105,107	-0,062	0,010
-660,189	-200,000	0,045	-0,160
-659,174	-75,061	-0,192	0,050
-658,159	229,030	-0,085	-0,102
-657,145	800,000	-0,066	-0,189
-656,130	-90,612	-0,124	-0,026
-655,116	69,558	0,164	-0,124
-654,101	90,380	-0,063	0,052
-653,086	-200,000	0,009	0,103
-652,072	-188,569	-0,118	-0,001
-651,057	-82,310	0,066	-0,016
-650,043	-52,127	-0,219	-0,074
-649,028	-117,753	-0,073	-0,010
-648,014	-15,302	0,091	0,043
-646,999	80,695	-0,113	-0,090
-645,984	-115,660	0,069	-0,009
-644,970	-37,753	-0,107	-0,042
-643,955	-200,000	0,006	-0,125
-642,941	-200,000	0,037	-0,230
-641,926	12,966	-0,065	-0,037
-640,911	-90,931	-0,060	0,013
-639,897	-15,028	0,035	0,016
-638,882	-200,000	-0,059	-0,226
-637,868	81,691	-0,042	0,034
-636,853	-103,447	-0,027	-0,005
-635,838	230,494	-0,082	0,099
-634,824	-69,231	-0,027	-0,007
-633,809	-200,000	-0,024	-0,093
-632,795	136,774	-0,105	-0,101
-631,780	15,895	0,099	-0,057
-630,765	88,923	-0,046	0,038
-629,751	257,534	-0,072	-0,091
-628,736	66,076	-0,044	-0,033
-627,722	-165,644	0,061	-0,002
-626,707	-200,000	-0,005	-0,044
-625,692	4,830	0,045	0,024
-624,678	-66,440	0,096	-0,028
-623,663	800,000	0,035	0,112
-622,649	10,912	-0,110	-0,062
-621,634	57,294	-0,027	-0,020
-620,619	800,000	-0,049	-0,130
-619,605	800,000	-0,013	-0,029
-618,590	-40,754	0,063	-0,024
-617,576	274,490	0,046	0,060
-616,561	-158,632	-0,102	-0,004
-615,546	-200,000	0,014	-0,083
-614,532	264,269	-0,121	-0,155
-613,517	-79,380	0,052	0,013
-612,503	-200,000	-0,001	-0,036
-611,488	0,801	0,051	0,027
-610,474	232,979	-0,045	-0,054
-609,459	-200,000	-0,002	0,152
-608,444	-200,000	0,016	-0,063
-607,430	-157,922	-0,098	-0,004
-606,415	-200,000	-0,019	-0,071
-605,401	330,816	-0,011	0,015
-604,386	-97,806	0,116	0,022
-603,371	800,000	0,030	0,073
-602,357	330,821	-0,063	-0,090
-601,342	-200,000	-0,037	-0,142
-600,328	800,000	-0,030	0,088
-599,313	383,966	-0,076	-0,115
-598,298	-115,097	0,075	-0,010
-597,284	-53,836	-0,050	0,017
-596,269	58,070	-0,105	-0,075
-595,255	-166,987	0,034	0,001
-594,240	9,002	-0,064	0,035
-593,225	-200,000	-0,017	-0,250
-592,211	800,000	0,045	0,111
-591,196	507,161	-0,045	-0,076
-590,182	112,720	0,138	-0,123
-589,167	115,841	-0,028	0,025
-588,152	148,425	0,029	-0,028
-587,138	-138,560	0,057	0,005
-586,123	273,073	-0,079	-0,102
-585,109	-154,264	0,018	0,001
-584,094	-5,242	-0,084	-0,042
-583,079	-200,000	-0,006	0,049
-582,065	-200,000	0,010	-0,096
-581,050	21,477	-0,131	0,078
-580,036	-200,000	-0,011	0,061
-579,021	-200,000	0,015	-0,115
-578,006	112,297	0,108	-0,096
-576,992	124,771	-0,085	-0,079
-575,977	112,932	0,106	0,095
-574,963	-200,000	0,003	-0,054
-573,948	-200,000	-0,001	0,099
-572,934	800,000	0,034	0,080
-571,919	65,597	0,071	-0,053
-570,904	14,303	-0,139	-0,079
-569,890	82,322	-0,033	0,027
-568,875	-108,492	-0,102	0,016
-567,861	-200,000	0,027	0,111
-566,846	800,000	0,014	-0,041
-565,831	3,994	-0,038	-0,021
-564,817	-85,395	-0,052	-0,012
-563,802	195,867	-0,045	0,050
-562,788	-117,131	0,095	0,013
-561,773	-200,000	0,008	-0,026
-560,758	-130,224	-0,153	0,015
-559,744	547,350	0,031	-0,055
-558,729	-200,000	-0,001	-0,086
-557,715	-119,919	-0,157	-0,020
-556,700	130,781	-0,041	-0,039
-555,685	194,566	-0,040	0,044
-554,671	-38,875	-0,085	0,033
-553,656	-200,000	-0,006	0,093
-552,642	45,222	0,043	-0,029
-551,627	375,076	-0,054	-0,081
-550,612	104,464	-0,041	-0,035
-549,598	-95,175	-0,055	0,011
-548,583	243,470	-0,058	-0,072
-547,569	41,702	0,060	0,040
-546,554	-94,431	-0,143	-0,028
-545,539	52,816	0,051	0,036
-544,525	64,297	-0,068	-0,050
-543,510	62,411	-0,023	-0,017
-542,496	800,000	-0,043	-0,105
-541,481	-200,000	0,003	-0,145
-540,466	-61,351	0,112	-0,034
-539,452	271,512	-0,058	-0,076
-538,437	341,202	0,038	0,055
-537,423	-200,000	-0,042	0,199
-536,408	-65,467	0,137	0,040
-535,393	-200,000	0,006	0,100
-534,379	-31,252	0,042	0,017
-533,364	212,908	-0,046	0,054
-532,350	-152,101	0,133	-0,007
-531,335	142,234	0,123	0,119
-530,321	-39,352	-0,144	0,055
-529,306	-97,217	-0,124	-0,024
-528,291	-7,141	-0,126	-0,062
-527,277	75,313	0,069	-0,053
-526,262	800,000	-0,010	-0,029
-525,248	57,845	-0,045	0,032
-524,233	28,841	0,024	-0,015
-523,218	-200,000	-0,022	-0,097
-522,204	778,992	-0,051	0,103
-521,189	800,000	-0,012	0,032
-520,175	104,500	-0,033	-0,029
-519,160	6,327	-0,124	-0,067
-518,145	-200,000	0,009	-0,102
-517,131	-200,000	-0,011	-0,153
-516,116	44,313	-0,055	-0,037
-515,102	461,295	-0,032	-0,053
-514,087	57,929	-0,111	0,079
-513,072	120,075	0,033	-0,030
-512,058	135,662	-0,089	-0,085
-511,043	800,000	0,005	-0,014
-510,029	-76,768	-0,096	0,024
-509,014	162,479	0,127	-0,131
-507,999	-33,912	-0,092	-0,037
-506,985	35,473	-0,132	0,085
-505,970	380,170	-0,049	-0,073
-504,956	188,215	-0,086	0,094
-503,941	213,344	0,032	-0,037
-502,926	-49,655	0,079	0,027
-501,912	445,250	-0,013	-0,021
-500,897	-37,485	0,038	-0,015
-499,883	265,389	0,051	0,065
-498,868	-200,000	0,011	0,103
-497,853	-200,000	-0,014	0,049
-496,839	-42,733	0,024	-0,009
-495,824	-62,021	0,020	0,006
-494,810	-22,788	0,077	-0,034
-493,795	-200,000	-0,033	0,137
-492,781	-36,304	0,048	0,019
-491,766	53,122	-0,043	-0,030
-490,751	375,510	0,057	0,086
-489,737	194,161	0,109	0,121
-488,722	-56,737	0,016	0,005
-487,708	-200,000	-0,025	-0,090
-486,693	-200,000	0,013	0,072
-485,678	-38,536	-0,104	-0,040
-484,664	302,455	0,010	-0,014
-483,649	-5,074	-0,045	0,022
-482,635	-48,147	-0,035	-0,012
-481,620	-97,139	-0,008	0,001
-480,605	239,587	0,045	-0,055
-479,591	-49,964	0,112	-0,039
-478,576	144,288	0,028	-0,027
-477,562	50,649	-0,053	-0,037
-476,547	32,201	-0,035	-0,022
-475,532	-200,000	0,008	0,209
-474,518	-200,000	0,007	-0,111
-473,503	800,000	-0,023	0,047
-472,489	66,065	-0,106	0,078
-471,474	-0,863	0,065	0,034
-470,459	-93,936	0,101	-0,020
-469,445	29,536	-0,049	0,030
-468,430	32,234	-0,070	-0,044
-467,416	800,000	0,038	0,106
-466,401	-200,000	-0,032	0,142
-465,386	-200,000	0,009	0,070
-464,372	-47,882	0,146	0,051
-463,357	332,956	-0,081	0,115
-462,343	-169,748	-0,153	0,004
-461,328	689,208	0,036	-0,069
-460,313	-15,935	-0,118	-0,055
-459,299	-200,000	-0,025	-0,099
-458,284	207,917	0,091	0,105
-457,270	659,785	-0,018	0,035
-456,255	40,979	-0,073	0,048
-455,241	-200,000	0,051	-0,211
-454,226	54,155	-0,073	0,051
-453,211	-200,000	-0,001	0,038
-452,197	68,927	-0,052	0,039
-451,182	374,468	-0,078	-0,116
-450,168	87,620	0,086	-0,070
-449,153	-160,571	-0,088	0,003
-448,138	106,694	-0,063	-0,054
-447,124	-200,000	-0,004	0,079
-446,109	-41,956	0,066	-0,025
-445,095	-200,000	0,015	-0,096
-444,080	98,594	-0,150	0,127
-443,065	-94,103	0,079	0,016
-442,051	-154,590	-0,021	-0,001
-441,036	-35,888	0,056	-0,022
-440,022	-155,972	0,103	-0,005
-439,007	-200,000	-0,043	0,140
-437,992	273,936	0,082	0,106
-436,978	-151,506	0,049	0,003
-435,963	-200,000	0,005	-0,052
-434,949	398,780	0,087	-0,134
-433,934	-102,465	0,078	-0,013
-432,919	-72,334	-0,069	-0,018
-431,905	56,691	0,048	-0,034
-430,890	452,808	0,023	-0,037
-429,876	-8,588	-0,071	-0,035
-428,861	-200,000	0,005	0,097
-427,846	291,261	-0,028	0,037
-426,832	-66,994	-0,095	-0,027
-425,817	-200,000	-0,057	-0,213
-424,803	44,154	0,107	0,072
-423,788	-175,397	0,059	0,001
-422,773	-164,074	0,045	-0,001
-421,759	-200,000	0,027	0,203
-420,744	170,468	0,144	0,151
-419,730	29,366	-0,075	-0,047
-418,715	-28,302	-0,019	0,008
-417,701	-200,000	0,015	-0,061
-416,686	266,591	0,037	-0,048
-415,671	185,729	0,109	0,118
-414,657	-27,004	0,066	-0,028
-413,642	-123,044	0,076	0,009
-412,628	457,525	0,039	0,063
-411,613	30,819	-0,096	0,060
-410,598	800,000	-0,037	0,078
-409,584	49,199	0,109	0,075
-408,569	-53,603	0,140	0,046
-407,555	-200,000	-0,168	-0,001
-406,540	67,636	0,061	-0,046
-405,525	36,149	0,023	0,015
-404,511	302,875	-0,131	-0,177
-403,496	-4,135	-0,092	-0,046
-402,482	-85,105	0,152	-0,035
-401,467	425,867	0,076	-0,120
-400,452	800,000	-0,034	0,102
-399,438	40,545	0,123	0,081
-398,423	-115,101	-0,155	-0,021
-397,409	459,018	-0,050	-0,081
-396,394	-200,000	0,026	0,091
-395,379	-200,000	0,009	-0,115
-394,365	-107,521	-0,022	-0,004
-393,350	-132,040	0,066	-0,006
-392,336	-156,279	-0,087	0,004
-391,321	174,840	-0,075	0,079
-390,306	-200,000	-0,002	-0,036
-389,292	800,000	-0,063	0,131
-388,277	-108,317	-0,081	0,013
-387,263	-56,690	0,148	0,048
-386,248	377,150	0,053	-0,079
-385,233	800,000	-0,054	0,113
-384,219	530,539	-0,021	-0,037
-383,204	158,560	0,012	0,012
-382,190	-139,782	0,119	0,009
-381,175	-27,881	-0,021	0,009
-380,160	-43,301	0,121	0,044
-379,146	-95,188	0,112	0,022
-378,131	-26,110	-0,117	-0,050
-377,117	69,129	0,055	-0,041
-376,102	-116,442	-0,030	-0,004
-375,088	272,811	-0,134	-0,173
-374,073	-200,000	0,002	0,013
-373,058	-59,679	0,146	0,045
-372,044	-200,000	-0,003	-0,029
-371,029	71,867	0,075	0,057
-370,015	800,000	-0,017	0,037
-369,000	-200,000	-0,006	0,041
-367,985	800,000	0,036	0,099
-366,971	800,000	-0,028	-0,082
-365,956	-200,000	-0,061	0,237
-364,942	48,231	0,126	0,086
-363,927	-19,165	-0,063	-0,028
-362,912	-87,740	-0,073	0,016
-361,898	454,513	0,053	0,087
-360,883	-61,086	-0,056	-0,017
-359,869	496,399	-0,036	-0,061
-358,854	-200,000	-0,005	0,056
-357,839	-200,000	-0,025	0,211
-356,825	-98,653	-0,051	-0,009
-355,810	407,387	-0,050	-0,077
-354,796	-200,000	-0,010	-0,080
-353,781	-26,411	-0,131	0,056
-352,766	-200,000	-0,018	-0,191
-351,752	-30,312	0,068	-0,028
-350,737	-45,827	0,084	-0,030
-349,723	296,145	0,030	0,040
-348,708	-200,000	0,008	-0,054
-347,693	-200,000	0,031	0,105
-346,679	800,000	0,013	0,038
-345,664	-36,237	-0,036	-0,014
-344,650	800,000	-0,017	0,049
-343,635	800,000	0,026	0,062
-342,620	-104,145	0,080	0,013
-341,606	-200,000	0,034	-0,121
-340,591	27,805	-0,071	0,044
-339,577	52,610	0,074	-0,052
-338,562	129,536	-0,076	-0,071
-337,548	-200,000	-0,013	-0,065
-336,533	-200,000	0,037	0,120
-335,518	-200,000	-0,020	0,075
-334,504	326,801	-0,056	0,079
-333,489	-3,243	-0,036	0,018
-332,475	27,028	-0,060	0,036
-331,460	-200,000	-0,005	-0,148
-330,445	280,100	0,084	-0,110
-329,431	-200,000	-0,007	0,025
-328,416	-106,366	0,124	-0,020
-327,402	-200,000	0,009	0,052
-326,387	437,906	-0,061	0,096
-325,372	-200,000	0,041	0,153
-324,358	-200,000	-0,012	-0,061
-323,343	-105,292	-0,078	0,013
-322,329	-200,000	0,018	-0,078
-321,314	100,566	0,062	0,052
-320,299	9,254	0,061	0,033
-319,285	598,083	-0,085	-0,153
-318,270	19,713	-0,161	-0,094
-317,256	104,689	-0,098	-0,084
-316,241	-90,987	-0,045	-0,009
-315,226	485,356	0,033	-0,054
-314,212	-200,000	-0,029	0,100
-313,197	211,154	0,055	-0,063
-312,183	319,534	-0,019	-0,026
-311,168	15,036	0,055	-0,031
-310,153	-200,000	-0,008	-0,133
-309,139	98,812	-0,012	0,010
-308,124	565,399	0,084	0,148
-307,110	166,706	-0,077	0,079
-306,095	274,541	0,072	0,093
-305,080	800,000	-0,030	0,073
-304,066	800,000	-0,010	0,025
-303,051	-61,493	-0,028	0,008
-302,037	-32,086	-0,054	0,022
-301,022	-44,600	0,150	0,054
-300,008	123,135	-0,047	-0,043
-298,993	17,331	0,118	0,068
-297,978	-200,000	0,008	0,135
-296,964	619,308	-0,059	-0,108
-295,949	800,000	0,030	-0,079
-294,935	-200,000	-0,005	0,023
-293,920	-47,302	0,098	0,034
-292,905	38,096	-0,063	0,041
-291,891	800,000	0,019	0,040
-290,876	-200,000	0,012	0,086
-289,862	-200,000	-0,009	-0,073
-288,847	-14,258	0,034	0,016
-287,832	191,724	-0,106	-0,116
-286,818	149,606	-0,023	-0,022
-285,803	-200,000	-0,026	0,108
-284,789	-200,000	-0,017	0,192
-283,774	-200,000	0,012	-0,155
-282,759	201,690	0,090	-0,100
-281,745	45,311	-0,034	0,022
-280,730	26,468	0,144	0,087
-279,716	-95,471	0,132	-0,026
-278,701	226,142	0,051	0,060
-277,686	526,533	-0,026	-0,045
-276,672	69,708	0,074	-0,056
-275,657	800,000	0,031	-0,082
-274,643	296,756	-0,054	0,072
-273,628	511,998	-0,034	0,058
-272,613	62,393	-0,059	-0,043
-271,599	-200,000	0,002	0,070
-270,584	160,951	-0,024	0,024
-269,570	800,000	-0,027	-0,058
-268,555	89,576	-0,168	0,136
-267,540	800,000	0,049	0,118
-266,526	502,608	-0,028	0,046
-265,511	-75,175	-0,087	-0,022
-264,497	-147,126	0,087	0,005
-263,482	-200,000	0,018	-0,131
-262,467	-200,000	0,004	-0,106
-261,453	-101,287	-0,174	0,031
-260,438	769,102	0,053	-0,106
-259,424	-200,000	0,005	0,032
-258,409	63,844	-0,143	-0,104
-257,395	137,563	0,025	0,024
-256,380	518,241	0,039	0,066
-255,365	-200,000	-0,004	-0,030
-254,351	54,116	-0,080	-0,056
-253,336	139,870	0,082	0,079
-252,322	-200,000	0,011	-0,058
-251,307	-200,000	-0,000	-0,009
-250,292	-84,884	0,092	0,021
-249,278	556,619	0,062	0,108
-248,263	-200,000	0,005	0,086
-247,249	-53,836	0,048	-0,016
-246,234	-200,000	-0,019	0,000
-245,219	90,657	-0,101	0,082
-244,205	800,000	-0,042	0,097
-243,190	-166,993	-0,207	0,006
-242,176	174,337	0,160	0,168
-241,161	68,084	0,115	-0,085
-240,146	-121,736	-0,030	0,004
-239,132	497,196	0,138	0,231
-238,117	50,424	-0,056	-0,038
-237,103	800,000	-0,016	0,034
-236,088	62,367	0,070	-0,050
-235,073	132,553	0,059	-0,056
-234,059	-62,142	0,139	0,042
-233,044	-12,626	0,132	-0,062
-232,030	227,694	-0,007	0,008
-231,015	-200,000	0,002	0,020
-230,000	528,512	0,027	-0,047
-228,986	312,527	0,078	-0,106
-227,971	800,000	-0,021	0,065
-226,957	-200,000	0,020	0,070
-225,942	257,858	0,108	-0,135
-224,927	-200,000	-0,001	0,038
-223,913	-138,248	-0,053	-0,004
-222,898	379,347	0,078	0,115
-221,884	-200,000	0,014	-0,125
-220,869	11,426	0,086	0,048
-219,855	-18,895	0,180	0,081
-218,840	-9,259	0,097	0,047
-217,825	19,201	0,095	-0,055
-216,811	-96,035	-0,078	0,015
-215,796	102,647	-0,048	0,041
-214,782	253,476	-0,054	-0,066
-213,767	-60,058	0,058	0,018
-212,752	-200,000	0,019	0,069
-211,738	-46,686	0,064	-0,023
-210,723	-102,511	0,052	0,009
-209,709	-30,168	0,065	-0,027
-208,694	-200,000	-0,037	-0,138
-207,679	725,868	0,044	-0,086
-206,665	800,000	-0,022	-0,046
-205,650	-61,775	-0,085	0,026
-204,636	-200,000	0,035	0,115
-203,621	-109,758	-0,064	-0,010
-202,606	337,743	0,048	-0,067
-201,592	800,000	0,034	0,069
-200,577	800,000	0,012	-0,036
-199,563	800,000	-0,014	-0,038
-198,548	229,719	0,114	0,134
-197,533	-132,810	-0,045	0,004
-196,519	47,504	-0,084	0,057
-195,504	55,009	0,044	-0,031
-194,490	269,671	-0,026	-0,034
-193,475	800,000	-0,010	0,027
-192,460	75,414	0,106	-0,080
-191,446	120,386	0,064	0,058
-190,431	108,921	-0,141	0,122
-189,417	-81,700	0,046	0,011
-188,402	-95,194	-0,023	-0,004
-187,387	313,776	0,024	-0,033
-186,373	51,346	0,090	-0,062
-185,358	-127,896	-0,056	-0,006
-184,344	412,223	0,064	-0,099
-183,329	-200,000	0,048	0,179
-182,315	35,542	0,041	0,026
-181,300	800,000	0,008	-0,018
-180,285	145,440	-0,084	-0,081
-179,271	-31,470	-0,057	0,023
-178,256	800,000	0,013	0,036
-177,242	-149,668	0,105	-0,006
-176,227	623,561	0,069	0,126
-175,212	50,046	0,041	-0,028
-174,198	-200,000	-0,002	0,123
-173,183	-200,000	-0,039	-0,140
-172,169	-200,000	-0,008	0,169
-171,154	630,732	0,082	-0,151
-170,139	-200,000	0,031	0,099
-169,125	-73,032	0,043	0,011
-168,110	188,668	0,050	0,054
-167,096	-200,000	-0,035	0,123
-166,081	-200,000	-0,016	-0,064
-165,066	4,766	0,006	-0,003
-164,052	-98,855	-0,079	0,014
-163,037	-57,905	0,102	-0,032
-162,023	71,265	0,107	0,080
-161,008	-200,000	0,002	-0,170
-159,993	600,974	-0,061	-0,109
-158,979	239,953	-0,058	0,070
-157,964	519,066	0,075	0,128
-156,950	800,000	-0,012	-0,026
-155,935	144,570	0,042	0,041
-154,920	67,628	0,074	0,055
-153,906	-105,313	0,097	0,016
-152,891	-200,000	0,008	-0,043
-151,877	-106,942	0,056	0,009
-150,862	-200,000	-0,003	0,045
-149,847	-88,370	-0,103	0,022
-148,833	15,300	0,054	0,030
-147,818	800,000	-0,049	0,123
-146,804	-25,597	0,069	-0,029
-145,789	-67,595	-0,029	0,008
-144,775	-200,000	-0,012	-0,060
-143,760	489,412	-0,041	-0,067
-142,745	-69,038	-0,025	-0,007
-141,731	800,000	0,035	-0,076
-140,716	15,985	0,013	0,008
-139,702	65,695	-0,065	-0,047
-138,687	84,379	-0,081	0,064
-137,672	203,000	-0,094	0,105
-136,658	273,852	0,069	-0,088
-135,643	363,066	0,056	0,081
-134,629	19,208	-0,048	-0,028
-133,614	-13,075	-0,114	-0,053
-132,599	-99,513	0,090	0,016
-131,585	-200,000	-0,002	0,130
-130,570	-23,548	-0,051	0,022
-129,556	122,743	-0,059	0,053
-128,541	488,747	-0,057	0,095
-127,526	-121,019	0,175	-0,021
-126,512	-89,904	0,035	0,007
-125,497	-7,157	0,030	0,015
-124,483	-200,000	0,011	0,217
-123,468	48,661	-0,091	0,062
-122,453	190,528	-0,048	0,053
-121,439	83,081	0,026	0,020
-120,424	37,161	0,070	-0,044
-119,410	-76,733	-0,020	-0,005
-118,395	-200,000	0,015	0,087
-117,380	255,419	-0,069	0,086
-116,366	-128,006	-0,202	0,021
-115,351	-200,000	-0,006	0,083
-114,337	44,332	0,087	0,057
-113,322	227,208	0,037	-0,043
-112,307	278,068	-0,038	-0,049
-111,293	800,000	0,047	0,100
-110,278	-25,014	-0,117	-0,050
-109,264	-14,016	-0,056	0,026
-108,249	140,249	0,062	0,059
-107,234	-61,684	-0,143	0,043
-106,220	-83,243	-0,206	0,047
-105,205	714,309	0,039	0,075
-104,191	-200,000	-0,019	-0,084
-103,176	800,000	-0,047	0,139
-102,162	313,155	-0,048	-0,065
-101,147	800,000	-0,022	0,058
-100,132	-10,107	-0,032	0,015
-99,118	-36,540	0,005	-0,002
-98,103	115,900	0,010	-0,009
-97,089	245,348	-0,067	-0,082
-96,074	-35,128	0,061	0,024
-95,059	-200,000	0,015	-0,087
-94,045	-139,204	0,083	-0,006
-93,030	-200,000	0,014	-0,053
-92,016	491,893	-0,108	0,180
-91,001	-30,208	0,149	-0,061
-89,986	24,907	0,023	0,014
-88,972	502,576	0,059	0,099
-87,957	-167,387	0,094	-0,003
-86,943	-200,000	0,002	-0,007
-85,928	746,277	-0,043	-0,084
-84,913	185,385	0,101	-0,108
-83,899	-68,415	-0,071	-0,020
-82,884	461,250	-0,036	-0,057
-81,870	-50,867	0,132	0,044
-80,855	-200,000	-0,000	-0,054
-79,840	-86,563	-0,055	0,012
-78,826	198,054	-0,039	0,043
-77,811	19,255	-0,032	-0,018
-76,797	800,000	-0,025	0,054
-75,782	-200,000	0,012	0,047
-74,767	-123,919	0,023	0,003
-73,753	-20,990	0,143	0,063
-72,738	84,953	-0,171	-0,135
-71,724	410,658	0,095	-0,145
-70,709	465,249	-0,061	-0,098
-69,694	-200,000	0,015	0,125
-68,680	-21,992	0,031	0,013
-67,665	-97,149	0,037	-0,007
-66,651	-200,000	0,007	0,081
-65,636	-137,324	0,043	-0,003
-64,622	375,744	-0,063	-0,093
-63,607	465,827	-0,095	-0,154
-62,592	-157,874	0,068	-0,003
-61,578	-200,000	0,041	-0,140
-60,563	800,000	-0,051	-0,144
-59,549	488,919	0,109	0,180
-58,534	19,856	-2,109	-1,220
-57,519	-200,000	-0,106	-0,655
-56,505	-200,000	-1,310	-4,885
-55,490	66,861	0,825	0,604
-54,476	800,000	5,348	12,048
-53,461	-200,000	18,190	294,779
-52,446	800,000	730,053	2223,479
-51,432	518,633	1642,805	2777,590
-50,417	108,716	1627,067	1398,139
-49,403	75,661	1250,998	949,694
-48,388	32,098	970,466	600,606
-47,373	20,284	929,573	538,616
-46,359	18,152	916,745	524,589
-45,344	14,696	912,926	511,745
-44,330	15,103	911,379	512,110
-43,315	14,444	909,588	509,061
-42,300	14,452	908,588	508,506
-41,286	14,336	907,657	507,608
-40,271	14,388	906,725	507,228
-39,257	14,332	905,953	506,604
-38,242	14,356	905,055	506,154
-37,227	14,360	904,330	505,741
-36,213	14,388	903,471	505,326
-35,198	14,335	902,579	504,645
-34,184	14,406	901,897	504,461
-33,169	14,351	900,990	503,766
-32,154	14,366	899,994	503,235
-31,140	14,400	899,293	502,925
-30,125	14,410	898,556	502,523
-29,111	14,346	897,794	501,883
-28,096	14,437	897,101	501,753
-27,082	14,412	896,500	501,319
-26,067	14,430	895,964	501,056
-25,052	14,399	895,185	500,507
-24,038	14,400	894,471	500,089
-23,023	14,345	893,977	499,627
-22,009	14,434	893,416	499,562
-20,994	14,440	892,577	499,090
-19,979	14,438	892,105	498,802
-18,965	14,406	891,558	498,382
-17,950	14,433	890,910	498,079
-16,936	14,309	890,342	497,370
-15,921	14,331	889,682	497,047
-14,906	14,311	888,691	496,414
-13,892	14,252	888,477	496,097
-12,877	14,272	887,807	495,763
-11,863	14,223	887,179	495,246
-10,848	14,337	886,542	495,212
-9,833	14,373	886,306	495,170
-8,819	14,416	885,559	494,861
-7,804	14,316	885,116	494,293
-6,790	14,284	884,390	493,774
-5,775	14,328	883,970	493,650
-4,760	14,339	883,427	493,362
-3,746	14,252	882,865	492,767
-2,731	14,207	882,052	492,161
-1,717	14,092	881,566	491,528
-0,702	14,094	880,886	491,135
0,313	13,864	880,394	490,920
1,327	17,538	878,218	500,546
2,342	26,733	738,985	443,922
3,356	23,196	414,473	244,060
4,371	-6,393	275,540	134,587
5,386	-10,200	258,389	122,825
6,400	-11,637	253,203	119,100
7,415	-11,798	250,933	117,883
8,429	-11,822	249,492	117,175
9,444	-11,937	248,767	116,726
10,459	-12,006	248,121	116,354
11,473	-12,154	247,487	115,921
12,488	-12,348	247,091	115,560
13,502	-12,415	246,294	115,120
14,517	-12,499	246,006	114,905
15,531	-12,684	245,584	114,541
16,546	-12,304	245,188	114,666
17,561	-12,671	245,021	114,270
18,575	-12,510	244,579	114,188
19,590	-12,572	244,336	114,013
20,604	-12,475	243,973	113,914
21,619	-12,558	243,740	113,726
22,634	-12,490	243,361	113,596
23,648	-12,669	243,200	113,361
24,663	-12,610	242,948	113,283
25,677	-12,706	242,702	113,078
26,692	-12,625	242,417	113,003
27,707	-12,820	242,181	112,720
28,721	-12,631	241,803	112,691
29,736	-12,686	241,693	112,584
30,750	-12,548	241,394	112,549
31,765	-12,569	241,220	112,440
32,780	-12,794	241,008	112,145
33,794	-12,659	240,743	112,124
34,809	-12,781	240,652	111,971
35,823	-12,907	240,336	111,710
36,838	-12,768	239,937	111,629
37,853	-12,714	239,841	111,619
38,867	-12,890	239,597	111,351
39,882	-12,881	239,459	111,284
40,896	-12,738	239,097	111,223
41,911	-12,793	238,821	111,040
42,926	-12,932	238,716	110,868
43,940	-12,730	238,398	110,875
44,955	-12,767	238,319	110,798
45,969	-12,883	237,968	110,530
46,984	-13,032	237,941	110,387
47,999	-13,341	237,757	110,040
49,013	-13,145	237,226	109,944
50,028	-13,317	237,049	109,712
51,042	-13,659	236,918	109,364
52,057	-13,543	236,803	109,396
53,071	-13,476	236,475	109,289
54,086	-13,414	236,331	109,262
55,101	-13,182	236,056	109,313
56,115	-13,128	236,018	109,329
57,130	-12,604	235,938	109,706
58,144	-12,428	235,944	109,840
59,159	-12,240	235,593	109,818
60,174	-12,442	235,270	109,495
61,188	-12,533	235,212	109,386
62,203	-12,425	235,028	109,377
63,217	-12,611	234,804	109,114
64,232	-12,515	234,624	109,098
65,247	-12,663	234,464	108,894
66,261	-12,650	234,294	108,817
67,276	-12,762	233,793	108,485
68,290	-12,951	233,715	108,288
69,305	-13,194	233,410	107,943
70,320	-13,026	233,150	107,947
71,334	-12,693	232,912	108,092
72,349	-12,463	233,123	108,363
73,363	-12,582	232,894	108,152
74,378	-12,572	232,789	108,102
75,393	-12,432	232,442	108,043
76,407	-12,606	232,288	107,823
77,422	-12,580	232,026	107,713
78,436	-12,583	231,870	107,628
79,451	-12,493	231,539	107,537
80,466	-12,695	231,441	107,321
81,480	-12,749	231,150	107,134
82,495	-12,889	230,960	106,926
83,509	-12,780	230,871	106,962
84,524	-13,024	230,684	106,674
85,539	-12,807	230,331	106,671
86,553	-12,965	230,305	106,526
87,568	-12,975	230,108	106,417
88,582	-12,930	229,895	106,344
89,597	-12,864	229,792	106,339
90,611	-12,761	229,671	106,354
91,626	-12,677	229,510	106,336
92,641	-12,598	229,305	106,293
93,655	-12,881	229,200	106,014
94,670	-12,732	228,944	106,003
95,684	-12,798	228,815	105,882
96,699	-12,622	228,552	105,888
97,714	-12,794	228,293	105,624
98,728	-12,970	228,355	105,507
99,743	-13,285	227,991	105,085
100,757	-13,099	227,854	105,156
101,772	-12,873	227,580	105,196
102,787	-12,765	227,542	105,252
103,801	-12,889	227,246	105,010
104,816	-12,877	227,250	105,012
105,830	-12,658	227,100	105,103
106,845	-12,543	226,941	105,108
107,860	-12,638	226,729	104,928
108,874	-12,649	226,400	104,757
109,889	-12,722	226,210	104,604
110,903	-12,873	226,046	104,403
111,918	-12,799	225,959	104,410
112,933	-12,753	225,815	104,370
113,947	-12,457	225,472	104,429
114,962	-12,410	225,350	104,399
115,976	-12,622	225,303	104,205
116,991	-12,682	225,049	104,033
118,006	-12,699	224,980	103,978
119,020	-12,738	224,946	103,924
120,035	-12,725	224,713	103,817
121,049	-12,653	224,693	103,853
122,064	-12,635	224,553	103,793
123,079	-12,575	224,229	103,680
124,093	-12,764	223,905	103,377
125,108	-12,948	223,813	103,185
126,122	-12,848	223,398	103,061
127,137	-13,246	223,340	102,723
128,151	-12,829	223,150	102,942
129,166	-12,910	223,010	102,807
130,181	-13,054	222,986	102,678
131,195	-13,179	222,861	102,517
132,210	-12,645	222,444	102,719
133,224	-12,537	222,365	102,755
134,239	-12,678	222,421	102,666
135,254	-12,453	222,131	102,692
136,268	-12,720	221,762	102,311
137,283	-13,063	221,601	101,970
138,297	-13,103	221,484	101,876
139,312	-13,196	221,399	101,758
140,327	-12,917	221,359	101,941
141,341	-12,530	221,250	102,172
142,356	-12,525	221,211	102,149
143,370	-12,383	220,976	102,137
144,385	-12,291	220,760	102,097
145,400	-12,305	220,584	101,997
146,414	-12,471	220,408	101,782
147,429	-12,324	220,169	101,772
148,443	-12,431	220,140	101,670
149,458	-12,615	219,989	101,454
150,473	-12,444	219,654	101,418
151,487	-12,544	219,587	101,303
152,502	-12,376	219,453	101,358
153,516	-12,322	219,297	101,317
154,531	-12,378	219,085	101,168
155,546	-12,432	218,944	101,054
156,560	-12,524	218,638	100,835
157,575	-12,507	218,576	100,810
158,589	-12,324	218,362	100,838
159,604	-12,306	218,277	100,803
160,619	-12,274	218,249	100,805
161,633	-12,098	218,131	100,871
162,648	-12,163	217,912	100,713
163,662	-12,388	217,761	100,468
164,677	-12,386	217,489	100,335
165,692	-12,411	217,340	100,239
166,706	-12,253	217,284	100,321
167,721	-12,119	217,225	100,383
168,735	-12,160	217,123	100,297
169,750	-12,208	216,940	100,168
170,764	-12,373	216,669	99,913
171,779	-12,443	216,679	99,857
172,794	-12,268	216,542	99,914
173,808	-12,364	216,382	99,761
174,823	-12,969	215,992	99,130
175,837	-13,139	215,896	98,952
176,852	-12,458	215,793	99,394
177,867	-12,252	215,651	99,470
178,881	-12,528	215,551	99,214
179,896	-12,588	215,443	99,111
180,910	-12,531	215,367	99,109
181,925	-12,417	215,197	99,105
182,940	-12,219	215,090	99,190
183,954	-12,025	214,950	99,258
184,969	-12,161	214,907	99,131
185,983	-11,956	214,542	99,102
186,998	-12,157	214,628	98,988
188,013	-12,037	214,326	98,926
189,027	-12,034	214,174	98,850
190,042	-12,358	214,067	98,557
191,056	-12,325	213,985	98,534
192,071	-12,288	213,769	98,452
193,086	-12,266	213,784	98,466
194,100	-12,057	213,486	98,471
195,115	-12,100	213,238	98,317
196,129	-11,975	213,379	98,463
197,144	-7,581	214,638	102,217
198,159	-3,286	215,769	105,867
199,173	0,521	216,715	109,093
200,188	1,367	216,681	109,681
201,202	0,985	216,605	109,355
202,217	0,884	216,550	109,245
203,232	1,138	216,341	109,314
204,246	1,291	216,236	109,362
205,261	1,162	216,093	109,187
206,275	1,567	215,948	109,396
207,290	1,466	216,023	109,352
208,304	1,488	215,789	109,239
209,319	1,657	215,590	109,251
210,334	1,453	215,361	108,977
211,348	1,401	215,160	108,829
212,363	1,042	215,139	108,550
213,377	0,823	214,924	108,274
214,392	0,669	214,788	108,085
215,407	1,217	214,677	108,414
216,421	1,218	214,343	108,236
217,436	1,095	214,306	108,120
218,450	0,625	214,180	107,709
219,465	0,853	213,976	107,760
220,480	0,681	213,839	107,558
221,494	0,728	213,768	107,547
222,509	0,952	213,711	107,669
223,523	0,993	213,644	107,655
224,538	0,885	213,490	107,490
225,553	0,869	213,335	107,391
226,567	1,048	213,005	107,343
227,582	1,255	213,147	107,553
228,596	1,511	212,893	107,597
229,611	1,060	212,687	107,163
230,626	0,865	212,441	106,891
231,640	0,604	212,433	106,692
232,655	1,280	212,411	107,151
233,669	1,250	212,329	107,080
234,684	1,636	211,999	107,177
235,699	1,345	211,918	106,920
236,713	0,923	211,751	106,528
237,728	0,948	211,439	106,379
238,742	0,858	211,288	106,230
239,757	1,183	211,225	106,418
240,772	0,927	211,073	106,152
241,786	1,007	210,983	106,153
242,801	1,256	210,915	106,285
243,815	1,582	210,903	106,499
244,830	1,754	210,550	106,432
245,844	1,064	210,437	105,881
246,859	1,030	210,225	105,741
247,874	1,197	210,214	105,843
248,888	1,414	210,082	105,919
249,903	1,128	209,870	105,603
250,917	0,865	209,785	105,367
251,932	0,982	209,677	105,385
252,947	0,833	209,569	105,216
253,961	0,661	209,345	104,975
254,976	0,828	209,111	104,965
255,990	1,336	209,077	105,292
257,005	1,157	209,039	105,139
258,020	1,206	208,893	105,090
259,034	1,306	208,754	105,081
260,049	1,399	208,634	105,076
261,063	0,913	208,465	104,644
262,078	1,439	208,322	104,927
263,093	1,599	208,266	105,001
264,107	1,459	208,153	104,838
265,122	1,290	207,993	104,630
266,136	1,626	207,892	104,803
267,151	1,521	207,751	104,650
268,166	1,428	207,397	104,399
269,180	0,672	207,290	103,812
270,195	1,060	207,037	103,945
271,209	0,947	207,046	103,862
272,224	1,228	206,834	103,940
273,239	1,064	206,892	103,847
274,253	1,086	206,624	103,718
275,268	0,921	206,428	103,497
276,282	0,740	206,301	103,300
277,297	0,919	206,195	103,360
278,312	1,014	206,142	103,390
279,326	1,123	206,000	103,384
280,341	1,154	205,763	103,277
281,355	1,303	205,761	103,369
282,370	1,064	205,764	103,197
283,384	0,978	205,510	103,002
284,399	0,898	205,184	102,774
285,414	0,856	205,055	102,673
286,428	1,009	205,091	102,786
287,443	1,297	205,021	102,938
288,457	1,300	204,887	102,863
289,472	1,007	204,550	102,486
290,487	0,687	204,408	102,188
291,501	0,838	204,255	102,205
292,516	0,967	204,145	102,228
293,530	0,833	204,035	102,073
294,545	0,887	204,064	102,116
295,560	1,011	203,926	102,121
296,574	1,081	203,702	102,047
297,589	1,123	203,618	102,024
298,603	1,138	203,485	101,959
299,618	1,226	203,452	101,993
300,633	1,326	203,208	101,929
301,647	1,397	203,161	101,944
302,662	1,358	203,033	101,844
303,676	1,363	202,946	101,795
304,691	1,442	202,790	101,761
305,706	1,136	202,647	101,474
306,720	1,356	202,458	101,519
307,735	0,943	202,388	101,196
308,749	1,307	202,119	101,297
309,764	1,169	202,092	101,182
310,779	1,190	201,957	101,120
311,793	1,181	201,688	100,970
312,808	1,250	201,587	100,957
313,822	1,403	201,524	101,018
314,837	1,065	201,434	100,739
315,852	1,017	201,320	100,640
316,866	1,298	201,089	100,703
317,881	1,356	201,161	100,769
318,895	1,243	201,016	100,612
319,910	0,922	200,676	100,219
320,925	0,585	200,530	99,914
321,939	0,553	200,350	99,793
322,954	0,898	200,287	99,982
323,968	1,094	200,374	100,147
324,983	1,515	200,191	100,326
325,997	1,432	200,140	100,237
327,012	1,504	199,924	100,167
328,027	1,524	199,687	100,053
329,041	1,533	199,716	100,065
330,056	1,363	199,607	99,889
331,070	0,774	199,413	99,393
332,085	0,625	199,228	99,193
333,100	1,308	198,984	99,513
334,114	1,303	199,034	99,527
335,129	1,152	198,960	99,381
336,143	1,313	198,728	99,362
337,158	1,308	198,707	99,340
338,173	1,232	198,435	99,145
339,187	1,213	198,297	99,055
340,202	0,911	198,197	98,798
341,216	1,010	197,917	98,714
342,231	1,107	197,932	98,776
343,246	1,336	197,719	98,812
344,260	1,115	197,512	98,554
345,275	1,087	197,696	98,619
346,289	1,128	197,419	98,499
347,304	1,232	197,443	98,570
348,319	1,650	197,258	98,742
349,333	1,441	197,200	98,568
350,348	1,688	197,108	98,674
351,362	1,569	197,037	98,552
352,377	1,478	196,787	98,359
353,392	1,383	196,675	98,232
354,406	1,571	196,469	98,243
355,421	195,624	1313,533	1393,429
356,435	155,931	1449,609	1393,391
