DTS Sentinel unit serial number:	SN410029Multiplexer serial number:	ORYXHardware model number:	OX2-SRSoftware version number:	ORYX F/W v4,00 Oryx Data Collector v3.7.2.0data status	okinstallation	B6 Nyhavnadifferential loss correction	single-endedforward channel	channel 2reverse channel	N/Adate	2023/12/07time	12:10:08forward acquisition time	300,00reverse acquisition time	0,00gamma	499,1914k internal	0,3203k external	0,3203temperature offset calibration	1,0000default loss term (dB/km)	0,3820temperature slope calibration	1,0000multiplexer offset coefficient	1,0000multiplexer slope coefficient	1,0000fibre end	0,00T internal ref (°C)	9,64T ext. ref 1 (°C)	-4,13T ext. ref 2 (°C)	-4,10length (m)	temperature (°C)	Stokes	anti-Stokes-744,400	19,495	0,082	0,048
-743,385	-69,709	-0,416	-0,115
-742,371	-108,842	0,239	0,037
-741,356	24,725	-0,330	-0,198
-740,342	-2,893	0,214	0,108
-739,327	-173,906	-0,329	-0,007
-738,312	-50,266	0,186	0,064
-737,298	70,703	-0,199	-0,149
-736,283	-52,624	0,171	0,057
-735,269	-57,595	-0,367	-0,116
-734,254	-44,593	0,110	0,040
-733,239	0,221	-0,566	-0,292
-732,225	-5,121	0,150	0,075
-731,210	414,907	-0,026	0,040
-730,196	72,959	0,041	-0,031
-729,181	115,037	-0,149	-0,132
-728,167	134,518	-0,075	0,071
-727,152	-200,000	-0,008	0,054
-726,137	-42,895	-0,062	0,023
-725,123	800,000	0,036	-0,088
-724,108	-62,274	-0,115	-0,034
-723,094	800,000	0,049	-0,118
-722,079	184,041	0,022	0,024
-721,064	173,891	-0,068	0,071
-720,050	38,676	-0,021	0,013
-719,035	-38,640	-0,266	0,102
-718,021	-200,000	0,012	-0,046
-717,006	800,000	-0,038	-0,081
-715,991	682,207	-0,123	-0,234
-714,977	60,614	-0,160	-0,115
-713,962	-200,000	-0,004	-0,093
-712,948	-117,710	0,071	0,009
-711,933	779,091	0,018	-0,035
-710,918	18,293	-0,157	-0,091
-709,904	-121,419	-0,021	0,003
-708,889	-28,104	-0,063	0,026
-707,875	-200,000	-0,008	-0,185
-706,860	800,000	-0,012	-0,036
-705,845	-200,000	0,004	-0,065
-704,831	107,954	0,017	0,015
-703,816	-200,000	-0,009	-0,076
-702,802	-27,358	-0,113	0,047
-701,787	532,317	-0,036	-0,062
-700,772	-111,484	-0,086	0,013
-699,758	-200,000	-0,009	0,059
-698,743	279,977	0,079	0,102
-697,729	800,000	-0,032	0,081
-696,714	-151,620	-0,029	0,002
-695,699	-95,954	0,074	-0,014
-694,685	-155,680	-0,083	0,004
-693,670	316,526	0,086	-0,119
-692,656	13,511	-0,076	0,043
-691,641	-78,156	0,023	-0,006
-690,627	-200,000	-0,013	0,050
-689,612	-53,157	-0,051	-0,017
-688,597	16,339	0,077	-0,044
-687,583	-200,000	-0,014	-0,056
-686,568	545,124	-0,058	0,101
-685,554	352,101	-0,022	-0,032
-684,539	-48,949	0,094	-0,033
-683,524	800,000	-0,020	-0,059
-682,510	-200,000	0,014	-0,066
-681,495	353,616	-0,046	-0,067
-680,481	-200,000	-0,003	-0,077
-679,466	48,138	-0,087	-0,059
-678,451	97,221	-0,143	-0,119
-677,437	-200,000	0,004	-0,110
-676,422	800,000	0,040	-0,089
-675,408	-200,000	-0,002	-0,027
-674,393	800,000	0,033	0,083
-673,378	345,454	0,026	0,037
-672,364	110,039	-0,112	-0,097
-671,349	-200,000	0,012	-0,092
-670,335	800,000	0,021	0,051
-669,320	-125,339	0,017	-0,002
-668,305	14,320	-0,064	0,036
-667,291	-136,618	-0,011	-0,001
-666,276	-200,000	-0,057	-0,199
-665,262	757,174	-0,047	-0,093
-664,247	800,000	0,056	-0,112
-663,232	-200,000	0,038	0,156
-662,218	29,845	-0,052	0,032
-661,203	364,352	0,038	-0,056
-660,189	158,057	-0,024	-0,024
-659,174	-40,256	0,044	-0,017
-658,159	523,943	-0,033	-0,056
-657,145	-67,650	-0,093	-0,026
-656,130	41,669	0,078	-0,051
-655,116	504,901	0,066	-0,111
-654,101	508,573	-0,039	0,065
-653,086	677,615	-0,068	0,128
-652,072	800,000	0,052	-0,111
-651,057	800,000	-0,064	-0,128
-650,043	73,667	-0,072	0,054
-649,028	800,000	0,031	-0,085
-648,014	371,512	0,059	0,087
-646,999	-200,000	0,017	-0,063
-645,984	-200,000	0,000	0,017
-644,970	-200,000	-0,005	0,050
-643,955	-134,078	-0,097	-0,009
-642,941	-20,672	-0,046	0,020
-641,926	800,000	-0,027	-0,056
-640,911	14,915	-0,036	-0,020
-639,897	264,669	0,136	0,172
-638,882	15,247	-0,034	-0,020
-637,868	150,116	0,069	0,068
-636,853	376,641	-0,055	0,081
-635,838	7,824	-0,063	0,034
-634,824	-200,000	0,032	-0,183
-633,809	62,227	0,067	0,048
-632,795	-200,000	-0,015	0,105
-631,780	-200,000	-0,010	0,036
-630,765	542,378	-0,125	-0,217
-629,751	-157,210	0,063	0,003
-628,736	333,874	0,045	-0,063
-627,722	-200,000	-0,020	-0,184
-626,707	33,029	0,111	0,070
-625,692	251,763	0,049	0,060
-624,678	681,419	-0,033	0,062
-623,663	-176,458	-0,083	0,002
-622,649	-200,000	-0,005	-0,053
-621,634	-44,637	0,062	-0,022
-620,619	-35,362	-0,092	-0,036
-619,605	-45,349	0,097	0,035
-618,590	-200,000	0,021	-0,171
-617,576	587,130	0,099	0,176
-616,561	-200,000	-0,008	-0,066
-615,546	640,780	-0,056	-0,103
-614,532	546,275	-0,047	-0,081
-613,517	-6,818	0,125	0,061
-612,503	-200,000	-0,002	-0,033
-611,488	6,919	-0,055	0,030
-610,474	-112,661	-0,155	-0,022
-609,459	-131,362	-0,118	0,011
-608,444	-200,000	-0,005	-0,026
-607,430	478,654	0,089	-0,146
-606,415	800,000	-0,039	-0,112
-605,401	562,092	0,051	0,090
-604,386	-200,000	0,014	0,053
-603,371	-127,515	0,138	0,014
-602,357	199,226	-0,090	-0,100
-601,342	800,000	0,023	-0,063
-600,328	30,655	-0,026	-0,016
-599,313	157,588	0,065	0,066
-598,298	-200,000	0,000	0,019
-597,284	800,000	-0,015	0,035
-596,269	-200,000	-0,012	0,172
-595,255	292,895	-0,022	0,029
-594,240	558,586	-0,099	-0,173
-593,225	508,947	-0,036	-0,061
-592,211	-97,095	-0,098	0,018
-591,196	-200,000	0,062	-0,203
-590,182	317,166	-0,006	-0,009
-589,167	-51,992	0,065	-0,022
-588,152	715,086	-0,020	0,039
-587,138	-200,000	0,023	-0,138
-586,123	-200,000	0,001	0,068
-585,109	403,612	-0,058	-0,089
-584,094	800,000	-0,038	-0,099
-583,079	117,553	0,095	-0,085
-582,065	-200,000	-0,007	0,050
-581,050	-19,063	0,030	0,013
-580,036	76,930	-0,074	-0,056
-579,021	38,997	0,042	-0,027
-578,006	-121,168	-0,169	-0,020
-576,992	-127,388	-0,069	0,007
-575,977	800,000	-0,028	-0,075
-574,963	684,063	0,089	0,168
-573,948	800,000	0,032	0,082
-572,934	600,164	0,029	0,052
-571,919	117,439	-0,144	-0,128
-570,904	14,982	-0,131	-0,074
-569,890	132,947	-0,167	-0,156
-568,875	-154,199	-0,045	-0,002
-567,861	32,620	-0,035	0,022
-566,846	800,000	-0,011	0,026
-565,831	-200,000	0,016	0,090
-564,817	-200,000	0,019	-0,068
-563,802	-138,530	-0,033	-0,003
-562,788	800,000	-0,024	-0,061
-561,773	243,430	-0,058	-0,071
-560,758	-23,781	0,030	0,013
-559,744	-71,742	-0,024	0,006
-558,729	-30,434	-0,065	-0,026
-557,715	-200,000	0,001	0,007
-556,700	18,048	-0,143	-0,082
-555,685	219,735	0,070	-0,081
-554,671	-200,000	-0,004	-0,041
-553,656	800,000	0,029	-0,086
-552,642	-200,000	0,036	0,240
-551,627	112,676	-0,060	0,052
-550,612	-200,000	-0,019	-0,107
-549,598	109,506	-0,089	-0,077
-548,583	800,000	0,060	-0,123
-547,569	52,883	0,046	0,032
-546,554	422,360	0,018	-0,028
-545,539	54,785	0,088	0,061
-544,525	-174,885	-0,038	0,001
-543,510	-109,931	-0,043	-0,006
-542,496	414,074	-0,075	-0,115
-541,481	800,000	-0,019	-0,049
-540,466	45,567	0,085	-0,057
-539,452	-200,000	0,019	0,096
-538,437	-200,000	0,029	-0,155
-537,423	59,261	0,048	-0,034
-536,408	40,841	-0,128	-0,083
-535,393	-58,965	-0,052	-0,016
-534,379	-85,249	-0,156	-0,035
-533,364	-51,277	-0,064	-0,022
-532,350	-76,201	0,055	-0,014
-531,335	222,653	0,111	-0,129
-530,321	-12,398	0,091	-0,043
-529,306	-65,671	0,064	-0,018
-528,291	-39,777	-0,098	-0,037
-527,277	-200,000	-0,006	-0,024
-526,262	-73,024	-0,141	0,037
-525,248	-200,000	-0,008	0,096
-524,233	800,000	0,040	0,080
-523,218	800,000	-0,018	-0,037
-522,204	9,631	-0,033	-0,018
-521,189	-200,000	0,005	0,156
-520,175	-41,654	0,102	0,038
-519,160	115,638	0,084	-0,074
-518,145	345,901	-0,038	-0,054
-517,131	365,335	-0,071	-0,103
-516,116	337,675	-0,027	0,038
-515,102	-200,000	-0,006	0,119
-514,087	-129,369	0,054	0,005
-513,072	75,951	-0,071	-0,054
-512,058	-102,859	-0,082	0,014
-511,043	-112,390	0,167	0,024
-510,029	147,913	-0,129	0,126
-509,014	-200,000	0,003	0,056
-507,999	-200,000	-0,001	0,041
-506,985	69,563	-0,067	0,049
-505,970	524,262	-0,027	0,045
-504,956	513,210	-0,027	0,046
-503,941	188,237	0,121	0,130
-502,926	633,264	0,073	0,133
-501,912	-200,000	0,005	0,154
-500,897	291,282	0,037	-0,048
-499,883	-200,000	-0,036	0,127
-498,868	239,135	-0,036	0,043
-497,853	-200,000	0,017	0,138
-496,839	101,505	0,065	0,054
-495,824	50,855	0,108	0,074
-494,810	-51,072	0,047	0,016
-493,795	800,000	-0,035	-0,080
-492,781	-79,949	-0,096	0,023
-491,766	-169,432	-0,071	0,002
-490,751	-68,424	-0,142	-0,039
-489,737	800,000	0,011	-0,026
-488,722	800,000	0,036	-0,103
-487,708	224,025	-0,063	0,074
-486,693	342,759	0,061	-0,086
-485,678	380,452	-0,048	0,071
-484,664	593,633	0,075	-0,134
-483,649	-200,000	-0,006	-0,103
-482,635	-29,971	0,080	-0,033
-481,620	-118,014	-0,068	-0,009
-480,605	206,620	-0,129	-0,144
-479,591	-61,245	0,051	-0,015
-478,576	-200,000	-0,024	-0,145
-477,562	-200,000	0,023	-0,092
-476,547	-134,163	-0,082	-0,007
-475,532	-200,000	0,015	0,050
-474,518	-9,161	0,024	0,011
-473,503	-200,000	-0,013	0,072
-472,489	-8,796	0,076	-0,036
-471,474	-75,786	-0,001	-0,000
-470,459	-200,000	-0,017	0,079
-469,445	-200,000	0,009	0,100
-468,430	-200,000	0,007	-0,053
-467,416	-148,541	-0,080	-0,005
-466,401	-200,000	0,033	0,148
-465,386	-200,000	0,009	0,088
-464,372	800,000	0,034	0,080
-463,357	800,000	0,048	-0,148
-462,343	800,000	-0,036	-0,093
-461,328	-112,503	-0,049	-0,007
-460,313	83,142	-0,102	0,080
-459,299	-50,526	0,056	-0,019
-458,284	-94,851	0,137	-0,027
-457,270	800,000	-0,025	-0,071
-456,255	203,249	-0,088	0,098
-455,241	341,452	-0,025	-0,035
-454,226	-65,657	0,084	0,024
-453,211	723,132	0,028	0,054
-452,197	-200,000	0,003	-0,029
-451,182	702,000	-0,053	0,102
-450,168	-119,159	0,060	-0,007
-449,153	800,000	-0,024	-0,063
-448,138	61,522	-0,069	-0,049
-447,124	800,000	0,013	-0,033
-446,109	800,000	0,042	-0,087
-445,095	-200,000	0,003	0,064
-444,080	308,144	0,081	0,109
-443,065	-81,118	-0,071	-0,017
-442,051	-124,662	0,183	-0,020
-441,036	-40,919	-0,101	-0,037
-440,022	-200,000	0,001	-0,050
-439,007	501,555	-0,086	-0,144
-437,992	-59,519	0,083	0,025
-436,978	193,053	0,071	0,077
-435,963	-200,000	-0,008	0,195
-434,949	385,930	-0,067	-0,100
-433,934	-200,000	0,001	0,069
-432,919	24,161	-0,067	-0,040
-431,905	-104,161	-0,095	0,016
-430,890	247,202	0,081	-0,099
-429,876	-200,000	-0,019	-0,087
-428,861	90,598	0,045	0,036
-427,846	-95,902	-0,062	-0,012
-426,832	577,184	0,058	0,102
-425,817	-200,000	0,018	-0,119
-424,803	-88,669	0,153	0,032
-423,788	484,994	-0,068	-0,111
-422,773	38,439	0,096	-0,061
-421,759	-38,786	0,177	0,067
-420,744	178,470	-0,139	0,145
-419,730	-200,000	0,066	-0,224
-418,715	-28,789	-0,160	-0,066
-417,701	49,666	-0,033	-0,023
-416,686	-102,961	0,026	-0,004
-415,671	16,308	0,053	0,030
-414,657	-41,145	0,126	0,046
-413,642	800,000	-0,042	0,092
-412,628	-200,000	-0,007	0,029
-411,613	800,000	-0,018	-0,040
-410,598	-102,843	0,101	-0,017
-409,584	-47,590	-0,074	-0,026
-408,569	40,935	0,144	-0,093
-407,555	-78,460	-0,090	-0,022
-406,540	-200,000	-0,017	-0,100
-405,525	-200,000	0,043	-0,145
-404,511	-200,000	0,006	-0,036
-403,496	622,704	0,042	-0,077
-402,482	-9,702	0,068	-0,032
-401,467	-149,756	0,185	-0,010
-400,452	-200,000	-0,045	0,149
-399,438	171,441	0,088	0,090
-398,423	800,000	-0,032	0,077
-397,409	533,175	-0,055	0,094
-396,394	-40,561	0,049	-0,018
-395,379	-200,000	-0,003	0,049
-394,365	95,117	0,078	-0,064
-393,350	56,600	-0,039	0,027
-392,336	-62,852	0,030	-0,009
-391,321	-114,912	-0,095	-0,013
-390,306	0,280	-0,050	-0,025
-389,292	6,811	-0,157	0,084
-388,277	13,424	0,091	0,051
-387,263	-57,680	0,086	0,027
-386,248	248,683	0,085	0,103
-385,233	29,728	-0,092	-0,056
-384,219	-51,593	0,090	0,030
-383,204	146,446	-0,034	-0,032
-382,190	-54,054	-0,113	-0,037
-381,175	236,440	-0,050	-0,059
-380,160	-200,000	0,012	-0,109
-379,146	-74,328	-0,125	0,032
-378,131	-200,000	0,000	0,011
-377,117	515,566	0,008	0,013
-376,102	800,000	-0,044	0,094
-375,088	-21,021	-0,042	0,019
-374,073	-25,398	0,071	-0,030
-373,058	-71,353	0,094	0,025
-372,044	-100,756	0,119	-0,021
-371,029	32,564	-0,081	0,050
-370,015	800,000	-0,054	0,146
-369,000	68,438	0,045	-0,033
-367,985	46,951	0,066	-0,044
-366,971	-20,050	0,086	-0,038
-365,956	2,941	0,154	-0,080
-364,942	110,176	-0,093	0,080
-363,927	401,315	0,069	0,103
-362,912	800,000	0,035	-0,078
-361,898	-125,192	-0,107	-0,012
-360,883	800,000	-0,038	-0,102
-359,869	-16,375	-0,166	-0,075
-358,854	800,000	0,053	0,104
-357,839	-123,905	0,254	0,028
-356,825	-200,000	-0,006	0,059
-355,810	-98,861	0,115	0,021
-354,796	-200,000	0,024	0,182
-353,781	82,060	-0,076	-0,059
-352,766	800,000	-0,021	-0,063
-351,752	-200,000	0,000	-0,007
-350,737	-200,000	-0,001	0,057
-349,723	800,000	-0,034	0,086
-348,708	204,359	0,067	0,074
-347,693	184,053	-0,072	-0,076
-346,679	-45,089	-0,068	-0,024
-345,664	800,000	-0,063	-0,133
-344,650	36,804	0,058	0,036
-343,635	-10,644	0,102	-0,048
-342,620	-76,222	-0,099	-0,025
-341,606	-120,495	-0,090	-0,011
-340,591	663,976	0,037	-0,069
-339,577	-3,859	-0,103	-0,051
-338,562	-200,000	-0,010	0,102
-337,548	-83,474	0,116	0,026
-336,533	-200,000	0,005	0,115
-335,518	-200,000	0,001	-0,054
-334,504	-72,859	0,092	0,024
-333,489	-84,634	-0,039	0,009
-332,475	177,656	-0,034	-0,035
-331,460	-200,000	-0,023	-0,091
-330,445	46,123	-0,088	-0,058
-329,431	800,000	0,025	-0,072
-328,416	122,345	-0,114	0,102
-327,402	800,000	-0,010	0,024
-326,387	-91,601	-0,071	-0,014
-325,372	800,000	-0,030	-0,090
-324,358	167,290	0,019	-0,019
-323,343	800,000	-0,016	0,047
-322,329	251,226	-0,080	0,098
-321,314	-200,000	-0,030	0,174
-320,299	75,880	-0,157	-0,118
-319,285	-5,347	-0,218	-0,107
-318,270	-200,000	0,025	-0,134
-317,256	143,698	-0,023	-0,022
-316,241	-3,459	0,168	0,083
-315,226	9,053	-0,079	-0,043
-314,212	-45,967	0,128	-0,045
-313,197	-200,000	-0,011	0,078
-312,183	223,591	0,019	-0,022
-311,168	74,467	0,077	-0,058
-310,153	61,746	-0,133	-0,095
-309,139	-65,402	0,108	0,031
-308,124	75,770	0,083	0,063
-307,110	-200,000	0,007	0,075
-306,095	-111,415	0,146	0,021
-305,080	-160,733	-0,075	-0,003
-304,066	-35,509	-0,099	0,038
-303,051	800,000	-0,067	-0,174
-302,037	-200,000	-0,012	-0,101
-301,022	-131,121	0,076	-0,007
-300,008	-197,752	0,034	0,000
-298,993	-49,563	0,080	0,027
-297,978	-61,404	0,075	0,022
-296,964	-117,152	-0,027	-0,003
-295,949	800,000	-0,062	-0,130
-294,935	-200,000	0,012	-0,051
-293,920	-109,814	0,039	-0,006
-292,905	-82,458	0,076	-0,017
-291,891	-22,176	0,096	0,042
-290,876	-200,000	-0,012	0,057
-289,862	417,103	0,031	0,048
-288,847	4,352	-0,075	-0,039
-287,832	-200,000	0,036	-0,157
-286,818	216,135	-0,084	-0,095
-285,803	100,489	0,132	0,109
-284,789	-200,000	-0,006	0,049
-283,774	-19,815	0,074	0,033
-282,759	10,298	-0,073	-0,039
-281,745	800,000	0,019	0,037
-280,730	241,361	-0,028	0,033
-279,716	-200,000	0,013	0,113
-278,701	-2,080	0,027	-0,013
-277,686	-38,511	0,069	-0,026
-276,672	-200,000	0,003	0,053
-275,657	-131,723	-0,048	0,004
-274,643	131,267	0,106	-0,097
-273,628	-47,186	0,092	-0,032
-272,613	800,000	-0,038	-0,099
-271,599	47,314	0,019	0,013
-270,584	800,000	-0,041	0,088
-269,570	174,254	0,112	0,116
-268,555	-200,000	-0,032	0,101
-267,540	285,070	-0,060	-0,078
-266,526	-103,998	-0,071	-0,012
-265,511	-200,000	-0,013	0,090
-264,497	66,245	0,130	-0,094
-263,482	94,176	0,057	-0,046
-262,467	800,000	0,076	0,156
-261,453	33,561	0,158	0,097
-260,438	29,514	-0,122	-0,074
-259,424	557,729	0,034	-0,058
-258,409	-70,872	-0,077	0,021
-257,395	800,000	0,077	-0,217
-256,380	11,934	0,073	0,040
-255,365	-71,696	0,037	0,010
-254,351	84,443	-0,125	-0,097
-253,336	800,000	0,027	-0,069
-252,322	498,586	-0,051	-0,083
-251,307	278,892	-0,045	0,057
-250,292	-200,000	-0,003	-0,132
-249,278	320,387	0,071	0,097
-248,263	-171,180	0,115	0,003
-247,249	-200,000	0,017	0,169
-246,234	464,710	-0,010	-0,017
-245,219	-100,124	0,133	-0,023
-244,205	-200,000	0,006	0,024
-243,190	31,468	-0,083	0,051
-242,176	406,726	0,019	0,029
-241,161	121,237	0,157	0,139
-240,146	-123,318	0,054	0,006
-239,132	-140,745	-0,149	0,011
-238,117	114,302	-0,129	-0,112
-237,103	-126,874	-0,090	-0,009
-236,088	110,142	-0,054	-0,047
-235,073	-63,266	-0,067	-0,019
-234,059	-200,000	0,000	-0,047
-233,044	6,514	0,067	-0,035
-232,030	-168,859	-0,189	-0,005
-231,015	-124,982	0,099	-0,011
-230,000	-200,000	-0,021	-0,224
-228,986	-90,445	-0,094	-0,019
-227,971	800,000	0,027	0,064
-226,957	-91,020	0,087	0,018
-225,942	367,841	-0,058	0,083
-224,927	-200,000	-0,016	-0,057
-223,913	395,116	0,039	-0,059
-222,898	800,000	0,079	0,167
-221,884	-54,544	-0,106	-0,034
-220,869	-200,000	0,005	-0,072
-219,855	58,268	-0,043	-0,030
-218,840	74,864	0,179	0,134
-217,825	-200,000	0,002	0,053
-216,811	-136,261	-0,199	-0,016
-215,796	173,900	-0,060	0,062
-214,782	12,925	-0,012	-0,007
-213,767	-200,000	-0,037	0,133
-212,752	3,092	0,067	-0,034
-211,738	116,903	0,070	0,061
-210,723	15,039	0,076	0,042
-209,709	-200,000	0,006	-0,160
-208,694	800,000	0,042	0,112
-207,679	36,375	0,099	0,062
-206,665	800,000	0,025	0,051
-205,650	-144,523	0,072	-0,005
-204,636	23,259	0,140	0,082
-203,621	-200,000	0,007	-0,054
-202,606	261,916	0,053	-0,065
-201,592	-85,108	-0,166	-0,037
-200,577	800,000	-0,039	-0,107
-199,563	36,601	0,050	-0,031
-198,548	157,850	0,084	0,083
-197,533	800,000	0,035	0,071
-196,519	-200,000	0,020	0,087
-195,504	800,000	-0,030	0,091
-194,490	468,927	-0,014	-0,023
-193,475	-200,000	-0,005	0,040
-192,460	530,383	-0,031	0,053
-191,446	-200,000	-0,002	0,010
-190,431	800,000	-0,014	0,032
-189,417	-200,000	-0,031	-0,106
-188,402	-124,256	-0,077	-0,008
-187,387	-183,098	0,088	-0,001
-186,373	-200,000	-0,027	0,097
-185,358	-200,000	-0,013	-0,042
-184,344	-22,406	0,169	0,072
-183,329	70,693	0,075	0,055
-182,315	-200,000	-0,026	0,096
-181,300	-165,408	-0,124	0,004
-180,285	-163,409	-0,089	0,003
-179,271	800,000	0,031	0,098
-178,256	26,457	0,120	0,071
-177,242	-5,273	0,054	0,026
-176,227	-200,000	-0,003	0,022
-175,212	606,434	-0,109	0,195
-174,198	-200,000	-0,005	0,088
-173,183	317,853	0,020	0,027
-172,169	620,660	0,013	-0,023
-171,154	399,876	-0,047	-0,070
-170,139	-48,452	-0,119	-0,040
-169,125	7,256	0,137	-0,073
-168,110	-200,000	-0,001	-0,022
-167,096	800,000	0,067	0,140
-166,081	-103,465	-0,135	0,022
-165,066	-200,000	0,003	-0,084
-164,052	189,623	0,051	0,054
-163,037	222,557	-0,084	0,097
-162,023	800,000	-0,011	0,022
-161,008	-200,000	0,003	0,226
-159,993	21,540	0,069	-0,040
-158,979	800,000	-0,032	0,069
-157,964	116,758	-0,092	-0,080
-156,950	627,388	0,011	0,020
-155,935	726,302	-0,061	0,117
-154,920	346,296	0,100	0,141
-153,906	796,861	-0,046	0,090
-152,891	-200,000	0,035	0,135
-151,877	135,970	0,162	0,150
-150,862	173,128	-0,053	-0,055
-149,847	800,000	0,018	-0,043
-148,833	2,277	-0,101	-0,052
-147,818	83,417	0,204	0,158
-146,804	13,254	0,069	0,038
-145,789	-200,000	-0,013	0,114
-144,775	-35,241	0,105	-0,040
-143,760	-149,876	-0,084	0,005
-142,745	252,041	-0,026	0,031
-141,731	246,275	0,045	0,054
-140,716	-159,666	-0,121	-0,005
-139,702	415,948	-0,031	-0,047
-138,687	339,386	0,017	-0,024
-137,672	29,427	0,011	-0,007
-136,658	-200,000	-0,041	0,165
-135,643	-200,000	-0,015	0,130
-134,629	91,291	-0,095	-0,076
-133,614	-130,256	-0,028	0,003
-132,599	462,844	-0,022	0,035
-131,585	43,967	0,053	0,034
-130,570	75,314	0,081	0,060
-129,556	-116,232	-0,161	0,021
-128,541	-66,442	0,033	-0,009
-127,526	800,000	0,022	-0,044
-126,512	475,885	0,007	-0,012
-125,497	-60,974	0,096	-0,029
-124,483	-200,000	-0,013	-0,046
-123,468	112,531	0,046	-0,039
-122,453	62,747	0,032	0,022
-121,439	85,583	-0,144	0,112
-120,424	-37,757	-0,070	0,026
-119,410	-200,000	0,019	0,081
-118,395	467,593	0,023	-0,037
-117,380	-200,000	-0,021	0,222
-116,366	21,922	-0,036	-0,021
-115,351	-32,140	-0,064	-0,025
-114,337	308,450	-0,061	0,082
-113,322	579,975	-0,016	-0,028
-112,307	419,630	-0,048	0,073
-111,293	-13,483	-0,096	0,044
-110,278	-200,000	0,007	0,060
-109,264	59,872	-0,074	0,051
-108,249	-151,516	0,065	0,003
-107,234	639,632	0,032	-0,058
-106,220	-28,732	-0,058	-0,024
-105,205	-200,000	-0,000	-0,079
-104,191	701,193	-0,004	0,008
-103,176	-2,211	0,041	0,021
-102,162	168,443	0,071	0,071
-101,147	-200,000	0,021	0,072
-100,132	67,552	-0,046	0,033
-99,118	95,927	-0,042	0,034
-98,103	-149,302	0,004	0,000
-97,089	-37,841	0,047	-0,018
-96,074	800,000	-0,020	0,061
-95,059	800,000	0,087	0,197
-94,045	-166,341	-0,122	0,004
-93,030	-137,516	-0,089	-0,007
-92,016	-50,808	-0,069	0,023
-91,001	-24,522	-0,043	-0,018
-89,986	235,119	0,052	-0,061
-88,972	-100,559	0,022	-0,004
-87,957	-200,000	0,003	0,017
-86,943	206,952	0,032	0,036
-85,928	-200,000	-0,010	-0,078
-84,913	139,789	0,095	0,089
-83,899	17,644	0,166	0,093
-82,884	60,518	0,111	0,078
-81,870	-200,000	-0,054	0,178
-80,855	-37,902	-0,068	-0,025
-79,840	-200,000	-0,006	0,077
-78,826	150,762	0,050	-0,048
-77,811	1,685	-0,148	-0,075
-76,797	-108,350	0,102	0,015
-75,782	-200,000	0,007	-0,025
-74,767	-200,000	0,002	0,055
-73,753	-200,000	0,016	0,065
-72,738	319,900	0,043	0,058
-71,724	-200,000	-0,016	-0,071
-70,709	473,787	-0,019	-0,030
-69,694	-200,000	0,001	0,036
-68,680	306,103	0,111	0,146
-67,665	-200,000	-0,007	0,031
-66,651	-65,098	0,210	0,060
-65,636	-200,000	-0,005	0,022
-64,622	283,765	-0,116	-0,147
-63,607	407,915	-0,087	-0,131
-62,592	-52,226	0,034	-0,011
-61,578	-200,000	0,019	0,062
-60,563	-28,852	0,061	-0,025
-59,549	800,000	-0,017	0,050
-58,534	70,939	-2,583	-1,891
-57,519	308,042	0,385	-0,509
-56,505	-200,000	-1,575	-5,365
-55,490	337,553	1,008	1,391
-54,476	800,000	5,462	11,786
-53,461	-200,000	21,211	344,078
-52,446	800,000	763,024	2347,263
-51,432	539,912	1664,790	2814,141
-50,417	70,911	1674,751	1225,892
-49,403	16,579	1594,362	889,015
-48,388	11,242	1547,894	835,611
-47,373	18,961	1541,154	871,436
-46,359	14,790	1530,096	843,991
-45,344	9,797	1526,097	816,391
-44,330	9,754	1524,026	815,036
-43,315	9,640	1522,683	813,704
-42,300	9,653	1520,924	812,799
-41,286	9,625	1519,425	811,821
-40,271	9,637	1517,903	811,040
-39,257	9,667	1516,227	810,263
-38,242	9,669	1514,810	809,484
-37,227	9,642	1513,751	808,748
-36,213	9,644	1512,241	807,922
-35,198	9,674	1510,912	807,329
-34,184	9,700	1509,666	806,762
-33,169	9,714	1508,145	805,989
-32,154	9,685	1506,809	805,095
-31,140	9,698	1505,482	804,419
-30,125	9,749	1503,986	803,845
-29,111	9,701	1502,909	802,994
-28,096	9,706	1501,815	802,408
-27,082	9,730	1500,818	801,962
-26,067	9,707	1499,529	801,123
-25,052	9,688	1498,466	800,428
-24,038	9,603	1497,311	799,357
-23,023	9,639	1496,349	798,989
-22,009	9,658	1495,524	798,614
-20,994	9,684	1494,507	798,170
-19,979	9,665	1493,227	797,359
-18,965	9,714	1492,012	796,920
-17,950	9,646	1491,431	796,245
-16,936	9,590	1490,637	795,508
-15,921	9,592	1489,053	794,641
-14,906	9,573	1487,869	793,884
-13,892	9,522	1487,068	793,172
-12,877	9,560	1485,996	792,757
-11,863	9,498	1485,183	791,985
-10,848	9,562	1484,065	791,675
-9,833	9,639	1483,274	791,603
-8,819	9,620	1482,186	790,897
-7,804	9,604	1481,137	790,228
-6,790	9,559	1480,539	789,651
-5,775	9,623	1479,407	789,333
-4,760	9,652	1478,500	788,961
-3,746	9,554	1477,358	787,837
-2,731	9,421	1476,411	786,647
-1,717	9,388	1475,030	785,718
-0,702	9,448	1474,245	785,564
0,313	9,247	1473,296	785,257
1,327	13,008	1470,834	802,301
2,342	22,532	1230,687	710,045
3,356	18,722	690,717	389,786
4,371	-9,754	466,455	218,774
5,386	-13,106	438,898	200,864
6,400	-14,098	430,049	195,355
7,415	-13,930	426,468	193,953
8,429	-15,221	423,530	190,752
9,444	-15,372	422,126	189,887
10,459	-15,669	421,077	188,976
11,473	-15,684	419,894	188,408
12,488	-15,951	419,141	187,674
13,502	-16,014	418,059	187,084
14,517	-16,151	417,298	186,534
15,531	-16,355	416,237	185,756
16,546	-16,474	415,632	185,302
17,561	-16,546	415,260	185,019
18,575	-16,513	414,504	184,712
19,590	-16,621	413,919	184,284
20,604	-16,547	413,528	184,197
21,619	-16,648	412,821	183,725
22,634	-16,667	412,474	183,527
23,648	-16,626	411,891	183,309
24,663	-16,580	411,478	183,172
25,677	-16,632	411,074	182,904
26,692	-16,632	410,458	182,614
27,707	-16,673	410,152	182,405
28,721	-16,595	409,609	182,255
29,736	-16,768	409,247	181,839
30,750	-16,624	408,741	181,797
31,765	-16,698	408,413	181,531
32,780	-16,563	407,937	181,489
33,794	-16,763	407,703	181,094
34,809	-16,766	407,202	180,851
35,823	-16,756	406,759	180,653
36,838	-16,665	406,347	180,578
37,853	-16,720	405,920	180,296
38,867	-16,757	405,620	180,097
39,882	-16,610	405,120	180,060
40,896	-16,723	404,848	179,768
41,911	-16,801	404,477	179,481
42,926	-16,766	403,886	179,251
43,940	-16,811	403,732	179,106
44,955	-16,659	403,264	179,088
45,969	-16,777	403,009	178,799
46,984	-16,909	402,643	178,441
47,999	-17,059	402,139	177,998
49,013	-17,075	401,675	177,755
50,028	-17,217	401,421	177,435
51,042	-17,146	400,904	177,288
52,057	-17,115	400,570	177,165
53,071	-17,152	400,385	177,018
54,086	-17,087	399,981	176,911
55,101	-16,922	399,650	176,971
56,115	-16,796	399,512	177,064
57,130	-16,491	399,244	177,338
58,144	-16,291	398,742	177,369
59,159	-16,234	398,561	177,349
60,174	-16,366	398,265	177,024
61,188	-16,405	397,923	176,805
62,203	-16,390	397,478	176,611
63,217	-16,559	397,128	176,213
64,232	-16,508	396,693	176,073
65,247	-16,325	396,540	176,234
66,261	-16,465	396,085	175,830
67,276	-16,754	395,579	175,205
68,290	-16,829	395,151	174,900
69,305	-16,866	395,046	174,788
70,320	-16,782	394,581	174,678
71,334	-16,611	394,113	174,682
72,349	-16,461	394,117	174,867
73,363	-16,278	393,755	174,933
74,378	-16,452	393,452	174,553
75,393	-16,411	392,900	174,347
76,407	-16,588	392,665	173,993
77,422	-16,542	392,205	173,835
78,436	-16,457	392,149	173,906
79,451	-16,447	391,575	173,649
80,466	-16,642	391,279	173,246
81,480	-16,659	390,689	172,947
82,495	-16,672	390,404	172,789
83,509	-16,680	390,273	172,705
84,524	-16,622	389,859	172,582
85,539	-16,753	389,462	172,219
86,553	-16,775	389,114	172,022
87,568	-16,786	389,016	171,948
88,582	-16,718	388,608	171,842
89,597	-16,781	388,291	171,604
90,611	-16,658	388,285	171,747
91,626	-16,406	387,810	171,849
92,641	-16,444	387,497	171,646
93,655	-16,501	387,146	171,401
94,670	-16,640	386,976	171,130
95,684	-16,688	386,688	170,925
96,699	-16,629	386,432	170,873
97,714	-16,662	385,925	170,591
98,728	-16,661	385,523	170,399
99,743	-16,816	385,256	170,065
100,757	-16,934	384,879	169,732
101,772	-16,906	384,850	169,740
102,787	-16,646	384,416	169,869
103,801	-16,609	384,148	169,782
104,816	-16,432	383,811	169,846
105,830	-16,456	383,591	169,702
106,845	-16,530	383,454	169,533
107,860	-16,455	383,109	169,460
108,874	-16,531	382,701	169,167
109,889	-16,520	382,439	169,051
110,903	-16,516	382,204	168,937
111,918	-16,359	381,771	168,932
112,933	-16,524	381,521	168,594
113,947	-16,473	381,230	168,516
114,962	-16,474	381,024	168,409
115,976	-16,414	380,577	168,273
116,991	-16,507	380,518	168,113
118,006	-16,484	380,127	167,955
119,020	-16,407	379,818	167,901
120,035	-16,328	379,585	167,884
121,049	-16,455	379,301	167,582
122,064	-16,288	379,047	167,666
123,079	-16,509	378,782	167,253
124,093	-16,416	378,328	167,156
125,108	-16,510	377,850	166,812
126,122	-16,756	377,533	166,346
127,137	-16,778	377,127	166,124
128,151	-16,747	376,917	166,056
129,166	-16,677	376,676	166,023
130,181	-16,653	376,438	165,935
131,195	-16,614	376,099	165,818
132,210	-16,390	375,829	165,967
133,224	-16,241	375,513	165,999
134,239	-16,274	375,262	165,832
135,254	-16,435	375,185	165,581
136,268	-16,395	374,750	165,425
137,283	-16,628	374,339	164,938
138,297	-16,787	373,978	164,564
139,312	-16,645	373,731	164,618
140,327	-16,378	373,401	164,792
141,341	-16,095	373,392	165,126
142,356	-16,122	373,216	165,000
143,370	-16,098	372,849	164,852
144,385	-16,152	372,628	164,673
145,400	-16,068	372,309	164,622
146,414	-16,194	372,003	164,315
147,429	-16,171	371,626	164,162
148,443	-16,254	371,525	164,000
149,458	-16,182	371,198	163,931
150,473	-16,192	371,015	163,823
151,487	-16,273	370,658	163,551
152,502	-16,258	370,413	163,446
153,516	-16,115	370,094	163,467
154,531	-16,172	369,882	163,289
155,546	-16,234	369,734	163,133
156,560	-16,223	369,266	162,925
157,575	-16,245	368,938	162,739
158,589	-16,001	368,688	162,915
159,604	-15,966	368,364	162,799
160,619	-16,133	368,187	162,502
161,633	-16,236	367,972	162,265
162,648	-16,203	367,751	162,194
163,662	-16,192	367,562	162,110
164,677	-16,158	367,144	161,953
165,692	-16,032	366,871	161,972
166,706	-15,893	366,680	162,043
167,721	-16,108	366,563	161,714
168,735	-15,835	366,253	161,897
169,750	-15,973	366,014	161,608
170,764	-15,864	365,816	161,639
171,779	-15,923	365,544	161,432
172,794	-16,015	365,332	161,212
173,808	-16,105	365,116	160,993
174,823	-16,452	364,537	160,302
175,837	-16,606	364,378	160,032
176,852	-16,095	364,091	160,511
177,867	-16,024	364,039	160,559
178,881	-15,892	363,833	160,614
179,896	-15,918	363,535	160,437
180,910	-16,041	363,164	160,110
181,925	-15,956	362,964	160,110
182,940	-15,983	362,761	159,974
183,954	-15,819	362,502	160,043
184,969	-15,876	362,148	159,804
185,983	-16,020	361,985	159,544
186,998	-15,949	361,739	159,507
188,013	-15,994	361,604	159,379
189,027	-15,952	361,164	159,221
190,042	-16,013	360,913	159,024
191,056	-15,844	360,886	159,200
192,071	-15,686	360,613	159,255
193,086	-15,549	360,466	159,341
194,100	-14,991	360,406	159,968
195,115	-14,240	360,542	160,915
196,129	-13,352	361,005	162,171
197,144	-9,148	362,795	168,024
198,159	-5,827	364,407	172,767
199,173	-3,078	365,605	176,646
200,188	-2,630	365,440	177,091
201,202	-2,819	365,204	176,733
202,217	-2,740	365,130	176,776
203,232	-2,316	365,051	177,234
204,246	-2,203	364,805	177,236
205,261	-1,978	364,766	177,471
206,275	-1,756	364,415	177,553
207,290	-1,999	364,121	177,101
208,304	-2,090	363,896	176,866
209,319	-2,175	363,606	176,607
210,334	-2,072	363,268	176,551
211,348	-2,079	363,204	176,496
212,363	-2,065	362,866	176,332
213,377	-2,050	362,772	176,290
214,392	-2,123	362,722	176,162
215,407	-1,714	362,383	176,471
216,421	-1,654	362,225	176,449
217,436	-1,708	361,976	176,248
218,450	-2,030	361,328	175,533
219,465	-2,094	361,100	175,331
220,480	-1,931	361,024	175,472
221,494	-1,940	360,716	175,295
222,509	-1,636	360,649	175,610
223,523	-1,687	360,381	175,402
224,538	-1,874	360,103	175,030
225,553	-1,881	359,935	174,924
226,567	-1,737	359,548	174,891
227,582	-1,479	359,580	175,196
228,596	-1,319	359,548	175,355
229,611	-1,502	359,080	174,895
230,626	-1,941	358,604	174,129
231,640	-2,013	358,552	174,002
232,655	-1,751	358,299	174,173
233,669	-1,430	358,310	174,542
234,684	-1,233	357,953	174,586
235,699	-1,594	357,693	174,017
236,713	-1,842	357,380	173,558
237,728	-1,848	357,014	173,358
238,742	-2,053	356,715	172,956
239,757	-2,025	356,488	172,864
240,772	-2,102	356,312	172,672
241,786	-1,959	356,123	172,734
242,801	-1,837	356,105	172,852
243,815	-1,576	355,786	172,987
244,830	-1,755	355,464	172,606
245,844	-1,991	355,098	172,137
246,859	-2,023	354,910	171,994
247,874	-1,763	354,704	172,182
248,888	-1,677	354,535	172,184
249,903	-1,619	354,317	172,131
250,917	-1,604	354,030	171,993
251,932	-1,804	353,767	171,617
252,947	-1,785	353,517	171,503
253,961	-1,854	353,360	171,331
254,976	-1,688	353,054	171,360
255,990	-1,625	352,982	171,384
257,005	-1,634	352,739	171,240
258,020	-1,646	352,583	171,135
259,034	-1,513	352,243	171,109
260,049	-1,723	352,131	170,796
261,063	-1,764	351,768	170,557
262,078	-1,604	351,545	170,618
263,093	-1,225	351,613	171,074
264,107	-1,245	351,169	170,819
265,122	-1,657	350,896	170,197
266,136	-1,524	350,805	170,291
267,151	-1,524	350,387	170,072
268,166	-1,752	350,023	169,619
269,180	-1,971	349,741	169,215
270,195	-1,848	349,707	169,326
271,209	-1,790	349,467	169,260
272,224	-1,741	349,142	169,144
273,239	-1,479	348,913	169,318
274,253	-1,575	348,701	169,090
275,268	-1,837	348,549	168,702
276,282	-1,859	348,221	168,503
277,297	-1,692	347,899	168,523
278,312	-1,570	347,811	168,604
279,326	-1,654	347,602	168,392
280,341	-1,801	347,311	168,069
281,355	-1,705	347,260	168,138
282,370	-1,498	347,036	168,250
283,384	-1,748	346,719	167,797
284,399	-1,960	346,515	167,443
285,414	-1,892	346,072	167,291
286,428	-1,661	346,031	167,518
287,443	-1,350	345,986	167,834
288,457	-1,384	345,652	167,619
289,472	-1,517	345,319	167,291
290,487	-1,875	345,063	166,748
291,501	-2,116	345,056	166,457
292,516	-1,960	344,595	166,396
293,530	-1,942	344,466	166,340
294,545	-1,809	344,250	166,370
295,560	-1,772	344,230	166,388
296,574	-1,497	343,868	166,507
297,589	-1,671	343,738	166,233
298,603	-1,671	343,382	166,047
299,618	-1,725	343,104	165,837
300,633	-1,711	343,092	165,832
301,647	-1,503	342,852	165,935
302,662	-1,462	342,772	165,927
303,676	-1,468	342,441	165,746
304,691	-1,280	342,150	165,801
305,706	-1,507	341,880	165,401
306,720	-1,431	341,695	165,382
307,735	-1,653	341,186	164,872
308,749	-1,782	341,227	164,733
309,764	-1,403	341,048	165,055
310,779	-1,467	340,810	164,854
311,793	-1,606	340,591	164,579
312,808	-1,400	340,346	164,675
313,822	-1,611	340,143	164,327
314,837	-1,658	339,954	164,169
315,852	-1,736	339,732	163,961
316,866	-1,569	339,542	164,039
317,881	-1,460	339,329	164,043
318,895	-1,460	339,048	163,892
319,910	-1,656	338,703	163,495
320,925	-1,754	338,638	163,340
321,939	-1,797	338,314	163,121
322,954	-1,697	338,053	163,092
323,968	-1,445	338,146	163,400
324,983	-1,256	337,899	163,475
325,997	-0,973	337,631	163,643
327,012	-1,085	337,293	163,340
328,027	-1,393	337,224	162,954
329,041	-1,129	337,045	163,144
330,056	-1,097	336,803	163,047
331,070	-1,467	336,534	162,495
332,085	-1,693	336,147	162,046
333,100	-1,386	335,828	162,214
334,114	-1,447	335,766	162,103
335,129	-1,445	335,485	161,955
336,143	-1,452	335,490	161,935
337,158	-1,468	335,230	161,778
338,173	-1,318	334,834	161,736
339,187	-1,420	334,615	161,505
340,202	-1,471	334,536	161,396
341,216	-1,491	334,171	161,184
342,231	-1,538	333,941	161,007
343,246	-1,474	333,726	160,959
344,260	-1,493	333,618	160,873
345,275	-1,386	333,563	160,948
346,289	-1,485	333,331	160,714
347,304	-1,404	333,016	160,636
348,319	-1,449	332,803	160,470
349,333	-1,336	332,599	160,479
350,348	-1,245	332,521	160,526
351,362	-0,887	332,258	160,772
352,377	-1,064	332,108	160,494
353,392	-1,121	331,746	160,243
354,406	-1,263	331,719	160,063
355,421	195,934	1325,382	1383,656
356,435	160,368	1446,283	1383,521
