DTS Sentinel unit serial number:	SN410029Multiplexer serial number:	ORYXHardware model number:	OX2-SRSoftware version number:	ORYX F/W v4,00 Oryx Data Collector v3.7.2.0data status	okinstallation	B6 Nyhavnadifferential loss correction	single-endedforward channel	channel 2reverse channel	N/Adate	2023/12/07time	23:00:08forward acquisition time	300,00reverse acquisition time	0,00gamma	499,1914k internal	0,3165k external	0,3165temperature offset calibration	1,0000default loss term (dB/km)	0,3820temperature slope calibration	1,0000multiplexer offset coefficient	1,0000multiplexer slope coefficient	1,0000fibre end	0,00T internal ref (°C)	13,52T ext. ref 1 (°C)	-3,40T ext. ref 2 (°C)	-3,39length (m)	temperature (°C)	Stokes	anti-Stokes-744,400	-100,749	0,050	0,009
-743,385	-117,635	-0,375	-0,049
-742,371	157,683	0,146	0,149
-741,356	-146,876	-0,207	-0,013
-740,342	-84,984	0,174	0,040
-739,327	65,954	-0,309	-0,230
-738,312	-78,049	0,096	0,024
-737,298	-46,238	-0,390	-0,140
-736,283	468,798	0,032	-0,054
-735,269	-74,303	-0,337	0,089
-734,254	88,917	0,172	0,140
-733,239	-133,167	-0,619	-0,057
-732,225	-61,484	0,135	-0,041
-731,210	-200,000	-0,012	0,078
-730,196	-141,325	0,181	0,013
-729,181	-200,000	0,004	-0,166
-728,167	-200,000	-0,005	-0,083
-727,152	149,424	-0,124	-0,124
-726,137	69,578	-0,084	0,064
-725,123	4,903	-0,157	0,085
-724,108	177,828	0,047	0,050
-723,094	-200,000	0,027	-0,138
-722,079	-167,395	-0,185	0,005
-721,064	-200,000	0,001	-0,093
-720,050	-9,581	-0,207	-0,101
-719,035	148,124	-0,039	0,039
-718,021	-200,000	-0,025	-0,148
-717,006	161,532	-0,076	-0,079
-715,991	445,740	-0,095	-0,154
-714,977	-54,471	-0,139	0,046
-713,962	-200,000	-0,032	0,128
-712,948	-145,167	0,015	0,001
-711,933	13,657	-0,042	0,024
-710,918	-149,015	-0,056	0,003
-709,904	-112,533	-0,047	0,007
-708,889	-52,880	-0,035	-0,012
-707,875	-200,000	-0,014	-0,114
-706,860	252,455	-0,029	-0,036
-705,845	-91,350	0,036	-0,007
-704,831	-80,378	0,084	0,021
-703,816	47,668	0,036	-0,024
-702,802	-171,287	-0,102	-0,002
-701,787	154,191	-0,072	-0,073
-700,772	-200,000	-0,025	-0,091
-699,758	-166,443	-0,145	-0,004
-698,743	134,127	-0,071	0,068
-697,729	66,477	0,149	0,111
-696,714	-200,000	-0,004	0,049
-695,699	190,129	-0,042	0,047
-694,685	800,000	-0,043	-0,132
-693,670	41,922	0,088	-0,059
-692,656	-200,000	-0,007	0,107
-691,641	114,753	0,014	-0,012
-690,627	41,939	-0,043	-0,029
-689,612	-200,000	0,012	0,059
-688,597	800,000	-0,058	0,150
-687,583	-121,634	-0,142	-0,017
-686,568	-7,532	-0,079	0,039
-685,554	211,279	-0,013	0,016
-684,539	67,817	0,017	0,012
-683,524	26,745	-0,050	0,030
-682,510	63,592	0,066	-0,049
-681,495	-7,554	-0,060	0,030
-680,481	277,214	-0,068	0,089
-679,466	74,266	-0,115	-0,088
-678,451	-192,142	-0,100	0,001
-677,437	-200,000	0,005	0,057
-676,422	-200,000	-0,001	-0,043
-675,408	-77,676	0,121	0,030
-674,393	793,336	-0,070	-0,141
-673,378	123,025	-0,152	-0,140
-672,364	358,019	-0,036	0,053
-671,349	-200,000	-0,033	-0,138
-670,335	800,000	-0,028	-0,066
-669,320	-200,000	-0,006	-0,103
-668,305	-119,358	-0,017	-0,002
-667,291	246,451	-0,054	-0,066
-666,276	800,000	-0,045	-0,129
-665,262	11,473	-0,118	-0,066
-664,247	800,000	-0,027	-0,083
-663,232	407,928	-0,072	-0,112
-662,218	241,465	-0,062	-0,076
-661,203	1,025	-0,043	-0,022
-660,189	-54,431	0,155	-0,051
-659,174	800,000	0,022	-0,056
-658,159	100,026	-0,070	-0,059
-657,145	-200,000	0,006	0,028
-656,130	-42,066	-0,137	0,051
-655,116	-200,000	-0,016	-0,078
-654,101	-200,000	0,001	0,120
-653,086	-100,408	-0,075	0,013
-652,072	-26,945	-0,077	0,033
-651,057	-200,000	0,010	-0,034
-650,043	-200,000	0,001	0,034
-649,028	800,000	-0,033	0,070
-648,014	-200,000	-0,009	0,059
-646,999	-200,000	-0,019	0,179
-645,984	433,817	-0,035	-0,056
-644,970	-200,000	-0,019	0,119
-643,955	800,000	-0,062	-0,154
-642,941	800,000	0,033	-0,070
-641,926	800,000	0,015	0,045
-640,911	498,506	0,029	0,049
-639,897	-109,997	0,061	0,009
-638,882	-58,823	0,066	0,021
-637,868	-200,000	0,003	0,026
-636,853	-200,000	0,027	-0,200
-635,838	79,851	-0,123	-0,096
-634,824	-111,146	0,081	0,012
-633,809	-74,447	0,052	0,014
-632,795	-200,000	0,017	-0,123
-631,780	-200,000	0,001	-0,029
-630,765	-22,816	-0,137	-0,060
-629,751	-200,000	-0,034	-0,130
-628,736	21,766	-0,063	-0,037
-627,722	-200,000	-0,008	-0,046
-626,707	-200,000	0,020	0,076
-625,692	40,088	0,088	0,058
-624,678	-68,065	0,073	0,021
-623,663	800,000	0,083	0,178
-622,649	565,106	0,035	-0,062
-621,634	346,147	0,019	0,028
-620,619	357,104	-0,018	0,026
-619,605	78,342	0,132	0,103
-618,590	25,014	-0,116	0,070
-617,576	800,000	0,028	-0,061
-616,561	-200,000	0,018	0,073
-615,546	-64,889	-0,090	0,026
-614,532	596,751	0,104	-0,189
-613,517	800,000	0,017	-0,042
-612,503	800,000	-0,031	-0,079
-611,488	800,000	0,025	-0,056
-610,474	-200,000	-0,007	0,110
-609,459	-68,949	0,130	0,037
-608,444	800,000	-0,027	-0,069
-607,430	-29,553	-0,093	-0,039
-606,415	727,090	-0,021	-0,040
-605,401	-200,000	0,008	0,079
-604,386	800,000	0,047	-0,109
-603,371	97,911	-0,020	0,017
-602,357	800,000	0,024	-0,055
-601,342	77,173	-0,086	0,067
-600,328	-200,000	0,018	0,068
-599,313	-200,000	-0,007	-0,070
-598,298	-200,000	0,053	-0,216
-597,284	37,418	0,098	0,063
-596,269	800,000	0,050	-0,119
-595,255	800,000	-0,038	0,090
-594,240	800,000	-0,025	-0,053
-593,225	346,457	0,063	0,091
-592,211	-200,000	0,007	-0,073
-591,196	-69,770	-0,063	0,018
-590,182	9,868	0,108	0,060
-589,167	64,632	-0,075	0,055
-588,152	142,606	-0,074	-0,072
-587,138	-200,000	-0,005	-0,148
-586,123	104,794	0,028	0,024
-585,109	436,805	-0,018	0,029
-584,094	-127,859	0,104	-0,011
-583,079	42,679	0,061	0,041
-582,065	-9,465	0,062	0,030
-581,050	-98,422	-0,110	-0,020
-580,036	-200,000	0,020	0,067
-579,021	-91,748	-0,165	-0,034
-578,006	337,621	0,027	-0,038
-576,992	-4,442	0,074	0,037
-575,977	-200,000	-0,039	0,211
-574,963	98,267	0,042	-0,035
-573,948	98,315	-0,053	-0,044
-572,934	202,314	-0,097	-0,110
-571,919	126,545	-0,034	-0,031
-570,904	-2,521	-0,044	-0,023
-569,890	-200,000	0,002	0,039
-568,875	66,854	-0,098	0,073
-567,861	4,686	0,071	-0,038
-566,846	800,000	0,027	0,087
-565,831	548,644	-0,028	-0,050
-564,817	800,000	-0,023	0,057
-563,802	198,788	-0,098	0,109
-562,788	289,712	0,040	-0,053
-561,773	528,421	0,082	-0,142
-560,758	408,419	-0,077	0,120
-559,744	-200,000	-0,017	0,073
-558,729	-22,029	0,100	0,044
-557,715	-52,989	-0,135	0,045
-556,700	333,807	0,015	-0,021
-555,685	-29,513	0,136	-0,056
-554,671	4,376	0,088	-0,047
-553,656	-200,000	-0,018	-0,090
-552,642	800,000	-0,046	0,133
-551,627	761,889	-0,016	0,031
-550,612	-200,000	0,006	-0,087
-549,598	293,422	-0,106	-0,142
-548,583	-200,000	-0,019	-0,089
-547,569	-46,233	0,099	0,035
-546,554	800,000	0,020	0,055
-545,539	18,442	0,048	-0,028
-544,525	-8,815	0,075	0,037
-543,510	200,848	0,024	-0,027
-542,496	-141,876	-0,118	0,008
-541,481	-3,804	-0,152	-0,077
-540,466	97,803	-0,017	-0,014
-539,452	-200,000	-0,032	-0,156
-538,437	74,751	0,072	-0,055
-537,423	-97,163	-0,096	0,018
-536,408	1,969	-0,068	0,036
-535,393	-82,673	-0,121	0,028
-534,379	247,598	-0,082	-0,102
-533,364	-200,000	0,018	-0,083
-532,350	-200,000	0,006	-0,074
-531,335	-61,983	-0,100	-0,030
-530,321	800,000	0,074	0,198
-529,306	-96,217	0,140	0,027
-528,291	-200,000	0,000	-0,069
-527,277	-200,000	-0,002	-0,099
-526,262	80,564	-0,123	-0,097
-525,248	-200,000	-0,006	-0,104
-524,233	416,553	0,030	0,047
-523,218	800,000	0,026	-0,075
-522,204	-200,000	0,043	-0,189
-521,189	169,777	-0,029	0,030
-520,175	-200,000	-0,004	-0,062
-519,160	-27,511	0,071	0,030
-518,145	-200,000	-0,008	-0,049
-517,131	-200,000	-0,010	0,210
-516,116	-50,663	0,040	0,014
-515,102	6,911	-0,081	-0,044
-514,087	246,923	-0,091	-0,112
-513,072	148,091	0,031	-0,030
-512,058	-144,040	-0,045	0,003
-511,043	-148,470	0,049	0,003
-510,029	-112,292	0,037	-0,005
-509,014	178,308	-0,067	0,072
-507,999	-59,489	-0,078	0,024
-506,985	-4,178	0,052	0,026
-505,970	255,867	-0,021	-0,027
-504,956	-127,000	-0,115	0,012
-503,941	123,707	0,041	-0,037
-502,926	-172,398	0,150	0,003
-501,912	-200,000	0,005	0,025
-500,897	132,564	0,059	0,055
-499,883	-200,000	0,038	0,125
-498,868	534,642	-0,062	-0,108
-497,853	-108,261	-0,070	-0,011
-496,839	-200,000	-0,004	-0,031
-495,824	57,123	0,066	0,047
-494,810	-200,000	0,027	0,145
-493,795	-200,000	-0,007	0,114
-492,781	-163,003	0,005	0,000
-491,766	-45,762	0,056	-0,020
-490,751	800,000	-0,064	-0,163
-489,737	531,921	-0,054	-0,094
-488,722	-200,000	-0,002	0,096
-487,708	-200,000	-0,008	0,036
-486,693	324,229	-0,114	0,159
-485,678	53,175	0,075	0,052
-484,664	800,000	-0,032	-0,065
-483,649	-200,000	0,017	0,097
-482,635	-37,637	-0,171	-0,066
-481,620	-200,000	0,003	-0,023
-480,605	-57,199	0,028	0,009
-479,591	-200,000	0,014	0,083
-478,576	88,620	0,094	0,076
-477,562	795,985	0,012	0,023
-476,547	523,695	-0,050	0,086
-475,532	-200,000	-0,016	0,103
-474,518	-103,018	0,127	0,022
-473,503	-57,109	-0,055	-0,017
-472,489	-132,842	-0,021	0,002
-471,474	-139,951	-0,065	-0,005
-470,459	13,701	0,098	0,055
-469,445	81,012	-0,079	-0,062
-468,430	457,936	0,013	-0,021
-467,416	686,017	-0,030	0,057
-466,401	77,447	0,125	0,097
-465,386	578,293	0,017	0,031
-464,372	-131,825	-0,050	0,005
-463,357	-155,768	0,146	-0,007
-462,343	491,851	-0,092	-0,154
-461,328	-200,000	-0,002	-0,100
-460,313	62,115	0,096	0,070
-459,299	482,919	0,075	0,124
-458,284	-87,336	-0,079	0,017
-457,270	146,099	-0,091	0,089
-456,255	45,825	-0,042	-0,028
-455,241	157,274	-0,100	-0,101
-454,226	231,459	-0,138	-0,165
-453,211	800,000	0,057	-0,138
-452,197	-200,000	-0,009	0,089
-451,182	7,941	-0,025	-0,014
-450,168	-60,864	-0,045	0,014
-449,153	-189,084	-0,098	-0,001
-448,138	-19,706	0,132	0,059
-447,124	800,000	0,001	-0,003
-446,109	199,785	0,058	-0,065
-445,095	800,000	-0,011	0,029
-444,080	-200,000	0,009	0,092
-443,065	-27,777	0,076	-0,032
-442,051	-61,950	0,112	0,034
-441,036	800,000	-0,037	-0,103
-440,022	59,020	-0,151	-0,108
-439,007	-38,074	0,026	-0,010
-437,992	360,311	-0,014	0,021
-436,978	-200,000	0,001	-0,020
-435,963	-200,000	-0,001	-0,090
-434,949	-32,553	0,056	-0,023
-433,934	-200,000	-0,008	-0,029
-432,919	-200,000	0,018	-0,097
-431,905	662,580	-0,049	0,092
-430,890	-19,769	0,123	0,055
-429,876	122,108	0,075	-0,068
-428,861	-200,000	-0,009	0,142
-427,846	-119,707	0,040	-0,005
-426,832	-172,584	0,001	0,000
-425,817	-200,000	-0,005	-0,025
-424,803	290,297	-0,006	0,008
-423,788	2,170	0,065	0,034
-422,773	4,657	0,122	0,065
-421,759	-120,266	0,082	0,010
-420,744	-200,000	-0,052	-0,182
-419,730	-156,340	-0,081	-0,004
-418,715	136,194	-0,075	0,072
-417,701	303,285	0,052	-0,069
-416,686	800,000	-0,048	-0,114
-415,671	-200,000	-0,020	0,104
-414,657	800,000	-0,046	0,115
-413,642	-106,638	0,129	0,021
-412,628	429,943	-0,041	-0,065
-411,613	-200,000	-0,014	0,053
-410,598	-80,162	-0,007	-0,002
-409,584	146,045	0,062	-0,060
-408,569	800,000	0,013	-0,026
-407,555	-125,138	0,118	-0,013
-406,540	-33,042	-0,056	0,023
-405,525	282,204	0,037	0,049
-404,511	196,376	0,076	-0,084
-403,496	190,552	0,052	-0,057
-402,482	-200,000	-0,009	-0,044
-401,467	-200,000	-0,021	0,217
-400,452	551,540	0,034	0,060
-399,438	290,771	0,025	0,033
-398,423	-200,000	0,005	-0,023
-397,409	93,350	-0,091	0,075
-396,394	-158,586	-0,041	-0,002
-395,379	-43,516	-0,082	0,030
-394,365	-191,903	0,136	-0,001
-393,350	-200,000	0,014	0,060
-392,336	411,153	-0,004	0,006
-391,321	144,697	-0,041	-0,040
-390,306	484,851	-0,058	-0,096
-389,292	-200,000	0,001	-0,005
-388,277	296,163	-0,043	-0,057
-387,263	-107,924	0,024	-0,004
-386,248	214,020	0,046	-0,053
-385,233	-200,000	0,012	0,069
-384,219	-133,350	-0,056	-0,005
-383,204	506,419	0,041	-0,069
-382,190	-200,000	-0,035	-0,117
-381,175	-2,055	-0,076	0,038
-380,160	800,000	-0,039	0,104
-379,146	91,418	-0,048	0,039
-378,131	122,254	0,019	0,017
-377,117	-200,000	0,026	-0,126
-376,102	-29,173	-0,104	0,043
-375,088	-71,307	0,069	-0,019
-374,073	286,047	-0,032	0,042
-373,058	58,225	0,040	-0,028
-372,044	-200,000	-0,004	0,066
-371,029	91,122	0,062	-0,050
-370,015	71,484	-0,139	-0,105
-369,000	-200,000	-0,010	-0,111
-367,985	518,907	0,045	-0,077
-366,971	-57,888	0,040	-0,013
-365,956	236,020	-0,016	-0,019
-364,942	-28,381	0,064	-0,027
-363,927	299,934	0,094	0,126
-362,912	-200,000	-0,000	0,054
-361,898	-200,000	-0,002	-0,021
-360,883	-200,000	-0,004	-0,049
-359,869	-48,522	-0,048	-0,017
-358,854	185,876	-0,039	0,042
-357,839	412,331	-0,057	0,088
-356,825	-9,208	-0,028	-0,013
-355,810	-86,367	-0,059	-0,013
-354,796	-101,411	-0,075	-0,013
-353,781	-71,563	-0,095	0,025
-352,766	300,618	0,087	-0,116
-351,752	-200,000	0,002	0,085
-350,737	-62,212	-0,016	0,005
-349,723	395,877	-0,082	0,124
-348,708	-25,873	0,044	0,019
-347,693	243,243	-0,133	-0,161
-346,679	-72,696	0,043	-0,011
-345,664	36,351	0,073	0,047
-344,650	389,665	0,026	0,040
-343,635	-123,961	0,097	-0,011
-342,620	40,707	0,042	-0,028
-341,606	-200,000	-0,045	0,000
-340,591	-96,533	-0,113	0,021
-339,577	-200,000	-0,003	0,045
-338,562	-200,000	-0,017	-0,074
-337,548	-106,998	-0,095	0,015
-336,533	-200,000	0,011	-0,080
-335,518	-53,229	0,056	-0,019
-334,504	-25,010	0,072	0,031
-333,489	-200,000	0,022	0,100
-332,475	800,000	-0,076	0,155
-331,460	-103,562	-0,082	0,014
-330,445	-200,000	0,002	0,158
-329,431	597,266	0,064	0,116
-328,416	800,000	0,052	0,126
-327,402	86,225	0,038	0,030
-326,387	269,644	-0,095	0,121
-325,372	-200,000	-0,013	0,074
-324,358	-139,832	-0,026	-0,002
-323,343	-56,948	0,034	-0,011
-322,329	26,121	-0,202	0,122
-321,314	10,550	0,196	0,108
-320,299	-200,000	-0,020	0,146
-319,285	-200,000	-0,010	0,053
-318,270	737,736	-0,014	0,027
-317,256	-85,348	0,227	0,051
-316,241	800,000	-0,085	-0,187
-315,226	294,642	-0,061	-0,081
-314,212	390,743	-0,103	0,155
-313,197	57,592	-0,075	-0,053
-312,183	800,000	0,089	0,258
-311,168	-200,000	-0,007	0,077
-310,153	-200,000	0,017	-0,080
-309,139	-200,000	-0,004	-0,093
-308,124	-88,981	-0,031	-0,007
-307,110	163,599	0,029	-0,029
-306,095	800,000	0,028	-0,090
-305,080	171,055	-0,046	0,048
-304,066	510,658	-0,047	-0,079
-303,051	25,722	-0,105	0,063
-302,037	-200,000	-0,019	-0,070
-301,022	-29,283	0,122	0,050
-300,008	-34,112	0,238	0,094
-298,993	11,721	-0,048	-0,026
-297,978	800,000	-0,090	0,207
-296,964	-196,819	0,078	0,000
-295,949	-45,535	-0,164	-0,058
-294,935	188,130	-0,016	0,017
-293,920	-200,000	0,012	0,068
-292,905	-105,066	0,123	0,020
-291,891	238,668	0,067	0,080
-290,876	-200,000	0,013	0,053
-289,862	-36,550	-0,086	-0,033
-288,847	733,442	-0,020	-0,039
-287,832	-71,859	-0,064	-0,017
-286,818	-200,000	-0,002	-0,141
-285,803	-200,000	0,050	0,179
-284,789	-24,592	0,064	-0,028
-283,774	-128,983	0,097	-0,010
-282,759	63,739	-0,098	0,071
-281,745	33,540	0,071	0,045
-280,730	399,286	0,032	-0,049
-279,716	132,449	-0,050	0,046
-278,701	-200,000	-0,003	0,027
-277,686	800,000	0,006	-0,015
-276,672	-69,712	-0,082	-0,023
-275,657	373,354	0,053	0,078
-274,643	800,000	-0,067	0,136
-273,628	-70,324	0,057	-0,016
-272,613	86,957	-0,033	-0,026
-271,599	129,570	-0,110	0,102
-270,584	99,828	0,136	-0,114
-269,570	573,708	-0,058	-0,103
-268,555	66,242	-0,116	-0,085
-267,540	28,270	-0,103	-0,063
-266,526	800,000	0,046	-0,096
-265,511	-200,000	0,000	-0,039
-264,497	800,000	0,050	-0,119
-263,482	589,202	-0,031	0,056
-262,467	-129,287	0,197	0,020
-261,453	-53,175	0,128	-0,042
-260,438	-54,784	-0,035	-0,011
-259,424	64,352	0,034	-0,025
-258,409	637,445	-0,036	-0,066
-257,395	262,351	0,034	-0,042
-256,380	413,700	0,039	0,060
-255,365	800,000	0,025	0,054
-254,351	152,012	0,075	0,074
-253,336	64,616	-0,113	-0,082
-252,322	800,000	0,022	-0,045
-251,307	34,824	0,040	0,025
-250,292	82,430	0,012	0,010
-249,278	94,182	-0,031	-0,026
-248,263	165,162	0,035	0,036
-247,249	64,500	0,089	-0,065
-246,234	-7,683	-0,072	-0,035
-245,219	101,678	-0,105	-0,088
-244,205	-200,000	0,017	-0,142
-243,190	-200,000	0,012	-0,111
-242,176	800,000	0,042	-0,097
-241,161	32,821	0,135	0,084
-240,146	-200,000	-0,012	-0,068
-239,132	-200,000	-0,001	-0,055
-238,117	-70,525	-0,119	-0,032
-237,103	-200,000	0,024	-0,175
-236,088	-200,000	0,007	-0,072
-235,073	-8,594	-0,083	-0,040
-234,059	800,000	-0,051	0,160
-233,044	-32,315	0,011	0,005
-232,030	132,792	0,070	0,065
-231,015	-163,186	-0,062	-0,002
-230,000	419,855	-0,085	-0,131
-228,986	800,000	-0,007	-0,015
-227,971	54,534	-0,095	-0,066
-226,957	-66,348	0,161	0,046
-225,942	693,786	0,107	0,203
-224,927	38,783	-0,161	0,103
-223,913	142,516	-0,058	0,056
-222,898	632,804	0,027	-0,050
-221,884	-34,834	0,051	-0,020
-220,869	-200,000	-0,021	-0,076
-219,855	-132,639	-0,055	-0,005
-218,840	96,746	-0,022	0,018
-217,825	165,432	0,047	0,048
-216,811	-200,000	-0,055	-0,226
-215,796	-200,000	-0,011	0,036
-214,782	-200,000	0,015	-0,085
-213,767	-200,000	-0,003	-0,088
-212,752	228,673	0,137	0,161
-211,738	-200,000	-0,009	0,040
-210,723	-73,677	-0,011	-0,003
-209,709	-200,000	0,010	0,038
-208,694	-118,832	-0,070	-0,009
-207,679	-58,276	-0,065	0,020
-206,665	90,689	-0,104	0,084
-205,650	237,125	-0,053	-0,063
-204,636	61,197	0,115	0,082
-203,621	-200,000	-0,023	0,158
-202,606	229,669	-0,081	-0,095
-201,592	518,045	-0,013	0,022
-200,577	800,000	-0,055	-0,154
-199,563	44,349	0,101	0,067
-198,548	228,316	-0,109	-0,128
-197,533	-59,567	0,019	0,006
-196,519	-200,000	-0,001	0,006
-195,504	49,222	-0,070	-0,047
-194,490	-200,000	0,016	-0,092
-193,475	-139,559	0,227	0,017
-192,460	-200,000	-0,004	0,078
-191,446	-200,000	0,008	0,052
-190,431	800,000	0,052	0,146
-189,417	225,092	0,061	-0,072
-188,402	-200,000	0,012	0,044
-187,387	-55,466	0,114	-0,037
-186,373	147,805	-0,031	0,030
-185,358	89,396	-0,075	-0,060
-184,344	746,282	-0,042	0,082
-183,329	-32,734	0,113	-0,045
-182,315	-200,000	-0,003	0,025
-181,300	127,007	-0,013	0,012
-180,285	338,874	0,048	-0,068
-179,271	-138,375	0,127	-0,010
-178,256	-200,000	-0,052	-0,223
-177,242	163,004	-0,058	0,059
-176,227	-77,323	0,156	0,039
-175,212	28,979	0,129	-0,078
-174,198	-153,808	0,130	0,006
-173,183	-200,000	-0,015	-0,073
-172,169	-200,000	-0,022	0,163
-171,154	-200,000	-0,015	-0,071
-170,139	-200,000	-0,008	0,059
-169,125	-45,759	0,086	0,030
-168,110	248,943	0,017	0,021
-167,096	58,301	-0,058	0,041
-166,081	307,411	-0,016	0,021
-165,066	800,000	-0,028	-0,071
-164,052	151,186	-0,085	-0,084
-163,037	186,722	-0,017	0,018
-162,023	58,186	-0,132	0,093
-161,008	-200,000	-0,003	0,099
-159,993	211,711	0,022	-0,025
-158,979	200,178	-0,029	0,032
-157,964	193,272	0,021	-0,023
-156,950	-200,000	-0,006	-0,062
-155,935	-120,351	0,159	0,019
-154,920	585,754	0,042	0,075
-153,906	800,000	-0,066	0,133
-152,891	-200,000	0,012	-0,059
-151,877	606,157	-0,080	-0,144
-150,862	22,842	-0,180	-0,106
-149,847	-200,000	-0,023	0,084
-148,833	800,000	-0,067	-0,164
-147,818	-200,000	-0,037	0,161
-146,804	106,834	-0,137	0,116
-145,789	800,000	-0,043	0,100
-144,775	-200,000	-0,009	-0,063
-143,760	299,844	0,029	-0,039
-142,745	385,495	-0,024	0,036
-141,731	271,744	0,050	-0,064
-140,716	-130,332	0,080	-0,008
-139,702	-200,000	-0,016	-0,052
-138,687	-100,553	-0,053	-0,009
-137,672	251,603	-0,038	-0,046
-136,658	264,397	-0,025	-0,032
-135,643	-194,168	0,066	-0,000
-134,629	800,000	0,036	-0,093
-133,614	211,177	0,062	-0,070
-132,599	-62,994	-0,024	-0,007
-131,585	-185,266	0,105	-0,001
-130,570	-200,000	0,002	-0,058
-129,556	-200,000	0,016	-0,077
-128,541	224,887	-0,093	-0,109
-127,526	570,529	0,027	0,047
-126,512	707,590	0,019	0,036
-125,497	93,499	0,106	0,086
-124,483	94,283	0,136	0,111
-123,468	800,000	-0,012	0,024
-122,453	188,382	-0,052	0,056
-121,439	163,703	0,024	0,024
-120,424	707,114	-0,042	-0,079
-119,410	-66,233	-0,038	-0,011
-118,395	231,566	-0,015	-0,017
-117,380	-59,936	0,086	-0,026
-116,366	250,986	-0,046	0,056
-115,351	-77,413	-0,030	-0,007
-114,337	386,466	-0,032	0,048
-113,322	-45,993	0,066	0,023
-112,307	-200,000	-0,019	0,076
-111,293	800,000	-0,063	0,196
-110,278	800,000	0,037	0,109
-109,264	-55,059	0,100	0,032
-108,249	-176,308	-0,051	-0,001
-107,234	196,456	-0,064	-0,070
-106,220	-45,343	-0,021	-0,007
-105,205	-200,000	-0,005	0,030
-104,191	137,249	-0,068	0,064
-103,176	-114,259	0,035	0,005
-102,162	-200,000	0,017	-0,074
-101,147	85,263	-0,051	-0,040
-100,132	-200,000	0,005	-0,171
-99,118	-60,725	-0,022	-0,007
-98,103	-200,000	-0,010	0,100
-97,089	-200,000	0,014	0,074
-96,074	-200,000	0,014	0,114
-95,059	-21,135	-0,048	-0,021
-94,045	124,791	-0,022	-0,020
-93,030	-200,000	0,003	-0,066
-92,016	-132,745	-0,193	0,017
-91,001	240,101	0,028	-0,034
-89,986	-63,566	0,124	0,036
-88,972	4,653	-0,091	0,048
-87,957	399,590	0,072	-0,109
-86,943	149,218	-0,094	0,092
-85,928	-200,000	-0,004	0,043
-84,913	-162,471	-0,079	-0,003
-83,899	648,517	0,017	0,031
-82,884	-23,596	0,032	0,014
-81,870	190,942	0,023	-0,025
-80,855	-200,000	0,003	-0,026
-79,840	153,797	-0,028	-0,028
-78,826	136,832	0,028	0,026
-77,811	227,254	-0,057	-0,067
-76,797	-87,332	0,028	0,006
-75,782	34,396	0,084	0,052
-74,767	-200,000	0,000	0,018
-73,753	-98,682	-0,022	0,004
-72,738	-200,000	-0,017	0,107
-71,724	-200,000	0,002	0,122
-70,709	205,510	0,018	0,020
-69,694	-31,201	0,088	-0,035
-68,680	-200,000	-0,005	-0,090
-67,665	800,000	-0,055	-0,111
-66,651	68,158	-0,054	-0,040
-65,636	-14,686	-0,087	0,040
-64,622	8,435	-0,089	-0,048
-63,607	-64,919	0,102	-0,029
-62,592	-95,151	-0,044	0,008
-61,578	-143,984	0,112	-0,007
-60,563	-136,950	0,151	-0,012
-59,549	-66,560	-0,085	0,024
-58,534	37,549	-2,187	-1,387
-57,519	-200,000	-0,077	-0,855
-56,505	-200,000	-1,442	-5,170
-55,490	139,440	0,777	0,732
-54,476	800,000	5,392	12,022
-53,461	-200,000	18,760	311,658
-52,446	800,000	740,522	2301,384
-51,432	544,521	1653,684	2839,057
-50,417	109,268	1636,547	1402,370
-49,403	72,749	1287,113	960,905
-48,388	29,781	1028,852	625,892
-47,373	19,640	991,467	569,665
-46,359	17,287	979,016	554,774
-45,344	13,912	975,123	541,493
-44,330	14,213	973,678	541,653
-43,315	13,565	971,815	538,478
-42,300	13,542	970,740	537,785
-41,286	13,534	969,882	537,264
-40,271	13,511	969,069	536,718
-39,257	13,595	967,957	536,354
-38,242	13,555	967,201	535,781
-37,227	13,494	966,451	535,147
-36,213	13,535	965,432	534,694
-35,198	13,506	964,472	534,047
-34,184	13,590	963,873	533,966
-33,169	13,465	962,968	533,039
-32,154	13,539	961,968	532,704
-31,140	13,504	961,190	532,141
-30,125	13,597	960,221	531,882
-29,111	13,491	959,807	531,289
-28,096	13,553	959,003	531,022
-27,082	13,562	958,205	530,590
-26,067	13,570	957,590	530,255
-25,052	13,504	956,817	529,594
-24,038	13,523	956,242	529,316
-23,023	13,563	955,366	528,938
-22,009	13,557	954,799	528,582
-20,994	13,535	954,061	528,083
-19,979	13,569	953,522	527,873
-18,965	13,530	952,914	527,389
-17,950	13,614	952,296	527,295
-16,936	13,503	951,819	526,655
-15,921	13,479	951,175	526,200
-14,906	13,470	950,286	525,660
-13,892	13,445	949,708	525,239
-12,877	13,407	949,072	524,746
-11,863	13,462	948,289	524,468
-10,848	13,444	947,900	524,174
-9,833	13,528	947,263	524,069
-8,819	13,546	946,474	523,667
-7,804	13,505	945,895	523,196
-6,790	13,472	945,612	522,915
-5,775	13,478	944,985	522,567
-4,760	13,451	944,440	522,158
-3,746	13,452	943,555	521,653
-2,731	13,326	943,039	520,946
-1,717	13,294	942,281	520,406
-0,702	13,272	941,648	519,967
0,313	13,063	940,940	519,698
1,327	16,752	938,758	530,081
2,342	26,044	790,427	470,801
3,356	22,212	444,999	259,356
4,371	-7,515	297,643	143,566
5,386	-11,455	279,581	131,080
6,400	-12,726	273,838	127,186
7,415	-12,769	271,652	126,120
8,429	-12,911	270,035	125,227
9,444	-12,994	269,109	124,710
10,459	-12,782	268,501	124,612
11,473	-12,933	267,812	124,142
12,488	-12,979	267,306	123,855
13,502	-13,427	266,729	123,168
14,517	-13,119	266,329	123,253
15,531	-13,057	265,873	123,088
16,546	-13,063	265,552	122,923
17,561	-13,112	265,219	122,713
18,575	-12,880	264,755	122,697
19,590	-12,966	264,271	122,384
20,604	-12,797	264,146	122,469
21,619	-12,934	263,711	122,132
22,634	-12,938	263,443	121,993
23,648	-13,232	263,257	121,632
24,663	-13,114	262,967	121,593
25,677	-13,133	262,706	121,445
26,692	-13,091	262,530	121,390
27,707	-13,101	262,162	121,200
28,721	-13,084	261,793	121,034
29,736	-13,033	261,402	120,888
30,750	-13,288	261,247	120,578
31,765	-13,251	261,028	120,499
32,780	-13,144	260,782	120,470
33,794	-13,022	260,408	120,395
34,809	-13,153	260,166	120,156
35,823	-13,250	260,182	120,066
36,838	-13,174	259,794	119,945
37,853	-13,283	259,535	119,718
38,867	-13,138	259,193	119,677
39,882	-12,983	258,882	119,660
40,896	-13,264	258,882	119,401
41,911	-13,292	258,561	119,218
42,926	-13,161	258,174	119,144
43,940	-13,276	257,914	118,912
44,955	-13,433	257,924	118,769
45,969	-13,400	257,533	118,607
46,984	-13,338	257,451	118,613
47,999	-13,708	257,068	118,101
49,013	-13,814	256,883	117,913
50,028	-13,872	256,529	117,690
51,042	-14,114	256,230	117,331
52,057	-14,077	255,952	117,226
53,071	-14,014	255,891	117,241
54,086	-13,776	255,547	117,281
55,101	-13,740	255,505	117,282
56,115	-13,680	255,459	117,303
57,130	-13,133	255,447	117,763
58,144	-12,946	255,116	117,762
59,159	-12,918	254,881	117,667
60,174	-12,968	254,621	117,494
61,188	-13,194	254,522	117,242
62,203	-13,014	254,234	117,254
63,217	-13,160	254,058	117,036
64,232	-13,126	253,806	116,939
65,247	-13,014	253,529	116,898
66,261	-13,140	253,221	116,637
67,276	-13,242	252,985	116,430
68,290	-13,483	252,838	116,145
69,305	-13,675	252,640	115,878
70,320	-13,471	252,330	115,901
71,334	-13,328	252,214	115,960
72,349	-13,089	252,189	116,143
73,363	-13,063	251,940	116,040
74,378	-12,859	251,588	116,042
75,393	-13,022	251,467	115,837
76,407	-13,021	251,265	115,734
77,422	-13,105	251,141	115,595
78,436	-13,037	250,748	115,462
79,451	-13,160	250,564	115,262
80,466	-13,134	250,328	115,165
81,480	-13,430	250,157	114,825
82,495	-13,404	249,881	114,710
83,509	-13,258	249,799	114,786
84,524	-13,156	249,397	114,678
85,539	-13,301	249,199	114,454
86,553	-13,494	249,136	114,251
87,568	-13,331	248,956	114,296
88,582	-13,471	248,669	114,036
89,597	-13,407	248,433	113,972
90,611	-13,369	248,440	113,997
91,626	-13,041	248,040	114,079
92,641	-13,144	247,963	113,946
93,655	-13,289	247,854	113,764
94,670	-13,243	247,601	113,677
95,684	-13,266	247,383	113,548
96,699	-13,119	247,239	113,595
97,714	-13,399	247,040	113,258
98,728	-13,535	246,802	113,025
99,743	-13,277	246,559	113,120
100,757	-13,517	246,382	112,828
101,772	-13,380	246,283	112,887
102,787	-13,354	246,151	112,838
103,801	-13,515	245,926	112,590
104,816	-13,193	245,560	112,681
105,830	-13,076	245,600	112,787
106,845	-13,310	245,411	112,495
107,860	-13,165	245,242	112,528
108,874	-13,283	245,118	112,364
109,889	-13,315	244,840	112,199
110,903	-13,319	244,438	112,002
111,918	-13,297	244,324	111,958
112,933	-13,406	244,305	111,849
113,947	-13,127	244,087	111,970
114,962	-13,163	243,895	111,842
115,976	-13,080	243,697	111,810
116,991	-13,193	243,562	111,645
118,006	-13,017	243,342	111,679
119,020	-13,102	243,192	111,530
120,035	-13,226	243,178	111,412
121,049	-13,183	242,904	111,311
122,064	-13,133	242,634	111,219
123,079	-13,126	242,500	111,153
124,093	-13,197	242,294	110,991
125,108	-13,350	242,012	110,726
126,122	-13,403	241,664	110,514
127,137	-13,574	241,561	110,317
128,151	-13,486	241,502	110,352
129,166	-13,421	241,172	110,244
130,181	-13,526	241,001	110,071
131,195	-13,459	240,882	110,062
132,210	-13,360	240,783	110,087
133,224	-13,194	240,619	110,137
134,239	-13,050	240,284	110,091
135,254	-13,182	240,183	109,928
136,268	-13,279	239,988	109,751
137,283	-13,624	239,677	109,319
138,297	-13,585	239,393	109,211
139,312	-13,539	239,349	109,218
140,327	-13,407	239,304	109,294
141,341	-12,992	239,211	109,578
142,356	-12,966	239,103	109,539
143,370	-12,965	239,030	109,497
144,385	-12,778	238,786	109,527
145,400	-12,995	238,509	109,215
146,414	-12,887	238,322	109,206
147,429	-12,903	238,045	109,057
148,443	-12,973	237,995	108,968
149,458	-13,083	237,813	108,786
150,473	-12,997	237,712	108,800
151,487	-12,965	237,460	108,700
152,502	-12,864	237,364	108,728
153,516	-12,756	237,090	108,679
154,531	-12,853	236,973	108,538
155,546	-12,927	236,765	108,374
156,560	-13,095	236,559	108,136
157,575	-13,273	236,400	107,912
158,589	-13,104	236,237	107,963
159,604	-12,633	236,087	108,260
160,619	-12,761	236,023	108,119
161,633	-12,753	235,952	108,082
162,648	-12,773	235,682	107,933
163,662	-12,933	235,531	107,728
164,677	-12,883	235,249	107,628
165,692	-13,042	235,169	107,456
166,706	-12,953	235,068	107,471
167,721	-12,728	234,883	107,555
168,735	-12,755	234,802	107,487
169,750	-12,823	234,421	107,249
170,764	-12,851	234,299	107,162
171,779	-12,852	234,235	107,122
172,794	-13,000	234,190	106,976
173,808	-12,988	233,948	106,865
174,823	-13,456	233,435	106,253
175,837	-13,445	233,339	106,208
176,852	-12,980	233,289	106,541
177,867	-12,983	233,278	106,525
178,881	-12,846	233,072	106,528
179,896	-12,723	232,973	106,570
180,910	-12,821	232,902	106,452
181,925	-12,545	232,536	106,491
182,940	-12,801	232,423	106,229
183,954	-12,868	232,341	106,130
184,969	-12,938	232,298	106,046
185,983	-12,499	232,128	106,301
186,998	-12,715	231,928	106,032
188,013	-12,709	231,724	105,934
189,027	-12,654	231,576	105,900
190,042	-12,786	231,465	105,737
191,056	-12,815	231,297	105,628
192,071	-12,748	231,007	105,538
193,086	-12,622	230,827	105,545
194,100	-12,620	230,662	105,461
195,115	-13,165	230,223	104,829
196,129	-13,616	230,281	104,497
197,144	-7,688	232,226	109,994
198,159	-2,022	233,973	115,253
199,173	1,753	235,023	118,724
200,188	2,779	235,061	119,537
201,202	2,634	234,803	119,282
202,217	2,471	234,691	119,087
203,232	2,681	234,620	119,205
204,246	2,875	234,514	119,292
205,261	2,817	234,407	119,182
206,275	3,119	234,240	119,321
207,290	3,178	234,089	119,280
208,304	2,897	233,909	118,958
209,319	2,879	233,774	118,865
210,334	2,878	233,455	118,692
211,348	2,624	233,180	118,344
212,363	2,496	232,944	118,115
213,377	2,161	232,963	117,854
214,392	2,044	232,868	117,704
215,407	2,423	232,633	117,869
216,421	2,280	232,604	117,733
217,436	2,633	232,150	117,765
218,450	1,963	232,051	117,187
219,465	2,085	231,828	117,158
220,480	2,107	231,717	117,108
221,494	2,143	231,555	117,044
222,509	2,390	231,620	117,257
223,523	2,303	231,518	117,128
224,538	2,215	231,120	116,848
225,553	2,324	231,103	116,913
226,567	2,214	230,970	116,751
227,582	2,528	230,918	116,955
228,596	2,641	230,827	116,985
229,611	2,081	230,611	116,436
230,626	1,989	230,267	116,181
231,640	2,090	230,083	116,155
232,655	2,354	229,971	116,290
233,669	2,678	230,019	116,552
234,684	2,916	229,837	116,631
235,699	2,836	229,582	116,431
236,713	2,412	229,424	116,017
237,728	2,337	229,223	115,848
238,742	2,212	229,132	115,696
239,757	2,358	228,855	115,657
240,772	2,510	228,798	115,734
241,786	2,210	228,768	115,480
242,801	2,322	228,580	115,460
243,815	2,806	228,575	115,815
244,830	2,992	228,239	115,775
245,844	2,421	228,057	115,240
246,859	2,282	227,958	115,074
247,874	2,547	227,830	115,200
248,888	2,455	227,730	115,069
249,903	2,464	227,503	114,951
250,917	2,458	227,315	114,842
251,932	2,419	227,302	114,795
252,947	2,349	226,965	114,562
253,961	2,227	226,846	114,400
254,976	2,417	226,640	114,428
255,990	2,486	226,682	114,492
257,005	2,537	226,513	114,435
258,020	2,556	226,374	114,369
259,034	2,582	226,237	114,308
260,049	2,815	225,963	114,335
261,063	2,538	226,006	114,138
262,078	2,560	225,978	114,131
263,093	2,725	225,785	114,146
264,107	2,786	225,528	114,052
265,122	2,584	225,394	113,823
266,136	2,675	225,428	113,897
267,151	2,808	225,129	113,836
268,166	2,357	224,929	113,388
269,180	2,058	224,562	112,970
270,195	2,106	224,478	112,954
271,209	2,316	224,364	113,043
272,224	2,360	224,217	112,991
273,239	2,253	224,135	112,861
274,253	2,223	224,072	112,796
275,268	2,189	223,764	112,606
276,282	2,171	223,633	112,517
277,297	2,297	223,392	112,479
278,312	2,161	223,365	112,354
279,326	2,354	223,163	112,386
280,341	2,053	223,346	112,245
281,355	2,511	223,013	112,406
282,370	2,455	222,861	112,278
283,384	2,171	222,661	111,958
284,399	2,124	222,545	111,854
285,414	2,206	222,313	111,789
286,428	2,517	222,223	111,962
287,443	2,569	222,079	111,918
288,457	2,412	222,120	111,813
289,472	2,093	221,710	111,363
290,487	2,000	221,564	111,211
291,501	1,781	221,371	110,944
292,516	2,115	221,249	111,118
293,530	2,105	221,143	111,047
294,545	2,264	221,016	111,089
295,560	2,197	221,066	111,056
296,574	2,138	220,933	110,936
297,589	2,515	220,669	111,069
298,603	2,413	220,612	110,956
299,618	2,388	220,505	110,874
300,633	2,595	220,284	110,903
301,647	2,554	220,224	110,833
302,662	2,585	220,161	110,815
303,676	2,776	219,951	110,838
304,691	2,656	219,882	110,706
305,706	2,491	219,591	110,430
306,720	2,400	219,545	110,331
307,735	2,181	219,247	110,012
308,749	2,282	219,089	109,996
309,764	2,415	219,017	110,047
310,779	2,563	218,853	110,061
311,793	2,812	218,577	110,092
312,808	2,604	218,482	109,885
313,822	2,495	218,459	109,785
314,837	2,312	218,371	109,599
315,852	2,047	218,247	109,336
316,866	2,460	218,036	109,518
317,881	2,454	218,030	109,501
318,895	2,385	217,866	109,359
319,910	2,178	217,591	109,063
320,925	1,982	217,516	108,874
321,939	1,751	217,099	108,491
322,954	1,651	217,134	108,427
323,968	2,405	217,045	108,913
324,983	2,853	216,913	109,157
325,997	3,010	216,887	109,246
327,012	2,685	216,817	108,969
328,027	2,424	216,630	108,679
329,041	2,818	216,603	108,937
330,056	2,876	216,257	108,795
331,070	2,340	216,079	108,314
332,085	2,148	215,780	108,018
333,100	2,479	215,768	108,237
334,114	2,397	215,704	108,137
335,129	2,445	215,557	108,088
336,143	2,194	215,363	107,803
337,158	2,233	215,318	107,799
338,173	2,157	215,149	107,651
339,187	1,908	214,964	107,372
340,202	2,216	214,687	107,442
341,216	2,332	214,899	107,621
342,231	2,686	214,551	107,687
343,246	2,421	214,436	107,433
344,260	2,356	214,315	107,317
345,275	2,504	214,409	107,459
346,289	2,722	214,094	107,445
347,304	2,407	213,893	107,112
348,319	2,141	213,847	106,893
349,333	2,380	213,566	106,910
350,348	2,508	213,565	106,991
351,362	2,781	213,404	107,091
352,377	2,855	213,266	107,065
353,392	2,533	213,150	106,771
354,406	2,510	213,015	106,678
355,421	196,059	1316,337	1391,265
356,435	156,800	1450,703	1391,212
