DTS Sentinel unit serial number:	SN410029Multiplexer serial number:	ORYXHardware model number:	OX2-SRSoftware version number:	ORYX F/W v4,00 Oryx Data Collector v3.7.2.0data status	okinstallation	B6 Nyhavnadifferential loss correction	single-endedforward channel	channel 2reverse channel	N/Adate	2023/12/11time	08:35:08forward acquisition time	300,00reverse acquisition time	0,00gamma	499,1914k internal	0,3131k external	0,3131temperature offset calibration	1,0000default loss term (dB/km)	0,3820temperature slope calibration	1,0000multiplexer offset coefficient	1,0000multiplexer slope coefficient	1,0000fibre end	0,00T internal ref (°C)	17,71T ext. ref 1 (°C)	0,00T ext. ref 2 (°C)	-0,01length (m)	temperature (°C)	Stokes	anti-Stokes-744,400	-147,009	0,147	0,009
-743,385	-75,674	-0,341	0,090
-742,371	57,398	0,123	0,089
-741,356	-81,361	-0,224	0,055
-740,342	800,000	0,039	-0,082
-739,327	9,622	-0,095	0,053
-738,312	-155,936	0,218	0,010
-737,298	-160,825	-0,423	-0,016
-736,283	-16,795	0,120	0,056
-735,269	-54,677	-0,254	0,085
-734,254	-30,251	0,120	0,051
-733,239	-91,791	-0,521	-0,109
-732,225	-84,986	0,219	0,051
-731,210	-200,000	0,010	0,037
-730,196	-200,000	-0,005	0,054
-729,181	800,000	-0,019	-0,043
-728,167	-33,456	-0,089	-0,036
-727,152	-132,985	0,088	-0,008
-726,137	-103,107	-0,144	-0,025
-725,123	-200,000	-0,017	-0,072
-724,108	800,000	-0,038	-0,117
-723,094	159,291	-0,059	-0,061
-722,079	35,383	0,073	0,047
-721,064	-200,000	-0,003	-0,056
-720,050	138,198	-0,077	-0,075
-719,035	214,811	-0,101	-0,119
-718,021	-200,000	-0,024	0,138
-717,006	73,227	-0,091	-0,071
-715,991	-136,810	-0,089	-0,008
-714,977	-200,000	0,018	-0,082
-713,962	-123,470	0,072	-0,008
-712,948	-200,000	-0,006	-0,068
-711,933	265,267	0,047	-0,061
-710,918	239,775	-0,041	-0,051
-709,904	164,970	0,046	-0,048
-708,889	-200,000	-0,064	-0,000
-707,875	170,919	-0,061	0,065
-706,860	49,337	0,050	0,035
-705,845	199,797	-0,064	-0,073
-704,831	636,339	0,066	-0,125
-703,816	320,591	0,053	-0,075
-702,802	-200,000	-0,002	-0,069
-701,787	155,938	-0,098	-0,101
-700,772	11,858	-0,086	-0,049
-699,758	-23,236	0,061	-0,027
-698,743	800,000	-0,016	-0,043
-697,729	640,619	-0,063	0,120
-696,714	-36,352	-0,037	0,015
-695,699	71,188	-0,122	-0,093
-694,685	-154,344	-0,127	0,006
-693,670	338,056	-0,049	-0,072
-692,656	329,270	0,058	-0,082
-691,641	800,000	-0,010	-0,034
-690,627	234,799	0,020	-0,025
-689,612	386,683	-0,018	-0,027
-688,597	28,764	0,075	-0,047
-687,583	122,604	-0,071	-0,065
-686,568	-66,046	-0,103	0,030
-685,554	23,742	-0,033	-0,020
-684,539	-200,000	-0,011	0,059
-683,524	-167,151	-0,101	-0,003
-682,510	131,714	-0,134	-0,128
-681,495	800,000	-0,029	-0,095
-680,481	289,920	0,050	-0,068
-679,466	-200,000	-0,017	-0,135
-678,451	-200,000	0,007	0,106
-677,437	189,352	-0,069	-0,077
-676,422	35,844	0,104	0,068
-675,408	18,944	0,012	0,007
-674,393	-48,357	-0,054	0,019
-673,378	404,758	-0,045	0,070
-672,364	-141,083	0,079	0,006
-671,349	-87,321	-0,090	-0,020
-670,335	30,439	0,045	-0,029
-669,320	217,886	0,072	0,085
-668,305	-200,000	-0,033	-0,156
-667,291	577,607	-0,071	0,130
-666,276	-106,740	-0,048	-0,008
-665,262	800,000	0,027	-0,076
-664,247	323,355	-0,058	-0,082
-663,232	-200,000	0,019	0,143
-662,218	-19,086	0,140	0,064
-661,203	-168,812	-0,081	0,002
-660,189	11,552	-0,101	0,057
-659,174	-200,000	-0,026	-0,110
-658,159	173,110	-0,096	-0,103
-657,145	-20,346	0,063	0,029
-656,130	-125,106	0,191	-0,021
-655,116	259,413	0,082	0,105
-654,101	289,764	0,098	-0,132
-653,086	800,000	-0,038	0,107
-652,072	-42,847	0,080	-0,030
-651,057	296,485	0,028	0,039
-650,043	-11,614	-0,030	-0,014
-649,028	-94,634	-0,130	-0,026
-648,014	-104,250	0,109	0,019
-646,999	170,063	-0,069	-0,074
-645,984	325,933	-0,057	0,081
-644,970	-200,000	0,005	-0,068
-643,955	-200,000	-0,056	0,000
-642,941	191,003	-0,124	-0,138
-641,926	-200,000	-0,018	-0,105
-640,911	-200,000	-0,025	0,090
-639,897	171,240	0,028	-0,030
-638,882	201,304	-0,086	0,098
-637,868	-82,836	-0,095	0,023
-636,853	-180,972	-0,078	0,001
-635,838	-28,303	0,125	0,053
-634,824	800,000	-0,027	-0,059
-633,809	420,260	-0,037	0,059
-632,795	-42,484	-0,101	0,038
-631,780	-33,114	-0,078	0,032
-630,765	105,848	0,046	0,040
-629,751	-109,478	-0,089	-0,014
-628,736	72,886	0,128	-0,099
-627,722	111,606	0,046	0,041
-626,707	136,994	-0,074	-0,071
-625,692	10,931	-0,020	-0,011
-624,678	202,494	0,063	0,072
-623,663	129,493	0,061	-0,058
-622,649	559,289	-0,026	-0,047
-621,634	684,505	0,029	-0,057
-620,619	-44,080	-0,085	-0,031
-619,605	-200,000	-0,000	0,129
-618,590	800,000	0,022	-0,049
-617,576	193,439	0,092	0,103
-616,561	589,051	0,044	0,081
-615,546	266,783	-0,052	0,067
-614,532	78,091	-0,104	-0,082
-613,517	-200,000	-0,021	-0,083
-612,503	80,005	0,067	0,054
-611,488	800,000	0,015	0,043
-610,474	-136,464	0,108	0,009
-609,459	800,000	-0,011	-0,032
-608,444	63,150	-0,115	-0,085
-607,430	290,190	-0,052	-0,070
-606,415	81,534	-0,020	-0,016
-605,401	800,000	0,015	0,047
-604,386	800,000	0,027	0,079
-603,371	800,000	-0,043	0,095
-602,357	182,828	0,031	-0,034
-601,342	213,271	0,049	-0,057
-600,328	-200,000	0,009	-0,130
-599,313	190,449	-0,039	-0,044
-598,298	800,000	0,026	-0,067
-597,284	-163,415	0,085	-0,003
-596,269	431,732	-0,056	0,090
-595,255	57,858	-0,087	0,063
-594,240	93,081	-0,125	0,105
-593,225	-146,825	0,133	-0,008
-592,211	717,315	-0,037	-0,072
-591,196	-85,520	-0,038	-0,009
-590,182	-90,155	0,130	0,028
-589,167	800,000	-0,019	-0,055
-588,152	-104,756	0,038	0,006
-587,138	-127,890	-0,034	0,004
-586,123	-121,128	-0,038	-0,005
-585,109	-21,706	-0,118	0,053
-584,094	-37,940	-0,008	0,003
-583,079	42,688	0,029	-0,019
-582,065	-37,439	-0,050	-0,020
-581,050	54,118	0,008	-0,006
-580,036	19,241	-0,096	-0,057
-579,021	308,969	0,094	-0,130
-578,006	98,203	-0,041	0,035
-576,992	38,485	-0,068	-0,045
-575,977	23,022	0,056	-0,034
-574,963	304,856	-0,004	0,005
-573,948	800,000	-0,048	-0,121
-572,934	60,567	-0,061	-0,045
-571,919	-200,000	-0,001	0,058
-570,904	-64,855	-0,187	0,056
-569,890	-200,000	-0,060	-0,206
-568,875	174,080	-0,047	-0,050
-567,861	-200,000	0,006	0,079
-566,846	800,000	-0,022	-0,061
-565,831	8,270	0,063	-0,035
-564,817	800,000	0,030	-0,092
-563,802	-200,000	0,004	0,132
-562,788	666,376	-0,032	-0,061
-561,773	267,542	-0,043	-0,055
-560,758	-200,000	0,013	0,072
-559,744	800,000	-0,022	-0,066
-558,729	-114,430	0,031	-0,004
-557,715	125,660	-0,112	-0,104
-556,700	38,851	-0,095	-0,062
-555,685	-200,000	0,048	-0,218
-554,671	-200,000	0,032	-0,134
-553,656	-48,704	0,096	0,034
-552,642	260,267	0,065	-0,083
-551,627	-36,643	-0,094	-0,037
-550,612	286,741	0,075	-0,101
-549,598	800,000	0,024	0,054
-548,583	-94,982	-0,146	-0,029
-547,569	284,918	-0,071	0,095
-546,554	-39,350	0,098	-0,038
-545,539	-41,617	0,027	-0,010
-544,525	2,787	0,140	0,075
-543,510	-83,221	0,030	0,007
-542,496	-106,289	-0,120	-0,020
-541,481	800,000	-0,041	-0,111
-540,466	334,725	-0,030	0,043
-539,452	-25,882	0,165	0,071
-538,437	800,000	-0,055	-0,148
-537,423	800,000	0,043	-0,092
-536,408	-93,070	-0,059	-0,012
-535,393	231,818	0,034	-0,041
-534,379	271,316	0,038	-0,050
-533,364	-200,000	-0,027	-0,095
-532,350	-51,527	0,143	0,049
-531,335	-34,075	0,088	0,036
-530,321	-200,000	-0,016	-0,063
-529,306	-200,000	0,001	-0,044
-528,291	-53,165	-0,075	-0,025
-527,277	325,855	0,042	0,060
-526,262	-84,936	-0,152	0,035
-525,248	148,363	0,055	-0,055
-524,233	800,000	-0,013	-0,031
-523,218	166,227	-0,024	0,025
-522,204	-200,000	0,012	0,065
-521,189	800,000	-0,039	-0,082
-520,175	152,935	-0,072	-0,072
-519,160	82,526	0,047	0,038
-518,145	295,889	0,045	0,060
-517,131	-200,000	-0,011	0,086
-516,116	-200,000	-0,010	0,139
-515,102	800,000	0,044	0,098
-514,087	-138,299	-0,153	0,012
-513,072	5,767	-0,119	-0,065
-512,058	41,774	0,012	-0,008
-511,043	-200,000	0,018	0,085
-510,029	-200,000	0,003	-0,060
-509,014	-200,000	0,028	0,164
-507,999	-84,348	0,042	-0,010
-506,985	-27,974	-0,131	0,056
-505,970	-200,000	-0,009	-0,115
-504,956	-32,445	-0,157	0,064
-503,941	-200,000	0,007	0,053
-502,926	379,853	-0,069	0,105
-501,912	187,196	-0,043	0,047
-500,897	-200,000	0,020	-0,133
-499,883	37,105	-0,035	-0,023
-498,868	-15,331	0,059	-0,027
-497,853	173,442	-0,066	0,070
-496,839	219,624	-0,061	-0,073
-495,824	800,000	0,051	0,111
-494,810	800,000	-0,042	0,117
-493,795	172,032	-0,043	0,045
-492,781	-144,035	-0,040	-0,003
-491,766	-77,377	0,097	0,025
-490,751	-37,716	-0,041	-0,016
-489,737	245,015	-0,153	-0,190
-488,722	-200,000	-0,016	0,128
-487,708	655,686	-0,044	0,083
-486,693	-143,138	-0,033	-0,002
-485,678	-175,725	0,061	0,001
-484,664	205,104	-0,032	0,037
-483,649	-200,000	-0,010	-0,085
-482,635	-117,601	-0,152	-0,020
-481,620	800,000	0,042	0,106
-480,605	800,000	0,058	0,188
-479,591	-83,728	-0,036	0,008
-478,576	-44,375	-0,022	0,008
-477,562	-200,000	-0,009	-0,132
-476,547	800,000	0,022	0,046
-475,532	800,000	-0,032	0,076
-474,518	85,702	0,071	0,057
-473,503	-59,140	0,134	0,042
-472,489	800,000	-0,025	0,077
-471,474	-200,000	-0,016	-0,075
-470,459	-35,147	-0,046	0,018
-469,445	11,526	0,083	-0,046
-468,430	-91,917	-0,042	-0,009
-467,416	587,450	0,015	0,027
-466,401	326,746	0,091	0,129
-465,386	-200,000	0,001	0,142
-464,372	539,864	0,051	-0,090
-463,357	-111,684	0,085	0,013
-462,343	-14,531	-0,031	-0,015
-461,328	-47,652	-0,087	0,031
-460,313	369,890	-0,096	0,143
-459,299	-165,179	-0,115	0,004
-458,284	800,000	0,046	0,105
-457,270	18,361	0,042	0,024
-456,255	-200,000	0,014	-0,055
-455,241	-200,000	-0,041	-0,149
-454,226	-200,000	-0,024	-0,128
-453,211	-66,675	-0,055	-0,016
-452,197	-169,812	0,085	0,002
-451,182	-63,653	0,047	0,014
-450,168	-90,234	0,031	-0,007
-449,153	-8,352	-0,071	0,035
-448,138	-14,642	-0,074	-0,035
-447,124	-67,128	0,041	-0,012
-446,109	300,786	-0,011	-0,015
-445,095	-112,410	0,080	-0,012
-444,080	12,736	-0,045	-0,026
-443,065	148,981	0,031	-0,030
-442,051	168,753	-0,053	-0,056
-441,036	214,391	-0,064	-0,074
-440,022	-200,000	0,026	0,111
-439,007	-200,000	0,001	-0,038
-437,992	-47,196	-0,068	0,024
-436,978	-200,000	0,033	0,155
-435,963	-21,397	0,074	0,033
-434,949	800,000	-0,019	-0,051
-433,934	114,422	0,054	-0,049
-432,919	800,000	-0,039	0,086
-431,905	-200,000	-0,004	-0,177
-430,890	-104,146	-0,140	-0,024
-429,876	-74,593	0,036	-0,009
-428,861	800,000	-0,028	0,080
-427,846	101,084	0,120	0,103
-426,832	-200,000	-0,009	-0,175
-425,817	-83,403	0,096	0,022
-424,803	83,187	-0,081	0,065
-423,788	800,000	0,050	-0,127
-422,773	-158,481	-0,088	-0,004
-421,759	-6,999	-0,026	0,013
-420,744	-200,000	0,008	0,044
-419,730	800,000	-0,035	-0,095
-418,715	-64,026	-0,153	-0,045
-417,701	-171,106	0,157	-0,004
-416,686	-108,541	-0,105	0,016
-415,671	-24,216	0,063	-0,028
-414,657	259,569	0,090	0,114
-413,642	-200,000	-0,039	0,142
-412,628	-200,000	-0,003	0,090
-411,613	-76,996	-0,021	-0,005
-410,598	-10,367	-0,127	0,062
-409,584	-111,426	0,033	-0,005
-408,569	272,646	0,050	-0,065
-407,555	-140,246	-0,056	0,004
-406,540	-106,191	0,123	0,020
-405,525	-1,387	-0,038	-0,020
-404,511	-200,000	0,019	-0,071
-403,496	92,983	-0,049	0,041
-402,482	135,924	-0,058	0,055
-401,467	-127,209	0,097	-0,010
-400,452	-69,018	0,104	0,029
-399,438	93,156	-0,123	-0,102
-398,423	90,692	-0,141	-0,115
-397,409	47,338	-0,024	0,016
-396,394	-200,000	-0,013	-0,162
-395,379	162,787	0,067	-0,069
-394,365	211,874	-0,035	0,040
-393,350	85,020	0,073	-0,059
-392,336	649,781	-0,064	0,121
-391,321	9,917	0,207	0,115
-390,306	800,000	-0,055	0,167
-389,292	369,162	0,054	0,081
-388,277	77,731	0,091	-0,071
-387,263	40,524	0,101	0,066
-386,248	3,047	0,149	0,079
-385,233	320,401	-0,089	-0,124
-384,219	770,476	-0,053	-0,107
-383,204	653,492	-0,053	-0,100
-382,190	26,341	0,066	-0,040
-381,175	111,057	0,097	-0,085
-380,160	11,662	-0,144	0,081
-379,146	86,155	0,056	0,045
-378,131	319,268	-0,021	0,029
-377,117	-200,000	-0,009	0,076
-376,102	-200,000	0,014	-0,093
-375,088	146,016	-0,093	-0,091
-374,073	800,000	-0,015	-0,030
-373,058	-82,438	0,195	-0,046
-372,044	32,431	0,112	0,071
-371,029	-109,867	0,188	0,029
-370,015	-200,000	0,115	-0,000
-369,000	800,000	0,043	-0,092
-367,985	-200,000	-0,018	-0,107
-366,971	-30,199	-0,084	-0,035
-365,956	-83,759	0,072	-0,017
-364,942	57,915	0,064	0,046
-363,927	431,548	0,057	0,091
-362,912	-200,000	0,017	0,129
-361,898	146,956	0,043	0,043
-360,883	217,861	-0,047	0,055
-359,869	744,424	-0,037	-0,073
-358,854	800,000	0,031	0,068
-357,839	-122,498	0,061	-0,007
-356,825	800,000	-0,013	-0,038
-355,810	230,262	0,021	-0,025
-354,796	43,770	-0,060	0,040
-353,781	-26,488	-0,107	-0,046
-352,766	130,308	-0,179	-0,168
-351,752	166,901	0,058	-0,060
-350,737	-52,728	0,044	0,015
-349,723	-200,000	0,029	0,130
-348,708	479,598	-0,042	-0,071
-347,693	-200,000	-0,023	0,081
-346,679	256,675	-0,079	0,099
-345,664	-5,973	-0,123	-0,061
-344,650	800,000	-0,065	0,132
-343,635	-59,986	0,146	-0,045
-342,620	800,000	-0,037	0,098
-341,606	-200,000	0,010	0,046
-340,591	309,253	0,058	-0,079
-339,577	-28,634	0,116	0,049
-338,562	8,006	-0,051	-0,028
-337,548	-200,000	0,029	-0,141
-336,533	-200,000	0,007	0,024
-335,518	135,089	0,032	-0,031
-334,504	145,989	0,072	-0,071
-333,489	800,000	0,069	-0,183
-332,475	209,861	-0,071	-0,081
-331,460	-87,446	-0,056	0,012
-330,445	-81,920	0,150	-0,036
-329,431	211,768	0,091	-0,105
-328,416	14,505	0,047	0,027
-327,402	114,759	-0,069	0,062
-326,387	-200,000	0,016	-0,097
-325,372	-200,000	0,016	-0,068
-324,358	800,000	0,016	-0,045
-323,343	25,004	-0,117	0,071
-322,329	-53,428	0,117	0,039
-321,314	230,458	0,079	0,095
-320,299	-120,970	0,032	0,004
-319,285	-17,766	-0,057	-0,026
-318,270	-61,196	-0,118	-0,036
-317,256	-200,000	0,003	-0,040
-316,241	316,632	0,048	0,066
-315,226	77,015	-0,092	-0,072
-314,212	800,000	-0,015	0,045
-313,197	-200,000	0,014	-0,063
-312,183	19,623	-0,061	0,036
-311,168	446,980	-0,053	0,085
-310,153	-139,771	-0,095	-0,007
-309,139	-177,591	-0,142	0,002
-308,124	279,491	0,043	-0,057
-307,110	-161,023	0,164	-0,006
-306,095	800,000	-0,076	0,218
-305,080	623,140	0,044	-0,081
-304,066	55,691	-0,152	-0,107
-303,051	72,255	-0,107	-0,081
-302,037	-200,000	-0,007	0,026
-301,022	-93,658	0,083	0,017
-300,008	-85,367	0,011	-0,002
-298,993	-200,000	0,001	0,149
-297,978	290,634	0,023	0,031
-296,964	800,000	0,030	-0,087
-295,949	800,000	0,036	0,082
-294,935	-25,539	-0,044	0,019
-293,920	-200,000	0,021	-0,094
-292,905	586,032	-0,083	0,150
-291,891	-200,000	0,011	0,131
-290,876	-88,022	-0,036	-0,008
-289,862	-106,346	-0,127	-0,021
-288,847	146,830	-0,065	0,064
-287,832	-1,251	0,100	-0,051
-286,818	448,917	-0,038	0,062
-285,803	-78,831	0,079	-0,020
-284,789	42,995	0,062	-0,041
-283,774	242,270	0,047	0,057
-282,759	137,170	-0,052	0,050
-281,745	214,700	0,090	0,105
-280,730	-182,506	0,067	-0,001
-279,716	-100,420	0,035	0,006
-278,701	-188,935	0,150	0,001
-277,686	163,108	0,053	0,054
-276,672	-200,000	-0,017	-0,189
-275,657	-200,000	0,000	-0,025
-274,643	-200,000	0,003	-0,029
-273,628	-94,820	0,028	-0,006
-272,613	-200,000	-0,007	0,117
-271,599	-92,585	0,091	-0,019
-270,584	118,773	0,132	0,119
-269,570	121,616	0,092	0,084
-268,555	-151,052	0,110	-0,006
-267,540	9,686	-0,054	-0,030
-266,526	758,847	0,050	-0,100
-265,511	743,813	-0,053	-0,105
-264,497	294,964	0,044	0,059
-263,482	-96,044	0,054	-0,010
-262,467	138,960	-0,094	-0,090
-261,453	27,165	0,061	0,038
-260,438	289,757	0,055	-0,073
-259,424	-200,000	-0,011	0,046
-258,409	608,542	0,034	0,063
-257,395	195,555	-0,071	0,079
-256,380	438,977	0,098	0,156
-255,365	200,011	0,130	-0,145
-254,351	-62,545	0,065	0,019
-253,336	-188,155	-0,101	0,001
-252,322	-59,707	-0,053	-0,016
-251,307	-84,259	-0,112	-0,026
-250,292	112,877	-0,030	0,027
-249,278	-71,177	0,143	0,039
-248,263	14,913	0,051	0,029
-247,249	800,000	-0,034	0,082
-246,234	595,373	-0,052	-0,095
-245,219	432,640	-0,089	-0,141
-244,205	91,023	0,091	-0,074
-243,190	64,400	-0,032	0,024
-242,176	-200,000	-0,001	0,097
-241,161	-8,507	-0,062	-0,030
-240,146	-3,779	0,096	0,048
-239,132	92,557	0,080	-0,065
-238,117	-75,831	-0,092	-0,024
-237,103	565,762	-0,044	-0,078
-236,088	670,030	0,076	-0,144
-235,073	89,100	0,050	-0,041
-234,059	-19,121	0,124	0,056
-233,044	800,000	-0,059	0,128
-232,030	-46,278	-0,074	0,026
-231,015	496,850	0,067	0,112
-230,000	95,465	0,073	-0,061
-228,986	-4,504	0,043	-0,022
-227,971	221,727	0,053	-0,062
-226,957	-200,000	-0,014	0,078
-225,942	-45,440	0,101	-0,036
-224,927	-24,831	0,032	0,014
-223,913	292,123	0,131	0,174
-222,898	304,456	0,038	-0,051
-221,884	800,000	-0,074	-0,189
-220,869	-4,512	0,049	0,025
-219,855	-132,697	-0,059	-0,005
-218,840	-200,000	-0,001	0,017
-217,825	-200,000	0,008	-0,027
-216,811	-200,000	0,022	-0,125
-215,796	-13,347	-0,128	-0,060
-214,782	-60,082	-0,146	0,045
-213,767	379,469	0,131	0,196
-212,752	-200,000	0,059	0,278
-211,738	746,858	-0,030	0,058
-210,723	69,583	0,115	-0,086
-209,709	800,000	0,066	0,154
-208,694	-200,000	-0,017	0,124
-207,679	660,379	-0,037	0,070
-206,665	87,028	0,040	0,032
-205,650	-136,632	-0,035	-0,003
-204,636	-151,208	-0,116	0,006
-203,621	800,000	0,046	0,119
-202,606	211,371	0,088	-0,101
-201,592	-82,118	-0,056	-0,013
-200,577	-92,827	-0,085	-0,017
-199,563	111,093	-0,110	-0,096
-198,548	-74,004	0,041	0,011
-197,533	-200,000	0,016	-0,059
-196,519	-200,000	0,029	0,157
-195,504	-200,000	0,014	-0,057
-194,490	-1,993	-0,063	0,032
-193,475	-200,000	0,022	-0,091
-192,460	52,412	0,105	0,073
-191,446	-113,570	0,067	0,009
-190,431	101,580	-0,050	0,042
-189,417	-82,109	0,148	-0,035
-188,402	31,338	0,080	0,050
-187,387	273,907	0,029	-0,038
-186,373	-84,429	-0,068	-0,016
-185,358	-170,656	0,048	0,001
-184,344	29,137	-0,042	0,026
-183,329	-65,869	0,099	0,029
-182,315	-117,329	0,034	0,004
-181,300	800,000	-0,054	0,131
-180,285	41,744	0,052	-0,034
-179,271	800,000	-0,043	-0,132
-178,256	501,499	0,069	-0,116
-177,242	-96,757	0,153	0,029
-176,227	132,404	-0,073	0,068
-175,212	-179,815	-0,093	-0,001
-174,198	-124,132	-0,100	0,011
-173,183	52,632	0,120	0,084
-172,169	-200,000	0,021	-0,121
-171,154	-200,000	-0,004	0,041
-170,139	-23,343	-0,067	0,029
-169,125	800,000	-0,036	0,079
-168,110	681,351	-0,097	-0,185
-167,096	335,318	0,028	-0,039
-166,081	-200,000	-0,007	-0,042
-165,066	41,215	-0,109	-0,071
-164,052	-144,637	0,096	0,006
-163,037	800,000	-0,015	0,041
-162,023	-76,493	0,119	0,030
-161,008	-78,501	-0,045	-0,011
-159,993	-21,168	-0,157	-0,069
-158,979	-87,383	-0,145	0,032
-157,964	-200,000	0,119	-0,000
-156,950	474,226	0,055	0,090
-155,935	800,000	-0,018	-0,038
-154,920	252,441	0,066	0,082
-153,906	-200,000	-0,000	0,021
-152,891	-200,000	-0,020	0,150
-151,877	-200,000	-0,021	0,131
-150,862	-200,000	0,023	-0,087
-149,847	477,620	0,039	-0,064
-148,833	9,199	-0,133	-0,073
-147,818	-96,571	0,055	-0,011
-146,804	-105,658	0,091	0,015
-145,789	87,726	-0,113	-0,091
-144,775	163,734	0,021	-0,021
-143,760	160,068	0,090	0,091
-142,745	-65,735	-0,087	0,025
-141,731	-11,229	-0,111	-0,053
-140,716	113,167	-0,089	0,079
-139,702	70,192	0,090	0,067
-138,687	-200,000	0,033	0,158
-137,672	187,175	-0,086	-0,093
-136,658	38,115	-0,041	-0,026
-135,643	800,000	0,026	-0,064
-134,629	-51,785	-0,173	-0,058
-133,614	-76,393	0,208	0,053
-132,599	54,003	-0,050	-0,035
-131,585	800,000	-0,054	0,157
-130,570	59,959	0,133	0,095
-129,556	-152,236	-0,018	-0,001
-128,541	-34,338	-0,037	-0,015
-127,526	-122,054	-0,081	0,010
-126,512	-25,457	-0,139	0,059
-125,497	352,509	-0,019	0,028
-124,483	-54,694	0,132	-0,043
-123,468	-200,000	0,126	-0,000
-122,453	-28,796	-0,135	-0,056
-121,439	68,375	-0,102	0,076
-120,424	66,735	0,095	0,070
-119,410	-200,000	-0,004	0,069
-118,395	134,994	0,056	0,053
-117,380	-45,549	0,078	0,028
-116,366	103,845	0,087	-0,074
-115,351	269,331	0,043	-0,055
-114,337	209,259	0,101	-0,115
-113,322	-200,000	-0,024	-0,112
-112,307	800,000	-0,024	0,048
-111,293	-71,356	0,081	-0,022
-110,278	-200,000	-0,004	0,091
-109,264	800,000	-0,020	-0,056
-108,249	-200,000	-0,008	-0,091
-107,234	211,362	-0,032	-0,036
-106,220	527,207	0,059	-0,102
-105,205	253,339	0,028	-0,034
-104,191	-200,000	-0,008	0,043
-103,176	-132,063	-0,059	-0,005
-102,162	-200,000	-0,009	0,039
-101,147	229,586	0,034	0,040
-100,132	800,000	-0,030	-0,086
-99,118	-8,064	0,052	-0,025
-98,103	349,375	0,019	0,028
-97,089	-104,260	0,155	-0,026
-96,074	-200,000	0,007	-0,057
-95,059	800,000	0,018	0,043
-94,045	167,876	-0,022	0,023
-93,030	-200,000	-0,018	-0,106
-92,016	-200,000	-0,024	0,091
-91,001	-200,000	0,020	0,084
-89,986	282,938	0,086	0,113
-88,972	-26,359	-0,060	0,025
-87,957	-200,000	0,012	-0,131
-86,943	232,969	-0,095	-0,113
-85,928	-200,000	0,004	0,014
-84,913	-200,000	0,007	-0,022
-83,899	210,339	0,044	0,051
-82,884	386,883	-0,071	0,107
-81,870	187,154	0,081	-0,088
-80,855	-124,136	-0,126	-0,014
-79,840	-200,000	0,006	0,052
-78,826	-111,277	0,039	0,006
-77,811	364,992	-0,037	-0,053
-76,797	-200,000	-0,009	-0,164
-75,782	-11,556	0,107	-0,051
-74,767	304,830	0,042	0,056
-73,753	180,827	-0,044	0,047
-72,738	-113,207	0,078	0,011
-71,724	-48,728	-0,192	-0,067
-70,709	724,863	0,053	-0,102
-69,694	-200,000	-0,000	-0,003
-68,680	-130,804	-0,149	-0,014
-67,665	-200,000	0,009	-0,050
-66,651	-116,368	0,037	-0,005
-65,636	-61,616	-0,033	0,010
-64,622	-200,000	0,020	-0,070
-63,607	800,000	0,028	-0,064
-62,592	162,802	0,031	0,032
-61,578	800,000	0,009	0,026
-60,563	264,898	0,076	0,096
-59,549	-200,000	-0,048	0,196
-58,534	-29,394	-1,757	-0,725
-57,519	800,000	-0,424	-1,157
-56,505	-200,000	-1,191	-4,861
-55,490	-29,449	0,711	0,293
-54,476	800,000	5,133	12,152
-53,461	-200,000	16,466	272,220
-52,446	800,000	709,281	2226,617
-51,432	568,566	1620,497	2861,865
-50,417	118,252	1618,687	1444,822
-49,403	81,752	1280,096	1002,100
-48,388	35,676	1027,252	651,915
-47,373	21,107	989,787	579,804
-46,359	19,950	978,115	569,118
-45,344	18,082	973,818	560,441
-44,330	18,166	972,616	560,003
-43,315	17,799	970,919	557,796
-42,300	17,794	969,978	557,219
-41,286	17,767	968,773	556,414
-40,271	17,739	968,088	555,906
-39,257	17,834	967,063	555,607
-38,242	17,786	966,292	554,985
-37,227	17,825	965,518	554,648
-36,213	17,711	964,815	553,847
-35,198	17,769	963,592	553,314
-34,184	17,850	962,951	553,189
-33,169	17,685	962,196	552,194
-32,154	17,820	961,101	551,984
-31,140	17,773	960,352	551,380
-30,125	17,729	959,699	550,838
-29,111	17,750	958,706	550,314
-28,096	17,731	958,272	549,981
-27,082	17,710	957,581	549,495
-26,067	17,726	956,741	549,044
-25,052	17,713	955,885	548,487
-24,038	17,791	955,253	548,355
-23,023	17,750	954,698	547,884
-22,009	17,773	953,905	547,480
-20,994	17,804	953,098	547,098
-19,979	17,719	952,601	546,517
-18,965	17,729	951,974	546,165
-17,950	17,710	951,466	545,793
-16,936	17,659	950,715	545,177
-15,921	17,701	949,972	544,864
-14,906	17,661	949,272	544,313
-13,892	17,646	948,574	543,839
-12,877	17,614	947,939	543,354
-11,863	17,549	947,468	542,851
-10,848	17,658	946,684	542,733
-9,833	17,669	946,414	542,589
-8,819	17,615	945,700	541,988
-7,804	17,611	944,952	541,524
-6,790	17,591	944,524	541,191
-5,775	17,607	944,044	540,946
-4,760	17,637	943,377	540,641
-3,746	17,673	942,519	540,242
-2,731	17,512	941,985	539,401
-1,717	17,438	941,182	538,684
-0,702	17,430	940,617	538,314
0,313	17,213	940,153	538,169
1,327	20,488	938,108	547,345
2,342	29,823	794,752	488,598
3,356	26,457	447,856	270,259
4,371	-4,732	294,613	146,479
5,386	-8,954	276,125	133,255
6,400	-10,235	270,120	129,151
7,415	-10,539	268,057	127,872
8,429	-10,364	266,799	127,421
9,444	-10,180	265,962	127,180
10,459	-9,957	265,393	127,100
11,473	-10,138	264,918	126,696
12,488	-10,066	264,294	126,452
13,502	-10,032	263,805	126,237
14,517	-9,836	263,414	126,217
15,531	-9,430	263,227	126,485
16,546	-9,344	262,763	126,328
17,561	-9,401	262,349	126,067
18,575	-9,436	262,212	125,958
19,590	-9,267	261,709	125,858
20,604	-9,191	261,345	125,740
21,619	-9,311	261,191	125,547
22,634	-9,236	260,798	125,413
23,648	-9,285	260,574	125,251
24,663	-9,247	260,349	125,166
25,677	-9,315	259,895	124,876
26,692	-9,244	259,793	124,879
27,707	-9,340	259,567	124,673
28,721	-9,304	259,210	124,523
29,736	-9,310	258,910	124,362
30,750	-9,264	258,709	124,296
31,765	-9,304	258,684	124,237
32,780	-9,298	258,210	124,004
33,794	-9,111	257,876	123,998
34,809	-9,426	257,775	123,659
35,823	-9,268	257,616	123,712
36,838	-9,184	257,271	123,609
37,853	-9,387	257,178	123,374
38,867	-9,354	256,944	123,280
39,882	-9,320	256,768	123,215
40,896	-9,442	256,482	122,959
41,911	-9,522	256,382	122,829
42,926	-9,454	256,067	122,727
43,940	-9,375	255,708	122,613
44,955	-9,377	255,497	122,500
45,969	-9,372	255,311	122,404
46,984	-9,464	254,996	122,162
47,999	-9,547	254,936	122,049
49,013	-9,597	254,726	121,894
50,028	-9,585	254,416	121,745
51,042	-9,449	254,142	121,722
52,057	-9,567	253,898	121,492
53,071	-9,622	253,820	121,395
54,086	-9,753	253,642	121,185
55,101	-9,779	253,429	121,050
56,115	-9,629	253,259	121,089
57,130	-9,416	253,119	121,196
58,144	-9,410	252,816	121,045
59,159	-9,238	252,426	120,997
60,174	-9,344	252,204	120,788
61,188	-9,448	252,201	120,685
62,203	-9,586	252,001	120,460
63,217	-9,421	251,861	120,525
64,232	-9,354	251,576	120,435
65,247	-9,640	251,300	120,046
66,261	-9,446	250,959	120,039
67,276	-9,570	250,946	119,915
68,290	-9,470	250,599	119,825
69,305	-9,707	250,533	119,579
70,320	-9,450	250,213	119,636
71,334	-9,410	249,925	119,523
72,349	-9,389	249,831	119,484
73,363	-9,448	249,603	119,314
74,378	-9,346	249,390	119,290
75,393	-9,331	249,273	119,235
76,407	-9,369	249,137	119,127
77,422	-9,387	248,981	119,027
78,436	-9,461	248,603	118,773
79,451	-9,473	248,450	118,678
80,466	-9,469	248,112	118,510
81,480	-9,182	247,879	118,632
82,495	-9,471	247,804	118,339
83,509	-9,502	247,741	118,273
84,524	-9,354	247,405	118,228
85,539	-9,501	247,377	118,079
86,553	-9,536	247,111	117,912
87,568	-9,526	246,983	117,848
88,582	-9,492	246,711	117,737
89,597	-9,583	246,379	117,492
90,611	-9,554	246,342	117,488
91,626	-9,528	246,139	117,403
92,641	-9,412	245,988	117,418
93,655	-9,431	245,773	117,289
94,670	-9,433	245,329	117,064
95,684	-9,502	245,372	117,016
96,699	-9,504	245,117	116,882
97,714	-9,665	245,022	116,692
98,728	-9,549	244,826	116,685
99,743	-9,523	244,622	116,600
100,757	-9,555	244,409	116,461
101,772	-9,490	244,073	116,345
102,787	-9,732	243,989	116,092
103,801	-9,661	243,789	116,046
104,816	-9,577	243,668	116,048
105,830	-9,445	243,569	116,100
106,845	-9,827	243,338	115,662
107,860	-9,624	243,130	115,722
108,874	-9,694	242,964	115,575
109,889	-9,572	242,700	115,539
110,903	-9,732	242,475	115,290
111,918	-9,722	242,351	115,229
112,933	-9,657	242,133	115,169
113,947	-9,660	242,068	115,125
114,962	-9,568	241,744	115,037
115,976	-9,414	241,629	115,098
116,991	-9,461	241,570	115,022
118,006	-9,421	241,362	114,945
119,020	-9,593	241,133	114,684
120,035	-9,661	241,006	114,557
121,049	-9,298	240,860	114,777
122,064	-9,561	240,654	114,452
123,079	-9,482	240,504	114,436
124,093	-9,485	240,125	114,242
125,108	-9,842	240,135	113,944
126,122	-9,475	239,856	114,102
127,137	-9,579	239,729	113,947
128,151	-9,323	239,517	114,044
129,166	-9,575	239,378	113,763
130,181	-9,637	239,125	113,581
131,195	-9,499	239,064	113,655
132,210	-9,678	238,782	113,365
133,224	-9,697	238,636	113,270
134,239	-9,721	238,525	113,188
135,254	-9,822	238,316	112,997
136,268	-9,707	238,128	112,990
137,283	-9,725	237,915	112,865
138,297	-9,661	237,789	112,847
139,312	-9,720	237,617	112,707
140,327	-9,625	237,401	112,671
141,341	-9,439	237,178	112,707
142,356	-9,427	237,066	112,653
143,370	-9,345	236,926	112,642
144,385	-9,212	236,832	112,695
145,400	-9,278	236,726	112,581
146,414	-9,262	236,511	112,482
147,429	-9,537	236,345	112,171
148,443	-9,460	236,093	112,104
149,458	-9,392	235,804	112,011
150,473	-9,496	235,766	111,900
151,487	-9,556	235,441	111,688
152,502	-9,538	235,425	111,684
153,516	-9,335	235,158	111,711
154,531	-9,412	235,069	111,596
155,546	-9,315	234,847	111,559
156,560	-9,400	234,617	111,371
157,575	-9,630	234,346	111,049
158,589	-9,596	234,186	110,991
159,604	-9,303	234,191	111,217
160,619	-8,995	234,044	111,383
161,633	-9,162	233,900	111,171
162,648	-9,158	233,760	111,098
163,662	-9,435	233,684	110,832
164,677	-9,519	233,320	110,582
165,692	-9,492	233,190	110,532
166,706	-9,198	233,037	110,683
167,721	-9,375	233,078	110,552
168,735	-9,204	232,880	110,584
169,750	-9,271	232,583	110,380
170,764	-9,719	232,462	109,958
171,779	-9,423	232,297	110,105
172,794	-9,372	232,163	110,071
173,808	-9,520	232,001	109,868
174,823	-9,706	231,652	109,546
175,837	-9,666	231,530	109,511
176,852	-9,806	231,535	109,393
177,867	-9,312	231,218	109,621
178,881	-9,452	231,171	109,479
179,896	-9,489	231,096	109,405
180,910	-9,384	230,953	109,410
181,925	-9,480	230,799	109,252
182,940	-9,435	230,460	109,117
183,954	-9,379	230,346	109,098
184,969	-9,136	230,396	109,301
185,983	-9,109	230,113	109,178
186,998	-9,096	230,054	109,151
188,013	-9,124	229,890	109,042
189,027	-9,306	229,788	108,842
190,042	-9,265	229,447	108,703
191,056	-9,546	229,379	108,441
192,071	-9,468	229,127	108,374
193,086	-9,356	228,969	108,376
194,100	-10,230	228,565	107,497
195,115	-11,488	227,769	106,140
196,129	-11,451	227,785	106,166
197,144	-6,959	229,216	110,318
198,159	-1,397	230,897	115,465
199,173	1,620	231,629	118,180
200,188	2,422	231,935	118,953
201,202	3,040	231,792	119,352
202,217	3,200	231,839	119,491
203,232	3,220	231,713	119,431
204,246	3,592	231,654	119,680
205,261	3,715	231,432	119,650
206,275	3,780	231,248	119,595
207,290	3,502	231,116	119,300
208,304	3,589	230,990	119,292
209,319	3,751	230,664	119,239
210,334	3,514	230,561	118,991
211,348	3,054	230,248	118,463
212,363	2,767	229,940	118,071
213,377	2,163	229,788	117,515
214,392	2,319	229,569	117,513
215,407	2,069	229,441	117,245
216,421	2,199	229,222	117,222
217,436	2,346	228,931	117,176
218,450	1,929	228,914	116,835
219,465	1,982	228,649	116,731
220,480	1,892	228,669	116,662
221,494	1,912	228,592	116,627
222,509	2,442	228,213	116,830
223,523	2,146	228,282	116,628
224,538	2,173	228,166	116,579
225,553	2,208	227,929	116,474
226,567	2,230	227,727	116,377
227,582	2,053	227,721	116,229
228,596	2,194	227,433	116,179
229,611	2,339	227,310	116,217
230,626	2,030	227,157	115,892
231,640	2,201	226,901	115,882
232,655	2,107	226,874	115,786
233,669	2,158	226,721	115,736
234,684	2,235	226,477	115,660
235,699	2,379	226,453	115,747
236,713	2,338	226,290	115,622
237,728	2,343	226,144	115,541
238,742	2,367	226,028	115,490
239,757	2,547	225,754	115,475
240,772	2,413	225,847	115,412
241,786	2,715	225,652	115,531
242,801	2,581	225,441	115,311
243,815	2,571	225,523	115,335
244,830	2,870	225,203	115,386
245,844	2,536	225,107	115,076
246,859	2,666	224,712	114,961
247,874	2,594	224,673	114,876
248,888	2,539	224,499	114,736
249,903	2,631	224,401	114,745
250,917	2,372	224,361	114,519
251,932	2,725	224,203	114,694
252,947	2,564	224,025	114,471
253,961	2,485	223,864	114,320
254,976	2,327	223,710	114,112
255,990	2,480	223,507	114,113
257,005	2,618	223,437	114,171
258,020	2,703	223,334	114,171
259,034	2,438	223,262	113,926
260,049	2,499	223,054	113,856
261,063	2,640	222,933	113,888
262,078	2,771	222,743	113,879
263,093	2,712	222,614	113,759
264,107	2,668	222,484	113,650
265,122	2,595	222,278	113,480
266,136	2,751	222,155	113,524
267,151	2,729	222,111	113,475
268,166	2,593	221,876	113,243
269,180	2,348	221,621	112,921
270,195	2,326	221,492	112,829
271,209	2,346	221,429	112,801
272,224	2,357	221,272	112,720
273,239	2,346	221,201	112,665
274,253	2,280	220,909	112,458
275,268	2,297	220,753	112,381
276,282	1,985	220,580	112,052
277,297	2,140	220,410	112,070
278,312	2,351	220,391	112,206
279,326	2,380	220,310	112,177
280,341	2,584	220,072	112,196
281,355	2,281	220,042	111,947
282,370	2,371	219,904	111,933
283,384	2,327	219,571	111,721
284,399	2,264	219,476	111,617
285,414	2,318	219,293	111,553
286,428	2,715	219,290	111,833
287,443	2,665	219,065	111,672
288,457	2,584	219,029	111,584
289,472	2,540	218,757	111,403
290,487	2,272	218,685	111,161
291,501	2,273	218,582	111,100
292,516	2,440	218,476	111,157
293,530	2,231	218,338	110,925
294,545	2,608	218,169	111,104
295,560	2,376	218,052	110,865
296,574	2,645	217,927	110,988
297,589	2,577	217,736	110,831
298,603	2,774	217,646	110,919
299,618	2,647	217,478	110,731
300,633	2,561	217,365	110,602
301,647	2,540	217,253	110,519
302,662	2,587	217,079	110,455
303,676	2,774	216,978	110,529
304,691	2,693	216,811	110,376
305,706	2,526	216,642	110,159
306,720	2,912	216,367	110,288
307,735	2,704	216,307	110,098
308,749	2,605	216,155	109,939
309,764	2,743	216,126	110,014
310,779	2,564	215,891	109,755
311,793	2,588	215,660	109,645
312,808	2,559	215,524	109,546
313,822	2,361	215,440	109,350
314,837	2,543	215,309	109,405
315,852	2,181	215,337	109,150
316,866	2,615	215,187	109,375
317,881	2,622	215,035	109,294
318,895	2,513	214,731	109,051
319,910	2,300	214,644	108,845
320,925	2,209	214,474	108,684
321,939	2,279	214,319	108,646
322,954	2,432	214,075	108,622
323,968	2,368	214,108	108,582
324,983	2,507	213,973	108,604
325,997	2,347	213,858	108,422
327,012	2,364	213,730	108,359
328,027	2,427	213,545	108,301
329,041	2,421	213,207	108,115
330,056	2,638	213,295	108,305
331,070	2,566	213,049	108,119
332,085	2,508	212,952	108,019
333,100	2,400	212,839	107,875
334,114	2,615	212,752	107,974
335,129	2,383	212,640	107,743
336,143	2,281	212,416	107,548
337,158	2,413	212,394	107,621
338,173	2,348	212,304	107,520
339,187	2,660	211,784	107,466
340,202	2,321	211,839	107,246
341,216	2,316	211,790	107,207
342,231	2,771	211,543	107,394
343,246	2,461	211,381	107,084
344,260	2,530	211,474	107,170
345,275	2,513	211,274	107,047
346,289	2,602	211,121	107,023
347,304	2,534	211,099	106,954
348,319	2,682	210,809	106,902
349,333	2,758	210,523	106,800
350,348	2,403	210,477	106,519
351,362	2,437	210,491	106,540
352,377	2,579	210,296	106,531
353,392	2,509	210,105	106,376
354,406	2,177	210,013	106,088
355,421	194,558	1341,893	1428,838
356,435	155,322	1479,825	1428,863
