DTS Sentinel unit serial number:	SN410029Multiplexer serial number:	ORYXHardware model number:	OX2-SRSoftware version number:	ORYX F/W v4,00 Oryx Data Collector v3.7.2.0data status	okinstallation	B6 Nyhavnadifferential loss correction	single-endedforward channel	channel 2reverse channel	N/Adate	2023/12/09time	09:10:08forward acquisition time	300,00reverse acquisition time	0,00gamma	499,1914k internal	0,3138k external	0,3138temperature offset calibration	1,0000default loss term (dB/km)	0,3820temperature slope calibration	1,0000multiplexer offset coefficient	1,0000multiplexer slope coefficient	1,0000fibre end	0,00T internal ref (°C)	18,44T ext. ref 1 (°C)	1,99T ext. ref 2 (°C)	2,00length (m)	temperature (°C)	Stokes	anti-Stokes-744,400	-106,034	0,115	-0,019
-743,385	-82,336	-0,192	0,046
-742,371	-139,709	0,190	-0,015
-741,356	-137,734	-0,264	0,022
-740,342	-90,243	0,081	0,017
-739,327	-51,559	-0,257	0,088
-738,312	-75,028	0,190	-0,050
-737,298	-198,803	-0,279	-0,001
-736,283	-61,645	0,100	0,031
-735,269	70,007	-0,298	0,228
-734,254	800,000	0,034	0,097
-733,239	-80,725	-0,620	-0,152
-732,225	243,110	0,107	0,134
-731,210	657,609	0,056	0,107
-730,196	179,845	0,106	0,115
-729,181	316,538	-0,064	-0,089
-728,167	-17,873	-0,155	-0,072
-727,152	116,806	-0,034	0,031
-726,137	-200,000	0,023	-0,108
-725,123	-100,678	-0,082	0,015
-724,108	139,533	-0,035	-0,034
-723,094	132,616	-0,119	-0,114
-722,079	-38,335	0,036	-0,014
-721,064	800,000	0,058	0,145
-720,050	800,000	0,027	-0,070
-719,035	15,809	-0,128	0,075
-718,021	769,872	-0,077	-0,155
-717,006	28,290	0,082	-0,051
-715,991	-13,085	-0,058	-0,028
-714,977	138,253	-0,034	0,033
-713,962	-76,097	0,085	0,022
-712,948	-200,000	0,015	0,050
-711,933	186,975	-0,111	0,123
-710,918	-200,000	0,003	0,073
-709,904	800,000	-0,030	-0,069
-708,889	-53,938	-0,112	0,037
-707,875	-1,556	-0,098	-0,051
-706,860	800,000	-0,063	-0,140
-705,845	103,666	-0,082	-0,071
-704,831	-29,153	-0,131	0,055
-703,816	-28,722	0,124	0,053
-702,802	-85,752	-0,080	0,018
-701,787	-200,000	0,027	0,111
-700,772	800,000	-0,015	0,035
-699,758	800,000	0,073	0,192
-698,743	800,000	-0,043	0,125
-697,729	306,077	0,029	-0,039
-696,714	-10,668	0,073	0,035
-695,699	23,203	-0,039	0,024
-694,685	476,443	-0,017	-0,029
-693,670	800,000	-0,035	0,082
-692,656	800,000	0,018	0,040
-691,641	287,693	-0,009	0,012
-690,627	800,000	0,016	-0,050
-689,612	288,263	-0,087	0,117
-688,597	-200,000	0,011	0,097
-687,583	-43,573	-0,120	0,045
-686,568	61,572	-0,113	-0,083
-685,554	-200,000	-0,024	0,080
-684,539	169,357	0,050	-0,053
-683,524	-73,028	-0,138	-0,037
-682,510	501,552	0,082	0,141
-681,495	227,501	-0,124	-0,149
-680,481	4,392	-0,108	-0,059
-679,466	34,581	-0,074	-0,048
-678,451	68,629	-0,028	-0,021
-677,437	88,218	-0,111	0,091
-676,422	6,573	-0,144	-0,079
-675,408	-200,000	-0,023	0,231
-674,393	17,920	-0,073	-0,043
-673,378	352,424	-0,078	-0,114
-672,364	-200,000	0,011	-0,207
-671,349	800,000	-0,035	-0,085
-670,335	800,000	-0,057	0,134
-669,320	-200,000	-0,016	0,082
-668,305	800,000	-0,041	0,109
-667,291	478,901	-0,028	0,047
-666,276	739,101	-0,051	-0,102
-665,262	-5,332	-0,155	-0,079
-664,247	200,335	-0,073	-0,083
-663,232	143,770	-0,029	-0,028
-662,218	520,245	0,068	0,119
-661,203	-200,000	-0,028	0,105
-660,189	425,483	0,033	0,052
-659,174	386,696	-0,087	-0,134
-658,159	-200,000	-0,018	-0,097
-657,145	-200,000	-0,037	-0,140
-656,130	95,035	-0,127	-0,107
-655,116	105,748	0,076	0,066
-654,101	-34,093	-0,125	0,050
-653,086	4,386	-0,140	-0,076
-652,072	-50,503	-0,119	-0,041
-651,057	52,345	-0,089	-0,063
-650,043	-200,000	-0,017	0,102
-649,028	-74,359	-0,115	-0,030
-648,014	-84,279	0,143	-0,033
-646,999	67,110	0,069	0,052
-645,984	94,448	-0,136	-0,114
-644,970	-200,000	0,004	0,161
-643,955	-76,938	-0,115	-0,029
-642,941	-200,000	-0,014	-0,097
-641,926	335,508	-0,044	0,064
-640,911	36,733	-0,132	-0,086
-639,897	286,186	-0,076	0,101
-638,882	460,670	0,043	0,071
-637,868	800,000	0,028	0,064
-636,853	-72,480	-0,073	-0,020
-635,838	-200,000	0,021	-0,146
-634,824	-130,651	-0,098	0,010
-633,809	213,620	-0,068	0,080
-632,795	-200,000	-0,024	0,132
-631,780	7,720	0,081	0,045
-630,765	125,463	-0,039	0,037
-629,751	-135,065	0,018	-0,002
-628,736	-200,000	0,009	-0,079
-627,722	-188,880	-0,053	-0,000
-626,707	-200,000	-0,005	-0,109
-625,692	11,225	0,056	0,032
-624,678	-61,476	0,052	0,016
-623,663	800,000	-0,032	-0,084
-622,649	-200,000	0,011	-0,116
-621,634	405,290	0,033	-0,052
-620,619	-135,748	0,078	-0,007
-619,605	-200,000	-0,017	-0,067
-618,590	204,100	0,099	0,113
-617,576	47,003	0,022	0,015
-616,561	-104,903	-0,129	0,022
-615,546	5,483	0,104	-0,056
-614,532	648,269	-0,078	-0,148
-613,517	2,624	-0,073	-0,039
-612,503	658,216	0,028	-0,054
-611,488	319,731	-0,043	-0,060
-610,474	-73,834	0,043	-0,011
-609,459	-200,000	0,022	0,198
-608,444	-200,000	-0,002	0,035
-607,430	306,419	-0,026	-0,036
-606,415	800,000	-0,069	-0,163
-605,401	16,429	0,070	-0,041
-604,386	-21,564	0,061	-0,028
-603,371	-26,041	-0,060	0,026
-602,357	-77,485	-0,029	0,007
-601,342	800,000	-0,044	-0,097
-600,328	800,000	0,030	-0,076
-599,313	-66,383	0,089	0,026
-598,298	-200,000	0,001	-0,044
-597,284	177,547	-0,051	-0,055
-596,269	800,000	0,037	0,088
-595,255	-200,000	-0,010	-0,092
-594,240	-200,000	0,014	-0,052
-593,225	800,000	0,040	-0,113
-592,211	-125,388	-0,158	-0,018
-591,196	403,537	-0,027	-0,043
-590,182	80,066	-0,022	0,017
-589,167	-200,000	-0,015	-0,111
-588,152	-200,000	0,028	-0,098
-587,138	104,287	-0,095	-0,082
-586,123	800,000	-0,075	-0,163
-585,109	800,000	0,023	-0,048
-584,094	-200,000	0,006	0,072
-583,079	800,000	0,054	0,122
-582,065	-76,679	0,123	-0,032
-581,050	-94,779	0,176	0,035
-580,036	-200,000	-0,015	0,070
-579,021	-75,843	-0,080	0,021
-578,006	-42,640	-0,142	0,053
-576,992	800,000	-0,055	0,176
-575,977	-50,060	0,038	0,013
-574,963	-122,462	0,034	0,004
-573,948	-200,000	0,002	0,034
-572,934	-200,000	0,041	-0,162
-571,919	800,000	-0,100	-0,221
-570,904	-14,608	-0,125	-0,059
-569,890	613,860	-0,039	0,071
-568,875	-75,694	0,049	0,013
-567,861	23,303	0,072	-0,044
-566,846	788,900	-0,053	-0,108
-565,831	119,559	0,113	-0,103
-564,817	-132,592	-0,130	0,012
-563,802	800,000	0,045	-0,117
-562,788	-200,000	-0,012	-0,109
-561,773	383,910	0,061	-0,093
-560,758	-200,000	0,033	0,128
-559,744	-82,586	-0,083	0,020
-558,729	235,418	-0,084	0,102
-557,715	544,303	-0,052	-0,091
-556,700	-200,000	-0,003	-0,126
-555,685	-137,255	-0,086	0,007
-554,671	-96,964	-0,147	0,028
-553,656	132,360	-0,046	-0,044
-552,642	-33,437	-0,089	-0,036
-551,627	-87,802	0,141	-0,031
-550,612	349,165	-0,083	-0,120
-549,598	184,498	0,058	0,064
-548,583	-38,164	-0,046	0,018
-547,569	-200,000	-0,009	-0,101
-546,554	-200,000	-0,003	-0,016
-545,539	-13,025	0,052	0,025
-544,525	31,043	0,097	0,061
-543,510	-200,000	-0,010	-0,173
-542,496	800,000	0,013	0,030
-541,481	-126,763	-0,112	-0,012
-540,466	800,000	-0,013	-0,030
-539,452	-74,160	0,045	0,012
-538,437	-200,000	-0,001	-0,031
-537,423	800,000	0,022	-0,064
-536,408	-92,082	0,020	-0,004
-535,393	79,180	-0,037	-0,029
-534,379	-200,000	-0,036	-0,138
-533,364	-129,586	0,233	0,023
-532,350	53,511	-0,120	-0,085
-531,335	-165,057	-0,037	0,001
-530,321	-200,000	-0,004	0,025
-529,306	-79,433	0,046	-0,011
-528,291	45,092	-0,107	-0,073
-527,277	24,781	0,065	-0,039
-526,262	-70,675	0,105	-0,029
-525,248	36,264	0,123	0,080
-524,233	387,572	0,072	0,110
-523,218	-78,679	0,084	0,021
-522,204	-200,000	-0,028	-0,120
-521,189	45,274	0,077	-0,052
-520,175	-200,000	-0,026	-0,124
-519,160	800,000	-0,003	-0,006
-518,145	734,094	0,018	-0,036
-517,131	258,043	0,075	0,096
-516,116	761,467	0,021	0,043
-515,102	-61,399	0,080	0,025
-514,087	800,000	0,010	-0,029
-513,072	42,085	-0,029	0,019
-512,058	800,000	0,064	0,138
-511,043	761,593	0,014	0,028
-510,029	114,377	0,096	0,086
-509,014	220,508	-0,139	0,165
-507,999	242,827	-0,098	0,121
-506,985	-49,885	-0,073	0,025
-505,970	-79,675	0,056	0,014
-504,956	-122,014	-0,095	-0,011
-503,941	-71,249	-0,031	-0,009
-502,926	205,147	0,074	0,085
-501,912	-200,000	-0,033	0,118
-500,897	-46,965	0,102	0,036
-499,883	-200,000	-0,052	-0,221
-498,868	-43,512	-0,083	0,031
-497,853	800,000	-0,021	-0,059
-496,839	145,784	0,039	0,038
-495,824	800,000	0,004	0,010
-494,810	100,723	-0,013	0,011
-493,795	-200,000	0,017	0,074
-492,781	-200,000	-0,033	-0,153
-491,766	-163,038	0,094	-0,003
-490,751	-149,345	0,111	-0,006
-489,737	476,245	0,033	-0,055
-488,722	148,321	0,085	0,085
-487,708	-189,744	0,102	0,001
-486,693	-119,745	-0,070	-0,009
-485,678	76,716	0,021	0,017
-484,664	303,799	-0,032	-0,044
-483,649	137,454	-0,059	-0,057
-482,635	573,726	0,043	-0,078
-481,620	-200,000	-0,004	-0,030
-480,605	445,277	0,049	0,078
-479,591	139,764	0,059	0,057
-478,576	188,467	0,044	0,049
-477,562	-89,688	0,079	-0,017
-476,547	-84,630	-0,089	0,020
-475,532	11,651	-0,076	-0,043
-474,518	-9,263	-0,105	-0,051
-473,503	-25,068	-0,060	-0,026
-472,489	-200,000	-0,005	0,029
-471,474	-100,654	-0,052	0,009
-470,459	108,222	0,054	0,047
-469,445	730,002	0,053	-0,105
-468,430	-23,579	-0,067	0,029
-467,416	235,870	0,106	0,129
-466,401	-45,608	0,109	0,040
-465,386	-108,469	-0,119	0,019
-464,372	-200,000	0,011	0,067
-463,357	-68,910	0,079	-0,022
-462,343	-10,687	0,057	0,027
-461,328	771,647	0,040	-0,079
-460,313	-200,000	0,007	0,035
-459,299	-63,873	0,048	0,014
-458,284	-200,000	0,008	0,173
-457,270	-200,000	0,019	-0,075
-456,255	-131,077	-0,162	-0,016
-455,241	76,037	0,015	-0,012
-454,226	-149,231	0,103	0,006
-453,211	-20,271	0,201	0,090
-452,197	-54,471	0,062	0,021
-451,182	-50,832	-0,031	-0,011
-450,168	102,459	0,033	-0,029
-449,153	800,000	-0,012	0,034
-448,138	800,000	-0,058	0,148
-447,124	-101,382	-0,144	-0,026
-446,109	77,598	0,097	0,076
-445,095	-200,000	-0,008	0,097
-444,080	-134,662	0,094	-0,008
-443,065	-5,865	-0,013	-0,006
-442,051	0,155	-0,126	-0,066
-441,036	-200,000	0,011	-0,037
-440,022	-200,000	-0,018	-0,088
-439,007	800,000	-0,023	0,049
-437,992	22,984	0,068	0,040
-436,978	-44,552	0,220	-0,080
-435,963	-120,048	-0,079	-0,010
-434,949	800,000	-0,032	0,099
-433,934	71,270	-0,156	0,118
-432,919	-88,858	0,043	-0,009
-431,905	800,000	-0,008	0,022
-430,890	310,744	0,067	0,092
-429,876	-90,393	0,072	0,015
-428,861	-200,000	-0,007	-0,050
-427,846	87,805	-0,057	-0,046
-426,832	-200,000	0,028	-0,150
-425,817	-34,118	-0,105	0,042
-424,803	-200,000	-0,006	0,153
-423,788	800,000	0,033	0,098
-422,773	228,793	0,034	-0,041
-421,759	115,392	0,133	-0,119
-420,744	131,819	-0,068	0,064
-419,730	99,001	-0,124	-0,105
-418,715	369,046	-0,024	0,036
-417,701	-200,000	0,005	0,027
-416,686	800,000	-0,044	0,102
-415,671	-93,148	0,053	0,011
-414,657	408,110	0,040	0,062
-413,642	17,818	0,100	-0,058
-412,628	-28,988	-0,065	0,027
-411,613	-87,252	-0,074	-0,016
-410,598	-200,000	0,012	-0,129
-409,584	-139,035	-0,099	-0,008
-408,569	95,377	0,119	0,099
-407,555	-130,264	0,101	-0,010
-406,540	-200,000	-0,004	0,026
-405,525	754,458	-0,051	-0,102
-404,511	-124,365	0,132	-0,015
-403,496	127,241	0,107	-0,099
-402,482	366,496	-0,042	-0,063
-401,467	-200,000	0,028	-0,102
-400,452	-200,000	-0,018	0,147
-399,438	63,222	0,051	0,037
-398,423	-200,000	0,015	0,097
-397,409	622,523	0,033	-0,061
-396,394	-200,000	0,006	0,024
-395,379	-200,000	-0,003	-0,015
-394,365	-200,000	0,005	0,060
-393,350	-136,724	-0,147	-0,012
-392,336	221,397	0,046	-0,054
-391,321	387,462	0,128	0,194
-390,306	111,989	-0,128	0,113
-389,292	-48,167	-0,033	-0,011
-388,277	-200,000	0,019	0,086
-387,263	-135,055	0,108	-0,009
-386,248	30,157	-0,145	0,090
-385,233	-200,000	0,014	0,130
-384,219	-10,210	-0,086	-0,042
-383,204	800,000	0,043	-0,103
-382,190	-182,417	0,055	0,001
-381,175	-141,053	0,162	-0,012
-380,160	-200,000	-0,032	-0,111
-379,146	38,329	0,104	0,067
-378,131	-149,664	0,127	0,007
-377,117	322,179	0,058	0,081
-376,102	65,364	0,067	0,049
-375,088	338,788	0,025	-0,036
-374,073	800,000	-0,042	-0,090
-373,058	-128,298	-0,036	0,004
-372,044	152,448	0,079	0,079
-371,029	110,399	-0,009	0,008
-370,015	23,762	-0,074	-0,045
-369,000	-200,000	0,015	-0,177
-367,985	-7,842	-0,124	-0,061
-366,971	240,104	0,027	-0,033
-365,956	-9,146	-0,050	0,025
-364,942	76,203	0,068	-0,052
-363,927	-169,540	0,177	0,005
-362,912	232,212	0,117	-0,140
-361,898	-200,000	0,041	-0,141
-360,883	-200,000	-0,017	-0,079
-359,869	721,333	0,073	-0,143
-358,854	-200,000	-0,005	-0,111
-357,839	-113,859	0,109	-0,015
-356,825	-80,161	-0,067	-0,016
-355,810	162,433	0,075	-0,077
-354,796	-124,512	0,010	0,001
-353,781	225,847	-0,050	-0,059
-352,766	243,799	-0,007	0,008
-351,752	-200,000	0,026	-0,088
-350,737	800,000	0,012	0,026
-349,723	-200,000	0,020	0,084
-348,708	750,846	0,054	0,106
-347,693	217,058	0,039	-0,046
-346,679	90,457	-0,024	-0,020
-345,664	800,000	0,007	0,018
-344,650	-200,000	0,000	-0,027
-343,635	700,182	-0,060	0,115
-342,620	196,569	0,042	0,047
-341,606	-84,633	0,069	0,016
-340,591	-5,570	0,081	-0,040
-339,577	212,181	0,089	0,102
-338,562	259,378	-0,059	0,074
-337,548	705,709	0,044	0,086
-336,533	-131,458	0,090	-0,009
-335,518	412,261	-0,065	0,100
-334,504	-200,000	0,004	0,095
-333,489	99,284	0,043	0,037
-332,475	433,470	-0,011	-0,017
-331,460	-184,967	-0,185	-0,002
-330,445	800,000	0,054	0,129
-329,431	4,786	0,152	0,081
-328,416	382,957	0,039	0,058
-327,402	800,000	0,006	0,017
-326,387	242,788	0,104	0,128
-325,372	46,894	0,030	-0,020
-324,358	-143,768	-0,111	0,008
-323,343	-129,236	0,052	0,005
-322,329	758,621	-0,034	0,067
-321,314	-185,283	0,066	0,001
-320,299	-73,052	-0,152	0,040
-319,285	65,409	-0,115	0,085
-318,270	95,100	-0,116	-0,097
-317,256	-200,000	0,008	0,082
-316,241	800,000	0,020	0,050
-315,226	94,064	0,050	0,041
-314,212	-64,604	0,138	-0,040
-313,197	-200,000	0,000	-0,041
-312,183	-200,000	0,003	0,107
-311,168	384,536	-0,064	-0,097
-310,153	90,807	-0,072	-0,059
-309,139	-101,007	-0,051	-0,009
-308,124	103,602	0,035	-0,030
-307,110	31,717	0,038	0,024
-306,095	83,967	-0,049	0,039
-305,080	-9,133	-0,043	0,021
-304,066	-30,459	-0,068	0,028
-303,051	-200,000	0,004	0,061
-302,037	112,002	-0,004	-0,004
-301,022	-200,000	0,015	0,088
-300,008	-152,430	0,094	-0,005
-298,993	-96,919	-0,073	0,014
-297,978	-200,000	-0,013	-0,126
-296,964	-200,000	0,028	-0,103
-295,949	-200,000	-0,009	-0,038
-294,935	190,559	-0,020	0,022
-293,920	-200,000	0,004	-0,092
-292,905	-19,316	0,110	0,049
-291,891	37,579	0,144	0,093
-290,876	392,619	-0,077	-0,117
-289,862	-50,007	0,097	-0,033
-288,847	122,656	-0,098	-0,089
-287,832	374,534	-0,063	-0,093
-286,818	-200,000	-0,002	-0,033
-285,803	-85,517	0,029	0,007
-284,789	663,710	-0,070	0,132
-283,774	114,784	0,118	0,105
-282,759	-200,000	0,022	-0,092
-281,745	16,453	-0,070	-0,040
-280,730	-200,000	0,040	0,137
-279,716	-5,051	0,048	0,024
-278,701	-34,580	-0,077	0,031
-277,686	-86,330	0,143	0,032
-276,672	-200,000	-0,008	0,111
-275,657	-200,000	-0,013	0,082
-274,643	-200,000	0,017	-0,091
-273,628	75,075	-0,027	0,021
-272,613	375,437	-0,046	0,068
-271,599	-85,711	0,089	0,020
-270,584	246,532	0,031	0,038
-269,570	-200,000	-0,002	-0,043
-268,555	548,235	-0,017	-0,030
-267,540	800,000	-0,037	-0,082
-266,526	-125,582	-0,152	0,017
-265,511	109,732	-0,146	0,127
-264,497	-52,940	-0,052	0,017
-263,482	-43,378	0,224	-0,082
-262,467	-200,000	-0,003	-0,033
-261,453	-7,679	-0,048	0,024
-260,438	95,087	-0,045	0,037
-259,424	-200,000	-0,008	0,115
-258,409	800,000	-0,024	-0,062
-257,395	-200,000	-0,008	-0,121
-256,380	-200,000	-0,003	0,055
-255,365	66,705	-0,136	0,101
-254,351	-102,830	0,068	0,012
-253,336	149,720	-0,039	0,038
-252,322	800,000	0,031	0,095
-251,307	35,522	-0,030	-0,019
-250,292	-200,000	0,022	-0,109
-249,278	93,094	0,125	0,103
-248,263	-200,000	-0,005	0,073
-247,249	536,973	0,016	0,027
-246,234	62,206	0,026	-0,019
-245,219	-40,100	-0,181	0,068
-244,205	800,000	0,022	-0,047
-243,190	99,082	0,108	0,091
-242,176	800,000	0,066	0,178
-241,161	-118,063	0,066	0,008
-240,146	-40,132	0,010	0,004
-239,132	37,033	0,056	-0,036
-238,117	8,484	-0,067	0,037
-237,103	52,874	-0,061	-0,043
-236,088	800,000	-0,010	0,022
-235,073	-147,454	-0,096	0,006
-234,059	-33,812	0,079	0,031
-233,044	-71,213	-0,057	0,015
-232,030	-200,000	-0,020	-0,088
-231,015	800,000	-0,045	-0,096
-230,000	800,000	0,026	0,068
-228,986	-143,446	-0,079	-0,005
-227,971	110,287	0,061	-0,054
-226,957	-82,967	0,011	0,003
-225,942	551,626	0,076	0,134
-224,927	-200,000	0,016	0,165
-223,913	-200,000	0,007	-0,109
-222,898	-143,621	-0,111	-0,008
-221,884	18,675	-0,107	0,062
-220,869	-7,851	0,059	0,029
-219,855	-129,205	0,167	0,017
-218,840	-18,103	-0,169	-0,077
-217,825	42,580	-0,093	0,062
-216,811	681,067	0,045	-0,085
-215,796	800,000	-0,023	-0,062
-214,782	82,964	-0,019	-0,015
-213,767	-112,987	-0,070	0,010
-212,752	211,942	-0,073	0,083
-211,738	403,945	0,101	0,155
-210,723	-200,000	-0,029	0,160
-209,709	425,618	-0,055	-0,086
-208,694	-161,165	-0,287	-0,011
-207,679	-84,514	-0,095	-0,022
-206,665	-200,000	0,008	0,115
-205,650	-200,000	-0,008	-0,048
-204,636	-90,031	-0,076	-0,016
-203,621	-140,436	0,025	-0,002
-202,606	800,000	-0,016	-0,049
-201,592	-63,271	-0,077	-0,023
-200,577	-79,406	-0,082	-0,020
-199,563	-200,000	-0,041	0,150
-198,548	-171,671	-0,157	-0,004
-197,533	-143,805	0,083	0,006
-196,519	800,000	-0,033	0,069
-195,504	162,273	-0,051	-0,052
-194,490	7,323	-0,232	-0,126
-193,475	-200,000	0,007	-0,050
-192,460	267,383	0,054	0,068
-191,446	214,237	-0,069	0,079
-190,431	124,664	0,104	-0,095
-189,417	-65,123	-0,068	-0,020
-188,402	800,000	-0,010	-0,027
-187,387	-116,718	-0,094	-0,012
-186,373	-200,000	0,034	-0,136
-185,358	-200,000	0,026	-0,087
-184,344	800,000	-0,061	0,166
-183,329	205,127	0,102	0,115
-182,315	-128,178	0,022	0,002
-181,300	351,976	-0,055	-0,079
-180,285	-17,412	0,045	0,020
-179,271	309,647	-0,066	-0,090
-178,256	516,468	0,043	-0,073
-177,242	-64,406	0,052	-0,015
-176,227	-200,000	-0,027	0,165
-175,212	-76,281	0,090	0,023
-174,198	156,155	-0,101	-0,101
-173,183	800,000	0,043	-0,128
-172,169	-200,000	-0,001	-0,043
-171,154	514,180	0,058	-0,099
-170,139	133,666	-0,132	0,124
-169,125	94,447	0,041	0,034
-168,110	800,000	0,064	0,197
-167,096	128,527	-0,084	0,077
-166,081	800,000	0,052	-0,115
-165,066	246,697	-0,034	-0,041
-164,052	800,000	-0,047	-0,122
-163,037	-200,000	0,016	-0,091
-162,023	124,032	-0,046	0,042
-161,008	-170,892	0,019	-0,000
-159,993	616,262	0,078	-0,143
-158,979	-21,252	-0,031	0,014
-157,964	24,421	-0,047	-0,028
-156,950	800,000	-0,015	-0,042
-155,935	535,893	0,052	0,089
-154,920	82,132	0,099	0,078
-153,906	196,194	-0,025	0,028
-152,891	-30,344	-0,017	0,007
-151,877	-200,000	-0,001	0,054
-150,862	139,211	-0,043	-0,041
-149,847	-200,000	-0,013	0,049
-148,833	-33,269	-0,150	0,060
-147,818	143,872	0,088	0,085
-146,804	-101,640	0,048	0,008
-145,789	-166,250	-0,068	-0,002
-144,775	2,112	-0,146	0,076
-143,760	800,000	-0,019	0,051
-142,745	172,344	0,048	0,050
-141,731	-95,172	0,112	0,022
-140,716	-200,000	0,035	0,129
-139,702	800,000	0,037	0,110
-138,687	-130,270	0,038	-0,004
-137,672	-200,000	-0,040	-0,166
-136,658	-34,736	-0,138	-0,054
-135,643	-132,262	-0,124	-0,011
-134,629	187,633	0,086	-0,093
-133,614	-62,832	0,171	-0,051
-132,599	45,518	-0,044	0,029
-131,585	10,928	0,125	0,069
-130,570	-91,339	-0,109	-0,022
-129,556	800,000	-0,032	0,100
-128,541	-200,000	-0,004	0,022
-127,526	525,912	-0,075	-0,129
-126,512	-81,628	0,162	0,038
-125,497	464,491	-0,073	0,119
-124,483	362,066	-0,036	-0,053
-123,468	114,725	-0,086	-0,076
-122,453	158,377	-0,015	-0,015
-121,439	41,917	-0,073	-0,048
-120,424	800,000	0,007	0,021
-119,410	-0,792	0,022	-0,011
-118,395	757,800	0,065	0,127
-117,380	7,609	0,215	0,116
-116,366	-111,731	-0,159	0,023
-115,351	588,591	-0,052	-0,093
-114,337	-200,000	0,007	-0,055
-113,322	8,573	0,056	0,030
-112,307	297,160	-0,005	-0,006
-111,293	-76,577	0,137	0,034
-110,278	232,148	0,116	0,138
-109,264	-104,550	-0,183	0,030
-108,249	-200,000	0,004	-0,027
-107,234	63,650	-0,083	0,060
-106,220	-141,700	-0,079	-0,006
-105,205	-71,682	0,080	0,021
-104,191	-20,426	0,062	-0,027
-103,176	442,259	0,049	-0,078
-102,162	-128,979	-0,085	-0,009
-101,147	-200,000	-0,016	0,068
-100,132	-118,379	0,081	-0,010
-99,118	-200,000	-0,038	-0,156
-98,103	166,455	0,011	-0,012
-97,089	-116,962	-0,044	0,006
-96,074	140,064	-0,058	0,056
-95,059	-200,000	0,032	-0,114
-94,045	800,000	0,023	-0,068
-93,030	-9,932	0,011	0,005
-92,016	-106,286	-0,107	-0,017
-91,001	697,793	-0,031	-0,060
-89,986	-23,212	0,133	-0,057
-88,972	71,845	0,099	0,074
-87,957	-64,726	0,115	-0,034
-86,943	-200,000	0,028	-0,189
-85,928	-200,000	0,002	0,028
-84,913	202,875	-0,059	0,066
-83,899	443,397	0,019	0,029
-82,884	409,125	0,079	0,122
-81,870	-193,596	0,175	0,001
-80,855	398,490	-0,036	0,055
-79,840	-92,050	-0,049	0,010
-78,826	800,000	-0,046	0,095
-77,811	-200,000	-0,012	-0,047
-76,797	-112,864	0,019	-0,003
-75,782	-114,484	0,125	0,017
-74,767	-200,000	0,024	-0,108
-73,753	104,266	0,028	0,024
-72,738	-95,091	-0,154	0,030
-71,724	14,273	0,087	-0,049
-70,709	800,000	0,009	0,022
-69,694	800,000	0,041	-0,128
-68,680	4,566	0,026	0,014
-67,665	-200,000	-0,023	0,146
-66,651	-75,472	0,034	-0,009
-65,636	96,836	-0,080	-0,066
-64,622	-183,354	-0,202	0,002
-63,607	800,000	0,035	0,078
-62,592	-1,352	-0,074	-0,038
-61,578	45,684	0,088	0,059
-60,563	-135,089	0,044	0,004
-59,549	-200,000	-0,010	0,216
-58,534	-34,080	-1,865	-0,737
-57,519	800,000	-0,468	-1,156
-56,505	-200,000	-0,967	-4,787
-55,490	-136,991	0,576	-0,047
-54,476	800,000	5,310	12,241
-53,461	-200,000	15,937	278,818
-52,446	-200,000	702,215	2250,156
-51,432	566,330	1618,586	2846,940
-50,417	122,278	1623,124	1464,099
-49,403	83,073	1284,106	1008,003
-48,388	36,992	1028,477	655,562
-47,373	21,545	990,422	580,204
-46,359	20,442	979,115	569,921
-45,344	18,742	974,756	561,768
-44,330	18,797	973,420	561,158
-43,315	18,528	971,886	559,367
-42,300	18,552	970,755	558,773
-41,286	18,506	969,907	558,115
-40,271	18,484	968,819	557,393
-39,257	18,472	968,111	556,925
-38,242	18,502	967,247	556,504
-37,227	18,519	966,489	556,101
-36,213	18,458	965,670	555,409
-35,198	18,479	964,478	554,770
-34,184	18,533	963,946	554,616
-33,169	18,411	963,193	553,766
-32,154	18,502	962,111	553,418
-31,140	18,519	961,353	553,014
-30,125	18,555	960,633	552,693
-29,111	18,528	959,720	552,060
-28,096	18,527	959,167	551,718
-27,082	18,489	958,357	551,107
-26,067	18,491	957,642	550,679
-25,052	18,460	956,751	550,045
-24,038	18,412	956,283	549,600
-23,023	18,430	955,599	549,241
-22,009	18,528	954,683	549,011
-20,994	18,458	954,396	548,597
-19,979	18,425	953,758	548,104
-18,965	18,455	952,778	547,615
-17,950	18,450	952,645	547,499
-16,936	18,449	951,864	547,024
-15,921	18,412	950,977	546,375
-14,906	18,365	950,312	545,823
-13,892	18,381	949,740	545,522
-12,877	18,342	949,044	544,978
-11,863	18,296	948,376	544,424
-10,848	18,359	947,966	544,369
-9,833	18,446	947,314	544,250
-8,819	18,423	946,773	543,846
-7,804	18,380	946,170	543,338
-6,790	18,411	945,455	543,006
-5,775	18,364	945,047	542,602
-4,760	18,440	944,251	542,365
-3,746	18,353	943,758	541,783
-2,731	18,248	943,081	541,039
-1,717	18,217	942,239	540,435
-0,702	18,181	941,572	539,918
0,313	17,950	941,178	539,771
1,327	21,104	939,127	548,537
2,342	30,213	796,621	489,573
3,356	27,137	449,918	271,857
4,371	-2,571	295,656	148,829
5,386	-6,785	276,900	135,366
6,400	-7,983	271,215	131,458
7,415	-8,220	268,729	130,022
8,429	-8,215	267,398	129,370
9,444	-8,214	266,654	129,000
10,459	-8,147	266,049	128,757
11,473	-8,278	265,494	128,357
12,488	-8,516	265,006	127,893
13,502	-8,517	264,261	127,521
14,517	-8,557	263,927	127,313
15,531	-8,564	263,493	127,085
16,546	-8,317	263,164	127,139
17,561	-8,423	262,756	126,835
18,575	-8,264	262,390	126,790
19,590	-8,497	262,096	126,427
20,604	-8,440	261,806	126,327
21,619	-8,462	261,411	126,105
22,634	-8,418	261,211	126,037
23,648	-8,396	260,826	125,860
24,663	-8,380	260,631	125,769
25,677	-8,376	260,271	125,587
26,692	-8,635	260,089	125,257
27,707	-8,406	259,828	125,325
28,721	-8,510	259,607	125,114
29,736	-8,459	259,249	124,976
30,750	-8,684	259,022	124,655
31,765	-8,596	258,960	124,693
32,780	-8,402	258,520	124,642
33,794	-8,561	258,389	124,426
34,809	-8,693	258,233	124,224
35,823	-8,572	257,745	124,084
36,838	-8,457	257,427	124,021
37,853	-8,501	257,201	123,863
38,867	-8,501	257,185	123,844
39,882	-8,700	256,869	123,505
40,896	-8,694	256,671	123,405
41,911	-8,458	256,433	123,487
42,926	-8,687	256,137	123,132
43,940	-8,566	255,928	123,127
44,955	-8,693	255,688	122,889
45,969	-8,909	255,513	122,604
46,984	-8,993	255,243	122,391
47,999	-9,099	254,930	122,137
49,013	-9,328	254,753	121,842
50,028	-9,315	254,562	121,750
51,042	-9,457	254,181	121,433
52,057	-9,507	253,886	121,238
53,071	-9,472	253,791	121,213
54,086	-9,194	253,518	121,313
55,101	-9,220	253,480	121,261
56,115	-9,056	253,328	121,320
57,130	-8,512	253,223	121,731
58,144	-8,281	253,071	121,848
59,159	-8,266	252,748	121,694
60,174	-8,493	252,619	121,425
61,188	-8,637	252,617	121,288
62,203	-8,451	252,256	121,265
63,217	-8,439	252,043	121,162
64,232	-8,549	251,831	120,955
65,247	-8,454	251,558	120,895
66,261	-8,483	251,219	120,696
67,276	-8,813	251,083	120,336
68,290	-8,807	250,810	120,200
69,305	-8,934	250,567	119,963
70,320	-8,947	250,240	119,786
71,334	-8,802	250,250	119,903
72,349	-8,390	250,119	120,183
73,363	-8,257	249,953	120,206
74,378	-8,387	249,760	119,991
75,393	-8,412	249,446	119,809
76,407	-8,486	249,333	119,680
77,422	-8,525	249,096	119,522
78,436	-8,462	249,005	119,522
79,451	-8,314	248,753	119,516
80,466	-8,651	248,377	119,039
81,480	-8,654	248,010	118,849
82,495	-8,885	248,049	118,662
83,509	-8,675	247,885	118,751
84,524	-8,663	247,610	118,618
85,539	-8,940	247,519	118,330
86,553	-8,767	247,110	118,270
87,568	-8,788	246,965	118,173
88,582	-8,861	246,934	118,085
89,597	-8,939	246,759	117,925
90,611	-8,908	246,645	117,886
91,626	-8,440	246,471	118,187
92,641	-8,446	246,156	118,020
93,655	-8,663	245,957	117,732
94,670	-8,702	245,708	117,570
95,684	-8,742	245,634	117,490
96,699	-8,707	245,489	117,440
97,714	-8,695	245,256	117,328
98,728	-8,916	245,081	117,049
99,743	-9,012	244,903	116,873
100,757	-9,047	244,432	116,609
101,772	-9,174	244,403	116,479
102,787	-8,793	244,199	116,689
103,801	-8,638	244,014	116,719
104,816	-8,579	243,901	116,703
105,830	-8,665	243,897	116,620
106,845	-8,640	243,666	116,519
107,860	-8,676	243,509	116,404
108,874	-8,689	243,165	116,219
109,889	-8,780	242,961	116,035
110,903	-8,751	242,657	115,904
111,918	-8,867	242,592	115,766
112,933	-8,818	242,510	115,757
113,947	-8,845	242,386	115,666
114,962	-8,461	242,225	115,896
115,976	-8,621	241,930	115,612
116,991	-8,615	241,685	115,490
118,006	-8,384	241,549	115,605
119,020	-8,694	241,542	115,336
120,035	-8,459	241,475	115,487
121,049	-8,575	241,285	115,290
122,064	-8,579	240,949	115,116
123,079	-8,725	240,924	114,974
124,093	-8,720	240,590	114,808
125,108	-8,746	240,215	114,598
126,122	-8,916	240,091	114,390
127,137	-8,931	239,976	114,312
128,151	-8,980	239,900	114,226
129,166	-9,038	239,535	113,995
130,181	-8,920	239,402	114,018
131,195	-8,956	239,431	113,992
132,210	-8,829	239,130	113,942
133,224	-8,764	239,020	113,932
134,239	-8,492	238,927	114,098
135,254	-8,496	238,677	113,966
136,268	-8,847	238,570	113,619
137,283	-8,959	238,061	113,277
138,297	-9,085	237,984	113,128
139,312	-9,061	237,802	113,050
140,327	-8,726	237,677	113,251
141,341	-8,129	237,709	113,739
142,356	-8,394	237,477	113,404
143,370	-8,259	237,382	113,458
144,385	-8,219	237,212	113,399
145,400	-8,179	236,987	113,314
146,414	-8,347	236,820	113,088
147,429	-8,297	236,729	113,075
148,443	-8,367	236,543	112,920
149,458	-8,238	236,276	112,886
150,473	-8,479	236,254	112,671
151,487	-8,244	235,971	112,715
152,502	-8,329	235,896	112,601
153,516	-8,250	235,615	112,520
154,531	-8,361	235,411	112,324
155,546	-8,538	235,279	112,109
156,560	-8,280	235,149	112,244
157,575	-8,502	234,955	111,963
158,589	-8,776	234,826	111,674
159,604	-8,423	234,669	111,870
160,619	-8,191	234,554	111,990
161,633	-8,034	234,264	111,967
162,648	-8,232	234,252	111,793
163,662	-8,403	234,069	111,560
164,677	-8,383	233,863	111,469
165,692	-8,178	233,637	111,513
166,706	-8,140	233,603	111,518
167,721	-8,266	233,538	111,376
168,735	-8,072	233,320	111,416
169,750	-8,240	233,132	111,183
170,764	-8,392	233,068	111,023
171,779	-8,168	232,869	111,095
172,794	-8,165	232,693	111,004
173,808	-8,402	232,502	110,715
174,823	-8,751	232,057	110,219
175,837	-8,914	231,841	109,979
176,852	-8,551	231,849	110,258
177,867	-8,333	231,929	110,458
178,881	-8,484	231,844	110,289
179,896	-8,271	231,556	110,309
180,910	-8,341	231,513	110,224
181,925	-8,172	231,314	110,251
182,940	-8,356	231,144	110,017
183,954	-8,167	231,010	110,091
184,969	-7,964	230,849	110,164
185,983	-8,066	230,710	110,007
186,998	-7,960	230,542	110,000
188,013	-8,052	230,452	109,876
189,027	-8,069	230,221	109,742
190,042	-7,854	230,101	109,843
191,056	-7,865	229,738	109,651
192,071	-7,966	229,732	109,560
193,086	-8,059	229,590	109,410
194,100	-8,060	229,284	109,254
195,115	-8,554	228,995	108,724
196,129	-9,074	228,767	108,202
197,144	-4,586	230,473	112,498
198,159	1,254	231,938	117,771
199,173	3,318	232,306	119,560
200,188	3,237	232,380	119,525
201,202	3,436	232,245	119,600
202,217	3,530	232,282	119,681
203,232	3,736	232,086	119,731
204,246	3,947	232,026	119,854
205,261	4,119	231,792	119,856
206,275	4,261	231,836	119,978
207,290	4,210	231,564	119,787
208,304	4,337	231,449	119,815
209,319	4,178	231,389	119,650
210,334	4,248	230,914	119,448
211,348	3,869	230,766	119,068
212,363	3,453	230,561	118,630
213,377	3,213	230,331	118,315
214,392	3,450	230,159	118,399
215,407	3,266	230,061	118,196
216,421	3,345	229,976	118,203
217,436	3,304	229,689	118,013
218,450	3,085	229,406	117,689
219,465	3,083	229,398	117,672
220,480	3,185	229,259	117,669
221,494	3,176	229,125	117,583
222,509	3,365	229,026	117,667
223,523	3,339	228,786	117,513
224,538	3,314	228,618	117,397
225,553	3,252	228,556	117,307
226,567	3,440	228,497	117,410
227,582	3,678	228,363	117,513
228,596	3,690	228,310	117,485
229,611	3,653	227,949	117,260
230,626	3,195	227,763	116,805
231,640	3,210	227,719	116,783
232,655	3,596	227,641	117,027
233,669	3,835	227,653	117,205
234,684	4,211	227,401	117,351
235,699	3,923	227,127	116,980
236,713	3,692	226,976	116,716
237,728	3,320	226,735	116,300
238,742	3,367	226,610	116,261
239,757	3,291	226,555	116,164
240,772	3,481	226,237	116,135
241,786	2,990	226,131	115,698
242,801	3,439	226,180	116,053
243,815	3,770	226,020	116,212
244,830	3,751	225,869	116,109
245,844	3,470	225,583	115,740
246,859	3,594	225,407	115,732
247,874	3,759	225,290	115,786
248,888	3,464	225,320	115,569
249,903	3,534	224,959	115,426
250,917	3,634	224,707	115,362
251,932	3,445	224,713	115,213
252,947	3,185	224,683	114,991
253,961	3,150	224,396	114,808
254,976	3,250	224,236	114,791
255,990	3,671	224,241	115,099
257,005	3,443	223,988	114,788
258,020	3,781	223,899	114,985
259,034	3,716	223,868	114,910
260,049	3,576	223,712	114,716
261,063	3,703	223,560	114,722
262,078	3,667	223,440	114,623
263,093	3,746	223,268	114,584
264,107	3,702	223,128	114,469
265,122	3,797	222,871	114,398
266,136	3,929	222,875	114,488
267,151	3,866	222,691	114,336
268,166	3,399	222,355	113,807
269,180	3,206	222,195	113,571
270,195	3,158	222,072	113,463
271,209	3,182	221,900	113,382
272,224	3,417	221,924	113,559
273,239	3,622	221,793	113,634
274,253	3,242	221,543	113,214
275,268	3,033	221,427	112,990
276,282	3,063	221,186	112,880
277,297	2,941	221,029	112,699
278,312	3,169	220,978	112,832
279,326	3,340	220,825	112,869
280,341	3,228	220,718	112,722
281,355	3,526	220,505	112,822
282,370	3,415	220,392	112,673
283,384	3,054	220,361	112,381
284,399	3,025	220,062	112,198
285,414	3,064	219,803	112,084
286,428	3,511	219,821	112,411
287,443	3,485	219,824	112,384
288,457	3,485	219,723	112,322
289,472	3,337	219,304	111,989
290,487	3,304	219,088	111,846
291,501	3,063	218,981	111,605
292,516	2,994	218,789	111,446
293,530	3,173	218,667	111,505
294,545	3,133	218,688	111,476
295,560	3,334	218,598	111,567
296,574	3,362	218,466	111,511
297,589	3,266	218,459	111,427
298,603	3,581	218,160	111,493
299,618	3,309	218,160	111,286
300,633	3,514	217,952	111,318
301,647	3,820	217,863	111,485
302,662	3,736	217,709	111,336
303,676	3,610	217,557	111,156
304,691	3,732	217,335	111,122
305,706	3,875	217,270	111,182
306,720	3,776	217,081	111,003
307,735	3,409	217,009	110,692
308,749	3,045	216,788	110,307
309,764	3,375	216,797	110,539
310,779	3,723	216,511	110,634
311,793	3,338	216,365	110,273
312,808	3,167	216,158	110,034
313,822	3,358	216,184	110,175
314,837	3,700	215,985	110,310
315,852	3,462	215,726	109,997
316,866	3,332	215,727	109,894
317,881	3,619	215,705	110,079
318,895	3,585	215,564	109,973
319,910	3,558	215,176	109,746
320,925	3,384	215,047	109,546
321,939	2,897	214,788	109,056
322,954	3,036	214,767	109,135
323,968	3,584	214,740	109,503
324,983	3,690	214,659	109,528
325,997	3,796	214,490	109,507
327,012	3,493	214,361	109,216
328,027	3,317	214,284	109,042
329,041	3,628	214,208	109,214
330,056	3,984	214,007	109,355
331,070	3,484	213,880	108,925
332,085	3,398	213,570	108,696
333,100	3,449	213,400	108,637
334,114	3,457	213,367	108,616
335,129	3,351	213,209	108,450
336,143	3,236	212,964	108,235
337,158	3,173	212,906	108,151
338,173	3,486	212,677	108,246
339,187	3,181	212,476	107,919
340,202	3,139	212,464	107,874
341,216	3,191	212,295	107,815
342,231	3,017	212,299	107,685
343,246	2,989	212,210	107,610
344,260	3,279	211,869	107,632
345,275	3,405	211,866	107,709
346,289	3,538	211,864	107,792
347,304	3,438	211,738	107,648
348,319	3,389	211,479	107,473
349,333	3,240	211,296	107,266
350,348	3,374	211,326	107,366
351,362	3,441	211,124	107,300
352,377	3,652	211,096	107,424
353,392	3,311	210,813	107,032
354,406	3,515	210,689	107,102
355,421	194,906	1343,466	1428,119
356,435	155,633	1481,510	1428,168
