DTS Sentinel unit serial number:	SN410029Multiplexer serial number:	ORYXHardware model number:	OX2-SRSoftware version number:	ORYX F/W v4,00 Oryx Data Collector v3.7.2.0data status	okinstallation	B6 Nyhavnadifferential loss correction	single-endedforward channel	channel 2reverse channel	N/Adate	2023/12/09time	10:10:08forward acquisition time	300,00reverse acquisition time	0,00gamma	499,1914k internal	0,3139k external	0,3139temperature offset calibration	1,0000default loss term (dB/km)	0,3820temperature slope calibration	1,0000multiplexer offset coefficient	1,0000multiplexer slope coefficient	1,0000fibre end	0,00T internal ref (°C)	18,52T ext. ref 1 (°C)	2,16T ext. ref 2 (°C)	2,15length (m)	temperature (°C)	Stokes	anti-Stokes-744,400	18,831	0,044	0,026
-743,385	-92,626	-0,246	0,051
-742,371	22,544	0,137	0,083
-741,356	78,863	-0,170	0,135
-740,342	-91,754	0,199	0,042
-739,327	-135,471	-0,105	-0,009
-738,312	-85,936	-0,088	0,020
-737,298	-126,355	-0,285	-0,031
-736,283	1,630	0,040	-0,021
-735,269	33,708	-0,175	0,112
-734,254	700,311	0,032	0,064
-733,239	7,070	-0,433	-0,239
-732,225	-34,942	0,232	0,094
-731,210	16,660	-0,101	0,059
-730,196	-200,000	-0,026	-0,141
-729,181	53,891	-0,066	-0,047
-728,167	800,000	0,052	0,117
-727,152	155,856	-0,094	-0,096
-726,137	-106,465	-0,142	0,023
-725,123	-103,022	-0,142	0,025
-724,108	-200,000	-0,027	-0,135
-723,094	198,768	-0,080	-0,090
-722,079	800,000	-0,058	-0,145
-721,064	-109,654	-0,146	0,023
-720,050	-200,000	-0,010	-0,079
-719,035	-200,000	-0,007	-0,083
-718,021	485,290	-0,074	0,126
-717,006	800,000	-0,065	-0,188
-715,991	295,849	-0,061	-0,083
-714,977	-104,236	-0,142	0,024
-713,962	65,545	-0,214	-0,160
-712,948	-158,968	-0,031	-0,001
-711,933	566,881	-0,026	0,046
-710,918	800,000	-0,020	0,063
-709,904	112,610	-0,074	-0,067
-708,889	166,794	-0,010	0,010
-707,875	113,787	-0,082	-0,074
-706,860	-126,602	-0,123	-0,013
-705,845	-200,000	-0,007	0,035
-704,831	-39,625	0,092	0,035
-703,816	-2,984	0,130	-0,067
-702,802	214,436	-0,011	0,013
-701,787	-48,516	0,090	-0,032
-700,772	-6,752	-0,113	-0,057
-699,758	686,034	-0,017	-0,033
-698,743	-200,000	0,010	0,137
-697,729	22,189	0,063	-0,038
-696,714	-63,110	-0,139	0,042
-695,699	-200,000	0,005	0,038
-694,685	57,282	-0,089	-0,065
-693,670	102,145	0,108	-0,093
-692,656	9,405	0,118	0,066
-691,641	-200,000	0,022	-0,077
-690,627	676,993	0,048	0,092
-689,612	95,939	-0,132	-0,111
-688,597	306,939	-0,057	-0,079
-687,583	693,814	-0,089	-0,173
-686,568	-45,905	-0,157	-0,057
-685,554	-200,000	-0,006	-0,162
-684,539	658,284	-0,046	-0,087
-683,524	614,761	0,018	-0,033
-682,510	-200,000	0,018	0,091
-681,495	-9,075	-0,055	0,027
-680,481	707,427	0,027	-0,054
-679,466	-98,175	0,085	0,016
-678,451	665,971	-0,042	-0,081
-677,437	98,274	0,099	-0,084
-676,422	800,000	0,034	0,110
-675,408	-200,000	-0,008	0,073
-674,393	-200,000	0,002	-0,056
-673,378	-34,348	-0,188	-0,076
-672,364	33,662	0,137	-0,088
-671,349	-200,000	-0,008	-0,131
-670,335	-200,000	0,006	0,022
-669,320	-200,000	0,019	-0,097
-668,305	251,072	0,013	-0,016
-667,291	-80,818	0,060	-0,015
-666,276	280,481	-0,056	-0,074
-665,262	146,814	0,074	0,073
-664,247	-79,236	-0,209	-0,052
-663,232	-169,965	-0,119	0,003
-662,218	-200,000	-0,037	0,126
-661,203	-200,000	0,026	0,188
-660,189	-200,000	-0,005	-0,047
-659,174	465,803	0,010	-0,016
-658,159	-50,645	-0,131	-0,045
-657,145	28,232	-0,113	-0,070
-656,130	-92,847	0,124	-0,025
-655,116	-200,000	0,010	-0,165
-654,101	-200,000	-0,030	-0,105
-653,086	-44,531	-0,117	-0,043
-652,072	218,229	0,058	-0,069
-651,057	70,768	-0,100	-0,076
-650,043	254,578	0,044	-0,055
-649,028	-62,695	-0,082	0,025
-648,014	-200,000	0,010	-0,114
-646,999	-200,000	0,006	-0,152
-645,984	163,452	-0,053	0,056
-644,970	-34,128	0,053	0,021
-643,955	800,000	0,037	0,076
-642,941	728,807	-0,061	-0,120
-641,926	473,433	-0,009	0,015
-640,911	-105,442	-0,076	0,013
-639,897	800,000	0,039	-0,091
-638,882	567,195	0,022	0,039
-637,868	800,000	-0,039	0,102
-636,853	800,000	0,012	0,030
-635,838	89,383	-0,014	0,012
-634,824	-154,763	0,046	-0,002
-633,809	214,730	0,037	-0,044
-632,795	-51,224	0,042	0,014
-631,780	-106,309	0,079	0,013
-630,765	-200,000	-0,006	-0,119
-629,751	-200,000	-0,017	-0,067
-628,736	44,456	-0,117	-0,079
-627,722	-72,819	-0,081	0,022
-626,707	-68,330	-0,041	-0,012
-625,692	75,829	-0,051	0,040
-624,678	381,847	0,032	0,048
-623,663	-58,434	-0,102	-0,032
-622,649	-53,623	-0,064	-0,022
-621,634	732,142	-0,051	0,102
-620,619	227,850	-0,038	-0,045
-619,605	-200,000	-0,036	0,134
-618,590	533,799	-0,056	0,099
-617,576	296,921	0,029	-0,039
-616,561	-200,000	-0,008	0,043
-615,546	-200,000	-0,025	-0,140
-614,532	-73,197	0,120	0,032
-613,517	56,691	0,036	-0,026
-612,503	-200,000	-0,002	0,028
-611,488	-200,000	-0,017	0,148
-610,474	800,000	0,026	-0,063
-609,459	197,147	0,007	0,008
-608,444	-200,000	0,016	-0,064
-607,430	308,380	-0,072	-0,099
-606,415	-200,000	0,012	-0,094
-605,401	800,000	0,031	-0,092
-604,386	182,165	-0,035	0,038
-603,371	800,000	-0,040	0,122
-602,357	-200,000	-0,029	-0,096
-601,342	-200,000	-0,015	-0,109
-600,328	34,516	-0,118	-0,076
-599,313	-200,000	-0,005	0,067
-598,298	659,667	-0,022	0,042
-597,284	-25,650	0,105	-0,046
-596,269	263,326	-0,106	0,137
-595,255	-200,000	0,003	-0,066
-594,240	-52,515	0,183	-0,062
-593,225	-192,586	-0,069	0,000
-592,211	-116,738	-0,071	-0,009
-591,196	-107,101	-0,134	-0,022
-590,182	240,166	0,057	0,070
-589,167	-101,684	0,050	-0,009
-588,152	-200,000	-0,022	-0,111
-587,138	-188,621	-0,112	0,001
-586,123	56,878	-0,110	-0,079
-585,109	477,492	-0,042	0,070
-584,094	-200,000	0,018	0,131
-583,079	-39,736	-0,029	-0,011
-582,065	-200,000	0,025	0,094
-581,050	-123,980	0,061	-0,007
-580,036	273,987	-0,124	0,162
-579,021	177,393	0,018	0,020
-578,006	-200,000	0,113	0,000
-576,992	-200,000	-0,008	-0,069
-575,977	6,192	0,026	0,014
-574,963	125,101	0,164	0,153
-573,948	-44,181	0,091	0,034
-572,934	138,039	-0,071	0,069
-571,919	-36,970	-0,089	0,035
-570,904	49,786	-0,185	0,128
-569,890	28,560	0,090	0,056
-568,875	273,431	0,038	0,050
-567,861	204,146	0,144	0,164
-566,846	-200,000	0,004	-0,030
-565,831	-200,000	0,007	0,132
-564,817	65,334	0,080	-0,060
-563,802	-200,000	0,020	-0,102
-562,788	-143,916	-0,128	-0,009
-561,773	-35,460	-0,058	-0,023
-560,758	-200,000	0,001	0,098
-559,744	-154,683	0,057	-0,003
-558,729	800,000	-0,028	0,066
-557,715	-200,000	-0,002	0,042
-556,700	-55,456	-0,029	-0,009
-555,685	30,528	-0,148	-0,093
-554,671	280,638	0,018	-0,023
-553,656	-200,000	0,028	0,131
-552,642	-200,000	0,010	-0,121
-551,627	-160,991	-0,124	-0,005
-550,612	59,999	-0,051	0,037
-549,598	42,492	-0,039	-0,026
-548,583	303,435	-0,057	-0,077
-547,569	667,955	0,040	-0,077
-546,554	443,030	-0,055	-0,089
-545,539	-200,000	0,003	0,014
-544,525	-200,000	-0,017	0,143
-543,510	-100,076	-0,104	0,019
-542,496	800,000	-0,046	-0,118
-541,481	-200,000	0,009	-0,103
-540,466	-30,278	-0,027	-0,011
-539,452	-94,899	-0,062	-0,012
-538,437	-200,000	0,006	-0,136
-537,423	-100,214	0,058	0,011
-536,408	-97,238	-0,067	-0,013
-535,393	81,623	-0,073	0,058
-534,379	-73,212	-0,175	0,047
-533,364	297,232	-0,068	-0,092
-532,350	215,754	0,114	0,133
-531,335	-200,000	0,005	0,135
-530,321	-200,000	-0,009	0,100
-529,306	-9,932	0,061	-0,030
-528,291	-24,430	-0,087	0,038
-527,277	-72,538	0,033	-0,009
-526,262	-70,413	-0,117	-0,032
-525,248	-105,962	-0,079	-0,013
-524,233	-200,000	0,011	0,041
-523,218	27,553	-0,066	-0,041
-522,204	145,287	0,045	0,044
-521,189	18,906	0,037	0,022
-520,175	-155,489	-0,148	-0,007
-519,160	-169,757	-0,098	0,003
-518,145	443,735	-0,041	0,067
-517,131	800,000	-0,045	0,137
-516,116	63,933	-0,076	-0,056
-515,102	-200,000	-0,013	-0,060
-514,087	706,689	-0,054	0,104
-513,072	800,000	0,014	0,040
-512,058	43,074	0,031	-0,021
-511,043	-200,000	-0,019	0,128
-510,029	-200,000	0,009	0,108
-509,014	-200,000	-0,018	0,108
-507,999	282,648	0,039	-0,052
-506,985	451,324	-0,053	0,086
-505,970	-128,461	-0,045	-0,005
-504,956	-200,000	-0,059	-0,206
-503,941	571,555	0,094	-0,169
-502,926	-152,875	-0,069	0,004
-501,912	150,281	0,118	0,117
-500,897	18,087	-0,058	0,034
-499,883	-200,000	0,002	-0,065
-498,868	-77,091	0,037	-0,009
-497,853	800,000	-0,041	-0,102
-496,839	174,648	0,055	0,058
-495,824	172,266	-0,048	-0,050
-494,810	-42,103	0,097	-0,036
-493,795	128,485	-0,068	-0,064
-492,781	800,000	-0,053	-0,128
-491,766	207,263	0,094	-0,108
-490,751	-200,000	-0,052	-0,256
-489,737	691,292	0,050	-0,096
-488,722	171,219	-0,005	-0,006
-487,708	-58,205	0,077	-0,024
-486,693	-102,396	-0,114	-0,020
-485,678	214,714	0,068	0,080
-484,664	-142,574	0,100	0,007
-483,649	-200,000	-0,002	-0,091
-482,635	-200,000	-0,031	-0,165
-481,620	-150,815	0,094	-0,005
-480,605	-111,283	0,099	0,015
-479,591	800,000	-0,029	0,076
-478,576	-57,166	-0,106	-0,034
-477,562	1,844	0,084	-0,044
-476,547	-200,000	-0,001	-0,047
-475,532	115,469	0,027	0,024
-474,518	58,668	-0,059	0,043
-473,503	81,278	-0,037	0,029
-472,489	421,820	-0,034	0,054
-471,474	118,774	0,068	-0,062
-470,459	-35,957	-0,094	-0,037
-469,445	57,731	-0,084	-0,061
-468,430	-24,498	0,098	0,043
-467,416	-103,836	-0,033	0,006
-466,401	-200,000	0,021	0,137
-465,386	292,007	0,052	0,070
-464,372	-200,000	0,014	0,054
-463,357	24,904	0,087	-0,053
-462,343	-49,862	-0,068	-0,024
-461,328	-31,638	0,056	-0,023
-460,313	-200,000	0,023	0,156
-459,299	-51,082	0,095	0,033
-458,284	800,000	0,035	-0,112
-457,270	-200,000	0,017	0,096
-456,255	-200,000	-0,001	0,007
-455,241	32,833	-0,044	-0,028
-454,226	-200,000	0,010	-0,037
-453,211	87,319	0,065	-0,053
-452,197	-57,214	-0,038	0,012
-451,182	51,613	0,118	-0,082
-450,168	-200,000	0,009	0,219
-449,153	-134,698	-0,124	0,011
-448,138	537,887	-0,059	-0,103
-447,124	212,255	-0,113	-0,131
-446,109	318,128	0,051	0,070
-445,095	197,007	0,039	0,043
-444,080	-200,000	-0,011	-0,058
-443,065	-69,497	-0,118	0,033
-442,051	-88,799	0,058	0,012
-441,036	344,950	-0,039	-0,056
-440,022	-49,152	-0,044	0,015
-439,007	2,317	-0,131	-0,069
-437,992	442,656	0,009	0,015
-436,978	31,764	-0,043	0,027
-435,963	-41,374	0,039	0,015
-434,949	-200,000	-0,009	-0,072
-433,934	800,000	-0,023	-0,058
-432,919	-200,000	-0,025	-0,145
-431,905	129,423	-0,077	0,072
-430,890	0,677	0,072	0,037
-429,876	800,000	0,042	-0,116
-428,861	349,107	0,127	0,184
-427,846	-140,271	0,151	-0,011
-426,832	260,972	0,030	-0,038
-425,817	-177,058	-0,136	0,002
-424,803	800,000	0,020	0,062
-423,788	-200,000	-0,005	0,044
-422,773	356,491	0,077	0,113
-421,759	653,377	0,035	-0,066
-420,744	-200,000	-0,010	0,047
-419,730	299,355	0,084	0,113
-418,715	6,911	-0,090	0,049
-417,701	-200,000	0,009	-0,073
-416,686	88,745	0,042	0,034
-415,671	652,533	0,039	-0,073
-414,657	215,828	-0,105	0,123
-413,642	-1,621	0,060	0,031
-412,628	96,759	-0,047	-0,039
-411,613	52,190	-0,103	-0,072
-410,598	800,000	-0,034	-0,094
-409,584	348,132	0,020	0,029
-408,569	-36,959	-0,038	0,015
-407,555	-200,000	0,001	-0,076
-406,540	284,103	-0,041	-0,054
-405,525	-101,570	-0,017	0,003
-404,511	-191,357	-0,182	0,001
-403,496	-49,978	-0,033	0,011
-402,482	244,294	-0,071	0,087
-401,467	-53,943	-0,099	0,033
-400,452	80,126	0,054	0,043
-399,438	32,996	0,051	-0,032
-398,423	-40,573	-0,128	-0,048
-397,409	97,438	-0,086	-0,072
-396,394	261,768	0,120	-0,153
-395,379	-200,000	-0,014	-0,108
-394,365	718,469	0,016	-0,032
-393,350	-200,000	0,001	0,012
-392,336	85,087	0,048	-0,039
-391,321	-89,848	-0,134	-0,028
-390,306	800,000	-0,023	-0,071
-389,292	800,000	-0,029	-0,078
-388,277	-200,000	0,008	-0,080
-387,263	604,505	0,047	0,085
-386,248	800,000	-0,064	0,158
-385,233	214,253	0,037	-0,043
-384,219	29,218	0,070	-0,043
-383,204	-200,000	-0,027	0,104
-382,190	-73,584	0,058	-0,015
-381,175	-169,710	0,035	-0,001
-380,160	-200,000	0,006	-0,081
-379,146	683,624	-0,089	0,170
-378,131	-82,745	0,100	0,023
-377,117	-91,247	0,024	-0,005
-376,102	75,386	-0,045	-0,035
-375,088	-200,000	-0,008	-0,041
-374,073	-200,000	0,009	0,035
-373,058	-200,000	0,014	0,090
-372,044	173,827	-0,073	-0,077
-371,029	-49,206	0,201	0,070
-370,015	-127,998	0,132	0,014
-369,000	774,384	-0,026	-0,051
-367,985	69,165	-0,087	0,065
-366,971	-144,414	-0,041	0,003
-365,956	800,000	0,064	0,149
-364,942	285,452	0,070	0,092
-363,927	800,000	0,051	0,122
-362,912	45,042	0,095	0,064
-361,898	800,000	-0,100	-0,220
-360,883	-200,000	0,033	-0,109
-359,869	-152,086	-0,135	0,007
-358,854	277,712	0,020	-0,026
-357,839	-93,687	0,172	-0,034
-356,825	800,000	-0,043	0,103
-355,810	-14,256	-0,038	0,018
-354,796	45,828	0,117	0,079
-353,781	800,000	0,003	0,007
-352,766	64,359	0,039	-0,028
-351,752	-83,185	-0,031	0,007
-350,737	-92,439	0,055	0,011
-349,723	-200,000	-0,001	0,059
-348,708	800,000	0,023	0,050
-347,693	130,572	-0,143	0,134
-346,679	-200,000	-0,027	-0,096
-345,664	43,030	-0,094	-0,062
-344,650	-29,586	0,115	-0,048
-343,635	800,000	0,034	-0,081
-342,620	-24,125	-0,121	0,053
-341,606	-49,599	0,173	0,060
-340,591	-200,000	-0,008	0,039
-339,577	800,000	0,003	-0,007
-338,562	58,349	-0,033	0,023
-337,548	358,316	0,017	0,025
-336,533	239,636	0,046	-0,056
-335,518	602,384	0,018	-0,032
-334,504	-200,000	0,009	0,081
-333,489	64,884	0,114	-0,084
-332,475	-164,875	0,029	0,001
-331,460	-200,000	0,030	-0,116
-330,445	377,135	0,019	-0,029
-329,431	-76,435	0,038	-0,010
-328,416	-200,000	0,008	0,088
-327,402	-86,008	-0,048	0,011
-326,387	80,307	0,076	-0,059
-325,372	173,252	-0,141	-0,149
-324,358	363,398	-0,059	0,087
-323,343	87,524	-0,084	-0,068
-322,329	263,969	0,055	-0,069
-321,314	-87,158	0,145	0,032
-320,299	-200,000	-0,020	0,093
-319,285	539,143	-0,015	-0,026
-318,270	114,668	-0,068	-0,061
-317,256	-200,000	0,000	-0,108
-316,241	148,353	0,042	0,041
-315,226	-200,000	0,005	0,045
-314,212	-1,399	0,053	0,027
-313,197	604,642	0,099	0,180
-312,183	-200,000	0,008	-0,086
-311,168	800,000	-0,038	-0,089
-310,153	720,610	0,010	-0,020
-309,139	429,532	0,060	-0,095
-308,124	107,950	0,077	0,067
-307,110	573,781	-0,041	0,074
-306,095	207,566	0,154	0,176
-305,080	250,542	0,074	0,092
-304,066	-200,000	-0,014	-0,088
-303,051	800,000	-0,060	-0,134
-302,037	-18,455	-0,168	-0,076
-301,022	-51,436	0,046	-0,016
-300,008	157,013	0,004	-0,004
-298,993	37,152	0,015	-0,010
-297,978	-200,000	-0,028	0,128
-296,964	232,974	0,110	0,132
-295,949	513,791	0,063	-0,107
-294,935	51,600	-0,095	0,066
-293,920	-200,000	0,016	0,088
-292,905	800,000	-0,008	0,021
-291,891	170,949	-0,047	0,049
-290,876	566,600	-0,032	0,057
-289,862	-200,000	0,021	-0,127
-288,847	225,600	0,033	-0,039
-287,832	-129,835	-0,069	0,007
-286,818	-3,560	0,032	0,016
-285,803	9,504	0,158	-0,087
-284,789	-113,570	0,164	0,023
-283,774	312,895	-0,038	0,052
-282,759	703,378	0,022	-0,042
-281,745	89,954	-0,038	0,031
-280,730	-200,000	0,016	-0,116
-279,716	-52,103	0,119	0,040
-278,701	-134,727	0,036	0,003
-277,686	-109,735	0,153	0,023
-276,672	-164,602	-0,101	0,003
-275,657	-165,475	-0,033	0,001
-274,643	34,988	-0,091	-0,058
-273,628	-200,000	-0,007	-0,177
-272,613	217,049	0,049	-0,057
-271,599	-2,877	0,168	0,085
-270,584	110,937	-0,012	0,010
-269,570	800,000	-0,043	-0,129
-268,555	-68,593	0,067	-0,019
-267,540	-78,197	0,085	-0,021
-266,526	479,477	0,041	-0,067
-265,511	-200,000	-0,032	0,124
-264,497	800,000	0,038	-0,079
-263,482	269,738	-0,009	-0,012
-262,467	264,685	0,036	0,046
-261,453	627,538	0,036	-0,066
-260,438	1,963	0,076	-0,040
-259,424	210,062	-0,078	-0,089
-258,409	113,093	-0,025	-0,022
-257,395	-200,000	0,002	-0,042
-256,380	-200,000	0,003	0,047
-255,365	345,084	-0,165	-0,237
-254,351	15,823	0,058	0,033
-253,336	800,000	-0,037	0,115
-252,322	-44,125	-0,115	-0,042
-251,307	-200,000	0,006	-0,082
-250,292	-26,574	0,117	0,050
-249,278	-200,000	0,007	-0,024
-248,263	800,000	-0,035	0,098
-247,249	315,534	0,041	-0,056
-246,234	-59,630	-0,040	-0,013
-245,219	17,149	-0,057	0,033
-244,205	104,796	0,105	0,090
-243,190	-143,475	-0,156	0,011
-242,176	259,579	0,088	0,110
-241,161	157,573	0,075	0,075
-240,146	478,909	-0,030	-0,050
-239,132	-200,000	0,005	-0,113
-238,117	-122,364	-0,061	-0,007
-237,103	58,688	0,100	0,072
-236,088	140,653	0,067	0,064
-235,073	800,000	-0,072	-0,185
-234,059	-200,000	0,003	-0,027
-233,044	-138,173	0,137	-0,011
-232,030	-174,867	-0,112	-0,002
-231,015	163,906	0,050	0,051
-230,000	-200,000	0,008	0,091
-228,986	781,770	-0,021	-0,041
-227,971	800,000	-0,067	0,146
-226,957	132,711	-0,035	-0,033
-225,942	-102,721	0,103	0,018
-224,927	-21,302	0,023	-0,010
-223,913	-28,903	-0,036	-0,015
-222,898	357,995	0,055	-0,080
-221,884	-109,915	0,086	0,013
-220,869	159,351	0,049	0,050
-219,855	348,857	0,040	0,058
-218,840	-200,000	-0,009	-0,077
-217,825	-40,464	0,055	-0,021
-216,811	167,570	-0,028	0,029
-215,796	-123,190	-0,105	-0,012
-214,782	-200,000	0,020	-0,155
-213,767	238,071	0,056	-0,067
-212,752	800,000	0,037	0,075
-211,738	131,537	0,084	0,079
-210,723	628,372	0,103	0,191
-209,709	800,000	-0,021	0,054
-208,694	-131,548	0,113	0,011
-207,679	71,781	-0,077	0,058
-206,665	394,619	0,077	0,117
-205,650	656,802	0,074	0,139
-204,636	-200,000	-0,002	0,098
-203,621	-200,000	0,037	0,141
-202,606	-4,638	-0,099	0,049
-201,592	-3,351	-0,093	0,047
-200,577	-15,997	-0,145	0,067
-199,563	26,099	-0,110	-0,066
-198,548	8,407	0,054	0,030
-197,533	-52,133	0,091	0,030
-196,519	74,356	0,074	0,057
-195,504	155,232	0,067	0,067
-194,490	800,000	-0,053	-0,111
-193,475	-43,758	0,099	-0,036
-192,460	-200,000	0,038	0,130
-191,446	-16,257	-0,136	0,062
-190,431	-200,000	0,007	0,064
-189,417	-200,000	0,001	0,030
-188,402	-54,335	-0,080	-0,026
-187,387	-160,024	0,066	-0,003
-186,373	-200,000	-0,012	-0,182
-185,358	244,555	0,054	0,066
-184,344	421,528	0,054	-0,084
-183,329	371,657	0,059	-0,087
-182,315	-78,683	0,108	-0,027
-181,300	82,812	-0,056	0,044
-180,285	207,458	-0,034	0,038
-179,271	-200,000	-0,000	-0,061
-178,256	800,000	-0,013	-0,040
-177,242	-28,186	0,110	-0,046
-176,227	135,487	-0,074	0,070
-175,212	-103,159	0,127	0,022
-174,198	-23,494	0,109	0,047
-173,183	-91,735	-0,106	-0,022
-172,169	-200,000	-0,026	-0,089
-171,154	-146,910	-0,017	-0,001
-170,139	-200,000	-0,010	-0,041
-169,125	800,000	-0,021	-0,057
-168,110	97,708	-0,051	0,042
-167,096	-200,000	-0,026	-0,161
-166,081	800,000	-0,030	-0,076
-165,066	40,267	0,165	-0,108
-164,052	-48,033	0,123	-0,043
-163,037	-44,200	0,132	-0,048
-162,023	-200,000	-0,014	0,152
-161,008	-170,793	-0,063	0,002
-159,993	496,146	0,038	0,063
-158,979	-147,032	0,063	-0,004
-157,964	-50,882	-0,185	-0,063
-156,950	93,066	0,093	0,076
-155,935	-57,688	0,036	-0,011
-154,920	-122,888	-0,134	-0,016
-153,906	512,703	0,018	-0,031
-152,891	182,755	-0,050	0,054
-151,877	86,878	-0,064	-0,051
-150,862	-70,358	-0,058	-0,016
-149,847	-200,000	-0,029	-0,095
-148,833	792,911	-0,008	0,015
-147,818	41,462	0,036	-0,023
-146,804	-200,000	-0,006	-0,048
-145,789	288,474	0,082	0,108
-144,775	-14,423	0,015	0,007
-143,760	117,097	0,017	-0,015
-142,745	55,399	0,134	-0,094
-141,731	800,000	-0,014	0,043
-140,716	203,060	0,124	0,140
-139,702	-200,000	-0,016	0,182
-138,687	-167,887	-0,057	-0,002
-137,672	547,675	0,046	-0,080
-136,658	-103,086	0,063	-0,011
-135,643	99,881	0,052	-0,044
-134,629	319,452	0,041	-0,057
-133,614	4,190	0,198	-0,105
-132,599	-133,593	-0,031	-0,003
-131,585	-200,000	-0,006	-0,078
-130,570	126,867	-0,065	-0,060
-129,556	483,560	0,091	-0,150
-128,541	78,250	-0,069	-0,053
-127,526	69,383	0,022	-0,017
-126,512	271,448	0,039	0,050
-125,497	126,178	-0,155	0,142
-124,483	732,451	0,033	0,065
-123,468	32,317	0,040	-0,025
-122,453	-200,000	-0,006	-0,112
-121,439	324,852	-0,025	-0,035
-120,424	20,588	-0,098	-0,057
-119,410	-70,840	-0,050	0,014
-118,395	-103,525	-0,134	-0,023
-117,380	181,456	0,109	0,116
-116,366	800,000	-0,008	-0,019
-115,351	95,932	-0,092	-0,076
-114,337	445,853	-0,066	0,105
-113,322	36,509	-0,183	0,117
-112,307	-60,923	-0,049	-0,015
-111,293	-200,000	0,003	-0,017
-110,278	-200,000	0,005	0,062
-109,264	719,628	0,068	0,132
-108,249	61,328	-0,088	-0,063
-107,234	-126,122	-0,043	0,005
-106,220	188,489	0,010	0,011
-105,205	-200,000	0,038	-0,185
-104,191	-200,000	-0,001	-0,103
-103,176	-146,041	-0,052	-0,003
-102,162	-200,000	-0,054	0,176
-101,147	666,742	-0,047	-0,088
-100,132	800,000	-0,075	-0,212
-99,118	800,000	-0,028	0,057
-98,103	144,349	-0,047	-0,045
-97,089	-200,000	-0,011	-0,057
-96,074	8,084	0,064	-0,035
-95,059	-200,000	-0,009	-0,074
-94,045	-200,000	0,015	-0,061
-93,030	-100,562	-0,192	-0,034
-92,016	-64,174	-0,113	-0,033
-91,001	-72,932	-0,135	0,036
-89,986	-200,000	-0,016	0,110
-88,972	800,000	-0,024	-0,049
-87,957	0,205	-0,043	-0,022
-86,943	240,950	0,010	-0,013
-85,928	157,463	-0,146	0,146
-84,913	4,227	0,050	-0,027
-83,899	-200,000	-0,020	-0,082
-82,884	431,896	-0,019	-0,030
-81,870	-200,000	0,004	0,113
-80,855	-106,394	-0,026	0,004
-79,840	-14,848	0,025	-0,012
-78,826	400,856	-0,146	-0,221
-77,811	800,000	0,103	-0,217
-76,797	-46,886	-0,071	-0,025
-75,782	-200,000	0,015	-0,053
-74,767	-200,000	-0,001	0,091
-73,753	-83,417	-0,053	0,012
-72,738	800,000	-0,006	0,017
-71,724	-119,510	-0,043	0,005
-70,709	41,120	-0,078	0,051
-69,694	377,762	-0,061	-0,090
-68,680	229,094	-0,124	-0,147
-67,665	-32,778	0,088	-0,035
-66,651	-15,658	-0,048	-0,022
-65,636	-6,504	-0,063	0,031
-64,622	4,584	-0,089	0,047
-63,607	-200,000	-0,007	-0,142
-62,592	-107,547	-0,028	-0,004
-61,578	53,041	-0,050	0,034
-60,563	-11,023	0,095	0,045
-59,549	-51,793	0,104	-0,035
-58,534	-36,430	-1,862	-0,721
-57,519	800,000	-0,440	-1,113
-56,505	-200,000	-1,086	-4,746
-55,490	-106,944	0,728	-0,115
-54,476	800,000	5,225	12,306
-53,461	-200,000	15,851	278,916
-52,446	-200,000	702,872	2249,463
-51,432	565,127	1618,997	2844,782
-50,417	121,877	1622,732	1461,640
-49,403	82,413	1283,709	1004,916
-48,388	36,882	1028,129	654,863
-47,373	21,632	989,873	580,083
-46,359	20,504	978,664	569,773
-45,344	18,812	974,566	561,800
-44,330	18,893	973,107	561,204
-43,315	18,634	971,328	559,307
-42,300	18,613	970,339	558,646
-41,286	18,547	969,650	558,011
-40,271	18,555	968,403	557,296
-39,257	18,509	967,654	556,693
-38,242	18,561	966,877	556,395
-37,227	18,580	966,127	556,004
-36,213	18,539	965,327	555,387
-35,198	18,540	964,221	554,732
-34,184	18,566	963,566	554,416
-33,169	18,526	962,876	553,870
-32,154	18,583	961,911	553,478
-31,140	18,592	960,994	552,956
-30,125	18,620	960,218	552,580
-29,111	18,569	959,399	551,920
-28,096	18,621	958,863	551,758
-27,082	18,550	958,248	551,153
-26,067	18,588	957,192	550,647
-25,052	18,541	956,716	550,198
-24,038	18,540	955,781	549,637
-23,023	18,493	955,225	549,144
-22,009	18,575	954,417	548,921
-20,994	18,628	953,803	548,716
-19,979	18,571	953,237	548,186
-18,965	18,587	952,564	547,828
-17,950	18,569	951,930	547,383
-16,936	18,448	951,412	546,677
-15,921	18,529	950,614	546,457
-14,906	18,443	950,088	545,858
-13,892	18,394	949,491	545,336
-12,877	18,406	948,752	544,929
-11,863	18,399	947,984	544,442
-10,848	18,374	947,678	544,165
-9,833	18,512	946,993	544,191
-8,819	18,518	946,548	543,933
-7,804	18,420	945,880	543,214
-6,790	18,442	945,272	542,914
-5,775	18,459	944,660	542,596
-4,760	18,444	943,928	542,104
-3,746	18,492	943,306	541,879
-2,731	18,280	942,526	540,736
-1,717	18,268	941,789	540,253
-0,702	18,268	941,261	539,929
0,313	18,052	940,742	539,761
1,327	21,215	939,022	548,741
2,342	30,356	796,285	489,670
3,356	27,525	449,165	271,943
4,371	-2,506	295,241	148,663
5,386	-6,776	276,580	135,196
6,400	-7,939	270,768	131,261
7,415	-8,361	268,412	129,717
8,429	-8,132	267,095	129,280
9,444	-8,095	266,353	128,943
10,459	-7,906	265,585	128,733
11,473	-8,068	264,837	128,211
12,488	-8,366	264,477	127,754
13,502	-8,294	263,939	127,548
14,517	-8,289	263,456	127,308
15,531	-8,458	263,174	127,007
16,546	-8,172	262,727	127,039
17,561	-8,398	262,320	126,627
18,575	-8,146	261,870	126,625
19,590	-8,338	261,672	126,346
20,604	-8,043	261,257	126,398
21,619	-8,350	261,001	125,988
22,634	-8,303	260,689	125,868
23,648	-8,359	260,469	125,700
24,663	-8,385	260,036	125,458
25,677	-8,446	259,857	125,305
26,692	-8,425	259,627	125,203
27,707	-8,333	259,391	125,160
28,721	-8,318	259,042	124,993
29,736	-8,704	258,890	124,565
30,750	-8,307	258,635	124,784
31,765	-8,391	258,382	124,576
32,780	-8,372	258,061	124,427
33,794	-8,336	257,956	124,398
34,809	-8,498	257,444	123,997
35,823	-8,584	257,430	123,902
36,838	-8,554	257,227	123,820
37,853	-8,585	256,935	123,641
38,867	-8,551	256,711	123,552
39,882	-8,505	256,331	123,399
40,896	-8,593	256,174	123,235
41,911	-8,511	256,068	123,246
42,926	-8,615	255,797	123,012
43,940	-8,734	255,533	122,770
44,955	-8,593	255,317	122,779
45,969	-8,515	255,093	122,728
46,984	-8,841	254,836	122,309
47,999	-8,972	254,435	121,991
49,013	-9,127	254,247	121,755
50,028	-9,137	254,065	121,649
51,042	-9,378	253,774	121,289
52,057	-9,489	253,587	121,092
53,071	-9,262	253,306	121,144
54,086	-9,295	253,233	121,069
55,101	-9,022	253,127	121,245
56,115	-8,638	252,801	121,410
57,130	-8,334	252,712	121,621
58,144	-8,010	252,571	121,821
59,159	-7,979	252,352	121,732
60,174	-8,275	252,284	121,433
61,188	-8,182	251,981	121,356
62,203	-8,277	251,718	121,137
63,217	-8,314	251,516	120,997
64,232	-8,408	251,299	120,801
65,247	-8,344	251,189	120,793
66,261	-8,413	250,974	120,619
67,276	-8,505	250,555	120,328
68,290	-8,931	250,403	119,879
69,305	-8,799	250,212	119,891
70,320	-8,783	249,908	119,748
71,334	-8,526	249,838	119,923
72,349	-8,269	249,785	120,106
73,363	-8,299	249,580	119,972
74,378	-8,217	249,368	119,929
75,393	-8,244	249,033	119,735
76,407	-8,396	248,879	119,520
77,422	-8,548	248,635	119,263
78,436	-8,452	248,589	119,312
79,451	-8,535	248,458	119,167
80,466	-8,432	247,895	118,974
81,480	-8,746	247,819	118,661
82,495	-8,689	247,693	118,639
83,509	-8,818	247,539	118,445
84,524	-8,487	247,368	118,633
85,539	-8,952	247,040	118,073
86,553	-8,892	247,064	118,124
87,568	-8,707	246,662	118,077
88,582	-8,735	246,433	117,934
89,597	-8,778	246,221	117,785
90,611	-8,595	246,111	117,876
91,626	-8,438	246,051	117,969
92,641	-8,469	245,913	117,866
93,655	-8,601	245,547	117,569
94,670	-8,496	245,301	117,529
95,684	-8,531	245,163	117,423
96,699	-8,562	245,060	117,337
97,714	-8,645	244,909	117,185
98,728	-8,713	244,557	116,949
99,743	-8,848	244,427	116,764
100,757	-8,847	244,155	116,624
101,772	-8,790	244,029	116,602
102,787	-8,823	243,932	116,517
103,801	-8,685	243,768	116,543
104,816	-8,697	243,643	116,463
105,830	-8,517	243,473	116,521
106,845	-8,567	243,358	116,414
107,860	-8,683	243,149	116,207
108,874	-8,580	242,750	116,092
109,889	-8,838	242,628	115,809
110,903	-8,546	242,409	115,936
111,918	-8,690	242,185	115,700
112,933	-8,660	242,090	115,669
113,947	-8,450	241,966	115,772
114,962	-8,522	241,786	115,617
115,976	-8,469	241,637	115,579
116,991	-8,591	241,375	115,343
118,006	-8,448	241,358	115,443
119,020	-8,512	241,151	115,280
120,035	-8,655	241,035	115,097
121,049	-8,281	240,876	115,318
122,064	-8,422	240,634	115,076
123,079	-8,528	240,443	114,888
124,093	-8,734	240,194	114,590
125,108	-8,686	240,030	114,541
126,122	-8,924	239,745	114,201
127,137	-8,975	239,604	114,081
128,151	-8,987	239,357	113,943
129,166	-8,784	239,299	114,072
130,181	-8,753	239,087	113,985
131,195	-8,878	238,826	113,750
132,210	-8,450	238,593	113,975
133,224	-8,650	238,558	113,786
134,239	-8,465	238,393	113,848
135,254	-8,386	238,313	113,863
136,268	-8,567	238,149	113,628
137,283	-8,987	237,809	113,116
138,297	-8,998	237,478	112,939
139,312	-9,023	237,398	112,871
140,327	-8,330	237,236	113,343
141,341	-8,164	237,427	113,559
142,356	-8,229	237,283	113,427
143,370	-8,035	237,019	113,447
144,385	-8,274	236,945	113,209
145,400	-8,166	236,734	113,185
146,414	-8,146	236,507	113,083
147,429	-8,286	236,268	112,846
148,443	-8,158	236,056	112,836
149,458	-8,241	235,953	112,711
150,473	-8,259	235,761	112,595
151,487	-8,320	235,644	112,480
152,502	-8,232	235,268	112,361
153,516	-8,087	235,238	112,453
154,531	-8,267	235,222	112,291
155,546	-8,281	234,969	112,149
156,560	-8,215	234,697	112,061
157,575	-8,535	234,575	111,739
158,589	-8,565	234,514	111,676
159,604	-7,897	234,207	112,051
160,619	-7,713	234,007	112,091
161,633	-7,912	233,998	111,919
162,648	-8,109	233,832	111,674
163,662	-8,169	233,650	111,528
164,677	-8,311	233,597	111,381
165,692	-8,259	233,471	111,352
166,706	-7,828	233,224	111,565
167,721	-8,031	233,182	111,375
168,735	-8,016	233,032	111,305
169,750	-8,167	232,694	111,015
170,764	-8,364	232,573	110,791
171,779	-8,224	232,552	110,882
172,794	-8,012	232,269	110,905
173,808	-8,116	232,011	110,689
174,823	-8,583	231,608	110,121
175,837	-8,899	231,586	109,852
176,852	-8,571	231,589	110,102
177,867	-8,097	231,449	110,397
178,881	-8,046	231,345	110,377
179,896	-7,978	231,141	110,323
180,910	-8,086	231,079	110,199
181,925	-8,125	230,886	110,067
182,940	-8,029	230,698	110,043
183,954	-7,964	230,580	110,027
184,969	-7,986	230,420	109,924
185,983	-7,968	230,501	109,967
186,998	-7,858	230,243	109,919
188,013	-7,818	230,013	109,831
189,027	-7,865	229,775	109,671
190,042	-7,940	229,773	109,602
191,056	-7,910	229,545	109,506
192,071	-7,927	229,258	109,346
193,086	-8,097	229,161	109,159
194,100	-7,886	228,918	109,198
195,115	-8,157	228,803	108,923
196,129	-8,453	228,455	108,519
197,144	-4,244	229,994	112,512
198,159	1,429	231,594	117,714
199,173	3,319	231,992	119,380
200,188	3,520	231,958	119,509
201,202	3,294	231,891	119,288
202,217	3,796	231,791	119,616
203,232	4,039	231,707	119,752
204,246	4,137	231,401	119,659
205,261	4,087	231,479	119,650
206,275	4,356	231,277	119,743
207,290	4,350	231,127	119,650
208,304	4,209	231,102	119,517
209,319	4,192	230,793	119,334
210,334	4,107	230,564	119,139
211,348	3,832	230,390	118,826
212,363	3,476	230,221	118,454
213,377	3,369	229,979	118,236
214,392	3,480	229,812	118,225
215,407	3,558	229,659	118,195
216,421	3,426	229,550	118,027
217,436	3,261	229,402	117,814
218,450	3,094	229,074	117,507
219,465	3,187	228,759	117,405
220,480	3,236	228,840	117,475
221,494	3,199	228,738	117,383
222,509	3,196	228,648	117,324
223,523	3,351	228,423	117,317
224,538	3,029	228,301	116,998
225,553	3,352	228,132	117,147
226,567	3,423	228,163	117,207
227,582	3,691	228,094	117,366
228,596	3,709	227,830	117,233
229,611	3,657	227,567	117,048
230,626	3,083	227,466	116,549
231,640	3,138	227,274	116,481
232,655	3,653	227,201	116,825
233,669	3,785	227,188	116,909
234,684	4,241	227,058	117,178
235,699	4,063	226,798	116,898
236,713	3,425	226,719	116,363
237,728	3,447	226,428	116,220
238,742	3,329	226,144	115,975
239,757	3,432	226,067	116,003
240,772	3,441	225,905	115,916
241,786	3,160	225,681	115,578
242,801	3,649	225,689	115,941
243,815	4,094	225,626	116,235
244,830	3,643	225,462	115,800
245,844	3,661	225,261	115,700
246,859	3,434	225,095	115,434
247,874	3,693	224,894	115,514
248,888	3,808	224,909	115,599
249,903	3,696	224,632	115,362
250,917	3,525	224,508	115,159
251,932	3,417	224,471	115,049
252,947	3,426	224,139	114,876
253,961	3,255	223,985	114,659
254,976	3,262	223,903	114,611
255,990	3,393	223,808	114,650
257,005	3,593	223,656	114,712
258,020	3,557	223,618	114,655
259,034	3,647	223,462	114,632
260,049	3,796	223,254	114,627
261,063	3,547	223,133	114,368
262,078	3,665	222,998	114,377
263,093	3,823	222,761	114,363
264,107	3,788	222,659	114,274
265,122	3,700	222,525	114,130
266,136	3,905	222,529	114,275
267,151	3,957	222,270	114,170
268,166	3,482	221,964	113,650
269,180	3,186	221,825	113,350
270,195	3,647	221,561	113,545
271,209	3,411	221,564	113,363
272,224	3,446	221,416	113,302
273,239	3,514	221,264	113,264
274,253	3,222	221,075	112,942
275,268	3,378	220,950	112,984
276,282	2,979	220,769	112,587
277,297	3,105	220,671	112,620
278,312	3,166	220,503	112,569
279,326	3,345	220,484	112,681
280,341	3,437	220,205	112,595
281,355	3,389	220,269	112,583
282,370	3,507	219,958	112,501
283,384	3,075	219,754	112,070
284,399	3,108	219,638	112,025
285,414	3,097	219,723	112,050
286,428	3,443	219,377	112,117
287,443	3,500	219,495	112,209
288,457	3,499	219,415	112,157
289,472	3,119	219,158	111,738
290,487	3,100	218,813	111,538
291,501	2,809	218,652	111,235
292,516	3,136	218,443	111,356
293,530	3,290	218,416	111,444
294,545	3,134	218,273	111,248
295,560	3,166	218,263	111,256
296,574	3,388	218,116	111,333
297,589	3,307	217,808	111,107
298,603	3,446	217,917	111,253
299,618	3,485	217,752	111,188
300,633	3,422	217,681	111,096
301,647	3,671	217,483	111,165
302,662	3,669	217,296	111,058
303,676	3,739	217,170	111,034
304,691	3,570	217,006	110,819
305,706	3,822	216,929	110,951
306,720	3,775	216,647	110,764
307,735	3,446	216,649	110,517
308,749	3,150	216,458	110,197
309,764	3,188	216,379	110,174
310,779	3,508	216,172	110,289
311,793	3,540	216,092	110,261
312,808	3,661	215,876	110,228
313,822	3,577	215,715	110,076
314,837	3,511	215,492	109,905
315,852	3,367	215,449	109,770
316,866	3,721	215,319	109,948
317,881	3,362	215,371	109,707
318,895	3,483	215,154	109,673
319,910	3,447	214,806	109,460
320,925	3,329	214,710	109,318
321,939	2,866	214,520	108,881
322,954	2,946	214,422	108,879
323,968	3,336	214,323	109,097
324,983	3,486	214,278	109,170
325,997	3,636	214,180	109,218
327,012	3,493	214,087	109,059
328,027	3,458	213,844	108,900
329,041	4,003	213,774	109,242
330,056	4,130	213,620	109,244
331,070	3,470	213,411	108,659
332,085	3,206	213,107	108,308
333,100	3,401	213,185	108,476
334,114	3,477	213,014	108,433
335,129	3,356	212,750	108,203
336,143	3,278	212,789	108,159
337,158	3,363	212,645	108,136
338,173	3,343	212,424	108,000
339,187	3,259	212,129	107,781
340,202	3,286	212,056	107,753
341,216	2,982	212,012	107,507
342,231	3,229	211,879	107,604
343,246	3,297	211,804	107,604
344,260	3,089	211,690	107,390
345,275	3,319	211,564	107,478
346,289	3,435	211,461	107,498
347,304	3,443	211,231	107,377
348,319	3,449	211,102	107,306
349,333	3,292	211,040	107,155
350,348	3,562	210,876	107,251
351,362	3,590	210,743	107,193
352,377	3,542	210,642	107,098
353,392	3,554	210,494	107,023
354,406	3,365	210,383	106,825
355,421	195,555	1341,428	1427,833
356,435	156,173	1479,270	1427,872
