DTS Sentinel unit serial number:	SN410029Multiplexer serial number:	ORYXHardware model number:	OX2-SRSoftware version number:	ORYX F/W v4,00 Oryx Data Collector v3.7.2.0data status	okinstallation	B6 Nyhavnadifferential loss correction	single-endedforward channel	channel 2reverse channel	N/Adate	2023/12/10time	17:35:08forward acquisition time	300,00reverse acquisition time	0,00gamma	499,1914k internal	0,3122k external	0,3122temperature offset calibration	1,0000default loss term (dB/km)	0,3820temperature slope calibration	1,0000multiplexer offset coefficient	1,0000multiplexer slope coefficient	1,0000fibre end	0,00T internal ref (°C)	22,39T ext. ref 1 (°C)	6,05T ext. ref 2 (°C)	6,07length (m)	temperature (°C)	Stokes	anti-Stokes-744,400	327,032	-0,098	-0,141
-743,385	-114,927	-0,241	-0,034
-742,371	-179,533	0,185	-0,003
-741,356	205,112	-0,231	0,267
-740,342	-69,805	0,120	-0,034
-739,327	20,526	-0,267	0,161
-738,312	-76,369	0,132	-0,034
-737,298	-78,801	-0,234	0,059
-736,283	800,000	-0,006	-0,017
-735,269	494,242	-0,144	0,248
-734,254	209,725	0,050	-0,059
-733,239	-47,529	-0,448	-0,161
-732,225	-97,156	0,110	0,021
-731,210	-86,077	-0,016	0,004
-730,196	800,000	-0,072	0,151
-729,181	-33,836	0,023	0,009
-728,167	-200,000	-0,021	-0,139
-727,152	-200,000	-0,020	-0,127
-726,137	-174,061	-0,097	-0,002
-725,123	-200,000	-0,010	0,044
-724,108	261,910	-0,037	-0,049
-723,094	-17,757	-0,121	0,056
-722,079	-200,000	0,002	-0,092
-721,064	-200,000	0,007	-0,076
-720,050	18,251	-0,082	0,049
-719,035	166,341	-0,107	-0,113
-718,021	110,701	0,081	-0,072
-717,006	579,796	-0,067	-0,122
-715,991	800,000	-0,030	-0,074
-714,977	270,329	0,013	-0,017
-713,962	-59,885	-0,098	-0,031
-712,948	-54,398	-0,141	0,047
-711,933	-200,000	-0,007	0,067
-710,918	76,489	0,078	-0,061
-709,904	485,530	0,009	-0,015
-708,889	-200,000	0,009	-0,129
-707,875	-200,000	0,018	-0,061
-706,860	-91,633	0,091	-0,019
-705,845	148,393	0,023	-0,023
-704,831	-95,069	0,133	0,027
-703,816	390,951	-0,078	0,121
-702,802	-98,231	-0,109	-0,021
-701,787	-71,472	-0,055	0,015
-700,772	800,000	-0,040	-0,107
-699,758	196,119	-0,044	0,050
-698,743	-106,381	0,111	0,018
-697,729	115,689	-0,035	-0,032
-696,714	-101,450	-0,049	0,009
-695,699	32,789	-0,125	-0,080
-694,685	489,735	0,003	0,005
-693,670	571,593	0,091	-0,166
-692,656	300,553	-0,049	-0,068
-691,641	-58,920	-0,204	0,065
-690,627	77,603	-0,073	-0,057
-689,612	-200,000	0,015	0,116
-688,597	28,194	-0,052	0,032
-687,583	-200,000	0,033	-0,161
-686,568	-131,883	-0,125	-0,012
-685,554	484,060	0,019	-0,032
-684,539	-51,183	0,053	0,018
-683,524	253,572	0,028	-0,036
-682,510	800,000	-0,028	-0,089
-681,495	800,000	-0,031	0,092
-680,481	-70,148	-0,153	-0,043
-679,466	90,014	-0,126	-0,104
-678,451	-200,000	-0,004	0,083
-677,437	-200,000	0,002	0,084
-676,422	-200,000	0,009	0,208
-675,408	-132,998	-0,051	-0,005
-674,393	-200,000	0,002	-0,097
-673,378	196,356	-0,105	0,119
-672,364	-67,623	-0,193	-0,056
-671,349	29,852	0,059	0,037
-670,335	-200,000	0,007	-0,077
-669,320	-200,000	-0,007	0,108
-668,305	-200,000	-0,028	0,113
-667,291	-163,479	-0,166	-0,006
-666,276	566,062	0,052	-0,095
-665,262	800,000	-0,027	-0,059
-664,247	-200,000	-0,028	-0,130
-663,232	110,939	0,091	-0,081
-662,218	98,337	0,073	-0,062
-661,203	-17,184	-0,172	-0,080
-660,189	201,739	-0,046	-0,053
-659,174	-200,000	0,017	-0,091
-658,159	-45,147	0,058	0,021
-657,145	-200,000	0,015	-0,082
-656,130	12,884	-0,041	0,024
-655,116	-200,000	-0,002	0,027
-654,101	-145,863	0,134	-0,009
-653,086	-200,000	0,006	0,067
-652,072	28,461	-0,102	0,064
-651,057	-200,000	0,012	-0,189
-650,043	-147,690	-0,101	-0,006
-649,028	-46,242	0,101	0,037
-648,014	-200,000	0,011	0,077
-646,999	-200,000	-0,003	-0,040
-645,984	-143,756	-0,077	-0,005
-644,970	259,715	-0,045	-0,058
-643,955	-200,000	0,002	0,051
-642,941	41,864	-0,149	-0,100
-641,926	800,000	-0,012	-0,025
-640,911	-40,223	0,047	0,018
-639,897	-40,053	0,064	0,025
-638,882	193,031	-0,124	-0,139
-637,868	-23,027	0,123	-0,055
-636,853	-200,000	-0,023	-0,114
-635,838	5,068	-0,120	-0,065
-634,824	64,856	0,097	-0,073
-633,809	-200,000	0,025	0,105
-632,795	-200,000	0,014	-0,073
-631,780	29,077	0,060	0,038
-630,765	-163,136	-0,141	0,005
-629,751	-73,214	0,115	0,031
-628,736	121,956	0,013	0,012
-627,722	263,669	0,073	-0,095
-626,707	-4,403	-0,128	-0,066
-625,692	-105,566	-0,015	0,003
-624,678	-200,000	-0,011	0,056
-623,663	526,210	0,019	-0,034
-622,649	-68,741	-0,076	0,022
-621,634	153,782	-0,098	0,099
-620,619	3,176	0,086	0,046
-619,605	-156,229	0,020	-0,001
-618,590	-200,000	-0,007	-0,111
-617,576	800,000	-0,054	0,115
-616,561	-113,752	0,190	-0,027
-615,546	62,231	-0,072	-0,053
-614,532	-200,000	0,016	-0,144
-613,517	-151,567	0,065	-0,003
-612,503	-194,063	-0,203	-0,001
-611,488	290,911	0,069	-0,093
-610,474	-200,000	-0,027	-0,102
-609,459	-92,001	0,073	-0,015
-608,444	-143,158	-0,201	-0,014
-607,430	-78,689	0,101	-0,025
-606,415	-80,247	0,105	0,026
-605,401	-200,000	-0,005	0,019
-604,386	40,001	0,115	-0,076
-603,371	-200,000	-0,001	0,046
-602,357	-200,000	0,018	-0,163
-601,342	800,000	0,048	-0,142
-600,328	-200,000	0,014	0,060
-599,313	800,000	-0,030	0,088
-598,298	-200,000	-0,011	-0,136
-597,284	-25,574	-0,100	-0,044
-596,269	197,982	0,117	0,133
-595,255	-128,210	0,051	0,005
-594,240	-34,269	-0,121	-0,049
-593,225	-75,325	0,032	0,008
-592,211	461,031	-0,085	-0,140
-591,196	-200,000	0,016	-0,187
-590,182	130,634	-0,105	-0,099
-589,167	152,175	0,027	-0,027
-588,152	70,309	0,078	-0,059
-587,138	-121,693	0,156	-0,019
-586,123	-200,000	-0,016	-0,236
-585,109	407,701	0,039	-0,062
-584,094	800,000	0,033	-0,070
-583,079	-89,233	0,111	0,024
-582,065	-148,562	0,122	-0,007
-581,050	345,521	0,024	0,036
-580,036	304,146	0,050	0,069
-579,021	64,934	-0,030	-0,022
-578,006	-200,000	0,013	-0,042
-576,992	-200,000	-0,024	0,101
-575,977	61,852	0,219	-0,162
-574,963	152,539	-0,035	0,036
-573,948	-63,680	-0,170	-0,051
-572,934	-200,000	-0,041	0,159
-571,919	-8,206	0,076	0,038
-570,904	800,000	-0,072	-0,208
-569,890	800,000	0,050	-0,127
-568,875	-200,000	0,020	-0,116
-567,861	9,590	-0,139	0,078
-566,846	-200,000	0,005	0,024
-565,831	172,699	-0,112	0,120
-564,817	-75,656	-0,134	0,035
-563,802	-31,519	-0,091	0,038
-562,788	185,832	0,043	-0,048
-561,773	79,413	-0,031	-0,024
-560,758	67,751	0,078	0,059
-559,744	-164,670	-0,063	-0,002
-558,729	-20,889	-0,101	0,046
-557,715	800,000	0,023	-0,072
-556,700	-70,736	-0,092	0,026
-555,685	-43,330	0,125	0,047
-554,671	100,722	0,042	0,036
-553,656	-75,992	-0,044	0,012
-552,642	232,316	0,068	0,083
-551,627	800,000	-0,017	0,053
-550,612	-144,519	0,092	-0,006
-549,598	701,503	0,041	0,080
-548,583	144,450	-0,085	0,084
-547,569	-200,000	-0,007	-0,101
-546,554	-88,851	0,118	0,026
-545,539	-194,785	-0,023	-0,000
-544,525	171,418	-0,062	0,066
-543,510	-200,000	0,011	-0,083
-542,496	-200,000	-0,034	-0,115
-541,481	742,545	0,037	-0,074
-540,466	738,982	-0,010	0,020
-539,452	142,674	0,039	0,039
-538,437	239,599	0,081	0,100
-537,423	216,300	-0,075	-0,089
-536,408	-200,000	-0,013	0,094
-535,393	90,831	-0,028	-0,023
-534,379	266,234	-0,088	-0,114
-533,364	800,000	0,003	-0,007
-532,350	-200,000	-0,003	0,076
-531,335	380,972	0,090	0,137
-530,321	-200,000	-0,006	0,093
-529,306	800,000	-0,034	0,111
-528,291	292,618	-0,055	-0,074
-527,277	-200,000	-0,028	-0,143
-526,262	64,952	-0,070	-0,052
-525,248	-200,000	-0,029	-0,200
-524,233	-200,000	-0,008	-0,078
-523,218	426,141	0,066	0,105
-522,204	86,647	-0,061	0,050
-521,189	-8,944	0,069	-0,034
-520,175	800,000	0,035	0,075
-519,160	-200,000	0,046	-0,205
-518,145	-200,000	-0,004	-0,033
-517,131	462,717	0,017	0,029
-516,116	40,296	0,094	-0,062
-515,102	669,807	-0,024	0,046
-514,087	-43,143	-0,110	0,041
-513,072	800,000	0,011	0,025
-512,058	103,016	-0,083	-0,072
-511,043	174,651	-0,049	-0,053
-510,029	-41,314	-0,023	-0,009
-509,014	35,278	0,081	0,053
-507,999	800,000	0,033	-0,102
-506,985	33,100	0,080	0,051
-505,970	-91,802	-0,061	-0,013
-504,956	-200,000	0,033	0,000
-503,941	70,531	-0,072	-0,055
-502,926	800,000	0,041	0,109
-501,912	398,247	-0,081	0,125
-500,897	-26,483	0,177	0,076
-499,883	-200,000	0,024	-0,099
-498,868	-86,501	0,058	0,013
-497,853	-149,593	-0,155	0,009
-496,839	604,187	-0,049	0,090
-495,824	-165,919	0,120	0,004
-494,810	-200,000	-0,002	0,056
-493,795	800,000	0,040	0,086
-492,781	-200,000	0,006	0,027
-491,766	-65,290	-0,100	0,030
-490,751	501,598	0,037	-0,063
-489,737	4,982	-0,098	-0,053
-488,722	-157,611	0,042	0,002
-487,708	19,503	0,061	-0,036
-486,693	153,734	0,055	-0,056
-485,678	800,000	-0,065	-0,136
-484,664	156,505	-0,033	-0,034
-483,649	61,232	0,075	-0,055
-482,635	-96,486	-0,145	0,028
-481,620	-1,716	-0,094	-0,049
-480,605	43,064	0,051	-0,034
-479,591	-200,000	0,005	0,036
-478,576	800,000	0,006	0,015
-477,562	-200,000	0,001	-0,225
-476,547	7,411	0,032	0,018
-475,532	512,054	-0,106	-0,183
-474,518	24,791	0,033	0,020
-473,503	41,975	0,110	0,073
-472,489	2,938	-0,102	0,055
-471,474	-200,000	0,010	0,162
-470,459	352,718	0,027	-0,039
-469,445	102,112	-0,071	0,061
-468,430	-131,896	-0,127	0,012
-467,416	-163,410	0,039	0,001
-466,401	281,437	0,109	0,144
-465,386	-35,367	0,089	-0,035
-464,372	-89,716	0,061	0,013
-463,357	-45,628	-0,116	0,042
-462,343	724,606	0,041	-0,080
-461,328	800,000	-0,031	-0,096
-460,313	-200,000	0,006	-0,021
-459,299	-169,049	0,127	0,003
-458,284	-200,000	0,006	-0,064
-457,270	155,916	-0,106	-0,108
-456,255	-104,995	0,029	0,005
-455,241	329,639	-0,081	-0,115
-454,226	-35,284	-0,111	-0,044
-453,211	-200,000	0,004	-0,096
-452,197	63,952	0,042	-0,031
-451,182	-121,330	0,124	-0,015
-450,168	250,253	0,058	0,072
-449,153	-200,000	0,000	0,124
-448,138	-200,000	0,000	-0,004
-447,124	-152,040	-0,293	-0,015
-446,109	-200,000	0,014	-0,149
-445,095	-115,206	-0,046	-0,006
-444,080	-170,435	0,095	-0,002
-443,065	108,199	-0,047	-0,042
-442,051	582,922	-0,037	0,066
-441,036	69,178	-0,069	0,052
-440,022	261,837	0,051	-0,065
-439,007	568,859	-0,024	-0,043
-437,992	-200,000	0,017	0,092
-436,978	49,186	-0,119	0,082
-435,963	69,072	0,063	-0,048
-434,949	90,608	-0,092	-0,076
-433,934	202,415	-0,025	0,029
-432,919	69,856	0,073	0,055
-431,905	594,173	0,009	0,017
-430,890	-75,126	-0,075	0,020
-429,876	80,701	0,019	-0,015
-428,861	-91,270	0,085	0,018
-427,846	361,437	-0,045	-0,066
-426,832	-200,000	0,016	-0,105
-425,817	50,247	0,001	-0,001
-424,803	-43,193	-0,113	0,042
-423,788	437,296	-0,047	-0,075
-422,773	-176,678	0,108	-0,002
-421,759	103,995	0,015	0,013
-420,744	65,130	0,008	0,006
-419,730	800,000	0,036	-0,102
-418,715	197,320	0,047	-0,053
-417,701	282,432	-0,036	-0,048
-416,686	-43,215	0,067	-0,025
-415,671	778,473	-0,074	-0,149
-414,657	552,527	-0,045	-0,080
-413,642	0,158	-0,075	-0,039
-412,628	211,510	0,033	-0,038
-411,613	120,176	0,101	0,092
-410,598	283,615	0,043	0,057
-409,584	789,755	0,068	0,138
-408,569	203,007	0,054	-0,062
-407,555	164,907	0,032	0,034
-406,540	-200,000	0,003	-0,032
-405,525	-4,054	0,109	0,055
-404,511	235,440	-0,037	-0,045
-403,496	168,735	-0,073	0,077
-402,482	333,551	-0,039	0,055
-401,467	91,511	0,069	0,057
-400,452	262,914	-0,041	0,052
-399,438	-108,755	-0,105	-0,016
-398,423	186,277	-0,065	-0,071
-397,409	-87,968	-0,074	-0,016
-396,394	546,310	0,077	-0,137
-395,379	178,240	0,123	0,132
-394,365	741,264	-0,027	-0,054
-393,350	800,000	0,037	0,078
-392,336	210,668	0,043	0,050
-391,321	189,343	-0,091	0,100
-390,306	66,504	-0,128	-0,095
-389,292	800,000	0,037	-0,100
-388,277	-100,317	0,050	0,009
-387,263	95,571	-0,072	0,060
-386,248	383,103	0,065	0,099
-385,233	29,075	0,058	0,036
-384,219	-200,000	0,003	0,048
-383,204	167,212	-0,058	-0,061
-382,190	739,593	0,027	0,054
-381,175	-200,000	0,001	-0,069
-380,160	243,114	-0,064	-0,078
-379,146	189,626	0,100	0,110
-378,131	800,000	-0,066	0,162
-377,117	-200,000	-0,042	0,145
-376,102	139,078	-0,075	-0,073
-375,088	149,673	-0,123	-0,122
-374,073	-28,729	0,056	-0,023
-373,058	-153,308	-0,069	-0,003
-372,044	-152,424	-0,063	-0,003
-371,029	122,424	0,045	0,042
-370,015	-200,000	-0,016	0,087
-369,000	-113,196	-0,084	0,012
-367,985	-40,818	-0,120	-0,046
-366,971	-200,000	0,054	0,000
-365,956	-140,452	0,064	0,005
-364,942	55,548	-0,015	0,011
-363,927	-39,263	0,093	-0,036
-362,912	-18,199	0,074	-0,034
-361,898	-200,000	-0,008	0,113
-360,883	-121,331	-0,153	-0,018
-359,869	172,831	-0,053	-0,056
-358,854	129,899	0,105	-0,099
-357,839	-170,339	0,096	-0,002
-356,825	419,265	0,029	0,046
-355,810	-4,895	-0,070	0,035
-354,796	-92,790	-0,047	0,010
-353,781	-168,558	-0,041	-0,001
-352,766	-87,901	0,008	-0,002
-351,752	-102,232	0,009	-0,002
-350,737	259,835	0,024	-0,030
-349,723	800,000	0,081	0,168
-348,708	20,453	-0,091	-0,054
-347,693	592,423	-0,088	-0,161
-346,679	154,061	0,018	-0,018
-345,664	-136,458	0,089	-0,007
-344,650	-52,858	0,046	-0,015
-343,635	-11,679	0,089	0,043
-342,620	-88,712	0,042	0,009
-341,606	659,715	0,033	-0,063
-340,591	388,197	-0,065	-0,098
-339,577	-56,342	-0,048	-0,016
-338,562	-138,096	0,066	0,005
-337,548	7,319	0,070	-0,038
-336,533	29,810	0,086	0,054
-335,518	-200,000	0,004	0,112
-334,504	-200,000	-0,006	0,130
-333,489	-200,000	-0,023	0,175
-332,475	800,000	0,056	-0,146
-331,460	800,000	-0,040	-0,083
-330,445	348,402	-0,075	0,108
-329,431	23,247	-0,025	-0,015
-328,416	3,973	-0,038	0,020
-327,402	-200,000	-0,011	0,065
-326,387	800,000	0,028	-0,080
-325,372	800,000	-0,045	-0,131
-324,358	-200,000	0,021	-0,117
-323,343	-120,340	0,180	-0,022
-322,329	-12,083	0,072	-0,034
-321,314	27,974	-0,095	-0,059
-320,299	-128,968	-0,111	0,011
-319,285	235,115	-0,054	0,065
-318,270	-200,000	0,014	0,056
-317,256	192,722	-0,062	0,068
-316,241	-135,988	-0,090	-0,008
-315,226	-100,269	0,126	0,023
-314,212	-57,777	0,053	0,017
-313,197	-62,828	-0,077	0,023
-312,183	-163,765	-0,054	0,002
-311,168	-200,000	-0,017	-0,061
-310,153	-94,525	-0,124	0,024
-309,139	-97,402	-0,153	-0,029
-308,124	-200,000	0,054	0,182
-307,110	531,644	0,039	-0,068
-306,095	-52,472	-0,081	0,027
-305,080	27,760	0,082	0,050
-304,066	-200,000	-0,007	-0,076
-303,051	-97,478	-0,020	0,004
-302,037	240,643	-0,137	-0,167
-301,022	531,673	-0,089	-0,155
-300,008	21,732	0,119	0,071
-298,993	54,511	-0,096	0,068
-297,978	-200,000	0,009	0,106
-296,964	-200,000	-0,043	0,170
-295,949	-103,432	-0,113	-0,019
-294,935	-124,303	0,146	0,016
-293,920	800,000	-0,036	0,086
-292,905	-200,000	0,002	-0,033
-291,891	800,000	-0,015	-0,047
-290,876	118,095	-0,094	-0,085
-289,862	800,000	-0,026	0,071
-288,847	693,845	0,073	-0,142
-287,832	-200,000	-0,021	-0,174
-286,818	-200,000	-0,007	-0,117
-285,803	382,383	-0,039	0,059
-284,789	80,732	0,118	0,093
-283,774	-200,000	-0,020	0,145
-282,759	64,718	-0,034	0,025
-281,745	-132,147	-0,061	0,006
-280,730	-101,225	0,068	-0,012
-279,716	436,291	-0,044	0,070
-278,701	560,509	0,061	0,109
-277,686	-66,302	0,065	-0,019
-276,672	32,534	-0,071	0,045
-275,657	-68,014	0,060	0,017
-274,643	30,997	-0,093	-0,058
-273,628	64,067	-0,051	-0,038
-272,613	145,094	0,086	-0,084
-271,599	-200,000	0,037	0,134
-270,584	-73,062	-0,110	-0,029
-269,570	-200,000	0,007	0,078
-268,555	29,370	0,066	0,041
-267,540	-200,000	0,005	0,058
-266,526	108,775	-0,149	-0,130
-265,511	-140,884	0,089	-0,007
-264,497	23,069	0,031	-0,018
-263,482	171,888	-0,035	-0,037
-262,467	479,374	0,053	0,089
-261,453	-200,000	-0,005	0,083
-260,438	778,999	0,048	-0,096
-259,424	146,639	0,044	-0,044
-258,409	-200,000	0,013	0,096
-257,395	800,000	-0,054	0,153
-256,380	317,736	0,085	0,118
-255,365	-21,294	-0,057	0,026
-254,351	18,169	0,103	0,060
-253,336	-200,000	0,002	0,037
-252,322	446,716	0,056	-0,091
-251,307	119,542	0,040	0,036
-250,292	-69,403	0,116	-0,032
-249,278	-132,812	0,074	0,007
-248,263	-159,320	0,063	0,003
-247,249	-200,000	0,007	0,028
-246,234	-88,010	0,129	0,028
-245,219	-200,000	-0,021	0,071
-244,205	-4,070	-0,092	0,047
-243,190	29,309	0,124	0,077
-242,176	102,791	0,132	0,113
-241,161	-36,489	-0,091	0,036
-240,146	15,203	0,109	0,062
-239,132	-200,000	0,005	-0,129
-238,117	195,244	-0,079	-0,088
-237,103	519,638	0,030	-0,051
-236,088	410,296	0,030	0,047
-235,073	21,401	-0,158	0,093
-234,059	800,000	0,071	0,152
-233,044	361,399	0,048	0,071
-232,030	800,000	0,036	0,075
-231,015	-200,000	0,017	0,104
-230,000	800,000	-0,018	-0,046
-228,986	-200,000	0,033	0,124
-227,971	308,939	0,060	0,082
-226,957	29,386	-0,035	-0,022
-225,942	-200,000	-0,030	0,194
-224,927	152,965	0,060	0,060
-223,913	-7,154	0,073	0,036
-222,898	305,831	0,031	0,042
-221,884	-9,641	0,137	-0,067
-220,869	779,839	-0,022	0,045
-219,855	141,753	0,058	0,056
-218,840	-200,000	0,007	0,097
-217,825	113,919	0,093	-0,082
-216,811	800,000	0,067	0,152
-215,796	487,913	-0,028	-0,047
-214,782	-73,066	-0,114	-0,030
-213,767	-6,150	0,140	0,070
-212,752	-49,875	0,166	-0,057
-211,738	-200,000	-0,053	-0,234
-210,723	-34,278	-0,042	0,017
-209,709	-200,000	-0,016	0,072
-208,694	-133,322	0,147	0,013
-207,679	188,507	0,008	0,009
-206,665	800,000	0,017	0,056
-205,650	134,007	-0,108	0,102
-204,636	475,982	0,098	0,162
-203,621	-200,000	0,008	0,033
-202,606	-7,924	-0,073	0,036
-201,592	39,382	-0,029	0,019
-200,577	-71,770	-0,060	0,016
-199,563	-117,475	-0,125	0,016
-198,548	800,000	0,047	0,114
-197,533	358,659	0,010	0,015
-196,519	575,875	-0,069	-0,123
-195,504	-37,812	-0,065	-0,025
-194,490	-122,042	0,060	-0,007
-193,475	-200,000	-0,008	0,067
-192,460	202,225	0,052	-0,059
-191,446	70,501	-0,062	0,047
-190,431	510,706	-0,045	0,077
-189,417	334,567	0,085	0,121
-188,402	800,000	0,024	-0,052
-187,387	-200,000	-0,008	-0,081
-186,373	10,451	-0,034	0,019
-185,358	78,114	0,114	-0,089
-184,344	104,481	-0,035	-0,030
-183,329	243,332	0,049	0,060
-182,315	6,441	0,091	0,049
-181,300	80,020	0,079	0,062
-180,285	39,987	-0,059	-0,038
-179,271	-22,622	-0,087	0,038
-178,256	245,775	0,007	-0,008
-177,242	119,483	0,049	0,044
-176,227	432,856	-0,097	-0,153
-175,212	96,981	0,103	0,086
-174,198	-152,858	-0,090	-0,005
-173,183	-48,539	-0,118	-0,041
-172,169	275,094	-0,080	-0,104
-171,154	-200,000	0,001	0,033
-170,139	588,907	0,020	0,036
-169,125	800,000	-0,031	-0,077
-168,110	560,590	-0,057	0,100
-167,096	-200,000	0,003	-0,064
-166,081	-178,274	-0,083	0,001
-165,066	-127,564	-0,031	0,003
-164,052	718,836	0,054	0,105
-163,037	800,000	0,019	0,048
-162,023	-200,000	0,012	0,045
-161,008	-39,134	0,037	-0,014
-159,993	800,000	-0,028	0,083
-158,979	800,000	-0,038	0,113
-157,964	98,503	-0,079	-0,066
-156,950	-200,000	-0,042	-0,177
-155,935	192,431	0,034	-0,038
-154,920	106,979	0,048	0,042
-153,906	-155,655	0,160	-0,007
-152,891	-98,360	-0,138	0,025
-151,877	-129,287	-0,191	0,019
-150,862	89,850	0,074	0,060
-149,847	-200,000	0,002	-0,083
-148,833	800,000	0,056	0,169
-147,818	649,671	-0,027	0,051
-146,804	-8,457	0,113	0,055
-145,789	25,775	0,120	0,072
-144,775	-181,180	0,194	-0,003
-143,760	153,557	-0,117	-0,117
-142,745	-200,000	0,027	-0,183
-141,731	-53,831	0,107	-0,035
-140,716	-200,000	0,004	0,078
-139,702	-100,124	0,088	0,016
-138,687	-200,000	-0,031	0,138
-137,672	-121,544	0,084	0,010
-136,658	800,000	0,037	-0,080
-135,643	-127,943	-0,023	0,002
-134,629	245,888	0,033	-0,040
-133,614	-45,768	0,052	0,019
-132,599	-145,267	0,144	0,009
-131,585	-39,613	0,074	0,028
-130,570	117,493	-0,049	-0,044
-129,556	-38,941	0,018	-0,007
-128,541	-49,518	0,093	-0,032
-127,526	800,000	0,028	-0,061
-126,512	60,173	-0,083	0,060
-125,497	-81,490	0,017	0,004
-124,483	249,797	-0,074	0,092
-123,468	656,141	0,064	-0,121
-122,453	-198,926	-0,151	-0,001
-121,439	-200,000	-0,029	-0,160
-120,424	-124,279	0,027	0,003
-119,410	800,000	-0,041	0,092
-118,395	95,698	0,175	0,145
-117,380	408,063	0,085	0,131
-116,366	-25,344	0,081	0,035
-115,351	800,000	-0,106	0,216
-114,337	611,507	-0,116	0,212
-113,322	82,932	0,034	0,027
-112,307	-100,104	0,085	0,015
-111,293	-65,620	0,082	0,024
-110,278	33,470	0,025	-0,015
-109,264	-97,810	-0,210	0,039
-108,249	251,592	-0,057	-0,070
-107,234	-151,517	0,022	0,001
-106,220	800,000	-0,027	-0,075
-105,205	-128,241	-0,078	-0,008
-104,191	-21,734	0,112	-0,049
-103,176	-16,232	0,099	0,046
-102,162	800,000	0,040	0,108
-101,147	-200,000	-0,002	0,214
-100,132	155,724	0,086	-0,086
-99,118	56,204	-0,030	0,021
-98,103	151,532	-0,047	0,047
-97,089	-61,569	0,125	-0,038
-96,074	-100,155	-0,073	-0,013
-95,059	-128,101	0,039	-0,004
-94,045	800,000	-0,008	0,020
-93,030	-118,285	0,104	-0,013
-92,016	-61,682	-0,130	-0,039
-91,001	-116,467	-0,194	0,026
-89,986	-46,252	0,132	0,047
-88,972	-74,954	0,115	0,030
-87,957	5,831	-0,087	-0,047
-86,943	128,362	0,063	0,058
-85,928	42,217	-0,112	-0,074
-84,913	-34,533	-0,056	-0,022
-83,899	-200,000	-0,003	-0,032
-82,884	177,695	0,068	0,072
-81,870	176,898	-0,009	-0,010
-80,855	-41,477	0,164	0,061
-79,840	322,399	-0,032	0,045
-78,826	523,156	-0,072	0,123
-77,811	-200,000	-0,020	0,077
-76,797	-71,292	-0,063	0,017
-75,782	-26,435	-0,092	-0,039
-74,767	-200,000	-0,015	-0,054
-73,753	-200,000	-0,027	-0,102
-72,738	104,969	-0,022	0,019
-71,724	800,000	-0,020	0,041
-70,709	-73,896	-0,072	-0,019
-69,694	78,835	0,023	-0,018
-68,680	800,000	-0,041	-0,083
-67,665	237,537	0,176	0,212
-66,651	-200,000	0,062	0,219
-65,636	-150,645	0,128	0,007
-64,622	800,000	-0,027	-0,069
-63,607	-60,150	-0,135	-0,042
-62,592	800,000	-0,033	0,080
-61,578	93,675	-0,012	0,009
-60,563	94,286	-0,131	0,108
-59,549	734,508	-0,013	0,025
-58,534	-119,064	-1,294	-0,163
-57,519	520,030	-0,845	-1,444
-56,505	-200,000	-0,948	-4,441
-55,490	46,271	0,589	-0,396
-54,476	800,000	4,839	11,816
-53,461	-200,000	13,485	253,257
-52,446	-200,000	689,380	2261,713
-51,432	592,191	1622,507	2920,080
-50,417	119,577	1635,109	1469,747
-49,403	73,370	1289,089	978,028
-48,388	38,114	1024,281	660,093
-47,373	24,373	981,935	587,604
-46,359	23,551	971,772	578,801
-45,344	22,596	967,240	572,959
-44,330	22,513	965,887	571,862
-43,315	22,405	964,491	570,662
-42,300	22,394	963,507	570,022
-41,286	22,367	962,587	569,367
-40,271	22,384	961,471	568,737
-39,257	22,415	960,645	568,329
-38,242	22,410	959,479	567,601
-37,227	22,382	958,830	567,103
-36,213	22,370	957,879	566,480
-35,198	22,330	957,242	565,951
-34,184	22,356	956,642	565,657
-33,169	22,366	955,499	564,992
-32,154	22,425	954,635	564,646
-31,140	22,411	953,780	564,076
-30,125	22,421	952,842	563,532
-29,111	22,434	952,009	563,057
-28,096	22,482	951,347	562,798
-27,082	22,371	951,032	562,231
-26,067	22,450	949,898	561,792
-25,052	22,455	949,470	561,535
-24,038	22,400	948,633	560,840
-23,023	22,399	948,061	560,476
-22,009	22,443	947,340	560,170
-20,994	22,477	946,864	559,973
-19,979	22,481	946,012	559,461
-18,965	22,460	945,510	559,075
-17,950	22,466	944,861	558,688
-16,936	22,410	944,142	558,062
-15,921	22,373	943,415	557,490
-14,906	22,335	942,732	556,945
-13,892	22,338	942,130	556,576
-12,877	22,337	941,498	556,177
-11,863	22,294	940,942	555,692
-10,848	22,365	940,248	555,484
-9,833	22,392	939,872	555,325
-8,819	22,394	939,282	554,961
-7,804	22,329	938,580	554,318
-6,790	22,316	938,040	553,937
-5,775	22,359	937,379	553,659
-4,760	22,339	936,706	553,177
-3,746	22,304	936,155	552,721
-2,731	22,154	935,646	551,922
-1,717	22,150	934,860	551,425
-0,702	22,105	934,318	550,941
0,313	21,987	933,608	550,983
1,327	24,937	931,434	558,929
2,342	34,369	796,123	502,866
3,356	32,454	451,355	282,186
4,371	1,662	293,135	152,601
5,386	-2,666	274,121	138,602
6,400	-4,390	268,238	134,020
7,415	-4,759	265,830	132,466
8,429	-4,507	264,611	132,077
9,444	-4,484	263,757	131,660
10,459	-4,424	263,073	131,361
11,473	-4,783	262,507	130,742
12,488	-4,629	261,973	130,603
13,502	-4,804	261,552	130,224
14,517	-4,747	261,140	130,059
15,531	-4,637	260,776	129,964
16,546	-4,716	260,346	129,668
17,561	-4,571	259,869	129,549
18,575	-4,270	259,597	129,671
19,590	-4,479	259,237	129,293
20,604	-4,561	258,962	129,071
21,619	-4,810	258,814	128,763
22,634	-4,756	258,424	128,606
23,648	-4,786	257,997	128,355
24,663	-4,776	257,877	128,293
25,677	-4,852	257,636	128,094
26,692	-4,823	257,308	127,945
27,707	-4,778	257,112	127,877
28,721	-4,706	256,827	127,788
29,736	-4,876	256,564	127,495
30,750	-4,979	256,376	127,299
31,765	-4,793	256,101	127,315
32,780	-4,817	256,033	127,249
33,794	-4,650	255,669	127,204
34,809	-4,796	255,448	126,954
35,823	-4,718	255,038	126,807
36,838	-4,772	254,889	126,674
37,853	-4,784	254,655	126,536
38,867	-4,933	254,511	126,322
39,882	-4,864	254,275	126,255
40,896	-4,876	253,993	126,093
41,911	-4,794	253,721	126,018
42,926	-4,967	253,440	125,717
43,940	-4,789	253,310	125,797
44,955	-4,893	252,999	125,540
45,969	-4,953	252,827	125,391
46,984	-5,145	252,688	125,144
47,999	-5,307	252,332	124,816
49,013	-5,514	252,089	124,505
50,028	-5,508	251,855	124,384
51,042	-5,668	251,517	124,067
52,057	-5,747	251,403	123,931
53,071	-5,397	251,133	124,089
54,086	-5,531	250,871	123,833
55,101	-5,477	250,882	123,874
56,115	-5,136	250,723	124,079
57,130	-4,680	250,586	124,393
58,144	-4,559	250,459	124,423
59,159	-4,518	250,229	124,333
60,174	-4,596	250,053	124,168
61,188	-4,718	249,849	123,951
62,203	-4,594	249,689	123,966
63,217	-4,615	249,491	123,839
64,232	-4,517	249,194	123,765
65,247	-4,826	249,079	123,432
66,261	-4,788	248,880	123,355
67,276	-4,896	248,526	123,076
68,290	-5,043	248,318	122,837
69,305	-5,303	248,046	122,470
70,320	-5,202	247,888	122,467
71,334	-4,953	247,614	122,532
72,349	-4,678	247,485	122,692
73,363	-4,766	247,476	122,601
74,378	-4,546	247,256	122,667
75,393	-4,900	246,999	122,229
76,407	-4,624	246,760	122,334
77,422	-4,770	246,623	122,131
78,436	-4,844	246,420	121,957
79,451	-4,649	246,216	122,010
80,466	-4,747	245,861	121,741
81,480	-5,037	245,704	121,408
82,495	-4,990	245,445	121,309
83,509	-4,856	245,377	121,377
84,524	-4,917	245,095	121,175
85,539	-5,118	244,904	120,901
86,553	-5,048	244,620	120,809
87,568	-4,813	244,506	120,939
88,582	-4,730	244,351	120,921
89,597	-5,072	244,179	120,539
90,611	-5,093	244,068	120,456
91,626	-4,805	244,030	120,667
92,641	-4,758	243,788	120,576
93,655	-4,800	243,478	120,377
94,670	-4,801	243,293	120,274
95,684	-4,721	243,079	120,224
96,699	-4,799	243,017	120,118
97,714	-4,712	242,622	119,984
98,728	-5,040	242,637	119,708
99,743	-5,178	242,350	119,441
100,757	-5,145	242,187	119,378
101,772	-5,093	242,126	119,380
102,787	-4,972	241,784	119,301
103,801	-4,993	241,722	119,242
104,816	-4,896	241,527	119,215
105,830	-4,948	241,459	119,128
106,845	-4,709	241,256	119,215
107,860	-4,801	240,938	118,971
108,874	-4,665	240,723	118,967
109,889	-4,968	240,760	118,725
110,903	-4,880	240,402	118,610
111,918	-5,033	240,254	118,401
112,933	-4,977	240,089	118,355
113,947	-4,920	239,981	118,338
114,962	-4,807	239,864	118,362
115,976	-4,767	239,546	118,227
116,991	-4,801	239,483	118,158
118,006	-4,887	239,318	117,996
119,020	-4,785	239,143	117,982
120,035	-4,712	239,020	117,971
121,049	-4,672	238,898	117,933
122,064	-4,682	238,692	117,813
123,079	-4,744	238,458	117,635
124,093	-4,866	238,284	117,440
125,108	-4,982	237,929	117,161
126,122	-5,214	237,899	116,946
127,137	-5,374	237,717	116,716
128,151	-5,283	237,493	116,670
129,166	-5,126	237,258	116,671
130,181	-5,314	237,132	116,447
131,195	-5,137	236,926	116,479
132,210	-5,089	236,949	116,518
133,224	-4,865	236,632	116,533
134,239	-4,823	236,525	116,504
135,254	-4,761	236,320	116,442
136,268	-4,959	236,092	116,160
137,283	-5,162	235,951	115,917
138,297	-5,290	235,623	115,642
139,312	-5,401	235,460	115,463
140,327	-5,149	235,434	115,642
141,341	-4,682	235,521	116,050
142,356	-4,562	235,448	116,101
143,370	-4,347	235,174	116,128
144,385	-4,439	234,992	115,954
145,400	-4,434	234,764	115,834
146,414	-4,385	234,560	115,762
147,429	-4,403	234,255	115,587
148,443	-4,322	234,164	115,597
149,458	-4,575	234,050	115,328
150,473	-4,421	233,834	115,334
151,487	-4,686	233,832	115,112
152,502	-4,706	233,703	115,022
153,516	-4,199	233,395	115,264
154,531	-4,407	233,265	115,024
155,546	-4,396	233,072	114,928
156,560	-4,671	232,952	114,639
157,575	-4,841	232,694	114,368
158,589	-4,672	232,500	114,396
159,604	-4,482	232,422	114,498
160,619	-4,263	232,313	114,608
161,633	-4,340	232,147	114,454
162,648	-4,314	231,993	114,389
163,662	-4,418	231,845	114,223
164,677	-4,688	231,701	113,929
165,692	-4,472	231,543	114,012
166,706	-4,324	231,299	113,998
167,721	-4,214	231,207	114,029
168,735	-4,332	231,126	113,886
169,750	-4,348	230,872	113,739
170,764	-4,293	230,736	113,704
171,779	-4,339	230,564	113,573
172,794	-4,281	230,534	113,594
173,808	-4,534	230,274	113,257
174,823	-4,900	229,865	112,759
175,837	-5,083	229,704	112,528
176,852	-4,660	229,795	112,893
177,867	-4,486	229,741	112,992
178,881	-4,635	229,557	112,775
179,896	-4,580	229,465	112,763
180,910	-4,307	229,207	112,839
181,925	-4,271	229,129	112,818
182,940	-4,442	229,039	112,631
183,954	-4,488	228,704	112,420
184,969	-4,471	228,722	112,432
185,983	-4,334	228,562	112,450
186,998	-4,272	228,402	112,410
188,013	-4,286	228,295	112,336
189,027	-4,303	227,981	112,158
190,042	-4,215	227,787	112,121
191,056	-4,370	227,731	111,964
192,071	-4,313	227,707	111,986
193,086	-4,430	227,399	111,734
194,100	-4,251	227,253	111,791
195,115	-4,719	226,932	111,262
196,129	-5,220	226,570	110,689
197,144	-2,560	227,330	113,103
198,159	1,047	228,470	116,452
199,173	3,797	229,031	118,857
200,188	4,400	229,133	119,366
201,202	4,327	228,946	119,201
202,217	4,533	228,943	119,348
203,232	4,587	228,838	119,325
204,246	4,808	228,701	119,413
205,261	4,980	228,537	119,450
206,275	4,750	228,515	119,250
207,290	5,020	228,389	119,382
208,304	4,910	228,197	119,186
209,319	4,842	227,978	119,008
210,334	4,901	227,805	118,953
211,348	4,559	227,568	118,556
212,363	4,117	227,300	118,067
213,377	3,992	226,984	117,797
214,392	3,817	226,967	117,644
215,407	4,014	226,696	117,643
216,421	4,167	226,685	117,744
217,436	3,900	226,569	117,469
218,450	3,713	226,354	117,205
219,465	3,780	226,028	117,076
220,480	3,919	226,004	117,159
221,494	3,959	225,808	117,078
222,509	3,919	225,650	116,955
223,523	3,962	225,513	116,906
224,538	3,945	225,451	116,851
225,553	3,989	225,258	116,774
226,567	3,965	225,300	116,767
227,582	4,319	225,034	116,887
228,596	4,200	224,997	116,767
229,611	4,101	224,743	116,550
230,626	3,927	224,494	116,279
231,640	4,042	224,447	116,331
232,655	4,405	224,264	116,500
233,669	4,360	224,414	116,533
234,684	4,537	224,175	116,533
235,699	4,499	223,918	116,360
236,713	4,250	223,752	116,076
237,728	3,888	223,590	115,709
238,742	3,826	223,351	115,528
239,757	3,905	223,214	115,507
240,772	3,850	223,129	115,411
241,786	3,859	222,947	115,314
242,801	3,834	223,047	115,336
243,815	4,342	222,835	115,597
244,830	4,453	222,630	115,563
245,844	4,017	222,424	115,120
246,859	4,008	222,368	115,074
247,874	4,206	222,180	115,114
248,888	4,360	222,085	115,170
249,903	4,255	221,853	114,962
250,917	3,907	221,816	114,672
251,932	3,821	221,596	114,484
252,947	3,922	221,306	114,399
253,961	4,029	221,195	114,411
254,976	3,991	221,129	114,339
255,990	4,271	221,009	114,474
257,005	4,214	220,929	114,380
258,020	4,337	220,758	114,373
259,034	4,325	220,718	114,333
260,049	4,323	220,483	114,199
261,063	4,335	220,302	114,105
262,078	4,396	220,228	114,101
263,093	4,440	220,118	114,066
264,107	4,246	220,023	113,864
265,122	4,301	219,824	113,791
266,136	4,446	219,718	113,833
267,151	4,559	219,531	113,809
268,166	4,013	219,396	113,327
269,180	3,498	219,066	112,768
270,195	3,821	219,074	113,000
271,209	3,987	218,880	113,011
272,224	4,092	218,670	112,970
273,239	3,810	218,703	112,770
274,253	3,912	218,622	112,793
275,268	3,926	218,175	112,562
276,282	3,586	218,013	112,220
277,297	3,872	217,830	112,325
278,312	3,731	217,867	112,230
279,326	3,959	217,708	112,306
280,341	3,978	217,541	112,223
281,355	4,422	217,298	112,411
282,370	4,270	217,183	112,231
283,384	3,901	217,122	111,921
284,399	3,570	217,021	111,618
285,414	3,818	216,732	111,639
286,428	4,078	216,631	111,766
287,443	4,197	216,584	111,818
288,457	4,169	216,539	111,765
289,472	4,227	216,228	111,637
290,487	3,544	216,017	111,024
291,501	3,466	216,061	110,980
292,516	3,660	215,902	111,028
293,530	3,911	215,765	111,129
294,545	3,793	215,629	110,964
295,560	3,944	215,526	111,011
296,574	3,894	215,355	110,876
297,589	3,968	215,162	110,820
298,603	4,063	215,191	110,894
299,618	4,031	214,959	110,742
300,633	3,823	214,915	110,559
301,647	4,336	214,674	110,794
302,662	4,287	214,682	110,753
303,676	4,314	214,526	110,682
304,691	4,091	214,376	110,435
305,706	4,155	214,208	110,384
306,720	4,365	214,113	110,476
307,735	4,365	213,867	110,339
308,749	3,755	213,801	109,859
309,764	4,153	213,611	110,036
310,779	4,393	213,606	110,195
311,793	4,420	213,274	110,033
312,808	4,302	213,215	109,909
313,822	4,211	212,892	109,668
314,837	4,047	212,840	109,515
315,852	4,007	212,635	109,371
316,866	3,900	212,636	109,286
317,881	4,440	212,467	109,572
318,895	4,280	212,298	109,362
319,910	4,122	212,199	109,189
320,925	3,720	211,988	108,786
321,939	3,590	211,821	108,599
322,954	3,807	211,759	108,711
323,968	3,986	211,717	108,807
324,983	4,062	211,606	108,793
325,997	4,538	211,412	109,020
327,012	4,088	211,367	108,669
328,027	3,966	211,294	108,536
329,041	4,366	211,141	108,729
330,056	4,514	210,914	108,707
331,070	3,924	210,744	108,194
332,085	3,763	210,522	107,958
333,100	3,771	210,457	107,921
334,114	4,055	210,242	108,000
335,129	4,185	210,106	108,012
336,143	3,933	210,063	107,804
337,158	4,061	209,832	107,765
338,173	4,178	209,855	107,849
339,187	3,852	209,789	107,577
340,202	3,693	209,446	107,280
341,216	3,876	209,278	107,313
342,231	4,035	209,156	107,352
343,246	4,011	209,115	107,304
344,260	3,892	208,965	107,135
345,275	3,725	208,874	106,962
346,289	4,108	208,775	107,168
347,304	4,251	208,644	107,191
348,319	4,045	208,499	106,964
349,333	4,125	208,392	106,955
350,348	4,178	208,179	106,873
351,362	4,491	208,106	107,043
352,377	4,335	207,951	106,846
353,392	3,702	207,829	106,335
354,406	4,258	207,773	106,682
355,421	194,642	1344,017	1435,254
356,435	155,320	1482,561	1435,375
