DTS Sentinel unit serial number:	SN410029Multiplexer serial number:	ORYXHardware model number:	OX2-SRSoftware version number:	ORYX F/W v4,00 Oryx Data Collector v3.7.2.0data status	okinstallation	B6 Nyhavnadifferential loss correction	single-endedforward channel	channel 2reverse channel	N/Adate	2023/12/11time	06:05:08forward acquisition time	300,00reverse acquisition time	0,00gamma	499,1914k internal	0,3127k external	0,3127temperature offset calibration	1,0000default loss term (dB/km)	0,3820temperature slope calibration	1,0000multiplexer offset coefficient	1,0000multiplexer slope coefficient	1,0000fibre end	0,00T internal ref (°C)	19,73T ext. ref 1 (°C)	2,88T ext. ref 2 (°C)	2,91length (m)	temperature (°C)	Stokes	anti-Stokes-744,400	-200,000	-0,025	-0,107
-743,385	-32,806	-0,166	-0,068
-742,371	-38,931	-0,028	-0,011
-741,356	207,189	-0,257	0,299
-740,342	-21,477	0,142	-0,064
-739,327	20,472	-0,170	0,102
-738,312	108,567	0,102	0,091
-737,298	-105,847	-0,164	0,027
-736,283	16,734	0,082	0,048
-735,269	-198,924	-0,278	-0,001
-734,254	-134,438	0,058	0,005
-733,239	-150,984	-0,483	-0,027
-732,225	-74,627	0,119	-0,032
-731,210	-57,253	-0,096	-0,031
-730,196	201,786	-0,096	0,110
-729,181	-200,000	-0,002	-0,020
-728,167	-67,190	0,006	0,002
-727,152	-11,425	0,113	-0,055
-726,137	17,943	-0,079	-0,047
-725,123	-200,000	0,021	0,089
-724,108	-3,388	-0,065	-0,034
-723,094	800,000	-0,047	-0,097
-722,079	-68,512	-0,209	0,060
-721,064	650,385	0,016	0,030
-720,050	-80,948	-0,121	0,030
-719,035	-12,530	-0,093	-0,045
-718,021	-5,270	-0,100	-0,051
-717,006	800,000	-0,039	-0,091
-715,991	-200,000	0,026	-0,123
-714,977	411,263	-0,040	-0,064
-713,962	175,749	-0,055	-0,060
-712,948	100,541	0,058	0,050
-711,933	408,572	-0,030	0,047
-710,918	-200,000	-0,022	-0,133
-709,904	-200,000	0,008	-0,031
-708,889	-200,000	-0,008	-0,088
-707,875	217,379	-0,067	-0,080
-706,860	-200,000	-0,021	-0,126
-705,845	-112,076	0,145	-0,021
-704,831	-135,342	0,166	-0,015
-703,816	-200,000	-0,148	0,000
-702,802	121,830	-0,064	-0,060
-701,787	-200,000	-0,003	-0,141
-700,772	800,000	-0,046	0,106
-699,758	380,776	-0,034	0,052
-698,743	-200,000	0,005	0,129
-697,729	-200,000	-0,001	-0,014
-696,714	19,375	0,007	-0,004
-695,699	-144,620	0,111	0,007
-694,685	122,028	0,094	-0,087
-693,670	-16,951	0,059	-0,028
-692,656	-200,000	-0,004	-0,037
-691,641	100,005	0,095	-0,082
-690,627	-13,242	0,025	0,012
-689,612	50,737	0,046	0,032
-688,597	185,244	-0,072	0,080
-687,583	20,567	-0,083	-0,050
-686,568	-200,000	-0,005	-0,165
-685,554	-96,476	0,102	-0,020
-684,539	123,090	-0,031	-0,029
-683,524	-200,000	-0,004	-0,074
-682,510	-92,670	0,058	-0,012
-681,495	-115,902	-0,063	-0,009
-680,481	-104,910	-0,161	-0,027
-679,466	41,346	-0,172	0,116
-678,451	-45,995	-0,006	-0,002
-677,437	237,126	-0,063	-0,078
-676,422	70,039	-0,039	0,030
-675,408	-163,264	0,078	0,003
-674,393	-43,080	-0,120	-0,045
-673,378	800,000	0,016	-0,045
-672,364	360,518	-0,084	-0,125
-671,349	763,320	0,079	-0,161
-670,335	-45,583	-0,057	0,021
-669,320	-200,000	0,024	0,139
-668,305	-200,000	0,005	-0,047
-667,291	-200,000	-0,001	-0,055
-666,276	-69,863	-0,168	0,047
-665,262	-200,000	0,005	-0,171
-664,247	-200,000	-0,027	-0,147
-663,232	751,041	0,022	-0,044
-662,218	-53,947	-0,144	-0,048
-661,203	489,559	-0,036	-0,062
-660,189	800,000	0,060	0,142
-659,174	-75,823	-0,169	-0,044
-658,159	-39,754	0,044	-0,017
-657,145	-200,000	0,024	0,097
-656,130	-200,000	-0,010	0,041
-655,116	295,428	-0,025	-0,034
-654,101	800,000	-0,029	-0,093
-653,086	-200,000	0,019	-0,109
-652,072	-160,261	0,041	0,002
-651,057	25,634	-0,092	-0,057
-650,043	6,786	0,052	-0,029
-649,028	-200,000	0,030	-0,149
-648,014	800,000	-0,025	0,058
-646,999	145,102	0,090	0,089
-645,984	-152,935	0,128	0,007
-644,970	-59,102	-0,062	-0,020
-643,955	-83,175	0,037	-0,009
-642,941	-61,650	-0,081	0,025
-641,926	800,000	0,026	-0,060
-640,911	-200,000	-0,040	0,131
-639,897	-10,372	0,157	-0,077
-638,882	-45,959	-0,152	0,055
-637,868	-106,507	0,040	0,007
-636,853	-130,056	-0,240	-0,024
-635,838	276,204	0,056	-0,074
-634,824	-158,289	-0,073	-0,003
-633,809	121,618	0,087	0,080
-632,795	-102,917	-0,040	0,007
-631,780	-200,000	0,002	0,039
-630,765	-200,000	-0,008	-0,076
-629,751	-11,284	-0,104	-0,051
-628,736	242,790	0,051	0,063
-627,722	-200,000	0,032	-0,106
-626,707	800,000	0,062	-0,137
-625,692	-126,999	-0,010	-0,001
-624,678	-200,000	0,022	0,170
-623,663	-120,154	-0,130	0,016
-622,649	-156,012	0,133	-0,006
-621,634	131,929	-0,052	-0,050
-620,619	600,855	-0,035	0,065
-619,605	800,000	0,015	0,032
-618,590	126,888	0,107	-0,101
-617,576	101,175	-0,121	0,104
-616,561	-200,000	-0,002	-0,028
-615,546	-200,000	-0,007	-0,042
-614,532	-190,873	-0,074	0,001
-613,517	-30,145	0,069	-0,029
-612,503	-200,000	0,007	0,083
-611,488	-110,664	0,022	0,003
-610,474	-45,629	0,094	0,034
-609,459	143,527	0,162	-0,160
-608,444	-105,066	0,059	-0,010
-607,430	800,000	-0,033	0,076
-606,415	800,000	0,038	-0,085
-605,401	73,135	0,030	-0,023
-604,386	457,540	-0,037	0,062
-603,371	-37,604	-0,173	0,068
-602,357	800,000	0,071	0,153
-601,342	-158,052	-0,142	-0,006
-600,328	-128,068	0,082	0,009
-599,313	223,162	-0,061	-0,072
-598,298	-162,541	0,106	0,004
-597,284	272,845	-0,054	0,071
-596,269	-200,000	0,015	-0,072
-595,255	104,698	-0,020	0,017
-594,240	800,000	0,011	-0,025
-593,225	-200,000	-0,003	-0,025
-592,211	-200,000	-0,015	-0,086
-591,196	-69,919	-0,024	-0,007
-590,182	-200,000	0,003	-0,032
-589,167	-29,562	0,094	0,039
-588,152	98,607	-0,087	-0,074
-587,138	37,102	0,073	-0,048
-586,123	800,000	0,038	0,121
-585,109	-200,000	-0,019	-0,086
-584,094	-33,287	0,126	0,051
-583,079	110,034	0,101	0,090
-582,065	-200,000	0,032	0,140
-581,050	-19,748	0,083	0,038
-580,036	-200,000	-0,001	0,007
-579,021	21,399	0,080	-0,048
-578,006	-200,000	0,002	-0,140
-576,992	-200,000	0,024	0,094
-575,977	-67,942	-0,082	-0,024
-574,963	-21,390	-0,125	0,056
-573,948	-200,000	0,025	0,087
-572,934	-200,000	0,021	0,145
-571,919	157,964	-0,133	-0,136
-570,904	800,000	0,004	0,008
-569,890	213,308	-0,100	0,117
-568,875	173,517	0,026	-0,028
-567,861	-43,010	-0,075	-0,028
-566,846	76,998	0,095	-0,075
-565,831	-200,000	0,031	0,151
-564,817	-132,882	-0,116	-0,011
-563,802	800,000	-0,037	0,080
-562,788	-0,164	0,125	-0,066
-561,773	-3,888	0,074	-0,038
-560,758	-200,000	0,018	0,175
-559,744	-200,000	-0,009	-0,052
-558,729	99,263	0,121	0,103
-557,715	134,469	-0,068	0,065
-556,700	800,000	-0,050	0,116
-555,685	-103,950	-0,118	-0,020
-554,671	-200,000	0,045	-0,206
-553,656	-6,072	0,087	-0,044
-552,642	-200,000	0,010	0,048
-551,627	-94,820	-0,105	-0,021
-550,612	-154,523	-0,020	-0,001
-549,598	-80,424	-0,106	-0,026
-548,583	32,403	-0,067	-0,042
-547,569	226,016	0,058	-0,070
-546,554	223,528	-0,042	0,050
-545,539	136,640	-0,080	-0,078
-544,525	142,608	0,039	-0,038
-543,510	67,092	-0,068	-0,051
-542,496	-98,198	-0,064	-0,012
-541,481	-87,018	-0,041	-0,009
-540,466	120,177	-0,116	0,106
-539,452	68,145	0,114	-0,086
-538,437	205,076	0,088	0,101
-537,423	-200,000	-0,032	0,121
-536,408	-92,273	0,059	0,012
-535,393	-200,000	0,002	-0,086
-534,379	800,000	0,032	-0,076
-533,364	751,891	0,060	0,120
-532,350	-200,000	0,003	0,036
-531,335	800,000	0,014	0,038
-530,321	-200,000	0,019	-0,087
-529,306	171,258	-0,093	-0,099
-528,291	800,000	-0,047	-0,144
-527,277	-82,347	-0,067	0,016
-526,262	30,980	-0,116	0,073
-525,248	-113,472	0,124	-0,018
-524,233	-200,000	-0,019	0,163
-523,218	800,000	-0,028	0,087
-522,204	-24,070	-0,118	-0,052
-521,189	734,000	0,029	0,059
-520,175	194,731	0,034	-0,038
-519,160	800,000	0,007	0,015
-518,145	-87,338	0,082	0,018
-517,131	254,358	-0,063	-0,079
-516,116	595,512	-0,020	0,037
-515,102	643,985	0,041	0,078
-514,087	-200,000	0,010	-0,134
-513,072	182,971	-0,135	-0,147
-512,058	51,011	-0,010	0,007
-511,043	-142,598	0,161	0,011
-510,029	-200,000	-0,005	-0,130
-509,014	-200,000	-0,019	0,089
-507,999	-122,168	-0,109	0,013
-506,985	758,931	-0,044	0,089
-505,970	334,705	-0,040	0,058
-504,956	800,000	0,036	-0,076
-503,941	-143,539	-0,053	-0,004
-502,926	-200,000	-0,019	0,073
-501,912	-200,000	0,016	-0,094
-500,897	-127,275	0,068	0,007
-499,883	339,431	-0,046	0,067
-498,868	-200,000	0,019	-0,075
-497,853	-61,702	-0,040	-0,012
-496,839	397,043	-0,048	0,074
-495,824	-42,928	0,048	0,018
-494,810	-200,000	-0,036	0,159
-493,795	77,494	0,117	0,092
-492,781	69,512	-0,061	0,046
-491,766	-200,000	-0,010	-0,132
-490,751	800,000	-0,055	-0,123
-489,737	27,073	0,100	0,062
-488,722	-200,000	0,008	0,121
-487,708	291,064	-0,047	0,063
-486,693	-54,226	0,051	-0,017
-485,678	-14,678	0,042	0,020
-484,664	-112,880	-0,045	-0,006
-483,649	124,808	0,069	0,064
-482,635	-42,829	-0,039	0,015
-481,620	739,094	0,056	0,111
-480,605	800,000	0,066	0,172
-479,591	587,523	0,100	0,182
-478,576	142,013	0,043	0,042
-477,562	-19,497	-0,199	-0,090
-476,547	-136,255	0,062	-0,005
-475,532	-200,000	0,001	-0,045
-474,518	75,659	0,079	0,061
-473,503	-90,350	0,172	0,036
-472,489	-200,000	-0,008	-0,198
-471,474	394,319	-0,025	-0,038
-470,459	-166,324	-0,053	-0,002
-469,445	-200,000	-0,040	-0,204
-468,430	-137,795	-0,057	-0,005
-467,416	82,385	0,062	0,050
-466,401	24,812	-0,107	0,065
-465,386	9,936	-0,066	0,037
-464,372	306,487	0,086	-0,118
-463,357	800,000	0,046	-0,108
-462,343	-200,000	0,021	-0,081
-461,328	-200,000	0,006	0,021
-460,313	-155,756	0,038	0,002
-459,299	-64,809	0,105	0,031
-458,284	312,678	-0,077	-0,106
-457,270	90,481	-0,007	-0,006
-456,255	374,165	-0,042	0,063
-455,241	800,000	0,044	-0,113
-454,226	-92,894	0,152	-0,031
-453,211	-28,689	0,057	0,024
-452,197	-122,633	-0,083	0,010
-451,182	-58,493	0,093	-0,029
-450,168	-105,520	0,114	0,019
-449,153	447,863	-0,024	-0,039
-448,138	403,714	0,022	-0,034
-447,124	-41,913	0,101	0,038
-446,109	541,477	0,039	-0,069
-445,095	492,432	-0,051	0,086
-444,080	189,908	0,073	0,080
-443,065	206,442	0,055	-0,063
-442,051	623,489	-0,047	-0,087
-441,036	-17,604	-0,024	0,011
-440,022	7,075	-0,069	0,038
-439,007	800,000	0,028	0,081
-437,992	800,000	0,025	-0,075
-436,978	-200,000	-0,002	0,040
-435,963	339,592	-0,078	0,112
-434,949	-200,000	0,028	0,147
-433,934	519,962	0,046	-0,079
-432,919	-88,522	-0,095	0,021
-431,905	193,659	-0,065	0,073
-430,890	-58,183	-0,050	0,016
-429,876	270,497	0,059	0,077
-428,861	-98,669	-0,081	-0,015
-427,846	-63,120	-0,016	0,005
-426,832	800,000	0,007	0,018
-425,817	342,685	0,020	0,029
-424,803	796,566	-0,041	-0,083
-423,788	552,553	0,034	-0,060
-422,773	-116,268	-0,063	-0,009
-421,759	-127,413	-0,096	-0,010
-420,744	4,920	-0,153	-0,082
-419,730	-200,000	0,046	-0,171
-418,715	800,000	0,060	-0,127
-417,701	-50,429	-0,041	-0,014
-416,686	-74,991	-0,064	0,017
-415,671	-92,136	0,055	0,011
-414,657	800,000	0,021	-0,056
-413,642	-24,039	-0,113	-0,050
-412,628	555,551	-0,065	0,115
-411,613	800,000	-0,032	-0,066
-410,598	93,575	0,034	-0,028
-409,584	175,577	-0,086	0,092
-408,569	277,247	0,031	0,041
-407,555	-34,452	0,129	0,052
-406,540	800,000	-0,010	-0,028
-405,525	72,969	0,057	-0,044
-404,511	-200,000	-0,001	0,065
-403,496	800,000	-0,022	-0,060
-402,482	-119,967	-0,137	-0,017
-401,467	183,137	0,132	-0,144
-400,452	800,000	-0,094	0,196
-399,438	434,673	-0,108	0,173
-398,423	-173,105	0,102	0,002
-397,409	-24,402	-0,124	0,054
-396,394	619,139	0,028	-0,051
-395,379	-80,604	-0,106	-0,026
-394,365	497,632	-0,012	0,020
-393,350	-39,163	-0,030	0,011
-392,336	128,275	0,029	-0,027
-391,321	-93,583	-0,075	-0,015
-390,306	-200,000	0,009	-0,068
-389,292	235,416	0,071	-0,086
-388,277	-200,000	-0,033	0,115
-387,263	688,674	-0,058	-0,112
-386,248	152,960	0,026	0,027
-385,233	800,000	-0,009	0,024
-384,219	-200,000	-0,005	0,034
-383,204	610,524	-0,062	-0,114
-382,190	-56,213	0,050	0,016
-381,175	-200,000	-0,001	-0,031
-380,160	25,362	0,050	0,030
-379,146	137,655	0,017	0,016
-378,131	47,949	-0,086	0,059
-377,117	-105,007	-0,010	-0,002
-376,102	-80,577	-0,068	-0,017
-375,088	338,919	-0,054	-0,077
-374,073	11,386	0,031	0,017
-373,058	371,697	-0,049	0,074
-372,044	-71,862	0,154	-0,042
-371,029	70,517	-0,042	-0,032
-370,015	64,699	0,060	0,044
-369,000	293,020	-0,035	0,047
-367,985	377,427	-0,025	0,037
-366,971	-118,178	0,061	-0,008
-365,956	-200,000	0,002	-0,093
-364,942	-87,499	-0,078	-0,017
-363,927	76,133	0,116	0,090
-362,912	-46,984	0,101	0,036
-361,898	185,727	-0,119	-0,130
-360,883	-140,780	-0,125	0,009
-359,869	113,254	0,052	0,046
-358,854	-200,000	0,023	-0,142
-357,839	-200,000	0,008	-0,091
-356,825	-3,578	-0,063	-0,032
-355,810	-165,638	-0,039	-0,001
-354,796	-199,077	-0,090	0,000
-353,781	-81,239	-0,035	-0,008
-352,766	-41,283	0,030	0,011
-351,752	-132,858	-0,090	0,008
-350,737	-61,630	0,091	-0,028
-349,723	-39,615	0,067	0,025
-348,708	-65,318	-0,109	0,032
-347,693	62,454	0,063	-0,046
-346,679	-200,000	0,005	-0,054
-345,664	-200,000	-0,016	0,107
-344,650	133,511	0,050	0,047
-343,635	-200,000	0,125	-0,000
-342,620	-200,000	-0,010	0,042
-341,606	411,201	-0,036	0,055
-340,591	176,673	-0,078	0,083
-339,577	304,498	-0,034	-0,046
-338,562	333,490	-0,016	0,023
-337,548	-112,993	-0,056	0,008
-336,533	-200,000	0,021	-0,068
-335,518	384,216	0,069	-0,105
-334,504	-118,248	0,146	0,019
-333,489	-200,000	0,054	-0,226
-332,475	-200,000	-0,027	-0,123
-331,460	-200,000	-0,011	-0,061
-330,445	-146,951	0,040	-0,002
-329,431	-26,200	0,023	0,010
-328,416	-200,000	-0,005	0,037
-327,402	-200,000	0,021	-0,069
-326,387	-200,000	0,004	-0,083
-325,372	-200,000	0,022	-0,111
-324,358	80,234	-0,043	-0,034
-323,343	-200,000	0,012	-0,050
-322,329	-135,411	0,090	0,008
-321,314	121,294	0,115	-0,105
-320,299	-81,355	0,086	0,021
-319,285	12,032	-0,071	0,040
-318,270	-200,000	-0,003	-0,048
-317,256	-200,000	-0,023	-0,096
-316,241	180,778	0,078	0,084
-315,226	726,998	-0,022	-0,042
-314,212	-23,217	0,040	-0,018
-313,197	6,843	-0,081	0,044
-312,183	-200,000	-0,012	-0,042
-311,168	-200,000	0,004	0,045
-310,153	379,005	-0,026	0,039
-309,139	-79,757	-0,124	-0,030
-308,124	800,000	0,019	0,054
-307,110	-95,232	0,099	-0,019
-306,095	-200,000	0,020	-0,110
-305,080	630,734	0,067	-0,124
-304,066	-19,997	0,082	-0,037
-303,051	21,489	-0,066	-0,039
-302,037	-30,949	-0,053	0,022
-301,022	597,704	0,064	-0,116
-300,008	-191,018	-0,047	0,000
-298,993	33,177	-0,066	0,042
-297,978	-200,000	0,016	-0,165
-296,964	-93,721	-0,049	0,010
-295,949	78,941	0,038	0,030
-294,935	561,823	-0,050	-0,089
-293,920	-105,063	0,116	0,019
-292,905	-200,000	0,007	0,126
-291,891	-12,927	0,086	0,041
-290,876	554,505	0,048	-0,085
-289,862	110,729	-0,039	0,035
-288,847	800,000	0,034	0,087
-287,832	6,017	-0,190	-0,103
-286,818	-200,000	0,008	-0,152
-285,803	125,663	0,048	-0,045
-284,789	800,000	-0,044	0,096
-283,774	99,134	0,057	-0,048
-282,759	80,783	-0,081	0,064
-281,745	-200,000	0,002	-0,058
-280,730	751,232	-0,055	-0,108
-279,716	554,066	0,030	-0,053
-278,701	128,928	-0,059	0,055
-277,686	-41,579	0,033	0,012
-276,672	426,864	0,117	0,185
-275,657	-200,000	0,009	0,044
-274,643	-149,069	-0,185	0,011
-273,628	-200,000	-0,001	-0,071
-272,613	-5,144	0,048	0,024
-271,599	136,514	0,038	-0,037
-270,584	5,294	0,058	0,031
-269,570	70,045	-0,068	0,051
-268,555	-3,708	0,023	-0,012
-267,540	-200,000	0,021	-0,108
-266,526	79,405	0,096	-0,076
-265,511	65,150	-0,118	-0,087
-264,497	188,309	0,034	-0,037
-263,482	-148,916	0,062	0,004
-262,467	175,045	-0,089	-0,094
-261,453	-123,077	-0,140	0,016
-260,438	463,924	-0,044	-0,072
-259,424	-13,676	-0,145	-0,068
-258,409	800,000	0,036	-0,087
-257,395	800,000	0,017	0,046
-256,380	-200,000	-0,001	0,138
-255,365	800,000	-0,012	-0,033
-254,351	-6,420	0,162	0,081
-253,336	-200,000	-0,005	0,040
-252,322	-58,644	-0,123	-0,039
-251,307	-7,008	-0,127	0,063
-250,292	-200,000	0,056	0,213
-249,278	26,401	0,079	0,048
-248,263	-156,565	0,168	-0,007
-247,249	-200,000	0,038	0,128
-246,234	208,056	-0,021	0,024
-245,219	-130,372	-0,099	-0,010
-244,205	-59,558	-0,102	0,032
-243,190	8,703	-0,088	0,049
-242,176	-43,946	0,106	0,039
-241,161	-200,000	-0,008	0,040
-240,146	-86,561	0,113	0,025
-239,132	-66,003	0,014	-0,004
-238,117	29,278	-0,061	0,038
-237,103	71,222	-0,015	-0,011
-236,088	-50,906	0,028	0,009
-235,073	286,974	0,050	-0,066
-234,059	239,216	-0,032	0,039
-233,044	681,503	-0,047	0,089
-232,030	-99,516	-0,055	-0,010
-231,015	-24,091	0,096	0,042
-230,000	800,000	0,050	0,124
-228,986	-35,231	-0,105	-0,041
-227,971	168,675	0,040	0,042
-226,957	-162,734	0,038	0,001
-225,942	-200,000	-0,003	-0,048
-224,927	766,328	-0,010	0,019
-223,913	-6,185	0,038	-0,019
-222,898	-29,750	0,054	0,022
-221,884	538,206	0,062	-0,108
-220,869	66,835	-0,060	0,044
-219,855	-70,370	-0,098	-0,027
-218,840	800,000	0,083	0,200
-217,825	-2,474	-0,118	0,060
-216,811	800,000	-0,007	-0,019
-215,796	-79,822	0,146	-0,036
-214,782	-200,000	-0,015	-0,073
-213,767	-54,772	-0,133	0,043
-212,752	-200,000	0,030	0,143
-211,738	228,024	-0,051	0,061
-210,723	158,893	-0,025	0,026
-209,709	-142,179	-0,150	-0,011
-208,694	87,399	-0,049	-0,040
-207,679	196,760	0,029	-0,032
-206,665	-13,268	0,083	-0,039
-205,650	-8,456	-0,146	0,071
-204,636	-78,310	0,128	-0,032
-203,621	38,560	-0,051	-0,033
-202,606	85,781	-0,105	0,084
-201,592	800,000	0,014	0,033
-200,577	-22,177	0,099	0,044
-199,563	-175,610	0,050	0,001
-198,548	-200,000	-0,017	0,126
-197,533	-44,469	0,176	-0,064
-196,519	-200,000	-0,008	-0,124
-195,504	89,314	-0,045	-0,036
-194,490	48,074	0,126	0,086
-193,475	-100,455	-0,064	-0,011
-192,460	-200,000	0,021	0,100
-191,446	-52,433	-0,042	-0,014
-190,431	-200,000	0,031	0,198
-189,417	-86,158	0,042	0,009
-188,402	138,902	0,054	0,051
-187,387	-200,000	0,001	0,013
-186,373	-3,856	0,172	-0,087
-185,358	-47,408	0,081	-0,028
-184,344	26,848	-0,048	-0,029
-183,329	-200,000	0,010	0,141
-182,315	-30,098	0,090	0,037
-181,300	800,000	-0,020	-0,059
-180,285	800,000	-0,073	0,155
-179,271	97,657	0,070	0,059
-178,256	-13,928	0,125	-0,059
-177,242	393,031	0,053	0,081
-176,227	266,905	0,062	0,079
-175,212	-200,000	-0,017	-0,054
-174,198	60,183	0,095	-0,069
-173,183	271,613	-0,082	-0,105
-172,169	280,538	-0,054	-0,070
-171,154	316,077	-0,083	-0,114
-170,139	-124,794	0,086	-0,010
-169,125	50,357	0,044	0,031
-168,110	-200,000	0,035	0,117
-167,096	262,011	-0,083	0,105
-166,081	377,150	-0,034	-0,050
-165,066	-64,933	-0,095	0,028
-164,052	-200,000	-0,009	0,041
-163,037	781,325	-0,017	0,033
-162,023	-173,924	-0,076	-0,002
-161,008	-66,582	-0,098	0,028
-159,993	-114,075	-0,015	-0,002
-158,979	-200,000	-0,018	-0,080
-157,964	-200,000	0,034	-0,123
-156,950	-192,481	-0,096	0,001
-155,935	76,320	0,101	-0,078
-154,920	-200,000	0,007	-0,095
-153,906	12,754	0,149	-0,084
-152,891	-200,000	0,001	0,049
-151,877	800,000	0,039	0,104
-150,862	800,000	0,010	-0,023
-149,847	512,748	-0,037	-0,062
-148,833	-200,000	0,010	-0,083
-147,818	-119,731	0,196	0,024
-146,804	54,891	-0,031	0,022
-145,789	800,000	0,026	0,077
-144,775	-137,495	-0,076	-0,006
-143,760	49,483	-0,119	0,082
-142,745	-200,000	0,019	0,181
-141,731	-200,000	-0,063	0,230
-140,716	-200,000	-0,050	0,165
-139,702	68,856	-0,051	-0,038
-138,687	309,950	-0,090	-0,122
-137,672	103,140	-0,087	-0,074
-136,658	77,292	0,035	0,027
-135,643	180,614	-0,029	0,031
-134,629	-13,800	-0,037	0,017
-133,614	-130,942	0,048	-0,005
-132,599	11,046	0,078	0,043
-131,585	-184,075	0,044	-0,001
-130,570	800,000	0,025	0,075
-129,556	-200,000	-0,017	-0,106
-128,541	-200,000	-0,014	-0,053
-127,526	-200,000	-0,027	0,093
-126,512	74,146	0,053	0,040
-125,497	800,000	0,043	0,134
-124,483	230,187	0,018	0,021
-123,468	800,000	0,045	-0,116
-122,453	439,574	0,016	0,026
-121,439	800,000	-0,063	0,149
-120,424	-34,998	-0,024	0,010
-119,410	376,305	-0,023	0,034
-118,395	-150,407	-0,138	-0,008
-117,380	-19,617	-0,051	-0,023
-116,366	96,948	-0,092	-0,076
-115,351	148,308	0,080	0,079
-114,337	47,828	-0,098	-0,066
-113,322	-50,105	0,026	-0,009
-112,307	-47,620	0,018	0,006
-111,293	356,010	-0,071	0,104
-110,278	78,298	-0,125	-0,097
-109,264	-52,702	-0,118	-0,039
-108,249	31,357	0,110	-0,068
-107,234	68,600	0,049	0,036
-106,220	370,808	-0,095	-0,141
-105,205	-200,000	0,005	-0,073
-104,191	441,907	0,018	-0,029
-103,176	800,000	0,020	-0,062
-102,162	-27,324	-0,113	0,048
-101,147	-136,890	-0,012	0,001
-100,132	-200,000	0,033	-0,127
-99,118	-200,000	0,004	-0,062
-98,103	-200,000	0,016	0,088
-97,089	-129,410	0,142	-0,014
-96,074	-151,583	0,070	-0,004
-95,059	-200,000	-0,005	-0,070
-94,045	-92,117	-0,041	-0,008
-93,030	-84,907	-0,039	-0,009
-92,016	599,382	-0,103	-0,186
-91,001	87,057	0,120	0,096
-89,986	-200,000	0,041	-0,145
-88,972	-59,082	0,188	-0,059
-87,957	-86,366	0,098	-0,022
-86,943	245,921	0,033	-0,041
-85,928	-200,000	-0,001	0,007
-84,913	45,998	0,087	-0,058
-83,899	-200,000	-0,015	0,105
-82,884	22,937	-0,183	0,109
-81,870	800,000	-0,056	0,114
-80,855	46,136	0,019	-0,013
-79,840	-200,000	-0,009	0,072
-78,826	390,102	0,043	-0,066
-77,811	-135,327	-0,055	0,005
-76,797	-99,866	0,082	0,015
-75,782	160,690	-0,063	-0,064
-74,767	-107,240	0,019	0,003
-73,753	-8,917	-0,062	-0,030
-72,738	494,014	0,100	0,167
-71,724	-63,123	-0,164	-0,049
-70,709	106,004	-0,066	-0,056
-69,694	466,128	0,080	0,131
-68,680	39,410	0,062	-0,040
-67,665	80,969	0,041	-0,032
-66,651	-200,000	-0,005	-0,116
-65,636	63,508	-0,076	0,055
-64,622	-78,967	-0,179	0,044
-63,607	607,752	0,044	-0,079
-62,592	200,516	-0,032	0,036
-61,578	-32,106	-0,013	-0,005
-60,563	443,299	0,052	0,083
-59,549	-200,000	0,006	0,051
-58,534	-56,858	-1,530	-0,487
-57,519	800,000	-0,545	-1,360
-56,505	-200,000	-1,071	-4,658
-55,490	-132,013	0,576	-0,054
-54,476	800,000	5,219	12,133
-53,461	-200,000	15,094	266,815
-52,446	-200,000	695,009	2231,183
-51,432	573,451	1616,215	2867,783
-50,417	121,124	1626,932	1467,627
-49,403	82,165	1284,283	1008,322
-48,388	37,759	1024,425	658,046
-47,373	22,397	984,947	582,004
-46,359	21,441	973,962	572,346
-45,344	19,992	969,798	565,122
-44,330	20,004	968,559	564,417
-43,315	19,801	966,896	562,762
-42,300	19,828	965,723	562,146
-41,286	19,771	964,780	561,388
-40,271	19,796	963,921	560,947
-39,257	19,761	963,213	560,399
-38,242	19,769	962,265	559,850
-37,227	19,775	961,490	559,397
-36,213	19,758	960,544	558,769
-35,198	19,717	959,672	558,108
-34,184	19,857	958,921	558,103
-33,169	19,676	958,023	556,971
-32,154	19,841	957,016	556,899
-31,140	19,804	956,145	556,251
-30,125	19,782	955,511	555,788
-29,111	19,811	954,544	555,296
-28,096	19,832	953,852	554,938
-27,082	19,761	953,308	554,372
-26,067	19,730	952,576	553,825
-25,052	19,751	951,762	553,397
-24,038	19,788	951,116	553,117
-23,023	19,764	950,316	552,553
-22,009	19,726	949,719	552,062
-20,994	19,772	949,127	551,845
-19,979	19,753	948,609	551,462
-18,965	19,731	948,067	551,054
-17,950	19,740	947,299	550,613
-16,936	19,689	946,696	550,076
-15,921	19,727	945,886	549,707
-14,906	19,692	945,199	549,174
-13,892	19,685	944,609	548,787
-12,877	19,644	944,028	548,296
-11,863	19,619	943,322	547,784
-10,848	19,629	942,883	547,542
-9,833	19,713	942,509	547,568
-8,819	19,674	941,841	547,034
-7,804	19,627	941,180	546,480
-6,790	19,670	940,514	546,207
-5,775	19,647	939,948	545,786
-4,760	19,642	939,354	545,402
-3,746	19,707	938,398	545,032
-2,731	19,463	937,963	543,985
-1,717	19,533	937,163	543,719
-0,702	19,531	936,496	543,305
0,313	19,274	936,128	543,099
1,327	22,363	934,051	551,601
2,342	31,581	794,098	493,493
3,356	28,978	448,987	275,089
4,371	-1,504	294,016	149,642
5,386	-5,486	275,216	136,284
6,400	-7,092	269,716	132,053
7,415	-7,414	267,289	130,556
8,429	-7,083	266,095	130,265
9,444	-7,026	265,413	129,972
10,459	-6,942	264,584	129,632
11,473	-7,176	264,052	129,146
12,488	-7,286	263,608	128,816
13,502	-7,189	263,000	128,596
14,517	-7,148	262,601	128,427
15,531	-6,880	262,209	128,467
16,546	-6,835	261,833	128,311
17,561	-7,107	261,607	127,943
18,575	-6,877	261,249	127,965
19,590	-7,046	260,893	127,627
20,604	-6,925	260,792	127,674
21,619	-7,126	260,450	127,315
22,634	-7,020	259,834	127,097
23,648	-7,215	259,657	126,825
24,663	-6,970	259,417	126,916
25,677	-6,924	259,372	126,924
26,692	-6,924	258,940	126,700
27,707	-6,881	258,667	126,594
28,721	-6,913	258,327	126,389
29,736	-7,245	258,299	126,068
30,750	-7,099	258,005	126,043
31,765	-7,098	257,727	125,897
32,780	-6,955	257,338	125,822
33,794	-6,899	257,193	125,790
34,809	-7,138	257,056	125,500
35,823	-7,114	256,809	125,389
36,838	-7,100	256,563	125,270
37,853	-7,132	256,245	125,076
38,867	-7,098	256,033	124,991
39,882	-6,998	255,781	124,945
40,896	-7,020	255,537	124,796
41,911	-7,213	255,592	124,641
42,926	-7,182	255,138	124,436
43,940	-7,095	254,849	124,360
44,955	-7,243	254,778	124,184
45,969	-7,174	254,503	124,100
46,984	-7,270	254,237	123,875
47,999	-7,543	253,991	123,506
49,013	-7,627	253,679	123,270
50,028	-7,783	253,510	123,040
51,042	-7,809	253,107	122,811
52,057	-7,731	253,059	122,845
53,071	-7,703	252,752	122,709
54,086	-7,914	252,662	122,472
55,101	-7,494	252,443	122,718
56,115	-7,631	252,504	122,618
57,130	-7,127	252,425	123,006
58,144	-6,792	252,017	123,087
59,159	-6,780	251,912	123,035
60,174	-7,198	251,727	122,572
61,188	-7,051	251,407	122,533
62,203	-7,111	251,337	122,436
63,217	-7,001	251,002	122,357
64,232	-6,893	250,793	122,336
65,247	-7,002	250,678	122,176
66,261	-7,193	250,425	121,878
67,276	-7,170	250,071	121,714
68,290	-7,391	249,950	121,454
69,305	-7,447	249,549	121,201
70,320	-7,492	249,525	121,140
71,334	-6,973	249,136	121,384
72,349	-7,029	249,312	121,411
73,363	-6,964	249,041	121,324
74,378	-7,166	248,872	121,058
75,393	-7,071	248,591	120,991
76,407	-7,051	248,400	120,905
77,422	-6,846	248,109	120,927
78,436	-6,866	248,003	120,847
79,451	-6,923	247,723	120,652
80,466	-7,196	247,559	120,329
81,480	-7,181	247,370	120,240
82,495	-7,219	247,093	120,062
83,509	-7,304	247,074	119,970
84,524	-7,336	246,809	119,804
85,539	-7,357	246,542	119,646
86,553	-7,456	246,374	119,469
87,568	-7,338	246,169	119,460
88,582	-7,304	245,920	119,356
89,597	-7,292	245,854	119,324
90,611	-7,216	245,702	119,303
91,626	-6,941	245,465	119,409
92,641	-7,072	245,241	119,179
93,655	-7,146	245,275	119,123
94,670	-6,970	244,892	119,074
95,684	-6,915	244,668	119,001
96,699	-7,218	244,606	118,706
97,714	-7,208	244,389	118,598
98,728	-7,296	244,136	118,391
99,743	-7,467	243,889	118,118
100,757	-7,311	243,701	118,147
101,772	-7,358	243,507	118,003
102,787	-7,333	243,350	117,937
103,801	-7,367	243,303	117,876
104,816	-7,255	243,170	117,895
105,830	-7,015	242,846	117,926
106,845	-7,002	242,904	117,955
107,860	-7,184	242,676	117,682
108,874	-7,193	242,426	117,543
109,889	-7,173	242,178	117,429
110,903	-7,393	242,007	117,153
111,918	-7,213	241,693	117,140
112,933	-7,379	241,860	117,073
113,947	-7,344	241,469	116,902
114,962	-7,120	241,317	117,003
115,976	-6,948	241,122	117,039
116,991	-6,985	240,979	116,929
118,006	-7,203	240,805	116,655
119,020	-7,151	240,729	116,651
120,035	-7,183	240,683	116,592
121,049	-7,102	240,495	116,557
122,064	-7,075	240,098	116,376
123,079	-6,983	239,964	116,376
124,093	-7,100	239,928	116,253
125,108	-7,364	239,605	115,869
126,122	-7,411	239,373	115,708
127,137	-7,596	239,239	115,482
128,151	-7,357	239,106	115,602
129,166	-7,299	238,878	115,529
130,181	-7,463	238,712	115,305
131,195	-7,480	238,552	115,204
132,210	-7,291	238,311	115,231
133,224	-7,257	238,265	115,226
134,239	-7,101	237,985	115,207
135,254	-7,096	237,912	115,165
136,268	-7,312	237,773	114,912
137,283	-7,323	237,363	114,695
138,297	-7,648	237,216	114,351
139,312	-7,622	236,997	114,256
140,327	-7,183	236,837	114,523
141,341	-7,009	236,908	114,689
142,356	-6,870	236,640	114,661
143,370	-6,892	236,665	114,645
144,385	-6,711	236,408	114,656
145,400	-6,874	236,142	114,386
146,414	-6,802	236,040	114,384
147,429	-6,844	235,857	114,251
148,443	-6,954	235,745	114,099
149,458	-6,831	235,510	114,073
150,473	-6,848	235,360	113,977
151,487	-6,788	235,172	113,924
152,502	-7,083	235,026	113,607
153,516	-6,881	234,988	113,739
154,531	-6,979	234,834	113,576
155,546	-6,898	234,446	113,444
156,560	-6,892	234,306	113,371
157,575	-7,115	234,029	113,049
158,589	-7,080	233,757	112,935
159,604	-6,874	233,871	113,144
160,619	-6,738	233,614	113,118
161,633	-6,678	233,515	113,108
162,648	-6,754	233,430	112,996
163,662	-6,838	233,175	112,796
164,677	-6,913	233,014	112,648
165,692	-6,946	232,866	112,540
166,706	-6,877	232,727	112,518
167,721	-6,647	232,610	112,634
168,735	-6,834	232,564	112,453
169,750	-6,747	232,388	112,427
170,764	-6,928	232,282	112,223
171,779	-6,835	231,982	112,141
172,794	-6,803	231,948	112,140
173,808	-6,948	231,651	111,872
174,823	-7,270	231,226	111,403
175,837	-7,571	231,251	111,169
176,852	-7,156	231,218	111,470
177,867	-6,943	231,083	111,562
178,881	-7,043	230,978	111,422
179,896	-6,713	230,693	111,534
180,910	-6,722	230,524	111,435
181,925	-6,686	230,432	111,409
182,940	-6,920	230,134	111,072
183,954	-6,884	230,174	111,110
184,969	-6,751	229,963	111,102
185,983	-6,723	229,779	111,025
186,998	-6,671	229,717	111,026
188,013	-6,721	229,673	110,955
189,027	-6,620	229,338	110,862
190,042	-6,696	229,219	110,735
191,056	-6,611	228,962	110,668
192,071	-6,654	228,854	110,572
193,086	-6,821	228,798	110,405
194,100	-6,878	228,462	110,190
195,115	-7,518	228,150	109,533
196,129	-7,878	227,942	109,145
197,144	-4,187	229,103	112,561
198,159	0,563	230,558	116,973
199,173	4,162	231,411	120,207
200,188	4,710	231,403	120,619
201,202	4,456	231,172	120,291
202,217	4,729	231,149	120,481
203,232	4,861	230,982	120,486
204,246	4,836	230,946	120,436
205,261	5,096	230,733	120,517
206,275	5,043	230,618	120,404
207,290	5,149	230,480	120,404
208,304	5,112	230,365	120,305
209,319	5,131	230,030	120,134
210,334	4,886	230,010	119,922
211,348	4,802	229,609	119,638
212,363	4,545	229,406	119,323
213,377	4,305	229,039	118,937
214,392	4,149	229,080	118,827
215,407	4,219	228,966	118,811
216,421	4,289	228,869	118,804
217,436	4,428	228,673	118,798
218,450	3,807	228,332	118,134
219,465	4,056	228,204	118,248
220,480	3,943	228,171	118,134
221,494	3,998	228,080	118,119
222,509	4,082	227,920	118,089
223,523	4,194	227,681	118,041
224,538	3,898	227,624	117,774
225,553	4,171	227,350	117,830
226,567	4,248	227,436	117,924
227,582	4,579	227,214	118,051
228,596	4,453	227,208	117,941
229,611	4,291	226,860	117,626
230,626	4,030	226,817	117,395
231,640	4,173	226,558	117,359
232,655	4,408	226,468	117,481
233,669	4,608	226,575	117,678
234,684	4,713	226,430	117,672
235,699	4,462	226,065	117,281
236,713	4,401	225,842	117,109
237,728	4,128	225,777	116,857
238,742	4,075	225,426	116,626
239,757	4,339	225,412	116,807
240,772	3,963	225,381	116,496
241,786	4,153	225,066	116,467
242,801	4,289	225,087	116,570
243,815	4,670	224,927	116,764
244,830	4,359	224,920	116,516
245,844	4,653	224,603	116,563
246,859	4,503	224,278	116,271
247,874	4,584	224,316	116,342
248,888	4,328	224,324	116,142
249,903	4,328	223,977	115,952
250,917	4,187	223,835	115,762
251,932	4,373	223,656	115,799
252,947	4,110	223,388	115,453
253,961	4,154	223,305	115,433
254,976	4,187	223,200	115,393
255,990	4,462	223,020	115,495
257,005	4,411	223,021	115,447
258,020	4,375	222,867	115,330
259,034	4,529	222,872	115,438
260,049	4,547	222,655	115,328
261,063	4,498	222,492	115,197
262,078	4,617	222,327	115,190
263,093	4,558	222,321	115,133
264,107	4,359	222,088	114,854
265,122	4,512	221,904	114,862
266,136	4,785	221,675	114,936
267,151	4,628	221,561	114,750
268,166	4,329	221,380	114,424
269,180	4,116	221,172	114,149
270,195	3,957	221,109	113,988
271,209	3,856	221,018	113,856
272,224	4,185	220,680	113,916
273,239	4,336	220,694	114,024
274,253	4,361	220,399	113,880
275,268	3,987	220,320	113,553
276,282	3,901	220,124	113,379
277,297	4,206	219,878	113,467
278,312	3,954	219,976	113,321
279,326	4,108	219,754	113,309
280,341	4,217	219,535	113,267
281,355	3,986	219,528	113,084
282,370	4,056	219,400	113,059
283,384	3,888	219,296	112,872
284,399	3,721	219,071	112,624
285,414	3,768	218,974	112,598
286,428	4,057	218,917	112,771
287,443	4,226	218,743	112,794
288,457	4,215	218,678	112,743
289,472	4,177	218,573	112,651
290,487	3,827	218,221	112,204
291,501	3,782	217,959	112,027
292,516	3,890	217,907	112,069
293,530	4,091	217,857	112,179
294,545	3,836	217,611	111,857
295,560	3,996	217,632	111,974
296,574	4,035	217,562	111,956
297,589	4,291	217,275	111,985
298,603	4,323	217,073	111,894
299,618	4,122	217,103	111,754
300,633	4,256	216,892	111,733
301,647	4,369	216,812	111,763
302,662	4,488	216,684	111,773
303,676	4,169	216,603	111,491
304,691	4,394	216,381	111,529
305,706	4,319	216,363	111,456
306,720	4,493	216,158	111,465
307,735	4,334	215,940	111,228
308,749	3,986	215,705	110,847
309,764	4,296	215,606	111,009
310,779	4,492	215,536	111,105
311,793	4,207	215,353	110,795
312,808	4,205	215,329	110,771
313,822	4,428	215,082	110,795
314,837	3,988	214,930	110,391
315,852	3,963	214,828	110,311
316,866	4,225	214,700	110,423
317,881	4,471	214,612	110,544
318,895	4,245	214,493	110,311
319,910	4,284	214,242	110,200
320,925	4,045	214,017	109,904
321,939	3,550	213,856	109,458
322,954	3,757	213,914	109,626
323,968	4,351	213,862	110,013
324,983	4,116	213,668	109,736
325,997	4,410	213,485	109,842
327,012	4,442	213,182	109,698
328,027	4,314	213,149	109,581
329,041	4,398	213,192	109,653
330,056	4,360	213,107	109,573
331,070	4,222	212,727	109,269
332,085	3,654	212,622	108,803
333,100	3,970	212,446	108,927
334,114	4,155	212,361	109,005
335,129	4,116	212,244	108,908
336,143	4,088	211,967	108,736
337,158	4,117	211,856	108,690
338,173	4,042	211,851	108,624
339,187	4,065	211,616	108,511
340,202	3,899	211,441	108,294
341,216	3,832	211,273	108,151
342,231	3,928	211,245	108,195
343,246	3,767	211,192	108,045
344,260	3,842	211,007	107,993
345,275	4,222	210,844	108,167
346,289	4,179	210,888	108,150
347,304	4,322	210,658	108,122
348,319	4,222	210,464	107,943
349,333	4,483	210,232	107,997
350,348	4,143	210,111	107,687
351,362	4,317	210,087	107,788
352,377	4,449	209,978	107,814
353,392	4,263	209,925	107,647
354,406	4,278	209,879	107,625
355,421	192,952	1343,614	1427,257
356,435	153,967	1481,800	1427,329
