DTS Sentinel unit serial number:	SN410029Multiplexer serial number:	ORYXHardware model number:	OX2-SRSoftware version number:	ORYX F/W v4,00 Oryx Data Collector v3.7.2.0data status	okinstallation	B6 Nyhavnadifferential loss correction	single-endedforward channel	channel 2reverse channel	N/Adate	2023/12/11time	01:15:08forward acquisition time	300,00reverse acquisition time	0,00gamma	499,1914k internal	0,3122k external	0,3122temperature offset calibration	1,0000default loss term (dB/km)	0,3820temperature slope calibration	1,0000multiplexer offset coefficient	1,0000multiplexer slope coefficient	1,0000fibre end	0,00T internal ref (°C)	22,17T ext. ref 1 (°C)	5,44T ext. ref 2 (°C)	5,48length (m)	temperature (°C)	Stokes	anti-Stokes-744,400	257,301	0,088	-0,114
-743,385	-70,468	-0,330	0,092
-742,371	396,667	0,056	0,087
-741,356	800,000	-0,065	0,152
-740,342	387,371	-0,067	0,104
-739,327	-29,336	-0,254	0,108
-738,312	-200,000	-0,015	0,080
-737,298	-146,050	-0,283	-0,018
-736,283	-141,794	0,106	0,008
-735,269	118,660	-0,237	0,218
-734,254	800,000	0,048	0,143
-733,239	-21,325	-0,407	-0,185
-732,225	-133,131	0,139	0,013
-731,210	151,716	-0,149	0,151
-730,196	40,221	-0,077	0,052
-729,181	290,929	0,043	-0,058
-728,167	142,676	-0,041	-0,041
-727,152	-200,000	0,029	0,137
-726,137	776,793	-0,029	-0,059
-725,123	-200,000	-0,047	-0,194
-724,108	757,946	-0,024	-0,049
-723,094	-74,803	-0,192	-0,051
-722,079	-156,172	-0,136	0,006
-721,064	-68,379	-0,024	-0,007
-720,050	32,489	-0,026	-0,017
-719,035	-122,509	-0,083	-0,010
-718,021	-115,380	-0,125	0,017
-717,006	90,671	0,070	0,058
-715,991	347,345	-0,027	-0,040
-714,977	-15,194	-0,129	-0,061
-713,962	800,000	0,021	-0,048
-712,948	-200,000	0,026	0,129
-711,933	-91,296	-0,128	0,027
-710,918	-200,000	0,042	-0,157
-709,904	87,608	-0,088	-0,073
-708,889	144,500	0,003	0,003
-707,875	434,777	-0,061	-0,100
-706,860	-200,000	0,019	-0,125
-705,845	800,000	0,024	-0,071
-704,831	-200,000	-0,017	-0,087
-703,816	800,000	0,023	0,050
-702,802	-200,000	0,007	0,040
-701,787	401,855	-0,090	-0,142
-700,772	-200,000	-0,023	-0,080
-699,758	-200,000	0,000	-0,063
-698,743	78,405	0,036	0,029
-697,729	800,000	0,006	-0,016
-696,714	-19,526	-0,021	-0,010
-695,699	139,070	-0,065	-0,063
-694,685	-60,430	-0,050	-0,016
-693,670	521,195	0,033	-0,058
-692,656	800,000	0,058	0,136
-691,641	-38,547	0,089	0,035
-690,627	130,427	0,125	-0,119
-689,612	25,581	0,038	0,023
-688,597	250,135	-0,049	0,061
-687,583	578,561	-0,046	-0,084
-686,568	425,468	-0,077	-0,124
-685,554	125,298	-0,127	-0,119
-684,539	-200,000	0,006	-0,037
-683,524	800,000	0,066	-0,146
-682,510	101,406	-0,011	-0,010
-681,495	-200,000	-0,006	0,030
-680,481	191,107	0,117	0,131
-679,466	182,952	-0,196	-0,216
-678,451	-22,575	-0,098	0,044
-677,437	368,254	-0,044	0,067
-676,422	-20,253	0,062	-0,028
-675,408	800,000	0,020	0,054
-674,393	-200,000	-0,020	-0,098
-673,378	-200,000	-0,034	-0,167
-672,364	365,518	0,083	-0,124
-671,349	-200,000	-0,018	0,069
-670,335	454,299	-0,050	-0,082
-669,320	163,207	0,026	-0,027
-668,305	-200,000	0,007	0,038
-667,291	-64,224	0,029	0,009
-666,276	-21,716	0,049	-0,022
-665,262	800,000	0,017	-0,056
-664,247	78,873	0,127	0,101
-663,232	-110,911	0,074	-0,011
-662,218	584,452	0,051	0,093
-661,203	328,262	-0,042	0,060
-660,189	160,810	0,035	-0,036
-659,174	154,483	0,105	0,107
-658,159	-200,000	-0,011	-0,049
-657,145	800,000	0,011	-0,034
-656,130	-200,000	-0,002	-0,028
-655,116	150,624	-0,025	-0,026
-654,101	-100,780	0,034	-0,006
-653,086	800,000	0,012	-0,035
-652,072	-200,000	-0,003	0,153
-651,057	800,000	-0,013	0,041
-650,043	43,904	-0,071	-0,048
-649,028	32,826	-0,085	0,055
-648,014	-71,806	-0,093	0,026
-646,999	225,917	-0,033	-0,040
-645,984	-200,000	-0,011	0,051
-644,970	27,381	-0,077	-0,048
-643,955	7,737	-0,061	-0,034
-642,941	-50,179	-0,117	0,041
-641,926	-55,221	-0,077	-0,026
-640,911	-200,000	-0,007	0,080
-639,897	-200,000	0,007	0,045
-638,882	-113,676	0,087	-0,012
-637,868	22,410	0,077	0,046
-636,853	800,000	-0,037	-0,080
-635,838	-23,777	0,087	-0,039
-634,824	325,301	0,052	0,074
-633,809	-63,750	0,053	-0,016
-632,795	-200,000	-0,006	0,060
-631,780	800,000	-0,026	-0,059
-630,765	-91,278	-0,035	-0,007
-629,751	800,000	-0,010	-0,025
-628,736	-200,000	-0,013	-0,043
-627,722	36,103	0,068	-0,044
-626,707	-200,000	-0,055	0,000
-625,692	-200,000	-0,018	0,064
-624,678	-200,000	0,020	-0,092
-623,663	-54,288	0,031	-0,010
-622,649	749,746	-0,038	-0,077
-621,634	174,181	-0,127	-0,136
-620,619	-200,000	0,001	-0,015
-619,605	-93,287	0,011	-0,002
-618,590	800,000	0,013	0,032
-617,576	800,000	-0,041	0,095
-616,561	-111,648	0,116	-0,017
-615,546	-83,271	-0,028	-0,007
-614,532	-200,000	-0,008	-0,035
-613,517	-65,631	0,061	-0,018
-612,503	-135,270	0,205	-0,018
-611,488	-200,000	-0,010	-0,038
-610,474	-30,477	-0,123	-0,051
-609,459	119,503	-0,027	0,025
-608,444	-98,484	-0,155	-0,029
-607,430	352,081	-0,060	0,088
-606,415	800,000	0,012	-0,027
-605,401	151,234	0,050	-0,050
-604,386	53,875	-0,014	-0,010
-603,371	-200,000	0,006	0,032
-602,357	-76,187	0,104	0,027
-601,342	121,238	0,087	-0,080
-600,328	-200,000	-0,001	-0,070
-599,313	-170,812	-0,116	-0,003
-598,298	30,942	0,031	-0,020
-597,284	241,527	0,047	0,059
-596,269	-160,763	0,051	0,002
-595,255	402,406	-0,046	0,072
-594,240	800,000	-0,029	0,094
-593,225	117,747	-0,049	-0,045
-592,211	91,890	0,053	-0,044
-591,196	246,885	-0,067	0,084
-590,182	-200,000	0,023	-0,076
-589,167	5,978	0,077	0,042
-588,152	236,988	0,070	0,086
-587,138	800,000	-0,022	0,068
-586,123	-200,000	-0,001	0,079
-585,109	-75,801	0,086	-0,022
-584,094	120,767	-0,021	-0,020
-583,079	130,865	-0,061	0,058
-582,065	-200,000	-0,004	-0,059
-581,050	800,000	0,030	0,078
-580,036	-200,000	-0,011	-0,202
-579,021	426,767	-0,031	-0,050
-578,006	800,000	-0,028	-0,080
-576,992	539,798	0,048	0,085
-575,977	800,000	0,041	0,094
-574,963	800,000	0,052	-0,131
-573,948	-84,258	-0,166	-0,039
-572,934	746,720	-0,009	-0,019
-571,919	88,666	0,099	-0,081
-570,904	-16,002	0,073	-0,034
-569,890	466,058	0,049	-0,081
-568,875	-200,000	0,008	0,096
-567,861	-86,784	0,189	0,042
-566,846	-8,259	0,041	-0,020
-565,831	-11,553	-0,093	0,045
-564,817	-133,374	-0,201	0,018
-563,802	-84,321	-0,057	-0,013
-562,788	-69,966	-0,035	-0,010
-561,773	35,157	0,145	-0,094
-560,758	268,891	0,076	-0,099
-559,744	-104,286	0,117	-0,020
-558,729	-82,868	-0,091	0,022
-557,715	335,946	-0,034	0,049
-556,700	-51,589	-0,046	-0,016
-555,685	385,918	-0,049	-0,075
-554,671	3,701	-0,090	0,049
-553,656	461,271	0,076	0,126
-552,642	13,754	0,070	0,040
-551,627	-16,343	0,112	0,053
-550,612	107,294	0,060	-0,052
-549,598	-54,359	-0,095	-0,032
-548,583	-33,541	-0,012	-0,005
-547,569	-200,000	-0,010	-0,169
-546,554	-77,653	-0,063	0,016
-545,539	-90,577	0,063	0,013
-544,525	-200,000	-0,015	-0,078
-543,510	767,734	0,012	-0,024
-542,496	-200,000	-0,008	-0,160
-541,481	420,053	-0,071	-0,113
-540,466	60,099	-0,106	-0,078
-539,452	-74,953	0,122	0,032
-538,437	641,127	0,080	0,152
-537,423	-200,000	-0,020	0,098
-536,408	358,659	0,109	0,162
-535,393	-13,513	0,080	-0,038
-534,379	-200,000	0,009	-0,052
-533,364	21,012	-0,042	-0,025
-532,350	-200,000	0,007	0,056
-531,335	-5,325	-0,113	0,057
-530,321	-32,882	0,029	-0,012
-529,306	176,228	-0,076	0,082
-528,291	48,566	-0,105	0,072
-527,277	24,793	-0,066	0,040
-526,262	-141,023	-0,065	0,005
-525,248	-159,873	0,071	0,003
-524,233	800,000	0,026	0,079
-523,218	800,000	-0,069	0,154
-522,204	-200,000	-0,001	-0,018
-521,189	-91,022	0,050	0,011
-520,175	68,906	-0,084	-0,064
-519,160	-200,000	0,043	-0,142
-518,145	14,364	-0,022	-0,013
-517,131	-101,371	0,100	-0,018
-516,116	-99,281	0,065	-0,012
-515,102	186,295	0,039	-0,043
-514,087	-136,511	0,033	0,003
-513,072	123,131	0,033	-0,031
-512,058	800,000	-0,026	-0,079
-511,043	156,188	0,098	-0,100
-510,029	800,000	-0,011	0,022
-509,014	776,546	0,017	-0,035
-507,999	-200,000	0,011	0,053
-506,985	-200,000	0,021	0,125
-505,970	-115,995	-0,066	0,009
-504,956	-112,662	0,086	0,012
-503,941	512,891	0,044	0,076
-502,926	319,821	-0,036	0,050
-501,912	-109,344	-0,111	0,017
-500,897	44,323	0,077	-0,052
-499,883	-200,000	0,015	-0,054
-498,868	4,939	-0,127	-0,069
-497,853	-200,000	-0,037	-0,139
-496,839	-200,000	0,005	-0,021
-495,824	63,037	0,138	0,102
-494,810	333,520	0,073	-0,104
-493,795	-0,133	0,036	0,019
-492,781	-200,000	0,002	0,053
-491,766	-124,503	0,052	0,006
-490,751	-89,992	-0,201	-0,043
-489,737	-200,000	0,006	-0,098
-488,722	-19,946	0,067	0,030
-487,708	-200,000	0,027	0,088
-486,693	-45,839	0,053	0,019
-485,678	782,327	-0,029	-0,059
-484,664	800,000	0,039	0,091
-483,649	800,000	-0,027	0,058
-482,635	-200,000	-0,006	-0,101
-481,620	122,483	-0,084	-0,077
-480,605	165,601	-0,026	0,028
-479,591	-200,000	0,023	0,079
-478,576	397,469	-0,038	0,059
-477,562	260,223	0,015	0,019
-476,547	396,672	-0,086	-0,132
-475,532	789,497	-0,069	-0,140
-474,518	-200,000	-0,007	0,102
-473,503	-200,000	0,020	-0,100
-472,489	-144,008	0,088	-0,006
-471,474	800,000	-0,052	0,109
-470,459	111,644	-0,108	-0,096
-469,445	224,909	-0,077	-0,093
-468,430	-55,950	-0,234	0,077
-467,416	-200,000	0,024	0,171
-466,401	-200,000	0,009	-0,097
-465,386	47,124	-0,060	0,041
-464,372	326,986	-0,015	0,021
-463,357	800,000	-0,085	-0,185
-462,343	12,083	-0,156	-0,088
-461,328	328,635	-0,064	0,091
-460,313	-43,621	0,123	0,045
-459,299	193,225	0,118	0,131
-458,284	-24,875	0,098	0,043
-457,270	800,000	0,032	0,068
-456,255	-200,000	-0,026	0,121
-455,241	-3,200	0,004	0,002
-454,226	-200,000	0,054	-0,202
-453,211	-200,000	0,002	0,030
-452,197	-116,562	0,155	0,021
-451,182	794,989	0,026	0,053
-450,168	151,884	-0,018	0,018
-449,153	-200,000	0,026	0,114
-448,138	332,519	-0,028	-0,040
-447,124	411,566	-0,019	-0,030
-446,109	221,031	0,034	0,041
-445,095	662,168	0,046	0,088
-444,080	-64,936	0,134	0,040
-443,065	-200,000	-0,009	-0,067
-442,051	-55,792	-0,057	0,019
-441,036	-200,000	0,061	0,000
-440,022	468,005	-0,114	-0,188
-439,007	56,075	0,047	-0,034
-437,992	119,726	-0,024	-0,022
-436,978	271,299	0,073	0,095
-435,963	-141,216	-0,100	-0,007
-434,949	-14,518	-0,029	-0,014
-433,934	-73,708	-0,086	0,023
-432,919	-200,000	-0,018	0,106
-431,905	-36,046	0,095	0,038
-430,890	-8,521	0,039	0,019
-429,876	60,364	-0,083	0,061
-428,861	800,000	0,033	0,094
-427,846	-200,000	0,020	0,116
-426,832	158,135	-0,074	-0,076
-425,817	-194,121	-0,041	0,000
-424,803	339,609	0,073	-0,104
-423,788	-200,000	-0,002	0,060
-422,773	-33,232	0,047	-0,019
-421,759	-70,241	0,055	0,015
-420,744	-200,000	-0,017	0,178
-419,730	220,145	0,055	0,065
-418,715	-74,402	-0,066	-0,017
-417,701	-92,339	-0,188	-0,039
-416,686	-62,049	0,094	0,029
-415,671	485,804	0,071	0,119
-414,657	800,000	-0,010	0,029
-413,642	115,675	-0,023	-0,021
-412,628	-200,000	0,012	-0,055
-411,613	526,234	-0,024	-0,041
-410,598	-131,700	-0,227	0,022
-409,584	237,217	0,033	0,040
-408,569	506,411	0,053	-0,090
-407,555	-106,950	0,086	0,014
-406,540	-200,000	0,019	0,093
-405,525	-200,000	0,010	-0,087
-404,511	-86,475	-0,064	0,014
-403,496	72,248	0,086	-0,066
-402,482	23,194	-0,067	0,040
-401,467	16,525	-0,021	0,012
-400,452	349,019	0,081	0,117
-399,438	-68,501	-0,109	0,031
-398,423	15,293	-0,206	0,119
-397,409	14,485	0,103	0,059
-396,394	471,980	-0,032	-0,053
-395,379	83,879	-0,068	-0,055
-394,365	-200,000	-0,002	-0,015
-393,350	-200,000	-0,006	0,174
-392,336	-151,810	0,031	0,002
-391,321	47,381	0,107	-0,073
-390,306	-109,058	-0,078	-0,012
-389,292	800,000	-0,015	-0,046
-388,277	537,616	0,017	-0,030
-387,263	16,875	0,029	-0,017
-386,248	-200,000	0,001	0,027
-385,233	-141,848	0,056	-0,004
-384,219	102,704	0,079	-0,068
-383,204	458,907	0,014	0,022
-382,190	715,431	0,026	-0,050
-381,175	-200,000	-0,004	-0,060
-380,160	15,360	0,060	-0,034
-379,146	-200,000	-0,002	-0,080
-378,131	-200,000	0,044	0,152
-377,117	-200,000	-0,022	0,076
-376,102	82,145	-0,094	0,075
-375,088	0,335	-0,143	-0,075
-374,073	-200,000	0,026	-0,114
-373,058	132,204	0,012	-0,011
-372,044	-34,770	-0,011	-0,005
-371,029	702,259	0,031	-0,059
-370,015	-200,000	0,009	-0,087
-369,000	94,196	-0,050	-0,041
-367,985	260,425	-0,063	0,081
-366,971	134,553	0,042	-0,040
-365,956	58,282	0,029	-0,021
-364,942	241,715	0,033	0,041
-363,927	800,000	-0,035	0,074
-362,912	-40,166	-0,050	-0,019
-361,898	-200,000	0,015	-0,097
-360,883	800,000	0,032	-0,070
-359,869	-34,651	-0,042	-0,017
-358,854	20,047	0,030	0,018
-357,839	-200,000	0,002	0,152
-356,825	-19,760	0,034	-0,015
-355,810	-142,137	0,016	-0,001
-354,796	394,645	-0,062	-0,095
-353,781	-69,023	0,015	-0,004
-352,766	309,242	-0,045	-0,063
-351,752	233,657	0,096	-0,116
-350,737	95,617	-0,128	-0,107
-349,723	-109,104	0,018	-0,003
-348,708	-200,000	0,011	0,100
-347,693	-200,000	0,013	0,056
-346,679	240,732	-0,141	-0,173
-345,664	-125,860	0,126	-0,014
-344,650	760,877	-0,064	-0,128
-343,635	252,196	-0,007	0,009
-342,620	800,000	0,003	-0,008
-341,606	-40,742	-0,118	0,045
-340,591	6,792	-0,056	-0,030
-339,577	353,776	-0,071	-0,104
-338,562	52,273	0,030	0,021
-337,548	153,993	0,117	-0,117
-336,533	-52,125	0,130	0,044
-335,518	306,123	0,032	-0,044
-334,504	-200,000	0,014	-0,092
-333,489	-200,000	-0,002	0,028
-332,475	-200,000	0,021	0,111
-331,460	649,762	0,057	-0,107
-330,445	-106,882	0,157	-0,025
-329,431	148,148	0,115	0,114
-328,416	-15,425	-0,049	-0,023
-327,402	-200,000	0,015	-0,069
-326,387	-46,776	-0,081	0,029
-325,372	-162,225	0,024	0,001
-324,358	-200,000	-0,000	0,007
-323,343	-110,968	-0,015	0,002
-322,329	-75,678	-0,018	-0,005
-321,314	163,519	0,092	-0,095
-320,299	127,994	0,117	0,109
-319,285	131,615	-0,098	0,093
-318,270	-74,909	0,195	0,051
-317,256	-200,000	-0,019	-0,094
-316,241	-143,662	-0,117	0,008
-315,226	744,549	0,047	-0,093
-314,212	145,099	0,060	0,059
-313,197	277,266	0,037	0,048
-312,183	-200,000	-0,006	0,046
-311,168	0,511	0,062	-0,032
-310,153	431,617	-0,027	0,043
-309,139	2,785	-0,041	-0,022
-308,124	-200,000	0,018	0,112
-307,110	-53,616	0,120	0,040
-306,095	-17,146	-0,076	0,035
-305,080	-200,000	-0,001	-0,006
-304,066	479,081	0,018	-0,030
-303,051	63,458	-0,058	-0,043
-302,037	-200,000	-0,007	-0,101
-301,022	800,000	0,014	0,035
-300,008	245,997	0,048	0,060
-298,993	-69,877	0,092	0,026
-297,978	102,941	0,072	0,062
-296,964	-200,000	-0,032	-0,141
-295,949	800,000	0,026	-0,058
-294,935	13,804	-0,081	-0,046
-293,920	-150,339	0,008	0,000
-292,905	-92,770	0,205	0,042
-291,891	-200,000	-0,040	0,137
-290,876	-200,000	-0,011	-0,101
-289,862	-101,424	0,087	-0,015
-288,847	100,527	-0,121	-0,103
-287,832	91,391	0,003	-0,002
-286,818	198,306	0,018	0,020
-285,803	-86,264	-0,146	-0,033
-284,789	-200,000	0,023	-0,107
-283,774	403,832	-0,043	0,067
-282,759	-145,116	0,089	0,006
-281,745	283,278	-0,059	0,078
-280,730	64,257	-0,090	0,067
-279,716	-128,185	-0,062	-0,006
-278,701	-200,000	-0,014	0,051
-277,686	-7,572	0,076	0,037
-276,672	101,305	0,081	-0,069
-275,657	-88,665	-0,122	0,026
-274,643	-200,000	0,011	-0,120
-273,628	-54,553	-0,097	0,032
-272,613	54,994	-0,087	-0,061
-271,599	302,452	0,062	0,084
-270,584	792,462	0,050	0,101
-269,570	-200,000	-0,009	-0,098
-268,555	0,556	0,070	0,037
-267,540	86,681	-0,122	0,098
-266,526	251,338	0,073	0,091
-265,511	12,673	-0,112	0,063
-264,497	652,608	0,059	0,112
-263,482	162,124	0,064	0,066
-262,467	-200,000	0,035	0,119
-261,453	800,000	0,001	-0,002
-260,438	-200,000	-0,002	-0,118
-259,424	-83,898	0,096	0,022
-258,409	-44,968	0,028	-0,010
-257,395	56,933	-0,069	-0,049
-256,380	800,000	0,047	-0,100
-255,365	-200,000	-0,015	0,131
-254,351	-200,000	-0,015	0,123
-253,336	800,000	0,051	-0,132
-252,322	-200,000	-0,015	-0,119
-251,307	-123,804	-0,055	0,006
-250,292	-163,198	0,059	-0,002
-249,278	360,743	0,046	0,068
-248,263	-200,000	-0,022	0,082
-247,249	-200,000	0,029	-0,103
-246,234	240,479	0,068	-0,084
-245,219	800,000	0,038	0,121
-244,205	800,000	-0,038	-0,095
-243,190	-200,000	0,002	-0,102
-242,176	-200,000	0,007	-0,053
-241,161	-200,000	-0,007	0,113
-240,146	190,624	-0,067	0,074
-239,132	67,330	-0,076	0,057
-238,117	800,000	-0,046	0,114
-237,103	417,025	0,063	0,098
-236,088	-200,000	-0,007	-0,097
-235,073	-200,000	-0,005	0,049
-234,059	14,125	0,063	-0,036
-233,044	306,051	0,068	0,093
-232,030	-129,120	-0,100	0,010
-231,015	16,722	0,085	-0,049
-230,000	165,422	-0,056	0,057
-228,986	-35,234	0,117	-0,046
-227,971	225,576	-0,107	-0,127
-226,957	-200,000	-0,020	0,090
-225,942	5,335	-0,142	-0,076
-224,927	-200,000	-0,002	-0,056
-223,913	-200,000	0,036	0,125
-222,898	144,863	0,144	0,141
-221,884	13,322	-0,037	-0,021
-220,869	-135,552	-0,026	0,002
-219,855	-200,000	0,006	0,046
-218,840	37,861	0,191	0,124
-217,825	-200,000	-0,025	0,147
-216,811	-25,471	-0,101	0,043
-215,796	800,000	-0,045	-0,111
-214,782	-170,063	-0,114	-0,003
-213,767	800,000	-0,023	0,061
-212,752	800,000	0,036	0,114
-211,738	252,571	0,009	0,011
-210,723	102,680	0,041	-0,035
-209,709	102,906	-0,113	-0,097
-208,694	250,517	-0,029	0,036
-207,679	-3,878	-0,087	-0,044
-206,665	-200,000	0,016	-0,058
-205,650	-95,085	-0,042	0,008
-204,636	-28,273	-0,056	-0,023
-203,621	54,149	-0,026	0,018
-202,606	81,846	-0,069	0,054
-201,592	-200,000	0,005	-0,052
-200,577	-183,247	0,127	-0,002
-199,563	800,000	-0,055	-0,117
-198,548	-0,187	0,119	0,062
-197,533	433,360	-0,022	0,034
-196,519	-115,884	0,024	-0,003
-195,504	-200,000	0,004	-0,031
-194,490	-200,000	-0,008	-0,086
-193,475	-200,000	0,002	-0,138
-192,460	-200,000	0,009	0,033
-191,446	800,000	0,044	0,094
-190,431	800,000	0,027	-0,061
-189,417	63,003	-0,079	-0,058
-188,402	-200,000	-0,020	0,125
-187,387	-62,021	-0,077	0,023
-186,373	-200,000	-0,001	-0,051
-185,358	-200,000	-0,010	0,037
-184,344	256,864	0,054	-0,067
-183,329	-70,054	0,139	-0,038
-182,315	35,453	-0,084	-0,053
-181,300	-200,000	0,011	0,108
-180,285	-200,000	-0,003	0,041
-179,271	585,387	0,090	-0,162
-178,256	-12,054	-0,083	0,039
-177,242	-1,042	0,180	-0,093
-176,227	-61,818	-0,056	0,017
-175,212	-200,000	0,011	0,090
-174,198	655,132	-0,049	-0,092
-173,183	800,000	0,046	0,124
-172,169	-26,188	-0,066	-0,028
-171,154	-200,000	-0,002	0,028
-170,139	47,607	-0,044	0,030
-169,125	-51,416	0,119	0,040
-168,110	-200,000	0,003	-0,046
-167,096	-26,165	0,081	0,034
-166,081	228,042	-0,044	0,052
-165,066	218,016	-0,049	-0,057
-164,052	-83,293	-0,105	0,024
-163,037	800,000	0,035	0,076
-162,023	344,745	-0,049	0,071
-161,008	-176,580	0,064	-0,001
-159,993	800,000	0,022	-0,067
-158,979	-94,260	-0,127	-0,025
-157,964	-200,000	0,001	-0,004
-156,950	-200,000	-0,001	-0,019
-155,935	122,028	-0,038	0,035
-154,920	-20,316	0,094	-0,042
-153,906	-200,000	0,010	-0,160
-152,891	-72,418	-0,064	-0,017
-151,877	225,488	-0,057	-0,068
-150,862	-200,000	0,011	0,092
-149,847	-64,929	-0,123	-0,036
-148,833	451,822	0,008	0,012
-147,818	230,480	0,078	0,093
-146,804	379,213	0,066	0,099
-145,789	353,947	-0,092	0,133
-144,775	-102,396	-0,096	0,017
-143,760	-200,000	0,010	0,056
-142,745	59,332	-0,099	0,071
-141,731	800,000	0,021	-0,053
-140,716	146,908	0,065	0,064
-139,702	800,000	0,035	0,112
-138,687	14,495	0,082	0,047
-137,672	800,000	0,023	-0,073
-136,658	-159,834	-0,119	0,005
-135,643	10,062	-0,108	-0,059
-134,629	800,000	-0,041	-0,086
-133,614	-92,675	-0,013	-0,003
-132,599	-107,683	0,098	0,015
-131,585	-200,000	0,022	0,108
-130,570	89,638	-0,047	0,038
-129,556	21,254	-0,080	0,047
-128,541	15,706	0,079	0,045
-127,526	190,330	-0,011	-0,012
-126,512	336,857	0,039	-0,056
-125,497	800,000	-0,024	0,068
-124,483	800,000	0,009	-0,021
-123,468	-108,935	-0,074	-0,011
-122,453	441,791	-0,016	0,026
-121,439	-200,000	-0,002	0,064
-120,424	39,766	0,041	0,027
-119,410	755,914	0,047	-0,093
-118,395	148,135	-0,004	0,004
-117,380	-200,000	0,014	0,092
-116,366	-200,000	-0,134	-0,000
-115,351	595,343	-0,048	-0,086
-114,337	-54,413	0,065	0,021
-113,322	-118,080	-0,175	0,022
-112,307	-78,659	-0,075	-0,018
-111,293	199,561	0,124	0,139
-110,278	599,608	0,037	-0,068
-109,264	-50,070	-0,137	0,047
-108,249	-64,529	-0,207	0,061
-107,234	33,935	0,061	-0,039
-106,220	-200,000	-0,004	-0,106
-105,205	-37,447	-0,090	0,035
-104,191	519,505	-0,032	0,054
-103,176	-200,000	0,000	0,066
-102,162	-71,422	0,059	-0,016
-101,147	-196,822	0,122	0,001
-100,132	-141,238	-0,158	-0,012
-99,118	-72,783	-0,167	-0,044
-98,103	-200,000	0,035	0,121
-97,089	108,433	-0,156	-0,135
-96,074	-159,693	0,080	0,003
-95,059	-200,000	0,012	0,057
-94,045	164,558	-0,075	-0,077
-93,030	-183,750	-0,092	0,001
-92,016	90,407	-0,074	0,060
-91,001	-200,000	-0,007	-0,071
-89,986	213,749	-0,064	-0,073
-88,972	-200,000	0,011	-0,093
-87,957	-176,451	0,070	-0,001
-86,943	124,835	-0,082	-0,075
-85,928	251,844	0,071	-0,089
-84,913	-105,929	0,095	0,015
-83,899	53,266	0,129	-0,089
-82,884	275,885	0,067	0,086
-81,870	419,518	0,055	0,086
-80,855	84,496	0,021	0,016
-79,840	204,087	-0,068	-0,077
-78,826	-200,000	-0,010	0,085
-77,811	-97,121	0,128	-0,024
-76,797	-158,013	-0,061	-0,003
-75,782	314,469	0,082	-0,112
-74,767	151,745	-0,081	0,080
-73,753	107,631	-0,058	0,050
-72,738	699,685	0,032	-0,061
-71,724	81,672	-0,112	-0,088
-70,709	312,937	0,052	-0,071
-69,694	34,973	-0,077	0,049
-68,680	-200,000	-0,013	0,188
-67,665	800,000	0,073	0,157
-66,651	151,606	-0,012	0,011
-65,636	800,000	0,025	-0,052
-64,622	107,841	0,029	-0,025
-63,607	65,172	-0,077	0,057
-62,592	-200,000	-0,025	-0,097
-61,578	-200,000	0,014	-0,112
-60,563	-94,065	0,069	0,014
-59,549	48,109	-0,150	0,102
-58,534	-110,819	-1,385	-0,205
-57,519	800,000	-0,730	-1,560
-56,505	-200,000	-0,958	-4,528
-55,490	138,397	0,562	-0,535
-54,476	800,000	4,991	11,778
-53,461	-200,000	13,715	253,354
-52,446	-200,000	691,750	2253,804
-51,432	585,890	1623,703	2909,809
-50,417	118,362	1634,294	1463,191
-49,403	72,983	1288,393	975,897
-48,388	37,815	1024,015	658,885
-47,373	24,166	981,894	586,876
-46,359	23,354	971,599	578,034
-45,344	22,419	967,152	572,312
-44,330	22,345	965,659	571,164
-43,315	22,268	964,345	570,111
-42,300	22,224	963,255	569,301
-41,286	22,192	962,330	568,630
-40,271	22,155	961,502	567,996
-39,257	22,175	960,441	567,412
-38,242	22,245	959,310	566,949
-37,227	22,156	958,725	566,291
-36,213	22,190	957,669	565,757
-35,198	22,129	956,917	565,093
-34,184	22,156	956,349	564,821
-33,169	22,130	955,404	564,157
-32,154	22,247	954,412	563,924
-31,140	22,221	953,578	563,327
-30,125	22,191	952,897	562,804
-29,111	22,215	951,961	562,307
-28,096	22,183	951,357	561,827
-27,082	22,267	950,501	561,569
-26,067	22,199	949,823	560,928
-25,052	22,221	949,300	560,665
-24,038	22,202	948,572	560,151
-23,023	22,195	947,887	559,702
-22,009	22,234	947,350	559,488
-20,994	22,235	946,619	559,039
-19,979	22,238	945,998	558,660
-18,965	22,210	945,355	558,169
-17,950	22,260	944,722	557,932
-16,936	22,134	944,151	557,170
-15,921	22,095	943,464	556,618
-14,906	22,128	942,736	556,270
-13,892	22,061	942,071	555,644
-12,877	22,122	941,552	555,510
-11,863	22,051	940,757	554,794
-10,848	22,112	940,235	554,658
-9,833	22,143	939,842	554,502
-8,819	22,195	939,007	554,151
-7,804	22,120	938,528	553,609
-6,790	22,073	937,835	553,029
-5,775	22,164	937,050	552,833
-4,760	22,080	936,734	552,360
-3,746	22,096	935,988	551,947
-2,731	21,971	935,234	551,087
-1,717	21,927	934,656	550,584
-0,702	21,919	934,009	550,156
0,313	21,716	933,421	550,000
1,327	24,879	931,390	558,704
2,342	34,595	795,715	503,193
3,356	32,463	451,465	282,259
4,371	1,269	294,124	152,714
5,386	-3,233	275,009	138,509
6,400	-5,060	269,250	133,898
7,415	-5,508	266,883	132,297
8,429	-4,998	265,516	132,074
9,444	-4,967	264,872	131,771
10,459	-5,004	264,191	131,387
11,473	-5,075	263,517	130,975
12,488	-5,100	263,057	130,713
13,502	-5,201	262,373	130,269
14,517	-5,211	262,128	130,127
15,531	-4,965	261,746	130,148
16,546	-4,974	261,254	129,884
17,561	-5,052	261,024	129,688
18,575	-4,926	260,628	129,592
19,590	-5,032	260,305	129,325
20,604	-4,822	260,072	129,387
21,619	-5,123	259,913	129,026
22,634	-4,956	259,596	129,007
23,648	-5,036	259,260	128,756
24,663	-5,177	258,942	128,461
25,677	-5,098	258,609	128,355
26,692	-4,953	258,315	128,327
27,707	-4,977	258,086	128,180
28,721	-5,109	257,857	127,938
29,736	-4,923	257,504	127,916
30,750	-5,188	257,413	127,624
31,765	-5,086	257,182	127,590
32,780	-5,144	256,715	127,294
33,794	-5,192	256,688	127,227
34,809	-5,124	256,448	127,158
35,823	-5,137	256,171	126,997
36,838	-5,192	256,006	126,855
37,853	-5,120	255,823	126,817
38,867	-5,014	255,496	126,737
39,882	-5,065	255,236	126,552
40,896	-5,213	255,120	126,353
41,911	-5,367	254,830	126,063
42,926	-5,233	254,600	126,055
43,940	-5,227	254,410	125,955
44,955	-5,274	254,100	125,750
45,969	-5,210	253,899	125,695
46,984	-5,629	253,785	125,261
47,999	-5,665	253,344	125,001
49,013	-5,660	253,027	124,838
50,028	-5,690	252,867	124,721
51,042	-5,874	252,582	124,410
52,057	-6,086	252,421	124,135
53,071	-5,883	252,086	124,136
54,086	-5,906	252,035	124,079
55,101	-5,596	251,894	124,268
56,115	-5,527	251,842	124,290
57,130	-5,276	251,720	124,436
58,144	-4,962	251,454	124,565
59,159	-4,934	251,369	124,537
60,174	-5,069	251,156	124,303
61,188	-4,782	250,863	124,395
62,203	-5,061	250,591	124,009
63,217	-5,150	250,618	123,934
64,232	-5,113	250,345	123,820
65,247	-5,206	250,176	123,645
66,261	-5,117	249,874	123,561
67,276	-5,374	249,657	123,222
68,290	-5,417	249,242	122,970
69,305	-5,514	249,091	122,801
70,320	-5,640	249,084	122,679
71,334	-5,243	248,727	122,832
72,349	-4,916	248,586	123,030
73,363	-4,926	248,550	122,992
74,378	-4,943	248,181	122,785
75,393	-4,938	248,114	122,745
76,407	-5,220	247,851	122,364
77,422	-5,138	247,497	122,248
78,436	-5,050	247,393	122,260
79,451	-4,989	247,407	122,309
80,466	-5,035	246,996	122,055
81,480	-5,282	246,828	121,752
82,495	-5,175	246,551	121,695
83,509	-5,350	246,532	121,526
84,524	-5,291	246,220	121,412
85,539	-5,433	246,026	121,186
86,553	-5,299	245,711	121,133
87,568	-5,359	245,648	121,041
88,582	-5,242	245,360	120,986
89,597	-5,262	245,130	120,845
90,611	-5,220	245,095	120,852
91,626	-5,105	245,034	120,908
92,641	-5,195	244,947	120,779
93,655	-5,015	244,479	120,688
94,670	-5,093	244,400	120,573
95,684	-5,166	244,399	120,500
96,699	-5,225	244,147	120,316
97,714	-5,329	243,826	120,061
98,728	-5,378	243,582	119,889
99,743	-5,515	243,325	119,638
100,757	-5,257	243,135	119,748
101,772	-5,327	242,943	119,585
102,787	-5,308	242,949	119,593
103,801	-5,142	242,658	119,577
104,816	-5,081	242,576	119,576
105,830	-4,993	242,320	119,513
106,845	-5,047	242,207	119,402
107,860	-5,126	242,116	119,281
108,874	-5,193	241,737	119,027
109,889	-5,190	241,691	118,997
110,903	-5,068	241,298	118,894
111,918	-5,220	241,202	118,711
112,933	-5,200	241,090	118,661
113,947	-5,184	241,068	118,652
114,962	-5,227	240,879	118,514
115,976	-5,106	240,724	118,527
116,991	-5,162	240,362	118,292
118,006	-5,294	240,332	118,158
119,020	-5,115	240,006	118,133
120,035	-5,071	240,020	118,167
121,049	-5,142	239,955	118,066
122,064	-5,146	239,566	117,860
123,079	-5,213	239,375	117,701
124,093	-5,296	239,250	117,562
125,108	-5,441	239,134	117,376
126,122	-5,666	238,888	117,060
127,137	-5,547	238,665	117,037
128,151	-5,442	238,489	117,026
129,166	-5,430	238,366	116,965
130,181	-5,547	238,059	116,709
131,195	-5,500	237,877	116,648
132,210	-5,482	237,924	116,675
133,224	-5,258	237,624	116,699
134,239	-5,228	237,496	116,650
135,254	-5,216	237,394	116,600
136,268	-5,233	237,079	116,421
137,283	-5,425	236,864	116,150
138,297	-5,483	236,579	115,953
139,312	-5,604	236,504	115,808
140,327	-5,296	236,418	116,004
141,341	-4,882	236,354	116,297
142,356	-4,786	236,202	116,288
143,370	-4,948	236,201	116,147
144,385	-4,938	235,947	116,019
145,400	-4,832	235,771	116,008
146,414	-4,695	235,430	115,940
147,429	-4,822	235,502	115,863
148,443	-5,060	235,316	115,571
149,458	-4,850	234,985	115,565
150,473	-4,961	234,852	115,401
151,487	-5,042	234,664	115,233
152,502	-5,047	234,566	115,171
153,516	-4,735	234,237	115,248
154,531	-4,926	234,163	115,049
155,546	-4,890	234,010	114,992
156,560	-4,860	233,780	114,893
157,575	-4,941	233,441	114,652
158,589	-5,149	233,428	114,470
159,604	-4,808	233,345	114,690
160,619	-4,610	233,297	114,814
161,633	-4,831	233,159	114,560
162,648	-4,847	232,970	114,444
163,662	-5,059	232,881	114,222
164,677	-5,015	232,596	114,107
165,692	-4,669	232,430	114,289
166,706	-4,706	232,337	114,204
167,721	-4,728	232,071	114,046
168,735	-4,644	231,966	114,051
169,750	-4,849	232,006	113,898
170,764	-4,779	231,579	113,733
171,779	-4,780	231,543	113,704
172,794	-4,775	231,393	113,624
173,808	-5,016	231,174	113,318
174,823	-5,384	230,858	112,863
175,837	-5,235	230,503	112,796
176,852	-4,945	230,611	113,067
177,867	-4,758	230,669	113,232
178,881	-5,063	230,509	112,904
179,896	-4,724	230,296	113,055
180,910	-4,592	229,956	112,982
181,925	-4,650	229,971	112,933
182,940	-4,750	229,626	112,676
183,954	-4,698	229,669	112,727
184,969	-4,581	229,561	112,756
185,983	-4,536	229,362	112,683
186,998	-4,719	229,250	112,476
188,013	-4,653	228,956	112,373
189,027	-4,612	228,877	112,356
190,042	-4,556	228,867	112,384
191,056	-4,707	228,542	112,097
192,071	-4,896	228,481	111,911
193,086	-4,915	228,279	111,787
194,100	-4,905	228,071	111,683
195,115	-5,167	227,747	111,312
196,129	-5,683	227,387	110,727
197,144	-2,066	228,637	114,133
198,159	2,086	230,001	118,037
199,173	4,110	230,277	119,744
200,188	4,169	230,244	119,762
201,202	4,241	229,913	119,635
202,217	4,326	229,909	119,688
203,232	4,551	229,894	119,844
204,246	4,606	229,790	119,822
205,261	4,822	229,619	119,889
206,275	4,785	229,455	119,764
207,290	4,968	229,493	119,915
208,304	4,838	229,238	119,670
209,319	4,773	229,028	119,500
210,334	4,931	228,720	119,450
211,348	4,806	228,596	119,279
212,363	4,298	228,397	118,774
213,377	3,845	228,110	118,265
214,392	4,070	227,970	118,355
215,407	4,294	227,790	118,423
216,421	4,253	227,670	118,318
217,436	3,965	227,522	118,010
218,450	3,746	227,365	117,750
219,465	3,775	227,191	117,672
220,480	3,897	227,043	117,678
221,494	3,902	226,831	117,561
222,509	4,111	226,753	117,670
223,523	3,904	226,608	117,426
224,538	3,945	226,469	117,375
225,553	3,956	226,397	117,336
226,567	4,042	226,268	117,324
227,582	4,228	226,225	117,433
228,596	4,259	225,982	117,320
229,611	4,289	225,756	117,215
230,626	3,820	225,673	116,805
231,640	4,035	225,433	116,834
232,655	4,143	225,337	116,855
233,669	4,570	225,279	117,139
234,684	4,699	225,268	117,220
235,699	4,476	225,028	116,916
236,713	4,214	224,734	116,555
237,728	4,078	224,554	116,348
238,742	4,138	224,358	116,282
239,757	4,116	224,248	116,198
240,772	4,119	224,078	116,101
241,786	4,056	223,898	115,950
242,801	4,483	223,687	116,152
243,815	4,282	223,943	116,123
244,830	4,519	223,558	116,091
245,844	4,129	223,462	115,738
246,859	4,287	223,276	115,750
247,874	4,487	223,079	115,787
248,888	4,486	222,935	115,702
249,903	4,492	222,771	115,611
250,917	4,357	222,583	115,402
251,932	4,316	222,503	115,320
252,947	3,751	222,433	114,851
253,961	3,839	222,344	114,860
254,976	4,109	222,100	114,925
255,990	4,212	221,995	114,938
257,005	4,413	221,778	114,965
258,020	4,173	221,857	114,817
259,034	4,516	221,694	114,978
260,049	4,359	221,481	114,740
261,063	4,250	221,246	114,527
262,078	4,639	221,182	114,773
263,093	4,657	221,029	114,696
264,107	4,293	220,886	114,341
265,122	4,515	220,714	114,407
266,136	4,557	220,685	114,413
267,151	4,576	220,383	114,260
268,166	4,402	220,203	114,029
269,180	3,810	220,128	113,542
270,195	3,763	219,958	113,409
271,209	3,833	219,676	113,306
272,224	3,934	219,655	113,359
273,239	4,429	219,543	113,655
274,253	4,027	219,334	113,242
275,268	4,066	219,087	113,132
276,282	3,765	219,033	112,873
277,297	3,565	218,848	112,621
278,312	3,825	218,692	112,722
279,326	3,828	218,649	112,692
280,341	3,840	218,567	112,648
281,355	4,075	218,343	112,695
282,370	4,247	218,184	112,728
283,384	3,901	218,085	112,414
284,399	3,783	217,999	112,274
285,414	3,819	217,736	112,154
286,428	4,005	217,638	112,230
287,443	4,006	217,635	112,218
288,457	4,332	217,486	112,369
289,472	4,242	217,263	112,178
290,487	3,852	217,082	111,792
291,501	3,444	216,909	111,397
292,516	3,940	216,706	111,642
293,530	3,776	216,647	111,482
294,545	3,731	216,612	111,422
295,560	3,894	216,504	111,475
296,574	3,860	216,313	111,342
297,589	4,012	216,237	111,403
298,603	3,961	216,055	111,262
299,618	3,862	216,007	111,156
300,633	4,185	215,722	111,232
301,647	4,280	215,578	111,217
302,662	4,333	215,503	111,207
303,676	4,191	215,395	111,039
304,691	4,285	215,305	111,050
305,706	4,356	215,115	110,993
306,720	4,381	215,017	110,951
307,735	4,080	214,913	110,671
308,749	4,059	214,565	110,467
309,764	4,326	214,463	110,596
310,779	4,450	214,395	110,640
311,793	4,247	214,241	110,405
312,808	3,913	214,275	110,173
313,822	4,165	213,981	110,193
314,837	3,882	213,746	109,859
315,852	3,919	213,593	109,797
316,866	3,918	213,569	109,775
317,881	4,247	213,510	109,969
318,895	4,302	213,340	109,912
319,910	4,217	213,102	109,718
320,925	4,114	212,863	109,512
321,939	3,662	212,801	109,149
322,954	3,798	212,635	109,151
323,968	4,240	212,551	109,411
324,983	4,053	212,561	109,275
325,997	4,340	212,446	109,409
327,012	4,076	212,122	109,045
328,027	4,086	212,068	109,015
329,041	4,414	212,050	109,229
330,056	4,566	211,957	109,279
331,070	4,188	211,662	108,849
332,085	3,682	211,463	108,380
333,100	3,825	211,264	108,369
334,114	3,897	211,254	108,406
335,129	3,927	210,947	108,260
336,143	3,902	210,794	108,154
337,158	3,921	210,806	108,163
338,173	3,994	210,698	108,150
339,187	3,713	210,554	107,869
340,202	3,607	210,386	107,699
341,216	3,656	210,185	107,620
342,231	3,972	210,103	107,790
343,246	4,044	209,911	107,733
344,260	3,891	209,909	107,615
345,275	3,931	209,723	107,538
346,289	4,231	209,636	107,693
347,304	4,349	209,365	107,627
348,319	4,022	209,353	107,383
349,333	4,316	209,095	107,446
350,348	4,280	209,104	107,416
351,362	4,065	209,186	107,299
352,377	4,105	208,951	107,196
353,392	3,936	208,748	106,965
354,406	4,038	208,662	106,982
355,421	194,208	1344,634	1434,448
356,435	154,982	1483,138	1434,574
