DTS Sentinel unit serial number:	SN410029Multiplexer serial number:	ORYXHardware model number:	OX2-SRSoftware version number:	ORYX F/W v4,00 Oryx Data Collector v3.7.2.0data status	okinstallation	B6 Nyhavnadifferential loss correction	single-endedforward channel	channel 2reverse channel	N/Adate	2023/12/10time	09:00:08forward acquisition time	300,00reverse acquisition time	0,00gamma	499,1914k internal	0,3123k external	0,3123temperature offset calibration	1,0000default loss term (dB/km)	0,3820temperature slope calibration	1,0000multiplexer offset coefficient	1,0000multiplexer slope coefficient	1,0000fibre end	0,00T internal ref (°C)	22,56T ext. ref 1 (°C)	6,30T ext. ref 2 (°C)	6,30length (m)	temperature (°C)	Stokes	anti-Stokes-744,400	800,000	0,033	-0,098
-743,385	108,707	-0,218	0,194
-742,371	37,459	0,105	0,070
-741,356	51,550	-0,244	0,173
-740,342	115,264	-0,064	0,058
-739,327	-55,159	-0,124	0,041
-738,312	332,250	-0,061	-0,089
-737,298	374,827	-0,121	0,185
-736,283	-200,000	-0,017	-0,122
-735,269	102,943	-0,139	0,121
-734,254	-31,024	0,032	0,013
-733,239	-60,025	-0,484	-0,153
-732,225	336,996	-0,042	0,062
-731,210	-8,872	0,091	0,045
-730,196	-97,905	0,048	-0,009
-729,181	-21,870	0,063	0,028
-728,167	61,629	-0,104	0,077
-727,152	-93,275	0,112	-0,023
-726,137	-26,300	-0,155	0,068
-725,123	-24,496	-0,156	0,069
-724,108	34,228	0,024	0,015
-723,094	800,000	-0,057	-0,140
-722,079	-200,000	-0,007	-0,099
-721,064	800,000	0,035	-0,073
-720,050	-200,000	-0,011	-0,039
-719,035	-150,285	-0,202	-0,011
-718,021	-200,000	0,013	-0,062
-717,006	-200,000	-0,014	-0,094
-715,991	766,545	0,024	-0,050
-714,977	10,624	-0,042	0,024
-713,962	-51,015	0,147	-0,051
-712,948	-115,556	-0,069	-0,010
-711,933	31,419	0,048	0,031
-710,918	55,813	-0,039	0,028
-709,904	79,683	-0,059	-0,047
-708,889	284,378	0,094	-0,126
-707,875	-200,000	0,010	-0,094
-706,860	56,460	0,049	-0,036
-705,845	78,649	-0,058	0,046
-704,831	-200,000	-0,009	-0,096
-703,816	212,239	-0,049	0,058
-702,802	694,378	-0,048	0,095
-701,787	-45,078	-0,036	-0,013
-700,772	-200,000	0,050	-0,201
-699,758	112,510	0,066	0,060
-698,743	800,000	0,036	0,076
-697,729	60,654	0,050	0,037
-696,714	368,751	-0,066	0,100
-695,699	-200,000	0,017	-0,103
-694,685	800,000	-0,019	-0,060
-693,670	33,290	-0,156	-0,100
-692,656	458,528	-0,002	0,003
-691,641	-6,244	0,052	-0,026
-690,627	-200,000	0,010	-0,119
-689,612	-121,312	0,085	-0,010
-688,597	-120,697	-0,045	0,006
-687,583	-99,071	-0,147	-0,028
-686,568	57,297	0,103	0,075
-685,554	-96,070	0,010	-0,002
-684,539	277,224	0,032	-0,043
-683,524	-200,000	-0,019	-0,067
-682,510	-200,000	-0,005	0,077
-681,495	670,327	-0,042	-0,081
-680,481	224,337	-0,057	-0,069
-679,466	-200,000	-0,000	0,047
-678,451	800,000	0,037	-0,087
-677,437	-92,875	-0,022	0,004
-676,422	-33,730	0,053	0,022
-675,408	42,258	0,032	0,022
-674,393	618,724	-0,061	-0,114
-673,378	-156,760	-0,037	0,002
-672,364	-200,000	0,005	0,035
-671,349	-85,863	-0,018	-0,004
-670,335	-200,000	0,005	-0,067
-669,320	-200,000	0,025	-0,129
-668,305	-97,961	-0,040	-0,008
-667,291	-24,357	-0,062	0,028
-666,276	-68,560	0,082	0,023
-665,262	-134,059	-0,145	-0,013
-664,247	547,468	0,034	0,060
-663,232	143,284	0,039	-0,039
-662,218	777,273	-0,083	0,170
-661,203	-200,000	0,011	0,080
-660,189	-200,000	-0,035	0,131
-659,174	387,933	-0,062	-0,095
-658,159	0,231	-0,025	0,013
-657,145	363,377	0,085	-0,127
-656,130	72,680	-0,029	-0,022
-655,116	-83,158	-0,091	-0,022
-654,101	-73,168	-0,022	0,006
-653,086	377,440	-0,033	-0,050
-652,072	307,444	0,072	-0,100
-651,057	-72,775	-0,142	-0,039
-650,043	-69,854	0,060	-0,017
-649,028	7,013	-0,073	-0,040
-648,014	800,000	-0,029	-0,066
-646,999	380,642	-0,042	-0,064
-645,984	34,092	0,193	-0,125
-644,970	627,941	-0,042	-0,080
-643,955	800,000	-0,052	-0,153
-642,941	-45,697	0,088	0,032
-641,926	-135,282	-0,150	-0,013
-640,911	350,241	0,036	0,053
-639,897	-200,000	0,030	-0,103
-638,882	-56,247	-0,101	-0,033
-637,868	-74,327	0,065	-0,017
-636,853	-200,000	0,017	-0,060
-635,838	-56,846	-0,138	-0,045
-634,824	800,000	0,037	-0,120
-633,809	-42,273	0,092	0,035
-632,795	-120,915	0,148	0,018
-631,780	-54,835	-0,101	-0,034
-630,765	800,000	0,016	0,039
-629,751	800,000	-0,043	-0,092
-628,736	-165,019	-0,212	-0,007
-627,722	-80,663	-0,082	0,020
-626,707	-15,472	0,033	0,015
-625,692	-200,000	0,004	0,040
-624,678	-200,000	0,000	0,117
-623,663	-26,273	0,083	0,036
-622,649	800,000	-0,008	0,024
-621,634	800,000	0,045	-0,105
-620,619	-200,000	0,006	-0,060
-619,605	59,035	0,089	-0,065
-618,590	-7,915	0,084	0,042
-617,576	45,534	-0,073	0,050
-616,561	165,321	-0,086	-0,090
-615,546	-200,000	0,012	-0,054
-614,532	202,366	-0,058	-0,066
-613,517	-22,188	-0,012	0,005
-612,503	-117,356	-0,209	0,028
-611,488	130,446	0,050	0,048
-610,474	-92,722	0,044	-0,009
-609,459	31,886	0,074	0,047
-608,444	-191,548	-0,041	-0,000
-607,430	-9,814	0,072	-0,035
-606,415	498,176	-0,058	0,099
-605,401	-14,542	-0,069	-0,033
-604,386	-71,227	-0,172	0,048
-603,371	210,002	0,075	0,087
-602,357	27,715	-0,047	0,029
-601,342	277,298	0,074	-0,097
-600,328	5,838	-0,122	-0,067
-599,313	-200,000	-0,005	-0,031
-598,298	800,000	0,034	-0,106
-597,284	51,688	0,051	-0,036
-596,269	800,000	0,048	-0,139
-595,255	340,728	-0,006	0,008
-594,240	800,000	-0,057	0,130
-593,225	-200,000	0,041	-0,179
-592,211	548,720	-0,083	0,148
-591,196	68,048	-0,067	0,051
-590,182	94,449	0,065	0,055
-589,167	-200,000	-0,014	0,130
-588,152	-200,000	0,001	0,102
-587,138	630,474	-0,038	0,071
-586,123	146,513	-0,071	-0,070
-585,109	-103,030	0,136	0,024
-584,094	120,002	0,093	0,086
-583,079	34,578	-0,036	-0,023
-582,065	74,943	-0,047	0,037
-581,050	800,000	-0,005	0,015
-580,036	138,176	-0,043	0,042
-579,021	513,349	0,046	0,080
-578,006	85,182	-0,074	0,060
-576,992	754,940	0,044	0,088
-575,977	-21,222	0,110	-0,050
-574,963	-65,570	0,213	-0,063
-573,948	800,000	-0,015	0,035
-572,934	-134,378	0,048	0,004
-571,919	334,550	0,018	-0,026
-570,904	301,379	-0,058	-0,079
-569,890	61,336	-0,134	0,099
-568,875	-73,350	-0,125	-0,034
-567,861	136,162	0,034	-0,033
-566,846	318,986	0,096	0,135
-565,831	139,548	-0,010	0,009
-564,817	-84,692	-0,029	-0,007
-563,802	170,933	-0,056	-0,059
-562,788	-55,304	0,023	-0,008
-561,773	-13,905	0,069	-0,033
-560,758	-64,063	-0,018	-0,006
-559,744	-200,000	0,012	0,113
-558,729	-200,000	0,007	-0,048
-557,715	-200,000	-0,030	-0,127
-556,700	10,143	-0,025	-0,014
-555,685	323,275	0,084	-0,119
-554,671	-200,000	-0,012	-0,058
-553,656	-71,649	0,060	0,016
-552,642	-25,559	0,215	-0,094
-551,627	-134,174	-0,061	-0,005
-550,612	0,106	-0,048	0,025
-549,598	-200,000	0,012	-0,076
-548,583	-176,605	-0,070	-0,001
-547,569	145,802	-0,031	0,031
-546,554	800,000	0,052	0,108
-545,539	-0,042	0,163	-0,086
-544,525	-158,722	-0,119	-0,005
-543,510	-87,484	-0,085	-0,019
-542,496	-200,000	0,000	-0,031
-541,481	4,355	-0,079	-0,043
-540,466	55,116	0,069	-0,049
-539,452	266,937	0,032	0,041
-538,437	-110,314	-0,091	0,014
-537,423	467,841	-0,044	-0,073
-536,408	-136,951	-0,125	-0,010
-535,393	-23,268	-0,127	-0,056
-534,379	422,794	0,068	-0,108
-533,364	-200,000	-0,006	0,038
-532,350	-200,000	0,021	0,127
-531,335	-56,312	-0,066	-0,022
-530,321	-111,675	-0,074	-0,011
-529,306	-200,000	0,019	0,084
-528,291	-147,945	-0,127	-0,008
-527,277	34,050	-0,140	-0,090
-526,262	-121,764	0,076	0,009
-525,248	-200,000	0,009	0,034
-524,233	800,000	0,028	-0,070
-523,218	537,572	0,043	0,076
-522,204	-71,258	0,131	-0,036
-521,189	715,068	-0,099	-0,194
-520,175	800,000	-0,061	-0,162
-519,160	-154,729	0,097	0,005
-518,145	-200,000	0,018	0,065
-517,131	237,440	0,027	0,033
-516,116	348,932	-0,085	0,124
-515,102	-199,409	-0,107	-0,000
-514,087	29,246	-0,124	-0,078
-513,072	-138,135	-0,004	-0,000
-512,058	800,000	-0,049	-0,123
-511,043	800,000	0,024	-0,056
-510,029	226,838	-0,055	0,066
-509,014	21,348	0,051	-0,031
-507,999	-200,000	0,013	-0,082
-506,985	800,000	-0,036	-0,081
-505,970	-200,000	-0,050	0,186
-504,956	-200,000	0,010	-0,038
-503,941	-200,000	-0,003	-0,190
-502,926	-118,812	0,062	0,008
-501,912	43,414	0,063	-0,042
-500,897	-200,000	-0,011	-0,043
-499,883	-159,953	-0,049	0,002
-498,868	-34,682	-0,174	0,070
-497,853	-200,000	-0,060	-0,198
-496,839	80,135	0,038	0,030
-495,824	-86,866	0,013	-0,003
-494,810	221,552	0,097	-0,115
-493,795	203,212	-0,139	0,159
-492,781	-76,379	-0,167	0,043
-491,766	-159,599	0,126	0,005
-490,751	-108,046	-0,094	0,015
-489,737	63,948	-0,072	0,053
-488,722	-200,000	0,010	0,111
-487,708	89,693	-0,077	-0,063
-486,693	16,576	-0,082	0,048
-485,678	9,541	-0,037	0,020
-484,664	-200,000	0,003	-0,036
-483,649	-16,865	-0,075	-0,035
-482,635	800,000	0,011	-0,027
-481,620	685,369	0,038	0,074
-480,605	-103,243	0,046	0,008
-479,591	664,649	0,012	0,024
-478,576	450,187	-0,035	-0,058
-477,562	800,000	0,027	-0,083
-476,547	283,159	-0,046	-0,061
-475,532	69,986	-0,135	-0,103
-474,518	74,954	0,064	0,050
-473,503	800,000	0,050	0,136
-472,489	-200,000	0,035	0,114
-471,474	267,485	-0,070	0,090
-470,459	30,035	-0,021	-0,013
-469,445	800,000	-0,025	0,059
-468,430	94,240	0,058	0,049
-467,416	193,485	0,069	0,077
-466,401	800,000	0,072	-0,158
-465,386	34,960	0,037	0,024
-464,372	22,880	0,079	0,048
-463,357	143,295	0,072	0,070
-462,343	-32,507	-0,109	-0,045
-461,328	-200,000	0,009	0,092
-460,313	-144,694	-0,103	-0,007
-459,299	-186,468	0,127	-0,001
-458,284	87,541	0,059	0,048
-457,270	319,038	-0,085	-0,118
-456,255	-37,390	-0,035	0,014
-455,241	-63,486	-0,095	-0,029
-454,226	-61,435	0,058	0,018
-453,211	800,000	-0,028	-0,059
-452,197	-200,000	0,002	-0,017
-451,182	-200,000	-0,010	0,129
-450,168	105,134	-0,071	0,061
-449,153	29,152	0,078	0,049
-448,138	-99,337	0,042	-0,008
-447,124	114,027	0,024	-0,021
-446,109	-200,000	-0,002	-0,068
-445,095	-200,000	-0,017	0,104
-444,080	-106,253	-0,054	0,009
-443,065	-200,000	-0,021	-0,111
-442,051	156,069	0,070	0,071
-441,036	-200,000	-0,036	0,170
-440,022	222,405	-0,035	0,041
-439,007	190,398	-0,042	-0,047
-437,992	5,475	0,062	0,033
-436,978	-200,000	0,013	0,142
-435,963	-185,798	-0,057	-0,001
-434,949	42,737	0,014	-0,010
-433,934	-200,000	-0,005	-0,035
-432,919	-113,735	0,063	-0,009
-431,905	-200,000	0,026	-0,164
-430,890	88,060	0,067	0,055
-429,876	-108,222	-0,101	0,016
-428,861	800,000	-0,019	-0,047
-427,846	800,000	-0,039	0,093
-426,832	800,000	0,071	-0,163
-425,817	-200,000	-0,017	-0,089
-424,803	100,389	-0,105	0,090
-423,788	16,066	0,093	0,054
-422,773	31,417	0,074	0,047
-421,759	91,298	0,072	0,060
-420,744	800,000	-0,014	-0,043
-419,730	85,803	-0,064	-0,052
-418,715	800,000	0,038	-0,086
-417,701	-59,786	0,120	-0,038
-416,686	-200,000	-0,008	-0,088
-415,671	-70,277	0,050	-0,014
-414,657	63,051	0,063	0,046
-413,642	800,000	0,035	-0,090
-412,628	244,872	-0,018	-0,022
-411,613	-90,706	0,106	-0,022
-410,598	12,739	0,090	0,051
-409,584	16,640	-0,091	0,053
-408,569	-200,000	-0,020	0,104
-407,555	176,241	-0,012	0,013
-406,540	-13,358	0,060	0,028
-405,525	-200,000	-0,034	-0,161
-404,511	236,174	-0,103	-0,125
-403,496	800,000	0,068	-0,188
-402,482	-10,440	-0,061	0,030
-401,467	44,490	0,108	0,073
-400,452	165,943	0,080	0,083
-399,438	-200,000	-0,004	0,185
-398,423	-4,790	0,059	0,030
-397,409	-2,509	0,049	0,025
-396,394	280,268	0,025	-0,032
-395,379	-200,000	0,002	-0,075
-394,365	-200,000	0,016	0,072
-393,350	-200,000	-0,007	-0,073
-392,336	97,138	0,147	0,124
-391,321	140,032	-0,037	0,036
-390,306	-117,090	0,089	-0,012
-389,292	30,363	-0,044	0,028
-388,277	63,852	-0,106	0,078
-387,263	800,000	0,037	0,112
-386,248	-80,568	0,119	-0,029
-385,233	196,869	0,042	-0,047
-384,219	143,992	-0,085	0,083
-383,204	-200,000	-0,007	0,039
-382,190	425,176	0,042	-0,067
-381,175	163,029	0,040	-0,041
-380,160	224,969	-0,090	0,107
-379,146	-200,000	0,014	0,058
-378,131	113,724	0,083	0,074
-377,117	-200,000	0,008	0,081
-376,102	176,068	0,040	-0,043
-375,088	800,000	0,051	-0,114
-374,073	353,523	-0,039	0,058
-373,058	-186,583	-0,114	-0,001
-372,044	-64,528	0,077	-0,023
-371,029	-200,000	-0,000	0,186
-370,015	-200,000	-0,028	-0,100
-369,000	171,170	0,013	0,014
-367,985	260,773	-0,043	-0,054
-366,971	510,380	0,020	0,035
-365,956	221,020	0,109	0,128
-364,942	24,098	0,072	0,043
-363,927	68,866	-0,039	-0,030
-362,912	-57,534	-0,012	-0,004
-361,898	155,195	-0,067	0,068
-360,883	265,302	-0,046	-0,059
-359,869	198,335	0,086	-0,096
-358,854	174,131	0,114	0,121
-357,839	800,000	0,041	0,099
-356,825	2,859	-0,041	-0,022
-355,810	-200,000	-0,004	-0,124
-354,796	-200,000	0,001	-0,048
-353,781	-127,791	0,049	-0,005
-352,766	-200,000	-0,004	0,097
-351,752	535,026	-0,111	-0,194
-350,737	-200,000	0,009	0,039
-349,723	800,000	0,063	0,155
-348,708	800,000	0,026	0,058
-347,693	-200,000	0,004	-0,039
-346,679	342,626	-0,033	0,047
-345,664	26,881	-0,025	-0,015
-344,650	-200,000	0,014	-0,067
-343,635	-200,000	0,034	0,147
-342,620	-176,081	-0,093	0,002
-341,606	-131,896	-0,039	0,004
-340,591	-68,601	0,036	0,010
-339,577	-13,120	-0,059	0,028
-338,562	212,721	0,016	-0,018
-337,548	11,738	-0,052	0,029
-336,533	-147,532	0,060	-0,004
-335,518	-200,000	0,007	0,040
-334,504	198,271	0,064	0,072
-333,489	-190,583	-0,184	-0,001
-332,475	-63,539	0,041	0,012
-331,460	61,597	-0,057	-0,041
-330,445	-78,375	-0,051	-0,013
-329,431	495,888	-0,025	0,042
-328,416	92,426	0,092	-0,076
-327,402	81,727	0,082	-0,065
-326,387	128,959	-0,075	-0,070
-325,372	-200,000	-0,044	-0,193
-324,358	800,000	-0,060	-0,165
-323,343	106,447	-0,037	-0,032
-322,329	229,096	-0,048	0,058
-321,314	87,300	-0,023	-0,018
-320,299	59,580	0,013	0,009
-319,285	56,451	-0,029	0,021
-318,270	-30,251	0,017	-0,007
-317,256	-47,322	-0,072	-0,025
-316,241	322,065	-0,063	-0,089
-315,226	348,568	0,090	0,130
-314,212	-200,000	0,032	0,212
-313,197	-200,000	-0,035	0,138
-312,183	800,000	-0,042	-0,097
-311,168	-111,508	0,157	-0,023
-310,153	-200,000	-0,008	0,068
-309,139	-127,161	-0,026	0,003
-308,124	31,375	-0,130	0,082
-307,110	-200,000	0,006	-0,031
-306,095	-27,878	0,083	0,035
-305,080	17,400	0,042	0,025
-304,066	1,648	0,046	0,024
-303,051	42,216	0,062	-0,041
-302,037	800,000	-0,043	-0,115
-301,022	190,371	-0,039	-0,043
-300,008	-122,765	0,092	0,011
-298,993	-200,000	-0,004	-0,063
-297,978	316,956	0,068	0,094
-296,964	800,000	-0,046	0,115
-295,949	-84,343	0,074	0,017
-294,935	265,574	-0,060	0,077
-293,920	800,000	0,058	0,133
-292,905	-200,000	0,021	-0,069
-291,891	-87,585	0,042	-0,009
-290,876	153,745	-0,023	0,023
-289,862	-57,834	-0,094	-0,030
-288,847	126,247	0,057	-0,053
-287,832	-200,000	0,008	0,067
-286,818	800,000	0,016	-0,049
-285,803	311,253	0,072	0,099
-284,789	82,989	0,069	0,055
-283,774	-19,261	0,048	-0,022
-282,759	131,115	-0,089	0,084
-281,745	79,494	-0,085	0,067
-280,730	-162,715	-0,028	-0,001
-279,716	800,000	0,033	-0,093
-278,701	280,557	-0,032	-0,042
-277,686	-163,790	0,054	-0,002
-276,672	216,289	0,033	0,038
-275,657	162,658	-0,047	-0,048
-274,643	-130,246	-0,083	0,008
-273,628	471,546	0,030	-0,050
-272,613	800,000	-0,080	-0,230
-271,599	-104,193	0,157	-0,026
-270,584	-175,864	-0,113	0,002
-269,570	142,157	0,080	0,077
-268,555	-200,000	0,005	0,099
-267,540	-200,000	0,000	-0,177
-266,526	205,895	0,043	0,048
-265,511	-132,845	-0,096	-0,009
-264,497	-93,070	0,127	0,026
-263,482	-200,000	0,016	-0,070
-262,467	13,945	-0,032	-0,018
-261,453	94,942	0,067	-0,056
-260,438	-74,864	0,133	0,035
-259,424	-66,878	-0,252	0,072
-258,409	312,801	0,019	0,027
-257,395	176,749	-0,064	-0,068
-256,380	289,729	0,073	0,097
-255,365	179,049	-0,007	0,008
-254,351	507,125	0,003	-0,006
-253,336	486,458	0,038	0,064
-252,322	32,389	-0,081	0,051
-251,307	-17,005	0,054	-0,025
-250,292	800,000	0,009	0,030
-249,278	-200,000	-0,015	-0,174
-248,263	-200,000	-0,000	0,110
-247,249	126,651	0,057	-0,053
-246,234	-200,000	0,046	-0,162
-245,219	672,984	-0,017	-0,033
-244,205	-86,033	-0,136	0,031
-243,190	320,162	0,089	-0,124
-242,176	-200,000	0,000	0,023
-241,161	797,193	0,043	-0,087
-240,146	106,551	0,080	0,070
-239,132	282,795	0,076	-0,099
-238,117	487,667	-0,060	-0,101
-237,103	-55,230	-0,055	-0,018
-236,088	0,568	0,075	0,039
-235,073	27,310	-0,053	0,032
-234,059	800,000	-0,046	0,105
-233,044	-200,000	-0,023	0,135
-232,030	-200,000	-0,026	0,176
-231,015	10,370	0,082	-0,045
-230,000	-146,925	-0,017	0,001
-228,986	-143,710	-0,164	0,011
-227,971	-200,000	0,034	0,129
-226,957	80,523	0,110	0,087
-225,942	-84,694	-0,167	-0,038
-224,927	-100,418	0,088	0,016
-223,913	800,000	0,031	-0,078
-222,898	232,302	-0,042	-0,050
-221,884	800,000	0,044	-0,137
-220,869	-200,000	0,050	0,183
-219,855	-200,000	0,016	0,065
-218,840	67,591	0,118	0,088
-217,825	-182,961	-0,153	-0,002
-216,811	-200,000	-0,011	-0,322
-215,796	-200,000	0,008	0,106
-214,782	-86,613	-0,217	0,048
-213,767	447,214	0,053	-0,086
-212,752	-200,000	-0,007	0,049
-211,738	151,214	0,132	0,131
-210,723	39,709	-0,080	-0,053
-209,709	-200,000	0,004	-0,025
-208,694	-63,675	0,098	-0,029
-207,679	50,836	0,136	-0,094
-206,665	299,925	0,060	0,081
-205,650	-200,000	0,001	-0,029
-204,636	428,155	-0,071	0,113
-203,621	-123,911	0,030	-0,003
-202,606	-21,452	-0,031	0,014
-201,592	-48,757	0,036	-0,013
-200,577	681,130	-0,014	-0,026
-199,563	-178,903	0,047	0,001
-198,548	-46,217	0,145	-0,052
-197,533	-93,701	0,080	-0,016
-196,519	-200,000	-0,019	0,066
-195,504	-107,512	-0,073	0,012
-194,490	12,755	-0,031	0,018
-193,475	-31,815	0,007	-0,003
-192,460	323,240	-0,076	0,106
-191,446	27,194	0,029	0,017
-190,431	2,320	0,102	0,054
-189,417	-48,861	-0,138	0,048
-188,402	-25,512	0,112	-0,048
-187,387	800,000	-0,038	0,094
-186,373	-91,511	-0,055	0,011
-185,358	-90,013	-0,029	0,006
-184,344	105,099	0,065	0,056
-183,329	-69,272	-0,110	-0,031
-182,315	800,000	-0,028	0,070
-181,300	77,911	-0,107	-0,083
-180,285	800,000	-0,034	0,079
-179,271	245,320	-0,132	-0,162
-178,256	-138,161	-0,023	-0,002
-177,242	-200,000	-0,015	-0,058
-176,227	-105,239	-0,061	0,010
-175,212	-152,065	0,085	-0,004
-174,198	-200,000	0,057	0,201
-173,183	800,000	-0,041	0,113
-172,169	800,000	-0,008	-0,018
-171,154	-200,000	0,015	-0,119
-170,139	-1,867	0,058	-0,030
-169,125	-6,663	0,030	0,015
-168,110	481,505	0,060	0,099
-167,096	154,590	0,121	0,122
-166,081	248,163	0,062	0,077
-165,066	48,188	0,072	0,049
-164,052	142,717	0,124	-0,120
-163,037	212,802	-0,012	-0,014
-162,023	800,000	0,015	-0,036
-161,008	-19,431	-0,039	-0,017
-159,993	-200,000	0,039	-0,186
-158,979	-200,000	-0,008	-0,088
-157,964	194,743	-0,044	0,049
-156,950	800,000	0,089	-0,215
-155,935	106,394	0,099	-0,085
-154,920	-109,450	-0,045	0,007
-153,906	800,000	0,039	0,098
-152,891	-143,733	-0,054	-0,004
-151,877	-64,519	0,102	-0,030
-150,862	161,457	-0,038	-0,039
-149,847	-200,000	-0,002	0,157
-148,833	-20,676	-0,155	0,069
-147,818	257,188	0,069	0,087
-146,804	-200,000	-0,003	0,025
-145,789	442,001	0,115	0,183
-144,775	12,461	-0,083	0,046
-143,760	138,371	-0,078	-0,074
-142,745	-162,510	-0,113	0,004
-141,731	196,248	-0,136	-0,151
-140,716	94,270	0,074	0,061
-139,702	169,196	0,082	-0,085
-138,687	800,000	-0,029	0,093
-137,672	109,904	0,036	-0,032
-136,658	506,886	-0,021	0,036
-135,643	-200,000	0,011	0,120
-134,629	-107,263	-0,033	-0,005
-133,614	53,145	0,071	-0,050
-132,599	-47,743	-0,133	0,047
-131,585	111,440	-0,032	-0,028
-130,570	800,000	0,020	0,044
-129,556	119,504	0,031	0,028
-128,541	-39,808	-0,086	-0,033
-127,526	800,000	-0,032	0,072
-126,512	278,286	-0,019	-0,025
-125,497	-200,000	0,007	0,072
-124,483	522,319	-0,050	0,086
-123,468	800,000	-0,018	-0,038
-122,453	-31,046	-0,074	0,030
-121,439	187,305	-0,040	-0,044
-120,424	420,614	-0,062	0,097
-119,410	185,980	0,042	-0,045
-118,395	-200,000	0,025	0,098
-117,380	304,879	0,008	0,011
-116,366	155,432	0,103	0,104
-115,351	65,688	0,038	-0,028
-114,337	406,007	-0,074	-0,115
-113,322	141,680	0,055	0,053
-112,307	155,776	-0,035	0,035
-111,293	254,390	-0,029	-0,036
-110,278	-200,000	0,000	0,051
-109,264	-135,511	-0,048	-0,004
-108,249	67,812	-0,150	-0,111
-107,234	-106,994	-0,144	-0,023
-106,220	-29,385	0,052	-0,022
-105,205	7,196	0,060	-0,033
-104,191	97,243	-0,060	0,050
-103,176	448,152	-0,033	0,053
-102,162	83,965	0,071	0,056
-101,147	-13,675	-0,067	0,032
-100,132	-54,581	-0,086	0,028
-99,118	-78,355	0,152	0,038
-98,103	-200,000	0,016	-0,054
-97,089	-144,838	-0,039	-0,003
-96,074	-200,000	0,004	0,066
-95,059	682,383	0,035	0,067
-94,045	-22,052	-0,057	0,025
-93,030	59,156	-0,055	0,039
-92,016	30,664	-0,059	0,036
-91,001	247,716	-0,016	0,019
-89,986	-47,355	0,177	-0,062
-88,972	-200,000	-0,008	-0,045
-87,957	-200,000	0,008	-0,193
-86,943	-200,000	-0,021	-0,081
-85,928	800,000	-0,046	-0,118
-84,913	-200,000	-0,015	-0,079
-83,899	800,000	-0,013	0,026
-82,884	-200,000	0,002	0,116
-81,870	123,695	-0,027	0,025
-80,855	-135,438	0,021	-0,002
-79,840	721,815	-0,024	-0,047
-78,826	-200,000	0,003	-0,031
-77,811	800,000	-0,045	-0,105
-76,797	96,464	-0,021	0,017
-75,782	800,000	0,012	-0,030
-74,767	-122,695	-0,074	0,009
-73,753	-17,604	-0,042	-0,019
-72,738	-200,000	0,015	0,113
-71,724	4,973	0,051	0,027
-70,709	49,674	0,027	-0,018
-69,694	-63,423	0,118	-0,035
-68,680	-200,000	-0,020	-0,088
-67,665	800,000	0,025	-0,059
-66,651	-82,680	0,108	0,025
-65,636	800,000	-0,022	-0,048
-64,622	-85,441	0,008	-0,002
-63,607	19,983	-0,141	-0,082
-62,592	716,835	-0,063	-0,121
-61,578	461,378	0,076	0,123
-60,563	308,157	0,096	-0,130
-59,549	-200,000	-0,016	0,071
-58,534	-150,586	-1,272	-0,069
-57,519	800,000	-0,658	-1,501
-56,505	-200,000	-0,892	-4,453
-55,490	-8,912	0,739	-0,358
-54,476	800,000	4,997	11,900
-53,461	-200,000	13,504	252,969
-52,446	-200,000	688,971	2267,485
-51,432	595,248	1622,696	2925,682
-50,417	120,604	1635,906	1475,010
-49,403	73,619	1289,965	979,481
-48,388	38,341	1025,021	661,190
-47,373	24,492	982,332	588,099
-46,359	23,722	972,128	579,442
-45,344	22,864	967,714	573,983
-44,330	22,714	966,391	572,687
-43,315	22,623	964,974	571,527
-42,300	22,600	964,057	570,888
-41,286	22,606	963,087	570,309
-40,271	22,602	962,033	569,650
-39,257	22,583	961,058	568,987
-38,242	22,551	960,334	568,432
-37,227	22,533	959,479	567,846
-36,213	22,599	958,465	567,438
-35,198	22,545	957,655	566,761
-34,184	22,602	957,037	566,556
-33,169	22,571	956,056	565,851
-32,154	22,619	955,202	565,479
-31,140	22,621	954,292	564,926
-30,125	22,562	953,640	564,326
-29,111	22,658	952,687	564,050
-28,096	22,623	952,009	563,512
-27,082	22,605	951,360	563,050
-26,067	22,606	950,752	562,670
-25,052	22,627	949,813	562,159
-24,038	22,584	949,315	561,704
-23,023	22,570	948,473	561,140
-22,009	22,598	947,888	560,860
-20,994	22,618	947,313	560,562
-19,979	22,645	946,596	560,202
-18,965	22,612	946,046	559,749
-17,950	22,618	945,393	559,358
-16,936	22,523	944,880	558,730
-15,921	22,520	944,060	558,213
-14,906	22,504	943,276	557,677
-13,892	22,505	942,592	557,253
-12,877	22,549	942,026	557,037
-11,863	22,467	941,451	556,413
-10,848	22,428	941,094	556,057
-9,833	22,627	940,516	556,325
-8,819	22,552	939,998	555,759
-7,804	22,518	939,118	555,110
-6,790	22,444	938,767	554,644
-5,775	22,488	938,034	554,330
-4,760	22,505	937,381	553,974
-3,746	22,474	936,805	553,515
-2,731	22,340	936,100	552,652
-1,717	22,337	935,320	552,159
-0,702	22,278	934,778	551,634
0,313	22,126	933,903	551,469
1,327	25,133	932,125	559,829
2,342	34,747	796,731	504,139
3,356	32,744	451,827	282,854
4,371	1,903	293,849	153,182
5,386	-2,655	274,698	138,873
6,400	-4,175	268,972	134,555
7,415	-4,769	266,398	132,710
8,429	-4,204	265,192	132,614
9,444	-4,335	264,461	132,117
10,459	-4,237	263,710	131,820
11,473	-4,438	263,089	131,315
12,488	-4,487	262,704	131,067
13,502	-4,495	262,110	130,751
14,517	-4,372	261,626	130,609
15,531	-4,436	261,402	130,428
16,546	-4,199	260,882	130,370
17,561	-4,359	260,662	130,105
18,575	-4,189	260,271	130,050
19,590	-4,489	260,006	129,638
20,604	-4,395	259,699	129,558
21,619	-4,629	259,460	129,217
22,634	-4,361	258,809	129,120
23,648	-4,534	258,576	128,839
24,663	-4,590	258,615	128,797
25,677	-4,372	258,232	128,789
26,692	-4,272	257,869	128,685
27,707	-4,314	257,626	128,515
28,721	-4,445	257,337	128,243
29,736	-4,619	257,197	128,008
30,750	-4,630	256,926	127,851
31,765	-4,608	256,765	127,780
32,780	-4,617	256,466	127,611
33,794	-4,372	256,228	127,697
34,809	-4,515	256,045	127,470
35,823	-4,398	255,844	127,460
36,838	-4,434	255,390	127,191
37,853	-4,429	255,167	127,073
38,867	-4,530	255,085	126,932
39,882	-4,425	254,801	126,872
40,896	-4,562	254,476	126,579
41,911	-4,742	254,468	126,406
42,926	-4,526	254,112	126,407
43,940	-4,588	253,891	126,231
44,955	-4,645	253,670	126,060
45,969	-4,585	253,612	126,073
46,984	-5,012	253,267	125,518
47,999	-5,248	252,987	125,162
49,013	-5,157	252,743	125,110
50,028	-5,233	252,445	124,885
51,042	-5,304	252,285	124,734
52,057	-4,967	251,929	124,838
53,071	-5,178	251,678	124,520
54,086	-5,070	251,627	124,577
55,101	-5,053	251,507	124,521
56,115	-4,875	251,397	124,609
57,130	-4,622	251,526	124,881
58,144	-4,210	251,238	125,083
59,159	-4,279	250,860	124,824
60,174	-4,198	250,727	124,816
61,188	-4,197	250,413	124,650
62,203	-4,275	250,353	124,542
63,217	-4,354	250,029	124,301
64,232	-4,316	249,913	124,265
65,247	-4,409	249,606	124,022
66,261	-4,394	249,473	123,958
67,276	-4,824	249,131	123,409
68,290	-4,661	249,055	123,500
69,305	-4,868	248,726	123,148
70,320	-4,973	248,472	122,923
71,334	-4,648	248,424	123,165
72,349	-4,512	248,233	123,175
73,363	-4,427	247,984	123,113
74,378	-4,318	247,784	123,096
75,393	-4,341	247,631	122,988
76,407	-4,295	247,291	122,848
77,422	-4,426	247,399	122,779
78,436	-4,507	247,086	122,545
79,451	-4,420	246,836	122,483
80,466	-4,532	246,660	122,290
81,480	-4,690	246,448	122,041
82,495	-4,787	246,299	121,874
83,509	-4,653	246,086	121,871
84,524	-4,839	245,897	121,609
85,539	-4,817	245,635	121,488
86,553	-4,851	245,438	121,351
87,568	-4,663	245,263	121,411
88,582	-4,848	245,175	121,202
89,597	-4,698	244,823	121,143
90,611	-4,654	244,727	121,121
91,626	-4,489	244,688	121,229
92,641	-4,473	244,539	121,158
93,655	-4,492	244,312	121,019
94,670	-4,631	243,939	120,707
95,684	-4,611	243,733	120,612
96,699	-4,495	243,590	120,627
97,714	-4,749	243,423	120,322
98,728	-4,917	243,383	120,151
99,743	-4,796	242,926	120,015
100,757	-4,989	242,919	119,841
101,772	-4,889	242,737	119,823
102,787	-4,852	242,561	119,756
103,801	-4,664	242,345	119,795
104,816	-4,720	242,245	119,689
105,830	-4,632	242,199	119,728
106,845	-4,228	241,874	119,891
107,860	-4,329	241,553	119,638
108,874	-4,710	241,381	119,227
109,889	-4,542	241,212	119,272
110,903	-4,601	241,075	119,145
111,918	-4,628	240,990	119,070
112,933	-4,758	240,823	118,869
113,947	-4,752	240,759	118,833
114,962	-4,500	240,426	118,864
115,976	-4,419	240,259	118,838
116,991	-4,452	240,138	118,741
118,006	-4,561	239,932	118,539
119,020	-4,488	239,755	118,501
120,035	-4,565	239,722	118,411
121,049	-4,418	239,452	118,387
122,064	-4,234	239,290	118,446
123,079	-4,369	239,220	118,291
124,093	-4,629	239,037	117,978
125,108	-4,851	238,762	117,651
126,122	-4,883	238,525	117,497
127,137	-4,910	238,343	117,375
128,151	-4,830	238,180	117,349
129,166	-4,883	238,064	117,238
130,181	-4,668	237,671	117,209
131,195	-4,867	237,610	117,007
132,210	-4,435	237,378	117,233
133,224	-4,569	237,304	117,077
134,239	-4,619	237,196	116,973
135,254	-4,412	237,034	117,049
136,268	-4,514	236,717	116,800
137,283	-5,017	236,592	116,322
138,297	-5,193	236,264	116,009
139,312	-4,944	235,929	116,034
140,327	-4,866	236,051	116,147
141,341	-4,463	236,073	116,472
142,356	-4,141	235,815	116,594
143,370	-4,240	235,777	116,484
144,385	-4,205	235,687	116,457
145,400	-4,129	235,392	116,363
146,414	-4,241	235,202	116,168
147,429	-4,311	235,108	116,056
148,443	-4,192	234,830	116,003
149,458	-4,065	234,630	115,996
150,473	-4,085	234,577	115,943
151,487	-4,337	234,554	115,720
152,502	-4,272	234,249	115,611
153,516	-4,049	234,014	115,663
154,531	-4,229	233,797	115,402
155,546	-4,231	233,690	115,337
156,560	-4,245	233,558	115,251
157,575	-4,464	233,486	115,031
158,589	-4,340	233,009	114,884
159,604	-4,050	233,022	115,110
160,619	-3,985	232,907	115,095
161,633	-4,166	232,748	114,862
162,648	-4,080	232,557	114,826
163,662	-4,356	232,460	114,549
164,677	-4,232	232,189	114,503
165,692	-4,357	232,199	114,399
166,706	-4,159	231,926	114,411
167,721	-4,058	231,796	114,416
168,735	-4,009	231,635	114,365
169,750	-4,074	231,572	114,273
170,764	-4,193	231,521	114,144
171,779	-4,137	231,275	114,057
172,794	-3,926	231,022	114,087
173,808	-4,296	230,999	113,774
174,823	-4,625	230,451	113,237
175,837	-4,988	230,505	112,968
176,852	-4,515	230,362	113,259
177,867	-4,265	230,319	113,424
178,881	-4,429	230,215	113,234
179,896	-4,097	230,118	113,436
180,910	-3,999	229,814	113,352
181,925	-4,260	229,697	113,081
182,940	-4,260	229,574	113,010
183,954	-4,255	229,533	112,984
184,969	-4,041	229,148	112,951
185,983	-3,966	229,061	112,956
186,998	-3,970	228,838	112,833
188,013	-4,009	228,807	112,777
189,027	-3,770	228,610	112,856
190,042	-3,956	228,397	112,596
191,056	-3,991	228,360	112,541
192,071	-4,025	228,229	112,440
193,086	-4,019	228,086	112,364
194,100	-3,971	227,861	112,280
195,115	-4,408	227,596	111,803
196,129	-4,853	227,284	111,296
197,144	-1,250	228,414	114,631
198,159	2,645	229,521	118,202
199,173	3,945	229,740	119,313
200,188	4,039	229,650	119,328
201,202	4,092	229,418	119,238
202,217	4,324	229,350	119,371
203,232	4,614	229,147	119,479
204,246	4,744	229,244	119,620
205,261	4,534	229,059	119,351
206,275	4,895	228,764	119,465
207,290	4,728	228,878	119,384
208,304	4,775	228,599	119,264
209,319	4,904	228,338	119,217
210,334	4,688	228,341	119,042
211,348	4,446	228,022	118,678
212,363	4,271	227,631	118,330
213,377	3,971	227,483	118,012
214,392	4,025	227,402	118,002
215,407	3,786	227,231	117,719
216,421	4,255	227,066	117,983
217,436	4,083	227,007	117,810
218,450	3,890	226,581	117,431
219,465	3,521	226,715	117,207
220,480	3,692	226,458	117,195
221,494	3,600	226,242	117,002
222,509	3,973	226,150	117,228
223,523	3,803	226,055	117,039
224,538	3,623	225,965	116,846
225,553	3,808	225,839	116,911
226,567	3,969	225,812	117,008
227,582	4,106	225,727	117,059
228,596	4,167	225,546	117,000
229,611	4,135	225,188	116,780
230,626	3,814	224,991	116,424
231,640	3,829	224,827	116,340
232,655	4,066	224,883	116,538
233,669	4,486	224,776	116,790
234,684	4,706	224,522	116,813
235,699	4,068	224,607	116,366
236,713	4,133	224,204	116,195
237,728	4,049	223,979	116,006
238,742	3,732	224,023	115,779
239,757	4,058	223,529	115,758
240,772	3,847	223,602	115,627
241,786	3,897	223,456	115,579
242,801	3,988	223,405	115,611
243,815	4,253	223,275	115,732
244,830	4,337	223,214	115,753
245,844	4,217	222,965	115,524
246,859	4,133	222,776	115,352
247,874	4,286	222,547	115,338
248,888	4,035	222,529	115,130
249,903	4,176	222,316	115,115
250,917	3,966	222,124	114,849
251,932	3,997	221,902	114,747
252,947	3,839	221,792	114,562
253,961	3,947	221,608	114,537
254,976	3,925	221,564	114,488
255,990	4,090	221,485	114,560
257,005	4,207	221,314	114,548
258,020	4,242	221,269	114,541
259,034	4,367	221,188	114,582
260,049	4,290	220,947	114,389
261,063	4,112	220,755	114,148
262,078	4,303	220,662	114,230
263,093	4,275	220,539	114,136
264,107	4,468	220,302	114,146
265,122	4,283	220,334	114,015
266,136	4,469	220,199	114,073
267,151	4,515	219,913	113,949
268,166	4,219	219,658	113,588
269,180	3,821	219,516	113,211
270,195	3,857	219,384	113,160
271,209	3,814	219,277	113,062
272,224	4,181	219,097	113,230
273,239	3,966	218,959	112,991
274,253	3,982	218,833	112,927
275,268	3,937	218,675	112,802
276,282	3,670	218,543	112,529
277,297	3,725	218,322	112,445
278,312	3,988	218,160	112,544
279,326	3,890	218,175	112,471
280,341	3,909	218,048	112,409
281,355	3,963	217,896	112,360
282,370	3,847	217,745	112,187
283,384	3,791	217,582	112,053
284,399	3,462	217,358	111,687
285,414	3,464	217,245	111,620
286,428	3,742	217,156	111,767
287,443	4,093	217,048	111,957
288,457	3,985	217,035	111,862
289,472	4,067	216,670	111,723
290,487	3,686	216,489	111,344
291,501	3,692	216,312	111,247
292,516	3,582	216,196	111,098
293,530	3,705	216,121	111,138
294,545	3,714	216,060	111,103
295,560	3,750	215,878	111,026
296,574	3,852	215,748	111,023
297,589	3,906	215,684	111,019
298,603	3,931	215,570	110,968
299,618	4,067	215,391	110,964
300,633	4,025	215,348	110,902
301,647	4,132	215,269	110,929
302,662	4,313	215,049	110,936
303,676	4,216	214,929	110,794
304,691	4,167	214,848	110,707
305,706	4,275	214,535	110,614
306,720	4,083	214,528	110,462
307,735	3,842	214,290	110,157
308,749	3,776	214,142	110,024
309,764	3,999	213,946	110,073
310,779	4,054	214,039	110,151
311,793	4,239	213,701	110,099
312,808	4,101	213,638	109,958
313,822	3,889	213,617	109,786
314,837	3,659	213,360	109,480
315,852	3,855	213,175	109,515
316,866	3,845	213,049	109,433
317,881	4,152	213,009	109,621
318,895	4,167	212,934	109,584
319,910	4,030	212,676	109,344
320,925	3,792	212,480	109,065
321,939	3,492	212,273	108,736
322,954	3,591	212,130	108,723
323,968	3,858	212,231	108,955
324,983	4,087	212,098	109,039
325,997	4,318	211,804	109,041
327,012	4,136	211,725	108,862
328,027	3,885	211,593	108,607
329,041	4,108	211,597	108,758
330,056	4,260	211,558	108,835
331,070	3,667	211,232	108,239
332,085	3,584	211,057	108,081
333,100	4,128	210,747	108,295
334,114	3,865	210,681	108,067
335,129	3,840	210,584	107,990
336,143	3,832	210,358	107,859
337,158	3,762	210,350	107,797
338,173	3,808	210,123	107,703
339,187	3,671	210,105	107,587
340,202	3,660	209,863	107,446
341,216	3,592	209,705	107,309
342,231	3,645	209,714	107,341
343,246	3,839	209,487	107,350
344,260	3,840	209,349	107,271
345,275	3,889	209,304	107,273
346,289	4,177	209,185	107,402
347,304	4,132	209,038	107,286
348,319	4,034	208,832	107,103
349,333	3,904	208,789	106,981
350,348	3,793	208,699	106,848
351,362	4,110	208,578	106,996
352,377	4,004	208,432	106,839
353,392	3,944	208,209	106,673
354,406	4,005	208,041	106,620
355,421	192,969	1346,578	1432,162
356,435	153,910	1485,404	1432,279
