DTS Sentinel unit serial number:	SN410029Multiplexer serial number:	ORYXHardware model number:	OX2-SRSoftware version number:	ORYX F/W v4,00 Oryx Data Collector v3.7.2.0data status	okinstallation	B6 Nyhavnadifferential loss correction	single-endedforward channel	channel 2reverse channel	N/Adate	2023/12/07time	23:10:08forward acquisition time	300,00reverse acquisition time	0,00gamma	499,1914k internal	0,3165k external	0,3165temperature offset calibration	1,0000default loss term (dB/km)	0,3820temperature slope calibration	1,0000multiplexer offset coefficient	1,0000multiplexer slope coefficient	1,0000fibre end	0,00T internal ref (°C)	13,50T ext. ref 1 (°C)	-3,46T ext. ref 2 (°C)	-3,43length (m)	temperature (°C)	Stokes	anti-Stokes-744,400	-61,578	0,166	0,051
-743,385	-150,958	-0,353	0,019
-742,371	25,995	0,076	0,047
-741,356	-63,042	-0,288	-0,087
-740,342	-156,374	0,153	0,007
-739,327	-1,946	-0,108	0,055
-738,312	-129,638	0,093	-0,009
-737,298	-30,272	-0,344	-0,143
-736,283	-67,890	0,103	0,029
-735,269	-27,195	-0,256	-0,109
-734,254	162,320	0,086	0,089
-733,239	-2,433	-0,462	-0,237
-732,225	25,087	0,164	-0,100
-731,210	128,203	0,105	-0,098
-730,196	-200,000	0,004	0,062
-729,181	-38,083	-0,082	-0,032
-728,167	28,096	-0,094	0,058
-727,152	-18,348	0,031	0,014
-726,137	-200,000	0,028	-0,097
-725,123	-136,352	0,086	0,007
-724,108	86,669	-0,087	-0,070
-723,094	-65,787	0,047	0,014
-722,079	800,000	-0,063	-0,179
-721,064	369,752	-0,077	0,115
-720,050	306,114	0,051	-0,071
-719,035	-200,000	0,004	-0,057
-718,021	-200,000	-0,025	-0,114
-717,006	800,000	0,019	-0,050
-715,991	20,286	-0,051	-0,030
-714,977	6,569	-0,096	-0,052
-713,962	46,059	0,040	0,027
-712,948	800,000	0,050	-0,106
-711,933	274,612	0,047	0,061
-710,918	52,021	0,090	-0,063
-709,904	-132,961	-0,149	0,014
-708,889	-200,000	-0,013	0,058
-707,875	800,000	0,028	0,074
-706,860	-102,977	0,112	0,019
-705,845	-87,973	0,043	0,009
-704,831	60,953	0,047	0,034
-703,816	195,791	0,046	-0,052
-702,802	800,000	-0,005	0,017
-701,787	-145,659	-0,052	-0,003
-700,772	800,000	0,026	-0,064
-699,758	-82,303	0,086	-0,020
-698,743	-70,054	0,068	0,019
-697,729	-200,000	0,018	0,127
-696,714	-200,000	0,040	0,140
-695,699	453,432	0,032	0,052
-694,685	-200,000	0,002	0,081
-693,670	-200,000	0,013	-0,041
-692,656	-200,000	-0,024	-0,110
-691,641	800,000	0,048	0,128
-690,627	-200,000	-0,016	-0,073
-689,612	136,974	-0,044	-0,042
-688,597	-200,000	0,005	-0,019
-687,583	800,000	-0,045	-0,130
-686,568	800,000	0,068	-0,164
-685,554	291,708	-0,075	-0,101
-684,539	-200,000	0,007	0,036
-683,524	553,306	0,080	0,142
-682,510	-24,463	-0,152	-0,066
-681,495	209,210	-0,105	-0,121
-680,481	212,044	0,112	-0,130
-679,466	-169,573	-0,219	-0,006
-678,451	-149,696	0,046	-0,003
-677,437	-200,000	0,028	0,157
-676,422	-17,638	-0,041	-0,019
-675,408	-111,485	0,080	-0,012
-674,393	-29,114	-0,094	0,039
-673,378	425,248	-0,057	-0,090
-672,364	-4,021	0,052	0,027
-671,349	27,548	0,057	0,035
-670,335	300,918	-0,008	-0,011
-669,320	23,251	0,044	-0,027
-668,305	800,000	0,034	0,097
-667,291	-62,930	0,044	0,013
-666,276	172,168	-0,049	-0,051
-665,262	63,744	0,097	-0,071
-664,247	-137,142	0,129	0,011
-663,232	87,538	-0,047	-0,038
-662,218	383,968	0,083	0,125
-661,203	137,629	0,103	0,098
-660,189	382,103	-0,031	-0,047
-659,174	256,717	-0,036	-0,045
-658,159	-200,000	0,026	0,114
-657,145	-200,000	0,007	0,057
-656,130	37,384	-0,157	-0,102
-655,116	97,707	0,082	-0,069
-654,101	-112,579	-0,096	-0,014
-653,086	-115,281	0,109	0,015
-652,072	221,321	-0,190	-0,224
-651,057	516,305	0,010	-0,016
-650,043	-3,783	-0,033	-0,017
-649,028	-57,260	-0,092	0,030
-648,014	-200,000	0,022	0,149
-646,999	45,598	0,076	-0,052
-645,984	161,406	-0,068	0,069
-644,970	147,018	-0,097	-0,096
-643,955	97,559	0,032	0,027
-642,941	-58,046	-0,198	0,063
-641,926	249,836	-0,070	-0,088
-640,911	-51,405	0,039	-0,013
-639,897	-200,000	0,014	0,057
-638,882	-200,000	0,002	0,028
-637,868	-200,000	0,002	0,072
-636,853	-121,626	-0,063	-0,008
-635,838	-200,000	-0,004	-0,035
-634,824	800,000	0,043	-0,100
-633,809	-200,000	0,006	0,070
-632,795	-200,000	-0,001	0,040
-631,780	693,780	-0,028	0,054
-630,765	-157,710	-0,111	0,005
-629,751	-200,000	0,007	0,067
-628,736	-25,994	-0,104	-0,044
-627,722	94,857	0,014	-0,011
-626,707	-80,480	0,141	0,034
-625,692	800,000	-0,055	-0,126
-624,678	-5,205	0,040	0,020
-623,663	244,052	0,057	0,071
-622,649	-97,295	-0,114	0,021
-621,634	-108,394	-0,019	-0,003
-620,619	-128,849	-0,108	-0,011
-619,605	-102,569	0,132	0,023
-618,590	-50,961	-0,119	0,041
-617,576	-200,000	0,013	0,058
-616,561	-152,776	-0,044	0,002
-615,546	-75,107	-0,162	-0,042
-614,532	491,255	0,038	0,065
-613,517	437,113	-0,049	-0,078
-612,503	330,988	0,040	-0,056
-611,488	353,919	0,033	-0,048
-610,474	3,443	0,035	0,018
-609,459	63,593	-0,039	-0,029
-608,444	303,542	-0,052	-0,071
-607,430	105,394	0,047	-0,041
-606,415	-133,789	-0,142	0,013
-605,401	-200,000	0,014	0,073
-604,386	35,526	0,030	0,019
-603,371	-200,000	0,101	0,000
-602,357	214,269	-0,065	-0,075
-601,342	177,562	-0,152	0,162
-600,328	-112,061	-0,040	-0,006
-599,313	-200,000	0,006	-0,116
-598,298	440,360	-0,025	0,040
-597,284	27,908	0,086	0,053
-596,269	399,319	0,012	0,019
-595,255	-155,004	0,104	-0,005
-594,240	473,347	0,089	-0,147
-593,225	-97,669	-0,103	-0,019
-592,211	145,662	-0,124	-0,121
-591,196	60,534	-0,025	-0,018
-590,182	639,559	-0,048	0,089
-589,167	-40,632	-0,006	-0,002
-588,152	-200,000	0,025	0,095
-587,138	-200,000	-0,010	0,045
-586,123	-103,689	-0,112	0,019
-585,109	53,029	-0,034	0,023
-584,094	-200,000	0,025	0,160
-583,079	-39,265	0,102	0,039
-582,065	-123,294	-0,085	0,010
-581,050	-33,100	0,088	0,035
-580,036	-43,682	-0,077	0,028
-579,021	222,275	-0,036	-0,043
-578,006	-200,000	-0,012	0,172
-576,992	-53,318	-0,038	-0,013
-575,977	266,609	0,099	-0,127
-574,963	137,603	0,123	0,118
-573,948	-200,000	-0,007	0,085
-572,934	96,079	0,058	-0,048
-571,919	800,000	-0,078	-0,174
-570,904	-200,000	0,005	-0,058
-569,890	78,245	-0,111	-0,087
-568,875	-126,709	0,036	0,004
-567,861	35,340	-0,073	-0,046
-566,846	-200,000	-0,002	0,087
-565,831	-200,000	0,004	0,020
-564,817	-136,526	-0,133	0,011
-563,802	800,000	-0,035	-0,114
-562,788	800,000	-0,032	0,097
-561,773	23,834	0,049	-0,029
-560,758	-187,120	0,071	-0,001
-559,744	800,000	0,021	-0,047
-558,729	268,495	-0,086	-0,111
-557,715	-59,110	0,046	-0,014
-556,700	-200,000	-0,004	-0,088
-555,685	-60,240	0,099	0,031
-554,671	-200,000	-0,011	-0,085
-553,656	-132,832	0,087	-0,008
-552,642	-200,000	0,005	0,138
-551,627	21,335	0,090	0,053
-550,612	25,828	-0,072	0,044
-549,598	263,767	-0,040	-0,051
-548,583	557,455	-0,042	-0,073
-547,569	105,614	0,090	-0,078
-546,554	233,374	-0,038	0,046
-545,539	-200,000	0,003	0,051
-544,525	537,524	-0,041	-0,071
-543,510	-101,028	-0,136	-0,024
-542,496	-200,000	-0,030	-0,115
-541,481	16,985	-0,060	-0,035
-540,466	-200,000	0,001	-0,074
-539,452	-29,424	0,056	-0,023
-538,437	213,058	-0,161	0,186
-537,423	-200,000	-0,005	-0,090
-536,408	332,569	-0,025	-0,035
-535,393	213,115	0,021	-0,024
-534,379	800,000	-0,095	-0,213
-533,364	-200,000	0,013	0,061
-532,350	-200,000	0,008	0,025
-531,335	800,000	-0,044	0,107
-530,321	-200,000	0,020	-0,084
-529,306	19,207	-0,047	-0,028
-528,291	45,296	-0,153	-0,103
-527,277	800,000	-0,049	0,139
-526,262	800,000	0,032	0,098
-525,248	800,000	0,016	0,049
-524,233	417,049	0,038	0,059
-523,218	-200,000	0,014	-0,085
-522,204	-200,000	-0,018	-0,064
-521,189	-77,624	-0,040	-0,010
-520,175	800,000	-0,066	-0,161
-519,160	15,585	0,063	-0,036
-518,145	-51,397	0,168	0,057
-517,131	-200,000	0,010	0,065
-516,116	758,521	-0,036	0,072
-515,102	592,687	-0,064	-0,116
-514,087	-109,838	-0,149	0,023
-513,072	-1,187	-0,125	0,064
-512,058	-8,317	0,100	-0,049
-511,043	80,544	0,058	-0,046
-510,029	92,392	0,100	-0,083
-509,014	-6,004	0,020	-0,010
-507,999	6,920	0,097	0,053
-506,985	560,324	0,065	0,114
-505,970	128,411	-0,066	-0,062
-504,956	-200,000	0,005	0,097
-503,941	28,145	0,091	0,056
-502,926	644,869	0,085	-0,159
-501,912	79,859	-0,130	0,102
-500,897	-77,798	-0,011	-0,003
-499,883	-132,090	-0,070	0,007
-498,868	-200,000	0,014	-0,127
-497,853	-157,930	-0,022	0,001
-496,839	697,116	-0,038	0,073
-495,824	-30,885	0,070	-0,029
-494,810	-200,000	0,021	0,123
-493,795	258,270	0,080	0,101
-492,781	-200,000	0,006	-0,080
-491,766	-75,887	-0,156	0,040
-490,751	-25,266	-0,070	-0,030
-489,737	112,896	0,155	-0,136
-488,722	107,270	0,015	0,013
-487,708	-200,000	-0,008	-0,064
-486,693	347,731	0,036	-0,051
-485,678	112,988	-0,148	-0,131
-484,664	-166,956	0,044	0,001
-483,649	-177,462	0,066	0,001
-482,635	-1,424	0,115	-0,059
-481,620	-200,000	-0,006	-0,024
-480,605	-95,860	-0,032	0,006
-479,591	-138,065	-0,190	-0,015
-478,576	-133,669	-0,048	0,004
-477,562	101,188	-0,058	0,049
-476,547	-200,000	0,026	0,109
-475,532	-16,392	0,050	0,023
-474,518	-64,197	-0,051	-0,015
-473,503	42,151	0,052	-0,035
-472,489	-97,690	-0,097	-0,018
-471,474	800,000	-0,024	-0,056
-470,459	-110,410	-0,051	-0,008
-469,445	20,479	0,074	0,044
-468,430	-200,000	0,014	-0,052
-467,416	-103,041	-0,061	-0,010
-466,401	-200,000	-0,009	0,042
-465,386	586,535	0,076	0,137
-464,372	106,139	0,046	0,040
-463,357	-200,000	0,026	-0,086
-462,343	510,975	0,035	0,060
-461,328	-19,292	-0,065	-0,029
-460,313	0,341	-0,063	-0,033
-459,299	196,457	0,086	0,095
-458,284	800,000	-0,010	0,028
-457,270	-200,000	0,004	-0,027
-456,255	21,831	-0,022	-0,013
-455,241	346,851	0,109	-0,157
-454,226	-55,759	-0,028	0,009
-453,211	476,096	0,064	-0,106
-452,197	-79,502	0,101	0,025
-451,182	-13,967	0,124	-0,058
-450,168	-51,873	-0,024	0,008
-449,153	-200,000	-0,008	-0,114
-448,138	-136,058	-0,105	-0,009
-447,124	-48,638	-0,113	0,039
-446,109	248,960	0,040	0,050
-445,095	-169,446	-0,114	-0,003
-444,080	624,758	-0,027	-0,050
-443,065	-200,000	0,141	-0,000
-442,051	-33,406	0,069	0,027
-441,036	-200,000	0,025	-0,130
-440,022	-77,945	-0,092	-0,023
-439,007	13,733	-0,129	0,072
-437,992	-35,825	0,170	-0,066
-436,978	-70,085	-0,077	-0,021
-435,963	422,494	0,041	0,065
-434,949	58,838	-0,128	0,091
-433,934	202,647	-0,010	0,011
-432,919	-196,262	-0,142	-0,001
-431,905	-60,326	-0,150	0,046
-430,890	-200,000	0,009	0,086
-429,876	-106,119	0,149	0,024
-428,861	-200,000	-0,014	-0,047
-427,846	-200,000	-0,059	0,208
-426,832	-9,871	-0,057	0,027
-425,817	44,689	0,075	0,050
-424,803	160,398	0,076	0,077
-423,788	43,326	-0,047	0,031
-422,773	-200,000	0,026	0,146
-421,759	-200,000	0,016	0,083
-420,744	32,656	0,113	0,071
-419,730	-200,000	-0,018	-0,181
-418,715	-200,000	0,002	-0,136
-417,701	800,000	-0,021	-0,056
-416,686	-46,262	-0,088	-0,031
-415,671	-200,000	0,020	0,072
-414,657	39,743	0,111	0,072
-413,642	660,766	-0,102	-0,192
-412,628	91,900	-0,225	-0,184
-411,613	800,000	-0,008	-0,023
-410,598	-200,000	0,029	-0,094
-409,584	-101,552	-0,177	-0,031
-408,569	234,581	-0,087	0,104
-407,555	800,000	0,058	0,161
-406,540	192,166	0,071	0,077
-405,525	800,000	0,009	-0,024
-404,511	-117,828	0,146	-0,019
-403,496	-39,936	-0,038	0,014
-402,482	114,667	0,054	-0,048
-401,467	410,933	-0,043	0,067
-400,452	-200,000	-0,007	0,092
-399,438	-61,297	0,119	-0,036
-398,423	55,861	-0,019	-0,014
-397,409	330,883	-0,103	-0,145
-396,394	43,134	0,022	0,014
-395,379	398,372	-0,015	-0,023
-394,365	-200,000	0,000	0,048
-393,350	-163,642	-0,033	-0,001
-392,336	-39,520	-0,034	-0,013
-391,321	200,464	0,034	-0,038
-390,306	-1,645	-0,130	0,066
-389,292	147,164	-0,082	0,080
-388,277	-67,814	0,023	0,006
-387,263	48,955	0,121	0,082
-386,248	661,587	0,042	0,079
-385,233	800,000	0,020	-0,048
-384,219	-200,000	0,008	-0,137
-383,204	560,450	-0,047	-0,082
-382,190	-200,000	0,002	-0,139
-381,175	384,971	0,053	-0,079
-380,160	101,961	0,048	0,041
-379,146	-200,000	-0,024	0,094
-378,131	20,757	-0,089	-0,052
-377,117	800,000	0,025	0,061
-376,102	-67,290	0,092	-0,026
-375,088	136,455	0,058	0,055
-374,073	800,000	-0,052	-0,153
-373,058	-200,000	-0,002	0,195
-372,044	-33,518	0,066	-0,026
-371,029	-200,000	-0,005	0,039
-370,015	-106,288	-0,093	0,015
-369,000	141,414	-0,007	-0,006
-367,985	-118,498	-0,070	-0,009
-366,971	-200,000	-0,008	0,040
-365,956	-67,689	0,153	-0,043
-364,942	-120,114	0,042	0,005
-363,927	-24,672	0,051	-0,022
-362,912	-200,000	-0,013	0,046
-361,898	-200,000	0,004	-0,048
-360,883	800,000	-0,036	-0,116
-359,869	-200,000	-0,018	-0,075
-358,854	-88,503	0,079	0,017
-357,839	725,139	0,039	0,076
-356,825	-200,000	-0,017	0,111
-355,810	800,000	0,046	0,112
-354,796	73,860	0,030	-0,023
-353,781	-22,451	-0,158	0,069
-352,766	343,599	0,058	-0,083
-351,752	800,000	0,046	0,093
-350,737	-124,772	0,137	0,015
-349,723	-200,000	0,003	0,012
-348,708	18,095	-0,048	-0,028
-347,693	-12,552	0,045	0,021
-346,679	-200,000	0,025	-0,087
-345,664	594,183	-0,070	-0,126
-344,650	795,045	0,033	-0,065
-343,635	800,000	0,018	0,056
-342,620	-200,000	-0,008	0,117
-341,606	89,133	0,024	-0,019
-340,591	-162,760	-0,072	-0,002
-339,577	-200,000	-0,000	-0,082
-338,562	-200,000	0,005	-0,080
-337,548	360,790	-0,084	-0,122
-336,533	-123,877	-0,081	-0,009
-335,518	-200,000	-0,019	0,139
-334,504	-149,865	0,120	-0,007
-333,489	800,000	-0,020	-0,050
-332,475	-200,000	0,018	-0,089
-331,460	-200,000	0,012	-0,043
-330,445	-80,531	0,096	0,023
-329,431	-200,000	0,026	0,115
-328,416	-148,036	0,055	-0,003
-327,402	171,191	0,130	0,135
-326,387	-200,000	0,025	0,103
-325,372	78,277	-0,105	-0,081
-324,358	102,950	0,064	0,054
-323,343	320,285	-0,049	0,068
-322,329	526,494	0,025	-0,043
-321,314	-200,000	0,003	-0,066
-320,299	-70,381	-0,206	-0,056
-319,285	-88,352	-0,079	-0,017
-318,270	-85,174	-0,071	-0,016
-317,256	113,270	0,087	-0,076
-316,241	522,073	-0,067	0,115
-315,226	-45,031	0,056	-0,020
-314,212	800,000	0,050	0,151
-313,197	70,678	0,040	0,030
-312,183	65,470	0,044	0,032
-311,168	800,000	-0,027	0,083
-310,153	23,232	0,032	0,019
-309,139	-19,178	0,014	-0,006
-308,124	800,000	-0,041	-0,125
-307,110	-108,959	-0,048	-0,007
-306,095	35,186	0,055	0,035
-305,080	800,000	0,015	0,032
-304,066	800,000	0,030	-0,078
-303,051	61,897	-0,028	-0,020
-302,037	112,345	-0,019	0,016
-301,022	-29,033	0,069	0,029
-300,008	154,004	0,090	0,089
-298,993	-130,443	-0,125	0,012
-297,978	-127,213	-0,065	0,007
-296,964	29,177	-0,087	0,054
-295,949	346,147	-0,062	-0,088
-294,935	130,747	0,180	-0,167
-293,920	-200,000	-0,019	0,103
-292,905	262,845	0,129	0,162
-291,891	-18,111	0,125	0,056
-290,876	-171,704	-0,026	0,001
-289,862	124,500	0,030	-0,027
-288,847	-127,396	0,071	-0,007
-287,832	-200,000	-0,009	0,032
-286,818	-200,000	-0,018	0,072
-285,803	78,340	0,052	-0,040
-284,789	136,144	0,093	0,088
-283,774	-200,000	0,035	-0,159
-282,759	488,521	0,076	-0,125
-281,745	17,463	-0,096	-0,055
-280,730	-200,000	-0,002	-0,082
-279,716	705,080	-0,028	0,054
-278,701	-200,000	0,005	0,056
-277,686	800,000	0,029	0,064
-276,672	88,929	-0,039	0,032
-275,657	-55,555	0,145	-0,047
-274,643	40,292	-0,065	-0,042
-273,628	-200,000	0,010	0,035
-272,613	-161,588	0,067	-0,002
-271,599	47,620	0,070	-0,047
-270,584	-50,095	0,102	0,035
-269,570	-123,524	0,008	0,001
-268,555	-200,000	-0,022	-0,147
-267,540	-75,653	0,018	-0,005
-266,526	800,000	-0,031	0,085
-265,511	-161,806	0,054	0,002
-264,497	389,340	0,012	-0,019
-263,482	-175,465	0,061	0,001
-262,467	334,826	-0,045	0,063
-261,453	-200,000	-0,015	-0,071
-260,438	-200,000	0,010	-0,108
-259,424	800,000	0,039	-0,082
-258,409	-31,884	0,058	0,023
-257,395	-200,000	-0,039	0,128
-256,380	32,976	0,085	-0,053
-255,365	-200,000	0,028	0,091
-254,351	9,264	0,120	0,065
-253,336	-200,000	0,001	0,054
-252,322	163,893	-0,085	0,086
-251,307	-200,000	0,003	-0,060
-250,292	-200,000	0,015	0,067
-249,278	300,450	0,054	-0,072
-248,263	4,861	-0,037	0,019
-247,249	-112,206	-0,049	-0,007
-246,234	70,043	0,058	0,043
-245,219	-76,322	-0,123	-0,031
-244,205	157,721	-0,079	-0,079
-243,190	313,067	0,084	-0,114
-242,176	148,219	-0,087	0,085
-241,161	-59,771	0,196	0,060
-240,146	-69,775	0,114	0,031
-239,132	-200,000	-0,012	-0,045
-238,117	-200,000	0,002	-0,014
-237,103	31,348	-0,029	-0,018
-236,088	95,932	0,095	-0,078
-235,073	-200,000	-0,096	-0,000
-234,059	-52,456	0,100	0,033
-233,044	135,843	0,087	0,081
-232,030	294,862	0,053	0,070
-231,015	-32,513	-0,150	-0,060
-230,000	-69,298	-0,133	0,036
-228,986	-144,646	0,119	0,008
-227,971	97,714	-0,077	0,064
-226,957	45,389	0,132	0,087
-225,942	-200,000	0,006	0,053
-224,927	800,000	-0,010	0,024
-223,913	-71,442	-0,106	-0,028
-222,898	51,332	-0,049	0,033
-221,884	-127,525	0,044	-0,005
-220,869	-200,000	-0,007	0,053
-219,855	-200,000	-0,012	0,096
-218,840	185,750	-0,002	0,002
-217,825	-200,000	0,083	-0,000
-216,811	-47,945	0,112	-0,039
-215,796	341,025	-0,090	0,127
-214,782	-70,373	-0,077	0,021
-213,767	134,872	0,091	-0,086
-212,752	67,031	0,053	0,039
-211,738	159,206	-0,047	0,047
-210,723	-22,112	0,031	0,013
-209,709	340,038	-0,114	-0,161
-208,694	-200,000	-0,021	-0,160
-207,679	137,271	0,104	-0,098
-206,665	-200,000	-0,013	-0,083
-205,650	800,000	0,058	0,148
-204,636	-200,000	0,004	-0,097
-203,621	-1,642	0,081	0,041
-202,606	123,084	-0,059	0,053
-201,592	400,602	0,093	-0,141
-200,577	134,067	-0,051	0,048
-199,563	147,897	0,039	-0,038
-198,548	-200,000	0,033	0,120
-197,533	-200,000	-0,005	0,140
-196,519	54,537	-0,079	0,055
-195,504	214,336	-0,068	-0,077
-194,490	-200,000	0,007	-0,078
-193,475	28,989	-0,051	-0,031
-192,460	-150,361	0,168	0,009
-191,446	-200,000	-0,023	0,188
-190,431	-200,000	-0,020	0,094
-189,417	700,966	0,031	0,059
-188,402	514,185	0,032	-0,054
-187,387	262,061	-0,116	-0,145
-186,373	218,476	-0,127	-0,147
-185,358	340,931	0,054	0,076
-184,344	510,067	0,065	0,110
-183,329	-200,000	-0,002	-0,029
-182,315	800,000	-0,057	-0,141
-181,300	800,000	0,047	-0,101
-180,285	80,125	-0,119	0,092
-179,271	-200,000	0,003	-0,059
-178,256	-108,042	0,096	-0,015
-177,242	-118,299	0,112	0,014
-176,227	301,248	0,128	0,170
-175,212	766,999	0,043	0,084
-174,198	-133,782	0,102	-0,009
-173,183	-200,000	-0,009	-0,077
-172,169	-200,000	0,035	-0,146
-171,154	-200,000	-0,009	0,042
-170,139	-200,000	0,001	-0,053
-169,125	686,134	0,074	0,140
-168,110	-98,713	0,086	0,016
-167,096	101,028	0,022	0,018
-166,081	-149,305	-0,080	0,005
-165,066	304,553	-0,055	-0,074
-164,052	189,515	0,050	0,053
-163,037	66,367	-0,104	0,076
-162,023	-161,645	0,252	-0,009
-161,008	800,000	0,037	0,083
-159,993	219,138	0,035	-0,041
-158,979	410,486	0,009	-0,014
-157,964	-95,427	-0,138	0,026
-156,950	786,750	-0,087	-0,172
-155,935	79,638	-0,018	0,014
-154,920	-200,000	-0,012	-0,053
-153,906	126,106	-0,058	-0,052
-152,891	-200,000	0,010	-0,041
-151,877	-3,962	0,097	0,048
-150,862	-200,000	0,042	-0,158
-149,847	-122,929	-0,082	0,009
-148,833	452,366	-0,019	-0,030
-147,818	196,878	0,122	0,133
-146,804	800,000	-0,035	0,074
-145,789	-200,000	0,038	0,152
-144,775	-46,838	-0,072	0,025
-143,760	-59,775	0,144	-0,044
-142,745	-32,388	-0,040	0,016
-141,731	345,951	0,017	0,024
-140,716	-120,103	-0,095	-0,012
-139,702	800,000	0,035	0,097
-138,687	-200,000	-0,022	-0,096
-137,672	-57,592	-0,030	0,009
-136,658	-25,829	-0,072	0,030
-135,643	-117,463	-0,033	-0,004
-134,629	569,631	-0,036	0,063
-133,614	-200,000	-0,024	0,100
-132,599	483,751	0,048	0,079
-131,585	-200,000	0,007	0,044
-130,570	800,000	-0,039	0,086
-129,556	-93,332	-0,019	0,004
-128,541	800,000	-0,035	-0,091
-127,526	66,680	-0,179	-0,131
-126,512	173,095	0,093	0,097
-125,497	-84,129	0,135	0,031
-124,483	67,809	0,028	0,020
-123,468	-200,000	-0,017	-0,056
-122,453	788,647	0,072	-0,143
-121,439	-94,059	-0,213	0,042
-120,424	204,306	0,124	-0,138
-119,410	800,000	-0,033	-0,092
-118,395	721,838	-0,036	0,070
-117,380	-104,764	0,092	0,015
-116,366	-200,000	-0,003	0,063
-115,351	369,031	-0,042	0,061
-114,337	-200,000	0,004	-0,051
-113,322	-76,728	-0,064	0,016
-112,307	-73,349	0,115	0,030
-111,293	257,166	0,025	-0,031
-110,278	-87,426	0,091	-0,020
-109,264	115,120	0,067	-0,059
-108,249	347,447	-0,030	-0,042
-107,234	-37,176	-0,049	0,019
-106,220	-67,241	-0,044	-0,012
-105,205	-116,278	-0,070	-0,009
-104,191	-200,000	-0,005	-0,051
-103,176	800,000	-0,058	0,164
-102,162	-79,511	-0,171	0,041
-101,147	800,000	-0,016	-0,042
-100,132	121,441	-0,072	0,064
-99,118	-37,136	0,028	-0,011
-98,103	800,000	0,026	0,076
-97,089	728,080	-0,016	0,030
-96,074	136,749	0,062	-0,058
-95,059	24,937	0,023	0,013
-94,045	182,076	-0,142	-0,150
-93,030	-52,043	-0,137	-0,045
-92,016	754,848	-0,097	0,188
-91,001	-51,915	0,084	-0,028
-89,986	-24,292	0,099	-0,042
-88,972	84,215	0,051	0,040
-87,957	-200,000	0,020	-0,073
-86,943	-111,931	0,038	0,005
-85,928	-29,603	-0,071	0,029
-84,913	-27,525	0,084	0,035
-83,899	-200,000	0,015	0,077
-82,884	264,290	0,019	0,024
-81,870	695,236	0,028	-0,053
-80,855	-134,899	0,069	0,006
-79,840	43,565	0,124	0,081
-78,826	-200,000	0,029	-0,125
-77,811	207,259	-0,104	0,116
-76,797	-52,835	0,034	0,011
-75,782	-112,728	0,144	0,020
-74,767	-200,000	-0,000	0,074
-73,753	-200,000	-0,021	0,099
-72,738	-53,166	-0,139	0,045
-71,724	-29,317	0,051	-0,021
-70,709	800,000	0,004	-0,012
-69,694	202,525	-0,065	-0,072
-68,680	800,000	-0,035	0,076
-67,665	-5,870	0,073	0,036
-66,651	-76,238	0,119	0,030
-65,636	-133,458	0,041	0,004
-64,622	104,570	-0,091	-0,077
-63,607	90,713	0,028	-0,022
-62,592	72,681	-0,125	-0,093
-61,578	167,143	0,128	0,130
-60,563	-96,702	0,088	0,017
-59,549	498,229	-0,086	0,142
-58,534	4,100	-2,235	-1,168
-57,519	-200,000	-0,108	-0,835
-56,505	-200,000	-1,409	-5,251
-55,490	122,742	0,767	0,688
-54,476	800,000	5,403	12,060
-53,461	-200,000	18,773	312,795
-52,446	800,000	740,226	2303,798
-51,432	545,593	1653,538	2841,086
-50,417	109,471	1636,718	1403,492
-49,403	72,892	1287,300	961,624
-48,388	29,755	1029,042	625,920
-47,373	19,728	991,612	570,044
-46,359	17,250	979,086	554,693
-45,344	13,892	975,201	541,473
-44,330	14,210	973,830	541,732
-43,315	13,545	972,054	538,547
-42,300	13,493	970,922	537,727
-41,286	13,494	970,095	537,253
-40,271	13,523	969,084	536,767
-39,257	13,545	968,057	536,249
-38,242	13,514	967,443	535,785
-37,227	13,575	966,495	535,436
-36,213	13,497	965,738	534,743
-35,198	13,472	964,849	534,149
-34,184	13,512	964,076	533,829
-33,169	13,491	963,094	533,196
-32,154	13,508	962,036	532,644
-31,140	13,581	961,112	532,346
-30,125	13,569	960,441	531,917
-29,111	13,499	959,772	531,299
-28,096	13,571	959,003	531,083
-27,082	13,549	958,291	530,596
-26,067	13,530	957,642	530,156
-25,052	13,560	956,838	529,787
-24,038	13,476	956,232	529,161
-23,023	13,541	955,399	528,886
-22,009	13,607	954,648	528,660
-20,994	13,559	954,283	528,284
-19,979	13,551	953,722	527,926
-18,965	13,562	952,877	527,472
-17,950	13,528	952,423	527,092
-16,936	13,522	951,858	526,739
-15,921	13,488	951,239	526,267
-14,906	13,479	950,355	525,729
-13,892	13,424	949,883	525,271
-12,877	13,405	949,008	524,707
-11,863	13,333	948,638	524,250
-10,848	13,387	947,926	524,009
-9,833	13,537	947,351	524,146
-8,819	13,489	946,797	523,666
-7,804	13,396	946,125	522,980
-6,790	13,434	945,724	522,858
-5,775	13,468	945,156	522,631
-4,760	13,519	944,309	522,303
-3,746	13,425	943,832	521,722
-2,731	13,284	943,136	520,868
-1,717	13,250	942,475	520,376
-0,702	13,272	941,727	520,012
0,313	13,023	941,130	519,677
1,327	16,639	938,855	529,782
2,342	25,978	790,348	470,584
3,356	22,239	445,092	259,450
4,371	-7,754	297,859	143,427
5,386	-11,473	279,611	131,078
6,400	-12,783	273,943	127,182
7,415	-12,872	271,670	126,034
8,429	-12,897	270,127	125,283
9,444	-12,879	269,179	124,848
10,459	-12,875	268,518	124,535
11,473	-13,167	267,920	123,979
12,488	-12,931	267,341	123,915
13,502	-13,314	266,850	123,328
14,517	-13,141	266,241	123,193
15,531	-12,919	265,909	123,230
16,546	-12,991	265,546	122,986
17,561	-13,074	265,247	122,761
18,575	-12,891	264,832	122,723
19,590	-13,167	264,416	122,271
20,604	-12,921	264,271	122,414
21,619	-13,121	263,737	121,976
22,634	-13,047	263,503	121,924
23,648	-13,030	263,272	121,821
24,663	-13,018	262,945	121,670
25,677	-13,098	262,713	121,479
26,692	-13,080	262,356	121,320
27,707	-13,183	262,165	121,128
28,721	-13,178	261,838	120,971
29,736	-13,183	261,550	120,823
30,750	-13,119	261,304	120,756
31,765	-13,165	260,935	120,533
32,780	-13,045	260,688	120,515
33,794	-13,240	260,589	120,286
34,809	-13,204	260,245	120,148
35,823	-13,173	260,149	120,120
36,838	-13,141	259,741	119,949
37,853	-13,015	259,475	119,927
38,867	-13,087	259,315	119,779
39,882	-13,094	259,042	119,636
40,896	-13,345	258,829	119,306
41,911	-13,439	258,581	119,098
42,926	-13,242	258,376	119,166
43,940	-13,353	258,114	118,938
44,955	-13,299	257,858	118,855
45,969	-13,399	257,594	118,636
46,984	-13,444	257,389	118,491
47,999	-13,670	257,082	118,142
49,013	-13,838	256,854	117,880
50,028	-13,977	256,540	117,603
51,042	-13,934	256,215	117,481
52,057	-14,106	256,083	117,260
53,071	-14,126	256,071	117,227
54,086	-13,945	255,610	117,163
55,101	-13,658	255,623	117,408
56,115	-13,645	255,415	117,314
57,130	-13,204	255,333	117,649
58,144	-12,905	255,025	117,756
59,159	-12,766	254,631	117,684
60,174	-12,931	254,718	117,571
61,188	-12,996	254,466	117,387
62,203	-13,251	254,334	117,095
63,217	-13,138	254,070	117,061
64,232	-12,876	253,717	117,115
65,247	-12,937	253,633	117,012
66,261	-13,267	253,294	116,561
67,276	-13,383	252,962	116,299
68,290	-13,454	252,816	116,160
69,305	-13,607	252,632	115,934
70,320	-13,543	252,306	115,828
71,334	-13,313	252,222	115,977
72,349	-13,059	252,069	116,113
73,363	-13,042	251,910	116,044
74,378	-13,001	251,642	115,946
75,393	-13,000	251,430	115,839
76,407	-13,279	251,263	115,513
77,422	-13,167	251,149	115,546
78,436	-13,056	250,708	115,427
79,451	-13,198	250,670	115,279
80,466	-13,083	250,215	115,158
81,480	-13,426	250,037	114,773
82,495	-13,277	249,889	114,822
83,509	-13,159	249,616	114,786
84,524	-13,334	249,482	114,566
85,539	-13,545	249,203	114,249
86,553	-13,567	249,142	114,193
87,568	-13,433	248,998	114,230
88,582	-13,269	248,579	114,165
89,597	-13,332	248,597	114,111
90,611	-13,374	248,603	114,067
91,626	-13,131	248,205	114,079
92,641	-13,182	248,126	113,990
93,655	-13,176	247,641	113,763
94,670	-13,404	247,649	113,564
95,684	-13,281	247,427	113,555
96,699	-13,351	247,305	113,430
97,714	-13,341	247,011	113,294
98,728	-13,521	246,787	113,030
99,743	-13,479	246,523	112,934
100,757	-13,545	246,300	112,767
101,772	-13,553	246,294	112,748
102,787	-13,351	246,107	112,821
103,801	-13,414	245,903	112,665
104,816	-13,273	245,748	112,701
105,830	-13,245	245,648	112,668
106,845	-13,199	245,378	112,573
107,860	-13,117	245,160	112,530
108,874	-13,110	244,857	112,387
109,889	-13,119	244,707	112,301
110,903	-13,238	244,715	112,196
111,918	-13,426	244,627	111,990
112,933	-13,321	244,153	111,850
113,947	-13,077	243,959	111,953
114,962	-13,226	243,891	111,788
115,976	-13,094	243,636	111,770
116,991	-13,163	243,484	111,634
118,006	-13,252	243,429	111,525
119,020	-13,169	243,240	111,497
120,035	-13,043	243,203	111,574
121,049	-13,112	242,947	111,390
122,064	-13,095	242,643	111,254
123,079	-13,300	242,525	111,022
124,093	-13,201	242,191	110,940
125,108	-13,427	241,983	110,650
126,122	-13,776	241,794	110,268
127,137	-13,778	241,790	110,255
128,151	-13,456	241,548	110,399
129,166	-13,464	241,354	110,293
130,181	-13,587	241,091	110,063
131,195	-13,429	240,928	110,107
132,210	-13,454	240,650	109,950
133,224	-13,248	240,583	110,077
134,239	-13,163	240,538	110,116
135,254	-12,982	240,105	110,055
136,268	-13,382	240,001	109,673
137,283	-13,539	239,681	109,390
138,297	-13,745	239,511	109,136
139,312	-13,891	239,393	108,954
140,327	-13,127	239,227	109,486
141,341	-12,899	239,267	109,679
142,356	-12,866	239,044	109,594
143,370	-12,772	238,870	109,581
144,385	-12,773	238,827	109,550
145,400	-12,800	238,613	109,420
146,414	-12,847	238,534	109,337
147,429	-12,974	238,143	109,045
148,443	-12,929	237,982	108,998
149,458	-13,177	237,948	108,774
150,473	-12,959	237,575	108,768
151,487	-13,131	237,577	108,621
152,502	-12,906	237,270	108,652
153,516	-12,940	237,208	108,586
154,531	-13,053	237,074	108,424
155,546	-12,955	236,921	108,423
156,560	-13,024	236,650	108,234
157,575	-13,144	236,362	107,997
158,589	-13,129	236,283	107,963
159,604	-12,748	236,079	108,164
160,619	-12,786	236,048	108,110
161,633	-12,699	235,823	108,066
162,648	-12,896	235,716	107,851
163,662	-12,915	235,574	107,762
164,677	-13,015	235,390	107,588
165,692	-13,056	235,148	107,436
166,706	-12,810	235,102	107,600
167,721	-12,714	234,926	107,586
168,735	-12,956	234,832	107,342
169,750	-12,932	234,445	107,174
170,764	-12,804	234,214	107,160
171,779	-12,801	234,188	107,141
172,794	-12,625	234,166	107,260
173,808	-12,862	233,986	106,982
174,823	-13,444	233,543	106,311
175,837	-13,607	233,494	106,152
176,852	-13,035	233,411	106,554
177,867	-12,972	233,306	106,546
178,881	-12,900	233,151	106,522
179,896	-12,685	232,829	106,535
180,910	-12,846	232,882	106,423
181,925	-12,608	232,579	106,461
182,940	-12,807	232,554	106,284
183,954	-12,778	232,431	106,242
184,969	-12,553	232,078	106,246
185,983	-12,671	231,979	106,099
186,998	-12,517	231,795	106,126
188,013	-12,729	231,704	105,909
189,027	-12,732	231,550	105,828
190,042	-12,763	231,387	105,720
191,056	-12,564	231,190	105,775
192,071	-12,653	231,151	105,678
193,086	-12,728	230,871	105,482
194,100	-12,585	230,646	105,481
195,115	-13,057	230,182	104,894
196,129	-13,624	230,328	104,513
197,144	-7,732	232,027	109,866
198,159	-1,846	233,882	115,346
199,173	1,930	234,936	118,819
200,188	2,624	235,085	119,429
201,202	2,637	234,838	119,303
202,217	2,512	234,812	119,181
203,232	2,868	234,638	119,361
204,246	2,719	234,470	119,148
205,261	2,841	234,401	119,198
206,275	3,156	234,167	119,314
207,290	2,984	234,148	119,159
208,304	3,050	234,024	119,136
209,319	3,243	233,656	119,089
210,334	2,920	233,580	118,789
211,348	2,812	233,304	118,553
212,363	2,401	233,145	118,142
213,377	2,424	232,924	118,039
214,392	2,270	232,774	117,833
215,407	2,520	232,445	117,849
216,421	2,444	232,505	117,810
217,436	2,327	232,247	117,578
218,450	2,023	232,043	117,230
219,465	2,027	232,013	117,207
220,480	1,907	231,859	117,026
221,494	1,956	231,669	116,957
222,509	2,517	231,523	117,306
223,523	2,665	231,447	117,371
224,538	2,281	231,273	116,977
225,553	2,288	231,052	116,860
226,567	2,276	230,931	116,779
227,582	2,544	230,928	116,973
228,596	2,725	230,769	117,021
229,611	2,497	230,578	116,739
230,626	1,919	230,267	116,128
231,640	2,159	230,195	116,265
232,655	2,508	230,005	116,425
233,669	2,729	229,984	116,574
234,684	2,766	229,875	116,536
235,699	2,564	229,665	116,266
236,713	2,414	229,583	116,099
237,728	2,383	229,249	115,896
238,742	2,307	228,977	115,691
239,757	2,397	228,812	115,666
240,772	2,431	228,776	115,663
241,786	2,256	228,739	115,501
242,801	2,419	228,615	115,552
243,815	2,759	228,591	115,787
244,830	2,923	228,306	115,757
245,844	2,325	228,188	115,234
246,859	2,294	227,800	115,004
247,874	2,528	227,749	115,145
248,888	2,443	227,788	115,090
249,903	2,392	227,679	114,986
250,917	2,437	227,375	114,856
251,932	2,477	227,130	114,753
252,947	2,237	226,937	114,464
253,961	2,287	226,775	114,410
254,976	2,352	226,828	114,475
255,990	2,449	226,701	114,474
257,005	2,341	226,555	114,309
258,020	2,658	226,400	114,458
259,034	2,825	226,351	114,549
260,049	2,547	226,084	114,195
261,063	2,335	226,127	114,047
262,078	2,769	225,920	114,258
263,093	2,773	225,819	114,200
264,107	2,487	225,621	113,876
265,122	2,829	225,475	114,047
266,136	2,853	225,364	113,999
267,151	2,989	224,957	113,884
268,166	2,731	224,800	113,602
269,180	2,082	224,596	113,006
270,195	2,161	224,582	113,048
271,209	2,397	224,335	113,088
272,224	2,128	224,387	112,905
273,239	2,439	224,115	112,989
274,253	2,238	224,076	112,810
275,268	2,129	223,685	112,522
276,282	2,243	223,558	112,533
277,297	1,850	223,535	112,220
278,312	2,234	223,385	112,419
279,326	2,294	223,307	112,414
280,341	2,594	223,276	112,610
281,355	2,612	222,908	112,428
282,370	2,560	222,766	112,308
283,384	2,288	222,674	112,051
284,399	2,002	222,448	111,717
285,414	2,102	222,415	111,763
286,428	2,289	222,537	111,952
287,443	2,504	222,282	111,973
288,457	2,527	222,027	111,851
289,472	2,069	221,971	111,477
290,487	1,993	221,625	111,237
291,501	1,881	221,404	111,034
292,516	2,009	221,303	111,067
293,530	1,902	221,223	110,939
294,545	2,112	221,145	111,044
295,560	2,161	221,066	111,030
296,574	2,192	220,888	110,954
297,589	2,409	220,729	111,022
298,603	2,142	220,800	110,852
299,618	2,333	220,508	110,835
300,633	2,688	220,332	110,996
301,647	2,855	220,277	111,080
302,662	2,750	220,048	110,878
303,676	2,552	219,824	110,612
304,691	2,816	219,707	110,734
305,706	2,581	219,753	110,577
306,720	2,657	219,443	110,466
307,735	2,326	219,379	110,184
308,749	2,293	219,174	110,048
309,764	2,511	219,052	110,134
310,779	2,515	219,170	110,187
311,793	2,418	218,838	109,940
312,808	2,532	218,769	109,978
313,822	2,702	218,490	109,951
314,837	2,437	218,363	109,685
315,852	2,215	218,145	109,406
316,866	2,342	218,052	109,442
317,881	2,648	217,975	109,613
318,895	2,536	217,840	109,455
319,910	2,152	217,704	109,101
320,925	2,142	217,327	108,895
321,939	1,701	217,209	108,510
322,954	1,779	217,173	108,539
323,968	2,039	217,170	108,713
324,983	2,692	217,095	109,134
325,997	2,769	216,994	109,128
327,012	2,553	216,983	108,959
328,027	2,683	216,631	108,865
329,041	2,868	216,530	108,937
330,056	2,799	216,498	108,862
331,070	2,307	216,091	108,297
332,085	2,260	215,854	108,135
333,100	2,350	215,723	108,123
334,114	2,337	215,764	108,125
335,129	2,387	215,778	108,158
336,143	2,421	215,347	107,957
337,158	2,281	215,409	107,879
338,173	2,408	215,053	107,781
339,187	2,151	214,849	107,487
340,202	1,995	214,787	107,336
341,216	2,631	214,767	107,766
342,231	2,666	214,747	107,772
343,246	2,312	214,562	107,419
344,260	2,488	214,285	107,395
345,275	2,679	214,293	107,524
346,289	2,594	214,200	107,408
347,304	2,749	213,945	107,379
348,319	2,466	213,778	107,087
349,333	2,370	213,710	106,976
350,348	2,598	213,559	107,051
351,362	2,666	213,480	107,050
352,377	2,573	213,333	106,901
353,392	2,576	213,177	106,816
354,406	2,663	213,086	106,821
355,421	195,950	1315,749	1390,306
356,435	156,713	1450,037	1390,249
