DTS Sentinel unit serial number:	SN410029Multiplexer serial number:	ORYXHardware model number:	OX2-SRSoftware version number:	ORYX F/W v4,00 Oryx Data Collector v3.7.2.0data status	okinstallation	B6 Nyhavnadifferential loss correction	single-endedforward channel	channel 2reverse channel	N/Adate	2023/12/08time	03:40:08forward acquisition time	300,00reverse acquisition time	0,00gamma	499,1914k internal	0,3165k external	0,3165temperature offset calibration	1,0000default loss term (dB/km)	0,3820temperature slope calibration	1,0000multiplexer offset coefficient	1,0000multiplexer slope coefficient	1,0000fibre end	0,00T internal ref (°C)	13,11T ext. ref 1 (°C)	-3,79T ext. ref 2 (°C)	-3,80length (m)	temperature (°C)	Stokes	anti-Stokes-744,400	-12,082	0,167	0,080
-743,385	-66,929	-0,294	-0,085
-742,371	108,943	0,080	0,070
-741,356	-83,405	-0,294	-0,069
-740,342	96,901	0,071	0,060
-739,327	-122,785	-0,193	-0,023
-738,312	33,425	0,157	-0,100
-737,298	-121,327	-0,357	-0,043
-736,283	163,367	0,104	0,108
-735,269	-76,695	-0,219	0,056
-734,254	-200,000	0,034	0,122
-733,239	-66,913	-0,529	-0,153
-732,225	-25,412	0,101	-0,044
-731,210	-200,000	0,001	0,012
-730,196	203,229	0,064	-0,073
-729,181	543,978	-0,016	-0,029
-728,167	-160,512	-0,057	-0,002
-727,152	139,967	0,072	-0,070
-726,137	39,151	-0,096	-0,063
-725,123	800,000	0,005	-0,014
-724,108	-200,000	-0,003	-0,324
-723,094	355,197	-0,037	-0,054
-722,079	-200,000	-0,010	0,052
-721,064	-39,991	0,063	-0,024
-720,050	-180,502	-0,048	0,001
-719,035	-70,170	-0,089	-0,025
-718,021	217,828	-0,071	-0,084
-717,006	333,737	-0,059	-0,084
-715,991	371,088	-0,198	-0,297
-714,977	-119,462	-0,141	-0,018
-713,962	-124,326	0,090	-0,010
-712,948	118,299	-0,092	-0,083
-711,933	-83,054	-0,054	0,013
-710,918	-52,026	-0,106	0,036
-709,904	800,000	-0,047	-0,110
-708,889	-55,896	0,037	-0,012
-707,875	119,981	-0,049	-0,045
-706,860	556,207	0,041	0,074
-705,845	800,000	-0,006	0,017
-704,831	-200,000	0,157	0,000
-703,816	800,000	-0,035	-0,090
-702,802	-99,590	-0,127	-0,023
-701,787	-27,533	-0,172	-0,073
-700,772	-200,000	0,029	-0,172
-699,758	-200,000	-0,005	-0,203
-698,743	121,085	0,047	0,043
-697,729	800,000	0,038	0,098
-696,714	-128,117	0,038	-0,004
-695,699	-200,000	-0,001	-0,059
-694,685	145,687	-0,110	-0,108
-693,670	-200,000	0,000	-0,089
-692,656	800,000	-0,020	-0,046
-691,641	-47,028	0,140	0,050
-690,627	725,846	-0,065	-0,128
-689,612	-200,000	0,001	-0,040
-688,597	-145,977	-0,053	0,003
-687,583	-70,197	-0,185	-0,051
-686,568	-200,000	-0,022	-0,156
-685,554	24,938	-0,043	-0,026
-684,539	800,000	-0,044	0,114
-683,524	102,221	-0,065	0,056
-682,510	800,000	-0,024	-0,057
-681,495	800,000	0,012	-0,031
-680,481	455,899	0,009	0,015
-679,466	-115,502	-0,166	-0,023
-678,451	42,972	0,054	-0,036
-677,437	228,403	0,077	-0,092
-676,422	469,667	0,028	0,046
-675,408	167,817	-0,043	0,045
-674,393	-200,000	-0,023	0,101
-673,378	100,768	-0,101	-0,086
-672,364	91,092	-0,106	-0,087
-671,349	338,427	-0,024	-0,034
-670,335	378,790	0,074	0,112
-669,320	194,999	0,064	0,072
-668,305	-115,378	-0,078	-0,011
-667,291	236,490	0,026	0,032
-666,276	-64,392	0,121	-0,036
-665,262	-23,978	-0,133	-0,058
-664,247	101,541	0,016	0,013
-663,232	483,517	0,009	-0,015
-662,218	-74,943	-0,045	-0,012
-661,203	-200,000	-0,051	0,180
-660,189	-200,000	-0,002	0,043
-659,174	260,252	0,071	-0,091
-658,159	770,855	-0,029	-0,057
-657,145	294,061	-0,030	-0,040
-656,130	40,335	0,121	0,080
-655,116	-200,000	-0,012	-0,079
-654,101	-200,000	0,005	-0,074
-653,086	-83,591	0,030	-0,007
-652,072	452,010	-0,102	-0,165
-651,057	800,000	0,009	0,021
-650,043	346,057	-0,011	0,015
-649,028	307,141	-0,072	-0,099
-648,014	-200,000	0,011	-0,052
-646,999	192,721	-0,085	-0,095
-645,984	5,028	0,151	0,081
-644,970	-33,878	-0,069	-0,028
-643,955	-200,000	-0,019	-0,074
-642,941	800,000	-0,072	-0,199
-641,926	800,000	-0,019	0,057
-640,911	-200,000	0,001	0,163
-639,897	-36,075	-0,073	-0,029
-638,882	-200,000	0,054	-0,199
-637,868	-200,000	-0,008	-0,106
-636,853	-28,702	-0,095	-0,040
-635,838	-115,167	0,053	0,007
-634,824	125,379	0,088	0,081
-633,809	-47,037	0,122	0,043
-632,795	800,000	0,017	-0,041
-631,780	-44,668	-0,038	0,014
-630,765	-200,000	-0,014	-0,097
-629,751	452,853	-0,021	-0,033
-628,736	-37,326	0,025	-0,010
-627,722	-200,000	-0,008	-0,080
-626,707	-109,671	-0,035	-0,005
-625,692	-121,061	-0,083	0,010
-624,678	-200,000	0,025	0,195
-623,663	-135,564	-0,192	0,016
-622,649	690,702	0,022	-0,041
-621,634	-90,596	-0,025	-0,005
-620,619	-160,055	-0,067	-0,003
-619,605	91,014	0,042	0,035
-618,590	-68,568	-0,103	-0,029
-617,576	-200,000	-0,011	-0,190
-616,561	-78,884	-0,097	-0,024
-615,546	-16,584	-0,042	0,020
-614,532	-99,197	-0,058	0,011
-613,517	-200,000	-0,010	-0,088
-612,503	-119,797	0,066	-0,008
-611,488	318,972	-0,026	0,035
-610,474	-93,191	-0,054	-0,011
-609,459	92,892	-0,077	0,063
-608,444	-200,000	0,014	-0,146
-607,430	-200,000	-0,033	-0,133
-606,415	63,632	-0,101	-0,074
-605,401	-92,057	0,152	-0,031
-604,386	-62,141	0,095	0,029
-603,371	68,327	-0,095	0,071
-602,357	-36,814	0,058	-0,023
-601,342	-200,000	-0,000	-0,222
-600,328	-121,582	0,070	0,008
-599,313	46,695	0,075	-0,051
-598,298	-200,000	0,005	-0,059
-597,284	-12,708	-0,052	0,025
-596,269	-200,000	0,002	0,171
-595,255	-93,847	-0,105	-0,021
-594,240	696,085	-0,071	-0,136
-593,225	-200,000	-0,007	-0,081
-592,211	800,000	0,022	0,066
-591,196	-11,540	-0,134	0,064
-590,182	800,000	-0,043	0,117
-589,167	-200,000	-0,001	-0,050
-588,152	602,131	-0,053	0,096
-587,138	-115,132	-0,183	-0,025
-586,123	-116,390	-0,129	-0,017
-585,109	-116,131	-0,112	0,015
-584,094	-33,434	0,103	0,042
-583,079	-4,753	0,024	-0,012
-582,065	-79,298	-0,169	0,041
-581,050	5,505	-0,023	-0,013
-580,036	34,674	0,098	-0,062
-579,021	800,000	0,031	-0,096
-578,006	249,811	0,027	-0,034
-576,992	800,000	0,054	-0,160
-575,977	172,806	-0,080	0,085
-574,963	-37,692	0,040	-0,015
-573,948	-200,000	-0,015	0,113
-572,934	800,000	0,055	-0,120
-571,919	-53,821	-0,144	0,048
-570,904	800,000	0,044	-0,110
-569,890	-78,887	-0,162	-0,040
-568,875	-200,000	0,060	0,000
-567,861	-200,000	-0,008	0,118
-566,846	-200,000	0,006	-0,065
-565,831	92,588	0,015	0,012
-564,817	-179,246	-0,086	0,001
-563,802	-200,000	-0,002	-0,111
-562,788	-200,000	-0,009	-0,185
-561,773	-141,051	0,035	0,003
-560,758	-166,116	0,144	0,004
-559,744	187,530	0,022	-0,024
-558,729	-200,000	0,003	0,033
-557,715	-14,814	-0,106	0,049
-556,700	800,000	0,012	0,035
-555,685	19,311	-0,200	-0,117
-554,671	129,931	0,042	-0,039
-553,656	151,955	-0,067	0,067
-552,642	-155,126	-0,137	0,006
-551,627	389,978	0,078	-0,118
-550,612	71,928	0,051	0,039
-549,598	800,000	-0,072	-0,186
-548,583	-200,000	0,004	0,139
-547,569	110,381	-0,043	0,038
-546,554	-113,500	0,164	-0,023
-545,539	-200,000	0,001	0,063
-544,525	201,382	0,136	-0,153
-543,510	-7,131	-0,107	-0,053
-542,496	38,240	-0,051	0,033
-541,481	-1,591	0,118	-0,061
-540,466	139,836	0,109	-0,105
-539,452	13,781	0,110	0,062
-538,437	-200,000	-0,014	-0,064
-537,423	800,000	0,041	0,094
-536,408	800,000	-0,062	-0,143
-535,393	73,770	0,131	-0,100
-534,379	171,394	-0,018	-0,019
-533,364	232,966	-0,060	-0,072
-532,350	-9,519	0,087	0,042
-531,335	73,571	0,116	0,088
-530,321	119,271	-0,101	0,091
-529,306	800,000	-0,036	-0,106
-528,291	-9,707	-0,017	0,008
-527,277	273,099	-0,049	-0,063
-526,262	267,252	-0,007	0,010
-525,248	-103,973	-0,078	-0,013
-524,233	-75,656	0,064	0,016
-523,218	800,000	-0,070	0,143
-522,204	-81,349	0,080	0,019
-521,189	-66,036	0,077	0,022
-520,175	-200,000	0,002	-0,128
-519,160	800,000	0,023	0,064
-518,145	-200,000	0,013	0,064
-517,131	800,000	0,046	0,116
-516,116	-80,301	-0,069	0,017
-515,102	-200,000	-0,001	-0,059
-514,087	88,297	-0,051	0,041
-513,072	80,990	-0,111	-0,088
-512,058	-110,755	0,075	-0,011
-511,043	213,087	0,073	0,084
-510,029	189,838	0,067	-0,073
-509,014	-200,000	0,004	-0,043
-507,999	-7,628	-0,163	0,080
-506,985	800,000	-0,035	0,071
-505,970	-141,151	0,139	0,010
-504,956	-200,000	0,012	-0,068
-503,941	-94,009	0,071	0,014
-502,926	-200,000	-0,007	-0,111
-501,912	-200,000	-0,027	0,106
-500,897	-136,446	-0,130	0,011
-499,883	-87,638	0,050	-0,011
-498,868	540,605	0,017	-0,029
-497,853	-68,874	-0,094	-0,026
-496,839	0,132	-0,155	-0,080
-495,824	800,000	0,016	0,042
-494,810	-200,000	0,008	0,077
-493,795	800,000	-0,033	0,102
-492,781	18,498	0,054	0,031
-491,766	55,306	-0,104	-0,073
-490,751	332,721	0,048	0,068
-489,737	270,451	-0,084	-0,108
-488,722	-142,361	-0,053	0,004
-487,708	88,733	0,031	0,025
-486,693	342,636	0,057	0,082
-485,678	-70,837	-0,020	0,006
-484,664	-43,476	-0,027	-0,010
-483,649	-43,901	0,049	-0,018
-482,635	171,503	-0,037	0,038
-481,620	800,000	0,022	-0,057
-480,605	-70,009	0,154	0,042
-479,591	363,989	-0,046	-0,068
-478,576	562,828	0,096	0,169
-477,562	14,182	0,139	-0,079
-476,547	-104,240	0,066	0,011
-475,532	-200,000	0,010	-0,110
-474,518	-200,000	0,038	0,133
-473,503	-191,572	0,021	-0,000
-472,489	-200,000	0,024	-0,112
-471,474	119,195	-0,036	-0,032
-470,459	-200,000	-0,022	0,100
-469,445	-3,843	-0,134	-0,068
-468,430	-200,000	0,010	0,115
-467,416	-93,844	0,040	-0,008
-466,401	1,492	0,112	0,058
-465,386	86,952	-0,072	-0,058
-464,372	-200,000	-0,001	-0,093
-463,357	-2,843	0,129	-0,065
-462,343	-54,704	-0,129	0,042
-461,328	-28,591	-0,037	-0,015
-460,313	800,000	-0,039	-0,101
-459,299	186,203	0,071	-0,077
-458,284	676,216	0,057	-0,108
-457,270	-200,000	0,028	0,106
-456,255	9,354	-0,102	-0,056
-455,241	118,763	-0,040	0,036
-454,226	-200,000	0,013	0,096
-453,211	393,378	0,059	0,090
-452,197	-200,000	0,007	0,028
-451,182	265,254	0,025	0,032
-450,168	-153,015	0,040	0,002
-449,153	-135,875	-0,103	-0,009
-448,138	-200,000	0,023	-0,172
-447,124	-83,265	-0,114	-0,026
-446,109	-10,718	0,042	-0,020
-445,095	-200,000	-0,032	0,158
-444,080	-129,281	0,109	-0,011
-443,065	62,446	-0,064	-0,046
-442,051	173,219	-0,039	0,041
-441,036	-98,594	-0,114	-0,021
-440,022	-126,525	-0,047	0,005
-439,007	-113,537	0,073	0,010
-437,992	318,741	0,091	0,125
-436,978	-200,000	0,043	0,167
-435,963	148,845	0,035	0,035
-434,949	5,154	0,079	0,042
-433,934	18,196	-0,030	-0,017
-432,919	-2,605	0,058	0,030
-431,905	114,551	0,029	0,025
-430,890	47,600	0,088	0,060
-429,876	482,808	-0,023	0,038
-428,861	92,063	0,078	0,064
-427,846	210,476	-0,039	-0,045
-426,832	-136,581	-0,089	0,007
-425,817	311,973	0,068	-0,093
-424,803	660,105	-0,038	-0,071
-423,788	800,000	-0,041	-0,101
-422,773	800,000	-0,011	-0,024
-421,759	-118,593	0,054	0,007
-420,744	-200,000	-0,006	0,057
-419,730	68,301	0,051	-0,038
-418,715	-200,000	-0,018	0,070
-417,701	-131,765	-0,133	0,012
-416,686	27,715	-0,066	0,040
-415,671	-200,000	-0,001	-0,062
-414,657	524,158	0,089	0,152
-413,642	800,000	0,044	0,134
-412,628	98,618	-0,149	-0,125
-411,613	-200,000	0,012	-0,062
-410,598	-136,226	-0,087	-0,007
-409,584	-101,175	0,151	0,027
-408,569	-80,426	0,043	0,010
-407,555	-200,000	-0,005	0,021
-406,540	800,000	0,007	0,020
-405,525	289,015	-0,042	0,055
-404,511	321,586	0,115	0,160
-403,496	-200,000	-0,027	-0,104
-402,482	-200,000	-0,020	0,105
-401,467	484,724	0,032	-0,053
-400,452	510,650	-0,082	-0,139
-399,438	-51,533	-0,059	0,020
-398,423	-200,000	0,005	-0,082
-397,409	-95,984	-0,060	-0,011
-396,394	-51,591	0,016	-0,005
-395,379	146,672	0,131	0,127
-394,365	-200,000	0,011	0,123
-393,350	-200,000	-0,001	-0,034
-392,336	172,140	-0,061	-0,064
-391,321	-109,408	0,085	-0,013
-390,306	594,529	0,066	-0,119
-389,292	-70,247	0,024	0,007
-388,277	177,318	-0,063	0,066
-387,263	-3,300	-0,078	0,039
-386,248	-85,439	0,057	0,013
-385,233	-200,000	0,004	0,052
-384,219	8,255	-0,024	0,013
-383,204	227,169	0,006	-0,007
-382,190	457,268	0,047	-0,076
-381,175	-19,270	-0,045	-0,020
-380,160	-51,141	0,055	0,019
-379,146	-200,000	0,021	0,110
-378,131	-200,000	0,006	0,091
-377,117	31,227	-0,043	0,027
-376,102	-76,304	0,075	0,019
-375,088	-149,091	-0,133	-0,008
-374,073	800,000	0,015	-0,031
-373,058	414,997	-0,040	0,061
-372,044	-120,678	0,087	-0,011
-371,029	-90,150	0,157	-0,033
-370,015	665,362	-0,036	0,068
-369,000	616,622	-0,014	0,025
-367,985	42,461	-0,092	0,060
-366,971	134,014	-0,042	-0,039
-365,956	-200,000	0,016	0,068
-364,942	800,000	0,048	0,137
-363,927	105,571	-0,055	0,047
-362,912	129,510	0,070	-0,065
-361,898	-200,000	0,006	-0,063
-360,883	-200,000	0,007	-0,133
-359,869	269,685	0,029	0,036
-358,854	-100,761	0,116	-0,021
-357,839	56,688	0,071	-0,050
-356,825	163,695	-0,036	0,036
-355,810	43,110	-0,042	0,027
-354,796	-200,000	0,011	0,035
-353,781	764,948	-0,049	-0,097
-352,766	-97,773	0,067	0,012
-351,752	99,966	-0,040	0,034
-350,737	550,641	-0,036	0,063
-349,723	470,774	0,036	0,058
-348,708	-200,000	-0,003	0,080
-347,693	227,322	-0,016	-0,019
-346,679	-200,000	0,018	0,057
-345,664	421,117	-0,045	-0,071
-344,650	-200,000	-0,009	0,179
-343,635	-9,420	0,057	0,028
-342,620	-152,809	0,155	-0,008
-341,606	-200,000	-0,015	0,165
-340,591	88,294	0,118	0,095
-339,577	-156,967	-0,053	-0,002
-338,562	152,888	0,076	-0,075
-337,548	190,860	0,018	0,020
-336,533	-200,000	-0,005	0,027
-335,518	800,000	0,021	0,062
-334,504	228,723	0,010	-0,012
-333,489	33,239	-0,134	-0,084
-332,475	-200,000	0,030	-0,106
-331,460	79,574	-0,056	0,044
-330,445	800,000	-0,030	-0,063
-329,431	-12,702	0,024	0,011
-328,416	-122,125	0,017	-0,002
-327,402	800,000	0,024	-0,067
-326,387	-124,930	-0,092	0,010
-325,372	-46,380	0,045	-0,016
-324,358	-133,959	-0,063	0,006
-323,343	-23,201	-0,048	-0,021
-322,329	-162,710	0,147	-0,005
-321,314	45,054	0,044	0,029
-320,299	361,969	0,065	-0,095
-319,285	-200,000	0,016	0,194
-318,270	-3,181	-0,105	0,053
-317,256	-200,000	0,006	0,093
-316,241	-200,000	-0,020	0,124
-315,226	-149,823	0,173	-0,010
-314,212	-50,213	0,156	-0,053
-313,197	156,682	0,033	0,033
-312,183	-200,000	-0,001	-0,053
-311,168	-158,109	-0,074	-0,003
-310,153	-172,153	-0,117	0,003
-309,139	-200,000	-0,016	0,081
-308,124	-200,000	0,002	-0,097
-307,110	-40,288	0,056	0,021
-306,095	-59,136	-0,045	-0,014
-305,080	-83,911	0,081	-0,019
-304,066	69,335	-0,091	-0,068
-303,051	110,025	0,042	0,036
-302,037	266,476	-0,032	0,041
-301,022	560,067	0,077	0,136
-300,008	-200,000	0,036	-0,149
-298,993	692,647	-0,047	0,089
-297,978	-93,863	-0,144	0,028
-296,964	27,983	0,018	-0,011
-295,949	-200,000	-0,001	-0,042
-294,935	10,935	-0,101	0,056
-293,920	203,556	0,035	0,039
-292,905	162,519	0,036	0,037
-291,891	-16,170	-0,118	-0,054
-290,876	201,236	0,027	-0,030
-289,862	-33,131	-0,094	-0,037
-288,847	-31,533	0,106	-0,043
-287,832	629,246	-0,043	0,079
-286,818	123,385	0,039	-0,036
-285,803	-47,056	0,075	-0,026
-284,789	-24,174	0,087	-0,037
-283,774	129,896	0,082	0,076
-282,759	-200,000	0,017	-0,116
-281,745	-200,000	-0,021	-0,122
-280,730	800,000	-0,059	-0,169
-279,716	-26,340	0,080	0,034
-278,701	592,025	-0,057	-0,103
-277,686	54,860	0,035	-0,025
-276,672	266,939	-0,033	0,042
-275,657	-200,000	-0,031	0,166
-274,643	-0,343	-0,109	-0,056
-273,628	-200,000	0,019	-0,062
-272,613	267,231	0,107	0,136
-271,599	-200,000	0,021	0,133
-270,584	56,519	0,043	0,030
-269,570	-20,569	0,118	0,052
-268,555	-41,441	-0,097	-0,036
-267,540	-200,000	-0,004	-0,094
-266,526	-171,543	-0,160	0,004
-265,511	-106,358	-0,051	0,008
-264,497	308,104	-0,004	-0,005
-263,482	81,142	0,082	-0,064
-262,467	-200,000	-0,015	0,181
-261,453	-93,610	0,102	0,020
-260,438	-200,000	0,048	0,181
-259,424	800,000	0,037	0,084
-258,409	800,000	-0,005	0,015
-257,395	194,054	-0,090	0,098
-256,380	412,211	0,062	-0,095
-255,365	690,082	-0,046	-0,087
-254,351	800,000	-0,072	0,172
-253,336	-63,640	0,082	-0,024
-252,322	287,665	-0,083	-0,109
-251,307	783,753	0,054	-0,108
-250,292	148,201	-0,050	-0,049
-249,278	144,683	0,069	0,066
-248,263	407,193	-0,069	0,105
-247,249	187,930	-0,074	0,079
-246,234	79,989	-0,060	-0,047
-245,219	-45,767	-0,010	0,004
-244,205	665,501	0,073	-0,137
-243,190	-200,000	0,001	0,041
-242,176	438,874	0,019	-0,030
-241,161	-200,000	0,009	-0,068
-240,146	30,836	0,079	-0,049
-239,132	52,711	-0,033	0,023
-238,117	786,361	0,033	0,066
-237,103	-58,307	-0,050	0,016
-236,088	107,841	0,028	0,024
-235,073	-200,000	0,014	-0,061
-234,059	317,736	0,058	0,079
-233,044	800,000	-0,025	0,071
-232,030	562,548	-0,020	0,035
-231,015	-35,403	0,108	-0,042
-230,000	19,326	-0,040	0,023
-228,986	-95,865	-0,100	-0,019
-227,971	150,024	0,115	0,113
-226,957	-200,000	-0,006	-0,038
-225,942	77,777	0,116	0,089
-224,927	-23,003	-0,115	-0,050
-223,913	-28,218	-0,066	0,027
-222,898	283,246	0,036	0,046
-221,884	87,378	-0,092	-0,073
-220,869	266,982	-0,023	0,029
-219,855	-200,000	0,014	0,113
-218,840	800,000	0,064	0,135
-217,825	42,022	0,058	0,038
-216,811	-200,000	-0,008	-0,179
-215,796	-200,000	-0,026	-0,157
-214,782	800,000	0,044	-0,109
-213,767	35,371	0,050	-0,032
-212,752	168,994	-0,059	0,061
-211,738	-84,342	0,050	0,011
-210,723	-125,343	-0,158	-0,017
-209,709	161,557	0,048	0,049
-208,694	256,272	0,024	-0,029
-207,679	-51,446	-0,077	-0,026
-206,665	57,866	0,056	0,039
-205,650	205,242	0,081	-0,090
-204,636	-200,000	-0,038	-0,166
-203,621	-125,048	-0,111	-0,012
-202,606	2,344	0,050	0,026
-201,592	800,000	-0,004	0,011
-200,577	334,062	-0,068	-0,096
-199,563	35,466	0,034	-0,022
-198,548	-83,673	0,102	0,023
-197,533	-51,439	-0,142	-0,048
-196,519	-200,000	0,033	0,116
-195,504	-112,655	-0,146	-0,021
-194,490	465,866	0,038	0,062
-193,475	-91,339	-0,078	0,016
-192,460	259,881	0,127	0,158
-191,446	79,785	0,095	0,073
-190,431	800,000	0,035	-0,094
-189,417	61,542	0,083	0,060
-188,402	-49,912	0,081	-0,027
-187,387	-200,000	0,007	0,120
-186,373	-200,000	-0,048	-0,238
-185,358	586,606	0,075	0,133
-184,344	646,777	-0,040	0,073
-183,329	455,023	0,042	0,068
-182,315	800,000	0,016	0,043
-181,300	129,612	-0,034	-0,031
-180,285	21,580	-0,061	0,035
-179,271	-25,279	-0,102	-0,043
-178,256	800,000	-0,036	0,095
-177,242	-200,000	0,003	-0,045
-176,227	600,195	-0,047	-0,084
-175,212	-114,721	0,074	-0,010
-174,198	531,084	0,029	0,050
-173,183	-28,317	0,128	0,053
-172,169	216,419	0,057	0,066
-171,154	455,660	-0,075	-0,120
-170,139	-0,217	0,058	-0,030
-169,125	800,000	0,038	0,090
-168,110	127,935	0,092	-0,084
-167,096	628,101	0,024	-0,044
-166,081	573,816	-0,022	0,038
-165,066	-18,423	0,097	-0,044
-164,052	-200,000	-0,003	-0,038
-163,037	-200,000	-0,016	-0,103
-162,023	-132,704	-0,117	-0,011
-161,008	282,545	-0,077	0,099
-159,993	-200,000	-0,015	-0,082
-158,979	800,000	0,032	0,080
-157,964	11,134	0,072	0,039
-156,950	-173,116	-0,077	-0,002
-155,935	-200,000	0,032	0,000
-154,920	-200,000	0,018	-0,095
-153,906	244,643	0,081	0,098
-152,891	-200,000	-0,003	0,061
-151,877	-200,000	-0,013	0,133
-150,862	-39,947	-0,107	-0,040
-149,847	-143,796	-0,025	0,002
-148,833	800,000	-0,067	-0,170
-147,818	120,526	0,073	-0,065
-146,804	-55,792	0,062	-0,020
-145,789	92,458	-0,112	0,090
-144,775	-24,854	-0,022	-0,009
-143,760	-160,256	-0,154	-0,006
-142,745	800,000	-0,025	0,061
-141,731	-59,329	0,083	0,026
-140,716	61,673	-0,075	0,054
-139,702	-43,665	-0,105	-0,038
-138,687	-200,000	-0,015	0,059
-137,672	368,187	-0,023	-0,034
-136,658	800,000	0,012	0,025
-135,643	-60,618	-0,052	-0,016
-134,629	-22,773	-0,046	-0,020
-133,614	-115,487	-0,018	0,002
-132,599	800,000	-0,087	0,232
-131,585	-184,280	-0,051	-0,001
-130,570	-200,000	-0,006	-0,132
-129,556	-200,000	-0,031	-0,114
-128,541	-129,259	0,064	0,006
-127,526	633,015	0,024	0,043
-126,512	221,801	-0,098	0,114
-125,497	-55,437	0,193	-0,062
-124,483	240,073	0,047	-0,056
-123,468	433,958	0,051	-0,080
-122,453	-84,967	-0,009	-0,002
-121,439	-43,788	-0,203	-0,073
-120,424	318,738	-0,026	0,035
-119,410	-5,450	0,102	0,050
-118,395	-200,000	0,037	0,206
-117,380	800,000	0,035	-0,078
-116,366	800,000	0,055	-0,131
-115,351	800,000	-0,032	-0,081
-114,337	-200,000	0,001	-0,010
-113,322	762,806	-0,054	-0,105
-112,307	247,780	-0,048	0,059
-111,293	800,000	-0,046	0,131
-110,278	8,435	0,156	0,084
-109,264	269,082	-0,084	0,107
-108,249	800,000	-0,010	-0,021
-107,234	133,228	0,144	0,133
-106,220	257,809	0,080	-0,099
-105,205	-158,629	-0,129	-0,005
-104,191	-200,000	0,050	0,179
-103,176	693,090	-0,021	0,039
-102,162	800,000	-0,049	0,107
-101,147	115,876	-0,083	-0,073
-100,132	58,008	0,075	-0,053
-99,118	73,069	-0,086	0,065
-98,103	701,481	0,089	0,169
-97,089	-87,134	0,143	0,031
-96,074	-200,000	0,015	0,128
-95,059	116,578	0,084	-0,074
-94,045	-34,005	-0,110	0,043
-93,030	-200,000	-0,010	-0,162
-92,016	-178,344	-0,090	0,001
-91,001	-200,000	-0,007	-0,105
-89,986	-200,000	-0,000	-0,027
-88,972	306,543	-0,100	0,134
-87,957	-142,086	0,102	-0,007
-86,943	-183,556	-0,086	0,001
-85,928	6,478	-0,114	-0,061
-84,913	144,159	-0,076	0,073
-83,899	-55,586	-0,057	0,018
-82,884	21,981	-0,064	0,037
-81,870	143,371	0,050	0,048
-80,855	496,195	0,067	0,111
-79,840	-200,000	-0,027	-0,127
-78,826	283,980	-0,013	0,017
-77,811	-200,000	0,040	0,157
-76,797	85,703	-0,121	0,096
-75,782	164,633	0,081	-0,082
-74,767	-189,106	0,044	-0,000
-73,753	97,879	-0,082	0,068
-72,738	146,358	-0,090	0,087
-71,724	516,866	-0,034	0,058
-70,709	-15,854	0,026	0,012
-69,694	-200,000	-0,002	0,062
-68,680	-7,238	-0,019	0,009
-67,665	-108,063	0,040	0,006
-66,651	-200,000	-0,010	-0,092
-65,636	-30,462	0,178	0,072
-64,622	147,286	-0,084	-0,081
-63,607	-33,788	-0,118	0,046
-62,592	82,936	-0,050	-0,039
-61,578	524,866	-0,080	0,135
-60,563	621,481	-0,092	0,166
-59,549	247,478	-0,077	0,093
-58,534	37,131	-2,238	-1,416
-57,519	-200,000	0,053	-0,690
-56,505	-200,000	-1,587	-5,178
-55,490	100,837	0,862	0,717
-54,476	800,000	5,273	12,159
-53,461	-200,000	19,039	320,324
-52,446	800,000	741,712	2324,997
-51,432	548,830	1654,705	2849,652
-50,417	109,744	1637,417	1405,267
-49,403	73,378	1287,795	963,847
-48,388	29,480	1029,500	625,205
-47,373	19,591	992,709	570,163
-46,359	16,901	980,195	554,121
-45,344	13,540	976,507	540,990
-44,330	13,858	974,719	541,019
-43,315	13,200	972,924	537,848
-42,300	13,050	972,028	536,840
-41,286	13,100	971,026	536,429
-40,271	13,177	969,875	536,024
-39,257	13,191	969,155	535,648
-38,242	13,144	968,357	535,033
-37,227	13,120	967,419	534,418
-36,213	13,142	966,638	534,034
-35,198	13,113	965,671	533,387
-34,184	13,150	965,078	533,158
-33,169	13,106	963,914	532,351
-32,154	13,160	962,894	531,939
-31,140	13,122	962,166	531,395
-30,125	13,136	961,607	531,109
-29,111	13,084	960,710	530,424
-28,096	13,141	959,750	530,058
-27,082	13,104	959,279	529,658
-26,067	13,145	958,609	529,399
-25,052	13,111	957,790	528,817
-24,038	13,120	957,169	528,481
-23,023	13,132	956,399	528,073
-22,009	13,176	955,831	527,881
-20,994	13,146	955,277	527,457
-19,979	13,169	954,726	527,206
-18,965	13,190	953,994	526,847
-17,950	13,179	953,323	526,423
-16,936	13,132	952,809	525,966
-15,921	13,097	952,256	525,529
-14,906	13,061	951,268	524,848
-13,892	13,008	950,736	524,361
-12,877	13,064	950,039	524,136
-11,863	12,997	949,529	523,621
-10,848	13,055	949,093	523,545
-9,833	13,136	948,475	523,442
-8,819	13,099	947,519	522,773
-7,804	13,081	946,906	522,357
-6,790	12,952	946,602	521,761
-5,775	13,002	945,951	521,539
-4,760	13,096	945,128	521,363
-3,746	13,045	944,642	520,913
-2,731	12,906	944,020	520,107
-1,717	12,845	943,302	519,499
-0,702	12,890	942,526	519,193
0,313	12,656	942,157	519,032
1,327	16,176	939,929	528,877
2,342	25,399	790,474	469,093
3,356	21,444	445,098	258,249
4,371	-7,969	298,607	143,555
5,386	-11,796	280,532	131,187
6,400	-13,059	274,633	127,231
7,415	-13,068	272,461	126,205
8,429	-13,290	271,002	125,313
9,444	-13,147	270,063	125,000
10,459	-13,100	269,224	124,643
11,473	-13,336	268,779	124,210
12,488	-13,398	268,133	123,843
13,502	-13,638	267,620	123,375
14,517	-13,502	267,283	123,333
15,531	-13,496	266,965	123,181
16,546	-13,233	266,413	123,155
17,561	-13,404	265,989	122,792
18,575	-13,292	265,771	122,782
19,590	-13,440	265,393	122,463
20,604	-13,326	265,243	122,486
21,619	-13,390	264,638	122,137
22,634	-13,517	264,355	121,882
23,648	-13,429	263,991	121,782
24,663	-13,513	263,813	121,614
25,677	-13,363	263,513	121,600
26,692	-13,500	263,184	121,314
27,707	-13,550	263,006	121,176
28,721	-13,423	262,506	121,049
29,736	-13,526	262,435	120,914
30,750	-13,421	262,190	120,884
31,765	-13,536	261,812	120,595
32,780	-13,722	261,775	120,402
33,794	-13,362	261,438	120,557
34,809	-13,389	261,102	120,367
35,823	-13,312	260,941	120,351
36,838	-13,495	260,571	120,007
37,853	-13,623	260,417	119,812
38,867	-13,639	260,194	119,684
39,882	-13,353	259,976	119,826
40,896	-13,587	259,865	119,558
41,911	-13,638	259,579	119,369
42,926	-13,456	259,172	119,333
43,940	-13,559	258,949	119,129
44,955	-13,591	258,680	118,966
45,969	-13,747	258,544	118,756
46,984	-13,947	258,279	118,447
47,999	-14,134	258,067	118,175
49,013	-14,322	257,720	117,841
50,028	-14,441	257,639	117,688
51,042	-14,335	257,194	117,568
52,057	-14,502	256,863	117,260
53,071	-14,397	256,811	117,318
54,086	-14,168	256,543	117,384
55,101	-14,443	256,527	117,126
56,115	-13,759	256,117	117,526
57,130	-13,286	256,205	117,968
58,144	-13,203	255,939	117,907
59,159	-13,322	255,720	117,692
60,174	-13,277	255,523	117,630
61,188	-13,364	255,344	117,462
62,203	-13,276	255,138	117,433
63,217	-13,465	254,906	117,152
64,232	-13,407	254,638	117,069
65,247	-13,445	254,478	116,951
66,261	-13,436	254,069	116,761
67,276	-13,647	253,959	116,518
68,290	-13,782	253,562	116,209
69,305	-13,948	253,505	116,029
70,320	-13,841	253,238	115,988
71,334	-13,415	252,871	116,176
72,349	-13,454	252,955	116,171
73,363	-13,256	252,658	116,195
74,378	-13,396	252,775	116,117
75,393	-13,295	252,304	115,977
76,407	-13,524	252,092	115,674
77,422	-13,473	251,976	115,654
78,436	-13,481	251,783	115,548
79,451	-13,313	251,313	115,465
80,466	-13,396	251,071	115,273
81,480	-13,396	250,912	115,190
82,495	-13,667	250,807	114,900
83,509	-13,621	250,579	114,825
84,524	-13,675	250,236	114,611
85,539	-13,979	250,111	114,286
86,553	-13,880	249,833	114,233
87,568	-13,774	249,707	114,255
88,582	-13,722	249,462	114,177
89,597	-13,792	249,388	114,073
90,611	-13,605	249,138	114,107
91,626	-13,475	249,103	114,191
92,641	-13,490	248,947	114,096
93,655	-13,495	248,697	113,967
94,670	-13,540	248,385	113,776
95,684	-13,751	248,242	113,523
96,699	-13,517	247,979	113,590
97,714	-13,660	247,851	113,400
98,728	-13,799	247,569	113,144
99,743	-13,581	247,315	113,201
100,757	-13,717	247,110	112,983
101,772	-13,802	247,033	112,866
102,787	-13,891	246,874	112,709
103,801	-13,642	246,543	112,756
104,816	-13,614	246,436	112,721
105,830	-13,482	246,386	112,798
106,845	-13,358	246,288	112,847
107,860	-13,415	245,970	112,644
108,874	-13,663	245,932	112,409
109,889	-13,691	245,480	112,169
110,903	-13,771	245,355	112,036
111,918	-13,627	245,097	112,028
112,933	-13,453	244,971	112,104
113,947	-13,509	244,828	111,983
114,962	-13,422	244,726	111,998
115,976	-13,428	244,552	111,904
116,991	-13,647	244,294	111,594
118,006	-13,526	244,124	111,607
119,020	-13,452	243,943	111,574
120,035	-13,561	243,875	111,444
121,049	-13,364	243,812	111,568
122,064	-13,436	243,468	111,341
123,079	-13,506	243,197	111,150
124,093	-13,719	243,153	110,944
125,108	-13,951	242,733	110,552
126,122	-14,096	242,481	110,309
127,137	-13,935	242,265	110,333
128,151	-13,872	242,061	110,282
129,166	-13,831	242,027	110,290
130,181	-14,114	241,778	109,935
131,195	-13,874	241,643	110,060
132,210	-13,759	241,409	110,037
133,224	-13,597	241,248	110,086
134,239	-13,508	241,074	110,070
135,254	-13,391	241,029	110,135
136,268	-13,483	240,583	109,846
137,283	-13,812	240,369	109,471
138,297	-14,215	240,294	109,100
139,312	-14,049	240,028	109,105
140,327	-13,774	239,955	109,285
141,341	-13,133	239,939	109,786
142,356	-13,289	239,803	109,589
143,370	-13,254	239,682	109,552
144,385	-13,064	239,486	109,606
145,400	-13,028	239,324	109,551
146,414	-13,258	239,059	109,234
147,429	-13,201	239,005	109,246
148,443	-13,330	238,720	109,002
149,458	-13,329	238,578	108,928
150,473	-13,264	238,210	108,803
151,487	-13,136	238,008	108,804
152,502	-13,167	237,969	108,751
153,516	-13,182	237,856	108,678
154,531	-13,219	237,665	108,552
155,546	-13,076	237,447	108,556
156,560	-13,293	237,318	108,314
157,575	-13,512	237,048	108,006
158,589	-13,283	236,772	108,054
159,604	-13,279	236,853	108,084
160,619	-12,932	236,539	108,208
161,633	-12,904	236,445	108,178
162,648	-13,273	236,511	107,904
163,662	-13,299	236,305	107,779
164,677	-13,477	236,125	107,546
165,692	-13,152	235,954	107,717
166,706	-13,213	235,777	107,578
167,721	-12,907	235,598	107,730
168,735	-13,069	235,522	107,557
169,750	-13,162	235,301	107,373
170,764	-13,253	235,243	107,265
171,779	-13,026	234,992	107,321
172,794	-13,109	234,808	107,162
173,808	-13,251	234,500	106,899
174,823	-13,780	234,201	106,336
175,837	-13,894	234,151	106,214
176,852	-13,573	234,076	106,423
177,867	-13,187	233,965	106,667
178,881	-13,323	233,897	106,520
179,896	-13,022	233,728	106,671
180,910	-13,138	233,601	106,511
181,925	-12,892	233,291	106,554
182,940	-13,219	233,311	106,296
183,954	-13,025	233,232	106,403
184,969	-13,063	232,947	106,234
185,983	-13,037	232,836	106,194
186,998	-12,856	232,642	106,238
188,013	-12,780	232,334	106,147
189,027	-12,971	232,306	105,976
190,042	-12,923	232,055	105,889
191,056	-13,035	231,882	105,714
192,071	-13,105	231,818	105,620
193,086	-12,878	231,521	105,653
194,100	-12,878	231,479	105,624
195,115	-13,492	230,974	104,907
196,129	-13,696	230,909	104,710
197,144	-8,120	232,758	109,899
198,159	-2,177	234,603	115,431
199,173	2,243	236,008	119,597
200,188	2,997	236,017	120,184
201,202	2,838	235,839	119,958
202,217	2,899	235,617	119,882
203,232	2,983	235,599	119,928
204,246	3,203	235,492	120,035
205,261	3,261	235,297	119,971
206,275	3,363	235,132	119,956
207,290	3,497	235,142	120,056
208,304	3,194	234,920	119,694
209,319	3,250	234,667	119,599
210,334	3,342	234,362	119,505
211,348	3,161	234,035	119,186
212,363	2,691	233,918	118,749
213,377	2,598	233,781	118,597
214,392	2,508	233,620	118,434
215,407	2,678	233,505	118,498
216,421	2,579	233,467	118,391
217,436	2,793	233,154	118,388
218,450	2,442	232,820	117,936
219,465	2,380	232,828	117,881
220,480	2,391	232,635	117,782
221,494	2,383	232,563	117,728
222,509	2,824	232,385	117,969
223,523	2,767	232,311	117,876
224,538	2,719	232,065	117,704
225,553	2,500	232,051	117,518
226,567	2,365	231,974	117,364
227,582	2,949	231,819	117,725
228,596	2,980	231,772	117,714
229,611	2,741	231,291	117,276
230,626	2,412	231,260	116,997
231,640	2,408	231,031	116,868
232,655	2,726	230,987	117,079
233,669	3,081	230,880	117,287
234,684	2,990	230,904	117,219
235,699	2,999	230,583	117,052
236,713	2,733	230,444	116,767
237,728	2,834	230,059	116,639
238,742	2,352	230,047	116,254
239,757	2,845	229,846	116,519
240,772	2,514	229,841	116,253
241,786	2,448	229,557	116,049
242,801	2,960	229,450	116,374
243,815	3,061	229,502	116,468
244,830	2,924	229,353	116,277
245,844	2,466	229,128	115,804
246,859	2,867	228,853	115,960
247,874	2,944	228,792	115,977
248,888	2,943	228,495	115,815
249,903	2,729	228,416	115,603
250,917	2,582	228,272	115,408
251,932	2,589	228,049	115,291
252,947	2,504	227,861	115,121
253,961	2,460	227,713	115,003
254,976	2,424	227,821	115,019
255,990	2,805	227,540	115,155
257,005	2,709	227,439	115,021
258,020	2,636	227,322	114,897
259,034	2,835	227,140	114,944
260,049	2,704	227,069	114,799
261,063	2,648	226,870	114,646
262,078	2,965	226,712	114,795
263,093	3,111	226,679	114,878
264,107	2,975	226,394	114,621
265,122	2,907	226,369	114,547
266,136	3,105	226,263	114,631
267,151	3,128	225,920	114,465
268,166	2,582	225,681	113,925
269,180	2,315	225,506	113,627
270,195	2,413	225,449	113,661
271,209	2,456	225,286	113,602
272,224	2,593	225,316	113,709
273,239	2,689	225,260	113,741
274,253	2,562	224,847	113,429
275,268	2,431	224,778	113,286
276,282	2,432	224,518	113,146
277,297	2,251	224,466	112,974
278,312	2,503	224,292	113,064
279,326	2,754	224,096	113,141
280,341	2,724	224,007	113,065
281,355	2,652	223,846	112,920
282,370	2,737	223,674	112,886
283,384	2,449	223,482	112,566
284,399	2,458	223,292	112,467
285,414	2,268	223,425	112,383
286,428	2,482	223,156	112,396
287,443	2,672	223,249	112,574
288,457	2,532	223,051	112,360
289,472	2,615	222,616	112,192
290,487	2,296	222,300	111,789
291,501	2,144	222,232	111,632
292,516	2,135	222,273	111,636
293,530	2,233	222,134	111,628
294,545	2,295	221,958	111,576
295,560	2,699	221,833	111,799
296,574	2,542	221,690	111,602
297,589	2,844	221,448	111,691
298,603	2,785	221,357	111,593
299,618	2,467	221,413	111,378
300,633	2,550	221,347	111,395
301,647	2,790	221,212	111,493
302,662	3,009	221,037	111,555
303,676	2,829	220,943	111,366
304,691	3,059	220,580	111,340
305,706	2,818	220,573	111,152
306,720	2,979	220,384	111,164
307,735	2,654	220,176	110,812
308,749	2,614	219,984	110,677
309,764	2,674	219,942	110,690
310,779	2,919	219,912	110,843
311,793	2,730	219,700	110,589
312,808	2,733	219,529	110,495
313,822	2,566	219,331	110,265
314,837	2,606	219,222	110,229
315,852	2,322	219,116	109,960
316,866	2,570	218,960	110,052
317,881	2,677	218,950	110,114
318,895	2,442	218,810	109,864
319,910	2,586	218,492	109,798
320,925	2,218	218,229	109,391
321,939	2,018	218,084	109,165
322,954	2,337	217,944	109,315
323,968	2,767	217,938	109,611
324,983	2,951	217,774	109,651
325,997	2,846	217,845	109,601
327,012	2,854	217,504	109,426
328,027	3,015	217,470	109,515
329,041	3,240	217,366	109,614
330,056	2,990	217,237	109,359
331,070	2,810	217,075	109,139
332,085	2,367	216,850	108,700
333,100	2,738	216,630	108,845
334,114	2,752	216,644	108,852
335,129	2,704	216,371	108,671
336,143	2,545	216,254	108,489
337,158	2,184	216,174	108,183
338,173	2,170	215,901	108,026
339,187	2,603	215,800	108,274
340,202	2,742	215,745	108,335
341,216	2,372	215,572	107,976
342,231	2,697	215,480	108,151
343,246	2,531	215,531	108,049
344,260	2,744	215,271	108,060
345,275	2,837	215,177	108,069
346,289	2,930	215,034	108,054
347,304	2,742	214,989	107,888
348,319	2,638	214,699	107,660
349,333	2,832	214,473	107,674
350,348	2,947	214,337	107,676
351,362	2,822	214,344	107,583
352,377	2,961	214,192	107,595
353,392	2,843	213,941	107,376
354,406	2,875	213,892	107,364
355,421	197,209	1313,343	1391,587
356,435	157,809	1447,236	1391,534
