DTS Sentinel unit serial number:	SN410029Multiplexer serial number:	ORYXHardware model number:	OX2-SRSoftware version number:	ORYX F/W v4,00 Oryx Data Collector v3.7.2.0data status	okinstallation	B6 Nyhavnadifferential loss correction	single-endedforward channel	channel 2reverse channel	N/Adate	2023/12/09time	17:30:08forward acquisition time	300,00reverse acquisition time	0,00gamma	499,1914k internal	0,3130k external	0,3130temperature offset calibration	1,0000default loss term (dB/km)	0,3820temperature slope calibration	1,0000multiplexer offset coefficient	1,0000multiplexer slope coefficient	1,0000fibre end	0,00T internal ref (°C)	21,00T ext. ref 1 (°C)	4,73T ext. ref 2 (°C)	4,73length (m)	temperature (°C)	Stokes	anti-Stokes-744,400	-200,000	0,006	-0,029
-743,385	-200,000	-0,028	0,097
-742,371	530,014	0,044	0,077
-741,356	206,048	-0,151	0,175
-740,342	16,843	0,188	0,111
-739,327	-91,946	-0,388	0,081
-738,312	-15,365	0,122	-0,058
-737,298	-97,232	-0,258	-0,050
-736,283	9,513	-0,163	0,092
-735,269	106,966	-0,199	0,175
-734,254	-29,270	0,037	-0,016
-733,239	-16,701	-0,350	-0,164
-732,225	334,592	0,077	0,111
-731,210	-200,000	-0,025	0,152
-730,196	-151,757	-0,098	0,005
-729,181	-200,000	0,003	-0,107
-728,167	158,611	-0,072	-0,074
-727,152	-14,782	-0,043	0,021
-726,137	4,073	-0,226	-0,122
-725,123	-200,000	-0,025	0,111
-724,108	363,459	-0,062	0,093
-723,094	-64,197	-0,131	-0,040
-722,079	-200,000	-0,010	-0,123
-721,064	27,533	-0,057	-0,036
-720,050	51,601	-0,036	0,026
-719,035	-111,867	-0,078	0,012
-718,021	305,508	-0,061	-0,084
-717,006	83,420	-0,077	-0,062
-715,991	62,888	-0,053	-0,040
-714,977	431,599	0,055	0,089
-713,962	-47,042	0,074	0,027
-712,948	339,464	0,019	0,028
-711,933	-200,000	0,010	-0,123
-710,918	393,964	-0,005	0,008
-709,904	-200,000	-0,057	-0,207
-708,889	-200,000	0,003	0,034
-707,875	800,000	-0,046	-0,108
-706,860	800,000	0,015	0,043
-705,845	166,494	-0,066	-0,070
-704,831	-57,193	-0,039	0,013
-703,816	257,296	-0,081	0,103
-702,802	-31,284	0,032	0,013
-701,787	-200,000	0,011	-0,092
-700,772	-158,679	-0,145	-0,006
-699,758	-200,000	0,000	0,008
-698,743	329,927	-0,031	-0,045
-697,729	147,889	-0,146	0,147
-696,714	545,712	-0,066	0,118
-695,699	-200,000	-0,001	-0,042
-694,685	34,832	0,028	-0,018
-693,670	-200,000	-0,022	-0,106
-692,656	800,000	0,054	-0,130
-691,641	-200,000	-0,021	-0,102
-690,627	-200,000	-0,008	0,038
-689,612	-200,000	0,004	0,015
-688,597	168,116	0,071	-0,075
-687,583	616,024	0,021	-0,039
-686,568	-200,000	0,013	0,103
-685,554	-200,000	-0,016	-0,130
-684,539	-200,000	-0,029	0,121
-683,524	-5,538	-0,044	-0,022
-682,510	-102,828	0,098	-0,017
-681,495	-120,861	-0,108	0,013
-680,481	656,457	-0,052	-0,099
-679,466	168,141	-0,078	0,083
-678,451	-200,000	0,014	-0,052
-677,437	-67,382	0,136	0,039
-676,422	115,626	0,070	0,063
-675,408	772,631	0,044	0,089
-674,393	338,964	-0,066	-0,096
-673,378	-200,000	-0,011	-0,068
-672,364	800,000	0,017	-0,040
-671,349	800,000	-0,065	-0,148
-670,335	-200,000	0,000	0,073
-669,320	165,799	0,063	0,066
-668,305	186,200	0,025	-0,028
-667,291	-30,321	0,044	0,018
-666,276	-200,000	-0,045	-0,191
-665,262	517,044	0,081	-0,141
-664,247	800,000	-0,065	-0,142
-663,232	-200,000	-0,003	-0,071
-662,218	-53,257	0,061	-0,021
-661,203	-130,407	0,126	0,012
-660,189	-62,528	0,072	-0,022
-659,174	184,833	-0,136	-0,150
-658,159	364,334	-0,089	0,133
-657,145	-65,460	0,101	0,030
-656,130	232,464	-0,036	0,044
-655,116	-101,634	0,107	-0,019
-654,101	39,772	0,108	-0,072
-653,086	692,621	0,080	0,156
-652,072	32,229	-0,110	0,070
-651,057	488,321	0,087	-0,148
-650,043	800,000	-0,021	-0,068
-649,028	-200,000	-0,000	-0,002
-648,014	-152,241	0,051	0,003
-646,999	65,164	-0,037	-0,027
-645,984	-2,508	-0,148	0,077
-644,970	414,079	-0,072	-0,113
-643,955	57,354	-0,077	-0,056
-642,941	800,000	-0,039	-0,105
-641,926	-200,000	-0,006	-0,057
-640,911	-62,585	0,031	0,010
-639,897	87,115	-0,035	0,029
-638,882	-200,000	0,062	0,214
-637,868	49,559	-0,021	-0,015
-636,853	-94,684	-0,114	0,023
-635,838	56,797	-0,138	-0,099
-634,824	800,000	-0,035	-0,093
-633,809	22,943	0,075	0,046
-632,795	-200,000	0,001	0,073
-631,780	-200,000	-0,020	-0,103
-630,765	-200,000	0,005	0,115
-629,751	-103,579	-0,018	-0,003
-628,736	93,469	-0,090	-0,075
-627,722	211,827	0,074	0,086
-626,707	-103,140	-0,081	0,014
-625,692	-116,318	-0,036	0,005
-624,678	-17,516	0,042	0,019
-623,663	-168,757	-0,086	0,002
-622,649	722,796	0,008	-0,016
-621,634	800,000	-0,052	-0,169
-620,619	-200,000	-0,022	-0,111
-619,605	-200,000	-0,001	-0,020
-618,590	90,435	-0,039	0,032
-617,576	-200,000	0,039	0,221
-616,561	24,571	-0,076	0,047
-615,546	-96,468	-0,116	-0,022
-614,532	-118,816	-0,078	0,010
-613,517	-14,690	-0,113	-0,054
-612,503	-200,000	-0,012	0,079
-611,488	-200,000	-0,007	0,056
-610,474	42,497	-0,083	0,056
-609,459	800,000	0,029	0,096
-608,444	-200,000	-0,007	-0,036
-607,430	-200,000	-0,014	-0,122
-606,415	-114,662	-0,106	-0,015
-605,401	282,730	0,029	-0,038
-604,386	140,594	0,105	-0,102
-603,371	-200,000	-0,004	-0,059
-602,357	46,863	-0,056	-0,039
-601,342	800,000	0,063	-0,150
-600,328	192,751	-0,103	-0,115
-599,313	-200,000	0,061	-0,234
-598,298	800,000	-0,017	-0,052
-597,284	768,540	0,040	0,081
-596,269	363,646	-0,078	0,117
-595,255	590,970	0,067	0,122
-594,240	-200,000	0,005	-0,077
-593,225	-72,773	-0,138	0,037
-592,211	-20,244	-0,185	-0,084
-591,196	247,193	0,096	-0,120
-590,182	534,420	-0,059	-0,103
-589,167	85,905	-0,016	0,013
-588,152	48,158	-0,088	0,061
-587,138	427,071	-0,022	-0,035
-586,123	-95,016	0,019	0,004
-585,109	-66,484	0,092	-0,027
-584,094	-98,303	-0,059	-0,011
-583,079	98,089	0,066	-0,056
-582,065	800,000	0,032	0,066
-581,050	666,520	0,039	-0,074
-580,036	644,861	0,022	0,043
-579,021	222,762	0,051	-0,061
-578,006	-50,713	-0,101	-0,035
-576,992	-200,000	0,002	0,010
-575,977	-200,000	0,023	0,089
-574,963	50,777	-0,072	-0,050
-573,948	-180,730	0,230	-0,003
-572,934	-200,000	-0,017	0,056
-571,919	-200,000	0,001	-0,116
-570,904	274,094	0,045	-0,059
-569,890	800,000	0,039	0,081
-568,875	-200,000	0,017	-0,202
-567,861	45,357	0,050	-0,034
-566,846	243,842	0,092	0,114
-565,831	93,060	-0,130	0,109
-564,817	-200,000	0,016	-0,078
-563,802	800,000	-0,024	-0,074
-562,788	800,000	-0,086	-0,240
-561,773	-112,425	0,081	0,012
-560,758	198,378	-0,091	-0,103
-559,744	21,222	0,064	-0,039
-558,729	-129,179	-0,056	-0,006
-557,715	2,998	0,100	-0,053
-556,700	139,886	0,041	0,040
-555,685	261,163	0,035	-0,044
-554,671	-101,481	0,045	0,008
-553,656	172,110	-0,030	0,031
-552,642	-63,272	-0,084	-0,026
-551,627	-200,000	0,012	0,069
-550,612	-46,234	-0,052	0,019
-549,598	104,835	0,032	0,028
-548,583	-200,000	-0,025	-0,086
-547,569	465,778	-0,069	-0,114
-546,554	800,000	0,045	0,143
-545,539	-200,000	-0,020	-0,070
-544,525	-127,271	0,049	0,005
-543,510	-200,000	-0,018	-0,088
-542,496	54,688	-0,126	-0,090
-541,481	-181,141	-0,115	-0,002
-540,466	-159,844	0,061	-0,002
-539,452	-200,000	0,002	0,011
-538,437	164,981	-0,036	-0,037
-537,423	0,919	-0,172	-0,091
-536,408	144,698	-0,083	0,081
-535,393	-171,064	0,032	-0,001
-534,379	93,825	0,063	0,053
-533,364	16,837	-0,090	-0,052
-532,350	-200,000	-0,007	0,029
-531,335	598,230	0,042	0,078
-530,321	-200,000	-0,007	0,088
-529,306	-200,000	0,003	0,017
-528,291	356,761	-0,054	-0,080
-527,277	257,594	-0,011	0,014
-526,262	-85,049	0,145	0,033
-525,248	529,842	0,010	-0,017
-524,233	-200,000	-0,011	0,086
-523,218	-16,910	-0,120	-0,056
-522,204	152,658	-0,055	-0,056
-521,189	-17,346	0,040	-0,018
-520,175	299,329	-0,066	-0,090
-519,160	-200,000	0,008	0,069
-518,145	21,207	0,051	-0,030
-517,131	-200,000	0,003	0,033
-516,116	-200,000	-0,016	0,079
-515,102	800,000	0,030	-0,084
-514,087	800,000	0,040	-0,127
-513,072	-71,443	-0,131	0,036
-512,058	800,000	0,049	0,104
-511,043	-45,154	0,090	-0,033
-510,029	-200,000	-0,014	0,075
-509,014	-165,734	-0,091	-0,003
-507,999	56,564	0,038	0,027
-506,985	-98,460	-0,114	0,021
-505,970	166,119	-0,021	0,022
-504,956	345,643	-0,044	-0,064
-503,941	242,919	-0,100	-0,123
-502,926	683,272	0,071	0,137
-501,912	800,000	-0,063	0,129
-500,897	342,723	0,052	0,075
-499,883	-57,937	-0,125	0,040
-498,868	308,769	-0,024	-0,033
-497,853	-57,981	-0,068	0,022
-496,839	-17,194	0,140	0,065
-495,824	285,849	0,100	-0,132
-494,810	40,066	0,089	-0,059
-493,795	267,042	0,051	-0,065
-492,781	34,595	0,090	0,058
-491,766	56,068	-0,027	-0,019
-490,751	-200,000	-0,020	0,095
-489,737	-146,256	-0,030	0,002
-488,722	30,006	0,068	-0,043
-487,708	-200,000	-0,008	0,107
-486,693	-200,000	0,015	-0,084
-485,678	-147,824	0,097	-0,006
-484,664	-164,208	-0,102	-0,003
-483,649	800,000	0,015	-0,036
-482,635	-4,622	-0,032	0,016
-481,620	-44,268	0,139	-0,051
-480,605	-200,000	0,028	0,093
-479,591	-200,000	0,013	0,099
-478,576	-85,915	-0,052	0,012
-477,562	-1,638	0,053	0,027
-476,547	-200,000	0,010	-0,061
-475,532	162,282	-0,080	-0,083
-474,518	-77,508	0,128	-0,033
-473,503	-200,000	0,026	0,226
-472,489	461,449	-0,091	-0,149
-471,474	-200,000	-0,003	0,017
-470,459	375,675	0,036	-0,054
-469,445	-146,195	-0,117	-0,007
-468,430	131,130	-0,037	0,035
-467,416	246,885	0,105	-0,130
-466,401	20,369	0,054	0,032
-465,386	-200,000	0,001	0,083
-464,372	-200,000	0,022	-0,111
-463,357	162,500	-0,060	-0,062
-462,343	800,000	0,071	-0,167
-461,328	-66,465	0,082	-0,024
-460,313	-15,717	-0,076	0,035
-459,299	465,800	0,054	-0,088
-458,284	55,740	-0,013	0,009
-457,270	239,569	-0,031	0,038
-456,255	800,000	-0,043	0,089
-455,241	-108,723	0,124	-0,019
-454,226	-200,000	-0,051	-0,198
-453,211	-200,000	-0,020	-0,078
-452,197	-86,907	0,110	0,024
-451,182	-119,772	0,131	0,016
-450,168	197,349	0,048	-0,054
-449,153	63,925	-0,136	-0,100
-448,138	-84,173	-0,073	0,017
-447,124	97,583	-0,057	0,048
-446,109	565,239	-0,049	0,088
-445,095	40,974	0,046	0,031
-444,080	800,000	0,025	0,069
-443,065	-148,871	0,188	0,011
-442,051	-114,421	0,097	-0,014
-441,036	-200,000	-0,005	0,021
-440,022	17,967	-0,131	0,076
-439,007	-107,052	0,168	-0,027
-437,992	554,534	0,085	0,151
-436,978	133,052	-0,033	0,031
-435,963	76,314	0,079	-0,062
-434,949	-200,000	-0,001	0,014
-433,934	800,000	0,025	-0,052
-432,919	-129,168	-0,137	0,014
-431,905	-200,000	0,013	0,070
-430,890	134,029	-0,028	0,027
-429,876	-97,917	-0,085	0,016
-428,861	800,000	-0,026	-0,062
-427,846	-200,000	0,008	-0,087
-426,832	800,000	-0,052	0,128
-425,817	-200,000	0,004	0,049
-424,803	28,072	0,021	-0,013
-423,788	800,000	0,009	-0,025
-422,773	-161,985	0,034	-0,001
-421,759	-200,000	0,018	0,074
-420,744	800,000	-0,006	0,012
-419,730	116,707	-0,026	0,024
-418,715	-200,000	-0,025	-0,149
-417,701	-200,000	-0,001	-0,045
-416,686	-200,000	-0,022	-0,087
-415,671	-95,582	0,110	-0,022
-414,657	-200,000	-0,013	-0,055
-413,642	-200,000	-0,005	0,031
-412,628	404,678	-0,048	-0,074
-411,613	485,605	-0,042	0,070
-410,598	800,000	0,036	0,096
-409,584	-31,154	0,101	0,042
-408,569	800,000	-0,033	0,093
-407,555	90,604	0,056	0,046
-406,540	-30,133	-0,020	0,008
-405,525	170,086	-0,077	0,081
-404,511	236,345	0,059	0,072
-403,496	114,374	-0,035	-0,031
-402,482	-200,000	0,013	-0,131
-401,467	-200,000	0,015	0,118
-400,452	113,389	0,024	-0,022
-399,438	-200,000	0,016	-0,091
-398,423	65,368	0,108	-0,080
-397,409	46,534	0,091	-0,062
-396,394	-200,000	0,023	0,092
-395,379	69,562	0,140	-0,105
-394,365	344,397	-0,078	0,113
-393,350	-200,000	0,033	0,167
-392,336	-200,000	0,022	0,124
-391,321	800,000	-0,032	-0,097
-390,306	-151,645	-0,097	0,005
-389,292	-53,187	-0,064	0,021
-388,277	-155,246	0,049	-0,002
-387,263	406,317	0,035	-0,054
-386,248	-83,348	-0,052	-0,012
-385,233	-51,255	0,056	-0,019
-384,219	-200,000	0,007	-0,022
-383,204	252,223	0,059	-0,074
-382,190	-117,291	-0,078	-0,010
-381,175	-130,589	-0,076	-0,007
-380,160	205,282	0,015	0,017
-379,146	800,000	0,034	0,106
-378,131	-102,817	0,045	-0,008
-377,117	800,000	-0,017	0,051
-376,102	242,740	-0,071	-0,087
-375,088	800,000	0,029	0,058
-374,073	691,391	0,087	-0,168
-373,058	-200,000	0,016	-0,104
-372,044	-200,000	-0,028	0,129
-371,029	255,378	-0,028	0,035
-370,015	-108,500	0,084	0,013
-369,000	659,608	-0,030	0,057
-367,985	800,000	-0,086	0,254
-366,971	57,763	0,021	0,015
-365,956	800,000	-0,031	0,083
-364,942	-126,587	0,142	-0,015
-363,927	88,995	-0,089	0,073
-362,912	-77,599	-0,220	-0,055
-361,898	-200,000	0,013	-0,049
-360,883	-109,272	-0,085	-0,013
-359,869	-129,338	0,044	0,004
-358,854	59,275	0,114	0,082
-357,839	-140,840	0,092	0,007
-356,825	128,324	0,027	-0,026
-355,810	-200,000	0,001	-0,151
-354,796	-200,000	-0,012	0,079
-353,781	-140,913	0,175	-0,013
-352,766	-200,000	0,007	-0,048
-351,752	-66,597	0,058	0,017
-350,737	-200,000	0,005	0,122
-349,723	543,363	-0,017	-0,029
-348,708	-136,797	0,158	0,013
-347,693	-200,000	0,014	-0,124
-346,679	-30,340	0,036	-0,015
-345,664	156,930	-0,094	-0,095
-344,650	634,063	-0,033	-0,061
-343,635	-24,748	0,187	0,081
-342,620	83,420	-0,014	0,011
-341,606	210,079	-0,070	-0,080
-340,591	-2,228	-0,157	-0,080
-339,577	-200,000	0,006	0,059
-338,562	60,953	0,068	-0,049
-337,548	209,562	0,064	0,073
-336,533	-85,959	0,086	0,019
-335,518	800,000	-0,065	0,137
-334,504	-200,000	0,019	0,097
-333,489	766,374	0,035	-0,069
-332,475	-25,232	-0,044	-0,019
-331,460	-200,000	-0,021	0,082
-330,445	800,000	-0,033	-0,101
-329,431	-73,366	-0,048	0,013
-328,416	114,815	-0,102	-0,091
-327,402	168,663	-0,041	0,043
-326,387	-18,075	-0,089	0,041
-325,372	-22,904	-0,109	0,048
-324,358	-180,554	-0,090	-0,001
-323,343	-200,000	-0,031	-0,192
-322,329	433,940	-0,025	-0,040
-321,314	304,859	-0,055	0,075
-320,299	800,000	-0,026	-0,085
-319,285	-200,000	-0,001	-0,052
-318,270	220,467	-0,040	0,047
-317,256	800,000	-0,054	-0,111
-316,241	92,893	0,118	-0,098
-315,226	-200,000	0,013	-0,063
-314,212	800,000	-0,068	0,216
-313,197	578,292	0,041	0,073
-312,183	800,000	0,027	0,064
-311,168	800,000	0,039	-0,095
-310,153	-113,591	0,055	0,008
-309,139	324,356	-0,042	0,059
-308,124	117,991	0,051	-0,046
-307,110	-102,335	0,083	0,014
-306,095	473,449	0,071	0,117
-305,080	-99,704	-0,060	0,011
-304,066	172,033	0,007	0,007
-303,051	-77,183	0,131	0,033
-302,037	59,393	-0,138	-0,099
-301,022	80,532	0,081	-0,064
-300,008	-9,513	-0,038	-0,019
-298,993	54,087	0,064	0,045
-297,978	95,025	-0,068	-0,057
-296,964	134,194	0,086	0,082
-295,949	448,651	-0,025	0,041
-294,935	-200,000	-0,008	0,053
-293,920	-30,155	-0,126	-0,052
-292,905	-72,111	0,044	-0,012
-291,891	30,718	-0,040	-0,025
-290,876	-200,000	0,006	0,103
-289,862	-200,000	-0,005	-0,040
-288,847	181,428	-0,084	-0,091
-287,832	800,000	0,013	0,038
-286,818	-200,000	-0,003	0,099
-285,803	-74,091	0,118	0,031
-284,789	-200,000	0,029	0,102
-283,774	-101,562	0,118	0,021
-282,759	40,701	0,102	0,067
-281,745	706,368	0,034	0,067
-280,730	339,072	0,070	-0,100
-279,716	800,000	-0,012	-0,028
-278,701	44,525	0,006	0,004
-277,686	-102,987	0,173	0,030
-276,672	104,115	-0,130	-0,111
-275,657	-26,503	0,013	-0,006
-274,643	333,587	-0,054	-0,076
-273,628	800,000	0,030	-0,095
-272,613	800,000	-0,014	-0,031
-271,599	79,380	0,120	-0,094
-270,584	330,707	-0,038	0,054
-269,570	-112,929	-0,062	0,009
-268,555	-112,604	0,067	-0,010
-267,540	-200,000	0,045	-0,290
-266,526	579,948	0,039	-0,070
-265,511	31,069	0,055	-0,034
-264,497	381,754	-0,011	0,017
-263,482	84,479	-0,020	0,016
-262,467	800,000	-0,073	0,179
-261,453	800,000	0,041	-0,127
-260,438	298,268	0,057	-0,077
-259,424	309,620	0,027	-0,037
-258,409	71,022	-0,100	0,076
-257,395	-200,000	-0,022	-0,078
-256,380	353,566	-0,074	0,108
-255,365	705,836	0,051	0,099
-254,351	-19,309	0,134	0,061
-253,336	52,669	0,124	0,086
-252,322	-3,041	-0,105	-0,053
-251,307	-200,000	-0,026	-0,135
-250,292	-174,674	0,183	-0,004
-249,278	420,747	-0,032	0,050
-248,263	104,997	0,100	0,086
-247,249	553,549	0,026	0,045
-246,234	15,513	-0,087	-0,050
-245,219	-69,180	0,071	0,020
-244,205	-200,000	-0,006	0,023
-243,190	219,170	-0,066	-0,077
-242,176	-200,000	0,002	0,015
-241,161	-200,000	0,014	0,053
-240,146	46,119	-0,066	0,044
-239,132	-108,327	0,060	-0,009
-238,117	-108,951	0,099	0,015
-237,103	85,536	0,092	-0,074
-236,088	-115,772	0,146	0,020
-235,073	-100,238	-0,084	0,015
-234,059	800,000	0,033	0,082
-233,044	195,099	0,107	0,119
-232,030	0,676	0,045	0,023
-231,015	-136,312	0,057	-0,005
-230,000	800,000	-0,022	-0,064
-228,986	116,014	0,071	0,063
-227,971	746,289	0,017	-0,033
-226,957	167,410	0,046	0,047
-225,942	333,838	-0,088	-0,124
-224,927	48,943	-0,042	0,028
-223,913	800,000	-0,018	-0,056
-222,898	-200,000	0,004	-0,131
-221,884	800,000	0,019	0,046
-220,869	72,556	-0,065	0,049
-219,855	115,422	-0,101	0,090
-218,840	105,836	0,152	0,131
-217,825	70,975	-0,050	-0,038
-216,811	91,550	0,035	-0,029
-215,796	-200,000	-0,007	0,046
-214,782	-160,374	-0,100	0,004
-213,767	800,000	-0,057	-0,136
-212,752	533,644	0,036	0,063
-211,738	313,141	-0,065	0,090
-210,723	800,000	0,065	0,135
-209,709	-62,772	-0,074	0,022
-208,694	-200,000	-0,023	-0,105
-207,679	-17,061	0,167	-0,076
-206,665	231,038	0,047	0,057
-205,650	-36,926	-0,055	-0,021
-204,636	531,372	0,038	0,065
-203,621	782,238	-0,073	0,147
-202,606	-108,173	-0,102	0,016
-201,592	189,029	-0,081	-0,089
-200,577	-170,835	-0,078	0,002
-199,563	-200,000	-0,022	-0,071
-198,548	32,480	-0,023	0,015
-197,533	300,716	0,083	0,111
-196,519	100,186	-0,090	-0,076
-195,504	-151,332	-0,057	-0,003
-194,490	-132,355	0,024	0,002
-193,475	800,000	0,041	0,105
-192,460	-15,891	-0,071	0,033
-191,446	157,308	0,055	0,055
-190,431	-12,837	0,114	0,054
-189,417	58,109	-0,060	-0,043
-188,402	225,669	-0,042	-0,049
-187,387	-193,313	0,065	0,000
-186,373	303,716	0,048	-0,065
-185,358	800,000	0,073	0,163
-184,344	-200,000	-0,001	0,174
-183,329	800,000	-0,019	0,047
-182,315	726,599	-0,041	-0,079
-181,300	-37,330	-0,077	0,030
-180,285	87,687	0,036	-0,029
-179,271	800,000	-0,008	0,019
-178,256	139,614	0,062	-0,060
-177,242	-200,000	0,037	0,124
-176,227	-200,000	0,027	0,145
-175,212	9,942	0,092	0,051
-174,198	-200,000	0,015	0,083
-173,183	800,000	-0,006	-0,015
-172,169	-96,112	-0,081	-0,016
-171,154	120,883	-0,036	-0,033
-170,139	-200,000	0,022	0,088
-169,125	-200,000	0,009	0,079
-168,110	-200,000	-0,005	-0,023
-167,096	13,667	0,065	0,036
-166,081	-138,875	-0,032	-0,003
-165,066	-74,430	-0,256	-0,067
-164,052	-72,407	-0,067	0,018
-163,037	174,869	-0,031	0,033
-162,023	69,891	0,063	0,047
-161,008	286,349	-0,073	-0,096
-159,993	800,000	0,035	0,088
-158,979	-72,962	-0,011	-0,003
-157,964	-121,696	-0,026	0,003
-156,950	-200,000	0,026	0,088
-155,935	-200,000	-0,030	0,117
-154,920	36,533	0,096	0,061
-153,906	-23,074	0,060	-0,026
-152,891	-200,000	0,020	-0,077
-151,877	-42,552	-0,065	-0,024
-150,862	800,000	0,060	0,126
-149,847	783,257	-0,087	-0,174
-148,833	-174,214	-0,108	0,002
-147,818	37,797	0,124	0,080
-146,804	-200,000	-0,002	0,045
-145,789	179,732	0,090	0,096
-144,775	33,551	-0,045	-0,028
-143,760	494,777	0,076	0,127
-142,745	198,940	0,009	0,010
-141,731	800,000	-0,035	0,091
-140,716	154,337	0,096	0,095
-139,702	433,280	-0,114	0,181
-138,687	161,006	0,082	0,084
-137,672	794,265	0,006	-0,013
-136,658	-0,913	-0,054	-0,027
-135,643	84,519	-0,052	-0,041
-134,629	-200,000	0,011	0,084
-133,614	-200,000	-0,041	0,169
-132,599	-48,744	0,065	-0,023
-131,585	6,746	-0,039	-0,021
-130,570	-200,000	0,022	0,073
-129,556	97,656	-0,068	0,057
-128,541	-200,000	-0,010	-0,062
-127,526	-54,072	-0,113	-0,037
-126,512	284,249	-0,063	0,083
-125,497	16,728	0,157	0,090
-124,483	-200,000	0,009	0,106
-123,468	187,771	0,105	-0,114
-122,453	-107,426	0,087	0,014
-121,439	581,755	0,012	-0,021
-120,424	800,000	0,052	-0,111
-119,410	-49,190	0,191	-0,066
-118,395	124,387	0,094	0,086
-117,380	-131,286	0,122	0,012
-116,366	-200,000	0,001	0,103
-115,351	800,000	0,022	-0,055
-114,337	-200,000	0,016	0,054
-113,322	16,649	-0,031	0,017
-112,307	543,696	-0,033	0,057
-111,293	49,503	-0,064	0,043
-110,278	-115,787	-0,063	0,008
-109,264	534,402	-0,098	0,170
-108,249	-102,423	-0,096	0,017
-107,234	33,957	0,106	-0,067
-106,220	132,781	-0,013	-0,013
-105,205	-96,425	0,082	-0,016
-104,191	660,236	0,052	0,098
-103,176	200,372	-0,013	0,015
-102,162	75,716	-0,097	0,074
-101,147	102,751	0,055	0,046
-100,132	209,813	0,034	0,039
-99,118	-100,350	0,128	0,023
-98,103	10,734	0,089	0,049
-97,089	-9,963	-0,157	-0,076
-96,074	-200,000	0,020	0,096
-95,059	327,380	-0,003	0,004
-94,045	-142,172	0,107	-0,008
-93,030	231,279	0,014	0,017
-92,016	101,144	0,086	0,072
-91,001	43,933	-0,100	0,066
-89,986	117,221	0,064	-0,057
-88,972	800,000	-0,063	0,155
-87,957	-163,649	0,173	0,006
-86,943	-66,678	-0,039	0,011
-85,928	61,240	-0,038	-0,027
-84,913	-99,768	-0,126	-0,023
-83,899	800,000	0,001	0,004
-82,884	-19,836	0,128	-0,057
-81,870	-200,000	0,004	-0,026
-80,855	382,404	0,098	0,147
-79,840	-120,757	-0,009	-0,001
-78,826	-19,078	-0,139	0,062
-77,811	-200,000	0,018	-0,127
-76,797	-200,000	0,013	-0,045
-75,782	800,000	0,039	-0,089
-74,767	-24,540	0,115	-0,049
-73,753	-104,758	0,109	-0,018
-72,738	-200,000	-0,012	0,195
-71,724	-125,446	-0,110	0,012
-70,709	94,745	-0,034	0,028
-69,694	-151,226	0,084	-0,004
-68,680	634,030	-0,014	0,025
-67,665	225,718	0,057	0,067
-66,651	-50,146	0,103	0,035
-65,636	261,883	0,028	-0,036
-64,622	-68,606	0,109	-0,030
-63,607	800,000	-0,020	-0,055
-62,592	-7,971	-0,021	0,010
-61,578	800,000	0,062	-0,159
-60,563	203,028	-0,047	-0,053
-59,549	-200,000	-0,008	0,060
-58,534	-84,211	-1,549	-0,353
-57,519	800,000	-0,704	-1,474
-56,505	-200,000	-0,963	-4,518
-55,490	-87,062	0,701	-0,153
-54,476	800,000	5,110	11,904
-53,461	-200,000	14,584	259,373
-52,446	-200,000	696,528	2234,469
-51,432	564,919	1622,468	2858,131
-50,417	117,682	1629,950	1452,262
-49,403	74,777	1283,930	977,215
-48,388	37,413	1022,504	654,832
-47,373	23,201	981,685	582,027
-46,359	22,361	970,870	572,841
-45,344	21,235	966,681	566,674
-44,330	21,229	965,095	565,701
-43,315	21,079	963,787	564,427
-42,300	21,053	962,650	563,653
-41,286	21,039	961,676	563,014
-40,271	21,029	960,781	562,435
-39,257	20,988	959,826	561,723
-38,242	21,001	958,887	561,192
-37,227	21,009	958,097	560,734
-36,213	20,985	957,109	560,054
-35,198	20,998	956,284	559,591
-34,184	21,094	955,445	559,389
-33,169	21,016	954,592	558,616
-32,154	21,011	953,875	558,159
-31,140	21,017	952,960	557,621
-30,125	21,095	952,186	557,396
-29,111	21,034	951,412	556,726
-28,096	21,013	950,655	556,194
-27,082	21,067	949,893	555,896
-26,067	21,078	949,041	555,412
-25,052	21,057	948,492	555,002
-24,038	20,974	947,921	554,381
-23,023	21,071	947,045	554,155
-22,009	21,093	946,596	553,942
-20,994	21,117	945,828	553,545
-19,979	21,044	945,369	553,022
-18,965	21,027	944,630	552,514
-17,950	21,033	944,047	552,171
-16,936	20,959	943,493	551,590
-15,921	21,000	942,736	551,254
-14,906	20,928	941,959	550,551
-13,892	20,932	941,353	550,185
-12,877	20,942	940,667	549,794
-11,863	20,865	940,064	549,177
-10,848	20,914	939,804	549,158
-9,833	21,048	939,132	549,168
-8,819	20,971	938,615	548,599
-7,804	20,870	938,169	548,000
-6,790	20,959	937,313	547,758
-5,775	20,957	936,737	547,392
-4,760	20,932	936,226	546,995
-3,746	20,903	935,665	546,555
-2,731	20,757	934,730	545,525
-1,717	20,716	934,040	544,973
-0,702	20,731	933,492	544,676
0,313	20,555	932,858	544,577
1,327	23,599	930,831	552,901
2,342	32,746	793,980	495,898
3,356	30,307	450,270	277,537
4,371	0,017	294,083	151,030
5,386	-4,304	274,936	137,097
6,400	-5,629	269,451	133,120
7,415	-5,720	267,054	131,841
8,429	-5,666	265,780	131,249
9,444	-5,786	264,940	130,713
10,459	-5,592	264,508	130,666
11,473	-5,735	263,636	130,092
12,488	-5,819	263,154	129,767
13,502	-6,059	262,696	129,313
14,517	-5,873	262,247	129,249
15,531	-5,747	261,891	129,175
16,546	-5,772	261,557	128,976
17,561	-5,876	261,220	128,705
18,575	-5,741	260,764	128,590
19,590	-5,787	260,473	128,393
20,604	-5,698	260,361	128,407
21,619	-5,883	259,963	128,033
22,634	-5,662	259,572	128,027
23,648	-5,875	259,286	127,684
24,663	-6,006	259,169	127,498
25,677	-5,770	258,920	127,575
26,692	-5,764	258,578	127,401
27,707	-5,775	258,217	127,201
28,721	-5,912	257,816	126,870
29,736	-6,001	257,780	126,763
30,750	-5,979	257,456	126,612
31,765	-5,941	257,329	126,572
32,780	-5,888	257,198	126,543
33,794	-5,937	256,656	126,222
34,809	-5,814	256,531	126,257
35,823	-5,816	256,360	126,161
36,838	-5,809	255,942	125,950
37,853	-6,142	255,843	125,597
38,867	-6,046	255,591	125,546
39,882	-6,049	255,370	125,424
40,896	-6,011	255,027	125,278
41,911	-5,851	255,000	125,394
42,926	-5,896	254,574	125,133
43,940	-6,010	254,429	124,951
44,955	-6,107	254,118	124,703
45,969	-5,943	253,877	124,717
46,984	-6,362	253,818	124,311
47,999	-6,276	253,350	124,145
49,013	-6,454	253,211	123,911
50,028	-6,547	252,974	123,703
51,042	-6,844	252,649	123,276
52,057	-6,555	252,572	123,478
53,071	-6,625	252,246	123,247
54,086	-6,641	252,260	123,229
55,101	-6,339	251,934	123,321
56,115	-6,283	251,838	123,310
57,130	-6,077	251,857	123,486
58,144	-5,666	251,681	123,745
59,159	-5,802	251,377	123,467
60,174	-5,696	251,223	123,471
61,188	-5,682	250,986	123,356
62,203	-5,757	250,710	123,145
63,217	-5,890	250,623	122,977
64,232	-5,895	250,280	122,793
65,247	-5,907	250,103	122,685
66,261	-5,905	249,804	122,529
67,276	-6,329	249,616	122,064
68,290	-6,145	249,306	122,058
69,305	-6,237	249,079	121,857
70,320	-6,072	248,906	121,903
71,334	-5,904	248,880	122,023
72,349	-5,709	248,620	122,050
73,363	-5,806	248,466	121,881
74,378	-5,700	248,242	121,851
75,393	-6,018	248,068	121,484
76,407	-5,840	247,817	121,501
77,422	-5,913	247,771	121,406
78,436	-5,846	247,529	121,333
79,451	-5,893	247,329	121,184
80,466	-5,837	246,914	121,018
81,480	-5,962	246,814	120,853
82,495	-6,195	246,640	120,560
83,509	-6,156	246,417	120,472
84,524	-6,206	246,037	120,234
85,539	-6,412	246,123	120,092
86,553	-6,278	245,811	120,042
87,568	-6,157	245,656	120,057
88,582	-6,150	245,402	119,928
89,597	-6,124	245,138	119,810
90,611	-6,122	245,127	119,795
91,626	-6,028	245,138	119,869
92,641	-5,794	244,802	119,890
93,655	-6,092	244,568	119,515
94,670	-6,287	244,451	119,285
95,684	-5,975	244,344	119,483
96,699	-5,933	243,959	119,319
97,714	-6,180	243,682	118,967
98,728	-6,349	243,742	118,845
99,743	-6,331	243,319	118,643
100,757	-6,413	243,183	118,498
101,772	-6,235	243,049	118,570
102,787	-6,267	242,826	118,425
103,801	-6,129	242,787	118,509
104,816	-5,991	242,597	118,520
105,830	-5,996	242,447	118,432
106,845	-5,977	242,285	118,358
107,860	-5,945	241,941	118,206
108,874	-6,166	241,737	117,913
109,889	-6,126	241,590	117,864
110,903	-6,073	241,345	117,778
111,918	-5,968	241,290	117,827
112,933	-6,186	241,192	117,589
113,947	-5,948	240,960	117,661
114,962	-6,019	240,826	117,526
115,976	-5,927	240,440	117,403
116,991	-6,025	240,351	117,269
118,006	-5,987	240,211	117,222
119,020	-5,979	240,097	117,162
120,035	-5,726	239,977	117,300
121,049	-6,074	239,918	116,976
122,064	-6,002	239,699	116,917
123,079	-5,873	239,380	116,857
124,093	-5,916	239,207	116,727
125,108	-6,085	238,954	116,456
126,122	-6,196	238,652	116,207
127,137	-6,388	238,530	115,982
128,151	-6,407	238,335	115,861
129,166	-6,249	238,328	115,975
130,181	-6,401	238,094	115,728
131,195	-6,255	237,801	115,693
132,210	-6,405	237,789	115,556
133,224	-6,075	237,528	115,685
134,239	-6,069	237,499	115,666
135,254	-5,928	237,247	115,647
136,268	-5,984	237,068	115,505
137,283	-6,150	236,710	115,186
138,297	-6,244	236,645	115,069
139,312	-6,284	236,365	114,889
140,327	-6,139	236,388	115,007
141,341	-5,721	236,279	115,280
142,356	-5,719	236,144	115,206
143,370	-5,580	236,086	115,279
144,385	-5,792	235,848	114,982
145,400	-5,697	235,675	114,964
146,414	-5,731	235,330	114,758
147,429	-5,650	235,347	114,821
148,443	-5,625	235,049	114,685
149,458	-5,632	235,045	114,667
150,473	-5,541	234,832	114,626
151,487	-5,533	234,684	114,550
152,502	-5,898	234,506	114,162
153,516	-5,724	234,235	114,158
154,531	-5,823	234,093	114,000
155,546	-5,618	233,908	114,063
156,560	-5,627	233,806	113,996
157,575	-5,845	233,652	113,737
158,589	-5,776	233,457	113,687
159,604	-5,759	233,293	113,611
160,619	-5,719	233,288	113,630
161,633	-5,611	232,918	113,525
162,648	-5,856	232,971	113,347
163,662	-5,644	232,674	113,360
164,677	-5,678	232,537	113,256
165,692	-5,821	232,452	113,091
166,706	-5,739	232,314	113,079
167,721	-5,448	232,093	113,191
168,735	-5,491	231,906	113,056
169,750	-5,430	231,755	113,020
170,764	-5,712	231,608	112,716
171,779	-5,591	231,384	112,693
172,794	-5,600	231,307	112,638
173,808	-5,567	231,001	112,505
174,823	-6,154	230,894	111,982
175,837	-6,097	230,513	111,832
176,852	-5,650	230,552	112,191
177,867	-5,676	230,516	112,143
178,881	-5,551	230,348	112,149
179,896	-5,585	230,219	112,050
180,910	-5,561	230,011	111,957
181,925	-5,516	229,873	111,915
182,940	-5,636	229,782	111,767
183,954	-5,539	229,507	111,699
184,969	-5,376	229,572	111,848
185,983	-5,362	229,365	111,748
186,998	-5,480	229,196	111,563
188,013	-5,418	228,985	111,499
189,027	-5,331	228,719	111,427
190,042	-5,657	228,655	111,133
191,056	-5,496	228,457	111,152
192,071	-5,382	228,433	111,218
193,086	-5,335	228,132	111,099
194,100	-5,346	228,024	111,028
195,115	-5,697	227,749	110,612
196,129	-6,501	227,519	109,871
197,144	-3,663	228,280	112,424
198,159	0,826	229,671	116,583
199,173	3,524	230,393	119,036
200,188	3,947	230,324	119,318
201,202	4,005	230,147	119,260
202,217	4,100	230,059	119,278
203,232	4,301	229,825	119,301
204,246	4,327	229,796	119,296
205,261	4,250	229,635	119,142
206,275	4,450	229,663	119,301
207,290	4,632	229,380	119,284
208,304	4,641	229,203	119,187
209,319	4,354	229,096	118,900
210,334	4,154	228,921	118,644
211,348	4,206	228,645	118,531
212,363	3,909	228,437	118,185
213,377	3,527	228,067	117,689
214,392	3,440	228,058	117,607
215,407	3,564	228,025	117,675
216,421	3,942	227,805	117,841
217,436	3,732	227,516	117,520
218,450	3,080	227,419	116,961
219,465	3,281	227,252	117,018
220,480	3,350	227,040	116,951
221,494	3,329	226,898	116,852
222,509	3,635	226,794	117,021
223,523	3,629	226,633	116,923
224,538	3,645	226,488	116,849
225,553	3,517	226,386	116,689
226,567	3,571	226,348	116,700
227,582	4,026	226,178	116,949
228,596	3,963	226,078	116,838
229,611	3,822	225,792	116,573
230,626	3,496	225,523	116,177
231,640	3,420	225,544	116,120
232,655	3,818	225,430	116,352
233,669	4,050	225,350	116,476
234,684	4,229	225,209	116,528
235,699	3,986	225,060	116,257
236,713	3,819	224,721	115,945
237,728	3,522	224,549	115,622
238,742	3,536	224,418	115,555
239,757	3,465	224,257	115,409
240,772	3,451	224,187	115,351
241,786	3,589	223,969	115,333
242,801	3,607	223,981	115,342
243,815	3,688	224,014	115,410
244,830	4,106	223,723	115,563
245,844	3,699	223,551	115,159
246,859	3,731	223,354	115,072
247,874	4,043	223,224	115,227
248,888	4,069	222,962	115,101
249,903	3,812	222,859	114,846
250,917	3,673	222,761	114,681
251,932	3,755	222,489	114,593
252,947	3,362	222,507	114,298
253,961	3,397	222,218	114,166
254,976	3,690	222,041	114,283
255,990	3,807	222,039	114,359
257,005	4,022	221,831	114,401
258,020	3,917	221,847	114,321
259,034	4,145	221,699	114,404
260,049	3,956	221,604	114,205
261,063	3,661	221,354	113,846
262,078	3,782	221,197	113,846
263,093	3,893	221,095	113,865
264,107	3,920	220,989	113,820
265,122	3,829	220,817	113,654
266,136	4,126	220,778	113,843
267,151	4,025	220,647	113,691
268,166	3,752	220,346	113,324
269,180	3,611	219,941	113,003
270,195	3,460	219,936	112,879
271,209	3,773	219,747	113,002
272,224	3,521	219,678	112,771
273,239	3,778	219,496	112,857
274,253	3,836	219,330	112,803
275,268	3,458	219,253	112,476
276,282	3,261	219,013	112,199
277,297	3,335	218,906	112,188
278,312	3,481	218,862	112,263
279,326	3,651	218,632	112,259
280,341	3,659	218,485	112,179
281,355	3,556	218,443	112,072
282,370	3,520	218,272	111,948
283,384	3,315	218,037	111,668
284,399	3,287	217,830	111,532
285,414	3,338	217,875	111,582
286,428	3,625	217,750	111,717
287,443	3,839	217,626	111,799
288,457	3,720	217,596	111,687
289,472	3,499	217,343	111,387
290,487	3,298	216,983	111,047
291,501	3,145	216,885	110,876
292,516	3,339	216,927	111,028
293,530	3,308	216,748	110,904
294,545	3,358	216,529	110,818
295,560	3,512	216,443	110,876
296,574	3,521	216,315	110,807
297,589	3,573	216,212	110,782
298,603	3,725	216,079	110,814
299,618	3,829	215,884	110,779
300,633	3,712	215,844	110,663
301,647	3,928	215,825	110,800
302,662	3,767	215,533	110,524
303,676	3,683	215,291	110,330
304,691	4,131	215,253	110,622
305,706	3,975	215,230	110,489
306,720	3,992	214,939	110,342
307,735	3,689	214,838	110,062
308,749	3,468	214,681	109,814
309,764	3,899	214,601	110,072
310,779	4,071	214,504	110,136
311,793	3,959	214,296	109,939
312,808	3,788	214,104	109,708
313,822	3,946	213,940	109,728
314,837	3,780	213,816	109,536
315,852	3,619	213,507	109,253
316,866	3,710	213,549	109,330
317,881	3,769	213,425	109,298
318,895	3,742	213,456	109,285
319,910	3,659	213,195	109,083
320,925	3,439	212,869	108,751
321,939	3,187	212,810	108,532
322,954	3,393	212,658	108,590
323,968	3,690	212,678	108,801
324,983	3,652	212,593	108,722
325,997	3,766	212,516	108,753
327,012	3,725	212,211	108,558
328,027	3,807	212,183	108,592
329,041	4,064	212,160	108,752
330,056	4,182	211,967	108,727
331,070	3,852	211,713	108,354
332,085	3,238	211,499	107,803
333,100	3,492	211,340	107,891
334,114	3,866	211,316	108,132
335,129	3,760	211,232	108,005
336,143	3,751	210,908	107,823
337,158	3,480	210,949	107,644
338,173	3,674	210,723	107,655
339,187	3,490	210,490	107,398
340,202	3,385	210,259	107,197
341,216	3,243	210,181	107,048
342,231	3,364	210,211	107,138
343,246	3,216	210,176	107,008
344,260	3,591	209,957	107,149
345,275	3,471	209,743	106,946
346,289	3,748	209,724	107,120
347,304	3,527	209,666	106,927
348,319	3,504	209,478	106,806
349,333	3,527	209,286	106,714
350,348	3,817	209,197	106,861
351,362	3,876	209,055	106,820
352,377	3,665	209,058	106,665
353,392	3,785	208,825	106,620
354,406	3,811	208,599	106,513
355,421	195,025	1344,644	1433,379
356,435	155,662	1483,139	1433,472
