DTS Sentinel unit serial number:	SN410029Multiplexer serial number:	ORYXHardware model number:	OX2-SRSoftware version number:	ORYX F/W v4,00 Oryx Data Collector v3.7.2.0data status	okinstallation	B6 Nyhavnadifferential loss correction	single-endedforward channel	channel 2reverse channel	N/Adate	2023/12/11time	05:40:08forward acquisition time	300,00reverse acquisition time	0,00gamma	499,1914k internal	0,3126k external	0,3126temperature offset calibration	1,0000default loss term (dB/km)	0,3820temperature slope calibration	1,0000multiplexer offset coefficient	1,0000multiplexer slope coefficient	1,0000fibre end	0,00T internal ref (°C)	19,89T ext. ref 1 (°C)	3,06T ext. ref 2 (°C)	3,09length (m)	temperature (°C)	Stokes	anti-Stokes-744,400	-7,642	-0,096	-0,048
-743,385	-125,625	-0,374	0,042
-742,371	800,000	0,003	-0,009
-741,356	94,197	-0,171	0,144
-740,342	-200,000	-0,002	0,101
-739,327	-46,980	-0,383	0,139
-738,312	-51,871	0,135	-0,046
-737,298	-178,123	-0,270	0,005
-736,283	149,442	0,101	0,102
-735,269	-104,316	-0,135	0,023
-734,254	329,459	0,055	-0,079
-733,239	19,449	-0,287	-0,171
-732,225	18,202	0,077	-0,045
-731,210	-37,195	0,077	-0,030
-730,196	-200,000	-0,049	-0,207
-729,181	600,070	-0,089	-0,164
-728,167	69,860	0,081	-0,062
-727,152	516,513	-0,046	-0,081
-726,137	53,155	-0,146	-0,104
-725,123	13,135	-0,064	0,037
-724,108	800,000	0,024	0,071
-723,094	800,000	-0,029	-0,091
-722,079	800,000	-0,030	-0,074
-721,064	-181,908	0,109	-0,002
-720,050	-200,000	-0,011	-0,167
-719,035	-200,000	-0,000	-0,137
-718,021	-200,000	0,025	-0,093
-717,006	-30,232	0,092	0,039
-715,991	112,957	-0,056	-0,051
-714,977	44,269	-0,039	-0,027
-713,962	107,355	-0,086	-0,076
-712,948	586,799	0,059	-0,109
-711,933	-200,000	-0,009	-0,035
-710,918	-200,000	0,006	0,033
-709,904	640,354	-0,080	-0,152
-708,889	172,260	-0,078	0,084
-707,875	-130,275	-0,158	-0,016
-706,860	-48,744	0,073	-0,026
-705,845	583,460	0,059	0,107
-704,831	670,372	-0,067	0,129
-703,816	236,198	-0,106	-0,131
-702,802	800,000	0,024	-0,060
-701,787	242,518	-0,148	-0,185
-700,772	771,882	-0,076	-0,155
-699,758	800,000	-0,077	-0,209
-698,743	692,055	-0,044	0,087
-697,729	800,000	0,003	0,008
-696,714	26,509	-0,035	-0,022
-695,699	-11,143	-0,048	0,023
-694,685	-200,000	-0,009	-0,047
-693,670	-200,000	-0,029	0,111
-692,656	219,343	0,064	0,076
-691,641	656,677	-0,010	-0,019
-690,627	-200,000	-0,011	0,121
-689,612	81,591	0,028	-0,022
-688,597	-200,000	0,003	0,114
-687,583	-75,940	-0,085	0,022
-686,568	-200,000	-0,009	-0,050
-685,554	-200,000	-0,013	-0,098
-684,539	-200,000	-0,002	-0,206
-683,524	137,463	0,066	0,064
-682,510	-200,000	-0,015	-0,051
-681,495	260,651	0,059	-0,076
-680,481	-32,230	-0,109	-0,045
-679,466	160,238	-0,053	-0,055
-678,451	-65,404	0,105	0,031
-677,437	-51,081	-0,010	0,003
-676,422	-155,517	0,062	-0,003
-675,408	405,510	-0,123	0,194
-674,393	-124,506	0,123	0,014
-673,378	-37,609	-0,100	0,040
-672,364	-200,000	0,015	0,056
-671,349	-200,000	-0,002	-0,038
-670,335	-66,148	0,036	-0,011
-669,320	-114,916	-0,120	0,017
-668,305	-34,281	0,024	0,010
-667,291	18,329	-0,051	-0,030
-666,276	72,675	0,041	0,031
-665,262	211,100	0,007	-0,008
-664,247	800,000	-0,043	0,097
-663,232	120,340	0,030	0,028
-662,218	800,000	-0,039	-0,113
-661,203	-200,000	-0,016	0,074
-660,189	-41,496	0,162	0,061
-659,174	79,987	-0,012	-0,010
-658,159	-200,000	-0,025	-0,129
-657,145	451,940	-0,072	-0,118
-656,130	324,651	0,076	0,108
-655,116	-200,000	-0,031	0,113
-654,101	281,731	-0,152	0,203
-653,086	-171,959	0,100	0,002
-652,072	800,000	0,053	-0,120
-651,057	20,782	-0,136	-0,081
-650,043	-42,791	-0,082	0,031
-649,028	536,583	-0,058	-0,103
-648,014	-80,074	0,072	-0,018
-646,999	-77,090	0,062	-0,016
-645,984	-129,349	-0,082	-0,008
-644,970	27,827	0,024	-0,015
-643,955	-200,000	-0,002	0,056
-642,941	266,210	0,065	0,085
-641,926	-200,000	0,004	0,043
-640,911	800,000	-0,010	0,024
-639,897	-46,736	-0,044	-0,016
-638,882	286,085	-0,055	0,074
-637,868	800,000	0,015	0,036
-636,853	-104,297	0,039	0,007
-635,838	-35,529	-0,055	0,022
-634,824	-200,000	0,007	0,057
-633,809	207,824	0,021	0,024
-632,795	800,000	-0,053	0,128
-631,780	-68,009	0,044	0,013
-630,765	-135,143	-0,068	-0,006
-629,751	800,000	-0,036	-0,104
-628,736	800,000	0,047	-0,148
-627,722	-63,473	0,161	-0,049
-626,707	-133,353	0,092	-0,008
-625,692	-200,000	0,039	0,172
-624,678	-200,000	-0,004	-0,075
-623,663	-54,617	-0,080	-0,027
-622,649	-37,878	-0,070	0,028
-621,634	212,589	-0,108	-0,127
-620,619	207,078	-0,042	-0,048
-619,605	93,941	0,140	-0,118
-618,590	670,425	0,038	0,074
-617,576	167,408	0,058	-0,061
-616,561	-108,714	-0,081	-0,013
-615,546	28,915	-0,157	0,098
-614,532	-5,171	-0,151	-0,077
-613,517	-200,000	-0,013	-0,070
-612,503	-200,000	-0,004	0,109
-611,488	331,970	-0,083	0,119
-610,474	-83,185	0,038	-0,009
-609,459	-50,798	0,075	0,026
-608,444	-64,811	-0,091	-0,027
-607,430	-95,542	-0,017	0,003
-606,415	765,204	0,071	-0,144
-605,401	144,183	-0,019	-0,019
-604,386	755,637	-0,021	0,042
-603,371	-200,000	0,018	-0,126
-602,357	-36,776	-0,021	-0,008
-601,342	400,827	-0,106	-0,166
-600,328	-107,059	0,121	0,020
-599,313	59,820	0,116	0,085
-598,298	800,000	-0,035	0,112
-597,284	-159,877	0,100	0,004
-596,269	800,000	-0,022	0,047
-595,255	800,000	-0,025	0,055
-594,240	-100,204	-0,078	0,014
-593,225	66,427	-0,029	0,021
-592,211	278,576	-0,016	-0,021
-591,196	221,239	-0,044	0,053
-590,182	37,706	-0,066	0,043
-589,167	716,898	0,029	0,058
-588,152	-57,239	0,060	0,019
-587,138	50,576	-0,131	0,092
-586,123	-61,935	-0,137	0,042
-585,109	69,602	0,044	0,034
-584,094	308,787	0,095	-0,132
-583,079	-98,962	-0,126	0,023
-582,065	-200,000	-0,020	0,084
-581,050	265,704	0,026	0,034
-580,036	-200,000	0,044	-0,246
-579,021	693,486	-0,044	-0,086
-578,006	-200,000	0,012	-0,169
-576,992	319,401	0,084	-0,118
-575,977	23,125	0,007	-0,004
-574,963	-84,437	0,021	-0,005
-573,948	0,860	0,021	0,011
-572,934	-56,097	0,051	-0,017
-571,919	800,000	0,037	-0,103
-570,904	800,000	0,010	-0,026
-569,890	788,048	-0,031	-0,064
-568,875	628,851	0,049	0,091
-567,861	19,080	-0,067	0,040
-566,846	800,000	-0,032	0,070
-565,831	24,759	-0,174	0,106
-564,817	197,719	0,054	0,061
-563,802	-200,000	0,006	-0,176
-562,788	-157,243	0,059	0,003
-561,773	-200,000	0,032	0,168
-560,758	-141,930	-0,090	-0,007
-559,744	-171,987	0,019	-0,000
-558,729	-200,000	0,032	0,146
-557,715	800,000	0,031	-0,079
-556,700	-133,874	-0,068	0,006
-555,685	-29,150	-0,210	0,089
-554,671	-47,175	0,175	-0,063
-553,656	-200,000	-0,002	0,046
-552,642	593,948	-0,016	0,030
-551,627	276,374	-0,053	0,070
-550,612	18,083	-0,139	0,081
-549,598	-6,485	-0,111	-0,056
-548,583	-66,584	-0,073	-0,021
-547,569	800,000	0,024	-0,059
-546,554	-25,582	0,094	0,041
-545,539	120,381	-0,088	0,081
-544,525	-105,435	-0,071	0,012
-543,510	-200,000	-0,009	0,078
-542,496	-200,000	-0,021	-0,107
-541,481	-152,653	-0,096	-0,005
-540,466	-200,000	0,030	0,182
-539,452	-73,305	-0,151	0,041
-538,437	-200,000	-0,023	-0,076
-537,423	132,586	0,119	0,113
-536,408	800,000	0,058	-0,170
-535,393	165,532	-0,028	-0,030
-534,379	-200,000	0,029	-0,169
-533,364	-95,989	-0,127	0,025
-532,350	800,000	0,053	0,170
-531,335	-200,000	-0,006	0,096
-530,321	-128,488	0,055	0,006
-529,306	79,670	0,067	0,053
-528,291	-69,613	-0,092	-0,026
-527,277	16,284	0,081	-0,047
-526,262	361,940	-0,047	0,069
-525,248	-200,000	0,011	-0,059
-524,233	239,983	0,037	0,045
-523,218	1,888	0,046	-0,025
-522,204	-29,837	-0,031	-0,013
-521,189	48,719	-0,084	0,058
-520,175	-115,182	-0,105	0,015
-519,160	800,000	0,025	0,058
-518,145	-200,000	0,023	-0,122
-517,131	327,097	0,059	0,084
-516,116	179,510	0,104	-0,113
-515,102	477,954	0,011	0,018
-514,087	-200,000	-0,023	0,109
-513,072	299,587	-0,115	-0,156
-512,058	31,067	0,036	0,023
-511,043	757,410	-0,022	0,045
-510,029	551,626	-0,014	-0,024
-509,014	-123,635	0,085	0,010
-507,999	-41,306	0,051	0,019
-506,985	800,000	0,025	-0,070
-505,970	55,267	-0,092	0,065
-504,956	-2,327	-0,062	-0,032
-503,941	-200,000	-0,036	-0,123
-502,926	1,465	0,169	-0,089
-501,912	316,540	0,037	0,051
-500,897	80,592	-0,050	-0,040
-499,883	373,919	-0,023	0,035
-498,868	201,595	-0,053	0,060
-497,853	-106,292	-0,098	0,016
-496,839	177,283	0,018	-0,019
-495,824	175,430	0,042	0,044
-494,810	800,000	0,065	0,161
-493,795	-105,719	0,113	0,019
-492,781	-200,000	-0,001	-0,023
-491,766	169,998	-0,030	0,031
-490,751	650,049	0,081	-0,154
-489,737	-56,351	0,023	0,007
-488,722	-170,810	0,044	-0,001
-487,708	-200,000	-0,009	0,065
-486,693	800,000	-0,065	0,138
-485,678	17,702	0,105	0,061
-484,664	669,831	0,033	-0,063
-483,649	-200,000	0,010	-0,142
-482,635	-152,576	-0,127	0,007
-481,620	-200,000	0,001	0,069
-480,605	318,216	-0,029	-0,041
-479,591	-200,000	-0,001	-0,035
-478,576	67,122	-0,114	-0,085
-477,562	-69,696	0,075	0,021
-476,547	-200,000	-0,007	0,121
-475,532	-3,820	0,017	0,009
-474,518	43,433	-0,063	-0,042
-473,503	-200,000	0,017	0,061
-472,489	122,128	-0,065	0,060
-471,474	-200,000	0,019	-0,155
-470,459	-93,920	0,027	0,005
-469,445	800,000	-0,028	0,067
-468,430	-200,000	-0,029	-0,108
-467,416	800,000	-0,015	-0,032
-466,401	373,885	-0,007	-0,010
-465,386	-31,549	-0,121	-0,050
-464,372	-38,793	-0,078	0,030
-463,357	354,506	-0,043	0,063
-462,343	-124,450	-0,068	0,008
-461,328	-200,000	-0,009	-0,090
-460,313	-200,000	0,002	-0,064
-459,299	800,000	0,031	0,098
-458,284	309,032	0,093	-0,128
-457,270	-53,864	-0,028	0,009
-456,255	-51,951	0,053	-0,018
-455,241	782,406	-0,026	0,053
-454,226	-117,185	-0,115	-0,015
-453,211	187,680	0,106	-0,117
-452,197	-200,000	-0,003	0,020
-451,182	-88,565	0,146	-0,032
-450,168	53,529	0,055	-0,039
-449,153	-76,912	-0,032	0,008
-448,138	-78,261	-0,061	-0,015
-447,124	-200,000	-0,021	-0,163
-446,109	324,717	-0,002	-0,002
-445,095	-200,000	-0,001	0,052
-444,080	130,857	0,097	0,092
-443,065	154,639	0,036	-0,036
-442,051	275,456	0,059	0,077
-441,036	-26,850	0,059	-0,025
-440,022	208,768	-0,043	-0,049
-439,007	746,347	-0,009	0,018
-437,992	19,643	0,134	0,079
-436,978	-80,240	0,087	-0,021
-435,963	-200,000	-0,006	-0,133
-434,949	-92,905	-0,074	0,015
-433,934	90,892	-0,083	0,069
-432,919	410,338	0,047	-0,074
-431,905	0,757	-0,047	0,025
-430,890	-167,961	0,084	-0,002
-429,876	241,787	0,087	-0,107
-428,861	-200,000	0,012	0,070
-427,846	800,000	0,027	-0,056
-426,832	-197,504	-0,096	-0,000
-425,817	800,000	0,024	-0,069
-424,803	404,681	0,028	-0,044
-423,788	-105,050	0,085	0,014
-422,773	-2,089	0,080	0,041
-421,759	-55,774	0,106	-0,035
-420,744	-155,128	-0,021	0,001
-419,730	22,182	-0,094	0,056
-418,715	-125,958	0,116	-0,013
-417,701	-99,362	-0,027	0,005
-416,686	-200,000	-0,006	0,032
-415,671	-15,261	-0,065	-0,031
-414,657	-186,383	0,127	0,001
-413,642	126,434	0,082	0,076
-412,628	97,008	-0,101	0,085
-411,613	800,000	-0,017	-0,038
-410,598	-200,000	-0,017	-0,154
-409,584	126,445	-0,090	-0,084
-408,569	50,094	0,099	-0,069
-407,555	522,362	-0,057	0,098
-406,540	-105,598	-0,067	0,011
-405,525	800,000	0,023	-0,055
-404,511	-146,797	-0,088	-0,005
-403,496	800,000	0,022	-0,048
-402,482	97,413	-0,059	0,049
-401,467	96,531	-0,022	-0,019
-400,452	43,500	0,052	-0,035
-399,438	40,566	0,038	-0,025
-398,423	580,723	0,012	0,022
-397,409	-200,000	0,004	-0,115
-396,394	-164,673	-0,182	-0,006
-395,379	123,476	-0,053	0,048
-394,365	644,644	0,046	-0,087
-393,350	-27,563	0,053	-0,022
-392,336	8,487	0,087	0,048
-391,321	359,579	0,009	-0,013
-390,306	-28,406	-0,055	0,023
-389,292	13,543	-0,074	0,042
-388,277	800,000	-0,040	-0,106
-387,263	-200,000	-0,007	-0,098
-386,248	-200,000	0,012	0,193
-385,233	31,424	0,181	0,114
-384,219	-4,408	0,019	0,009
-383,204	29,500	-0,103	-0,064
-382,190	-200,000	-0,027	-0,129
-381,175	17,454	0,089	-0,052
-380,160	-200,000	0,006	0,057
-379,146	225,748	-0,049	-0,059
-378,131	82,054	0,103	0,082
-377,117	-200,000	0,014	0,062
-376,102	-40,394	-0,056	0,021
-375,088	-200,000	-0,027	-0,181
-374,073	800,000	0,011	0,033
-373,058	-173,902	-0,081	0,002
-372,044	576,505	0,015	0,027
-371,029	-200,000	0,028	-0,140
-370,015	661,326	-0,031	0,058
-369,000	543,926	-0,033	-0,058
-367,985	111,489	-0,038	-0,034
-366,971	-173,717	-0,166	0,004
-365,956	-125,449	0,072	-0,008
-364,942	-200,000	0,018	0,115
-363,927	106,549	0,112	0,098
-362,912	255,484	0,065	0,082
-361,898	-149,801	-0,025	0,001
-360,883	360,754	-0,054	-0,080
-359,869	693,824	-0,054	-0,105
-358,854	-152,880	0,106	0,005
-357,839	-1,735	-0,036	-0,019
-356,825	531,690	0,060	0,105
-355,810	-83,314	-0,037	0,009
-354,796	-200,000	0,001	0,096
-353,781	88,703	-0,161	0,131
-352,766	800,000	0,026	0,061
-351,752	44,058	0,057	0,038
-350,737	-80,967	0,071	-0,017
-349,723	231,323	0,108	0,130
-348,708	-200,000	0,029	0,101
-347,693	55,740	0,046	-0,032
-346,679	-200,000	-0,146	-0,000
-345,664	800,000	-0,019	-0,041
-344,650	179,577	0,008	-0,008
-343,635	-200,000	0,004	-0,026
-342,620	-200,000	0,016	-0,063
-341,606	-70,966	0,132	0,036
-340,591	709,532	-0,048	0,094
-339,577	186,887	-0,017	-0,019
-338,562	62,621	0,008	-0,006
-337,548	800,000	-0,034	-0,107
-336,533	800,000	-0,047	0,129
-335,518	-62,672	-0,053	-0,016
-334,504	-47,495	0,147	0,052
-333,489	-49,666	-0,077	0,027
-332,475	-200,000	-0,041	-0,168
-331,460	213,484	0,042	-0,049
-330,445	-56,709	0,070	-0,023
-329,431	66,239	0,061	-0,046
-328,416	129,851	0,062	0,058
-327,402	-200,000	-0,009	0,070
-326,387	289,829	0,070	0,094
-325,372	-200,000	-0,002	0,041
-324,358	800,000	-0,040	0,124
-323,343	159,412	0,108	0,110
-322,329	279,830	-0,049	-0,064
-321,314	317,271	-0,041	-0,056
-320,299	73,017	0,124	-0,095
-319,285	-13,275	0,037	-0,018
-318,270	-200,000	0,001	0,058
-317,256	-104,321	0,031	-0,005
-316,241	800,000	-0,021	0,060
-315,226	133,726	0,062	0,059
-314,212	-7,035	-0,025	-0,012
-313,197	-5,127	0,135	0,068
-312,183	610,360	0,005	0,009
-311,168	-180,109	-0,015	0,000
-310,153	-200,000	-0,008	-0,048
-309,139	566,663	0,023	-0,041
-308,124	616,775	0,005	-0,008
-307,110	-58,447	0,094	-0,030
-306,095	-75,213	-0,102	-0,026
-305,080	-200,000	-0,010	0,142
-304,066	-157,124	-0,054	-0,002
-303,051	-92,910	-0,113	0,023
-302,037	159,861	-0,111	-0,113
-301,022	148,599	-0,131	-0,130
-300,008	-200,000	-0,003	0,187
-298,993	56,867	-0,097	0,069
-297,978	-200,000	-0,028	0,189
-296,964	310,030	-0,025	0,035
-295,949	1,940	-0,018	-0,010
-294,935	7,482	-0,153	-0,084
-293,920	-200,000	-0,016	-0,083
-292,905	328,084	0,073	0,103
-291,891	-200,000	0,035	0,150
-290,876	-154,121	0,020	0,001
-289,862	-112,794	-0,168	0,024
-288,847	-200,000	-0,025	0,108
-287,832	24,713	-0,042	-0,026
-286,818	28,786	-0,133	-0,082
-285,803	178,863	-0,035	0,037
-284,789	162,765	-0,107	0,110
-283,774	191,377	0,069	-0,076
-282,759	-200,000	-0,018	-0,240
-281,745	142,665	-0,043	-0,042
-280,730	-128,845	-0,058	-0,006
-279,716	10,550	0,127	0,071
-278,701	223,668	0,042	-0,050
-277,686	218,605	0,092	0,108
-276,672	-90,023	-0,039	-0,008
-275,657	-200,000	0,009	0,155
-274,643	800,000	0,024	-0,072
-273,628	-62,982	0,128	0,038
-272,613	117,937	-0,070	-0,063
-271,599	-200,000	0,006	0,033
-270,584	-200,000	-0,003	-0,044
-269,570	-200,000	-0,003	0,022
-268,555	204,218	0,105	0,120
-267,540	493,660	-0,035	0,058
-266,526	-64,926	0,056	0,016
-265,511	-173,665	-0,030	0,001
-264,497	219,065	-0,103	0,121
-263,482	401,021	0,050	0,076
-262,467	272,605	0,048	0,062
-261,453	800,000	-0,043	0,098
-260,438	-146,436	0,069	-0,004
-259,424	-200,000	0,000	-0,190
-258,409	-200,000	-0,020	0,064
-257,395	-127,509	0,209	0,022
-256,380	43,063	0,064	-0,042
-255,365	59,859	0,027	0,019
-254,351	69,262	-0,023	0,017
-253,336	174,141	-0,078	0,082
-252,322	-105,046	-0,087	0,014
-251,307	-5,313	0,118	-0,059
-250,292	65,878	-0,035	0,026
-249,278	-98,321	0,139	0,026
-248,263	800,000	-0,049	-0,103
-247,249	612,838	-0,039	-0,072
-246,234	156,428	0,037	0,037
-245,219	800,000	0,036	-0,095
-244,205	-43,175	-0,162	0,060
-243,190	204,123	0,056	0,064
-242,176	-200,000	0,035	-0,120
-241,161	-60,882	0,047	-0,014
-240,146	404,279	-0,040	0,061
-239,132	429,374	-0,037	-0,059
-238,117	35,766	-0,046	0,030
-237,103	-36,186	0,025	-0,010
-236,088	-200,000	0,019	0,079
-235,073	160,912	0,048	0,049
-234,059	-200,000	-0,020	0,074
-233,044	3,635	0,049	0,026
-232,030	85,621	0,045	-0,036
-231,015	-200,000	-0,008	-0,157
-230,000	800,000	-0,052	-0,140
-228,986	636,078	0,076	-0,141
-227,971	-200,000	-0,000	-0,051
-226,957	-111,447	-0,145	-0,021
-225,942	800,000	-0,046	-0,132
-224,927	800,000	-0,034	0,075
-223,913	96,178	0,078	-0,065
-222,898	28,930	-0,102	0,063
-221,884	-200,000	0,003	-0,156
-220,869	-200,000	0,012	0,127
-219,855	379,586	0,030	-0,045
-218,840	-32,256	0,126	0,051
-217,825	-200,000	-0,020	-0,144
-216,811	85,088	-0,173	-0,138
-215,796	111,451	-0,028	0,024
-214,782	-104,082	0,135	0,023
-213,767	-200,000	-0,049	-0,165
-212,752	647,403	-0,024	0,045
-211,738	800,000	-0,051	0,111
-210,723	800,000	0,042	-0,121
-209,709	21,657	0,051	-0,030
-208,694	245,349	0,040	-0,049
-207,679	800,000	-0,035	0,074
-206,665	800,000	-0,016	0,045
-205,650	-79,500	0,060	-0,015
-204,636	800,000	0,015	0,032
-203,621	-33,389	0,019	0,007
-202,606	-68,709	0,066	0,018
-201,592	-200,000	0,001	0,014
-200,577	28,136	-0,130	-0,080
-199,563	169,396	-0,075	-0,078
-198,548	-10,050	0,111	-0,054
-197,533	-200,000	0,128	0,000
-196,519	570,065	0,047	0,085
-195,504	-200,000	-0,013	0,095
-194,490	-200,000	0,004	0,031
-193,475	8,939	-0,084	0,046
-192,460	800,000	0,034	0,081
-191,446	413,942	-0,031	0,049
-190,431	108,378	-0,059	0,051
-189,417	548,878	0,034	0,059
-188,402	19,509	0,106	-0,062
-187,387	800,000	-0,019	-0,060
-186,373	9,284	0,035	-0,019
-185,358	-27,008	-0,082	-0,035
-184,344	145,404	0,062	-0,060
-183,329	5,843	-0,058	-0,031
-182,315	-57,372	0,037	-0,012
-181,300	-55,558	-0,089	-0,029
-180,285	339,692	-0,067	-0,095
-179,271	-200,000	0,008	-0,062
-178,256	355,359	-0,071	-0,103
-177,242	205,624	0,089	0,101
-176,227	-200,000	-0,008	-0,146
-175,212	-25,545	0,169	0,072
-174,198	-45,947	0,097	-0,035
-173,183	220,302	-0,068	-0,079
-172,169	-57,304	0,076	0,024
-171,154	169,595	0,050	0,052
-170,139	800,000	0,048	0,131
-169,125	142,567	0,037	0,035
-168,110	-200,000	-0,009	0,081
-167,096	-131,388	0,062	-0,006
-166,081	-107,822	0,062	-0,010
-165,066	-200,000	-0,004	-0,081
-164,052	800,000	0,058	0,129
-163,037	61,171	0,089	-0,065
-162,023	238,026	0,083	-0,100
-161,008	-62,614	-0,065	-0,020
-159,993	13,585	-0,073	-0,041
-158,979	-27,893	0,080	-0,034
-157,964	-80,346	-0,068	-0,016
-156,950	-200,000	-0,007	-0,101
-155,935	-12,776	0,038	-0,018
-154,920	800,000	-0,054	0,132
-153,906	10,869	0,076	0,042
-152,891	-200,000	0,008	0,057
-151,877	-22,899	-0,130	-0,057
-150,862	237,974	-0,007	-0,009
-149,847	627,973	0,017	0,032
-148,833	800,000	-0,014	0,033
-147,818	800,000	-0,006	0,013
-146,804	-107,595	0,023	-0,004
-145,789	-200,000	-0,048	-0,163
-144,775	-200,000	0,008	0,094
-143,760	-131,996	0,070	0,007
-142,745	79,635	-0,092	-0,072
-141,731	-200,000	-0,017	-0,067
-140,716	-200,000	0,013	0,076
-139,702	800,000	-0,079	0,205
-138,687	154,678	0,069	-0,069
-137,672	800,000	-0,001	0,003
-136,658	-49,372	-0,125	0,043
-135,643	6,220	0,013	0,007
-134,629	-200,000	0,006	-0,043
-133,614	800,000	-0,026	0,055
-132,599	446,577	-0,035	0,057
-131,585	-200,000	0,003	-0,019
-130,570	222,979	-0,027	-0,031
-129,556	24,362	0,066	0,040
-128,541	4,038	-0,040	0,021
-127,526	9,391	0,078	0,043
-126,512	194,310	-0,012	-0,013
-125,497	800,000	0,017	0,039
-124,483	739,678	0,025	0,049
-123,468	-200,000	0,012	-0,044
-122,453	-200,000	0,005	-0,068
-121,439	800,000	-0,026	-0,071
-120,424	240,318	-0,065	0,079
-119,410	-200,000	0,000	0,100
-118,395	-127,896	-0,043	0,004
-117,380	151,416	0,052	0,052
-116,366	-200,000	0,024	-0,086
-115,351	800,000	-0,008	-0,026
-114,337	-58,625	-0,044	0,014
-113,322	-53,329	0,096	0,032
-112,307	37,219	-0,048	0,031
-111,293	-83,897	0,083	-0,019
-110,278	108,903	0,021	0,018
-109,264	-200,000	-0,043	0,138
-108,249	800,000	0,046	0,103
-107,234	346,002	-0,050	-0,072
-106,220	-200,000	-0,031	0,142
-105,205	-200,000	-0,002	0,076
-104,191	-200,000	0,008	0,090
-103,176	800,000	0,047	-0,096
-102,162	161,797	0,043	0,044
-101,147	-200,000	-0,035	0,123
-100,132	-105,981	-0,035	0,006
-99,118	211,674	-0,028	0,032
-98,103	125,662	0,077	-0,071
-97,089	63,870	0,133	-0,097
-96,074	457,924	-0,056	0,090
-95,059	-79,113	0,041	0,010
-94,045	-200,000	0,025	0,175
-93,030	44,184	0,108	0,072
-92,016	-200,000	0,001	0,036
-91,001	-65,125	0,114	-0,033
-89,986	-200,000	-0,003	0,024
-88,972	221,728	-0,072	0,084
-87,957	-26,976	-0,057	-0,024
-86,943	-148,720	0,052	0,003
-85,928	-164,318	0,047	0,002
-84,913	-200,000	0,001	-0,023
-83,899	36,176	-0,089	-0,057
-82,884	-14,493	0,052	-0,024
-81,870	122,495	-0,056	-0,051
-80,855	-82,341	-0,119	-0,028
-79,840	800,000	-0,034	-0,101
-78,826	152,323	-0,063	0,063
-77,811	198,197	-0,094	0,104
-76,797	-200,000	0,032	0,106
-75,782	207,071	-0,080	-0,090
-74,767	361,836	-0,014	0,021
-73,753	186,938	-0,045	-0,048
-72,738	-64,478	-0,068	0,020
-71,724	-17,224	0,114	-0,052
-70,709	217,404	-0,075	0,086
-69,694	507,817	-0,033	-0,056
-68,680	103,402	0,138	0,117
-67,665	-110,336	-0,227	0,034
-66,651	-200,000	-0,001	0,093
-65,636	-116,394	-0,171	0,023
-64,622	800,000	-0,037	-0,087
-63,607	800,000	-0,056	-0,126
-62,592	800,000	-0,023	-0,055
-61,578	-69,554	-0,061	-0,017
-60,563	800,000	0,042	-0,104
-59,549	800,000	-0,062	0,190
-58,534	-60,769	-1,576	-0,481
-57,519	602,016	-0,701	-1,269
-56,505	-200,000	-1,007	-4,870
-55,490	-136,796	0,840	-0,069
-54,476	800,000	5,138	11,966
-53,461	-200,000	15,083	264,985
-52,446	800,000	696,206	2224,327
-51,432	570,179	1617,660	2863,876
-50,417	121,130	1628,035	1468,695
-49,403	82,358	1284,643	1009,406
-48,388	37,930	1024,310	658,572
-47,373	22,518	984,742	582,305
-46,359	21,509	973,841	572,516
-45,344	20,156	969,627	565,578
-44,330	20,151	968,289	564,761
-43,315	19,909	966,841	563,101
-42,300	19,946	965,545	562,444
-41,286	19,908	964,572	561,731
-40,271	19,915	963,873	561,326
-39,257	19,929	962,791	560,718
-38,242	19,948	961,957	560,273
-37,227	19,922	961,284	559,775
-36,213	19,940	960,172	559,162
-35,198	19,908	959,197	558,469
-34,184	19,979	958,513	558,278
-33,169	19,887	957,732	557,502
-32,154	19,961	956,741	557,145
-31,140	19,982	955,756	556,617
-30,125	20,017	955,153	556,356
-29,111	19,964	954,366	555,704
-28,096	19,920	953,619	555,106
-27,082	19,932	952,999	554,761
-26,067	19,962	952,120	554,325
-25,052	19,956	951,312	553,813
-24,038	19,899	950,804	553,310
-23,023	19,937	950,019	552,953
-22,009	19,974	949,444	552,717
-20,994	19,938	948,767	552,186
-19,979	19,893	948,299	551,747
-18,965	19,889	947,667	551,343
-17,950	19,887	947,161	551,023
-16,936	19,851	946,313	550,391
-15,921	19,820	945,770	549,955
-14,906	19,771	944,955	549,301
-13,892	19,762	944,364	548,908
-12,877	19,763	943,781	548,551
-11,863	19,726	943,234	548,093
-10,848	19,801	942,451	547,855
-9,833	19,914	942,040	547,955
-8,819	19,890	941,494	547,540
-7,804	19,789	940,940	546,874
-6,790	19,823	940,322	546,601
-5,775	19,798	939,709	546,142
-4,760	19,799	939,071	545,755
-3,746	19,837	938,311	545,410
-2,731	19,656	937,691	544,456
-1,717	19,589	936,951	543,791
-0,702	19,653	936,358	543,629
0,313	19,389	935,945	543,373
1,327	22,364	933,997	551,589
2,342	31,619	794,476	493,844
3,356	28,770	450,119	275,478
4,371	-1,296	294,763	150,237
5,386	-5,377	276,147	136,853
6,400	-6,930	270,378	132,532
7,415	-7,430	267,914	130,851
8,429	-7,179	266,762	130,508
9,444	-7,071	265,953	130,199
10,459	-7,069	265,243	129,841
11,473	-7,056	264,658	129,556
12,488	-7,137	264,103	129,199
13,502	-7,274	263,663	128,847
14,517	-7,075	263,178	128,779
15,531	-6,933	262,848	128,735
16,546	-6,906	262,589	128,621
17,561	-6,986	262,222	128,358
18,575	-6,692	261,850	128,430
19,590	-6,919	261,520	128,052
20,604	-6,818	261,204	127,977
21,619	-7,080	260,868	127,565
22,634	-6,783	260,564	127,672
23,648	-6,909	260,338	127,437
24,663	-6,965	260,103	127,260
25,677	-6,948	259,832	127,131
26,692	-6,865	259,547	127,054
27,707	-6,807	259,245	126,948
28,721	-7,039	259,017	126,617
29,736	-6,975	258,744	126,529
30,750	-6,915	258,538	126,471
31,765	-7,101	258,318	126,186
32,780	-7,084	258,176	126,121
33,794	-6,928	257,787	126,058
34,809	-6,890	257,506	125,944
35,823	-7,086	257,450	125,731
36,838	-7,112	257,169	125,559
37,853	-6,879	256,831	125,589
38,867	-6,967	256,643	125,408
39,882	-7,262	256,479	125,056
40,896	-7,108	256,268	125,078
41,911	-7,046	255,945	124,964
42,926	-7,082	255,799	124,850
43,940	-7,039	255,531	124,746
44,955	-7,239	255,277	124,435
45,969	-7,349	255,114	124,248
46,984	-7,402	254,822	124,049
47,999	-7,553	254,556	123,775
49,013	-7,551	254,298	123,641
50,028	-7,720	254,185	123,427
51,042	-7,804	253,819	123,165
52,057	-7,691	253,628	123,160
53,071	-7,801	253,554	123,017
54,086	-7,648	253,251	122,992
55,101	-7,625	253,189	122,971
56,115	-7,496	253,039	123,000
57,130	-7,112	252,819	123,216
58,144	-6,915	252,736	123,335
59,159	-6,909	252,450	123,190
60,174	-7,048	252,150	122,912
61,188	-6,994	252,058	122,903
62,203	-6,777	251,786	122,947
63,217	-6,936	251,626	122,721
64,232	-7,153	251,637	122,527
65,247	-7,020	251,161	122,400
66,261	-7,046	250,712	122,148
67,276	-7,125	250,691	122,058
68,290	-7,164	250,428	121,886
69,305	-7,405	250,188	121,551
70,320	-7,402	250,011	121,457
71,334	-7,227	249,915	121,549
72,349	-6,900	249,657	121,693
73,363	-6,937	249,515	121,581
74,378	-6,756	249,275	121,609
75,393	-7,005	249,181	121,339
76,407	-6,953	248,972	121,271
77,422	-6,997	248,672	121,076
78,436	-6,999	248,529	120,994
79,451	-6,986	248,207	120,838
80,466	-7,131	248,114	120,658
81,480	-7,077	247,735	120,509
82,495	-7,258	247,723	120,339
83,509	-7,093	247,539	120,379
84,524	-7,245	247,253	120,100
85,539	-7,462	247,035	119,800
86,553	-7,565	246,901	119,637
87,568	-7,100	246,560	119,854
88,582	-7,241	246,495	119,692
89,597	-7,410	246,369	119,478
90,611	-7,320	246,269	119,495
91,626	-7,000	246,056	119,651
92,641	-6,882	245,778	119,604
93,655	-7,119	245,595	119,305
94,670	-7,340	245,613	119,117
95,684	-7,248	245,316	119,040
96,699	-7,130	245,091	119,019
97,714	-7,369	244,961	118,745
98,728	-7,221	244,657	118,710
99,743	-7,178	244,510	118,665
100,757	-7,422	244,303	118,349
101,772	-7,478	244,158	118,222
102,787	-7,205	243,974	118,351
103,801	-7,323	243,832	118,173
104,816	-7,148	243,628	118,209
105,830	-6,970	243,532	118,300
106,845	-6,879	243,237	118,222
107,860	-7,056	243,178	118,036
108,874	-7,090	242,861	117,843
109,889	-7,297	242,775	117,619
110,903	-7,079	242,507	117,659
111,918	-7,454	242,312	117,244
112,933	-7,202	242,197	117,386
113,947	-7,184	241,960	117,275
114,962	-7,242	241,797	117,138
115,976	-7,007	241,685	117,268
116,991	-7,055	241,528	117,142
118,006	-7,171	241,238	116,895
119,020	-7,150	241,194	116,881
120,035	-7,145	241,192	116,873
121,049	-7,150	240,987	116,759
122,064	-6,969	240,649	116,734
123,079	-6,943	240,419	116,633
124,093	-7,066	240,197	116,414
125,108	-7,215	240,074	116,222
126,122	-7,613	239,936	115,818
127,137	-7,167	239,585	116,004
128,151	-7,380	239,511	115,783
129,166	-7,205	239,324	115,826
130,181	-7,223	239,200	115,741
131,195	-7,590	239,075	115,370
132,210	-7,285	238,828	115,490
133,224	-7,186	238,744	115,519
134,239	-7,145	238,530	115,439
135,254	-7,436	238,578	115,215
136,268	-7,302	238,108	115,086
137,283	-7,299	237,854	114,956
138,297	-7,557	237,616	114,622
139,312	-7,378	237,470	114,686
140,327	-7,525	237,541	114,591
141,341	-6,817	237,422	115,097
142,356	-6,850	237,174	114,939
143,370	-6,842	237,091	114,895
144,385	-6,954	236,971	114,736
145,400	-6,521	236,675	114,933
146,414	-7,004	236,539	114,467
147,429	-6,870	236,391	114,493
148,443	-6,959	236,269	114,352
149,458	-6,825	236,061	114,349
150,473	-6,967	235,917	114,155
151,487	-6,882	235,609	114,064
152,502	-6,751	235,480	114,096
153,516	-6,808	235,364	113,984
154,531	-6,711	235,159	113,952
155,546	-6,937	235,045	113,706
156,560	-6,839	234,705	113,609
157,575	-7,127	234,676	113,355
158,589	-7,146	234,443	113,218
159,604	-6,817	234,288	113,395
160,619	-6,726	234,180	113,405
161,633	-6,701	234,203	113,426
162,648	-6,860	233,965	113,174
163,662	-6,847	233,684	113,038
164,677	-6,908	233,525	112,903
165,692	-6,847	233,414	112,888
166,706	-6,736	233,398	112,958
167,721	-6,801	233,212	112,806
168,735	-6,784	233,004	112,709
169,750	-6,729	232,946	112,715
170,764	-6,820	232,681	112,504
171,779	-6,896	232,649	112,419
172,794	-6,748	232,470	112,439
173,808	-6,751	232,181	112,287
174,823	-7,217	231,792	111,721
175,837	-7,488	231,759	111,482
176,852	-7,220	231,675	111,643
177,867	-6,914	231,642	111,858
178,881	-6,731	231,415	111,882
179,896	-6,795	231,301	111,767
180,910	-6,652	231,089	111,767
181,925	-6,841	231,073	111,600
182,940	-6,750	230,870	111,564
183,954	-6,735	230,728	111,498
184,969	-6,712	230,529	111,409
185,983	-6,684	230,431	111,374
186,998	-6,694	230,049	111,172
188,013	-6,609	229,996	111,202
189,027	-6,610	229,840	111,116
190,042	-6,714	229,774	110,993
191,056	-6,645	229,592	110,949
192,071	-6,830	229,400	110,702
193,086	-6,804	229,277	110,654
194,100	-6,781	229,020	110,537
195,115	-7,293	228,638	109,946
196,129	-7,423	228,555	109,795
197,144	-3,957	229,605	112,990
198,159	0,637	230,919	117,217
199,173	3,963	231,933	120,327
200,188	4,744	231,865	120,891
201,202	4,619	231,642	120,666
202,217	4,606	231,561	120,602
203,232	4,686	231,629	120,690
204,246	4,705	231,494	120,624
205,261	4,886	231,121	120,560
206,275	5,062	231,088	120,668
207,290	5,178	230,929	120,665
208,304	4,861	230,830	120,356
209,319	4,982	230,681	120,362
210,334	4,898	230,265	120,069
211,348	4,788	230,151	119,914
212,363	4,099	230,002	119,292
213,377	3,914	229,846	119,057
214,392	4,196	229,493	119,081
215,407	4,114	229,531	119,027
216,421	4,254	229,282	118,996
217,436	4,035	229,204	118,775
218,450	3,938	228,865	118,515
219,465	3,770	228,791	118,336
220,480	3,940	228,707	118,412
221,494	3,976	228,544	118,346
222,509	3,936	228,288	118,171
223,523	4,265	228,166	118,350
224,538	4,249	228,099	118,293
225,553	4,129	227,944	118,110
226,567	4,066	227,947	118,053
227,582	4,473	227,779	118,267
228,596	4,400	227,663	118,140
229,611	4,118	227,504	117,832
230,626	3,907	227,132	117,467
231,640	3,889	227,010	117,380
232,655	4,150	227,078	117,604
233,669	4,633	226,950	117,895
234,684	4,828	226,719	117,914
235,699	4,572	226,574	117,633
236,713	4,225	226,374	117,254
237,728	3,990	226,253	117,003
238,742	4,087	225,894	116,880
239,757	4,003	225,917	116,818
240,772	4,114	225,686	116,772
241,786	3,980	225,500	116,564
242,801	4,141	225,587	116,720
243,815	4,572	225,466	116,974
244,830	4,564	225,373	116,909
245,844	4,316	225,111	116,575
246,859	4,149	224,860	116,309
247,874	4,299	224,792	116,377
248,888	4,351	224,660	116,338
249,903	4,349	224,446	116,215
250,917	4,145	224,275	115,962
251,932	4,095	224,244	115,898
252,947	4,176	223,964	115,804
253,961	4,065	223,721	115,584
254,976	4,066	223,685	115,556
255,990	4,129	223,605	115,552
257,005	4,530	223,432	115,753
258,020	4,256	223,405	115,523
259,034	4,632	223,222	115,700
260,049	4,282	223,071	115,349
261,063	4,223	222,870	115,191
262,078	4,421	222,806	115,296
263,093	4,706	222,691	115,439
264,107	4,295	222,565	115,056
265,122	4,276	222,556	115,027
266,136	4,494	222,405	115,101
267,151	4,610	222,157	115,049
268,166	4,062	221,843	114,469
269,180	3,906	221,555	114,194
270,195	4,162	221,504	114,348
271,209	4,031	221,329	114,150
272,224	4,043	221,224	114,095
273,239	4,270	221,089	114,183
274,253	4,001	221,027	113,942
275,268	4,027	220,864	113,867
276,282	3,806	220,716	113,617
277,297	3,869	220,445	113,514
278,312	3,930	220,368	113,509
279,326	4,171	220,203	113,592
280,341	4,050	220,183	113,482
281,355	4,288	220,065	113,586
282,370	3,932	219,804	113,180
283,384	3,953	219,719	113,141
284,399	4,027	219,388	113,015
285,414	4,086	219,286	112,995
286,428	3,983	219,347	112,942
287,443	4,318	219,121	113,060
288,457	4,344	219,074	113,045
289,472	4,088	218,936	112,776
290,487	3,603	218,611	112,244
291,501	3,591	218,423	112,129
292,516	3,967	218,261	112,311
293,530	3,751	218,352	112,190
294,545	3,993	218,034	112,192
295,560	3,997	218,086	112,212
296,574	4,404	217,855	112,379
297,589	4,218	217,676	112,142
298,603	4,137	217,698	112,084
299,618	4,337	217,397	112,064
300,633	4,255	217,278	111,934
301,647	4,233	217,297	111,918
302,662	4,446	216,941	111,879
303,676	4,335	217,055	111,847
304,691	4,179	216,925	111,657
305,706	4,534	216,637	111,756
306,720	4,292	216,438	111,468
307,735	4,007	216,621	111,346
308,749	4,055	216,145	111,126
309,764	4,148	216,226	111,225
310,779	4,248	216,094	111,220
311,793	4,158	215,890	111,040
312,808	4,228	215,588	110,925
313,822	4,163	215,641	110,896
314,837	4,112	215,369	110,709
315,852	3,653	215,242	110,304
316,866	4,229	215,169	110,670
317,881	4,400	215,012	110,703
318,895	4,366	214,897	110,610
319,910	4,166	214,827	110,420
320,925	3,814	214,623	110,053
321,939	3,647	214,294	109,755
322,954	3,834	214,254	109,859
323,968	4,352	214,105	110,142
324,983	4,242	214,093	110,048
325,997	4,173	214,134	110,010
327,012	4,210	213,785	109,847
328,027	4,197	213,699	109,783
329,041	4,570	213,591	109,984
330,056	4,578	213,582	109,975
331,070	4,209	213,211	109,513
332,085	3,889	212,982	109,157
333,100	3,941	212,907	109,147
334,114	4,289	212,789	109,323
335,129	4,365	212,583	109,261
336,143	4,015	212,396	108,908
337,158	3,928	212,467	108,873
338,173	4,011	212,205	108,788
339,187	3,922	212,068	108,644
340,202	3,675	211,991	108,421
341,216	3,802	211,716	108,360
342,231	3,906	211,670	108,401
343,246	4,030	211,463	108,372
344,260	3,959	211,515	108,339
345,275	3,896	211,367	108,210
346,289	4,320	211,139	108,381
347,304	4,173	211,055	108,225
348,319	4,118	211,026	108,162
349,333	4,250	210,759	108,108
350,348	3,951	210,671	107,844
351,362	4,207	210,624	107,989
352,377	4,158	210,514	107,889
353,392	3,807	210,354	107,552
354,406	4,300	210,153	107,784
355,421	194,793	1342,862	1432,526
356,435	155,522	1480,935	1432,602
