DTS Sentinel unit serial number:	SN410029Multiplexer serial number:	ORYXHardware model number:	OX2-SRSoftware version number:	ORYX F/W v4,00 Oryx Data Collector v3.7.2.0data status	okinstallation	B6 Nyhavnadifferential loss correction	single-endedforward channel	channel 2reverse channel	N/Adate	2023/12/07time	11:40:08forward acquisition time	300,00reverse acquisition time	0,00gamma	499,1914k internal	0,3203k external	0,3203temperature offset calibration	1,0000default loss term (dB/km)	0,3820temperature slope calibration	1,0000multiplexer offset coefficient	1,0000multiplexer slope coefficient	1,0000fibre end	0,00T internal ref (°C)	8,80T ext. ref 1 (°C)	-5,08T ext. ref 2 (°C)	-5,10length (m)	temperature (°C)	Stokes	anti-Stokes-744,400	-121,809	0,226	-0,027
-743,385	-76,035	-0,354	-0,090
-742,371	11,170	0,233	0,129
-741,356	-82,938	-0,328	-0,076
-740,342	-37,414	0,166	0,064
-739,327	-149,351	-0,375	-0,021
-738,312	314,819	0,140	0,192
-737,298	-149,704	-0,506	-0,028
-736,283	-24,940	0,178	0,076
-735,269	-85,440	-0,312	-0,070
-734,254	-102,748	0,229	0,039
-733,239	13,563	-0,465	-0,262
-732,225	-74,614	0,258	0,067
-731,210	736,234	-0,025	0,048
-730,196	800,000	0,027	0,073
-729,181	201,945	-0,106	-0,119
-728,167	157,039	-0,089	-0,089
-727,152	-96,066	-0,118	-0,023
-726,137	-200,000	0,009	-0,094
-725,123	800,000	-0,037	-0,098
-724,108	-51,962	-0,094	-0,032
-723,094	210,855	-0,079	-0,091
-722,079	-90,045	-0,059	0,012
-721,064	800,000	0,005	-0,011
-720,050	-110,904	-0,094	0,014
-719,035	-200,000	-0,020	-0,144
-718,021	800,000	-0,024	0,053
-717,006	739,508	-0,103	-0,203
-715,991	282,505	-0,024	-0,031
-714,977	67,432	-0,086	-0,064
-713,962	-162,709	-0,133	-0,005
-712,948	-58,581	-0,018	0,006
-711,933	287,645	0,127	-0,167
-710,918	94,383	-0,110	-0,091
-709,904	-9,893	-0,189	-0,091
-708,889	-200,000	-0,012	-0,040
-707,875	-200,000	0,002	-0,080
-706,860	800,000	-0,032	0,086
-705,845	762,252	-0,009	0,018
-704,831	800,000	-0,078	0,159
-703,816	800,000	-0,032	-0,099
-702,802	800,000	-0,031	0,093
-701,787	-14,819	-0,111	0,051
-700,772	-200,000	0,020	-0,069
-699,758	23,591	-0,094	-0,056
-698,743	-129,856	0,101	-0,010
-697,729	-134,627	0,072	-0,006
-696,714	349,573	-0,090	0,129
-695,699	-63,211	-0,114	-0,034
-694,685	423,500	-0,069	-0,107
-693,670	800,000	-0,028	0,066
-692,656	-200,000	0,036	-0,180
-691,641	79,440	0,120	0,094
-690,627	-200,000	-0,000	0,009
-689,612	-67,659	-0,072	-0,020
-688,597	-5,703	-0,119	-0,059
-687,583	-200,000	-0,008	-0,138
-686,568	237,731	0,109	-0,131
-685,554	800,000	0,051	-0,138
-684,539	73,785	0,099	0,075
-683,524	585,979	-0,024	0,042
-682,510	12,196	0,057	0,032
-681,495	618,482	0,019	-0,035
-680,481	204,508	0,058	-0,065
-679,466	220,723	-0,077	-0,090
-678,451	642,655	-0,059	-0,109
-677,437	285,996	-0,058	-0,077
-676,422	253,182	-0,089	0,111
-675,408	-13,169	-0,019	0,009
-674,393	-77,755	-0,200	-0,050
-673,378	800,000	-0,046	-0,110
-672,364	33,967	-0,060	-0,038
-671,349	-48,025	-0,074	0,026
-670,335	800,000	0,017	-0,043
-669,320	68,027	0,114	0,085
-668,305	-200,000	0,023	-0,126
-667,291	602,484	-0,098	-0,178
-666,276	-100,663	-0,110	0,019
-665,262	27,061	-0,073	-0,044
-664,247	128,851	-0,020	-0,018
-663,232	12,270	0,090	0,050
-662,218	557,709	-0,029	0,050
-661,203	800,000	-0,026	0,083
-660,189	127,847	-0,019	-0,018
-659,174	138,595	-0,127	-0,121
-658,159	-173,116	-0,072	0,002
-657,145	126,440	-0,091	-0,083
-656,130	399,442	-0,089	-0,135
-655,116	-200,000	-0,009	-0,098
-654,101	-109,935	-0,008	0,001
-653,086	-178,439	-0,204	-0,003
-652,072	-66,781	-0,140	-0,040
-651,057	175,068	0,141	-0,148
-650,043	-200,000	0,003	-0,058
-649,028	-89,906	-0,098	-0,021
-648,014	383,893	-0,068	0,101
-646,999	800,000	0,062	-0,159
-645,984	47,386	-0,038	0,026
-644,970	800,000	-0,073	0,158
-643,955	-200,000	0,004	0,050
-642,941	-200,000	-0,007	-0,027
-641,926	22,530	-0,126	0,074
-640,911	687,361	-0,039	-0,074
-639,897	-52,766	0,082	-0,027
-638,882	-200,000	0,035	-0,157
-637,868	100,870	-0,102	-0,086
-636,853	18,434	-0,072	-0,042
-635,838	107,522	0,014	-0,012
-634,824	595,923	0,015	0,027
-633,809	-5,543	0,066	0,033
-632,795	134,706	0,052	-0,049
-631,780	-72,819	0,041	-0,011
-630,765	800,000	0,004	0,011
-629,751	800,000	-0,025	-0,059
-628,736	507,164	-0,052	-0,088
-627,722	-12,766	0,082	-0,038
-626,707	800,000	-0,033	0,102
-625,692	-200,000	-0,007	0,058
-624,678	114,075	-0,056	-0,049
-623,663	-2,486	0,102	0,051
-622,649	45,732	-0,050	-0,034
-621,634	-200,000	-0,009	0,065
-620,619	214,981	-0,070	-0,080
-619,605	424,008	0,040	0,063
-618,590	-33,331	0,053	0,021
-617,576	505,277	-0,054	0,091
-616,561	-200,000	0,024	-0,127
-615,546	450,542	0,065	-0,103
-614,532	-200,000	0,005	-0,145
-613,517	268,994	0,035	0,045
-612,503	-200,000	-0,005	-0,101
-611,488	-115,950	-0,100	-0,013
-610,474	800,000	0,022	-0,052
-609,459	-200,000	-0,011	0,105
-608,444	80,270	-0,016	-0,012
-607,430	-200,000	0,006	0,083
-606,415	800,000	-0,022	0,050
-605,401	-5,547	-0,056	0,028
-604,386	-200,000	-0,005	-0,101
-603,371	342,684	0,019	0,026
-602,357	-200,000	-0,007	-0,134
-601,342	-51,496	-0,202	-0,068
-600,328	44,549	-0,097	-0,065
-599,313	-170,162	-0,071	-0,002
-598,298	800,000	0,049	0,108
-597,284	40,260	-0,094	-0,061
-596,269	-200,000	-0,001	-0,010
-595,255	-63,221	-0,078	0,023
-594,240	112,992	0,081	-0,071
-593,225	17,512	0,120	-0,069
-592,211	-200,000	-0,014	0,097
-591,196	67,672	0,065	-0,048
-590,182	800,000	0,027	-0,054
-589,167	-136,635	0,040	0,003
-588,152	81,682	0,162	-0,126
-587,138	-58,777	-0,081	-0,025
-586,123	-200,000	-0,037	-0,132
-585,109	87,214	0,043	-0,035
-584,094	69,490	0,096	-0,071
-583,079	800,000	0,020	0,049
-582,065	-200,000	-0,012	-0,128
-581,050	155,249	-0,051	0,051
-580,036	-16,672	0,099	-0,045
-579,021	130,971	0,033	0,030
-578,006	-57,366	-0,180	-0,057
-576,992	-200,000	0,017	0,059
-575,977	158,308	-0,094	0,094
-574,963	-167,138	0,066	0,002
-573,948	-46,274	-0,131	-0,046
-572,934	83,350	-0,071	-0,055
-571,919	800,000	-0,021	-0,045
-570,904	368,628	-0,068	-0,100
-569,890	800,000	-0,060	-0,139
-568,875	11,340	0,066	-0,037
-567,861	584,111	-0,035	0,063
-566,846	208,744	-0,057	-0,064
-565,831	426,885	0,061	0,095
-564,817	-148,285	-0,069	-0,004
-563,802	463,992	-0,035	-0,057
-562,788	161,472	0,101	-0,102
-561,773	-36,144	0,081	-0,032
-560,758	143,415	-0,083	0,079
-559,744	800,000	-0,040	0,092
-558,729	800,000	-0,049	-0,140
-557,715	-14,343	-0,080	0,037
-556,700	154,331	-0,070	-0,070
-555,685	78,529	-0,012	-0,009
-554,671	800,000	-0,025	0,061
-553,656	-200,000	0,020	-0,130
-552,642	41,838	-0,061	-0,040
-551,627	3,552	0,124	0,065
-550,612	294,172	-0,051	0,068
-549,598	800,000	-0,065	-0,152
-548,583	-200,000	-0,007	-0,107
-547,569	-66,283	-0,125	0,036
-546,554	-200,000	0,025	-0,097
-545,539	-123,883	-0,107	-0,012
-544,525	-200,000	0,008	0,121
-543,510	-17,560	0,104	0,047
-542,496	-162,110	-0,087	0,003
-541,481	25,780	0,041	-0,025
-540,466	241,200	-0,063	-0,076
-539,452	56,890	0,151	0,106
-538,437	-3,942	0,082	0,041
-537,423	20,250	-0,015	-0,009
-536,408	293,984	0,029	-0,038
-535,393	-139,169	0,070	0,005
-534,379	64,757	-0,058	0,042
-533,364	-127,328	0,069	0,007
-532,350	33,932	-0,027	-0,017
-531,335	147,075	0,069	0,067
-530,321	238,259	0,024	0,029
-529,306	-46,075	-0,038	-0,013
-528,291	-200,000	0,047	-0,162
-527,277	88,268	0,012	0,010
-526,262	-200,000	-0,076	-0,000
-525,248	692,653	-0,062	0,118
-524,233	-68,285	-0,061	-0,017
-523,218	189,411	0,052	-0,056
-522,204	296,915	-0,120	-0,159
-521,189	-200,000	-0,003	-0,095
-520,175	-103,209	0,053	-0,009
-519,160	-200,000	-0,001	-0,057
-518,145	-14,240	-0,018	-0,008
-517,131	-33,203	0,162	-0,064
-516,116	-147,988	-0,078	-0,005
-515,102	-19,466	-0,061	0,027
-514,087	-200,000	0,014	-0,070
-513,072	-200,000	-0,016	-0,110
-512,058	-200,000	-0,030	-0,176
-511,043	-97,651	0,078	0,014
-510,029	-200,000	0,016	0,082
-509,014	-200,000	0,005	0,031
-507,999	-171,335	0,103	0,002
-506,985	-64,308	-0,101	-0,029
-505,970	8,084	-0,045	-0,024
-504,956	-200,000	-0,016	-0,079
-503,941	-15,080	0,028	-0,013
-502,926	-200,000	0,040	0,230
-501,912	800,000	0,032	0,090
-500,897	-113,322	-0,177	-0,025
-499,883	474,786	0,036	0,058
-498,868	-78,855	-0,173	-0,042
-497,853	-19,757	-0,026	-0,012
-496,839	153,451	-0,070	0,069
-495,824	-46,468	0,124	0,044
-494,810	800,000	-0,037	0,097
-493,795	387,759	-0,021	0,031
-492,781	-200,000	-0,002	0,051
-491,766	-200,000	-0,028	0,132
-490,751	-200,000	-0,003	-0,053
-489,737	443,022	-0,015	0,024
-488,722	17,344	0,041	-0,023
-487,708	800,000	-0,026	0,067
-486,693	28,802	-0,059	0,036
-485,678	199,550	0,053	0,059
-484,664	510,311	-0,064	-0,108
-483,649	-200,000	-0,024	-0,104
-482,635	210,683	0,049	0,056
-481,620	-62,068	-0,122	0,036
-480,605	485,225	0,094	0,155
-479,591	-70,116	0,156	0,043
-478,576	183,801	-0,056	-0,060
-477,562	209,888	-0,071	-0,080
-476,547	800,000	-0,025	-0,061
-475,532	179,618	0,079	-0,083
-474,518	-182,101	-0,074	0,001
-473,503	-182,637	-0,030	0,000
-472,489	-133,298	-0,066	0,006
-471,474	-200,000	-0,018	0,086
-470,459	-128,958	-0,051	-0,005
-469,445	438,375	-0,050	-0,079
-468,430	118,200	0,024	-0,021
-467,416	207,009	0,085	0,096
-466,401	87,666	-0,065	0,052
-465,386	-48,734	-0,038	0,013
-464,372	-200,000	-0,035	0,184
-463,357	32,126	-0,107	-0,066
-462,343	-200,000	0,029	-0,163
-461,328	-84,329	-0,066	0,015
-460,313	-200,000	-0,019	0,093
-459,299	800,000	0,034	0,085
-458,284	129,016	0,061	0,056
-457,270	-127,493	0,131	-0,014
-456,255	-200,000	0,007	-0,083
-455,241	-40,053	-0,088	-0,033
-454,226	-99,224	-0,075	-0,013
-453,211	331,398	0,022	-0,031
-452,197	800,000	0,006	0,018
-451,182	533,965	-0,088	0,151
-450,168	102,837	0,039	0,033
-449,153	-200,000	-0,006	-0,047
-448,138	167,276	0,046	0,047
-447,124	553,789	0,059	-0,103
-446,109	-18,454	-0,160	0,072
-445,095	131,893	0,042	0,039
-444,080	426,243	0,090	0,139
-443,065	-140,821	0,091	0,007
-442,051	46,061	-0,152	-0,101
-441,036	-80,571	-0,064	0,015
-440,022	131,173	0,096	0,089
-439,007	16,545	0,120	-0,068
-437,992	74,353	0,061	0,046
-436,978	-2,084	0,069	0,035
-435,963	800,000	-0,047	0,096
-434,949	-200,000	0,023	0,116
-433,934	205,863	-0,066	-0,074
-432,919	87,623	0,019	0,015
-431,905	-200,000	-0,006	-0,061
-430,890	33,388	0,160	-0,099
-429,876	549,901	-0,033	0,057
-428,861	-81,731	0,050	0,012
-427,846	-200,000	0,010	0,093
-426,832	271,691	-0,094	0,119
-425,817	-200,000	0,020	-0,138
-424,803	262,696	0,066	-0,082
-423,788	-108,217	0,046	-0,007
-422,773	-77,057	0,041	0,010
-421,759	499,436	-0,075	0,125
-420,744	227,706	-0,033	-0,038
-419,730	121,991	-0,072	-0,065
-418,715	17,293	0,035	0,020
-417,701	187,772	0,018	-0,019
-416,686	-200,000	0,001	0,024
-415,671	-23,943	0,135	0,058
-414,657	168,814	-0,018	-0,019
-413,642	136,509	0,073	-0,069
-412,628	-68,373	-0,049	0,013
-411,613	85,979	0,159	0,125
-410,598	-200,000	-0,028	-0,096
-409,584	-200,000	-0,012	-0,055
-408,569	-81,179	0,093	-0,022
-407,555	-200,000	0,014	0,079
-406,540	-200,000	-0,022	-0,077
-405,525	-200,000	0,041	0,135
-404,511	72,509	-0,079	-0,059
-403,496	-30,302	-0,065	0,026
-402,482	166,705	0,042	0,043
-401,467	-32,980	0,136	-0,054
-400,452	89,616	0,046	0,037
-399,438	-28,876	0,095	0,039
-398,423	800,000	0,017	-0,054
-397,409	-122,264	-0,116	-0,013
-396,394	-200,000	0,026	-0,113
-395,379	43,922	-0,140	-0,092
-394,365	-113,863	-0,191	0,026
-393,350	-200,000	0,018	0,129
-392,336	800,000	0,029	0,080
-391,321	229,348	0,015	-0,018
-390,306	168,222	-0,088	0,089
-389,292	-27,960	-0,056	-0,023
-388,277	-200,000	-0,015	0,000
-387,263	147,026	0,079	-0,077
-386,248	257,475	-0,031	-0,038
-385,233	-88,971	0,190	0,040
-384,219	187,045	0,057	0,061
-383,204	800,000	-0,098	-0,241
-382,190	124,431	-0,047	-0,042
-381,175	-200,000	0,003	0,109
-380,160	-60,555	-0,119	0,036
-379,146	-200,000	0,013	-0,077
-378,131	-200,000	-0,023	0,090
-377,117	132,335	-0,082	-0,076
-376,102	-200,000	0,006	-0,028
-375,088	800,000	0,061	-0,137
-374,073	800,000	0,020	-0,047
-373,058	800,000	0,087	0,194
-372,044	317,429	-0,036	0,048
-371,029	-57,075	-0,094	0,029
-370,015	-31,036	-0,106	0,043
-369,000	-119,502	-0,095	0,012
-367,985	373,169	-0,045	0,066
-366,971	-200,000	-0,004	0,031
-365,956	-75,414	0,099	-0,025
-364,942	4,718	0,146	0,076
-363,927	-200,000	-0,029	-0,128
-362,912	800,000	-0,059	-0,146
-361,898	147,118	-0,113	0,109
-360,883	-200,000	0,004	-0,111
-359,869	-200,000	-0,003	-0,046
-358,854	800,000	0,074	-0,166
-357,839	-200,000	-0,012	-0,040
-356,825	-200,000	-0,010	0,105
-355,810	17,620	0,143	-0,081
-354,796	800,000	-0,046	0,105
-353,781	-13,121	-0,118	0,055
-352,766	-43,437	0,095	0,034
-351,752	98,868	0,090	-0,074
-350,737	800,000	-0,032	-0,065
-349,723	196,819	0,084	0,092
-348,708	-12,795	0,064	-0,030
-347,693	-200,000	-0,046	0,188
-346,679	-200,000	-0,035	0,117
-345,664	451,089	0,042	-0,067
-344,650	-36,388	0,053	0,020
-343,635	-200,000	0,024	0,162
-342,620	-200,000	0,035	0,145
-341,606	-72,894	0,029	-0,007
-340,591	-200,000	-0,014	-0,055
-339,577	-106,157	0,045	-0,007
-338,562	379,275	0,054	-0,079
-337,548	-13,592	0,164	-0,076
-336,533	-200,000	0,003	0,041
-335,518	800,000	-0,024	0,069
-334,504	118,824	-0,061	0,054
-333,489	-200,000	-0,006	0,114
-332,475	800,000	-0,021	0,047
-331,460	48,467	-0,130	-0,087
-330,445	584,789	0,055	0,096
-329,431	-200,000	0,003	-0,094
-328,416	800,000	0,037	0,098
-327,402	598,777	0,070	0,125
-326,387	-200,000	-0,039	-0,127
-325,372	-200,000	0,004	-0,039
-324,358	179,481	0,054	0,057
-323,343	19,519	-0,153	-0,088
-322,329	-200,000	0,011	0,071
-321,314	196,558	-0,032	-0,035
-320,299	-87,697	0,003	0,001
-319,285	78,031	-0,054	-0,041
-318,270	-84,429	-0,112	0,025
-317,256	800,000	-0,073	-0,162
-316,241	-88,940	0,173	-0,036
-315,226	-77,674	0,097	0,024
-314,212	246,537	0,082	0,099
-313,197	-200,000	0,021	0,213
-312,183	88,938	-0,070	0,056
-311,168	128,348	-0,122	-0,111
-310,153	-200,000	-0,009	0,033
-309,139	673,174	-0,083	-0,154
-308,124	166,472	0,007	0,008
-307,110	320,436	0,046	0,063
-306,095	-200,000	0,009	0,171
-305,080	-34,544	0,112	0,044
-304,066	-200,000	-0,006	0,123
-303,051	-78,690	-0,150	-0,036
-302,037	717,316	0,046	-0,087
-301,022	371,114	0,077	0,112
-300,008	-200,000	-0,046	0,170
-298,993	-200,000	0,002	0,083
-297,978	526,183	-0,050	0,084
-296,964	-200,000	-0,005	-0,054
-295,949	-200,000	0,030	-0,142
-294,935	800,000	0,035	-0,086
-293,920	-200,000	0,015	0,108
-292,905	800,000	0,051	0,136
-291,891	-200,000	-0,029	0,109
-290,876	593,930	0,048	-0,086
-289,862	110,886	0,077	-0,066
-288,847	-37,316	-0,047	-0,018
-287,832	28,956	-0,050	-0,030
-286,818	800,000	0,028	0,058
-285,803	94,612	0,068	-0,055
-284,789	-200,000	0,010	0,058
-283,774	800,000	0,069	0,140
-282,759	22,186	-0,099	-0,057
-281,745	-200,000	-0,000	0,086
-280,730	437,428	0,059	0,093
-279,716	-200,000	0,006	-0,086
-278,701	-180,561	-0,026	-0,000
-277,686	-200,000	0,018	-0,069
-276,672	800,000	-0,051	0,107
-275,657	154,792	0,127	0,125
-274,643	-200,000	-0,032	-0,179
-273,628	-150,198	-0,123	-0,007
-272,613	593,674	-0,022	-0,039
-271,599	179,400	0,126	0,132
-270,584	800,000	-0,020	-0,063
-269,570	44,034	-0,036	-0,024
-268,555	61,875	0,085	0,060
-267,540	-97,294	-0,125	0,023
-266,526	-34,359	0,051	0,020
-265,511	70,142	0,010	0,007
-264,497	64,674	0,102	-0,073
-263,482	148,573	0,060	0,058
-262,467	-200,000	0,005	0,066
-261,453	800,000	0,010	-0,027
-260,438	-61,449	0,124	-0,037
-259,424	162,550	-0,093	0,093
-258,409	165,359	-0,104	0,105
-257,395	-200,000	0,015	0,081
-256,380	-200,000	-0,017	0,082
-255,365	-200,000	-0,002	-0,038
-254,351	420,887	-0,050	-0,076
-253,336	63,511	0,081	0,058
-252,322	-200,000	0,011	-0,165
-251,307	21,876	-0,106	-0,061
-250,292	29,228	0,076	-0,046
-249,278	11,651	0,152	-0,083
-248,263	608,306	-0,020	0,036
-247,249	-146,746	0,135	-0,008
-246,234	126,413	-0,185	0,167
-245,219	-200,000	0,009	-0,148
-244,205	3,303	-0,023	-0,012
-243,190	-22,574	0,020	0,009
-242,176	-97,771	0,107	0,020
-241,161	-200,000	-0,010	0,104
-240,146	279,427	0,078	0,100
-239,132	76,932	-0,087	-0,066
-238,117	136,086	-0,085	-0,079
-237,103	12,301	-0,039	0,021
-236,088	-118,672	0,210	-0,026
-235,073	-47,522	-0,046	-0,016
-234,059	-10,728	0,061	0,029
-233,044	-113,751	-0,130	-0,018
-232,030	-170,410	0,038	0,001
-231,015	25,101	0,079	0,047
-230,000	58,009	-0,041	0,029
-228,986	39,856	-0,061	0,039
-227,971	-123,650	0,216	0,024
-226,957	144,079	-0,015	0,014
-225,942	40,576	-0,063	0,040
-224,927	218,487	0,052	0,059
-223,913	656,019	-0,067	-0,122
-222,898	318,109	-0,048	-0,065
-221,884	94,245	-0,070	-0,056
-220,869	209,970	0,055	-0,062
-219,855	-200,000	-0,003	0,065
-218,840	203,409	0,084	-0,093
-217,825	-200,000	0,001	0,006
-216,811	442,983	0,044	-0,069
-215,796	46,609	0,085	-0,056
-214,782	-136,144	0,066	-0,005
-213,767	-200,000	0,008	-0,072
-212,752	-200,000	0,006	0,061
-211,738	-75,463	0,116	0,029
-210,723	800,000	-0,022	0,052
-209,709	178,385	-0,121	-0,126
-208,694	-200,000	-0,024	-0,140
-207,679	44,644	-0,101	0,066
-206,665	-138,768	-0,066	-0,005
-205,650	52,892	0,079	0,054
-204,636	116,752	-0,028	-0,025
-203,621	33,246	0,118	0,073
-202,606	-130,649	-0,107	0,010
-201,592	28,275	0,072	-0,043
-200,577	126,308	-0,056	0,051
-199,563	775,412	-0,007	-0,014
-198,548	800,000	0,034	-0,072
-197,533	800,000	0,036	0,085
-196,519	-95,769	0,048	-0,009
-195,504	800,000	0,017	0,040
-194,490	145,466	-0,039	-0,037
-193,475	-69,344	0,037	-0,010
-192,460	800,000	0,024	-0,076
-191,446	31,128	-0,032	-0,019
-190,431	-12,591	0,129	0,060
-189,417	-200,000	-0,003	-0,008
-188,402	136,755	-0,052	0,048
-187,387	575,546	-0,028	-0,049
-186,373	41,923	-0,028	0,018
-185,358	-200,000	-0,011	0,080
-184,344	-71,764	0,141	0,037
-183,329	259,861	0,007	0,009
-182,315	800,000	-0,049	0,102
-181,300	800,000	0,039	0,095
-180,285	102,152	0,041	0,034
-179,271	-200,000	-0,001	-0,053
-178,256	-1,683	-0,052	0,026
-177,242	-57,561	0,028	-0,009
-176,227	23,243	0,046	0,027
-175,212	11,148	0,151	0,082
-174,198	158,667	0,027	-0,027
-173,183	137,856	0,204	-0,190
-172,169	226,581	-0,121	-0,140
-171,154	-107,315	-0,130	-0,020
-170,139	-52,944	0,088	0,029
-169,125	-86,010	0,123	0,027
-168,110	-69,811	0,083	-0,022
-167,096	-86,605	-0,035	-0,007
-166,081	-154,667	0,040	-0,002
-165,066	302,921	0,017	0,023
-164,052	271,553	-0,079	0,099
-163,037	-75,542	0,056	0,014
-162,023	-200,000	-0,001	0,035
-161,008	118,987	-0,033	0,029
-159,993	-200,000	-0,014	0,082
-158,979	375,871	-0,048	-0,069
-157,964	-200,000	-0,020	-0,109
-156,950	-19,269	-0,118	-0,052
-155,935	-115,365	0,066	-0,009
-154,920	-200,000	-0,014	0,115
-153,906	73,588	-0,106	-0,079
-152,891	61,566	0,055	-0,039
-151,877	-200,000	0,027	-0,095
-150,862	131,520	-0,148	-0,135
-149,847	-200,000	-0,020	-0,126
-148,833	-200,000	-0,005	0,168
-147,818	-53,017	-0,074	-0,024
-146,804	800,000	0,026	0,076
-145,789	-7,353	0,083	0,040
-144,775	800,000	-0,024	-0,054
-143,760	-200,000	-0,032	-0,161
-142,745	177,187	-0,025	-0,026
-141,731	-200,000	0,018	0,095
-140,716	-200,000	-0,009	0,089
-139,702	-66,869	0,123	0,034
-138,687	-86,100	-0,073	0,016
-137,672	425,936	0,022	-0,033
-136,658	-200,000	-0,023	-0,083
-135,643	800,000	0,032	-0,085
-134,629	349,120	-0,058	0,082
-133,614	58,533	0,107	0,074
-132,599	-123,617	-0,027	-0,003
-131,585	-79,357	-0,083	0,020
-130,570	-93,833	0,039	0,008
-129,556	289,757	-0,015	0,019
-128,541	-75,812	-0,200	-0,050
-127,526	26,009	0,044	0,026
-126,512	-86,256	0,161	0,035
-125,497	413,558	-0,047	-0,071
-124,483	56,737	-0,034	-0,023
-123,468	300,625	0,046	-0,061
-122,453	128,395	-0,079	-0,072
-121,439	110,463	-0,086	-0,074
-120,424	23,642	0,067	-0,039
-119,410	721,750	0,047	0,089
-118,395	-10,374	-0,121	-0,057
-117,380	125,897	-0,136	-0,122
-116,366	-66,015	-0,168	-0,047
-115,351	-93,156	0,131	-0,026
-114,337	170,539	-0,061	0,062
-113,322	-200,000	0,007	0,077
-112,307	66,158	0,046	0,033
-111,293	-117,778	0,123	-0,016
-110,278	6,612	0,036	-0,019
-109,264	-96,986	0,114	-0,021
-108,249	-56,827	0,093	0,029
-107,234	-22,874	0,042	0,018
-106,220	-200,000	0,012	-0,045
-105,205	423,805	0,085	0,130
-104,191	142,887	0,066	0,062
-103,176	800,000	0,005	-0,014
-102,162	540,373	-0,045	0,076
-101,147	-200,000	0,027	0,095
-100,132	57,365	0,060	0,041
-99,118	624,795	0,023	-0,041
-98,103	800,000	0,018	0,037
-97,089	355,523	0,027	0,038
-96,074	-200,000	0,003	0,141
-95,059	-200,000	0,012	0,077
-94,045	800,000	-0,047	0,099
-93,030	800,000	0,019	-0,040
-92,016	532,426	-0,021	-0,035
-91,001	32,258	0,070	0,043
-89,986	735,634	-0,019	-0,036
-88,972	-57,694	-0,083	0,026
-87,957	138,421	-0,048	-0,044
-86,943	-119,713	-0,071	-0,009
-85,928	-106,056	0,065	-0,010
-84,913	-200,000	0,013	-0,046
-83,899	415,299	-0,075	-0,113
-82,884	800,000	0,050	-0,151
-81,870	10,238	0,050	0,027
-80,855	252,152	0,057	0,069
-79,840	800,000	-0,055	0,168
-78,826	-200,000	-0,012	0,050
-77,811	-33,890	-0,046	0,018
-76,797	800,000	-0,080	0,188
-75,782	177,544	-0,070	0,073
-74,767	800,000	-0,020	0,046
-73,753	-35,072	-0,077	-0,029
-72,738	-200,000	0,016	-0,068
-71,724	652,946	0,044	0,081
-70,709	-23,303	-0,042	-0,018
-69,694	-200,000	0,001	-0,136
-68,680	-24,197	0,052	0,022
-67,665	221,889	0,104	-0,118
-66,651	800,000	-0,019	0,058
-65,636	-24,235	0,050	0,021
-64,622	800,000	-0,008	-0,017
-63,607	-200,000	-0,016	0,051
-62,592	-171,599	0,052	-0,001
-61,578	227,353	0,032	0,037
-60,563	-111,783	-0,038	-0,005
-59,549	25,453	0,045	-0,027
-58,534	97,909	-2,518	-2,048
-57,519	213,483	0,296	-0,331
-56,505	-200,000	-1,638	-5,555
-55,490	401,281	0,995	1,483
-54,476	800,000	5,443	11,837
-53,461	-200,000	21,824	342,776
-52,446	800,000	763,352	2298,622
-51,432	519,432	1659,764	2761,248
-50,417	67,806	1667,920	1204,761
-49,403	15,648	1587,223	880,053
-48,388	10,456	1539,997	827,241
-47,373	18,403	1533,395	864,142
-46,359	13,725	1522,356	834,267
-45,344	8,989	1518,199	808,006
-44,330	8,843	1516,309	806,228
-43,315	8,807	1514,692	805,156
-42,300	8,828	1512,887	804,272
-41,286	8,783	1511,344	803,189
-40,271	8,832	1509,688	802,525
-39,257	8,851	1508,181	801,787
-38,242	8,848	1506,702	800,957
-37,227	8,839	1505,520	800,248
-36,213	8,807	1504,198	799,356
-35,198	8,849	1502,701	798,737
-34,184	8,862	1501,611	798,191
-33,169	8,825	1500,279	797,265
-32,154	8,876	1498,758	796,683
-31,140	8,869	1497,185	795,782
-30,125	8,891	1495,872	795,158
-29,111	8,864	1494,771	794,408
-28,096	8,859	1493,816	793,843
-27,082	8,853	1492,737	793,209
-26,067	8,801	1491,484	792,254
-25,052	8,770	1490,420	791,504
-24,038	8,794	1489,140	790,911
-23,023	8,815	1488,195	790,479
-22,009	8,797	1487,434	789,955
-20,994	8,888	1486,188	789,715
-19,979	8,859	1484,889	788,848
-18,965	8,819	1484,239	788,274
-17,950	8,847	1483,208	787,832
-16,936	8,764	1482,155	786,836
-15,921	8,821	1480,800	786,363
-14,906	8,741	1479,763	785,386
-13,892	8,753	1478,679	784,839
-12,877	8,743	1477,869	784,332
-11,863	8,631	1476,992	783,282
-10,848	8,702	1476,018	783,083
-9,833	8,808	1475,096	783,083
-8,819	8,740	1474,470	782,386
-7,804	8,747	1472,995	781,607
-6,790	8,771	1472,473	781,420
-5,775	8,749	1471,474	780,749
-4,760	8,775	1470,334	780,240
-3,746	8,735	1469,272	779,451
-2,731	8,645	1468,142	778,378
-1,717	8,567	1467,178	777,457
-0,702	8,588	1466,198	777,007
0,313	8,431	1465,158	776,865
1,327	12,270	1462,536	794,117
2,342	21,687	1222,404	701,801
3,356	17,737	684,975	384,282
4,371	-10,848	462,973	215,413
5,386	-13,921	435,642	198,157
6,400	-15,012	426,919	192,599
7,415	-14,797	423,163	191,194
8,429	-16,302	420,480	187,827
9,444	-16,348	419,045	187,103
10,459	-16,510	417,792	186,299
11,473	-16,615	416,875	185,725
12,488	-16,733	415,827	185,076
13,502	-16,830	415,247	184,665
14,517	-17,136	414,288	183,794
15,531	-17,164	413,648	183,455
16,546	-17,149	412,735	183,054
17,561	-17,350	412,253	182,544
18,575	-17,316	411,544	182,261
19,590	-17,394	411,064	181,923
20,604	-17,339	410,656	181,804
21,619	-17,337	409,907	181,458
22,634	-17,319	409,507	181,289
23,648	-17,500	409,044	180,819
24,663	-17,382	408,634	180,785
25,677	-17,374	408,211	180,593
26,692	-17,350	407,675	180,372
27,707	-17,490	407,425	180,053
28,721	-17,490	406,989	179,843
29,736	-17,480	406,524	179,636
30,750	-17,401	405,894	179,450
31,765	-17,530	405,689	179,167
32,780	-17,453	405,310	179,089
33,794	-17,380	404,784	178,940
34,809	-17,349	404,395	178,794
35,823	-17,399	404,011	178,541
36,838	-17,423	403,538	178,283
37,853	-17,475	403,246	178,067
38,867	-17,475	402,818	177,862
39,882	-17,483	402,394	177,648
40,896	-17,368	402,127	177,670
41,911	-17,521	401,664	177,244
42,926	-17,394	401,324	177,249
43,940	-17,663	401,026	176,738
44,955	-17,543	400,592	176,694
45,969	-17,599	400,357	176,499
46,984	-17,618	399,976	176,288
47,999	-17,611	399,389	176,024
49,013	-17,667	399,186	175,844
50,028	-17,723	398,816	175,589
51,042	-17,744	398,486	175,400
52,057	-17,723	398,042	175,218
53,071	-17,759	397,596	174,957
54,086	-17,643	397,418	175,019
55,101	-17,638	397,117	174,877
56,115	-17,383	396,678	175,009
57,130	-17,227	396,666	175,196
58,144	-17,213	396,160	174,975
59,159	-17,105	395,817	174,952
60,174	-17,053	395,476	174,856
61,188	-17,165	395,125	174,535
62,203	-17,177	394,599	174,273
63,217	-17,302	394,451	174,025
64,232	-17,247	393,994	173,881
65,247	-17,143	393,748	173,894
66,261	-17,308	393,335	173,478
67,276	-17,311	392,870	173,254
68,290	-17,482	392,537	172,866
69,305	-17,531	392,256	172,662
70,320	-17,480	391,846	172,534
71,334	-17,298	391,529	172,618
72,349	-17,107	391,258	172,734
73,363	-17,111	391,055	172,625
74,378	-17,146	390,562	172,345
75,393	-17,048	390,247	172,320
76,407	-17,322	390,094	171,877
77,422	-17,255	389,528	171,700
78,436	-17,177	389,226	171,654
79,451	-17,162	388,986	171,552
80,466	-17,350	388,463	171,061
81,480	-17,404	388,058	170,796
82,495	-17,383	387,644	170,627
83,509	-17,299	387,627	170,713
84,524	-17,317	387,179	170,477
85,539	-17,326	386,868	170,313
86,553	-17,520	386,599	169,928
87,568	-17,404	386,210	169,893
88,582	-17,502	386,158	169,727
89,597	-17,381	385,695	169,666
90,611	-17,320	385,464	169,628
91,626	-17,228	385,179	169,606
92,641	-17,292	384,931	169,399
93,655	-17,361	384,682	169,185
94,670	-17,375	384,232	168,954
95,684	-17,335	383,873	168,833
96,699	-17,373	383,638	168,666
97,714	-17,329	383,271	168,546
98,728	-17,401	382,969	168,305
99,743	-17,469	382,692	168,081
100,757	-17,535	382,484	167,890
101,772	-17,380	382,116	167,913
102,787	-17,465	381,857	167,675
103,801	-17,310	381,512	167,706
104,816	-17,207	381,219	167,695
105,830	-17,170	380,977	167,621
106,845	-17,148	380,609	167,472
107,860	-17,139	380,408	167,380
108,874	-17,199	380,002	167,110
109,889	-17,220	379,490	166,843
110,903	-17,177	379,326	166,811
111,918	-17,110	379,039	166,754
112,933	-17,270	378,900	166,476
113,947	-17,089	378,625	166,569
114,962	-17,001	378,188	166,474
115,976	-17,157	377,950	166,156
116,991	-17,245	377,703	165,922
118,006	-17,101	377,366	165,941
119,020	-17,303	377,222	165,608
120,035	-17,228	377,081	165,626
121,049	-17,008	376,664	165,705
122,064	-17,081	376,402	165,484
123,079	-16,965	376,093	165,478
124,093	-17,228	375,794	165,001
125,108	-17,210	375,384	164,829
126,122	-17,341	374,917	164,445
127,137	-17,552	374,727	164,083
128,151	-17,487	374,458	164,032
129,166	-17,276	374,138	164,141
130,181	-17,433	373,975	163,859
131,195	-17,351	373,571	163,769
132,210	-17,387	373,328	163,604
133,224	-17,157	373,107	163,778
134,239	-17,180	372,806	163,604
135,254	-17,036	372,518	163,642
136,268	-17,232	372,154	163,223
137,283	-17,320	371,591	162,853
138,297	-17,414	371,356	162,618
139,312	-17,432	371,222	162,523
140,327	-17,273	371,004	162,611
141,341	-17,022	370,685	162,767
142,356	-16,840	370,575	162,929
143,370	-16,937	370,224	162,640
144,385	-16,827	370,073	162,695
145,400	-16,986	369,762	162,348
146,414	-16,923	369,253	162,188
147,429	-17,104	369,101	161,883
148,443	-16,947	368,791	161,927
149,458	-16,956	368,598	161,816
150,473	-16,901	368,388	161,777
151,487	-16,920	368,100	161,613
152,502	-16,949	367,634	161,358
153,516	-17,051	367,532	161,173
154,531	-16,908	367,087	161,140
155,546	-16,944	366,936	161,015
156,560	-16,933	366,562	160,850
157,575	-17,016	366,369	160,650
158,589	-16,904	366,069	160,640
159,604	-16,739	365,796	160,707
160,619	-16,877	365,511	160,400
161,633	-16,881	365,350	160,310
162,648	-16,900	365,036	160,135
163,662	-16,934	364,731	159,946
164,677	-16,847	364,569	159,965
165,692	-16,870	364,274	159,793
166,706	-16,700	364,164	159,938
167,721	-16,745	363,898	159,753
168,735	-16,927	363,579	159,377
169,750	-16,852	363,559	159,445
170,764	-16,801	363,206	159,339
171,779	-16,820	363,173	159,287
172,794	-16,802	362,812	159,135
173,808	-16,899	362,303	158,781
174,823	-17,381	361,984	158,046
175,837	-17,261	361,644	158,027
176,852	-16,829	361,600	158,515
177,867	-16,859	361,404	158,378
178,881	-16,856	361,177	158,268
179,896	-16,795	360,838	158,179
180,910	-16,688	360,549	158,167
181,925	-16,793	360,385	157,954
182,940	-16,806	360,145	157,820
183,954	-16,789	359,967	157,748
184,969	-16,648	359,661	157,768
185,983	-16,736	359,327	157,503
186,998	-16,793	359,272	157,397
188,013	-16,724	358,865	157,287
189,027	-16,813	358,787	157,132
190,042	-16,733	358,396	157,042
191,056	-16,673	358,243	157,033
192,071	-16,618	358,027	156,990
193,086	-16,541	357,768	156,955
194,100	-16,070	357,760	157,497
195,115	-15,114	357,614	158,556
196,129	-14,354	358,330	159,764
197,144	-10,511	360,099	165,133
198,159	-7,328	361,629	169,637
199,173	-4,432	363,036	173,763
200,188	-3,516	362,866	174,766
201,202	-3,452	362,742	174,768
202,217	-3,270	362,398	174,805
203,232	-2,923	362,226	175,121
204,246	-2,982	362,175	175,011
205,261	-2,815	362,041	175,130
206,275	-2,830	361,816	174,987
207,290	-2,852	361,575	174,829
208,304	-2,852	361,312	174,685
209,319	-2,785	360,995	174,598
210,334	-2,847	360,758	174,393
211,348	-2,762	360,494	174,350
212,363	-2,666	360,307	174,359
213,377	-2,551	360,218	174,438
214,392	-2,651	359,981	174,188
215,407	-2,508	359,666	174,190
216,421	-2,672	359,376	173,840
217,436	-2,635	359,109	173,739
218,450	-2,607	358,860	173,636
219,465	-2,752	358,753	173,397
220,480	-2,788	358,525	173,229
221,494	-2,585	358,221	173,307
222,509	-2,530	358,072	173,284
223,523	-2,640	357,905	173,058
224,538	-2,623	357,504	172,868
225,553	-2,539	357,158	172,785
226,567	-2,757	357,222	172,543
227,582	-2,444	356,847	172,715
228,596	-2,557	356,684	172,489
229,611	-2,528	356,413	172,376
230,626	-2,509	356,236	172,297
231,640	-2,637	355,954	171,995
232,655	-2,529	355,588	171,929
233,669	-2,533	355,453	171,844
234,684	-2,594	355,229	171,649
235,699	-2,525	354,987	171,597
236,713	-2,518	354,807	171,503
237,728	-2,467	354,507	171,403
238,742	-2,652	354,336	171,089
239,757	-2,593	353,938	170,950
240,772	-2,463	353,689	170,966
241,786	-2,623	353,544	170,694
242,801	-2,608	353,270	170,564
243,815	-2,508	353,201	170,633
244,830	-2,573	352,916	170,404
245,844	-2,600	352,680	170,243
246,859	-2,718	352,445	169,977
247,874	-2,540	352,173	170,037
248,888	-2,517	351,907	169,920
249,903	-2,490	351,706	169,839
250,917	-2,458	351,429	169,728
251,932	-2,595	351,268	169,476
252,947	-2,537	351,014	169,407
253,961	-2,595	351,051	169,342
254,976	-2,553	350,519	169,118
255,990	-2,517	350,234	169,008
257,005	-2,441	350,068	169,000
258,020	-2,452	350,032	168,954
259,034	-2,413	349,711	168,830
260,049	-2,476	349,412	168,598
261,063	-2,471	349,094	168,434
262,078	-2,525	348,977	168,301
263,093	-2,469	348,777	168,254
264,107	-2,382	348,455	168,183
265,122	-2,360	348,334	168,136
266,136	-2,533	348,170	167,843
267,151	-2,501	347,699	167,637
268,166	-2,433	347,592	167,649
269,180	-2,451	347,228	167,438
270,195	-2,474	347,199	167,383
271,209	-2,542	346,789	167,092
272,224	-2,438	346,783	167,193
273,239	-2,427	346,402	167,008
274,253	-2,518	346,350	166,864
275,268	-2,418	345,995	166,791
276,282	-2,432	345,780	166,658
277,297	-2,341	345,495	166,608
278,312	-2,361	345,176	166,417
279,326	-2,364	345,150	166,387
280,341	-2,224	344,912	166,414
281,355	-2,445	344,804	166,098
282,370	-2,303	344,528	166,111
283,384	-2,347	344,276	165,924
284,399	-2,385	344,111	165,787
285,414	-2,396	343,815	165,618
286,428	-2,278	343,555	165,610
287,443	-2,296	343,338	165,471
288,457	-2,321	343,183	165,353
289,472	-2,315	342,861	165,190
290,487	-2,206	342,764	165,251
291,501	-2,228	342,440	165,055
292,516	-2,190	342,225	164,980
293,530	-2,295	342,196	164,833
294,545	-2,234	341,936	164,761
295,560	-2,328	341,651	164,504
296,574	-2,164	341,380	164,542
297,589	-2,147	341,107	164,415
298,603	-2,221	340,920	164,228
299,618	-2,364	340,704	163,949
300,633	-2,051	340,565	164,218
301,647	-2,077	340,188	163,992
302,662	-2,180	340,143	163,840
303,676	-2,212	339,792	163,622
304,691	-2,261	339,643	163,481
305,706	-2,292	339,451	163,340
306,720	-2,198	339,211	163,314
307,735	-2,182	339,013	163,221
308,749	-2,081	338,779	163,206
309,764	-2,176	338,689	163,043
310,779	-2,096	338,346	162,952
311,793	-2,225	338,157	162,704
312,808	-2,200	337,901	162,594
313,822	-2,187	337,603	162,450
314,837	-2,183	337,492	162,386
315,852	-2,038	337,242	162,411
316,866	-2,113	337,083	162,237
317,881	-2,064	337,007	162,241
318,895	-2,051	336,461	161,978
319,910	-2,036	336,453	161,976
320,925	-1,839	336,118	162,016
321,939	-1,997	335,978	161,761
322,954	-2,061	335,830	161,606
323,968	-1,993	335,622	161,565
324,983	-1,942	335,424	161,511
325,997	-2,052	335,091	161,217
327,012	-2,099	335,062	161,137
328,027	-2,276	334,876	160,840
329,041	-2,107	334,479	160,819
330,056	-1,957	334,205	160,837
331,070	-2,109	334,164	160,637
332,085	-1,926	333,717	160,607
333,100	-1,987	333,670	160,504
334,114	-1,721	333,413	160,655
335,129	-1,962	333,251	160,300
336,143	-2,064	333,033	160,071
337,158	-2,042	332,888	160,010
338,173	-1,768	332,609	160,159
339,187	-1,780	332,258	159,963
340,202	-2,007	332,080	159,618
341,216	-1,818	331,923	159,733
342,231	-1,960	331,679	159,447
343,246	-1,926	331,463	159,366
344,260	-1,942	331,265	159,239
345,275	-1,797	331,023	159,265
346,289	-1,947	330,818	158,990
347,304	-1,997	330,632	158,832
348,319	-1,878	330,487	158,878
349,333	-1,893	330,413	158,812
350,348	-1,976	330,121	158,568
351,362	-1,853	329,678	158,473
352,377	-1,868	329,681	158,444
353,392	-1,835	329,413	158,337
354,406	-1,968	329,324	158,137
355,421	196,232	1325,762	1384,872
356,435	160,547	1446,981	1384,726
