DTS Sentinel unit serial number:	SN410029Multiplexer serial number:	ORYXHardware model number:	OX2-SRSoftware version number:	ORYX F/W v4,00 Oryx Data Collector v3.7.2.0data status	okinstallation	B6 Nyhavnadifferential loss correction	single-endedforward channel	channel 2reverse channel	N/Adate	2023/12/09time	03:30:08forward acquisition time	300,00reverse acquisition time	0,00gamma	499,1914k internal	0,3153k external	0,3153temperature offset calibration	1,0000default loss term (dB/km)	0,3820temperature slope calibration	1,0000multiplexer offset coefficient	1,0000multiplexer slope coefficient	1,0000fibre end	0,00T internal ref (°C)	16,37T ext. ref 1 (°C)	0,44T ext. ref 2 (°C)	0,43length (m)	temperature (°C)	Stokes	anti-Stokes-744,400	3,664	0,064	-0,034
-743,385	-180,622	-0,234	-0,003
-742,371	29,944	0,067	0,042
-741,356	90,778	-0,171	0,141
-740,342	-200,000	-0,019	0,134
-739,327	-108,057	-0,427	0,068
-738,312	31,768	-0,134	-0,085
-737,298	-50,521	-0,328	-0,113
-736,283	-8,859	-0,032	-0,016
-735,269	-7,484	-0,151	0,075
-734,254	800,000	0,078	0,172
-733,239	-26,518	-0,409	-0,176
-732,225	-143,898	0,136	0,009
-731,210	74,567	0,047	0,036
-730,196	-41,280	-0,055	0,021
-729,181	-200,000	0,021	-0,078
-728,167	74,054	0,009	-0,007
-727,152	238,699	0,065	-0,080
-726,137	-200,000	-0,008	-0,086
-725,123	-129,502	-0,132	-0,013
-724,108	151,983	-0,082	-0,082
-723,094	-73,634	-0,108	0,029
-722,079	-200,000	-0,026	-0,198
-721,064	339,295	-0,019	-0,027
-720,050	-119,338	-0,027	-0,003
-719,035	560,464	-0,057	0,101
-718,021	800,000	-0,057	-0,119
-717,006	382,696	-0,093	-0,142
-715,991	-200,000	0,004	-0,132
-714,977	163,395	-0,131	-0,136
-713,962	-198,435	-0,088	0,000
-712,948	161,739	-0,097	-0,101
-711,933	171,300	0,073	0,077
-710,918	417,568	-0,055	0,086
-709,904	-67,654	-0,062	-0,018
-708,889	-200,000	0,040	-0,155
-707,875	245,633	-0,078	0,097
-706,860	42,527	-0,109	-0,073
-705,845	358,668	-0,046	-0,068
-704,831	184,046	0,049	0,054
-703,816	31,633	-0,123	-0,078
-702,802	202,689	-0,064	-0,073
-701,787	-53,555	-0,089	0,030
-700,772	-167,961	0,042	-0,001
-699,758	-200,000	0,001	-0,038
-698,743	800,000	-0,021	-0,049
-697,729	-75,692	0,133	0,035
-696,714	308,864	0,085	0,117
-695,699	458,826	-0,085	-0,140
-694,685	7,925	-0,080	0,044
-693,670	18,707	-0,149	-0,088
-692,656	262,926	-0,021	-0,027
-691,641	800,000	0,019	0,060
-690,627	-200,000	-0,020	0,081
-689,612	-200,000	0,019	0,078
-688,597	-72,906	-0,111	0,030
-687,583	22,565	-0,138	-0,083
-686,568	800,000	0,019	-0,040
-685,554	498,467	-0,018	-0,031
-684,539	-162,889	0,065	-0,002
-683,524	67,525	0,042	0,031
-682,510	-150,927	-0,120	0,007
-681,495	-200,000	-0,001	-0,092
-680,481	-60,167	-0,039	0,012
-679,466	68,718	-0,064	-0,049
-678,451	60,652	0,048	0,035
-677,437	359,570	-0,096	-0,141
-676,422	-44,714	0,119	0,044
-675,408	-36,508	-0,128	0,051
-674,393	-200,000	-0,015	0,083
-673,378	-132,917	0,155	-0,014
-672,364	-200,000	0,009	-0,294
-671,349	-200,000	-0,008	0,028
-670,335	268,713	-0,069	-0,089
-669,320	105,464	-0,058	0,051
-668,305	432,468	-0,057	0,092
-667,291	-168,912	-0,126	-0,003
-666,276	800,000	0,037	-0,094
-665,262	-82,620	0,060	-0,014
-664,247	112,575	-0,093	0,083
-663,232	-70,311	0,049	-0,013
-662,218	-151,133	0,087	0,005
-661,203	800,000	-0,037	0,081
-660,189	-36,064	-0,076	-0,030
-659,174	-62,427	-0,111	0,034
-658,159	-158,845	-0,115	0,005
-657,145	105,897	-0,082	0,071
-656,130	-36,945	0,048	-0,019
-655,116	83,964	-0,111	0,089
-654,101	-200,000	-0,007	-0,047
-653,086	161,007	-0,113	-0,116
-652,072	-119,584	-0,116	0,015
-651,057	140,952	-0,057	0,055
-650,043	82,700	-0,055	-0,044
-649,028	-200,000	-0,016	-0,105
-648,014	169,686	-0,110	-0,116
-646,999	54,891	-0,077	-0,055
-645,984	522,628	0,040	0,069
-644,970	800,000	-0,072	-0,183
-643,955	-101,076	0,036	-0,006
-642,941	-200,000	0,056	0,190
-641,926	51,449	0,104	-0,073
-640,911	-61,215	-0,096	-0,030
-639,897	144,290	0,029	0,029
-638,882	575,148	-0,051	0,092
-637,868	-200,000	0,016	-0,060
-636,853	-200,000	0,005	0,032
-635,838	206,704	-0,015	-0,018
-634,824	800,000	0,063	-0,146
-633,809	-200,000	-0,049	0,185
-632,795	22,479	-0,088	0,053
-631,780	-200,000	0,008	0,074
-630,765	-200,000	-0,014	0,062
-629,751	-200,000	0,004	0,239
-628,736	-64,794	-0,127	0,037
-627,722	-200,000	-0,001	-0,083
-626,707	313,614	-0,042	0,058
-625,692	58,488	0,040	0,029
-624,678	-54,497	0,109	0,036
-623,663	107,128	-0,019	-0,016
-622,649	318,097	-0,104	-0,145
-621,634	442,874	-0,098	-0,158
-620,619	191,574	-0,035	-0,039
-619,605	800,000	-0,037	0,084
-618,590	-200,000	-0,021	0,081
-617,576	120,237	-0,021	-0,019
-616,561	-47,014	-0,105	-0,038
-615,546	245,230	-0,006	-0,007
-614,532	-200,000	0,002	0,060
-613,517	-30,060	-0,126	0,052
-612,503	-200,000	-0,016	-0,134
-611,488	-200,000	0,009	-0,115
-610,474	800,000	0,016	0,041
-609,459	-23,900	0,095	0,042
-608,444	-200,000	0,001	0,024
-607,430	-122,680	0,029	0,003
-606,415	800,000	0,047	0,143
-605,401	94,456	0,014	0,012
-604,386	146,325	-0,094	-0,093
-603,371	181,370	0,085	0,092
-602,357	-143,469	0,002	0,000
-601,342	-132,616	0,179	-0,017
-600,328	-200,000	-0,014	0,064
-599,313	292,651	0,047	-0,064
-598,298	-200,000	0,002	-0,040
-597,284	51,943	0,099	0,069
-596,269	-183,416	0,107	0,001
-595,255	84,802	-0,067	0,054
-594,240	268,246	-0,051	-0,066
-593,225	-84,238	-0,089	-0,021
-592,211	800,000	0,019	-0,043
-591,196	800,000	0,057	-0,119
-590,182	164,623	0,042	0,043
-589,167	800,000	-0,022	0,052
-588,152	2,603	-0,099	0,052
-587,138	-185,967	-0,112	0,001
-586,123	-200,000	0,001	0,062
-585,109	629,990	0,059	-0,109
-584,094	384,333	-0,072	-0,109
-583,079	-200,000	-0,014	-0,063
-582,065	-200,000	0,001	0,094
-581,050	800,000	-0,034	0,077
-580,036	21,392	0,115	0,068
-579,021	125,222	-0,046	0,043
-578,006	-200,000	0,021	-0,168
-576,992	49,139	-0,115	0,079
-575,977	800,000	0,030	-0,068
-574,963	800,000	-0,024	0,057
-573,948	-200,000	0,008	-0,030
-572,934	-167,243	-0,152	0,004
-571,919	-8,758	-0,098	0,048
-570,904	430,991	0,015	-0,024
-569,890	47,697	0,105	-0,071
-568,875	800,000	0,032	-0,080
-567,861	31,562	0,132	0,083
-566,846	305,192	0,033	-0,045
-565,831	-87,800	0,101	0,022
-564,817	-56,457	-0,036	-0,012
-563,802	44,474	0,051	0,035
-562,788	103,724	-0,127	0,109
-561,773	-200,000	0,256	0,001
-560,758	705,154	-0,037	0,071
-559,744	-169,142	-0,030	0,001
-558,729	-139,758	-0,055	-0,004
-557,715	694,109	-0,078	-0,151
-556,700	-115,885	0,101	0,014
-555,685	-172,557	-0,040	0,001
-554,671	557,030	-0,051	0,091
-553,656	-159,882	0,155	-0,006
-552,642	409,230	0,060	0,094
-551,627	-200,000	0,006	0,114
-550,612	-101,746	0,036	-0,006
-549,598	-20,797	-0,128	-0,057
-548,583	-23,637	-0,146	-0,064
-547,569	561,815	-0,052	-0,092
-546,554	-200,000	0,017	-0,124
-545,539	142,399	0,016	0,016
-544,525	53,794	0,039	0,028
-543,510	-200,000	0,001	0,026
-542,496	433,744	-0,060	0,096
-541,481	800,000	-0,027	0,063
-540,466	380,111	0,057	-0,086
-539,452	759,691	-0,015	0,029
-538,437	-49,507	0,166	0,058
-537,423	552,458	0,069	-0,123
-536,408	94,885	0,092	-0,076
-535,393	-118,875	-0,144	0,018
-534,379	766,911	-0,086	0,173
-533,364	252,001	-0,033	0,042
-532,350	-7,513	-0,095	-0,047
-531,335	187,223	0,080	0,087
-530,321	-129,418	-0,049	0,005
-529,306	6,982	-0,057	-0,031
-528,291	729,816	-0,078	-0,154
-527,277	-135,740	-0,083	0,007
-526,262	-93,271	-0,088	-0,018
-525,248	96,994	-0,032	-0,027
-524,233	152,553	0,022	0,022
-523,218	271,384	-0,087	0,112
-522,204	-78,046	-0,092	0,023
-521,189	288,468	0,021	0,028
-520,175	-200,000	-0,021	0,091
-519,160	800,000	-0,030	-0,087
-518,145	619,623	-0,029	-0,054
-517,131	-200,000	-0,008	0,074
-516,116	-200,000	0,028	0,115
-515,102	-200,000	0,019	0,065
-514,087	283,743	-0,037	-0,049
-513,072	800,000	-0,048	-0,098
-512,058	-200,000	0,005	-0,066
-511,043	800,000	-0,025	0,076
-510,029	-200,000	0,011	0,138
-509,014	-186,508	0,134	-0,001
-507,999	-159,343	-0,153	-0,006
-506,985	-200,000	0,003	0,020
-505,970	-200,000	-0,000	-0,046
-504,956	-200,000	0,005	0,073
-503,941	-15,997	-0,073	0,034
-502,926	252,153	0,073	0,091
-501,912	-126,180	0,147	0,016
-500,897	192,770	-0,036	0,040
-499,883	-66,926	-0,076	-0,022
-498,868	-44,506	-0,154	0,056
-497,853	-111,592	0,063	-0,009
-496,839	-200,000	0,038	-0,178
-495,824	-92,273	0,101	-0,021
-494,810	800,000	-0,067	0,201
-493,795	800,000	0,031	0,064
-492,781	800,000	0,022	-0,072
-491,766	29,608	-0,026	-0,016
-490,751	485,429	0,042	-0,070
-489,737	800,000	-0,034	-0,088
-488,722	800,000	0,025	0,051
-487,708	-66,442	0,083	-0,024
-486,693	-200,000	-0,002	-0,006
-485,678	800,000	0,082	-0,167
-484,664	-200,000	-0,005	-0,110
-483,649	-200,000	0,000	-0,158
-482,635	800,000	-0,036	0,082
-481,620	800,000	0,069	0,195
-480,605	-15,520	0,102	0,048
-479,591	-123,407	0,154	0,018
-478,576	-200,000	-0,008	-0,079
-477,562	-200,000	0,003	-0,044
-476,547	272,051	0,045	0,058
-475,532	-128,047	0,103	-0,011
-474,518	800,000	0,026	0,078
-473,503	57,471	-0,052	-0,037
-472,489	800,000	-0,026	0,053
-471,474	-200,000	-0,010	0,037
-470,459	516,773	0,022	-0,038
-469,445	-117,312	-0,108	-0,014
-468,430	-170,117	0,143	-0,004
-467,416	267,110	0,036	0,045
-466,401	-73,567	0,088	-0,023
-465,386	-157,859	0,191	0,008
-464,372	-60,711	0,019	-0,006
-463,357	-122,884	-0,026	-0,003
-462,343	132,285	-0,040	-0,038
-461,328	246,652	0,046	-0,056
-460,313	-200,000	0,004	0,055
-459,299	178,680	0,126	0,134
-458,284	5,020	-0,063	-0,034
-457,270	-95,965	-0,067	-0,013
-456,255	182,167	-0,066	-0,071
-455,241	233,081	-0,016	0,020
-454,226	47,072	-0,082	0,056
-453,211	-91,959	0,105	-0,022
-452,197	-62,247	0,069	0,021
-451,182	-42,574	0,117	0,043
-450,168	-4,795	0,110	0,055
-449,153	800,000	0,023	0,053
-448,138	-93,173	-0,148	0,030
-447,124	-78,966	0,073	-0,018
-446,109	196,421	0,116	-0,129
-445,095	-42,958	-0,021	-0,008
-444,080	212,629	-0,026	-0,030
-443,065	-200,000	-0,005	0,060
-442,051	-94,801	-0,063	-0,012
-441,036	182,157	-0,151	-0,163
-440,022	564,686	0,026	0,046
-439,007	-200,000	-0,013	-0,052
-437,992	328,281	0,043	-0,060
-436,978	800,000	-0,007	0,022
-435,963	175,254	-0,150	0,159
-434,949	-41,019	-0,051	-0,019
-433,934	-27,073	0,092	-0,039
-432,919	463,405	-0,021	0,034
-431,905	-161,890	0,085	-0,003
-430,890	759,105	-0,055	0,109
-429,876	10,357	0,031	0,017
-428,861	434,380	0,092	0,147
-427,846	-85,203	0,157	-0,035
-426,832	269,402	-0,103	-0,133
-425,817	91,724	-0,108	-0,088
-424,803	243,040	0,081	0,099
-423,788	-101,921	-0,070	-0,012
-422,773	250,481	-0,044	0,055
-421,759	-132,474	0,033	-0,003
-420,744	426,740	0,036	0,058
-419,730	-128,929	0,105	-0,011
-418,715	758,413	-0,082	-0,163
-417,701	800,000	-0,049	-0,128
-416,686	800,000	0,048	0,126
-415,671	181,031	0,075	0,080
-414,657	-200,000	0,007	-0,025
-413,642	800,000	-0,044	-0,127
-412,628	800,000	0,023	0,065
-411,613	-200,000	0,003	-0,130
-410,598	-121,294	-0,084	-0,010
-409,584	-200,000	0,077	-0,280
-408,569	3,890	0,014	-0,008
-407,555	-101,979	-0,013	0,002
-406,540	1,540	0,048	0,025
-405,525	-200,000	-0,012	-0,042
-404,511	99,873	0,074	-0,062
-403,496	124,067	-0,038	-0,035
-402,482	-200,000	0,008	-0,066
-401,467	5,463	-0,086	-0,046
-400,452	326,286	0,083	0,116
-399,438	-59,886	-0,163	-0,050
-398,423	-0,388	0,086	-0,044
-397,409	-200,000	-0,020	0,064
-396,394	12,666	-0,087	0,049
-395,379	150,562	-0,121	0,120
-394,365	138,880	0,172	0,165
-393,350	181,202	0,009	-0,010
-392,336	297,950	-0,010	0,013
-391,321	-200,000	-0,001	-0,020
-390,306	336,943	-0,041	0,059
-389,292	-200,000	-0,026	-0,095
-388,277	373,926	0,069	-0,103
-387,263	75,904	0,128	0,098
-386,248	-72,335	-0,083	-0,022
-385,233	-200,000	0,016	0,092
-384,219	-200,000	0,012	0,068
-383,204	-200,000	-0,005	0,128
-382,190	-126,869	-0,032	0,003
-381,175	-110,021	-0,028	-0,004
-380,160	-101,099	0,138	0,024
-379,146	4,511	0,049	0,026
-378,131	-57,862	-0,067	-0,021
-377,117	-159,238	-0,187	-0,008
-376,102	-46,492	-0,046	0,016
-375,088	-134,644	-0,137	-0,012
-374,073	800,000	0,017	0,045
-373,058	-200,000	0,021	0,159
-372,044	5,297	0,060	0,032
-371,029	136,630	-0,045	-0,043
-370,015	36,524	-0,094	0,060
-369,000	-42,019	-0,089	-0,033
-367,985	-108,236	0,053	0,008
-366,971	59,185	-0,106	0,076
-365,956	800,000	-0,028	0,070
-364,942	-200,000	-0,000	-0,036
-363,927	-12,059	-0,032	-0,015
-362,912	800,000	-0,019	-0,057
-361,898	-200,000	-0,003	-0,079
-360,883	94,792	0,077	-0,064
-359,869	284,681	-0,013	-0,017
-358,854	50,362	0,061	0,042
-357,839	-200,000	0,005	0,035
-356,825	37,475	0,055	-0,035
-355,810	-200,000	-0,048	0,165
-354,796	-35,202	-0,127	0,050
-353,781	-200,000	-0,004	-0,061
-352,766	-131,256	-0,056	-0,005
-351,752	555,263	0,053	-0,093
-350,737	181,681	0,022	-0,023
-349,723	-62,656	0,088	0,026
-348,708	173,945	-0,053	-0,056
-347,693	0,818	-0,079	-0,041
-346,679	-80,077	0,029	-0,007
-345,664	179,648	-0,059	-0,063
-344,650	579,015	0,062	-0,111
-343,635	-53,426	-0,060	-0,020
-342,620	-65,842	0,043	-0,012
-341,606	528,714	0,081	-0,140
-340,591	27,418	-0,056	0,034
-339,577	561,917	0,013	-0,023
-338,562	71,550	-0,092	0,070
-337,548	10,929	0,154	-0,085
-336,533	-67,058	0,067	0,019
-335,518	-200,000	0,027	0,107
-334,504	-200,000	-0,000	0,034
-333,489	-102,564	0,097	-0,017
-332,475	21,581	-0,110	-0,065
-331,460	0,353	-0,154	0,080
-330,445	-100,691	0,166	-0,029
-329,431	-51,229	0,044	0,015
-328,416	-200,000	-0,004	0,070
-327,402	-95,862	0,127	0,024
-326,387	93,497	0,018	0,015
-325,372	-144,629	0,162	-0,011
-324,358	-200,000	-0,005	0,039
-323,343	-200,000	-0,026	0,094
-322,329	191,215	-0,061	-0,066
-321,314	640,421	0,071	0,131
-320,299	-200,000	0,023	0,076
-319,285	800,000	0,067	-0,154
-318,270	-119,860	-0,075	-0,009
-317,256	649,884	0,002	-0,004
-316,241	-147,001	-0,089	-0,005
-315,226	-52,983	-0,095	0,031
-314,212	452,285	-0,064	0,104
-313,197	-61,991	0,143	-0,043
-312,183	-98,208	-0,062	0,011
-311,168	317,291	-0,056	0,077
-310,153	190,416	-0,079	-0,086
-309,139	-9,851	-0,116	-0,056
-308,124	226,663	0,102	0,120
-307,110	800,000	-0,046	-0,139
-306,095	-49,252	0,065	0,022
-305,080	85,404	-0,067	-0,054
-304,066	-150,579	0,053	-0,003
-303,051	800,000	-0,034	-0,075
-302,037	-200,000	0,011	-0,115
-301,022	65,367	-0,079	-0,058
-300,008	72,483	0,097	0,074
-298,993	-57,395	0,120	0,038
-297,978	-200,000	-0,008	0,080
-296,964	34,277	0,072	-0,046
-295,949	-200,000	0,015	-0,069
-294,935	800,000	-0,035	0,089
-293,920	474,282	0,005	-0,008
-292,905	200,664	0,094	0,105
-291,891	-200,000	0,020	0,155
-290,876	94,344	-0,069	0,056
-289,862	-99,536	0,055	-0,010
-288,847	145,965	-0,069	-0,067
-287,832	-19,929	-0,086	0,038
-286,818	800,000	-0,067	0,143
-285,803	128,247	0,048	0,044
-284,789	-11,107	0,089	-0,042
-283,774	-90,784	0,115	-0,024
-282,759	109,268	0,069	-0,060
-281,745	64,318	-0,016	0,012
-280,730	-1,546	-0,004	0,002
-279,716	-93,746	0,020	0,004
-278,701	306,987	0,040	-0,054
-277,686	-19,503	0,111	-0,050
-276,672	-65,019	-0,160	-0,047
-275,657	-178,603	0,183	-0,003
-274,643	-143,374	-0,125	0,009
-273,628	-184,962	-0,013	0,000
-272,613	145,519	-0,053	-0,052
-271,599	60,500	0,104	0,075
-270,584	-112,478	0,136	0,020
-269,570	-7,863	0,038	0,018
-268,555	461,011	-0,047	0,077
-267,540	-85,053	-0,113	0,026
-266,526	189,295	0,036	0,039
-265,511	700,912	-0,039	-0,075
-264,497	-128,485	-0,118	-0,012
-263,482	381,481	-0,059	-0,088
-262,467	-200,000	0,022	0,130
-261,453	339,357	0,011	-0,016
-260,438	414,600	0,063	-0,097
-259,424	533,795	-0,049	0,084
-258,409	-123,568	-0,058	-0,007
-257,395	-56,502	-0,138	-0,044
-256,380	303,529	0,066	-0,088
-255,365	800,000	0,082	0,173
-254,351	800,000	-0,035	-0,113
-253,336	-200,000	0,002	-0,037
-252,322	-200,000	0,022	-0,118
-251,307	-14,799	0,126	0,058
-250,292	410,832	-0,037	0,057
-249,278	436,030	-0,066	-0,104
-248,263	-38,427	-0,059	-0,022
-247,249	71,026	0,081	0,061
-246,234	208,748	-0,028	-0,032
-245,219	373,696	0,065	-0,097
-244,205	39,814	0,075	-0,049
-243,190	-200,000	-0,046	-0,159
-242,176	-200,000	-0,001	-0,073
-241,161	-200,000	0,030	0,178
-240,146	-113,913	0,103	-0,014
-239,132	-186,710	-0,094	-0,001
-238,117	60,205	-0,110	-0,078
-237,103	165,280	-0,022	0,022
-236,088	-6,559	0,068	0,033
-235,073	-200,000	0,008	-0,032
-234,059	-44,124	0,108	0,039
-233,044	-200,000	0,020	0,103
-232,030	604,147	0,080	-0,145
-231,015	-117,804	0,169	-0,022
-230,000	197,406	-0,037	0,041
-228,986	-200,000	0,012	0,093
-227,971	800,000	-0,038	-0,079
-226,957	-77,500	0,083	-0,021
-225,942	103,923	-0,088	0,075
-224,927	-113,013	0,075	-0,011
-223,913	-72,724	-0,042	-0,011
-222,898	570,761	-0,057	-0,101
-221,884	-53,960	0,116	-0,038
-220,869	271,079	0,064	0,081
-219,855	380,117	0,050	0,074
-218,840	173,244	-0,027	-0,029
-217,825	-200,000	0,001	-0,187
-216,811	70,424	-0,087	-0,065
-215,796	-42,148	0,120	0,044
-214,782	-200,000	-0,009	-0,042
-213,767	800,000	-0,020	-0,051
-212,752	-200,000	0,014	0,056
-211,738	-74,640	-0,062	-0,016
-210,723	-116,656	0,212	-0,028
-209,709	-0,654	0,084	-0,043
-208,694	-200,000	0,003	-0,077
-207,679	-200,000	-0,005	-0,039
-206,665	223,359	-0,071	0,083
-205,650	179,790	-0,080	0,085
-204,636	116,053	0,088	0,078
-203,621	-70,298	-0,066	-0,018
-202,606	391,747	-0,026	0,038
-201,592	-64,991	-0,068	0,020
-200,577	250,846	-0,037	-0,046
-199,563	800,000	-0,045	-0,104
-198,548	800,000	0,022	0,046
-197,533	-2,578	-0,037	-0,019
-196,519	-75,741	0,115	-0,029
-195,504	-103,125	-0,050	0,009
-194,490	-200,000	0,026	-0,099
-193,475	187,222	-0,023	0,025
-192,460	724,773	-0,006	-0,011
-191,446	-69,434	-0,053	-0,014
-190,431	451,569	0,110	0,176
-189,417	-200,000	0,011	0,077
-188,402	229,468	0,052	-0,061
-187,387	190,435	-0,101	0,109
-186,373	-29,489	-0,037	-0,015
-185,358	423,628	-0,079	0,124
-184,344	-32,343	0,118	0,047
-183,329	129,419	-0,095	-0,088
-182,315	88,047	0,081	-0,065
-181,300	195,607	-0,111	-0,122
-180,285	-60,898	-0,076	0,023
-179,271	-55,462	-0,051	0,017
-178,256	800,000	-0,014	0,037
-177,242	-101,844	0,047	-0,008
-176,227	9,378	-0,036	0,020
-175,212	-200,000	-0,010	0,158
-174,198	-22,313	0,099	0,043
-173,183	589,263	-0,053	-0,095
-172,169	-200,000	-0,002	-0,101
-171,154	-151,529	0,125	0,007
-170,139	-110,708	-0,172	0,025
-169,125	-200,000	0,022	-0,155
-168,110	161,486	-0,031	-0,032
-167,096	10,047	-0,067	0,036
-166,081	-200,000	0,021	-0,215
-165,066	800,000	0,010	-0,029
-164,052	539,702	0,017	0,029
-163,037	-66,051	0,027	-0,008
-162,023	-88,093	-0,118	0,025
-161,008	-9,626	0,104	0,050
-159,993	-26,065	-0,046	-0,020
-158,979	-200,000	-0,015	0,050
-157,964	339,270	-0,032	0,045
-156,950	221,664	-0,016	0,018
-155,935	48,812	0,063	-0,043
-154,920	800,000	-0,027	-0,057
-153,906	-29,865	-0,119	-0,049
-152,891	-34,636	-0,051	-0,020
-151,877	-185,370	0,067	-0,001
-150,862	-141,162	-0,039	-0,003
-149,847	89,068	-0,016	-0,013
-148,833	183,076	-0,130	-0,139
-147,818	-200,000	0,042	0,168
-146,804	24,603	-0,043	0,025
-145,789	195,848	-0,053	-0,058
-144,775	-125,941	0,041	-0,004
-143,760	-142,764	-0,111	0,008
-142,745	204,177	-0,020	-0,022
-141,731	-200,000	0,025	-0,144
-140,716	-128,935	0,045	-0,005
-139,702	665,073	-0,070	0,132
-138,687	325,058	0,112	0,155
-137,672	233,196	-0,109	0,130
-136,658	-200,000	-0,013	0,085
-135,643	558,747	-0,097	-0,170
-134,629	800,000	0,040	0,099
-133,614	-44,478	0,077	-0,028
-132,599	106,671	-0,043	-0,036
-131,585	514,168	0,055	0,092
-130,570	-200,000	-0,017	-0,102
-129,556	709,404	-0,008	-0,016
-128,541	31,406	-0,141	-0,087
-127,526	219,530	-0,030	0,034
-126,512	800,000	0,014	0,042
-125,497	521,215	0,038	0,065
-124,483	71,075	0,081	-0,061
-123,468	-200,000	0,004	0,024
-122,453	-200,000	0,013	-0,078
-121,439	12,407	-0,055	0,031
-120,424	-200,000	-0,004	0,218
-119,410	88,880	-0,079	0,063
-118,395	258,712	0,118	0,147
-117,380	-71,378	-0,142	0,038
-116,366	800,000	0,026	0,064
-115,351	537,946	-0,095	-0,163
-114,337	707,988	-0,032	-0,062
-113,322	-70,300	-0,133	0,036
-112,307	-21,278	0,161	0,071
-111,293	516,578	0,033	-0,056
-110,278	573,711	-0,037	0,065
-109,264	-62,197	-0,113	0,034
-108,249	307,327	0,025	0,033
-107,234	389,433	-0,006	-0,008
-106,220	325,082	-0,050	-0,069
-105,205	800,000	0,053	-0,132
-104,191	-6,254	0,058	0,029
-103,176	-200,000	-0,035	0,185
-102,162	-200,000	0,005	0,054
-101,147	172,951	0,048	0,049
-100,132	301,569	-0,025	0,034
-99,118	43,059	-0,101	-0,066
-98,103	600,801	-0,031	0,056
-97,089	-23,046	0,093	0,040
-96,074	-21,873	-0,025	0,011
-95,059	80,303	-0,029	0,022
-94,045	800,000	-0,050	0,146
-93,030	800,000	0,041	-0,113
-92,016	249,380	-0,042	-0,051
-91,001	-200,000	0,008	-0,035
-89,986	-135,923	-0,105	0,009
-88,972	-119,432	0,166	-0,020
-87,957	-91,236	0,112	-0,023
-86,943	-200,000	-0,001	-0,037
-85,928	-158,580	-0,037	-0,002
-84,913	-3,793	-0,099	0,049
-83,899	-139,736	-0,133	-0,010
-82,884	9,972	-0,031	-0,017
-81,870	800,000	0,036	0,086
-80,855	-67,430	-0,147	0,041
-79,840	-58,493	0,130	0,040
-78,826	281,154	-0,081	-0,105
-77,811	21,882	-0,067	-0,039
-76,797	-84,838	0,074	0,017
-75,782	603,958	-0,006	0,010
-74,767	642,453	0,028	-0,052
-73,753	262,376	0,063	0,078
-72,738	-172,027	-0,120	0,003
-71,724	800,000	0,040	0,097
-70,709	-10,305	-0,196	0,093
-69,694	-133,046	-0,064	0,006
-68,680	608,711	-0,023	0,042
-67,665	177,021	0,023	0,024
-66,651	-64,233	-0,079	0,023
-65,636	99,140	0,076	-0,063
-64,622	554,378	-0,067	-0,116
-63,607	-200,000	-0,006	-0,058
-62,592	414,455	-0,073	-0,113
-61,578	102,360	0,085	0,071
-60,563	-32,469	0,146	-0,058
-59,549	-39,562	-0,167	-0,063
-58,534	11,761	-1,806	-0,994
-57,519	-200,000	-0,165	-0,922
-56,505	-200,000	-1,322	-4,856
-55,490	-73,333	0,725	0,189
-54,476	800,000	5,366	12,268
-53,461	-200,000	17,227	273,801
-52,446	800,000	718,495	2183,666
-51,432	528,418	1632,129	2777,985
-50,417	112,085	1626,509	1412,265
-49,403	75,715	1286,872	976,131
-48,388	33,094	1032,298	641,615
-47,373	20,191	994,512	575,338
-46,359	18,948	982,549	564,295
-45,344	16,681	978,559	554,519
-44,330	16,784	977,320	554,132
-43,315	16,397	975,562	551,842
-42,300	16,436	974,425	551,307
-41,286	16,404	973,362	550,576
-40,271	16,391	972,507	550,029
-39,257	16,448	971,532	549,643
-38,242	16,374	970,749	548,934
-37,227	16,468	969,862	548,720
-36,213	16,359	969,124	547,923
-35,198	16,355	968,312	547,431
-34,184	16,371	967,564	547,039
-33,169	16,399	966,451	546,479
-32,154	16,405	965,651	546,024
-31,140	16,455	964,459	545,490
-30,125	16,437	964,004	545,152
-29,111	16,445	962,977	544,575
-28,096	16,429	962,433	544,196
-27,082	16,373	961,832	543,653
-26,067	16,389	961,168	543,308
-25,052	16,408	960,149	542,770
-24,038	16,362	959,542	542,258
-23,023	16,372	958,927	541,920
-22,009	16,394	958,259	541,592
-20,994	16,434	957,635	541,348
-19,979	16,457	956,974	541,028
-18,965	16,373	956,373	540,394
-17,950	16,419	955,722	540,153
-16,936	16,373	955,080	539,623
-15,921	16,265	954,440	538,891
-14,906	16,312	953,569	538,529
-13,892	16,237	953,208	538,064
-12,877	16,272	952,290	537,637
-11,863	16,324	951,659	537,424
-10,848	16,269	951,154	536,942
-9,833	16,384	950,755	537,065
-8,819	16,387	949,910	536,573
-7,804	16,304	949,347	535,969
-6,790	16,246	948,692	535,394
-5,775	16,291	948,206	535,242
-4,760	16,272	947,719	534,885
-3,746	16,295	946,823	534,431
-2,731	16,119	946,442	533,637
-1,717	16,053	945,653	532,960
-0,702	16,155	944,930	532,855
0,313	15,895	944,380	532,521
1,327	19,403	942,246	542,390
2,342	28,709	796,908	483,461
3,356	25,803	448,940	267,992
4,371	-3,905	296,875	147,385
5,386	-7,818	278,374	134,461
6,400	-8,965	272,729	130,650
7,415	-9,440	270,396	129,081
8,429	-9,410	268,947	128,405
9,444	-9,337	268,053	128,034
10,459	-9,605	267,410	127,470
11,473	-9,494	266,700	127,222
12,488	-9,502	266,107	126,921
13,502	-9,934	265,578	126,264
14,517	-9,737	265,008	126,160
15,531	-9,992	264,750	125,796
16,546	-9,925	264,310	125,636
17,561	-9,837	263,911	125,514
18,575	-9,912	263,607	125,290
19,590	-10,043	263,334	125,032
20,604	-9,810	262,983	125,064
21,619	-9,961	262,691	124,778
22,634	-9,977	262,363	124,596
23,648	-10,227	262,046	124,211
24,663	-10,112	261,788	124,180
25,677	-10,008	261,444	124,099
26,692	-10,141	261,250	123,877
27,707	-10,156	261,001	123,735
28,721	-10,162	260,813	123,629
29,736	-10,093	260,540	123,550
30,750	-10,134	260,096	123,292
31,765	-10,125	259,945	123,218
32,780	-10,237	259,741	123,010
33,794	-10,186	259,451	122,907
34,809	-9,962	259,106	122,931
35,823	-10,183	259,012	122,680
36,838	-10,350	258,619	122,335
37,853	-10,261	258,420	122,309
38,867	-10,151	258,273	122,325
39,882	-10,393	258,020	121,982
40,896	-10,349	257,830	121,919
41,911	-10,369	257,564	121,765
42,926	-10,257	257,235	121,697
43,940	-10,296	257,156	121,615
44,955	-10,531	256,805	121,231
45,969	-10,445	256,515	121,160
46,984	-10,457	256,187	120,984
47,999	-10,896	256,028	120,514
49,013	-11,169	255,805	120,159
50,028	-10,951	255,581	120,234
51,042	-11,335	255,356	119,782
52,057	-11,286	255,126	119,707
53,071	-11,156	254,794	119,653
54,086	-11,122	254,676	119,616
55,101	-11,191	254,706	119,560
56,115	-10,736	254,438	119,818
57,130	-10,134	254,338	120,283
58,144	-9,746	254,078	120,486
59,159	-9,862	253,939	120,309
60,174	-9,824	253,786	120,259
61,188	-9,986	253,598	120,019
62,203	-10,099	253,447	119,838
63,217	-10,215	253,081	119,554
64,232	-10,052	252,824	119,563
65,247	-9,872	252,651	119,626
66,261	-9,893	252,563	119,555
67,276	-10,512	252,159	118,821
68,290	-10,579	251,825	118,596
69,305	-10,730	251,593	118,346
70,320	-10,608	251,413	118,356
71,334	-10,073	251,250	118,727
72,349	-9,798	251,108	118,884
73,363	-9,788	250,855	118,762
74,378	-10,086	250,759	118,452
75,393	-10,103	250,546	118,326
76,407	-10,090	250,378	118,247
77,422	-10,175	250,040	118,004
78,436	-9,984	249,933	118,107
79,451	-10,116	249,789	117,915
80,466	-10,377	249,595	117,592
81,480	-10,331	249,042	117,360
82,495	-10,444	248,924	117,198
83,509	-10,319	248,908	117,286
84,524	-10,571	248,566	116,901
85,539	-10,727	248,318	116,642
86,553	-10,629	248,026	116,577
87,568	-10,681	248,109	116,562
88,582	-10,457	247,769	116,581
89,597	-10,607	247,612	116,370
90,611	-10,275	247,577	116,623
91,626	-10,235	247,386	116,556
92,641	-10,189	247,275	116,532
93,655	-10,124	246,858	116,379
94,670	-10,136	246,582	116,229
95,684	-10,398	246,748	116,077
96,699	-10,129	246,329	116,095
97,714	-10,338	246,183	115,840
98,728	-10,722	245,845	115,350
99,743	-10,755	245,761	115,273
100,757	-10,655	245,484	115,216
101,772	-10,574	245,501	115,282
102,787	-10,550	245,341	115,216
103,801	-10,457	245,127	115,183
104,816	-10,288	244,792	115,156
105,830	-10,264	244,777	115,158
106,845	-10,319	244,681	115,057
107,860	-10,078	244,327	115,081
108,874	-10,303	244,131	114,792
109,889	-10,450	244,120	114,654
110,903	-10,290	243,675	114,567
111,918	-10,476	243,723	114,425
112,933	-10,421	243,398	114,309
113,947	-10,221	243,283	114,409
114,962	-10,146	242,974	114,315
115,976	-10,182	242,915	114,248
116,991	-10,347	242,740	114,020
118,006	-10,118	242,622	114,143
119,020	-10,486	242,520	113,782
120,035	-10,035	242,297	114,037
121,049	-9,931	242,169	114,053
122,064	-10,057	241,872	113,799
123,079	-10,273	241,765	113,562
124,093	-10,259	241,483	113,431
125,108	-10,436	241,418	113,245
126,122	-10,769	241,037	112,784
127,137	-10,581	240,722	112,780
128,151	-10,648	240,703	112,707
129,166	-10,506	240,541	112,737
130,181	-10,783	240,282	112,379
131,195	-10,690	240,169	112,391
132,210	-10,716	240,106	112,331
133,224	-10,289	239,869	112,558
134,239	-10,208	239,624	112,499
135,254	-10,150	239,574	112,512
136,268	-10,348	239,396	112,258
137,283	-10,580	239,187	111,962
138,297	-10,754	238,888	111,671
139,312	-10,727	238,600	111,548
140,327	-10,267	238,573	111,897
141,341	-9,898	238,717	112,253
142,356	-10,020	238,484	112,035
143,370	-9,915	238,332	112,039
144,385	-9,693	238,205	112,148
145,400	-9,591	237,945	112,098
146,414	-9,604	237,820	112,018
147,429	-9,861	237,604	111,700
148,443	-9,869	237,357	111,567
149,458	-9,763	237,166	111,553
150,473	-9,901	237,090	111,396
151,487	-9,910	236,922	111,300
152,502	-10,006	236,762	111,139
153,516	-9,639	236,547	111,322
154,531	-9,828	236,296	111,042
155,546	-9,904	236,123	110,890
156,560	-9,981	236,030	110,775
157,575	-10,019	235,778	110,616
158,589	-9,976	235,672	110,592
159,604	-9,623	235,555	110,808
160,619	-9,792	235,483	110,630
161,633	-9,715	235,275	110,583
162,648	-9,856	235,229	110,439
163,662	-9,751	234,847	110,333
164,677	-10,022	234,755	110,066
165,692	-9,918	234,691	110,108
166,706	-9,847	234,543	110,085
167,721	-9,585	234,347	110,191
168,735	-9,731	234,222	110,007
169,750	-9,692	233,893	109,873
170,764	-9,680	233,848	109,852
171,779	-9,884	233,787	109,652
172,794	-9,694	233,440	109,629
173,808	-9,843	233,319	109,445
174,823	-10,349	233,000	108,888
175,837	-10,530	232,741	108,615
176,852	-10,126	232,854	108,976
177,867	-9,679	232,640	109,217
178,881	-9,703	232,542	109,142
179,896	-9,601	232,408	109,150
180,910	-9,733	232,342	109,005
181,925	-9,539	232,124	109,045
182,940	-9,629	231,936	108,876
183,954	-9,469	231,817	108,936
184,969	-9,531	231,740	108,842
185,983	-9,601	231,639	108,731
186,998	-9,255	231,385	108,871
188,013	-9,401	231,243	108,681
189,027	-9,374	230,945	108,552
190,042	-9,807	230,891	108,180
191,056	-9,358	230,612	108,389
192,071	-9,526	230,517	108,204
193,086	-9,299	230,450	108,340
194,100	-9,478	230,465	108,197
195,115	-9,251	230,127	108,205
196,129	-8,721	230,095	108,592
197,144	-4,647	231,755	112,543
198,159	0,271	233,051	117,011
199,173	3,114	233,935	119,671
200,188	3,832	233,720	120,112
201,202	3,610	233,743	119,940
202,217	3,755	233,538	119,937
203,232	4,086	233,327	120,076
204,246	4,055	233,316	120,036
205,261	4,164	233,253	120,078
206,275	4,417	232,999	120,133
207,290	4,271	232,919	119,968
208,304	4,060	232,751	119,706
209,319	4,233	232,543	119,723
210,334	4,115	232,386	119,540
211,348	3,925	232,160	119,265
212,363	3,598	231,891	118,863
213,377	3,436	231,691	118,625
214,392	3,410	231,549	118,522
215,407	3,574	231,382	118,552
216,421	3,438	231,221	118,354
217,436	3,191	231,110	118,096
218,450	3,309	230,770	118,002
219,465	3,251	230,663	117,893
220,480	3,121	230,595	117,747
221,494	3,283	230,371	117,747
222,509	3,391	230,341	117,804
223,523	3,307	230,167	117,640
224,538	3,316	229,991	117,547
225,553	3,314	229,996	117,537
226,567	3,411	229,777	117,489
227,582	3,794	229,740	117,754
228,596	3,979	229,660	117,844
229,611	3,740	229,362	117,498
230,626	3,187	229,151	116,956
231,640	3,560	228,761	117,031
232,655	3,676	228,953	117,208
233,669	4,008	228,881	117,413
234,684	4,185	228,698	117,445
235,699	3,901	228,550	117,141
236,713	3,417	228,364	116,667
237,728	3,333	228,070	116,443
238,742	3,317	227,941	116,355
239,757	3,345	227,847	116,317
240,772	3,456	227,471	116,199
241,786	3,333	227,585	116,153
242,801	3,588	227,435	116,260
243,815	3,800	227,325	116,353
244,830	3,785	227,188	116,262
245,844	3,471	226,971	115,903
246,859	3,444	226,778	115,774
247,874	3,618	226,718	115,865
248,888	3,831	226,675	115,993
249,903	3,653	226,478	115,747
250,917	3,332	226,312	115,410
251,932	3,514	226,124	115,442
252,947	3,407	225,788	115,179
253,961	3,274	225,715	115,032
254,976	3,552	225,454	115,097
255,990	3,525	225,588	115,135
257,005	3,725	225,432	115,195
258,020	3,741	225,248	115,103
259,034	3,887	225,137	115,145
260,049	3,920	225,020	115,100
261,063	3,615	224,822	114,760
262,078	3,763	224,688	114,792
263,093	3,834	224,648	114,814
264,107	3,846	224,309	114,640
265,122	3,519	224,425	114,445
266,136	4,090	224,139	114,714
267,151	3,933	223,848	114,438
268,166	3,540	223,683	114,052
269,180	2,980	223,496	113,530
270,195	3,160	223,377	113,593
271,209	3,328	223,205	113,620
272,224	3,428	223,198	113,680
273,239	3,599	223,045	113,719
274,253	3,247	222,932	113,390
275,268	3,192	222,684	113,214
276,282	2,956	222,440	112,905
277,297	2,949	222,495	112,918
278,312	3,482	222,174	113,139
279,326	3,280	222,185	112,985
280,341	3,615	221,990	113,122
281,355	3,558	221,885	113,017
282,370	3,376	221,752	112,805
283,384	3,090	221,527	112,470
284,399	3,033	221,316	112,311
285,414	3,186	221,123	112,315
286,428	3,418	221,199	112,514
287,443	3,646	221,014	112,577
288,457	3,760	220,871	112,579
289,472	3,292	220,716	112,146
290,487	3,020	220,564	111,860
291,501	2,959	220,291	111,667
292,516	3,000	220,333	111,708
293,530	3,091	220,070	111,632
294,545	3,167	219,942	111,612
295,560	3,185	219,898	111,593
296,574	3,286	219,799	111,607
297,589	3,424	219,643	111,617
298,603	3,691	219,413	111,685
299,618	3,326	219,420	111,413
300,633	3,412	219,326	111,418
301,647	3,734	219,048	111,501
302,662	3,740	218,918	111,429
303,676	3,626	218,820	111,286
304,691	3,846	218,583	111,315
305,706	3,581	218,632	111,139
306,720	3,519	218,406	110,969
307,735	3,357	218,169	110,721
308,749	3,302	218,091	110,632
309,764	3,652	217,999	110,828
310,779	3,879	217,863	110,913
311,793	3,586	217,725	110,622
312,808	3,721	217,474	110,581
313,822	3,449	217,388	110,332
314,837	3,223	217,236	110,083
315,852	3,153	217,082	109,944
316,866	3,423	217,027	110,101
317,881	3,637	216,906	110,183
318,895	3,397	216,729	109,911
319,910	3,164	216,469	109,602
320,925	3,078	216,309	109,450
321,939	3,204	216,306	109,529
322,954	3,262	216,216	109,516
323,968	3,500	216,118	109,626
324,983	3,509	216,039	109,583
325,997	3,812	215,772	109,654
327,012	3,657	215,676	109,485
328,027	3,546	215,463	109,288
329,041	3,982	215,438	109,576
330,056	3,852	215,339	109,423
331,070	3,585	215,029	109,067
332,085	3,227	214,812	108,692
333,100	3,140	214,786	108,607
334,114	3,418	214,542	108,671
335,129	3,742	214,385	108,812
336,143	3,410	214,420	108,585
337,158	3,573	214,190	108,574
338,173	3,526	214,004	108,436
339,187	3,247	213,890	108,172
340,202	3,216	213,704	108,046
341,216	3,095	213,607	107,902
342,231	3,229	213,410	107,888
343,246	3,206	213,203	107,757
344,260	3,302	213,177	107,802
345,275	3,329	213,258	107,853
346,289	3,622	213,098	107,968
347,304	3,621	212,968	107,892
348,319	3,489	212,753	107,680
349,333	3,313	212,670	107,505
350,348	3,571	212,541	107,612
351,362	3,710	212,505	107,681
352,377	3,572	212,306	107,474
353,392	3,419	212,041	107,224
354,406	3,599	211,903	107,270
355,421	196,045	1340,814	1422,255
356,435	156,634	1478,352	1422,258
