DTS Sentinel unit serial number:	SN410029Multiplexer serial number:	ORYXHardware model number:	OX2-SRSoftware version number:	ORYX F/W v4,00 Oryx Data Collector v3.7.2.0data status	okinstallation	B6 Nyhavnadifferential loss correction	single-endedforward channel	channel 2reverse channel	N/Adate	2023/12/09time	21:55:08forward acquisition time	300,00reverse acquisition time	0,00gamma	499,1914k internal	0,3127k external	0,3127temperature offset calibration	1,0000default loss term (dB/km)	0,3820temperature slope calibration	1,0000multiplexer offset coefficient	1,0000multiplexer slope coefficient	1,0000fibre end	0,00T internal ref (°C)	21,62T ext. ref 1 (°C)	5,44T ext. ref 2 (°C)	5,43length (m)	temperature (°C)	Stokes	anti-Stokes-744,400	-200,000	-0,001	0,050
-743,385	75,527	-0,204	0,160
-742,371	24,781	0,046	-0,028
-741,356	-120,554	-0,178	-0,022
-740,342	22,655	0,033	0,020
-739,327	-35,641	-0,159	0,064
-738,312	384,464	-0,022	0,034
-737,298	-173,876	-0,276	0,006
-736,283	-70,306	-0,031	-0,009
-735,269	34,172	-0,293	0,190
-734,254	-200,000	-0,005	0,024
-733,239	-35,855	-0,454	-0,182
-732,225	25,964	0,209	-0,129
-731,210	325,562	0,079	0,113
-730,196	446,473	-0,081	-0,133
-729,181	-183,637	-0,104	0,001
-728,167	-52,957	0,046	0,016
-727,152	-16,690	-0,092	-0,043
-726,137	404,366	-0,121	0,190
-725,123	57,832	-0,032	-0,023
-724,108	800,000	-0,057	-0,139
-723,094	-193,103	-0,085	-0,001
-722,079	-128,991	-0,066	0,007
-721,064	0,676	0,035	-0,019
-720,050	-85,457	-0,097	-0,022
-719,035	286,495	0,107	0,144
-718,021	5,217	-0,059	0,032
-717,006	112,218	-0,140	-0,126
-715,991	99,647	-0,145	-0,125
-714,977	-86,619	-0,124	-0,028
-713,962	-200,000	0,019	-0,095
-712,948	800,000	0,042	-0,109
-711,933	-200,000	0,010	-0,108
-710,918	-130,625	-0,084	0,008
-709,904	17,551	0,039	0,023
-708,889	-200,000	-0,035	-0,151
-707,875	800,000	0,041	0,124
-706,860	16,607	0,062	0,036
-705,845	800,000	-0,007	0,023
-704,831	-200,000	-0,004	0,036
-703,816	-89,497	0,083	-0,018
-702,802	-21,042	-0,062	0,028
-701,787	366,637	-0,102	-0,154
-700,772	80,568	0,014	0,011
-699,758	337,332	-0,060	0,087
-698,743	-200,000	0,013	0,045
-697,729	-200,000	-0,020	0,081
-696,714	-200,000	-0,001	-0,016
-695,699	-200,000	0,044	-0,162
-694,685	800,000	-0,006	-0,016
-693,670	-87,321	-0,100	0,022
-692,656	800,000	0,008	-0,022
-691,641	-200,000	-0,010	-0,114
-690,627	12,501	-0,131	0,075
-689,612	-44,334	-0,096	0,035
-688,597	391,826	0,071	-0,110
-687,583	497,808	-0,053	-0,091
-686,568	67,953	-0,143	0,109
-685,554	43,803	0,010	-0,007
-684,539	-44,359	0,037	-0,014
-683,524	688,297	-0,021	0,041
-682,510	229,834	-0,058	0,070
-681,495	-200,000	-0,015	-0,095
-680,481	44,189	-0,092	-0,063
-679,466	-126,351	-0,108	0,012
-678,451	-200,000	0,006	-0,081
-677,437	-112,911	-0,100	-0,015
-676,422	-200,000	0,013	0,051
-675,408	-200,000	-0,002	0,100
-674,393	-43,558	0,034	-0,013
-673,378	371,584	-0,112	-0,169
-672,364	-200,000	0,008	-0,141
-671,349	-200,000	-0,004	0,113
-670,335	54,352	-0,031	0,022
-669,320	614,971	-0,041	-0,076
-668,305	97,076	-0,106	0,090
-667,291	800,000	0,022	-0,065
-666,276	-144,580	-0,147	0,010
-665,262	337,282	-0,053	-0,077
-664,247	-200,000	-0,014	-0,086
-663,232	800,000	0,063	-0,131
-662,218	800,000	-0,028	-0,065
-661,203	-84,179	0,110	0,026
-660,189	800,000	0,035	0,114
-659,174	-200,000	0,021	-0,136
-658,159	800,000	0,074	-0,213
-657,145	-46,595	0,033	0,012
-656,130	800,000	0,025	-0,071
-655,116	-30,038	-0,080	0,033
-654,101	-62,238	-0,089	-0,027
-653,086	404,286	0,083	0,129
-652,072	79,703	-0,104	0,083
-651,057	800,000	0,012	-0,025
-650,043	-98,770	0,071	0,013
-649,028	-107,680	-0,025	-0,004
-648,014	-200,000	0,004	0,041
-646,999	-31,332	0,044	0,018
-645,984	-200,000	0,006	-0,035
-644,970	347,952	-0,053	-0,077
-643,955	64,440	-0,039	-0,029
-642,941	98,989	-0,113	-0,096
-641,926	-18,937	-0,033	0,015
-640,911	3,869	-0,076	-0,041
-639,897	800,000	0,017	0,050
-638,882	676,708	0,038	0,073
-637,868	30,534	0,083	-0,053
-636,853	223,018	0,081	0,096
-635,838	-200,000	0,025	-0,254
-634,824	14,715	-0,081	0,047
-633,809	-22,063	-0,130	-0,058
-632,795	329,989	0,027	0,038
-631,780	-200,000	0,002	0,151
-630,765	-16,209	-0,049	0,023
-629,751	800,000	0,021	0,057
-628,736	-200,000	0,006	0,112
-627,722	-20,219	0,037	0,017
-626,707	-114,401	0,076	-0,011
-625,692	287,160	0,078	-0,105
-624,678	-200,000	0,005	-0,073
-623,663	-64,349	0,126	0,038
-622,649	243,190	-0,034	-0,043
-621,634	-22,328	-0,049	0,022
-620,619	-125,499	-0,054	-0,006
-619,605	-0,814	0,151	-0,079
-618,590	-45,762	-0,026	-0,009
-617,576	60,679	0,045	0,033
-616,561	-102,528	0,057	0,010
-615,546	-147,852	-0,120	0,007
-614,532	-74,451	-0,052	-0,014
-613,517	7,980	0,036	-0,020
-612,503	-45,664	-0,043	-0,016
-611,488	49,949	0,065	0,045
-610,474	255,680	0,057	-0,073
-609,459	266,416	-0,023	-0,029
-608,444	-53,079	-0,050	-0,017
-607,430	-200,000	-0,019	0,079
-606,415	-200,000	0,025	-0,104
-605,401	800,000	0,032	0,088
-604,386	-200,000	0,015	0,149
-603,371	471,904	-0,008	0,014
-602,357	-51,433	-0,058	0,020
-601,342	-185,424	0,020	-0,000
-600,328	800,000	-0,023	-0,060
-599,313	68,865	0,063	-0,048
-598,298	-49,430	-0,139	0,049
-597,284	-61,614	0,161	0,050
-596,269	110,318	-0,005	0,004
-595,255	-200,000	0,002	-0,043
-594,240	800,000	0,012	-0,026
-593,225	800,000	-0,059	-0,172
-592,211	-132,591	0,085	0,008
-591,196	8,929	-0,060	0,033
-590,182	139,688	0,061	0,059
-589,167	127,067	-0,049	-0,046
-588,152	190,491	-0,093	0,103
-587,138	-200,000	0,049	-0,170
-586,123	800,000	0,028	0,062
-585,109	-200,000	-0,031	0,102
-584,094	638,736	-0,036	0,067
-583,079	-94,699	0,090	0,018
-582,065	-73,031	0,078	0,021
-581,050	-26,933	-0,163	0,070
-580,036	638,255	0,024	0,045
-579,021	800,000	-0,040	0,102
-578,006	-200,000	-0,012	-0,215
-576,992	-97,588	-0,115	0,022
-575,977	64,874	0,043	-0,032
-574,963	55,503	-0,070	-0,050
-573,948	169,604	0,022	-0,024
-572,934	111,080	0,097	-0,086
-571,919	-94,305	-0,084	0,017
-570,904	-90,400	0,038	-0,008
-569,890	-39,112	-0,028	0,011
-568,875	497,701	0,082	0,140
-567,861	142,853	-0,052	-0,051
-566,846	-13,366	0,147	0,070
-565,831	48,106	0,065	-0,045
-564,817	-38,548	0,151	-0,059
-563,802	-23,495	-0,094	-0,042
-562,788	-200,000	-0,020	0,065
-561,773	-90,065	0,101	-0,022
-560,758	313,498	-0,030	-0,041
-559,744	121,533	0,040	0,037
-558,729	800,000	0,047	0,096
-557,715	90,941	0,067	0,055
-556,700	331,553	-0,061	-0,087
-555,685	-119,636	-0,055	-0,007
-554,671	76,941	0,122	-0,096
-553,656	-9,283	-0,118	-0,058
-552,642	-150,974	0,088	0,005
-551,627	-39,714	-0,068	0,026
-550,612	-200,000	-0,041	0,162
-549,598	111,436	-0,013	0,011
-548,583	-6,577	0,076	-0,038
-547,569	-59,108	-0,021	0,007
-546,554	268,269	0,046	0,059
-545,539	-123,447	0,036	0,004
-544,525	409,747	-0,078	-0,123
-543,510	337,552	-0,040	0,058
-542,496	151,090	-0,024	-0,024
-541,481	-200,000	-0,010	-0,035
-540,466	-58,555	-0,143	0,046
-539,452	-200,000	-0,004	-0,099
-538,437	800,000	0,038	0,098
-537,423	800,000	-0,070	0,144
-536,408	-64,202	-0,066	-0,020
-535,393	-77,190	-0,045	0,011
-534,379	142,089	-0,122	-0,120
-533,364	370,357	0,083	-0,124
-532,350	-200,000	-0,005	0,032
-531,335	800,000	0,037	-0,111
-530,321	-132,745	0,071	0,007
-529,306	82,304	0,035	0,028
-528,291	-144,558	0,071	-0,005
-527,277	800,000	-0,050	-0,125
-526,262	-200,000	0,020	-0,120
-525,248	-200,000	0,004	-0,115
-524,233	232,510	0,087	0,106
-523,218	-188,096	0,159	0,001
-522,204	-200,000	0,013	-0,094
-521,189	124,464	-0,077	0,071
-520,175	-58,321	-0,041	0,013
-519,160	176,035	0,076	-0,081
-518,145	-34,876	0,025	-0,010
-517,131	286,730	0,021	0,028
-516,116	36,641	-0,036	-0,024
-515,102	-74,978	0,086	0,023
-514,087	143,754	-0,093	0,091
-513,072	235,442	-0,056	-0,068
-512,058	3,172	-0,064	-0,034
-511,043	235,990	-0,079	-0,097
-510,029	-200,000	0,024	0,112
-509,014	-0,214	0,128	0,067
-507,999	-21,681	-0,138	0,062
-506,985	-52,368	-0,088	0,030
-505,970	-200,000	0,006	-0,043
-504,956	629,007	0,039	0,072
-503,941	104,223	0,149	-0,129
-502,926	-200,000	0,007	0,025
-501,912	800,000	-0,029	-0,093
-500,897	145,607	-0,046	0,046
-499,883	346,973	-0,042	-0,061
-498,868	-7,618	-0,142	0,071
-497,853	-40,213	-0,107	0,041
-496,839	68,342	-0,043	-0,033
-495,824	-137,137	0,088	0,007
-494,810	-200,000	0,022	0,090
-493,795	530,000	-0,080	-0,139
-492,781	-76,503	0,085	-0,022
-491,766	576,729	-0,016	-0,028
-490,751	47,813	-0,071	-0,049
-489,737	444,759	0,056	0,091
-488,722	-200,000	0,010	-0,129
-487,708	394,306	-0,027	0,042
-486,693	-26,004	0,087	0,038
-485,678	-146,830	-0,136	0,009
-484,664	-200,000	-0,001	-0,033
-483,649	-200,000	-0,008	-0,132
-482,635	-200,000	0,006	-0,039
-481,620	-167,527	0,135	0,004
-480,605	402,987	0,079	-0,123
-479,591	-200,000	-0,021	0,141
-478,576	111,303	-0,182	0,162
-477,562	179,851	-0,087	0,094
-476,547	150,740	0,053	-0,053
-475,532	-200,000	-0,008	-0,099
-474,518	-55,551	0,027	0,009
-473,503	-20,050	-0,099	0,045
-472,489	-33,559	-0,112	-0,045
-471,474	800,000	0,041	0,097
-470,459	-75,310	-0,064	0,017
-469,445	-200,000	0,013	-0,050
-468,430	238,061	-0,043	-0,053
-467,416	-200,000	0,015	-0,062
-466,401	395,330	-0,052	0,081
-465,386	86,480	0,119	0,097
-464,372	800,000	-0,046	0,099
-463,357	800,000	-0,019	-0,039
-462,343	37,372	-0,107	-0,070
-461,328	162,430	-0,016	0,017
-460,313	-180,145	-0,046	-0,001
-459,299	-200,000	-0,031	-0,108
-458,284	-61,710	-0,047	0,014
-457,270	-200,000	0,012	0,060
-456,255	800,000	-0,058	-0,133
-455,241	92,205	0,124	-0,103
-454,226	-47,292	-0,110	-0,039
-453,211	-200,000	-0,041	-0,155
-452,197	87,185	0,051	0,042
-451,182	188,306	0,045	0,050
-450,168	-200,000	-0,002	0,027
-449,153	43,968	-0,101	-0,068
-448,138	800,000	0,009	-0,019
-447,124	397,402	-0,060	-0,093
-446,109	-96,599	0,173	-0,033
-445,095	-200,000	0,015	-0,092
-444,080	-200,000	-0,018	0,091
-443,065	158,563	0,019	-0,020
-442,051	-200,000	0,014	0,091
-441,036	800,000	-0,039	-0,093
-440,022	-200,000	0,020	-0,069
-439,007	506,829	-0,087	-0,150
-437,992	159,143	-0,137	-0,141
-436,978	-120,435	0,113	0,014
-435,963	9,966	0,064	-0,036
-434,949	65,245	-0,035	-0,026
-433,934	354,885	-0,096	-0,141
-432,919	800,000	0,060	-0,126
-431,905	800,000	0,021	-0,045
-430,890	-125,360	0,057	-0,006
-429,876	800,000	0,042	0,109
-428,861	-51,282	0,075	0,026
-427,846	459,502	0,066	0,108
-426,832	-91,058	-0,110	-0,023
-425,817	-159,891	0,160	0,006
-424,803	-165,009	0,041	-0,001
-423,788	67,610	0,079	0,059
-422,773	-28,533	-0,066	0,028
-421,759	348,322	0,023	0,033
-420,744	47,950	0,033	0,023
-419,730	-200,000	-0,007	-0,107
-418,715	-100,806	-0,051	0,009
-417,701	-200,000	0,015	-0,066
-416,686	643,652	-0,059	-0,110
-415,671	-63,797	0,130	-0,039
-414,657	-130,551	-0,081	0,008
-413,642	-32,639	-0,014	0,006
-412,628	-200,000	-0,009	0,065
-411,613	800,000	0,012	0,033
-410,598	785,346	-0,071	0,144
-409,584	36,956	-0,121	-0,079
-408,569	18,110	0,172	0,101
-407,555	-150,568	0,087	-0,005
-406,540	-200,000	-0,006	-0,039
-405,525	460,425	-0,035	0,058
-404,511	698,320	-0,036	-0,069
-403,496	-200,000	-0,014	0,070
-402,482	-200,000	-0,001	0,005
-401,467	-79,123	0,062	-0,015
-400,452	-200,000	0,023	0,130
-399,438	-48,434	-0,098	0,034
-398,423	151,805	-0,063	0,063
-397,409	-200,000	-0,021	0,077
-396,394	-200,000	-0,016	-0,086
-395,379	-146,114	-0,077	0,005
-394,365	-83,090	0,098	0,023
-393,350	21,892	-0,015	-0,009
-392,336	303,626	-0,020	-0,028
-391,321	-200,000	0,044	0,198
-390,306	800,000	0,026	-0,055
-389,292	-98,300	-0,118	-0,022
-388,277	231,333	-0,110	-0,133
-387,263	-200,000	0,072	-0,000
-386,248	-98,057	-0,084	-0,016
-385,233	-64,272	-0,065	-0,019
-384,219	-160,378	-0,117	0,005
-383,204	-200,000	-0,010	-0,059
-382,190	800,000	-0,045	0,099
-381,175	800,000	0,028	-0,072
-380,160	-33,865	0,065	-0,026
-379,146	-200,000	0,009	-0,104
-378,131	-200,000	-0,015	-0,092
-377,117	-161,457	-0,060	-0,002
-376,102	-200,000	-0,052	-0,181
-375,088	151,734	0,145	-0,145
-374,073	-200,000	0,015	-0,143
-373,058	255,287	-0,016	0,020
-372,044	-200,000	0,005	-0,131
-371,029	-200,000	0,001	-0,009
-370,015	284,237	-0,059	-0,078
-369,000	-200,000	0,055	-0,187
-367,985	-145,557	0,045	-0,003
-366,971	-106,170	0,167	0,027
-365,956	265,593	0,070	-0,090
-364,942	-200,000	0,004	0,060
-363,927	-57,719	0,156	0,050
-362,912	-200,000	-0,008	0,030
-361,898	109,118	0,078	-0,068
-360,883	425,144	0,050	-0,078
-359,869	-40,993	-0,058	-0,022
-358,854	298,899	0,114	0,155
-357,839	765,677	-0,052	0,104
-356,825	-200,000	0,016	0,066
-355,810	608,488	-0,043	0,079
-354,796	800,000	0,036	0,110
-353,781	189,635	0,049	0,054
-352,766	627,523	-0,025	-0,046
-351,752	-5,096	0,078	-0,039
-350,737	77,491	0,027	0,021
-349,723	258,561	0,020	-0,025
-348,708	800,000	0,028	0,061
-347,693	-200,000	0,005	0,022
-346,679	260,734	0,042	-0,054
-345,664	800,000	-0,019	-0,051
-344,650	327,565	0,062	0,087
-343,635	218,020	0,062	0,073
-342,620	409,316	0,028	-0,043
-341,606	-123,628	-0,132	-0,015
-340,591	-200,000	0,011	-0,152
-339,577	406,282	-0,067	-0,104
-338,562	78,320	-0,003	-0,002
-337,548	-66,086	0,244	0,071
-336,533	169,273	0,069	0,072
-335,518	-200,000	0,010	-0,099
-334,504	202,549	0,116	0,132
-333,489	403,512	-0,044	0,068
-332,475	444,323	-0,009	-0,015
-331,460	800,000	0,037	-0,101
-330,445	276,568	0,053	-0,069
-329,431	197,821	0,017	-0,019
-328,416	-96,437	0,241	-0,046
-327,402	-200,000	0,002	0,012
-326,387	341,173	-0,026	-0,037
-325,372	-192,899	0,068	-0,000
-324,358	45,127	-0,039	0,026
-323,343	704,266	0,083	-0,162
-322,329	33,318	-0,053	0,033
-321,314	-200,000	0,000	0,089
-320,299	93,614	0,061	-0,050
-319,285	86,384	-0,036	-0,029
-318,270	373,742	-0,014	-0,021
-317,256	-70,640	-0,171	-0,047
-316,241	800,000	-0,087	-0,194
-315,226	2,939	0,065	-0,034
-314,212	-81,778	-0,046	-0,011
-313,197	-76,711	0,083	-0,021
-312,183	17,334	-0,040	-0,023
-311,168	-32,220	-0,061	0,025
-310,153	-131,560	0,087	0,008
-309,139	104,674	-0,043	0,037
-308,124	-115,889	0,095	-0,013
-307,110	36,804	0,093	0,060
-306,095	-200,000	-0,022	0,121
-305,080	-26,604	-0,174	0,074
-304,066	246,843	0,033	-0,041
-303,051	241,506	-0,078	-0,096
-302,037	215,909	-0,053	-0,062
-301,022	800,000	0,076	-0,194
-300,008	-138,151	-0,071	-0,006
-298,993	496,058	-0,048	-0,082
-297,978	-26,316	-0,116	-0,049
-296,964	794,400	-0,010	0,020
-295,949	53,845	0,114	-0,080
-294,935	-30,725	-0,093	0,038
-293,920	800,000	-0,044	-0,125
-292,905	58,128	0,097	0,069
-291,891	-97,015	-0,136	-0,026
-290,876	109,255	0,129	0,113
-289,862	-53,111	-0,095	-0,032
-288,847	-6,323	-0,034	-0,017
-287,832	-200,000	-0,016	0,071
-286,818	50,252	-0,055	0,038
-285,803	265,490	-0,069	0,088
-284,789	-123,484	0,135	0,016
-283,774	233,971	0,049	0,059
-282,759	-93,275	-0,135	0,027
-281,745	800,000	0,016	0,036
-280,730	68,357	0,151	-0,113
-279,716	1,082	-0,022	-0,012
-278,701	-200,000	0,016	0,112
-277,686	800,000	0,049	0,114
-276,672	800,000	-0,031	0,089
-275,657	-200,000	-0,022	0,085
-274,643	-117,550	-0,060	0,008
-273,628	64,273	0,071	0,052
-272,613	800,000	-0,038	-0,087
-271,599	45,828	0,118	-0,079
-270,584	3,111	-0,042	0,022
-269,570	-200,000	0,008	-0,031
-268,555	23,460	-0,106	-0,064
-267,540	800,000	-0,090	0,184
-266,526	-200,000	-0,004	0,019
-265,511	-7,425	-0,027	-0,013
-264,497	466,725	-0,033	0,054
-263,482	71,014	0,070	0,053
-262,467	800,000	0,068	0,186
-261,453	-148,407	-0,063	-0,004
-260,438	-200,000	0,018	0,133
-259,424	-200,000	0,014	0,133
-258,409	-200,000	0,007	-0,103
-257,395	-15,730	-0,092	-0,043
-256,380	-53,285	0,163	0,054
-255,365	312,096	-0,053	0,073
-254,351	116,531	-0,100	-0,090
-253,336	186,917	0,024	-0,026
-252,322	-200,000	0,019	-0,120
-251,307	361,527	-0,052	-0,076
-250,292	-200,000	-0,012	-0,258
-249,278	-200,000	0,015	-0,056
-248,263	416,385	0,018	0,029
-247,249	147,465	-0,060	0,059
-246,234	701,045	0,019	0,037
-245,219	557,268	0,018	0,032
-244,205	-24,838	-0,043	0,018
-243,190	305,519	-0,081	-0,110
-242,176	115,355	-0,076	0,068
-241,161	466,935	-0,016	-0,026
-240,146	-30,879	0,100	-0,041
-239,132	-29,804	-0,111	0,046
-238,117	-28,666	-0,110	0,046
-237,103	800,000	-0,010	-0,023
-236,088	-104,570	-0,096	0,016
-235,073	76,644	0,086	-0,066
-234,059	88,598	-0,113	0,092
-233,044	690,031	0,061	0,116
-232,030	22,653	-0,021	0,013
-231,015	-200,000	0,007	-0,063
-230,000	674,461	0,058	0,110
-228,986	-139,101	0,172	0,013
-227,971	-125,531	0,029	0,003
-226,957	-82,544	0,109	-0,026
-225,942	-200,000	-0,040	0,130
-224,927	61,715	-0,026	0,019
-223,913	-66,818	-0,084	-0,024
-222,898	-24,881	-0,054	0,023
-221,884	438,240	-0,059	0,095
-220,869	-200,000	0,045	0,241
-219,855	-82,099	0,092	0,022
-218,840	-141,735	0,108	-0,008
-217,825	783,276	-0,060	0,120
-216,811	357,313	0,055	-0,080
-215,796	215,486	0,042	0,049
-214,782	481,205	-0,072	-0,120
-213,767	197,356	0,077	0,086
-212,752	1,195	0,105	0,055
-211,738	380,775	0,049	0,073
-210,723	186,729	0,042	0,046
-209,709	-71,922	0,030	0,008
-208,694	-200,000	0,020	-0,133
-207,679	-80,773	-0,026	0,006
-206,665	-200,000	0,006	-0,161
-205,650	82,136	0,040	0,031
-204,636	84,437	0,031	0,025
-203,621	109,346	-0,056	0,049
-202,606	-200,000	0,027	0,113
-201,592	-200,000	-0,023	0,128
-200,577	-41,885	-0,112	-0,042
-199,563	99,510	0,043	0,036
-198,548	-200,000	-0,001	0,110
-197,533	-23,710	-0,092	0,040
-196,519	-200,000	0,018	0,119
-195,504	205,810	-0,051	-0,058
-194,490	-82,065	-0,082	0,019
-193,475	-18,023	0,112	0,051
-192,460	-168,048	-0,029	0,001
-191,446	50,666	-0,017	-0,012
-190,431	-22,482	0,192	-0,084
-189,417	39,933	-0,148	0,097
-188,402	-15,953	-0,067	0,031
-187,387	-200,000	0,018	0,096
-186,373	195,713	-0,072	-0,080
-185,358	-200,000	-0,004	0,036
-184,344	119,335	-0,054	0,048
-183,329	-51,616	0,110	0,037
-182,315	-8,044	0,118	0,057
-181,300	-29,428	-0,161	0,067
-180,285	775,462	-0,063	-0,126
-179,271	415,075	0,071	-0,111
-178,256	109,191	0,059	-0,051
-177,242	29,286	0,117	0,072
-176,227	240,721	-0,019	0,023
-175,212	61,246	0,109	-0,079
-174,198	3,502	0,032	-0,017
-173,183	-200,000	-0,020	0,085
-172,169	-104,810	0,043	0,007
-171,154	800,000	-0,051	-0,147
-170,139	0,429	-0,096	0,050
-169,125	-107,662	0,126	-0,020
-168,110	-160,969	-0,042	-0,002
-167,096	800,000	-0,028	0,074
-166,081	120,747	0,065	0,059
-165,066	-118,552	0,051	-0,006
-164,052	-135,184	-0,087	0,008
-163,037	-200,000	-0,077	0,255
-162,023	-200,000	-0,011	0,182
-161,008	-200,000	0,011	0,057
-159,993	128,647	-0,129	0,120
-158,979	800,000	-0,037	0,081
-157,964	-200,000	-0,026	0,103
-156,950	417,533	-0,036	-0,056
-155,935	182,611	0,030	-0,033
-154,920	800,000	-0,073	0,202
-153,906	72,535	0,036	0,027
-152,891	188,260	0,066	-0,071
-151,877	-200,000	-0,016	0,088
-150,862	509,773	0,024	-0,041
-149,847	800,000	0,048	-0,118
-148,833	219,808	0,089	-0,104
-147,818	-200,000	-0,008	0,055
-146,804	-200,000	-0,009	0,101
-145,789	1,036	0,061	0,032
-144,775	212,250	-0,019	-0,022
-143,760	621,178	0,061	-0,113
-142,745	-8,474	-0,123	-0,060
-141,731	-200,000	0,001	0,010
-140,716	800,000	0,075	0,191
-139,702	22,331	0,072	-0,043
-138,687	185,643	-0,123	0,133
-137,672	-70,587	-0,014	0,004
-136,658	232,652	-0,077	-0,092
-135,643	142,720	-0,080	-0,078
-134,629	-200,000	0,022	0,073
-133,614	-200,000	0,013	0,114
-132,599	-200,000	-0,002	-0,044
-131,585	-200,000	-0,028	0,123
-130,570	-200,000	-0,011	-0,088
-129,556	45,688	-0,051	-0,034
-128,541	-200,000	-0,020	-0,072
-127,526	12,513	0,047	-0,026
-126,512	-167,088	0,104	0,003
-125,497	-200,000	0,018	0,205
-124,483	-200,000	-0,016	0,184
-123,468	-19,483	-0,018	0,008
-122,453	-127,762	-0,090	0,009
-121,439	170,957	0,053	-0,055
-120,424	-41,342	0,102	-0,038
-119,410	-179,486	-0,094	-0,001
-118,395	-70,150	-0,022	0,006
-117,380	10,449	0,023	-0,013
-116,366	-200,000	-0,018	0,108
-115,351	-200,000	0,003	0,019
-114,337	706,274	0,024	0,046
-113,322	-36,962	-0,081	0,031
-112,307	63,386	0,131	0,095
-111,293	-200,000	-0,036	-0,166
-110,278	-200,000	0,006	-0,085
-109,264	244,946	0,068	0,083
-108,249	79,351	-0,060	0,047
-107,234	-200,000	-0,003	-0,065
-106,220	800,000	0,042	-0,113
-105,205	800,000	0,045	-0,121
-104,191	-1,043	-0,045	0,023
-103,176	-52,003	0,066	-0,022
-102,162	266,867	0,069	-0,087
-101,147	358,238	-0,081	0,118
-100,132	340,632	-0,065	-0,093
-99,118	590,652	-0,063	-0,114
-98,103	-200,000	-0,009	-0,033
-97,089	800,000	-0,047	0,143
-96,074	373,179	-0,052	0,077
-95,059	297,005	0,024	-0,032
-94,045	587,691	-0,013	-0,024
-93,030	-104,883	0,123	-0,020
-92,016	785,524	0,055	-0,110
-91,001	277,933	0,050	0,065
-89,986	-45,291	-0,096	0,035
-88,972	-16,814	0,100	0,046
-87,957	245,275	0,075	0,092
-86,943	120,588	-0,138	0,125
-85,928	38,755	-0,111	0,071
-84,913	-171,124	-0,092	0,002
-83,899	-141,954	0,130	-0,009
-82,884	800,000	-0,053	0,126
-81,870	-200,000	0,038	0,148
-80,855	-200,000	0,000	0,097
-79,840	800,000	-0,011	0,024
-78,826	-200,000	-0,028	-0,100
-77,811	-200,000	0,001	-0,093
-76,797	-21,480	-0,105	-0,046
-75,782	-145,413	0,064	-0,004
-74,767	-68,190	0,130	0,037
-73,753	-200,000	0,008	0,038
-72,738	800,000	0,034	0,074
-71,724	412,596	-0,019	0,029
-70,709	112,302	0,054	0,048
-69,694	-65,153	0,105	0,031
-68,680	737,864	0,053	-0,103
-67,665	171,147	-0,066	0,069
-66,651	-200,000	0,033	0,158
-65,636	-156,216	-0,012	0,001
-64,622	-91,377	-0,093	0,019
-63,607	52,290	-0,030	-0,020
-62,592	800,000	0,030	-0,083
-61,578	-200,000	0,026	-0,103
-60,563	800,000	0,034	0,087
-59,549	-200,000	0,016	-0,052
-58,534	-99,102	-1,370	-0,249
-57,519	444,274	-0,830	-1,324
-56,505	-200,000	-0,930	-4,425
-55,490	-13,073	0,607	-0,285
-54,476	800,000	5,136	11,656
-53,461	-200,000	14,379	253,195
-52,446	-200,000	695,883	2229,883
-51,432	567,091	1624,362	2868,878
-50,417	116,870	1630,772	1450,649
-49,403	72,908	1284,550	971,155
-48,388	37,460	1022,036	655,377
-47,373	23,666	980,758	583,624
-46,359	22,836	970,334	574,680
-45,344	21,919	965,642	568,889
-44,330	21,805	964,339	567,729
-43,315	21,628	963,053	566,372
-42,300	21,694	961,905	565,890
-41,286	21,652	960,953	565,172
-40,271	21,652	960,004	564,592
-39,257	21,606	959,028	563,846
-38,242	21,689	957,901	563,429
-37,227	21,650	957,237	562,888
-36,213	21,640	956,265	562,263
-35,198	21,587	955,474	561,606
-34,184	21,691	954,668	561,443
-33,169	21,585	954,090	560,741
-32,154	21,622	953,101	560,258
-31,140	21,745	952,025	559,997
-30,125	21,732	951,278	559,492
-29,111	21,681	950,537	558,871
-28,096	21,656	949,973	558,439
-27,082	21,678	949,183	558,021
-26,067	21,698	948,295	557,543
-25,052	21,688	947,502	557,021
-24,038	21,620	947,165	556,585
-23,023	21,669	946,457	556,302
-22,009	21,753	945,582	556,032
-20,994	21,688	945,030	555,479
-19,979	21,703	944,408	555,141
-18,965	21,677	943,839	554,702
-17,950	21,703	943,214	554,394
-16,936	21,682	942,500	553,886
-15,921	21,556	942,162	553,266
-14,906	21,538	941,083	552,551
-13,892	21,523	940,482	552,130
-12,877	21,486	939,888	551,640
-11,863	21,521	939,307	551,390
-10,848	21,552	938,857	551,202
-9,833	21,632	938,535	551,243
-8,819	21,569	937,752	550,563
-7,804	21,518	937,018	549,950
-6,790	21,498	936,716	549,687
-5,775	21,579	935,781	549,371
-4,760	21,596	935,206	549,066
-3,746	21,508	934,509	548,358
-2,731	21,358	933,899	547,506
-1,717	21,321	933,267	546,997
-0,702	21,322	932,417	546,479
0,313	21,165	931,934	546,528
1,327	24,052	929,844	554,311
2,342	33,103	793,500	497,061
3,356	30,569	451,049	278,704
4,371	0,809	295,171	152,550
5,386	-3,763	276,397	138,485
6,400	-5,009	270,664	134,439
7,415	-5,114	268,279	133,144
8,429	-4,978	267,116	132,681
9,444	-5,185	266,285	132,066
10,459	-5,038	265,568	131,833
11,473	-4,917	264,948	131,625
12,488	-5,088	264,436	131,202
13,502	-5,494	263,887	130,549
14,517	-5,189	263,511	130,628
15,531	-5,151	263,095	130,445
16,546	-5,099	262,821	130,345
17,561	-5,139	262,451	130,113
18,575	-4,952	262,094	130,093
19,590	-5,099	261,734	129,771
20,604	-5,172	261,594	129,624
21,619	-5,356	261,105	129,204
22,634	-5,064	260,778	129,294
23,648	-5,193	260,603	129,079
24,663	-5,348	260,238	128,749
25,677	-5,064	259,983	128,865
26,692	-5,238	259,794	128,605
27,707	-5,299	259,604	128,444
28,721	-5,090	259,123	128,381
29,736	-5,468	259,033	127,988
30,750	-5,319	258,783	127,986
31,765	-5,316	258,431	127,803
32,780	-5,179	258,269	127,833
33,794	-5,277	258,012	127,608
34,809	-5,292	257,825	127,491
35,823	-5,298	257,616	127,370
36,838	-5,279	257,417	127,278
37,853	-5,332	257,072	127,049
38,867	-5,104	256,765	127,087
39,882	-5,240	256,463	126,806
40,896	-5,351	256,415	126,673
41,911	-5,214	256,126	126,640
42,926	-5,462	255,916	126,307
43,940	-5,406	255,569	126,173
44,955	-5,387	255,404	126,097
45,969	-5,489	255,353	125,971
46,984	-5,536	254,888	125,689
47,999	-5,874	254,888	125,382
49,013	-6,030	254,497	125,042
50,028	-5,792	254,127	125,057
51,042	-6,079	254,136	124,800
52,057	-5,994	253,816	124,706
53,071	-6,186	253,749	124,495
54,086	-5,965	253,608	124,606
55,101	-5,792	253,303	124,596
56,115	-5,722	253,167	124,578
57,130	-5,209	253,003	124,933
58,144	-5,037	252,874	125,008
59,159	-5,181	252,746	124,808
60,174	-5,088	252,473	124,742
61,188	-5,245	252,199	124,460
62,203	-5,208	252,055	124,409
63,217	-5,146	251,690	124,272
64,232	-5,345	251,645	124,067
65,247	-5,213	251,514	124,105
66,261	-5,356	251,119	123,776
67,276	-5,293	250,924	123,723
68,290	-5,502	250,680	123,412
69,305	-5,563	250,417	123,220
70,320	-5,636	250,212	123,045
71,334	-5,470	250,068	123,106
72,349	-5,059	249,945	123,386
73,363	-5,192	249,817	123,198
74,378	-5,096	249,616	123,170
75,393	-5,098	249,255	122,979
76,407	-5,059	249,248	122,999
77,422	-5,150	248,900	122,738
78,436	-5,156	248,738	122,642
79,451	-5,043	248,615	122,666
80,466	-5,414	248,365	122,217
81,480	-5,457	248,027	122,003
82,495	-5,481	247,801	121,861
83,509	-5,431	247,714	121,849
84,524	-5,389	247,546	121,792
85,539	-5,566	247,173	121,447
86,553	-5,553	247,007	121,366
87,568	-5,485	246,876	121,348
88,582	-5,549	246,722	121,207
89,597	-5,645	246,487	121,000
90,611	-5,345	246,314	121,157
91,626	-5,146	246,199	121,257
92,641	-5,356	246,111	121,026
93,655	-5,238	245,912	121,017
94,670	-5,355	245,653	120,780
95,684	-5,404	245,624	120,714
96,699	-5,516	245,332	120,466
97,714	-5,455	245,048	120,367
98,728	-5,577	244,783	120,124
99,743	-5,329	244,576	120,219
100,757	-5,801	244,445	119,750
101,772	-5,439	244,169	119,906
102,787	-5,731	244,146	119,640
103,801	-5,555	243,862	119,637
104,816	-5,356	243,736	119,730
105,830	-5,216	243,691	119,814
106,845	-5,394	243,626	119,623
107,860	-5,124	243,300	119,677
108,874	-5,248	243,070	119,450
109,889	-5,364	242,791	119,206
110,903	-5,248	242,660	119,228
111,918	-5,423	242,642	119,063
112,933	-5,304	242,352	119,009
113,947	-5,358	242,206	118,882
114,962	-5,165	241,977	118,918
115,976	-5,288	241,786	118,712
116,991	-5,335	241,687	118,614
118,006	-5,514	241,570	118,398
119,020	-5,458	241,420	118,361
120,035	-5,268	241,341	118,468
121,049	-5,101	241,110	118,482
122,064	-5,260	240,895	118,235
123,079	-5,268	240,610	118,077
124,093	-5,252	240,522	118,037
125,108	-5,617	240,174	117,556
126,122	-5,617	240,003	117,462
127,137	-5,595	239,735	117,338
128,151	-5,594	239,739	117,331
129,166	-5,534	239,479	117,242
130,181	-5,734	239,421	117,040
131,195	-5,773	239,276	116,927
132,210	-5,461	239,064	117,067
133,224	-5,375	238,838	117,016
134,239	-5,389	238,733	116,943
135,254	-5,318	238,593	116,922
136,268	-5,419	238,300	116,686
137,283	-5,524	238,050	116,468
138,297	-5,737	237,808	116,166
139,312	-5,544	237,566	116,193
140,327	-5,463	237,716	116,322
141,341	-5,043	237,580	116,586
142,356	-4,873	237,501	116,674
143,370	-5,048	237,288	116,417
144,385	-4,816	237,086	116,495
145,400	-4,930	236,990	116,345
146,414	-4,894	236,751	116,247
147,429	-5,061	236,651	116,053
148,443	-4,999	236,308	115,925
149,458	-5,192	236,334	115,772
150,473	-5,070	236,014	115,702
151,487	-5,205	235,884	115,520
152,502	-5,071	235,698	115,526
153,516	-4,904	235,491	115,548
154,531	-4,999	235,411	115,423
155,546	-4,936	235,098	115,309
156,560	-5,214	234,999	115,028
157,575	-5,333	234,844	114,847
158,589	-5,182	234,688	114,880
159,604	-5,112	234,524	114,847
160,619	-4,940	234,419	114,922
161,633	-4,706	234,110	114,946
162,648	-4,893	233,998	114,732
163,662	-4,892	233,919	114,684
164,677	-5,078	233,787	114,461
165,692	-5,068	233,604	114,370
166,706	-4,766	233,542	114,568
167,721	-5,024	233,335	114,252
168,735	-5,115	233,191	114,099
169,750	-4,860	233,036	114,215
170,764	-5,023	232,954	114,035
171,779	-5,045	232,850	113,958
172,794	-4,863	232,612	113,975
173,808	-5,094	232,441	113,698
174,823	-5,414	232,046	113,242
175,837	-5,708	231,898	112,928
176,852	-5,472	232,013	113,160
177,867	-5,068	231,897	113,413
178,881	-4,933	231,700	113,411
179,896	-4,888	231,477	113,328
180,910	-4,948	231,266	113,168
181,925	-4,993	231,294	113,136
182,940	-4,884	231,051	113,092
183,954	-4,763	230,811	113,060
184,969	-4,900	230,782	112,928
185,983	-4,925	230,701	112,859
186,998	-4,995	230,460	112,676
188,013	-4,636	230,212	112,824
189,027	-4,918	230,134	112,556
190,042	-4,833	229,898	112,497
191,056	-4,864	229,848	112,438
192,071	-4,879	229,580	112,286
193,086	-5,004	229,455	112,118
194,100	-4,898	229,316	112,122
195,115	-4,960	228,928	111,874
196,129	-5,387	228,818	111,479
197,144	-2,602	229,921	114,177
198,159	1,630	230,980	117,998
199,173	3,710	231,394	119,824
200,188	3,905	231,320	119,927
201,202	3,793	231,149	119,740
202,217	3,993	231,079	119,849
203,232	4,490	230,847	120,105
204,246	4,355	230,633	119,878
205,261	4,668	230,475	120,028
206,275	4,707	230,521	120,072
207,290	4,525	230,491	119,904
208,304	4,630	230,059	119,750
209,319	4,498	230,118	119,667
210,334	4,388	229,909	119,463
211,348	4,110	229,594	119,073
212,363	3,949	229,476	118,877
213,377	3,775	229,207	118,593
214,392	3,848	229,167	118,618
215,407	3,704	228,950	118,385
216,421	3,807	228,792	118,372
217,436	3,801	228,493	118,201
218,450	3,648	228,262	117,954
219,465	3,518	228,304	117,865
220,480	3,434	228,275	117,775
221,494	3,510	227,965	117,663
222,509	3,674	227,941	117,766
223,523	3,852	227,555	117,692
224,538	3,693	227,418	117,490
225,553	3,570	227,480	117,416
226,567	3,497	227,385	117,302
227,582	4,078	227,133	117,605
228,596	4,096	227,093	117,587
229,611	3,841	226,926	117,296
230,626	3,548	226,608	116,897
231,640	3,676	226,518	116,938
232,655	3,827	226,541	117,055
233,669	4,336	226,356	117,336
234,684	4,459	226,247	117,362
235,699	4,142	226,018	116,992
236,713	3,807	225,968	116,701
237,728	3,702	225,537	116,389
238,742	3,842	225,395	116,412
239,757	3,667	225,268	116,203
240,772	3,850	225,052	116,219
241,786	3,696	224,999	116,066
242,801	3,770	224,949	116,085
243,815	4,036	224,982	116,293
244,830	4,123	224,767	116,237
245,844	3,938	224,446	115,921
246,859	3,792	224,391	115,772
247,874	4,126	224,141	115,885
248,888	4,117	224,090	115,842
249,903	3,858	223,857	115,516
250,917	3,651	223,829	115,336
251,932	3,518	223,764	115,192
252,947	3,548	223,536	115,086
253,961	3,528	223,212	114,894
254,976	3,624	223,064	114,880
255,990	3,997	222,923	115,076
257,005	3,862	222,932	114,969
258,020	3,827	222,832	114,882
259,034	4,285	222,690	115,140
260,049	3,932	222,577	114,808
261,063	4,028	222,189	114,669
262,078	3,984	222,315	114,691
263,093	4,211	222,146	114,763
264,107	4,046	221,808	114,455
265,122	4,065	221,771	114,440
266,136	4,218	221,787	114,552
267,151	4,284	221,375	114,378
268,166	3,949	221,115	113,985
269,180	3,675	221,007	113,716
270,195	3,569	220,871	113,558
271,209	3,736	220,670	113,568
272,224	3,904	220,696	113,695
273,239	3,741	220,688	113,560
274,253	3,793	220,432	113,457
275,268	3,490	220,194	113,101
276,282	3,722	220,002	113,163
277,297	3,412	219,984	112,915
278,312	3,581	219,813	112,942
279,326	3,671	219,783	112,983
280,341	3,819	219,675	113,026
281,355	3,927	219,369	112,938
282,370	3,623	219,311	112,674
283,384	3,475	219,149	112,473
284,399	3,456	218,870	112,306
285,414	3,429	218,739	112,209
286,428	3,563	218,696	112,274
287,443	3,979	218,523	112,480
288,457	3,751	218,571	112,328
289,472	3,713	218,360	112,182
290,487	3,392	218,084	111,796
291,501	3,478	217,883	111,745
292,516	3,426	217,894	111,703
293,530	3,280	217,887	111,583
294,545	3,456	217,554	111,531
295,560	3,704	217,434	111,640
296,574	3,769	217,286	111,600
297,589	3,377	217,303	111,315
298,603	3,741	217,169	111,501
299,618	3,748	217,032	111,425
300,633	3,792	216,848	111,353
301,647	4,046	216,735	111,469
302,662	3,944	216,705	111,370
303,676	3,929	216,451	111,219
304,691	3,989	216,402	111,227
305,706	4,147	216,156	111,204
306,720	3,912	216,063	110,977
307,735	3,779	215,994	110,836
308,749	3,929	215,597	110,730
309,764	3,903	215,691	110,750
310,779	3,982	215,471	110,684
311,793	3,874	215,320	110,518
312,808	3,812	215,246	110,426
313,822	3,889	215,114	110,404
314,837	3,486	214,838	109,964
315,852	3,611	214,622	109,933
316,866	3,754	214,646	110,038
317,881	4,088	214,509	110,197
318,895	4,008	214,346	110,046
319,910	3,856	214,158	109,831
320,925	3,421	214,049	109,455
321,939	3,150	213,800	109,124
322,954	3,222	213,959	109,247
323,968	3,892	213,634	109,549
324,983	3,861	213,608	109,503
325,997	3,995	213,413	109,489
327,012	3,901	213,332	109,371
328,027	3,895	213,051	109,213
329,041	4,130	213,136	109,414
330,056	4,193	212,901	109,328
331,070	3,912	212,590	108,960
332,085	3,543	212,404	108,593
333,100	3,611	212,422	108,641
334,114	3,559	212,417	108,592
335,129	3,628	212,167	108,503
336,143	3,619	211,949	108,375
337,158	3,681	211,813	108,340
338,173	3,425	211,775	108,131
339,187	3,536	211,560	108,089
340,202	3,495	211,381	107,959
341,216	3,356	211,093	107,705
342,231	3,459	210,995	107,717
343,246	3,284	211,049	107,612
344,260	3,583	210,939	107,757
345,275	3,603	210,734	107,657
346,289	3,959	210,708	107,883
347,304	4,046	210,504	107,830
348,319	3,838	210,427	107,636
349,333	3,709	210,303	107,473
350,348	4,203	210,078	107,693
351,362	4,027	210,062	107,552
352,377	3,951	209,824	107,368
353,392	3,719	209,710	107,138
354,406	3,604	209,663	107,024
355,421	194,399	1345,515	1433,762
356,435	155,165	1483,985	1433,854
