DTS Sentinel unit serial number:	SN410029Multiplexer serial number:	ORYXHardware model number:	OX2-SRSoftware version number:	ORYX F/W v4,00 Oryx Data Collector v3.7.2.0data status	okinstallation	B6 Nyhavnadifferential loss correction	single-endedforward channel	channel 2reverse channel	N/Adate	2023/12/08time	18:00:08forward acquisition time	300,00reverse acquisition time	0,00gamma	499,1914k internal	0,3158k external	0,3158temperature offset calibration	1,0000default loss term (dB/km)	0,3820temperature slope calibration	1,0000multiplexer offset coefficient	1,0000multiplexer slope coefficient	1,0000fibre end	0,00T internal ref (°C)	15,20T ext. ref 1 (°C)	-1,25T ext. ref 2 (°C)	-1,24length (m)	temperature (°C)	Stokes	anti-Stokes-744,400	120,610	0,021	0,019
-743,385	-111,876	-0,295	0,043
-742,371	-152,864	0,219	-0,011
-741,356	-42,837	-0,359	0,134
-740,342	-43,211	0,174	0,065
-739,327	-115,609	-0,397	0,054
-738,312	-148,262	0,175	0,010
-737,298	-182,026	-0,334	-0,005
-736,283	-10,287	0,092	0,045
-735,269	-121,147	-0,398	-0,048
-734,254	-174,581	0,084	-0,002
-733,239	-76,224	-0,493	-0,127
-732,225	-155,599	0,128	-0,006
-731,210	-5,947	0,052	0,026
-730,196	335,729	-0,012	-0,017
-729,181	2,746	0,061	0,033
-728,167	-89,440	-0,137	-0,029
-727,152	800,000	-0,046	-0,109
-726,137	640,233	-0,065	0,123
-725,123	-178,096	-0,101	0,002
-724,108	-200,000	0,006	-0,094
-723,094	42,918	-0,056	-0,038
-722,079	-114,069	-0,127	-0,018
-721,064	64,274	0,007	-0,005
-720,050	-82,644	-0,176	0,042
-719,035	-200,000	0,007	0,032
-718,021	-5,971	-0,030	0,015
-717,006	17,961	-0,051	-0,030
-715,991	-76,721	-0,121	0,031
-714,977	800,000	-0,014	-0,029
-713,962	800,000	0,018	-0,056
-712,948	800,000	0,039	-0,086
-711,933	800,000	-0,004	0,010
-710,918	800,000	0,027	0,059
-709,904	-83,422	-0,128	0,030
-708,889	-189,919	-0,119	0,001
-707,875	304,692	-0,041	0,057
-706,860	632,518	0,073	-0,137
-705,845	556,259	-0,043	0,077
-704,831	98,231	-0,056	-0,048
-703,816	-105,032	0,100	-0,017
-702,802	510,589	0,035	-0,061
-701,787	-85,850	0,105	0,024
-700,772	-115,674	-0,086	-0,012
-699,758	-200,000	0,018	-0,085
-698,743	-136,423	0,160	0,013
-697,729	8,722	0,071	-0,040
-696,714	-18,246	0,149	0,068
-695,699	-11,492	-0,099	-0,048
-694,685	99,036	-0,080	-0,068
-693,670	-132,565	-0,140	0,013
-692,656	-17,649	0,069	-0,032
-691,641	41,141	0,057	-0,038
-690,627	60,135	0,051	-0,037
-689,612	-163,048	0,068	0,002
-688,597	-200,000	0,016	0,071
-687,583	-157,271	-0,232	-0,010
-686,568	260,118	0,040	0,050
-685,554	731,329	-0,088	-0,174
-684,539	66,813	0,130	-0,097
-683,524	449,670	0,033	-0,054
-682,510	800,000	-0,013	-0,029
-681,495	-185,442	-0,079	0,001
-680,481	-119,314	0,037	-0,005
-679,466	250,284	0,025	0,031
-678,451	294,557	-0,084	-0,113
-677,437	288,468	-0,061	-0,081
-676,422	-54,481	-0,074	0,025
-675,408	-24,391	0,053	0,023
-674,393	-46,556	0,079	0,028
-673,378	67,259	-0,021	0,016
-672,364	-200,000	-0,018	0,087
-671,349	80,918	0,035	-0,028
-670,335	159,054	0,050	-0,051
-669,320	-200,000	0,008	-0,199
-668,305	-33,916	0,073	-0,029
-667,291	-200,000	0,020	0,138
-666,276	800,000	-0,026	-0,071
-665,262	32,932	-0,071	-0,045
-664,247	355,561	-0,099	-0,144
-663,232	-83,341	-0,127	0,030
-662,218	215,587	0,057	0,066
-661,203	-200,000	0,037	0,146
-660,189	-65,617	-0,056	0,017
-659,174	-200,000	-0,012	-0,168
-658,159	322,720	-0,068	-0,095
-657,145	123,553	0,085	0,079
-656,130	-200,000	-0,018	-0,156
-655,116	800,000	-0,012	0,032
-654,101	-87,013	-0,082	-0,018
-653,086	800,000	0,012	-0,033
-652,072	-183,476	-0,147	0,002
-651,057	800,000	0,036	-0,086
-650,043	266,424	-0,100	-0,128
-649,028	46,202	0,086	-0,058
-648,014	-25,944	0,115	-0,050
-646,999	800,000	-0,004	0,010
-645,984	200,632	0,023	0,026
-644,970	800,000	-0,043	0,111
-643,955	-188,727	0,147	0,001
-642,941	181,121	-0,055	-0,060
-641,926	800,000	-0,052	0,140
-640,911	800,000	-0,028	-0,068
-639,897	128,678	-0,090	-0,084
-638,882	417,743	0,045	0,070
-637,868	-115,917	-0,083	-0,011
-636,853	-129,439	-0,025	0,002
-635,838	-200,000	0,003	-0,035
-634,824	24,867	-0,133	0,081
-633,809	468,471	-0,028	-0,046
-632,795	-200,000	0,004	-0,112
-631,780	78,139	0,050	0,040
-630,765	-200,000	-0,004	-0,018
-629,751	800,000	-0,021	-0,049
-628,736	-68,238	-0,013	0,004
-627,722	-200,000	-0,007	0,040
-626,707	22,789	-0,068	-0,041
-625,692	633,348	-0,046	-0,086
-624,678	-32,961	-0,161	0,065
-623,663	800,000	0,036	0,091
-622,649	178,089	-0,073	0,078
-621,634	-200,000	-0,004	0,038
-620,619	800,000	0,026	0,055
-619,605	98,542	-0,029	0,025
-618,590	-44,289	0,086	-0,031
-617,576	26,967	0,024	-0,015
-616,561	59,270	0,019	-0,014
-615,546	41,436	-0,081	-0,054
-614,532	-200,000	-0,019	-0,104
-613,517	-140,875	-0,013	-0,001
-612,503	405,979	-0,058	-0,090
-611,488	-90,170	0,226	-0,048
-610,474	-200,000	-0,011	0,073
-609,459	170,607	0,072	0,076
-608,444	-200,000	-0,004	-0,058
-607,430	67,862	0,033	0,025
-606,415	-200,000	-0,007	0,040
-605,401	800,000	0,011	0,026
-604,386	3,730	-0,052	-0,028
-603,371	-46,325	-0,100	0,036
-602,357	52,399	0,066	0,046
-601,342	72,709	-0,160	-0,122
-600,328	800,000	-0,053	-0,143
-599,313	27,525	-0,026	-0,016
-598,298	96,954	-0,033	-0,028
-597,284	800,000	0,036	0,094
-596,269	68,804	0,098	0,074
-595,255	25,913	-0,113	-0,069
-594,240	-200,000	-0,032	-0,107
-593,225	-109,997	0,203	-0,031
-592,211	96,036	-0,056	-0,047
-591,196	157,881	-0,032	-0,032
-590,182	-131,486	0,131	0,013
-589,167	14,240	-0,122	0,070
-588,152	800,000	0,043	-0,119
-587,138	-0,855	-0,020	0,010
-586,123	-200,000	-0,011	0,064
-585,109	31,307	0,074	-0,046
-584,094	267,311	-0,017	0,021
-583,079	-35,754	-0,031	-0,012
-582,065	-163,434	-0,088	-0,003
-581,050	-89,251	-0,075	-0,016
-580,036	68,279	-0,046	-0,034
-579,021	-85,968	-0,070	-0,016
-578,006	41,391	-0,081	0,053
-576,992	83,550	0,010	-0,008
-575,977	12,598	0,087	0,049
-574,963	-200,000	0,017	0,135
-573,948	-119,970	0,054	0,007
-572,934	15,377	0,054	0,031
-571,919	100,709	-0,039	0,033
-570,904	51,612	-0,164	-0,114
-569,890	233,371	-0,077	-0,093
-568,875	154,111	-0,061	-0,061
-567,861	129,788	0,078	0,073
-566,846	-200,000	0,016	0,098
-565,831	690,855	-0,067	-0,128
-564,817	-135,126	0,065	0,006
-563,802	63,315	-0,036	-0,027
-562,788	-150,258	-0,033	-0,002
-561,773	-43,656	0,117	0,043
-560,758	-18,758	0,100	0,045
-559,744	800,000	-0,044	0,114
-558,729	146,027	-0,069	0,068
-557,715	603,354	-0,067	-0,123
-556,700	11,809	-0,035	0,020
-555,685	800,000	-0,056	-0,134
-554,671	-157,909	0,071	-0,003
-553,656	45,882	0,100	0,067
-552,642	97,621	0,096	-0,081
-551,627	121,126	-0,058	0,053
-550,612	800,000	-0,073	0,153
-549,598	-200,000	0,025	-0,089
-548,583	-200,000	-0,006	0,023
-547,569	-177,807	0,056	-0,001
-546,554	-200,000	-0,006	0,061
-545,539	-200,000	0,009	0,125
-544,525	63,658	0,078	-0,057
-543,510	-200,000	-0,010	-0,125
-542,496	165,877	-0,078	-0,080
-541,481	15,061	-0,092	-0,052
-540,466	91,608	0,086	-0,070
-539,452	-77,459	0,159	0,040
-538,437	-200,000	-0,002	0,018
-537,423	-17,197	-0,221	-0,101
-536,408	127,532	-0,067	-0,062
-535,393	-50,530	0,155	-0,053
-534,379	-200,000	0,002	-0,013
-533,364	180,938	-0,093	0,100
-532,350	151,848	0,068	0,068
-531,335	493,835	-0,092	0,155
-530,321	-200,000	0,027	0,111
-529,306	-26,119	-0,099	-0,043
-528,291	169,579	0,090	-0,094
-527,277	-6,558	0,070	0,035
-526,262	-154,938	-0,085	-0,004
-525,248	-80,024	0,085	0,021
-524,233	44,623	0,111	0,074
-523,218	800,000	0,040	0,095
-522,204	800,000	-0,081	-0,201
-521,189	-46,080	-0,210	-0,075
-520,175	428,804	-0,030	-0,047
-519,160	-200,000	-0,025	0,083
-518,145	197,330	0,084	0,093
-517,131	-40,327	0,063	0,024
-516,116	15,289	-0,059	-0,034
-515,102	-95,778	-0,097	0,019
-514,087	-200,000	0,017	-0,145
-513,072	-140,818	-0,048	0,004
-512,058	-200,000	0,019	-0,077
-511,043	202,960	0,045	-0,051
-510,029	-200,000	0,019	0,066
-509,014	-200,000	0,010	0,142
-507,999	-100,735	-0,033	0,006
-506,985	116,636	-0,087	-0,078
-505,970	800,000	-0,052	-0,125
-504,956	-16,242	0,146	0,067
-503,941	281,898	0,118	0,155
-502,926	-200,000	0,042	0,137
-501,912	-200,000	0,023	0,110
-500,897	67,211	-0,072	0,054
-499,883	800,000	-0,078	-0,176
-498,868	166,918	0,123	-0,128
-497,853	-39,139	-0,070	-0,027
-496,839	-51,502	0,114	0,039
-495,824	-200,000	0,007	-0,047
-494,810	-91,366	-0,085	-0,018
-493,795	114,402	-0,013	-0,011
-492,781	91,424	0,068	-0,056
-491,766	-200,000	0,009	-0,141
-490,751	-105,856	-0,109	-0,018
-489,737	-159,788	0,068	0,003
-488,722	-51,842	0,041	0,014
-487,708	800,000	-0,024	0,051
-486,693	800,000	-0,047	0,122
-485,678	-60,994	-0,080	0,024
-484,664	-66,553	-0,101	0,029
-483,649	800,000	-0,014	0,035
-482,635	-200,000	0,011	-0,059
-481,620	116,880	-0,044	0,039
-480,605	800,000	0,038	-0,115
-479,591	-200,000	0,034	0,159
-478,576	-85,392	-0,050	-0,011
-477,562	-163,731	0,080	0,003
-476,547	543,378	-0,031	-0,055
-475,532	-200,000	-0,006	-0,056
-474,518	-35,396	0,012	-0,005
-473,503	-32,685	0,176	0,071
-472,489	-200,000	0,017	-0,094
-471,474	322,300	-0,066	0,092
-470,459	-64,621	-0,119	-0,035
-469,445	-29,799	-0,063	0,026
-468,430	-200,000	0,013	-0,081
-467,416	74,996	0,057	0,043
-466,401	-200,000	0,009	-0,053
-465,386	62,314	0,038	0,028
-464,372	263,494	-0,029	0,037
-463,357	-200,000	-0,063	0,228
-462,343	-200,000	0,002	-0,094
-461,328	49,644	0,055	-0,038
-460,313	646,627	-0,035	-0,065
-459,299	596,685	-0,055	0,099
-458,284	3,195	0,089	0,047
-457,270	31,519	-0,165	-0,103
-456,255	159,740	0,041	-0,041
-455,241	-200,000	-0,017	0,074
-454,226	-200,000	0,007	0,059
-453,211	212,561	0,112	-0,129
-452,197	-7,905	0,130	0,064
-451,182	236,047	0,038	0,046
-450,168	366,575	0,023	0,035
-449,153	44,656	0,172	0,115
-448,138	-181,781	0,063	-0,001
-447,124	574,449	-0,023	-0,041
-446,109	-96,461	-0,084	0,016
-445,095	800,000	0,025	-0,070
-444,080	-68,391	0,140	-0,039
-443,065	12,740	-0,127	-0,071
-442,051	271,449	-0,011	-0,015
-441,036	257,934	0,051	-0,064
-440,022	-200,000	-0,033	-0,144
-439,007	-97,084	-0,075	0,014
-437,992	-200,000	-0,016	-0,103
-436,978	-98,355	-0,187	-0,035
-435,963	800,000	-0,015	-0,033
-434,949	-0,495	0,043	0,022
-433,934	497,348	-0,005	-0,009
-432,919	87,129	-0,153	-0,123
-431,905	266,370	0,028	-0,036
-430,890	45,343	0,045	-0,030
-429,876	-87,900	0,077	0,017
-428,861	416,605	-0,035	0,055
-427,846	99,269	0,086	-0,073
-426,832	-41,834	0,038	-0,014
-425,817	800,000	-0,047	-0,127
-424,803	116,333	0,033	0,029
-423,788	192,168	-0,044	0,048
-422,773	800,000	0,021	0,048
-421,759	319,978	-0,083	0,115
-420,744	-16,387	-0,030	-0,014
-419,730	91,643	-0,057	-0,047
-418,715	176,898	-0,073	-0,078
-417,701	291,379	0,165	-0,219
-416,686	800,000	-0,018	0,053
-415,671	-200,000	-0,001	-0,052
-414,657	111,575	-0,042	0,037
-413,642	-200,000	-0,009	-0,056
-412,628	-92,715	-0,099	0,020
-411,613	57,049	-0,026	-0,018
-410,598	52,258	0,067	0,046
-409,584	-200,000	0,009	-0,047
-408,569	239,705	-0,074	0,089
-407,555	168,330	0,064	0,067
-406,540	-89,648	-0,079	0,017
-405,525	-24,471	0,010	0,004
-404,511	-118,600	0,043	0,005
-403,496	53,272	-0,086	0,060
-402,482	466,918	0,056	0,091
-401,467	292,303	-0,013	-0,017
-400,452	-63,802	-0,097	0,029
-399,438	800,000	-0,061	0,129
-398,423	319,834	0,071	-0,099
-397,409	-200,000	0,004	-0,040
-396,394	-20,343	0,101	0,045
-395,379	-200,000	0,010	0,134
-394,365	-13,526	0,098	0,046
-393,350	1,691	-0,105	0,055
-392,336	93,607	-0,058	0,048
-391,321	341,537	-0,024	-0,035
-390,306	-200,000	-0,020	-0,093
-389,292	101,973	0,014	0,012
-388,277	20,213	-0,099	-0,058
-387,263	62,167	0,083	-0,060
-386,248	-5,867	0,186	-0,092
-385,233	-136,761	0,085	-0,007
-384,219	-200,000	-0,004	0,027
-383,204	-200,000	0,012	-0,105
-382,190	-30,974	0,044	-0,018
-381,175	800,000	0,015	0,032
-380,160	-20,455	-0,056	0,025
-379,146	-200,000	-0,005	0,040
-378,131	111,760	0,105	-0,092
-377,117	-200,000	0,001	0,091
-376,102	-200,000	-0,007	-0,068
-375,088	634,202	-0,092	-0,171
-374,073	349,711	-0,027	0,039
-373,058	-18,960	0,080	-0,036
-372,044	23,973	0,043	0,025
-371,029	-200,000	0,003	0,049
-370,015	-121,309	-0,107	-0,013
-369,000	-200,000	0,002	0,032
-367,985	800,000	-0,048	0,098
-366,971	192,639	0,073	-0,080
-365,956	-200,000	0,034	-0,148
-364,942	444,568	0,061	0,098
-363,927	66,937	-0,089	-0,066
-362,912	-45,967	0,104	0,037
-361,898	800,000	-0,048	0,124
-360,883	800,000	-0,022	0,051
-359,869	-129,835	-0,052	-0,005
-358,854	202,746	0,052	-0,058
-357,839	-42,925	-0,057	-0,021
-356,825	299,113	-0,083	-0,111
-355,810	-55,333	0,104	0,034
-354,796	44,768	-0,025	-0,017
-353,781	-200,000	-0,015	0,087
-352,766	-72,023	-0,083	-0,022
-351,752	-93,446	0,122	-0,024
-350,737	441,346	-0,023	0,036
-349,723	332,508	0,020	0,027
-348,708	143,255	0,074	0,071
-347,693	-200,000	0,010	-0,074
-346,679	-151,652	-0,062	0,003
-345,664	-200,000	0,001	-0,018
-344,650	800,000	-0,049	0,109
-343,635	-200,000	-0,002	0,062
-342,620	800,000	0,009	0,019
-341,606	-200,000	-0,021	-0,073
-340,591	174,573	-0,100	-0,105
-339,577	236,179	-0,033	0,040
-338,562	101,467	0,144	-0,121
-337,548	-112,018	0,054	-0,008
-336,533	800,000	0,027	0,082
-335,518	198,808	0,068	-0,075
-334,504	-104,125	0,088	0,015
-333,489	276,256	0,111	-0,143
-332,475	139,359	-0,057	0,055
-331,460	-98,344	-0,046	0,009
-330,445	-103,324	0,092	0,016
-329,431	-200,000	0,042	0,158
-328,416	800,000	0,060	0,171
-327,402	112,392	-0,035	0,030
-326,387	800,000	-0,020	0,059
-325,372	-200,000	0,008	-0,037
-324,358	-45,628	-0,162	0,058
-323,343	64,238	0,081	-0,059
-322,329	800,000	-0,011	0,025
-321,314	-200,000	-0,017	-0,128
-320,299	800,000	0,046	-0,099
-319,285	800,000	-0,064	0,139
-318,270	-86,819	-0,136	-0,030
-317,256	-64,031	0,084	0,025
-316,241	243,877	-0,085	-0,104
-315,226	197,380	-0,021	-0,023
-314,212	234,842	0,054	0,065
-313,197	-145,310	-0,055	0,004
-312,183	-151,258	0,097	0,005
-311,168	-175,524	-0,073	-0,001
-310,153	-70,411	-0,050	0,014
-309,139	-181,566	-0,094	0,001
-308,124	187,553	0,053	-0,058
-307,110	321,561	0,078	0,108
-306,095	-54,704	0,088	0,029
-305,080	-65,656	0,062	-0,018
-304,066	31,365	-0,080	-0,050
-303,051	-7,538	-0,170	0,083
-302,037	77,255	0,030	-0,023
-301,022	800,000	0,073	0,173
-300,008	-115,629	-0,096	0,013
-298,993	800,000	0,068	0,153
-297,978	-200,000	-0,013	0,218
-296,964	98,600	-0,058	0,048
-295,949	-83,306	-0,107	0,025
-294,935	-111,642	0,211	0,031
-293,920	800,000	0,028	-0,074
-292,905	-13,568	0,092	0,043
-291,891	-6,993	0,109	-0,054
-290,876	-200,000	-0,021	-0,100
-289,862	500,487	-0,094	-0,158
-288,847	639,645	0,077	-0,142
-287,832	63,266	0,049	-0,035
-286,818	-160,522	-0,008	0,000
-285,803	117,832	0,114	0,101
-284,789	165,501	-0,095	0,098
-283,774	732,487	-0,016	0,031
-282,759	-72,413	0,126	0,033
-281,745	-30,709	0,094	0,038
-280,730	-200,000	0,024	-0,083
-279,716	-200,000	-0,015	-0,073
-278,701	-200,000	0,011	0,036
-277,686	-13,176	0,055	-0,026
-276,672	57,151	0,098	0,069
-275,657	-6,821	0,101	0,050
-274,643	-134,494	0,189	0,017
-273,628	342,922	-0,032	-0,046
-272,613	504,726	-0,078	0,131
-271,599	-183,010	0,069	0,001
-270,584	-30,769	-0,072	-0,029
-269,570	81,203	0,044	0,035
-268,555	203,976	0,082	0,093
-267,540	-32,706	-0,139	0,056
-266,526	226,307	0,038	-0,044
-265,511	91,658	-0,032	-0,026
-264,497	342,173	0,098	0,139
-263,482	-19,763	-0,128	-0,057
-262,467	69,232	0,101	0,075
-261,453	-200,000	0,007	0,029
-260,438	-128,289	-0,070	-0,007
-259,424	147,825	0,009	-0,009
-258,409	-98,987	0,161	-0,029
-257,395	800,000	0,033	-0,093
-256,380	-102,598	-0,066	0,011
-255,365	694,385	0,025	-0,048
-254,351	-9,159	-0,064	0,031
-253,336	-18,708	0,121	-0,055
-252,322	800,000	0,007	0,018
-251,307	136,701	-0,037	0,035
-250,292	6,452	-0,106	-0,057
-249,278	30,175	-0,061	-0,037
-248,263	800,000	0,030	-0,088
-247,249	800,000	-0,005	-0,017
-246,234	83,868	-0,066	0,052
-245,219	334,297	-0,062	-0,087
-244,205	800,000	0,030	0,071
-243,190	-200,000	-0,026	0,138
-242,176	548,708	-0,057	-0,099
-241,161	-200,000	0,006	0,106
-240,146	-200,000	0,002	-0,132
-239,132	59,290	-0,049	-0,035
-238,117	-200,000	0,009	0,043
-237,103	800,000	-0,034	0,094
-236,088	214,164	0,062	-0,071
-235,073	243,019	0,016	-0,020
-234,059	-200,000	0,011	-0,069
-233,044	151,861	0,030	0,030
-232,030	800,000	-0,043	-0,113
-231,015	-200,000	0,004	-0,119
-230,000	-200,000	-0,013	-0,095
-228,986	252,007	0,060	0,074
-227,971	-182,754	0,101	0,001
-226,957	-129,802	0,131	0,013
-225,942	226,126	0,061	0,071
-224,927	-200,000	-0,007	0,066
-223,913	690,626	-0,056	0,106
-222,898	123,169	-0,056	0,050
-221,884	336,453	-0,065	0,091
-220,869	-200,000	-0,008	0,155
-219,855	28,393	0,138	0,084
-218,840	-62,668	0,053	0,016
-217,825	-171,673	-0,032	0,001
-216,811	19,409	0,042	0,024
-215,796	-200,000	-0,014	-0,112
-214,782	767,422	-0,040	-0,079
-213,767	579,574	-0,045	0,080
-212,752	70,128	0,086	-0,064
-211,738	-7,698	-0,047	-0,023
-210,723	404,462	0,077	0,118
-209,709	-90,461	-0,209	0,043
-208,694	-122,630	0,061	-0,007
-207,679	416,800	0,054	-0,084
-206,665	-82,698	0,067	0,015
-205,650	402,444	0,039	0,059
-204,636	-33,878	-0,039	0,015
-203,621	243,945	-0,082	-0,099
-202,606	-9,471	0,008	0,004
-201,592	-95,906	-0,147	-0,028
-200,577	440,121	0,026	0,041
-199,563	28,457	-0,129	0,079
-198,548	370,937	0,009	0,013
-197,533	424,486	0,041	-0,063
-196,519	-200,000	0,006	-0,038
-195,504	-114,376	-0,046	-0,006
-194,490	170,953	-0,040	-0,041
-193,475	800,000	-0,060	-0,123
-192,460	8,658	-0,069	0,037
-191,446	-200,000	-0,010	0,038
-190,431	290,065	0,009	0,012
-189,417	-181,155	-0,069	0,001
-188,402	39,467	-0,120	0,077
-187,387	-200,000	0,048	-0,162
-186,373	231,543	0,025	-0,030
-185,358	183,785	-0,122	-0,130
-184,344	-45,714	0,101	0,036
-183,329	29,476	0,074	0,046
-182,315	-131,946	0,119	0,011
-181,300	75,273	0,092	0,070
-180,285	-63,279	-0,120	-0,036
-179,271	-200,000	-0,004	-0,100
-178,256	479,569	0,069	0,114
-177,242	-200,000	0,002	0,050
-176,227	499,911	-0,036	-0,060
-175,212	402,040	0,035	0,054
-174,198	335,857	0,044	-0,062
-173,183	403,552	0,028	-0,042
-172,169	800,000	-0,052	0,114
-171,154	800,000	0,061	-0,158
-170,139	44,254	0,034	-0,023
-169,125	-120,438	0,034	-0,004
-168,110	52,361	0,128	0,088
-167,096	379,648	-0,100	-0,148
-166,081	-200,000	0,001	0,099
-165,066	-200,000	-0,016	-0,060
-164,052	122,787	0,102	0,092
-163,037	800,000	0,011	-0,029
-162,023	800,000	0,020	-0,060
-161,008	800,000	-0,007	-0,018
-159,993	800,000	-0,085	0,193
-158,979	-70,917	-0,095	0,025
-157,964	147,855	-0,084	-0,082
-156,950	105,401	0,068	-0,058
-155,935	80,503	-0,073	-0,056
-154,920	-200,000	0,013	0,115
-153,906	-200,000	0,025	0,097
-152,891	56,580	-0,024	0,017
-151,877	-76,272	0,210	0,053
-150,862	-98,675	-0,128	0,023
-149,847	-4,095	0,021	-0,011
-148,833	84,325	0,022	-0,017
-147,818	-60,678	-0,178	-0,054
-146,804	-15,554	-0,054	-0,025
-145,789	-94,099	-0,209	0,041
-144,775	800,000	0,040	-0,106
-143,760	-68,727	0,162	0,045
-142,745	800,000	0,027	-0,055
-141,731	800,000	0,031	0,072
-140,716	-114,381	-0,084	-0,011
-139,702	800,000	0,009	-0,020
-138,687	152,166	0,017	0,017
-137,672	-200,000	-0,034	-0,160
-136,658	800,000	0,027	-0,055
-135,643	66,262	-0,072	-0,053
-134,629	-143,987	-0,170	0,011
-133,614	312,166	-0,048	-0,065
-132,599	724,161	0,050	0,097
-131,585	641,713	0,067	-0,123
-130,570	-116,171	0,011	0,001
-129,556	121,245	-0,019	-0,017
-128,541	114,451	-0,050	-0,044
-127,526	54,673	0,074	0,051
-126,512	-116,302	-0,121	-0,016
-125,497	800,000	0,038	-0,078
-124,483	800,000	0,024	0,051
-123,468	-15,646	0,094	0,043
-122,453	-200,000	-0,030	0,159
-121,439	-77,086	0,080	0,020
-120,424	800,000	-0,029	0,061
-119,410	-118,842	0,062	0,008
-118,395	-200,000	-0,032	0,120
-117,380	800,000	0,007	-0,019
-116,366	-200,000	0,049	-0,158
-115,351	255,808	-0,055	-0,068
-114,337	-97,155	-0,065	0,012
-113,322	800,000	-0,017	0,046
-112,307	513,508	0,049	0,082
-111,293	90,842	0,018	-0,015
-110,278	-200,000	0,020	-0,085
-109,264	-192,984	0,103	0,001
-108,249	-183,846	0,054	0,001
-107,234	512,642	0,080	-0,135
-106,220	-200,000	-0,003	-0,035
-105,205	131,597	0,099	0,092
-104,191	-200,000	-0,006	0,051
-103,176	800,000	-0,051	0,130
-102,162	89,392	0,090	0,072
-101,147	166,533	0,044	0,044
-100,132	612,288	0,006	-0,011
-99,118	24,466	0,125	0,074
-98,103	800,000	-0,067	0,173
-97,089	-200,000	-0,017	-0,148
-96,074	87,295	0,039	-0,031
-95,059	219,494	0,061	0,070
-94,045	164,048	0,036	0,036
-93,030	-110,970	-0,114	-0,017
-92,016	261,189	-0,011	-0,014
-91,001	800,000	-0,047	0,129
-89,986	-72,477	-0,038	0,010
-88,972	125,122	0,087	0,079
-87,957	678,724	-0,031	0,058
-86,943	-200,000	-0,020	0,118
-85,928	800,000	0,030	-0,089
-84,913	-200,000	-0,017	-0,054
-83,899	633,089	-0,034	-0,062
-82,884	-185,980	0,084	0,001
-81,870	382,032	-0,030	-0,044
-80,855	3,717	0,086	-0,045
-79,840	406,039	0,058	-0,089
-78,826	50,344	0,052	-0,035
-77,811	-8,908	-0,053	-0,025
-76,797	-200,000	-0,010	0,113
-75,782	-43,360	0,085	-0,031
-74,767	96,379	0,094	0,077
-73,753	384,343	-0,091	0,135
-72,738	29,968	-0,133	-0,081
-71,724	-17,696	0,044	-0,020
-70,709	-163,921	-0,145	-0,005
-69,694	-143,510	0,133	-0,009
-68,680	403,483	0,044	-0,067
-67,665	-200,000	-0,002	-0,082
-66,651	-200,000	0,023	0,123
-65,636	800,000	-0,043	0,093
-64,622	-163,694	0,150	-0,005
-63,607	800,000	0,017	0,035
-62,592	53,433	0,077	0,053
-61,578	795,094	0,032	-0,064
-60,563	-200,000	0,011	0,167
-59,549	136,093	-0,147	0,137
-58,534	36,454	-1,972	-1,246
-57,519	-200,000	-0,194	-0,857
-56,505	-200,000	-1,325	-4,921
-55,490	87,105	0,954	0,756
-54,476	800,000	5,073	11,506
-53,461	-200,000	17,749	290,514
-52,446	800,000	726,938	2230,618
-51,432	536,177	1639,525	2802,700
-50,417	109,561	1629,305	1400,362
-49,403	73,095	1283,399	961,441
-48,388	31,513	1026,116	631,366
-47,373	19,949	988,334	570,029
-46,359	18,343	976,128	557,710
-45,344	15,543	972,218	546,301
-44,330	15,721	970,857	546,096
-43,315	15,342	968,787	543,676
-42,300	15,242	968,008	542,893
-41,286	15,217	966,834	542,131
-40,271	15,228	965,873	541,607
-39,257	15,207	965,286	541,188
-38,242	15,268	964,037	540,664
-37,227	15,295	963,340	540,337
-36,213	15,216	962,553	539,621
-35,198	15,165	961,745	538,981
-34,184	15,222	960,986	538,719
-33,169	15,117	960,014	537,812
-32,154	15,242	959,127	537,697
-31,140	15,277	958,060	537,191
-30,125	15,219	957,525	536,683
-29,111	15,267	956,699	536,354
-28,096	15,278	956,052	536,005
-27,082	15,260	955,335	535,523
-26,067	15,258	954,526	535,042
-25,052	15,251	953,631	534,495
-24,038	15,179	953,139	533,968
-23,023	15,172	952,389	533,506
-22,009	15,236	951,823	533,371
-20,994	15,274	951,055	533,041
-19,979	15,295	950,495	532,772
-18,965	15,237	949,978	532,276
-17,950	15,238	949,357	531,913
-16,936	15,175	948,781	531,367
-15,921	15,226	948,007	531,073
-14,906	15,135	947,242	530,334
-13,892	15,082	946,717	529,852
-12,877	15,090	946,063	529,491
-11,863	15,090	945,226	529,001
-10,848	15,143	944,926	528,981
-9,833	15,203	944,521	528,924
-8,819	15,158	943,912	528,418
-7,804	15,153	943,118	527,938
-6,790	15,088	942,512	527,370
-5,775	15,121	942,072	527,209
-4,760	15,175	941,351	526,955
-3,746	15,186	940,689	526,598
-2,731	15,000	940,196	525,712
-1,717	14,985	939,338	525,165
-0,702	14,993	938,628	524,773
0,313	14,737	938,249	524,546
1,327	18,192	936,053	534,143
2,342	27,318	789,746	474,684
3,356	23,732	444,717	261,968
4,371	-5,609	295,484	144,735
5,386	-9,431	277,172	132,132
6,400	-10,828	271,522	128,128
7,415	-10,999	269,320	126,921
8,429	-10,884	267,756	126,278
9,444	-10,953	267,024	125,858
10,459	-11,132	266,482	125,428
11,473	-11,065	265,586	125,057
12,488	-11,212	265,162	124,712
13,502	-11,368	264,602	124,296
14,517	-11,270	264,380	124,270
15,531	-11,312	263,848	123,971
16,546	-11,054	263,538	124,046
17,561	-11,165	263,159	123,757
18,575	-11,026	262,717	123,663
19,590	-11,315	262,420	123,253
20,604	-11,159	262,176	123,267
21,619	-11,099	261,842	123,153
22,634	-11,085	261,297	122,898
23,648	-11,214	261,194	122,724
24,663	-11,271	261,022	122,580
25,677	-11,272	260,580	122,362
26,692	-11,374	260,364	122,158
27,707	-11,342	260,066	122,036
28,721	-11,240	259,829	122,005
29,736	-11,289	259,554	121,821
30,750	-11,369	259,243	121,593
31,765	-11,305	259,064	121,555
32,780	-11,453	258,862	121,319
33,794	-11,326	258,534	121,266
34,809	-11,101	258,329	121,358
35,823	-11,376	258,001	120,951
36,838	-11,354	257,767	120,850
37,853	-11,438	257,768	120,765
38,867	-11,538	257,361	120,476
39,882	-11,396	257,144	120,488
40,896	-11,327	256,868	120,409
41,911	-11,490	256,666	120,161
42,926	-11,444	256,487	120,106
43,940	-11,379	256,157	119,998
44,955	-11,439	256,010	119,866
45,969	-11,579	255,725	119,600
46,984	-11,698	255,295	119,284
47,999	-11,752	255,035	119,105
49,013	-11,901	254,743	118,829
50,028	-12,148	254,541	118,510
51,042	-12,485	254,522	118,198
52,057	-12,369	254,161	118,120
53,071	-12,390	254,059	118,044
54,086	-12,027	253,773	118,215
55,101	-11,888	253,640	118,262
56,115	-11,917	253,644	118,228
57,130	-11,338	253,424	118,616
58,144	-10,973	253,122	118,778
59,159	-11,194	253,170	118,600
60,174	-11,306	252,846	118,341
61,188	-11,249	252,636	118,281
62,203	-11,070	252,344	118,288
63,217	-11,233	252,099	118,022
64,232	-11,231	251,993	117,964
65,247	-11,451	251,794	117,671
66,261	-11,191	251,503	117,748
67,276	-11,540	251,069	117,236
68,290	-11,633	250,927	117,079
69,305	-11,862	250,744	116,788
70,320	-11,730	250,572	116,810
71,334	-11,542	250,574	116,961
72,349	-11,196	250,287	117,112
73,363	-11,124	250,130	117,089
74,378	-11,226	249,918	116,893
75,393	-11,301	249,611	116,675
76,407	-11,121	249,325	116,684
77,422	-11,322	249,296	116,488
78,436	-11,330	249,076	116,369
79,451	-11,366	249,005	116,295
80,466	-11,266	248,467	116,118
81,480	-11,615	248,386	115,775
82,495	-11,580	248,167	115,692
83,509	-11,549	248,103	115,678
84,524	-11,557	247,722	115,483
85,539	-11,776	247,582	115,223
86,553	-11,758	247,527	115,203
87,568	-11,723	247,211	115,074
88,582	-11,649	247,208	115,125
89,597	-11,680	246,729	114,866
90,611	-11,504	246,747	115,011
91,626	-11,290	246,522	115,075
92,641	-11,297	246,307	114,959
93,655	-11,420	246,194	114,793
94,670	-11,492	245,772	114,526
95,684	-11,323	245,688	114,618
96,699	-11,518	245,498	114,356
97,714	-11,303	245,226	114,398
98,728	-11,666	245,083	114,019
99,743	-11,724	244,933	113,891
100,757	-11,616	244,587	113,810
101,772	-11,693	244,484	113,688
102,787	-11,616	244,439	113,721
103,801	-11,650	244,233	113,587
104,816	-11,639	244,087	113,518
105,830	-11,388	243,947	113,650
106,845	-11,121	243,742	113,766
107,860	-11,282	243,470	113,495
108,874	-11,537	243,223	113,160
109,889	-11,758	243,202	112,958
110,903	-11,465	242,875	113,037
111,918	-11,588	242,827	112,903
112,933	-11,364	242,538	112,943
113,947	-11,373	242,346	112,836
114,962	-11,307	242,248	112,835
115,976	-11,264	241,995	112,742
116,991	-11,372	241,839	112,571
118,006	-11,354	241,740	112,529
119,020	-11,118	241,533	112,616
120,035	-11,196	241,452	112,505
121,049	-11,273	241,293	112,357
122,064	-11,518	241,323	112,161
123,079	-11,513	240,977	111,995
124,093	-11,496	240,658	111,850
125,108	-11,492	240,342	111,696
126,122	-11,772	240,180	111,383
127,137	-11,940	239,911	111,112
128,151	-11,948	239,991	111,133
129,166	-11,815	239,811	111,147
130,181	-11,784	239,507	111,022
131,195	-11,732	239,262	110,941
132,210	-11,684	239,168	110,926
133,224	-11,501	239,123	111,043
134,239	-11,432	238,723	110,903
135,254	-11,343	238,706	110,958
136,268	-11,343	238,407	110,809
137,283	-11,763	238,154	110,342
138,297	-11,834	238,003	110,205
139,312	-11,868	237,757	110,054
140,327	-11,587	237,812	110,296
141,341	-11,141	237,787	110,634
142,356	-11,125	237,628	110,563
143,370	-11,165	237,515	110,468
144,385	-11,035	237,303	110,464
145,400	-10,988	237,131	110,412
146,414	-10,931	236,921	110,350
147,429	-11,114	236,547	110,019
148,443	-11,044	236,484	110,036
149,458	-11,185	236,426	109,886
150,473	-11,054	236,123	109,841
151,487	-11,158	236,000	109,690
152,502	-11,122	235,893	109,660
153,516	-11,181	235,796	109,558
154,531	-11,042	235,551	109,545
155,546	-11,195	235,448	109,366
156,560	-11,256	235,139	109,164
157,575	-11,136	234,775	109,081
158,589	-11,331	234,772	108,914
159,604	-11,040	234,639	109,074
160,619	-11,030	234,586	109,048
161,633	-10,787	234,262	109,079
162,648	-11,098	234,286	108,835
163,662	-11,019	234,035	108,771
164,677	-11,229	233,931	108,547
165,692	-11,134	233,737	108,522
166,706	-10,935	233,710	108,657
167,721	-10,921	233,442	108,534
168,735	-10,830	233,240	108,501
169,750	-11,164	233,190	108,206
170,764	-11,145	233,105	108,172
171,779	-11,013	232,844	108,145
172,794	-10,884	232,625	108,135
173,808	-11,265	232,622	107,825
174,823	-11,621	232,121	107,305
175,837	-11,721	232,032	107,175
176,852	-11,285	231,987	107,485
177,867	-11,066	231,853	107,586
178,881	-11,126	231,777	107,493
179,896	-10,866	231,484	107,551
180,910	-10,844	231,406	107,523
181,925	-10,913	231,307	107,413
182,940	-11,019	231,098	107,224
183,954	-10,946	230,944	107,200
184,969	-10,817	230,912	107,276
185,983	-10,845	230,767	107,177
186,998	-10,788	230,515	107,095
188,013	-10,723	230,438	107,100
189,027	-10,898	230,205	106,846
190,042	-10,910	230,066	106,763
191,056	-10,844	229,852	106,705
192,071	-10,836	229,676	106,620
193,086	-10,971	229,476	106,414
194,100	-10,816	229,445	106,509
195,115	-10,923	229,017	106,219
196,129	-11,439	228,860	105,738
197,144	-6,482	230,661	110,408
198,159	-0,098	232,543	116,277
199,173	3,106	233,341	119,166
200,188	3,419	233,219	119,337
201,202	3,321	233,118	119,199
202,217	3,634	232,862	119,300
203,232	3,796	232,892	119,431
204,246	3,739	232,742	119,299
205,261	4,025	232,526	119,400
206,275	3,875	232,539	119,280
207,290	3,915	232,416	119,237
208,304	3,802	232,263	119,060
209,319	3,888	232,073	119,019
210,334	4,010	231,782	118,953
211,348	3,468	231,628	118,445
212,363	3,246	231,314	118,102
213,377	3,094	231,241	117,937
214,392	3,010	230,976	117,727
215,407	3,041	230,919	117,711
216,421	3,242	230,686	117,737
217,436	3,126	230,587	117,587
218,450	2,726	230,381	117,163
219,465	2,807	230,158	117,101
220,480	2,976	229,867	117,072
221,494	2,833	229,913	116,976
222,509	3,220	229,815	117,213
223,523	3,065	229,688	117,019
224,538	2,943	229,430	116,783
225,553	3,028	229,377	116,811
226,567	3,231	229,220	116,876
227,582	3,274	229,274	116,926
228,596	3,561	229,096	117,043
229,611	3,332	228,669	116,640
230,626	2,898	228,575	116,252
231,640	2,801	228,375	116,066
232,655	3,331	228,381	116,462
233,669	3,582	228,498	116,701
234,684	3,750	228,224	116,678
235,699	3,477	228,113	116,404
236,713	3,200	227,771	116,010
237,728	3,076	227,666	115,852
238,742	2,929	227,479	115,635
239,757	3,169	227,354	115,743
240,772	2,913	227,142	115,431
241,786	3,114	226,973	115,487
242,801	3,366	226,820	115,589
243,815	3,523	226,865	115,720
244,830	3,478	226,574	115,527
245,844	3,321	226,363	115,291
246,859	3,131	226,183	115,046
247,874	3,422	226,078	115,201
248,888	3,537	225,795	115,133
249,903	3,212	225,921	114,943
250,917	3,158	225,736	114,798
251,932	3,165	225,415	114,630
252,947	3,110	225,233	114,486
253,961	3,001	225,234	114,395
254,976	3,168	225,001	114,391
255,990	3,207	224,971	114,395
257,005	3,230	224,943	114,387
258,020	3,221	224,737	114,266
259,034	3,480	224,729	114,444
260,049	3,402	224,484	114,252
261,063	3,212	224,331	114,022
262,078	3,383	224,157	114,051
263,093	3,537	223,986	114,068
264,107	3,353	223,916	113,885
265,122	3,455	223,706	113,844
266,136	3,679	223,720	114,008
267,151	3,662	223,465	113,855
268,166	3,061	223,120	113,224
269,180	3,083	222,920	113,129
270,195	3,155	222,921	113,173
271,209	3,020	222,830	113,016
272,224	3,228	222,547	113,017
273,239	3,214	222,441	112,942
274,253	3,224	222,259	112,847
275,268	2,958	222,027	112,523
276,282	2,866	221,866	112,364
277,297	2,895	221,725	112,303
278,312	3,046	221,669	112,376
279,326	3,158	221,617	112,422
280,341	3,331	221,452	112,455
281,355	3,395	221,393	112,463
282,370	3,145	221,156	112,148
283,384	2,755	220,970	111,758
284,399	2,702	220,720	111,584
285,414	2,752	220,701	111,600
286,428	2,879	220,703	111,684
287,443	3,331	220,606	111,956
288,457	3,327	220,417	111,847
289,472	2,987	220,286	111,523
290,487	2,748	219,923	111,155
291,501	2,787	219,642	111,031
292,516	3,006	219,543	111,131
293,530	2,989	219,503	111,088
294,545	2,874	219,429	110,957
295,560	3,096	219,419	111,103
296,574	3,175	219,148	111,013
297,589	3,099	218,994	110,870
298,603	3,247	218,821	110,880
299,618	3,285	218,690	110,831
300,633	3,162	218,795	110,785
301,647	3,466	218,593	110,894
302,662	3,299	218,399	110,664
303,676	3,414	218,266	110,670
304,691	3,299	218,097	110,492
305,706	3,296	218,113	110,488
306,720	3,532	217,745	110,461
307,735	3,083	217,559	110,034
308,749	3,058	217,548	110,001
309,764	3,194	217,391	110,009
310,779	3,260	217,342	110,022
311,793	3,225	217,174	109,902
312,808	3,202	217,126	109,852
313,822	3,065	216,773	109,565
314,837	3,073	216,704	109,526
315,852	3,000	216,494	109,358
316,866	3,020	216,396	109,313
317,881	3,196	216,298	109,379
318,895	3,360	216,188	109,431
319,910	3,058	216,132	109,177
320,925	2,936	215,812	108,919
321,939	2,639	215,630	108,606
322,954	2,853	215,528	108,697
323,968	3,169	215,577	108,937
324,983	3,284	215,433	108,937
325,997	3,525	215,293	109,028
327,012	3,351	215,074	108,783
328,027	3,177	214,898	108,561
329,041	3,288	214,888	108,625
330,056	3,321	214,589	108,487
331,070	3,065	214,465	108,234
332,085	2,845	214,394	108,033
333,100	2,872	214,339	108,015
334,114	3,626	213,979	108,356
335,129	3,279	214,001	108,113
336,143	3,108	213,917	107,940
337,158	3,253	213,815	107,980
338,173	3,196	213,640	107,843
339,187	3,240	213,489	107,788
340,202	2,969	213,301	107,493
341,216	2,787	213,023	107,215
342,231	3,096	212,925	107,373
343,246	2,895	212,778	107,148
344,260	2,947	212,720	107,146
345,275	3,130	212,694	107,252
346,289	3,360	212,621	107,366
347,304	3,342	212,468	107,267
348,319	3,173	212,147	106,978
349,333	3,197	211,985	106,903
350,348	3,369	212,028	107,035
351,362	3,597	211,783	107,061
352,377	3,405	211,747	106,900
353,392	2,967	211,658	106,540
354,406	3,219	211,582	106,668
355,421	195,952	1339,778	1418,536
356,435	156,553	1477,196	1418,511
