DTS Sentinel unit serial number:	SN410029Multiplexer serial number:	ORYXHardware model number:	OX2-SRSoftware version number:	ORYX F/W v4,00 Oryx Data Collector v3.7.2.0data status	okinstallation	B6 Nyhavnadifferential loss correction	single-endedforward channel	channel 2reverse channel	N/Adate	2023/12/10time	17:30:08forward acquisition time	300,00reverse acquisition time	0,00gamma	499,1914k internal	0,3123k external	0,3123temperature offset calibration	1,0000default loss term (dB/km)	0,3820temperature slope calibration	1,0000multiplexer offset coefficient	1,0000multiplexer slope coefficient	1,0000fibre end	0,00T internal ref (°C)	22,42T ext. ref 1 (°C)	6,07T ext. ref 2 (°C)	6,09length (m)	temperature (°C)	Stokes	anti-Stokes-744,400	317,418	-0,104	-0,147
-743,385	800,000	-0,095	0,234
-742,371	135,753	0,075	0,073
-741,356	211,465	-0,199	0,233
-740,342	-69,701	0,067	0,019
-739,327	-56,293	-0,296	0,098
-738,312	37,570	0,063	0,042
-737,298	-148,281	-0,166	-0,010
-736,283	-93,769	0,074	-0,015
-735,269	-16,009	-0,133	0,063
-734,254	225,278	0,014	0,017
-733,239	-142,850	-0,410	-0,029
-732,225	-28,626	0,131	-0,056
-731,210	-200,000	0,004	-0,017
-730,196	284,405	0,019	-0,026
-729,181	-200,000	0,009	0,092
-728,167	113,201	0,068	0,061
-727,152	-117,484	-0,035	-0,005
-726,137	-200,000	-0,014	0,061
-725,123	-95,281	-0,142	-0,028
-724,108	268,652	-0,080	-0,105
-723,094	35,064	-0,020	-0,013
-722,079	183,230	-0,037	-0,041
-721,064	-36,516	-0,098	-0,039
-720,050	156,444	0,041	-0,042
-719,035	-85,618	0,014	0,003
-718,021	34,123	0,072	0,046
-717,006	20,659	0,111	0,067
-715,991	72,608	-0,124	-0,096
-714,977	800,000	-0,081	-0,220
-713,962	-200,000	0,000	-0,201
-712,948	-14,261	-0,094	0,045
-711,933	699,845	-0,073	-0,144
-710,918	-5,451	-0,219	0,111
-709,904	111,142	0,031	0,027
-708,889	-73,617	-0,210	-0,057
-707,875	211,532	-0,095	-0,112
-706,860	353,385	0,073	-0,108
-705,845	-19,137	0,100	0,046
-704,831	0,743	0,088	0,047
-703,816	800,000	0,045	-0,108
-702,802	-123,678	-0,149	-0,017
-701,787	-42,122	-0,054	0,020
-700,772	-200,000	-0,016	-0,195
-699,758	38,466	0,052	0,034
-698,743	115,092	0,107	0,098
-697,729	800,000	-0,048	0,104
-696,714	-200,000	-0,008	-0,121
-695,699	-21,985	0,056	-0,025
-694,685	800,000	-0,050	-0,156
-693,670	412,458	-0,085	-0,135
-692,656	-200,000	-0,006	-0,038
-691,641	297,789	-0,056	-0,077
-690,627	389,913	0,048	0,074
-689,612	88,727	-0,019	0,015
-688,597	-200,000	0,011	0,055
-687,583	52,017	-0,025	0,017
-686,568	327,997	-0,027	-0,038
-685,554	-47,011	-0,074	0,027
-684,539	800,000	0,049	0,104
-683,524	-104,401	-0,140	-0,024
-682,510	504,639	0,033	0,057
-681,495	-200,000	-0,007	-0,085
-680,481	112,144	-0,114	-0,102
-679,466	43,207	-0,100	-0,068
-678,451	20,299	0,078	-0,047
-677,437	-200,000	-0,021	0,116
-676,422	-71,022	0,093	0,026
-675,408	-200,000	0,010	0,046
-674,393	-200,000	-0,012	0,093
-673,378	-70,524	-0,091	-0,025
-672,364	638,438	-0,035	-0,067
-671,349	-200,000	0,014	-0,061
-670,335	-53,146	-0,035	-0,012
-669,320	-115,315	0,068	0,009
-668,305	-200,000	-0,004	-0,131
-667,291	-85,956	-0,144	0,033
-666,276	59,628	-0,055	-0,040
-665,262	48,661	-0,078	-0,054
-664,247	800,000	0,004	0,011
-663,232	800,000	-0,046	-0,131
-662,218	71,544	-0,169	0,131
-661,203	-200,000	0,022	0,110
-660,189	-200,000	-0,004	0,095
-659,174	800,000	0,012	0,038
-658,159	-200,000	0,032	-0,221
-657,145	-55,854	-0,067	-0,022
-656,130	67,047	0,126	-0,095
-655,116	-200,000	-0,009	-0,032
-654,101	800,000	-0,019	-0,057
-653,086	18,454	-0,088	-0,052
-652,072	157,640	-0,039	0,040
-651,057	8,660	0,093	-0,052
-650,043	592,881	-0,079	-0,146
-649,028	83,250	-0,016	0,013
-648,014	-57,561	0,067	-0,022
-646,999	189,363	0,022	0,024
-645,984	429,873	0,076	0,123
-644,970	-11,293	-0,118	-0,057
-643,955	-146,338	0,049	-0,003
-642,941	88,329	-0,067	-0,056
-641,926	339,499	0,029	-0,041
-640,911	3,323	0,151	-0,082
-639,897	141,219	-0,078	0,076
-638,882	-200,000	-0,010	-0,064
-637,868	259,781	0,034	-0,043
-636,853	218,117	-0,086	-0,102
-635,838	-86,856	-0,140	-0,031
-634,824	-137,397	0,128	0,011
-633,809	-113,722	0,019	-0,003
-632,795	11,672	0,118	-0,067
-631,780	800,000	0,002	-0,005
-630,765	156,447	-0,056	0,057
-629,751	-174,803	0,117	0,002
-628,736	-142,987	-0,047	0,003
-627,722	108,853	-0,113	-0,101
-626,707	-74,696	0,100	-0,027
-625,692	-200,000	-0,023	-0,144
-624,678	-79,549	0,056	-0,014
-623,663	238,992	0,085	-0,105
-622,649	26,410	-0,097	-0,060
-621,634	587,365	-0,079	0,145
-620,619	800,000	0,043	-0,102
-619,605	-200,000	-0,087	0,000
-618,590	-112,089	-0,021	0,003
-617,576	71,334	0,097	-0,074
-616,561	85,354	0,061	0,050
-615,546	-116,611	-0,107	0,014
-614,532	800,000	-0,060	-0,127
-613,517	44,226	0,033	-0,022
-612,503	-200,000	-0,006	-0,097
-611,488	-187,206	-0,013	0,000
-610,474	94,596	0,050	-0,042
-609,459	251,399	-0,015	0,019
-608,444	-37,336	-0,090	0,036
-607,430	-89,695	0,180	-0,039
-606,415	-200,000	-0,020	-0,100
-605,401	-200,000	0,005	-0,033
-604,386	191,487	0,068	0,075
-603,371	142,745	-0,021	-0,020
-602,357	-200,000	0,014	-0,068
-601,342	341,421	-0,111	-0,162
-600,328	4,210	0,052	0,028
-599,313	-200,000	-0,001	-0,159
-598,298	-200,000	-0,003	-0,113
-597,284	-122,790	0,142	0,017
-596,269	-200,000	0,075	-0,000
-595,255	800,000	-0,066	0,146
-594,240	40,374	0,047	-0,031
-593,225	800,000	-0,068	-0,140
-592,211	135,397	0,039	-0,038
-591,196	800,000	0,015	0,032
-590,182	-200,000	0,016	-0,070
-589,167	-73,192	-0,142	-0,038
-588,152	-200,000	0,028	0,162
-587,138	144,587	-0,042	-0,041
-586,123	-139,273	-0,100	0,008
-585,109	-200,000	-0,009	0,041
-584,094	800,000	-0,047	-0,139
-583,079	506,028	-0,023	-0,040
-582,065	800,000	0,003	0,007
-581,050	-200,000	0,026	-0,197
-580,036	26,447	0,028	0,017
-579,021	121,907	0,042	-0,039
-578,006	38,474	-0,101	-0,067
-576,992	784,648	-0,046	0,094
-575,977	-200,000	-0,016	0,099
-574,963	523,027	-0,069	0,121
-573,948	239,880	0,109	-0,135
-572,934	-24,585	0,031	-0,013
-571,919	25,829	-0,059	-0,036
-570,904	-40,341	0,047	0,018
-569,890	543,973	-0,033	0,059
-568,875	382,815	-0,066	0,102
-567,861	-45,662	-0,085	-0,031
-566,846	64,365	-0,107	-0,080
-565,831	258,713	-0,038	0,049
-564,817	18,078	0,020	-0,012
-563,802	-200,000	-0,022	-0,084
-562,788	-200,000	0,006	0,066
-561,773	-54,039	0,038	0,013
-560,758	50,244	-0,032	-0,023
-559,744	-200,000	-0,018	0,075
-558,729	154,657	0,021	-0,021
-557,715	-200,000	-0,006	0,023
-556,700	-58,243	-0,039	0,012
-555,685	403,724	-0,023	0,037
-554,671	314,549	-0,080	-0,112
-553,656	126,920	0,086	0,081
-552,642	-127,794	-0,032	-0,003
-551,627	-200,000	0,001	0,014
-550,612	-69,127	-0,050	-0,014
-549,598	495,163	-0,060	-0,102
-548,583	-117,835	-0,111	0,015
-547,569	89,495	0,085	0,070
-546,554	-138,498	-0,135	0,011
-545,539	-15,447	0,098	-0,046
-544,525	27,109	-0,054	-0,033
-543,510	102,457	0,018	0,015
-542,496	-56,676	-0,092	0,030
-541,481	-200,000	-0,011	-0,138
-540,466	176,513	-0,094	-0,101
-539,452	-96,159	-0,137	-0,027
-538,437	-140,369	-0,057	-0,004
-537,423	-179,942	-0,097	0,002
-536,408	615,535	-0,048	-0,089
-535,393	800,000	-0,030	-0,062
-534,379	-200,000	-0,034	0,121
-533,364	-74,579	0,045	0,012
-532,350	-145,468	-0,035	0,002
-531,335	-3,382	-0,008	0,004
-530,321	91,501	0,109	-0,091
-529,306	234,523	-0,067	-0,082
-528,291	800,000	0,042	-0,089
-527,277	-114,904	-0,121	0,017
-526,262	-200,000	0,015	0,059
-525,248	-183,799	0,142	-0,002
-524,233	-2,219	0,071	-0,036
-523,218	-105,058	-0,015	0,002
-522,204	-126,042	-0,048	0,005
-521,189	142,545	-0,029	-0,028
-520,175	514,771	0,033	0,057
-519,160	316,923	-0,048	-0,067
-518,145	212,736	-0,047	0,055
-517,131	-200,000	0,007	0,133
-516,116	800,000	0,019	0,058
-515,102	-200,000	-0,016	0,134
-514,087	71,978	-0,081	0,062
-513,072	686,268	0,043	-0,083
-512,058	-200,000	-0,008	-0,057
-511,043	94,374	0,050	-0,042
-510,029	48,230	0,118	0,082
-509,014	162,359	-0,059	0,061
-507,999	-200,000	-0,014	-0,079
-506,985	198,118	-0,030	0,034
-505,970	800,000	-0,033	-0,085
-504,956	-200,000	0,020	-0,146
-503,941	-200,000	-0,053	0,200
-502,926	-156,029	-0,023	0,001
-501,912	-200,000	-0,015	0,058
-500,897	614,779	0,047	0,087
-499,883	404,238	0,021	-0,033
-498,868	-138,697	0,106	-0,008
-497,853	-200,000	-0,003	-0,180
-496,839	-80,810	-0,086	-0,021
-495,824	580,030	0,042	0,076
-494,810	-162,659	-0,030	0,001
-493,795	-200,000	-0,023	0,189
-492,781	367,731	0,033	0,049
-491,766	129,151	-0,057	0,054
-490,751	28,670	-0,050	-0,031
-489,737	85,138	0,098	-0,079
-488,722	800,000	0,017	-0,037
-487,708	258,883	0,120	0,152
-486,693	753,466	-0,062	0,124
-485,678	40,846	-0,064	0,042
-484,664	127,432	0,071	-0,066
-483,649	148,626	-0,080	-0,080
-482,635	-47,477	0,097	-0,035
-481,620	613,330	0,055	-0,102
-480,605	189,723	0,056	0,062
-479,591	6,444	0,086	-0,047
-478,576	800,000	-0,056	0,150
-477,562	-200,000	0,002	-0,059
-476,547	45,209	0,060	0,040
-475,532	-200,000	0,006	0,074
-474,518	-36,181	0,222	0,088
-473,503	34,811	0,154	0,099
-472,489	800,000	0,033	0,100
-471,474	800,000	-0,010	-0,021
-470,459	293,710	-0,119	-0,160
-469,445	226,853	-0,078	-0,094
-468,430	496,972	0,092	0,157
-467,416	-200,000	-0,025	0,112
-466,401	444,322	0,083	0,135
-465,386	50,242	0,181	0,126
-464,372	-200,000	-0,066	0,228
-463,357	-138,799	-0,085	0,007
-462,343	259,203	-0,061	-0,078
-461,328	130,602	0,068	0,064
-460,313	-200,000	0,009	0,088
-459,299	-75,967	0,068	0,018
-458,284	646,697	-0,049	0,092
-457,270	94,687	0,027	0,023
-456,255	-200,000	0,023	-0,092
-455,241	-98,826	-0,178	0,033
-454,226	137,824	0,061	0,059
-453,211	659,837	0,059	0,113
-452,197	800,000	0,060	0,128
-451,182	54,477	-0,118	0,084
-450,168	134,663	0,050	-0,048
-449,153	-200,000	-0,005	-0,024
-448,138	-29,977	-0,121	0,050
-447,124	-147,693	0,064	0,004
-446,109	-200,000	-0,008	0,071
-445,095	326,613	-0,017	0,024
-444,080	-200,000	-0,005	0,077
-443,065	67,908	0,103	0,077
-442,051	-62,460	-0,082	0,025
-441,036	-200,000	0,038	-0,204
-440,022	-200,000	-0,012	-0,049
-439,007	-200,000	-0,003	0,033
-437,992	800,000	-0,026	0,073
-436,978	334,709	0,032	-0,046
-435,963	800,000	-0,076	-0,158
-434,949	-66,605	-0,052	-0,015
-433,934	400,798	-0,012	-0,019
-432,919	39,113	-0,042	-0,027
-431,905	350,437	-0,023	0,033
-430,890	98,825	0,035	-0,030
-429,876	99,357	-0,028	0,024
-428,861	69,419	0,056	-0,043
-427,846	-36,254	-0,061	-0,024
-426,832	-98,810	-0,052	0,010
-425,817	71,655	-0,023	0,017
-424,803	800,000	-0,026	-0,054
-423,788	-149,624	0,066	0,004
-422,773	11,868	0,083	0,047
-421,759	800,000	0,056	-0,117
-420,744	-200,000	-0,011	-0,171
-419,730	-200,000	0,026	-0,087
-418,715	168,094	-0,079	-0,082
-417,701	113,548	-0,054	-0,048
-416,686	800,000	-0,020	0,062
-415,671	177,239	0,065	0,070
-414,657	-59,709	-0,071	-0,022
-413,642	-200,000	0,001	-0,132
-412,628	-158,793	0,070	-0,003
-411,613	-65,895	-0,080	0,023
-410,598	288,382	0,012	-0,016
-409,584	800,000	0,027	0,076
-408,569	163,338	0,051	0,053
-407,555	-200,000	-0,039	0,186
-406,540	-200,000	-0,011	0,116
-405,525	-200,000	0,009	-0,125
-404,511	800,000	0,008	0,020
-403,496	190,331	0,102	0,113
-402,482	129,706	0,166	0,156
-401,467	-200,000	-0,023	-0,134
-400,452	683,933	-0,055	0,106
-399,438	150,178	-0,064	-0,064
-398,423	685,132	-0,032	0,061
-397,409	234,752	-0,067	-0,081
-396,394	800,000	0,067	0,141
-395,379	-73,490	-0,084	-0,022
-394,365	-168,792	0,127	-0,003
-393,350	2,141	0,049	0,026
-392,336	6,405	0,025	0,014
-391,321	-64,073	0,063	-0,019
-390,306	-90,372	-0,091	-0,019
-389,292	44,444	0,065	0,044
-388,277	19,202	0,085	-0,050
-387,263	81,423	-0,103	0,082
-386,248	-133,094	0,064	-0,006
-385,233	91,921	0,051	-0,042
-384,219	800,000	0,061	0,169
-383,204	-200,000	-0,030	0,147
-382,190	-200,000	-0,018	0,158
-381,175	-54,639	0,030	0,010
-380,160	-67,915	0,115	-0,033
-379,146	-64,961	0,164	-0,048
-378,131	-100,582	0,109	-0,020
-377,117	-112,663	-0,091	0,013
-376,102	50,429	-0,124	-0,086
-375,088	-151,752	-0,053	0,003
-374,073	800,000	0,054	-0,125
-373,058	-200,000	-0,024	0,084
-372,044	587,464	0,019	-0,034
-371,029	-3,537	0,062	0,032
-370,015	162,299	-0,072	0,074
-369,000	18,237	-0,054	-0,032
-367,985	-200,000	-0,013	0,127
-366,971	-137,103	-0,082	-0,007
-365,956	-28,742	0,044	-0,019
-364,942	-200,000	-0,030	0,102
-363,927	-43,204	0,109	0,040
-362,912	-121,323	-0,083	-0,010
-361,898	547,074	0,025	-0,044
-360,883	-200,000	-0,005	-0,042
-359,869	-93,314	0,026	0,005
-358,854	-70,418	0,163	-0,045
-357,839	-133,950	-0,023	-0,002
-356,825	-200,000	0,011	0,103
-355,810	-44,444	0,033	0,012
-354,796	505,572	0,005	0,009
-353,781	39,947	-0,050	-0,033
-352,766	-200,000	0,015	0,095
-351,752	726,047	0,036	-0,071
-350,737	-159,815	-0,087	-0,003
-349,723	214,344	0,043	-0,050
-348,708	8,796	0,094	0,052
-347,693	-200,000	0,001	-0,010
-346,679	-200,000	-0,012	-0,086
-345,664	-200,000	-0,008	-0,057
-344,650	-100,275	0,072	-0,013
-343,635	182,122	-0,067	-0,073
-342,620	-131,237	0,105	-0,010
-341,606	436,843	-0,040	-0,065
-340,591	-200,000	0,017	-0,083
-339,577	41,306	-0,064	-0,043
-338,562	-200,000	0,029	-0,123
-337,548	-200,000	0,007	0,038
-336,533	-42,933	-0,040	0,015
-335,518	611,015	-0,042	0,077
-334,504	349,488	-0,048	0,070
-333,489	-200,000	-0,002	0,009
-332,475	10,104	-0,104	-0,058
-331,460	300,445	0,063	-0,086
-330,445	35,399	0,117	-0,075
-329,431	-200,000	-0,001	0,043
-328,416	245,295	0,074	0,091
-327,402	297,148	0,144	0,194
-326,387	-200,000	-0,008	-0,038
-325,372	23,884	0,038	0,023
-324,358	-91,023	-0,087	0,018
-323,343	64,343	0,095	-0,070
-322,329	-200,000	-0,016	0,160
-321,314	-61,094	0,071	0,022
-320,299	432,889	0,052	0,083
-319,285	-200,000	-0,004	-0,145
-318,270	-0,981	-0,205	-0,106
-317,256	-21,951	-0,081	-0,036
-316,241	800,000	-0,040	0,082
-315,226	-56,599	0,041	0,013
-314,212	-200,000	-0,008	0,164
-313,197	-200,000	0,014	0,103
-312,183	337,970	0,046	-0,066
-311,168	10,423	-0,099	-0,055
-310,153	-71,266	-0,054	0,015
-309,139	27,330	0,101	-0,062
-308,124	-45,643	-0,163	-0,059
-307,110	-182,357	0,107	0,001
-306,095	-200,000	-0,032	0,119
-305,080	151,858	0,083	0,083
-304,066	19,811	-0,052	0,030
-303,051	99,478	0,038	-0,032
-302,037	-108,726	0,097	-0,015
-301,022	196,754	0,134	0,150
-300,008	-200,000	0,014	0,110
-298,993	-176,443	0,106	0,002
-297,978	-193,509	-0,051	0,000
-296,964	2,152	-0,061	-0,032
-295,949	28,517	0,044	-0,027
-294,935	225,188	-0,049	0,058
-293,920	-107,849	-0,121	-0,019
-292,905	223,866	0,131	0,155
-291,891	800,000	-0,045	0,128
-290,876	328,004	0,058	0,082
-289,862	-51,082	-0,090	-0,031
-288,847	19,394	-0,082	0,048
-287,832	-33,850	-0,041	0,017
-286,818	-4,899	0,092	0,046
-285,803	-71,127	-0,132	0,036
-284,789	800,000	0,010	-0,024
-283,774	-128,957	0,138	0,014
-282,759	-200,000	0,010	0,053
-281,745	293,506	0,033	-0,044
-280,730	33,817	-0,030	-0,019
-279,716	-23,088	-0,092	0,040
-278,701	133,231	0,045	0,042
-277,686	295,279	0,056	0,076
-276,672	-54,810	0,030	-0,010
-275,657	329,537	0,058	0,082
-274,643	-111,661	-0,101	-0,015
-273,628	83,088	-0,126	-0,100
-272,613	-200,000	-0,007	-0,030
-271,599	-142,332	0,062	0,004
-270,584	-123,780	-0,046	0,005
-269,570	-200,000	0,030	0,137
-268,555	-200,000	-0,035	0,118
-267,540	78,688	-0,027	0,021
-266,526	800,000	-0,085	-0,178
-265,511	800,000	0,007	-0,015
-264,497	-146,491	-0,061	0,004
-263,482	56,219	0,040	-0,029
-262,467	-200,000	0,008	0,085
-261,453	-147,099	-0,069	-0,004
-260,438	-18,037	-0,027	-0,012
-259,424	232,490	0,035	-0,042
-258,409	-200,000	0,016	-0,056
-257,395	-200,000	0,073	0,000
-256,380	124,940	-0,111	-0,102
-255,365	70,039	0,082	0,062
-254,351	88,149	0,081	-0,066
-253,336	114,085	0,066	0,059
-252,322	242,965	-0,086	-0,105
-251,307	44,512	0,052	-0,035
-250,292	-82,567	0,067	0,016
-249,278	156,368	0,032	-0,033
-248,263	64,755	-0,066	0,049
-247,249	-46,798	0,096	0,034
-246,234	311,118	-0,038	-0,052
-245,219	-74,575	-0,083	0,022
-244,205	410,485	-0,048	0,074
-243,190	316,937	-0,055	-0,076
-242,176	325,085	-0,022	-0,031
-241,161	-25,055	0,125	-0,054
-240,146	53,583	-0,085	0,059
-239,132	-170,838	-0,115	-0,003
-238,117	114,196	-0,107	-0,095
-237,103	222,299	0,057	-0,067
-236,088	728,541	0,044	-0,086
-235,073	-200,000	0,039	0,219
-234,059	-24,307	-0,092	0,040
-233,044	36,648	0,112	0,072
-232,030	-106,873	-0,171	0,027
-231,015	-49,781	-0,080	-0,028
-230,000	-200,000	0,012	0,046
-228,986	-200,000	0,003	-0,041
-227,971	47,417	0,123	0,083
-226,957	304,893	0,051	-0,069
-225,942	29,486	0,149	-0,093
-224,927	81,631	-0,064	-0,050
-223,913	-200,000	0,002	-0,021
-222,898	304,027	-0,125	-0,169
-221,884	-200,000	-0,003	-0,022
-220,869	26,135	0,076	0,046
-219,855	-200,000	-0,005	0,122
-218,840	337,373	-0,066	0,093
-217,825	571,856	0,032	-0,058
-216,811	-200,000	0,033	-0,125
-215,796	800,000	-0,047	-0,103
-214,782	800,000	0,044	-0,123
-213,767	800,000	-0,034	-0,076
-212,752	198,502	-0,082	-0,092
-211,738	800,000	-0,041	-0,110
-210,723	161,304	-0,025	0,026
-209,709	-51,508	0,134	-0,045
-208,694	554,361	-0,092	-0,162
-207,679	-45,031	0,123	-0,045
-206,665	-65,409	-0,134	0,039
-205,650	485,081	0,083	0,139
-204,636	800,000	0,031	0,081
-203,621	-200,000	-0,019	0,151
-202,606	-155,209	-0,093	-0,004
-201,592	368,322	0,027	0,040
-200,577	-200,000	0,025	-0,117
-199,563	410,214	-0,039	-0,061
-198,548	-200,000	0,003	-0,017
-197,533	-191,491	0,073	-0,001
-196,519	-200,000	-0,004	0,154
-195,504	607,128	-0,072	0,131
-194,490	300,269	-0,018	-0,024
-193,475	-200,000	-0,010	0,060
-192,460	687,636	-0,063	-0,120
-191,446	800,000	0,023	-0,075
-190,431	60,259	0,045	0,032
-189,417	63,109	0,050	0,037
-188,402	383,169	-0,093	0,140
-187,387	-59,347	-0,059	-0,018
-186,373	-47,515	0,085	-0,030
-185,358	-117,238	-0,181	0,024
-184,344	89,904	0,065	0,053
-183,329	89,659	-0,042	-0,034
-182,315	-100,077	0,291	-0,052
-181,300	-138,516	-0,041	-0,003
-180,285	-28,243	0,071	0,030
-179,271	264,600	-0,035	-0,045
-178,256	-200,000	-0,008	-0,068
-177,242	20,552	-0,023	-0,014
-176,227	189,687	-0,032	0,035
-175,212	-200,000	0,014	-0,125
-174,198	22,532	0,078	-0,046
-173,183	21,410	-0,131	-0,077
-172,169	51,340	0,103	-0,071
-171,154	-10,552	-0,082	-0,039
-170,139	-126,229	0,036	-0,004
-169,125	800,000	0,054	0,156
-168,110	121,702	0,037	0,034
-167,096	-200,000	0,001	0,007
-166,081	111,468	0,023	-0,020
-165,066	800,000	-0,053	-0,160
-164,052	-200,000	0,001	-0,011
-163,037	800,000	0,044	0,102
-162,023	207,188	-0,053	0,061
-161,008	-5,495	0,058	-0,029
-159,993	-200,000	0,020	0,070
-158,979	800,000	0,024	0,065
-157,964	800,000	0,057	-0,177
-156,950	202,865	0,009	0,010
-155,935	-34,624	-0,127	0,050
-154,920	154,715	0,092	-0,092
-153,906	800,000	0,059	-0,135
-152,891	-42,822	-0,126	-0,046
-151,877	-184,794	0,085	0,001
-150,862	-200,000	-0,004	-0,100
-149,847	800,000	-0,028	-0,059
-148,833	-134,434	0,055	0,005
-147,818	458,156	-0,067	-0,109
-146,804	251,975	0,055	0,068
-145,789	126,258	0,058	-0,053
-144,775	121,971	-0,051	0,047
-143,760	3,243	-0,115	0,061
-142,745	-68,589	0,041	0,011
-141,731	710,809	0,056	0,109
-140,716	613,545	-0,009	-0,017
-139,702	-21,711	0,103	0,045
-138,687	422,510	0,077	0,120
-137,672	14,616	0,132	0,075
-136,658	20,858	-0,162	0,095
-135,643	-200,000	-0,007	0,039
-134,629	-65,012	-0,116	-0,034
-133,614	415,669	0,051	0,079
-132,599	-168,390	0,114	-0,003
-131,585	-71,852	-0,067	0,018
-130,570	153,522	-0,058	0,058
-129,556	800,000	-0,018	-0,054
-128,541	-54,589	-0,073	-0,024
-127,526	800,000	-0,028	0,069
-126,512	73,617	0,071	0,054
-125,497	800,000	0,002	0,005
-124,483	36,983	0,047	0,030
-123,468	-72,115	0,085	0,023
-122,453	78,400	0,025	-0,020
-121,439	800,000	0,098	0,233
-120,424	-106,445	-0,165	0,026
-119,410	800,000	0,032	0,087
-118,395	-200,000	-0,040	0,203
-117,380	16,548	-0,016	0,009
-116,366	130,735	-0,012	0,011
-115,351	79,642	0,078	-0,061
-114,337	203,148	-0,007	-0,008
-113,322	186,919	-0,076	0,083
-112,307	1,055	0,095	-0,049
-111,293	-167,135	0,127	-0,004
-110,278	133,377	0,046	0,043
-109,264	-200,000	-0,017	-0,105
-108,249	-122,192	-0,031	0,004
-107,234	800,000	0,044	0,107
-106,220	800,000	-0,023	-0,067
-105,205	376,785	0,043	0,065
-104,191	102,344	0,055	0,047
-103,176	-200,000	0,018	0,091
-102,162	-200,000	-0,042	0,173
-101,147	33,490	0,054	-0,034
-100,132	210,140	-0,040	-0,045
-99,118	241,114	0,028	-0,034
-98,103	229,509	0,116	0,138
-97,089	-49,652	0,055	-0,019
-96,074	-165,183	0,042	0,001
-95,059	49,402	0,032	0,022
-94,045	-200,000	-0,000	-0,064
-93,030	-200,000	-0,001	0,004
-92,016	58,800	0,035	-0,025
-91,001	-90,782	0,219	0,045
-89,986	-200,000	-0,011	0,141
-88,972	-3,206	-0,048	-0,024
-87,957	623,235	0,041	0,076
-86,943	-124,704	0,110	0,012
-85,928	79,959	-0,059	-0,046
-84,913	-85,471	0,052	-0,012
-83,899	1,047	0,062	-0,032
-82,884	9,896	0,099	-0,054
-81,870	39,183	0,067	0,043
-80,855	-200,000	-0,001	0,043
-79,840	-200,000	-0,013	0,074
-78,826	99,743	-0,123	0,103
-77,811	800,000	-0,052	-0,122
-76,797	155,476	-0,038	-0,038
-75,782	-114,279	0,073	-0,010
-74,767	135,441	0,063	-0,060
-73,753	71,407	-0,068	-0,051
-72,738	192,589	0,110	-0,121
-71,724	-57,357	0,085	-0,027
-70,709	-200,000	0,001	-0,088
-69,694	800,000	0,025	-0,075
-68,680	-97,734	0,202	-0,038
-67,665	166,161	0,092	0,095
-66,651	-200,000	-0,008	0,068
-65,636	800,000	0,049	-0,145
-64,622	-200,000	0,008	-0,052
-63,607	-50,242	-0,174	-0,059
-62,592	168,750	0,130	-0,135
-61,578	124,493	-0,041	-0,037
-60,563	-3,716	-0,128	0,064
-59,549	119,696	-0,101	0,091
-58,534	-169,471	-1,355	-0,035
-57,519	730,959	-0,781	-1,523
-56,505	-200,000	-0,990	-4,522
-55,490	93,814	0,574	-0,472
-54,476	800,000	5,069	11,706
-53,461	-200,000	13,542	253,195
-52,446	-200,000	689,126	2261,503
-51,432	592,897	1622,182	2920,185
-50,417	119,710	1635,433	1470,328
-49,403	73,395	1289,320	978,075
-48,388	38,174	1024,417	660,232
-47,373	24,375	981,815	587,400
-46,359	23,636	971,612	578,850
-45,344	22,644	967,272	573,002
-44,330	22,635	965,904	572,139
-43,315	22,434	964,512	570,634
-42,300	22,438	963,645	570,113
-41,286	22,463	962,545	569,519
-40,271	22,473	961,440	568,878
-39,257	22,424	960,486	568,131
-38,242	22,448	959,653	567,694
-37,227	22,456	958,744	567,159
-36,213	22,393	957,941	566,458
-35,198	22,405	957,040	565,940
-34,184	22,405	956,524	565,615
-33,169	22,346	955,638	564,878
-32,154	22,493	954,760	564,810
-31,140	22,463	953,634	564,024
-30,125	22,496	952,962	563,712
-29,111	22,473	952,052	563,075
-28,096	22,434	951,635	562,683
-27,082	22,418	950,933	562,192
-26,067	22,481	949,940	561,787
-25,052	22,490	949,099	561,295
-24,038	22,445	948,754	560,925
-23,023	22,416	948,016	560,373
-22,009	22,462	947,419	560,146
-20,994	22,538	946,626	559,897
-19,979	22,500	946,056	559,415
-18,965	22,493	945,532	559,063
-17,950	22,518	944,716	558,635
-16,936	22,405	944,154	557,922
-15,921	22,407	943,436	557,482
-14,906	22,328	942,770	556,814
-13,892	22,352	942,250	556,561
-12,877	22,356	941,516	556,120
-11,863	22,293	940,835	555,496
-10,848	22,283	940,466	555,222
-9,833	22,421	939,980	555,352
-8,819	22,473	939,249	555,064
-7,804	22,351	938,608	554,274
-6,790	22,330	938,016	553,838
-5,775	22,398	937,361	553,645
-4,760	22,343	936,765	553,097
-3,746	22,357	936,303	552,844
-2,731	22,197	935,498	551,844
-1,717	22,138	934,850	551,254
-0,702	22,115	934,073	550,701
0,313	21,949	933,562	550,706
1,327	24,955	931,502	558,895
2,342	34,425	796,218	502,958
3,356	32,323	451,481	282,000
4,371	1,605	293,348	152,619
5,386	-2,834	274,159	138,430
6,400	-4,350	268,298	134,055
7,415	-4,799	265,871	132,419
8,429	-4,525	264,766	132,107
9,444	-4,485	263,934	131,717
10,459	-4,450	263,149	131,345
11,473	-4,395	262,459	131,039
12,488	-4,568	261,970	130,627
13,502	-4,728	261,449	130,211
14,517	-4,619	260,971	130,059
15,531	-4,565	260,729	129,976
16,546	-4,386	260,346	129,934
17,561	-4,698	260,161	129,550
18,575	-4,482	259,556	129,431
19,590	-4,497	259,305	129,281
20,604	-4,658	259,012	128,980
21,619	-4,668	258,557	128,732
22,634	-4,543	258,266	128,687
23,648	-4,437	257,937	128,606
24,663	-4,667	257,859	128,351
25,677	-4,707	257,644	128,197
26,692	-4,728	257,380	128,036
27,707	-4,575	257,041	127,991
28,721	-4,478	256,746	127,919
29,736	-4,902	256,766	127,542
30,750	-4,770	256,311	127,422
31,765	-4,648	255,926	127,326
32,780	-4,600	255,794	127,292
33,794	-4,698	255,634	127,114
34,809	-4,708	255,464	127,010
35,823	-4,689	255,162	126,865
36,838	-4,787	254,903	126,639
37,853	-4,820	254,724	126,509
38,867	-4,870	254,393	126,290
39,882	-4,664	254,118	126,322
40,896	-4,781	254,052	126,176
41,911	-4,584	253,630	126,127
42,926	-4,822	253,549	125,868
43,940	-4,635	253,190	125,842
44,955	-4,759	253,024	125,640
45,969	-5,025	252,798	125,284
46,984	-5,203	252,529	124,986
47,999	-5,396	252,344	124,715
49,013	-5,396	252,084	124,576
50,028	-5,393	251,779	124,417
51,042	-5,392	251,417	124,228
52,057	-5,668	251,236	123,888
53,071	-5,755	251,186	123,777
54,086	-5,460	250,975	123,917
55,101	-5,383	250,820	123,896
56,115	-5,164	250,720	124,025
57,130	-4,766	250,647	124,320
58,144	-4,452	250,495	124,504
59,159	-4,577	250,292	124,285
60,174	-4,320	250,020	124,359
61,188	-4,601	249,891	124,042
62,203	-4,553	249,702	123,979
63,217	-4,675	249,377	123,702
64,232	-4,597	249,150	123,645
65,247	-4,702	249,044	123,492
66,261	-4,665	248,851	123,417
67,276	-4,870	248,488	123,051
68,290	-4,863	248,099	122,853
69,305	-5,132	248,113	122,620
70,320	-5,044	247,821	122,539
71,334	-4,920	247,756	122,602
72,349	-4,556	247,594	122,820
73,363	-4,447	247,454	122,832
74,378	-4,740	247,348	122,520
75,393	-4,763	246,937	122,286
76,407	-4,660	246,695	122,242
77,422	-4,814	246,625	122,066
78,436	-4,502	246,312	122,164
79,451	-4,607	246,131	121,975
80,466	-4,800	246,019	121,746
81,480	-4,825	245,642	121,528
82,495	-5,010	245,475	121,278
83,509	-4,720	245,240	121,395
84,524	-5,045	245,178	121,080
85,539	-4,952	244,915	121,018
86,553	-5,114	244,728	120,779
87,568	-5,023	244,557	120,760
88,582	-4,911	244,237	120,685
89,597	-4,812	244,185	120,731
90,611	-4,879	244,135	120,640
91,626	-4,641	243,980	120,751
92,641	-4,601	243,793	120,682
93,655	-4,674	243,389	120,410
94,670	-4,849	243,311	120,214
95,684	-4,948	243,297	120,114
96,699	-5,071	243,096	119,902
97,714	-5,042	242,800	119,770
98,728	-5,116	242,619	119,608
99,743	-4,899	242,214	119,578
100,757	-5,318	242,199	119,212
101,772	-5,138	241,952	119,229
102,787	-5,009	241,645	119,174
103,801	-4,947	241,675	119,229
104,816	-4,887	241,659	119,261
105,830	-4,823	241,480	119,214
106,845	-4,415	241,009	119,308
107,860	-4,658	241,005	119,095
108,874	-4,859	240,844	118,839
109,889	-4,857	240,517	118,669
110,903	-4,901	240,305	118,517
111,918	-5,054	240,372	118,414
112,933	-5,068	240,253	118,333
113,947	-4,786	239,944	118,402
114,962	-4,654	239,834	118,446
115,976	-4,613	239,455	118,281
116,991	-4,971	239,456	117,978
118,006	-4,868	239,241	117,945
119,020	-4,904	239,276	117,923
120,035	-4,873	239,107	117,854
121,049	-4,877	238,772	117,676
122,064	-4,428	238,610	117,952
123,079	-5,006	238,540	117,435
124,093	-4,715	238,279	117,533
125,108	-4,856	237,919	117,231
126,122	-5,224	237,842	116,883
127,137	-5,183	237,563	116,769
128,151	-5,143	237,459	116,740
129,166	-5,124	237,362	116,697
130,181	-5,002	237,066	116,640
131,195	-4,930	236,792	116,552
132,210	-5,099	236,828	116,424
133,224	-4,830	236,677	116,556
134,239	-4,877	236,563	116,452
135,254	-4,747	236,459	116,495
136,268	-4,992	236,159	116,140
137,283	-4,947	235,830	116,004
138,297	-5,270	235,706	115,673
139,312	-5,365	235,540	115,504
140,327	-4,975	235,303	115,691
141,341	-4,549	235,459	116,099
142,356	-4,385	235,304	116,145
143,370	-4,293	235,077	116,096
144,385	-4,433	234,984	115,927
145,400	-4,416	234,786	115,833
146,414	-4,525	234,563	115,626
147,429	-4,616	234,567	115,544
148,443	-4,667	234,319	115,371
149,458	-4,418	234,065	115,435
150,473	-4,505	233,872	115,260
151,487	-4,563	233,766	115,150
152,502	-4,576	233,573	115,035
153,516	-4,463	233,355	115,008
154,531	-4,563	233,288	114,885
155,546	-4,376	232,991	114,876
156,560	-4,700	232,832	114,531
157,575	-4,847	232,685	114,332
158,589	-4,540	232,506	114,477
159,604	-4,535	232,437	114,436
160,619	-4,357	232,272	114,486
161,633	-4,098	232,037	114,565
162,648	-4,278	231,978	114,383
163,662	-4,602	231,868	114,063
164,677	-4,842	231,819	113,839
165,692	-4,429	231,597	114,045
166,706	-4,338	231,330	113,975
167,721	-4,285	231,064	113,876
168,735	-4,153	230,993	113,935
169,750	-4,430	230,891	113,656
170,764	-4,411	230,751	113,592
171,779	-4,440	230,642	113,506
172,794	-4,343	230,506	113,505
173,808	-4,369	230,198	113,323
174,823	-4,969	229,881	112,687
175,837	-4,936	229,677	112,603
176,852	-4,662	229,693	112,815
177,867	-4,554	229,679	112,883
178,881	-4,411	229,466	112,879
179,896	-4,295	229,429	112,942
180,910	-4,319	229,216	112,808
181,925	-4,218	229,010	112,775
182,940	-4,422	229,004	112,603
183,954	-4,314	228,750	112,552
184,969	-4,081	228,585	112,642
185,983	-4,293	228,555	112,452
186,998	-4,169	228,235	112,382
188,013	-4,095	228,164	112,394
189,027	-4,223	228,041	112,224
190,042	-4,208	227,779	112,096
191,056	-4,359	227,835	111,997
192,071	-4,284	227,536	111,899
193,086	-4,194	227,276	111,830
194,100	-4,156	227,143	111,783
195,115	-4,474	226,719	111,320
196,129	-5,197	226,598	110,695
197,144	-2,604	227,503	113,129
198,159	1,250	228,420	116,556
199,173	3,954	229,254	119,067
200,188	4,403	229,280	119,417
201,202	4,212	229,101	119,166
202,217	4,461	228,855	119,219
203,232	4,651	228,761	119,306
204,246	4,663	228,610	119,226
205,261	4,638	228,520	119,149
206,275	4,914	228,329	119,251
207,290	4,775	228,237	119,086
208,304	5,165	228,044	119,274
209,319	4,962	227,914	119,040
210,334	4,892	227,666	118,846
211,348	4,540	227,481	118,469
212,363	4,236	227,382	118,173
213,377	3,951	226,992	117,742
214,392	3,993	226,750	117,638
215,407	4,012	226,827	117,682
216,421	4,222	226,494	117,659
217,436	4,187	226,463	117,606
218,450	3,810	226,218	117,181
219,465	3,938	226,152	117,234
220,480	3,781	225,983	117,016
221,494	3,903	225,745	116,975
222,509	3,800	225,803	116,917
223,523	3,922	225,612	116,900
224,538	3,933	225,454	116,816
225,553	4,035	225,316	116,811
226,567	4,058	225,142	116,728
227,582	4,311	225,082	116,879
228,596	4,467	225,031	116,960
229,611	4,521	224,701	116,819
230,626	4,142	224,516	116,426
231,640	4,072	224,362	116,283
232,655	4,240	224,303	116,368
233,669	4,478	224,331	116,552
234,684	4,524	224,215	116,516
235,699	4,293	223,912	116,175
236,713	4,288	223,795	116,100
237,728	4,026	223,654	115,819
238,742	3,846	223,430	115,557
239,757	4,026	223,178	115,552
240,772	4,113	223,000	115,515
241,786	3,988	222,996	115,408
242,801	4,363	222,829	115,592
243,815	4,354	222,868	115,596
244,830	4,191	222,740	115,397
245,844	4,206	222,398	115,221
246,859	4,406	222,232	115,274
247,874	4,433	222,194	115,265
248,888	4,349	222,116	115,151
249,903	4,133	221,864	114,849
250,917	4,286	221,710	114,873
251,932	4,161	221,467	114,644
252,947	3,779	221,432	114,332
253,961	4,127	221,186	114,452
254,976	4,172	221,158	114,461
255,990	4,313	220,910	114,428
257,005	4,222	220,927	114,359
258,020	4,320	220,578	114,240
259,034	4,457	220,658	114,373
260,049	4,447	220,386	114,214
261,063	4,179	220,349	113,986
262,078	4,598	220,178	114,198
263,093	4,495	220,042	114,041
264,107	4,412	219,823	113,856
265,122	4,511	219,803	113,908
266,136	4,644	219,736	113,962
267,151	4,605	219,482	113,791
268,166	4,082	219,276	113,289
269,180	3,690	219,154	112,928
270,195	4,017	218,888	113,021
271,209	3,879	218,763	112,846
272,224	3,713	218,677	112,669
273,239	4,295	218,469	112,978
274,253	4,117	218,352	112,777
275,268	3,918	218,267	112,577
276,282	3,872	218,056	112,425
277,297	3,524	217,835	112,047
278,312	3,875	217,654	112,200
279,326	4,032	217,688	112,322
280,341	3,887	217,609	112,166
281,355	4,153	217,419	112,252
282,370	3,977	217,370	112,088
283,384	4,032	217,111	111,984
284,399	3,816	216,921	111,719
285,414	3,919	216,777	111,710
286,428	3,995	216,708	111,720
287,443	4,134	216,692	111,803
288,457	4,234	216,534	111,784
289,472	3,961	216,427	111,520
290,487	3,572	215,945	110,981
291,501	3,792	215,817	111,064
292,516	3,908	215,710	111,083
293,530	3,859	215,692	111,029
294,545	3,581	215,542	110,741
295,560	3,826	215,571	110,922
296,574	4,081	215,392	111,004
297,589	4,094	215,207	110,908
298,603	4,058	215,165	110,851
299,618	4,113	214,966	110,778
300,633	3,829	214,983	110,573
301,647	4,413	214,708	110,841
302,662	4,291	214,670	110,724
303,676	4,276	214,438	110,584
304,691	4,197	214,475	110,536
305,706	4,395	214,276	110,565
306,720	4,311	214,069	110,389
307,735	4,153	213,924	110,191
308,749	4,023	213,722	109,984
309,764	4,294	213,593	110,101
310,779	4,112	213,616	109,974
311,793	4,127	213,452	109,890
312,808	4,123	213,180	109,738
313,822	4,203	212,980	109,681
314,837	4,145	212,868	109,573
315,852	3,901	212,737	109,322
316,866	4,199	212,704	109,507
317,881	4,391	212,508	109,533
318,895	4,130	212,398	109,282
319,910	4,048	212,267	109,146
320,925	3,789	211,950	108,790
321,939	3,694	211,763	108,617
322,954	3,603	211,644	108,482
323,968	4,032	211,820	108,866
324,983	4,110	211,489	108,741
325,997	4,239	211,487	108,822
327,012	3,931	211,394	108,546
328,027	4,265	211,211	108,679
329,041	4,507	211,095	108,780
330,056	4,682	211,144	108,919
331,070	4,345	210,770	108,479
332,085	3,911	210,602	108,078
333,100	4,016	210,426	108,052
334,114	4,273	210,319	108,167
335,129	4,099	210,218	107,984
336,143	3,967	210,172	107,858
337,158	3,727	209,888	107,534
338,173	3,957	209,786	107,634
339,187	3,828	209,597	107,437
340,202	3,873	209,410	107,363
341,216	3,763	209,410	107,276
342,231	3,975	209,140	107,277
343,246	3,948	209,070	107,212
344,260	3,816	209,050	107,101
345,275	3,800	208,912	107,009
346,289	4,034	208,708	107,058
347,304	4,116	208,592	107,046
348,319	3,944	208,439	106,838
349,333	4,057	208,359	106,866
350,348	4,013	208,329	106,811
351,362	4,182	208,151	106,827
352,377	4,320	207,988	106,829
353,392	4,092	207,878	106,605
354,406	4,271	207,682	106,619
355,421	193,630	1345,092	1432,747
356,435	154,464	1483,775	1432,870
