DTS Sentinel unit serial number:	SN410029Multiplexer serial number:	ORYXHardware model number:	OX2-SRSoftware version number:	ORYX F/W v4,00 Oryx Data Collector v3.7.2.0data status	okinstallation	B6 Nyhavnadifferential loss correction	single-endedforward channel	channel 2reverse channel	N/Adate	2023/12/09time	22:15:08forward acquisition time	300,00reverse acquisition time	0,00gamma	499,1914k internal	0,3127k external	0,3127temperature offset calibration	1,0000default loss term (dB/km)	0,3820temperature slope calibration	1,0000multiplexer offset coefficient	1,0000multiplexer slope coefficient	1,0000fibre end	0,00T internal ref (°C)	21,66T ext. ref 1 (°C)	5,42T ext. ref 2 (°C)	5,41length (m)	temperature (°C)	Stokes	anti-Stokes-744,400	336,509	0,059	-0,086
-743,385	-26,347	-0,255	0,111
-742,371	-73,970	0,083	-0,022
-741,356	312,712	-0,141	0,198
-740,342	-103,831	0,135	0,023
-739,327	-131,892	-0,316	-0,030
-738,312	-47,732	0,080	0,029
-737,298	-7,009	-0,172	0,087
-736,283	60,398	0,143	-0,105
-735,269	-67,669	-0,163	0,047
-734,254	387,583	-0,058	0,090
-733,239	-147,766	-0,435	-0,027
-732,225	-35,023	0,147	0,059
-731,210	-200,000	-0,013	0,066
-730,196	715,878	-0,071	0,141
-729,181	242,525	0,030	0,038
-728,167	77,306	0,040	-0,031
-727,152	800,000	0,016	-0,041
-726,137	74,888	-0,096	-0,075
-725,123	728,997	-0,098	-0,197
-724,108	-200,000	0,032	-0,186
-723,094	13,792	-0,041	0,023
-722,079	-173,082	-0,068	-0,002
-721,064	-94,603	0,136	0,027
-720,050	271,725	-0,047	-0,062
-719,035	800,000	-0,044	0,096
-718,021	30,540	-0,187	0,119
-717,006	217,568	-0,097	-0,116
-715,991	51,055	-0,109	-0,077
-714,977	-12,778	-0,092	0,044
-713,962	240,694	0,032	-0,040
-712,948	491,713	0,064	-0,109
-711,933	-200,000	0,005	0,056
-710,918	800,000	0,034	-0,099
-709,904	28,911	-0,073	-0,046
-708,889	351,338	-0,034	-0,051
-707,875	552,106	-0,069	-0,124
-706,860	-200,000	-0,035	-0,180
-705,845	-200,000	-0,013	-0,058
-704,831	-91,666	0,108	-0,023
-703,816	800,000	-0,033	0,078
-702,802	137,944	-0,133	0,130
-701,787	-200,000	-0,024	-0,083
-700,772	-200,000	-0,004	0,116
-699,758	-200,000	-0,008	0,081
-698,743	716,263	-0,070	0,139
-697,729	21,443	0,095	0,058
-696,714	800,000	-0,054	0,115
-695,699	179,062	-0,092	-0,100
-694,685	-200,000	-0,003	-0,070
-693,670	-200,000	0,009	0,067
-692,656	-162,390	0,065	-0,002
-691,641	-200,000	0,015	0,088
-690,627	-61,725	0,128	-0,040
-689,612	704,924	-0,059	0,116
-688,597	420,598	-0,024	0,038
-687,583	107,674	-0,084	-0,074
-686,568	253,438	0,079	0,100
-685,554	-116,832	0,124	-0,017
-684,539	-200,000	-0,054	-0,229
-683,524	-200,000	-0,003	-0,159
-682,510	-200,000	-0,008	-0,115
-681,495	280,131	-0,053	-0,071
-680,481	666,587	-0,047	-0,091
-679,466	-45,641	-0,026	0,009
-678,451	-13,365	-0,078	-0,038
-677,437	-200,000	0,040	0,175
-676,422	-133,198	0,062	0,006
-675,408	201,826	0,103	-0,118
-674,393	-200,000	-0,009	-0,046
-673,378	434,033	-0,012	0,020
-672,364	-59,950	-0,106	-0,034
-671,349	82,915	0,085	-0,069
-670,335	173,939	0,108	-0,116
-669,320	-200,000	0,014	0,139
-668,305	-31,239	-0,139	0,058
-667,291	-22,355	-0,179	0,080
-666,276	15,177	0,092	-0,054
-665,262	-26,222	-0,156	-0,068
-664,247	-30,607	-0,086	0,036
-663,232	144,245	0,111	0,110
-662,218	-43,502	0,132	0,049
-661,203	186,119	0,078	0,086
-660,189	-95,563	0,010	-0,002
-659,174	-122,111	-0,069	0,008
-658,159	161,987	-0,028	0,030
-657,145	-200,000	-0,106	-0,000
-656,130	52,595	0,044	0,031
-655,116	-52,328	0,094	0,032
-654,101	800,000	-0,029	0,071
-653,086	800,000	-0,022	0,046
-652,072	800,000	0,059	-0,144
-651,057	800,000	-0,063	-0,168
-650,043	-63,121	-0,144	-0,044
-649,028	-39,419	0,082	0,032
-648,014	800,000	0,037	-0,096
-646,999	-200,000	-0,016	0,134
-645,984	45,117	0,022	-0,015
-644,970	-46,285	-0,077	0,028
-643,955	71,844	-0,102	-0,079
-642,941	-200,000	0,001	0,004
-641,926	-200,000	0,025	-0,145
-640,911	91,239	-0,040	0,033
-639,897	131,677	0,030	-0,028
-638,882	562,503	0,044	-0,080
-637,868	153,343	-0,046	0,046
-636,853	-200,000	-0,035	-0,133
-635,838	-200,000	-0,005	-0,121
-634,824	-33,924	-0,100	0,041
-633,809	800,000	0,021	0,067
-632,795	51,232	0,106	0,075
-631,780	172,465	-0,099	-0,106
-630,765	108,247	-0,034	0,030
-629,751	-51,331	-0,119	-0,041
-628,736	-119,797	0,047	-0,006
-627,722	140,197	-0,039	-0,038
-626,707	-77,929	-0,089	-0,023
-625,692	158,376	-0,069	0,071
-624,678	-200,000	-0,004	0,116
-623,663	-102,791	-0,178	-0,031
-622,649	-48,573	-0,149	-0,053
-621,634	-25,585	-0,159	0,069
-620,619	341,535	-0,066	-0,096
-619,605	-200,000	0,009	0,074
-618,590	-200,000	0,042	0,176
-617,576	-200,000	0,000	0,076
-616,561	-200,000	-0,005	0,044
-615,546	800,000	-0,023	0,048
-614,532	38,143	0,022	0,015
-613,517	-131,802	-0,135	0,013
-612,503	-58,121	0,122	-0,039
-611,488	-200,000	-0,004	0,224
-610,474	256,320	0,120	0,153
-609,459	320,421	-0,097	-0,137
-608,444	-158,677	-0,075	-0,003
-607,430	-200,000	-0,001	-0,022
-606,415	-200,000	0,008	0,050
-605,401	585,050	-0,046	0,084
-604,386	-31,360	0,075	0,031
-603,371	164,943	-0,062	0,065
-602,357	-200,000	0,026	0,108
-601,342	-200,000	-0,035	-0,120
-600,328	-200,000	0,003	-0,044
-599,313	547,689	-0,047	-0,083
-598,298	604,045	-0,068	-0,126
-597,284	436,855	-0,026	-0,043
-596,269	-200,000	-0,026	-0,113
-595,255	800,000	0,031	-0,088
-594,240	-114,240	0,046	-0,006
-593,225	-200,000	-0,021	0,125
-592,211	-200,000	-0,025	-0,102
-591,196	-3,793	0,058	0,030
-590,182	60,642	0,041	0,030
-589,167	23,581	0,053	0,032
-588,152	800,000	0,038	-0,103
-587,138	-23,750	-0,062	-0,027
-586,123	21,931	-0,135	-0,081
-585,109	464,600	-0,077	-0,128
-584,094	-29,917	-0,071	-0,030
-583,079	-110,539	-0,072	-0,011
-582,065	215,987	0,020	0,024
-581,050	-85,976	0,143	0,033
-580,036	-200,000	0,009	0,060
-579,021	103,059	-0,060	0,052
-578,006	-180,317	-0,058	-0,001
-576,992	-200,000	-0,019	-0,166
-575,977	-75,338	-0,007	0,002
-574,963	-2,832	0,068	-0,035
-573,948	-200,000	-0,005	0,128
-572,934	800,000	0,018	0,042
-571,919	-70,039	0,083	0,023
-570,904	119,842	-0,072	-0,066
-569,890	-27,330	-0,025	0,011
-568,875	-200,000	-0,029	0,201
-567,861	2,754	0,031	-0,017
-566,846	-43,279	0,060	0,022
-565,831	-104,787	-0,102	-0,017
-564,817	-37,455	-0,039	-0,015
-563,802	800,000	0,035	-0,092
-562,788	-154,122	0,068	0,003
-561,773	-200,000	0,011	0,042
-560,758	364,780	0,069	-0,104
-559,744	759,864	-0,060	-0,120
-558,729	425,030	-0,069	-0,110
-557,715	-99,010	-0,147	0,027
-556,700	283,588	-0,086	0,115
-555,685	-169,436	0,041	0,001
-554,671	-200,000	0,008	0,107
-553,656	-200,000	0,001	0,050
-552,642	-200,000	0,020	0,107
-551,627	800,000	-0,040	0,096
-550,612	-200,000	-0,001	-0,005
-549,598	-200,000	-0,014	-0,144
-548,583	105,308	0,085	-0,074
-547,569	800,000	0,009	-0,024
-546,554	63,364	-0,061	-0,045
-545,539	180,596	0,102	0,111
-544,525	-200,000	-0,033	0,145
-543,510	-200,000	-0,005	-0,021
-542,496	88,293	-0,084	0,069
-541,481	-9,136	-0,134	0,066
-540,466	-200,000	0,038	0,176
-539,452	800,000	0,017	0,053
-538,437	-15,441	0,151	0,071
-537,423	523,624	0,072	0,126
-536,408	-200,000	0,010	-0,037
-535,393	-200,000	-0,043	-0,144
-534,379	800,000	-0,019	-0,042
-533,364	-24,204	0,037	-0,016
-532,350	-42,177	0,080	-0,030
-531,335	-84,246	0,080	-0,018
-530,321	378,345	-0,042	-0,064
-529,306	4,074	-0,077	-0,042
-528,291	-43,543	0,187	-0,069
-527,277	-186,418	-0,073	0,001
-526,262	-200,000	-0,005	0,019
-525,248	800,000	0,036	-0,096
-524,233	-200,000	-0,018	-0,102
-523,218	16,871	0,067	-0,039
-522,204	-107,033	0,046	0,007
-521,189	-97,240	-0,138	-0,026
-520,175	211,283	-0,021	-0,024
-519,160	-200,000	-0,001	-0,037
-518,145	-200,000	-0,001	0,147
-517,131	58,242	-0,107	-0,078
-516,116	-41,075	0,050	0,019
-515,102	-200,000	-0,019	0,083
-514,087	189,988	-0,083	-0,092
-513,072	183,768	0,051	0,056
-512,058	-101,546	-0,078	0,014
-511,043	-200,000	0,002	0,045
-510,029	-200,000	0,026	0,099
-509,014	800,000	0,041	0,121
-507,999	70,710	-0,033	-0,025
-506,985	-78,451	0,103	-0,026
-505,970	48,369	0,179	-0,123
-504,956	-200,000	-0,028	0,115
-503,941	-23,792	-0,036	0,016
-502,926	-200,000	-0,012	0,040
-501,912	-30,459	0,077	0,032
-500,897	340,463	-0,054	0,078
-499,883	-11,883	-0,096	0,046
-498,868	-64,871	-0,095	-0,028
-497,853	-200,000	0,009	-0,066
-496,839	-94,745	0,144	-0,029
-495,824	-113,469	-0,024	-0,003
-494,810	189,921	0,039	0,043
-493,795	84,722	0,051	0,041
-492,781	385,201	-0,050	-0,077
-491,766	96,437	0,059	-0,050
-490,751	-33,675	0,101	0,041
-489,737	800,000	-0,041	-0,131
-488,722	-42,225	0,091	0,034
-487,708	42,264	-0,078	-0,052
-486,693	-122,805	0,067	0,008
-485,678	102,228	0,008	0,007
-484,664	-128,457	0,027	0,003
-483,649	21,752	-0,069	-0,042
-482,635	-200,000	-0,017	0,062
-481,620	800,000	0,071	0,173
-480,605	-10,854	0,172	0,083
-479,591	800,000	-0,033	0,079
-478,576	-105,537	0,153	0,025
-477,562	94,716	-0,068	-0,057
-476,547	-200,000	0,012	-0,093
-475,532	-107,403	-0,103	-0,017
-474,518	-200,000	0,014	0,071
-473,503	330,162	0,121	0,172
-472,489	800,000	0,042	-0,093
-471,474	800,000	0,011	0,026
-470,459	158,777	-0,086	-0,088
-469,445	287,261	0,050	-0,066
-468,430	-115,915	-0,166	0,023
-467,416	-200,000	0,002	-0,006
-466,401	148,563	-0,118	-0,117
-465,386	-200,000	0,002	-0,034
-464,372	-158,598	-0,106	-0,004
-463,357	800,000	0,045	-0,135
-462,343	-105,207	-0,112	-0,019
-461,328	41,707	-0,046	-0,031
-460,313	-200,000	-0,014	0,126
-459,299	231,848	0,078	-0,094
-458,284	53,651	0,052	0,037
-457,270	-90,268	0,112	0,024
-456,255	305,812	-0,056	0,077
-455,241	-200,000	-0,011	0,146
-454,226	-200,000	-0,005	0,104
-453,211	60,011	0,085	0,062
-452,197	800,000	-0,047	0,127
-451,182	-200,000	0,010	-0,054
-450,168	-142,559	0,065	0,005
-449,153	-200,000	0,000	0,016
-448,138	-200,000	-0,030	-0,151
-447,124	333,133	0,041	0,058
-446,109	127,113	-0,065	0,061
-445,095	-200,000	-0,000	0,131
-444,080	4,662	0,170	0,091
-443,065	-118,523	-0,050	0,007
-442,051	328,610	-0,017	0,024
-441,036	427,060	-0,049	-0,078
-440,022	-35,577	-0,045	-0,018
-439,007	-67,526	0,009	0,003
-437,992	191,604	-0,079	0,087
-436,978	112,212	0,088	0,078
-435,963	368,303	0,042	0,062
-434,949	800,000	-0,061	-0,143
-433,934	-8,111	-0,044	0,022
-432,919	103,513	0,064	-0,055
-431,905	116,419	0,098	-0,088
-430,890	-103,500	0,101	0,017
-429,876	-200,000	0,007	0,191
-428,861	800,000	-0,015	-0,037
-427,846	-200,000	-0,004	-0,090
-426,832	-200,000	0,005	0,066
-425,817	82,622	-0,015	-0,012
-424,803	-50,944	0,122	-0,042
-423,788	-200,000	0,001	0,082
-422,773	-124,255	0,098	0,011
-421,759	611,110	0,047	-0,087
-420,744	291,665	-0,091	0,122
-419,730	800,000	-0,013	-0,032
-418,715	800,000	0,053	-0,148
-417,701	132,995	-0,090	-0,085
-416,686	116,235	-0,045	0,041
-415,671	-44,827	0,044	-0,016
-414,657	-135,417	-0,145	0,013
-413,642	-200,000	-0,038	0,211
-412,628	702,484	0,041	0,079
-411,613	94,452	-0,114	-0,095
-410,598	677,529	0,011	-0,021
-409,584	-88,160	-0,020	0,004
-408,569	758,533	-0,046	0,092
-407,555	36,915	-0,089	-0,058
-406,540	800,000	0,052	-0,140
-405,525	3,047	0,035	0,018
-404,511	373,167	-0,044	-0,065
-403,496	-39,134	0,022	-0,008
-402,482	59,841	0,078	-0,057
-401,467	47,652	0,083	-0,057
-400,452	-200,000	0,021	0,111
-399,438	67,816	0,107	-0,080
-398,423	-123,367	0,052	0,006
-397,409	800,000	-0,046	-0,127
-396,394	9,169	0,072	-0,040
-395,379	-89,989	0,083	-0,018
-394,365	10,733	-0,066	0,037
-393,350	380,453	-0,026	0,039
-392,336	-134,397	0,129	-0,011
-391,321	350,585	0,055	-0,080
-390,306	101,747	-0,065	-0,056
-389,292	-200,000	-0,003	0,033
-388,277	-200,000	-0,008	-0,148
-387,263	800,000	-0,021	-0,045
-386,248	506,458	0,099	0,168
-385,233	434,817	-0,016	-0,026
-384,219	-200,000	0,012	-0,057
-383,204	800,000	-0,048	-0,132
-382,190	-200,000	-0,004	-0,096
-381,175	-22,815	0,052	-0,023
-380,160	33,534	0,105	0,067
-379,146	-200,000	0,014	0,121
-378,131	5,575	-0,065	0,035
-377,117	-167,955	0,131	-0,004
-376,102	130,664	0,078	-0,074
-375,088	70,048	0,040	-0,030
-374,073	5,505	-0,114	-0,062
-373,058	-200,000	-0,011	0,074
-372,044	212,839	0,032	0,037
-371,029	-81,350	-0,212	-0,051
-370,015	-200,000	-0,034	-0,123
-369,000	609,530	-0,038	-0,069
-367,985	800,000	-0,092	-0,214
-366,971	-170,510	-0,116	0,003
-365,956	190,416	0,066	-0,073
-364,942	-81,775	-0,026	0,006
-363,927	75,858	0,067	0,052
-362,912	-200,000	0,005	-0,057
-361,898	-170,806	0,034	-0,001
-360,883	249,612	0,032	-0,040
-359,869	378,422	-0,039	-0,059
-358,854	371,934	-0,039	-0,058
-357,839	75,745	-0,111	-0,086
-356,825	-94,146	0,111	0,022
-355,810	-37,321	-0,037	0,014
-354,796	377,551	-0,066	0,100
-353,781	93,013	-0,100	-0,083
-352,766	-121,178	-0,052	0,006
-351,752	162,116	0,049	0,050
-350,737	232,929	-0,081	0,098
-349,723	-103,533	-0,048	0,008
-348,708	-200,000	-0,023	0,167
-347,693	122,061	-0,035	0,032
-346,679	-82,020	-0,109	0,026
-345,664	184,218	-0,070	-0,076
-344,650	29,166	-0,038	0,024
-343,635	-169,344	0,103	0,003
-342,620	-128,399	-0,055	0,006
-341,606	-200,000	0,010	-0,136
-340,591	-200,000	0,006	-0,018
-339,577	-52,817	-0,056	-0,019
-338,562	-39,109	-0,046	-0,018
-337,548	-135,629	0,066	-0,006
-336,533	-43,010	0,031	-0,011
-335,518	800,000	0,020	0,045
-334,504	124,599	0,114	0,105
-333,489	134,527	0,064	0,061
-332,475	739,737	-0,035	-0,069
-331,460	-76,049	0,099	-0,026
-330,445	82,494	0,148	0,118
-329,431	-189,422	0,145	0,001
-328,416	800,000	0,029	0,076
-327,402	-55,414	-0,049	0,016
-326,387	-200,000	0,025	0,086
-325,372	-200,000	0,001	0,045
-324,358	-200,000	0,005	-0,019
-323,343	-200,000	0,003	-0,086
-322,329	-66,711	0,158	0,045
-321,314	-200,000	0,024	0,079
-320,299	800,000	0,031	-0,094
-319,285	90,556	0,039	0,032
-318,270	-150,879	0,093	-0,005
-317,256	21,071	0,126	0,075
-316,241	800,000	-0,051	0,128
-315,226	-200,000	-0,011	-0,071
-314,212	-95,954	0,116	0,022
-313,197	-50,602	0,082	0,028
-312,183	107,318	0,039	-0,034
-311,168	772,787	0,027	0,053
-310,153	70,735	-0,049	-0,037
-309,139	158,271	-0,062	-0,063
-308,124	-200,000	-0,018	-0,117
-307,110	800,000	0,019	0,058
-306,095	-113,213	0,120	0,017
-305,080	475,366	-0,047	0,078
-304,066	-85,939	0,063	-0,014
-303,051	506,583	0,099	-0,169
-302,037	-47,688	-0,054	-0,019
-301,022	-200,000	0,028	-0,130
-300,008	-200,000	0,000	0,022
-298,993	131,779	0,045	0,042
-297,978	141,546	-0,052	-0,051
-296,964	-200,000	0,013	-0,119
-295,949	-73,614	-0,065	-0,017
-294,935	-90,028	-0,036	0,008
-293,920	-200,000	0,006	-0,197
-292,905	-96,030	0,116	-0,022
-291,891	-200,000	-0,008	-0,086
-290,876	114,824	0,046	-0,041
-289,862	-102,265	-0,086	0,015
-288,847	642,797	0,049	-0,092
-287,832	-200,000	0,018	-0,119
-286,818	-200,000	-0,033	-0,126
-285,803	-200,000	0,010	0,102
-284,789	287,954	0,032	0,042
-283,774	-124,617	0,042	0,005
-282,759	-34,021	0,077	-0,031
-281,745	-200,000	0,013	-0,073
-280,730	549,539	-0,063	-0,111
-279,716	227,722	-0,031	-0,037
-278,701	-200,000	0,009	-0,031
-277,686	297,665	0,087	0,117
-276,672	-200,000	0,047	0,180
-275,657	141,142	0,093	0,090
-274,643	-200,000	-0,011	0,041
-273,628	39,993	0,055	-0,036
-272,613	359,664	0,033	-0,049
-271,599	93,762	0,140	-0,116
-270,584	10,666	-0,089	-0,049
-269,570	-158,769	0,176	-0,007
-268,555	-200,000	0,017	0,106
-267,540	244,223	-0,050	-0,062
-266,526	12,913	-0,138	-0,078
-265,511	800,000	0,031	-0,064
-264,497	-150,855	0,173	0,009
-263,482	78,328	0,062	0,049
-262,467	-200,000	0,009	0,063
-261,453	-200,000	0,004	-0,130
-260,438	68,843	0,069	0,052
-259,424	-200,000	0,006	-0,131
-258,409	-169,882	-0,152	0,004
-257,395	230,093	-0,080	-0,096
-256,380	451,403	0,049	-0,079
-255,365	-139,852	-0,062	-0,005
-254,351	800,000	-0,031	-0,081
-253,336	116,532	-0,011	-0,010
-252,322	248,519	0,042	-0,052
-251,307	-11,857	-0,066	-0,032
-250,292	267,823	0,053	0,068
-249,278	59,807	0,121	0,087
-248,263	-200,000	-0,023	-0,099
-247,249	124,922	0,066	0,061
-246,234	200,208	-0,077	-0,087
-245,219	-134,313	0,095	-0,008
-244,205	-129,507	-0,029	-0,003
-243,190	-200,000	-0,019	-0,062
-242,176	-200,000	-0,047	0,163
-241,161	85,878	0,061	0,049
-240,146	416,418	0,076	0,118
-239,132	-13,712	0,020	-0,010
-238,117	5,585	-0,047	-0,025
-237,103	21,578	-0,099	-0,059
-236,088	411,095	-0,042	-0,065
-235,073	-110,508	0,028	0,004
-234,059	291,595	-0,072	0,096
-233,044	253,820	0,062	0,078
-232,030	557,597	-0,025	0,044
-231,015	-200,000	0,009	0,069
-230,000	800,000	0,022	0,070
-228,986	800,000	-0,039	-0,096
-227,971	197,025	0,100	0,111
-226,957	124,207	-0,085	0,078
-225,942	-96,818	0,033	0,006
-224,927	-37,070	-0,163	-0,063
-223,913	-200,000	-0,002	0,116
-222,898	800,000	-0,020	-0,041
-221,884	-113,327	-0,059	0,008
-220,869	-200,000	0,003	0,015
-219,855	-200,000	0,005	0,050
-218,840	741,967	0,022	-0,043
-217,825	185,455	-0,014	0,015
-216,811	140,252	-0,086	-0,083
-215,796	20,391	0,054	-0,032
-214,782	800,000	-0,023	-0,074
-213,767	310,324	0,068	0,093
-212,752	623,050	0,015	0,027
-211,738	119,772	0,100	0,091
-210,723	-200,000	-0,010	-0,044
-209,709	23,519	0,115	0,069
-208,694	-34,629	-0,067	0,026
-207,679	335,510	-0,093	0,131
-206,665	209,126	0,013	-0,015
-205,650	185,852	-0,073	-0,079
-204,636	-200,000	0,016	0,230
-203,621	13,250	-0,129	0,072
-202,606	-200,000	0,023	-0,090
-201,592	800,000	0,027	0,054
-200,577	-200,000	0,001	0,073
-199,563	764,520	0,026	0,053
-198,548	99,048	-0,063	-0,053
-197,533	-200,000	0,008	0,051
-196,519	-200,000	-0,004	0,167
-195,504	-44,412	-0,097	-0,035
-194,490	22,455	-0,060	-0,036
-193,475	-200,000	-0,018	-0,104
-192,460	23,960	0,076	0,046
-191,446	-200,000	-0,017	0,099
-190,431	-111,777	-0,064	-0,009
-189,417	800,000	0,031	0,081
-188,402	-200,000	-0,020	-0,241
-187,387	31,504	0,071	-0,044
-186,373	568,303	0,007	-0,013
-185,358	-200,000	-0,019	-0,072
-184,344	181,268	0,045	0,048
-183,329	-93,345	-0,111	0,022
-182,315	800,000	0,036	0,112
-181,300	800,000	-0,045	0,142
-180,285	-43,259	0,128	-0,047
-179,271	213,568	-0,068	-0,078
-178,256	212,416	0,089	-0,102
-177,242	-141,722	0,169	-0,012
-176,227	-110,475	-0,088	0,013
-175,212	-200,000	0,012	0,053
-174,198	-141,286	-0,055	-0,004
-173,183	-200,000	-0,013	0,046
-172,169	59,319	0,061	-0,044
-171,154	535,428	-0,007	0,013
-170,139	-200,000	-0,006	0,020
-169,125	-168,359	-0,048	0,001
-168,110	-44,067	0,037	-0,013
-167,096	800,000	-0,015	-0,035
-166,081	142,181	-0,070	-0,067
-165,066	91,804	-0,099	0,081
-164,052	-200,000	0,035	0,235
-163,037	-9,249	-0,131	0,064
-162,023	181,716	-0,154	0,165
-161,008	132,081	0,068	0,064
-159,993	-46,079	-0,062	0,022
-158,979	51,189	-0,122	-0,084
-157,964	-200,000	0,031	-0,153
-156,950	16,025	0,051	-0,029
-155,935	800,000	0,055	-0,116
-154,920	149,413	-0,110	0,108
-153,906	100,113	0,041	-0,034
-152,891	-11,766	0,015	-0,007
-151,877	-200,000	-0,007	-0,059
-150,862	543,639	0,028	0,050
-149,847	-156,107	0,143	0,006
-148,833	-29,967	0,070	0,029
-147,818	-200,000	0,005	-0,053
-146,804	126,831	0,076	0,070
-145,789	-200,000	-0,040	0,217
-144,775	264,521	0,097	0,124
-143,760	-200,000	0,002	-0,038
-142,745	174,236	0,022	-0,023
-141,731	-200,000	-0,014	-0,066
-140,716	12,137	-0,080	0,045
-139,702	76,557	0,009	0,007
-138,687	498,934	0,053	-0,089
-137,672	-96,128	-0,107	-0,020
-136,658	-200,000	-0,001	-0,067
-135,643	51,605	-0,056	-0,038
-134,629	159,297	0,039	-0,040
-133,614	10,351	0,106	0,059
-132,599	558,745	0,073	0,128
-131,585	303,264	-0,107	-0,144
-130,570	286,491	0,091	-0,120
-129,556	-139,531	-0,092	-0,007
-128,541	800,000	-0,071	-0,189
-127,526	46,452	0,065	0,044
-126,512	64,040	-0,086	0,063
-125,497	-50,981	0,053	0,018
-124,483	765,076	-0,023	-0,045
-123,468	-200,000	0,004	0,153
-122,453	-200,000	-0,007	-0,036
-121,439	-96,817	0,153	-0,029
-120,424	-27,991	-0,110	-0,046
-119,410	-100,622	0,128	0,023
-118,395	119,889	0,068	-0,061
-117,380	64,610	0,082	0,060
-116,366	66,732	-0,130	-0,096
-115,351	-200,000	0,005	0,063
-114,337	104,821	-0,135	-0,116
-113,322	-52,787	-0,062	-0,021
-112,307	-200,000	0,055	0,235
-111,293	800,000	-0,037	0,076
-110,278	-93,364	0,023	-0,005
-109,264	189,110	-0,052	0,057
-108,249	-200,000	-0,038	-0,167
-107,234	67,241	0,063	0,046
-106,220	-27,154	-0,161	0,068
-105,205	-200,000	-0,026	0,097
-104,191	396,241	0,024	-0,037
-103,176	-41,811	0,075	-0,028
-102,162	-200,000	0,038	-0,150
-101,147	-200,000	0,006	-0,044
-100,132	76,815	-0,018	-0,014
-99,118	-200,000	0,005	-0,028
-98,103	800,000	-0,029	0,065
-97,089	-79,854	0,148	0,036
-96,074	344,515	-0,078	0,111
-95,059	-200,000	-0,007	0,063
-94,045	800,000	0,012	-0,028
-93,030	-85,664	-0,119	-0,027
-92,016	80,858	-0,053	-0,041
-91,001	300,534	0,067	-0,089
-89,986	158,525	0,164	-0,165
-88,972	-200,000	-0,020	0,095
-87,957	81,071	0,094	0,074
-86,943	-54,717	0,098	-0,032
-85,928	143,514	-0,065	-0,062
-84,913	-142,147	0,096	-0,007
-83,899	-84,198	-0,088	0,020
-82,884	404,684	0,031	0,048
-81,870	-200,000	-0,001	-0,048
-80,855	-200,000	0,020	0,073
-79,840	655,338	-0,050	-0,093
-78,826	662,715	0,040	0,076
-77,811	-138,816	0,142	0,011
-76,797	-21,404	0,109	0,048
-75,782	-200,000	0,019	0,098
-74,767	-45,667	0,189	0,068
-73,753	-200,000	-0,006	0,140
-72,738	-200,000	-0,028	0,104
-71,724	-66,422	-0,149	0,043
-70,709	4,000	-0,044	-0,023
-69,694	-200,000	-0,013	-0,141
-68,680	-77,815	0,085	0,021
-67,665	-41,116	-0,023	-0,009
-66,651	-200,000	0,006	-0,067
-65,636	68,475	0,042	0,031
-64,622	181,685	-0,111	-0,119
-63,607	-200,000	0,016	-0,100
-62,592	94,065	0,095	-0,078
-61,578	800,000	0,030	-0,081
-60,563	-85,407	0,121	-0,027
-59,549	800,000	0,005	-0,011
-58,534	-106,887	-1,337	-0,213
-57,519	800,000	-0,688	-1,502
-56,505	-200,000	-0,894	-4,448
-55,490	-111,636	0,640	-0,093
-54,476	800,000	4,927	11,650
-53,461	-200,000	14,188	252,791
-52,446	-200,000	695,430	2230,086
-51,432	568,048	1624,102	2870,737
-50,417	116,958	1631,248	1451,684
-49,403	72,835	1284,868	971,230
-48,388	37,433	1022,196	655,476
-47,373	23,698	980,708	583,776
-46,359	22,877	970,173	574,797
-45,344	21,887	965,878	568,999
-44,330	21,871	964,195	567,933
-43,315	21,715	962,961	566,677
-42,300	21,691	962,065	566,050
-41,286	21,714	960,981	565,462
-40,271	21,638	960,139	564,699
-39,257	21,703	959,063	564,255
-38,242	21,642	958,103	563,470
-37,227	21,629	957,362	562,969
-36,213	21,676	956,155	562,390
-35,198	21,607	955,476	561,746
-34,184	21,652	955,007	561,593
-33,169	21,608	954,016	560,847
-32,154	21,768	952,857	560,657
-31,140	21,774	952,109	560,213
-30,125	21,685	951,453	559,518
-29,111	21,684	950,508	558,938
-28,096	21,671	950,014	558,584
-27,082	21,739	949,058	558,216
-26,067	21,708	948,388	557,702
-25,052	21,701	947,695	557,251
-24,038	21,677	947,159	556,836
-23,023	21,688	946,536	556,482
-22,009	21,723	945,879	556,187
-20,994	21,793	944,940	555,836
-19,979	21,713	944,536	555,322
-18,965	21,695	944,017	554,936
-17,950	21,719	943,239	554,534
-16,936	21,644	942,615	553,904
-15,921	21,615	941,942	553,397
-14,906	21,594	941,169	552,852
-13,892	21,594	940,539	552,460
-12,877	21,562	940,008	552,026
-11,863	21,563	939,325	551,605
-10,848	21,523	938,917	551,217
-9,833	21,686	938,393	551,404
-8,819	21,655	937,825	550,951
-7,804	21,603	936,937	550,244
-6,790	21,558	936,432	549,781
-5,775	21,619	935,932	549,659
-4,760	21,590	935,325	549,190
-3,746	21,552	934,613	548,630
-2,731	21,436	933,883	547,814
-1,717	21,421	933,227	547,361
-0,702	21,445	932,413	546,935
0,313	21,216	931,959	546,775
1,327	24,116	929,990	554,672
2,342	33,217	793,509	497,434
3,356	30,706	450,851	278,825
4,371	0,736	294,799	152,304
5,386	-3,786	275,888	138,227
6,400	-4,868	270,242	134,378
7,415	-5,309	267,869	132,778
8,429	-5,091	266,840	132,457
9,444	-5,055	265,879	132,001
10,459	-4,938	265,173	131,746
11,473	-5,240	264,643	131,195
12,488	-5,165	264,226	131,045
13,502	-5,068	263,638	130,830
14,517	-5,264	263,229	130,437
15,531	-4,904	262,621	130,451
16,546	-5,034	262,448	130,235
17,561	-5,118	261,944	129,898
18,575	-4,838	261,657	129,996
19,590	-5,260	261,444	129,499
20,604	-4,816	261,053	129,693
21,619	-5,121	260,718	129,241
22,634	-5,284	260,424	128,938
23,648	-5,153	260,259	128,962
24,663	-5,215	259,742	128,639
25,677	-5,101	259,513	128,616
26,692	-5,089	259,353	128,536
27,707	-5,174	259,070	128,308
28,721	-5,045	258,855	128,305
29,736	-5,252	258,598	127,982
30,750	-5,175	258,329	127,906
31,765	-5,316	257,987	127,600
32,780	-5,176	257,801	127,621
33,794	-5,198	257,596	127,488
34,809	-5,153	257,477	127,458
35,823	-5,380	257,297	127,156
36,838	-5,143	256,848	127,133
37,853	-5,332	256,662	126,863
38,867	-5,351	256,602	126,805
39,882	-5,222	256,240	126,729
40,896	-5,292	256,094	126,583
41,911	-5,318	255,735	126,372
42,926	-5,326	255,544	126,259
43,940	-5,310	255,186	126,085
44,955	-5,241	255,206	126,145
45,969	-5,275	254,962	125,983
46,984	-5,585	254,583	125,513
47,999	-5,747	254,467	125,303
49,013	-5,721	254,080	125,123
50,028	-5,984	253,973	124,830
51,042	-6,074	253,632	124,573
52,057	-5,896	253,317	124,562
53,071	-6,039	253,320	124,428
54,086	-5,854	253,087	124,463
55,101	-5,621	252,877	124,551
56,115	-5,571	252,706	124,499
57,130	-5,201	252,681	124,798
58,144	-5,055	252,521	124,833
59,159	-4,962	252,280	124,783
60,174	-5,091	252,135	124,589
61,188	-5,048	251,854	124,476
62,203	-5,173	251,710	124,286
63,217	-5,236	251,455	124,095
64,232	-5,128	251,098	124,001
65,247	-5,175	250,918	123,860
66,261	-5,154	250,598	123,709
67,276	-5,419	250,514	123,429
68,290	-5,301	250,115	123,323
69,305	-5,608	249,943	122,963
70,320	-5,593	249,863	122,926
71,334	-5,431	249,823	123,034
72,349	-5,065	249,417	123,136
73,363	-4,978	249,325	123,155
74,378	-5,218	249,181	122,868
75,393	-5,164	248,857	122,743
76,407	-5,218	248,628	122,573
77,422	-5,099	248,600	122,650
78,436	-4,982	248,339	122,610
79,451	-5,221	248,162	122,308
80,466	-5,266	247,825	122,093
81,480	-5,446	247,689	121,862
82,495	-5,338	247,474	121,836
83,509	-5,159	247,329	121,907
84,524	-5,399	247,033	121,547
85,539	-5,571	246,853	121,301
86,553	-5,485	246,641	121,259
87,568	-5,428	246,481	121,218
88,582	-5,367	246,339	121,189
89,597	-5,465	246,067	120,961
90,611	-5,386	246,003	120,986
91,626	-5,295	246,014	121,057
92,641	-5,429	245,741	120,799
93,655	-5,298	245,454	120,758
94,670	-5,244	245,143	120,639
95,684	-5,301	245,086	120,553
96,699	-5,326	244,874	120,416
97,714	-5,240	244,721	120,403
98,728	-5,561	244,534	120,031
99,743	-5,709	244,390	119,826
100,757	-5,557	244,002	119,752
101,772	-5,449	243,878	119,771
102,787	-5,410	243,666	119,688
103,801	-5,408	243,516	119,605
104,816	-5,295	243,381	119,623
105,830	-5,048	243,233	119,744
106,845	-5,256	243,099	119,495
107,860	-5,098	242,968	119,551
108,874	-5,175	242,648	119,319
109,889	-5,379	242,411	119,023
110,903	-5,249	242,196	119,014
111,918	-5,407	242,150	118,850
112,933	-5,395	242,010	118,781
113,947	-5,161	241,743	118,833
114,962	-5,203	241,571	118,703
115,976	-5,173	241,437	118,651
116,991	-5,261	241,165	118,435
118,006	-5,396	241,032	118,247
119,020	-5,309	240,916	118,252
120,035	-5,296	240,859	118,224
121,049	-5,094	240,742	118,322
122,064	-5,243	240,615	118,127
123,079	-5,348	240,347	117,898
124,093	-5,176	240,063	117,889
125,108	-5,654	239,820	117,368
126,122	-5,611	239,626	117,298
127,137	-5,705	239,487	117,143
128,151	-5,576	239,304	117,148
129,166	-5,600	239,304	117,118
130,181	-5,519	238,889	116,970
131,195	-5,613	238,742	116,811
132,210	-5,426	238,621	116,894
133,224	-5,154	238,363	116,979
134,239	-5,140	238,425	117,010
135,254	-5,314	238,244	116,769
136,268	-5,246	237,849	116,621
137,283	-5,525	237,843	116,381
138,297	-5,648	237,599	116,151
139,312	-5,714	237,293	115,938
140,327	-5,399	237,197	116,136
141,341	-5,099	237,292	116,414
142,356	-5,041	237,058	116,336
143,370	-4,948	236,968	116,357
144,385	-4,787	236,928	116,457
145,400	-5,084	236,695	116,092
146,414	-4,832	236,433	116,156
147,429	-4,925	236,233	115,973
148,443	-5,140	235,988	115,670
149,458	-4,992	235,912	115,741
150,473	-5,168	235,856	115,562
151,487	-5,084	235,476	115,432
152,502	-4,814	235,324	115,564
153,516	-4,882	235,076	115,377
154,531	-5,168	235,121	115,160
155,546	-4,875	234,851	115,252
156,560	-5,104	234,704	114,987
157,575	-5,039	234,479	114,918
158,589	-5,075	234,310	114,796
159,604	-4,923	234,295	114,900
160,619	-5,040	234,106	114,703
161,633	-4,834	233,802	114,708
162,648	-4,850	233,821	114,695
163,662	-5,025	233,571	114,423
164,677	-4,991	233,473	114,391
165,692	-5,085	233,296	114,220
166,706	-4,742	233,222	114,446
167,721	-4,821	232,882	114,206
168,735	-4,711	232,870	114,277
169,750	-4,972	232,588	113,922
170,764	-4,951	232,410	113,841
171,779	-4,973	232,359	113,789
172,794	-4,827	232,194	113,813
173,808	-5,024	232,016	113,561
174,823	-5,632	231,811	112,971
175,837	-5,429	231,492	112,965
176,852	-5,159	231,515	113,179
177,867	-4,887	231,568	113,409
178,881	-4,877	231,336	113,293
179,896	-4,717	231,056	113,270
180,910	-4,942	231,021	113,067
181,925	-4,734	230,746	113,086
182,940	-4,910	230,778	112,953
183,954	-4,920	230,571	112,834
184,969	-4,830	230,327	112,775
185,983	-4,822	230,238	112,727
186,998	-4,573	230,019	112,805
188,013	-4,495	229,924	112,809
189,027	-4,566	229,704	112,636
190,042	-4,639	229,613	112,524
191,056	-4,753	229,380	112,311
192,071	-4,815	229,273	112,200
193,086	-4,751	229,156	112,183
194,100	-4,784	228,768	111,957
195,115	-5,012	228,512	111,645
196,129	-5,448	228,394	111,240
197,144	-2,802	229,354	113,755
198,159	1,497	230,500	117,665
199,173	3,862	231,005	119,756
200,188	3,930	230,980	119,786
201,202	3,981	230,777	119,709
202,217	4,269	230,633	119,848
203,232	4,326	230,656	119,893
204,246	4,314	230,522	119,803
205,261	4,722	230,267	119,977
206,275	4,675	230,214	119,902
207,290	4,637	230,120	119,813
208,304	4,688	229,932	119,744
209,319	4,521	229,973	119,626
210,334	4,486	229,490	119,336
211,348	4,537	229,149	119,188
212,363	3,965	229,016	118,667
213,377	3,704	228,799	118,343
214,392	3,862	228,695	118,401
215,407	3,683	228,639	118,223
216,421	3,875	228,513	118,295
217,436	3,776	228,213	118,053
218,450	3,521	227,980	117,727
219,465	3,583	227,959	117,752
220,480	3,599	227,808	117,676
221,494	3,523	227,676	117,539
222,509	3,720	227,598	117,639
223,523	3,974	227,347	117,694
224,538	3,610	227,051	117,251
225,553	3,513	227,185	117,236
226,567	3,913	226,853	117,359
227,582	4,075	226,881	117,487
228,596	3,942	226,736	117,301
229,611	4,011	226,445	117,192
230,626	3,563	226,203	116,715
231,640	3,725	226,191	116,822
232,655	4,000	226,077	116,962
233,669	4,379	225,987	117,193
234,684	4,283	225,890	117,059
235,699	4,321	225,682	116,969
236,713	3,853	225,447	116,483
237,728	3,961	225,242	116,448
238,742	3,794	225,146	116,262
239,757	3,592	225,008	116,028
240,772	3,520	224,960	115,938
241,786	3,617	224,765	115,900
242,801	3,924	224,722	116,099
243,815	4,130	224,511	116,136
244,830	4,275	224,382	116,168
245,844	3,825	224,143	115,695
246,859	3,688	224,031	115,524
247,874	4,062	223,868	115,711
248,888	4,107	223,769	115,683
249,903	3,886	223,556	115,396
250,917	3,810	223,383	115,240
251,932	3,729	223,197	115,073
252,947	3,744	223,009	114,977
253,961	3,605	223,024	114,870
254,976	3,619	222,868	114,791
255,990	3,862	222,789	114,921
257,005	3,875	222,666	114,858
258,020	3,931	222,602	114,856
259,034	4,227	222,442	114,984
260,049	4,074	222,163	114,715
261,063	4,022	221,925	114,543
262,078	4,254	221,816	114,649
263,093	4,250	221,753	114,604
264,107	3,959	221,675	114,337
265,122	3,915	221,597	114,254
266,136	4,280	221,378	114,402
267,151	4,274	221,174	114,281
268,166	3,933	220,894	113,874
269,180	3,594	220,767	113,548
270,195	3,671	220,561	113,489
271,209	3,595	220,509	113,396
272,224	3,788	220,375	113,459
273,239	3,730	220,498	113,469
274,253	3,424	220,218	113,089
275,268	3,686	219,868	113,093
276,282	3,470	219,722	112,848
277,297	3,458	219,576	112,755
278,312	3,731	219,457	112,884
279,326	3,725	219,488	112,886
280,341	3,771	219,237	112,780
281,355	3,966	219,082	112,833
282,370	3,959	218,931	112,741
283,384	3,446	218,760	112,267
284,399	3,584	218,572	112,261
285,414	3,526	218,471	112,157
286,428	3,558	218,557	112,214
287,443	4,091	218,311	112,467
288,457	4,073	218,187	112,380
289,472	3,865	217,987	112,116
290,487	3,394	217,653	111,591
291,501	3,338	217,573	111,499
292,516	3,389	217,537	111,508
293,530	3,483	217,432	111,513
294,545	3,331	217,344	111,347
295,560	3,731	217,143	111,525
296,574	3,513	216,986	111,276
297,589	3,657	216,870	111,311
298,603	4,172	216,718	111,596
299,618	4,012	216,563	111,391
300,633	3,859	216,543	111,259
301,647	3,992	216,393	111,269
302,662	4,266	216,335	111,427
303,676	3,995	216,175	111,139
304,691	4,008	216,011	111,054
305,706	4,110	215,830	111,025
306,720	4,062	215,697	110,911
307,735	3,890	215,380	110,615
308,749	3,659	215,337	110,417
309,764	3,767	215,196	110,413
310,779	4,056	215,155	110,589
311,793	3,681	215,023	110,242
312,808	3,910	214,877	110,322
313,822	3,935	214,705	110,241
314,837	3,815	214,530	110,056
315,852	3,580	214,400	109,811
316,866	3,731	214,258	109,837
317,881	4,194	214,209	110,133
318,895	4,097	214,069	109,981
319,910	3,657	214,036	109,641
320,925	3,586	213,649	109,382
321,939	3,424	213,492	109,177
322,954	3,442	213,415	109,140
323,968	3,895	213,424	109,457
324,983	3,775	213,274	109,286
325,997	4,136	213,146	109,467
327,012	3,994	212,967	109,264
328,027	3,682	212,827	108,961
329,041	4,241	212,825	109,347
330,056	4,167	212,702	109,222
331,070	3,905	212,463	108,904
332,085	3,482	212,184	108,452
333,100	3,661	212,057	108,504
334,114	3,750	211,888	108,471
335,129	3,797	211,769	108,433
336,143	3,619	211,723	108,275
337,158	3,631	211,497	108,158
338,173	3,827	211,328	108,200
339,187	3,562	211,333	108,006
340,202	3,687	210,975	107,901
341,216	3,278	210,931	107,581
342,231	3,716	210,708	107,765
343,246	3,598	210,617	107,627
344,260	3,347	210,603	107,434
345,275	3,585	210,463	107,520
346,289	3,876	210,478	107,722
347,304	3,982	210,338	107,714
348,319	3,618	210,200	107,380
349,333	3,902	209,961	107,446
350,348	3,886	209,756	107,321
351,362	4,146	209,561	107,393
352,377	3,918	209,652	107,271
353,392	3,699	209,498	107,030
354,406	3,910	209,334	107,084
355,421	193,039	1347,144	1431,219
356,435	154,002	1485,856	1431,303
