DTS Sentinel unit serial number:	SN410029Multiplexer serial number:	ORYXHardware model number:	OX2-SRSoftware version number:	ORYX F/W v4,00 Oryx Data Collector v3.7.2.0data status	okinstallation	B6 Nyhavnadifferential loss correction	single-endedforward channel	channel 2reverse channel	N/Adate	2023/12/08time	01:45:09forward acquisition time	300,00reverse acquisition time	0,00gamma	499,1914k internal	0,3165k external	0,3165temperature offset calibration	1,0000default loss term (dB/km)	0,3820temperature slope calibration	1,0000multiplexer offset coefficient	1,0000multiplexer slope coefficient	1,0000fibre end	0,00T internal ref (°C)	13,24T ext. ref 1 (°C)	-3,62T ext. ref 2 (°C)	-3,63length (m)	temperature (°C)	Stokes	anti-Stokes-744,400	322,417	0,035	0,049
-743,385	-56,178	-0,179	-0,058
-742,371	800,000	0,028	0,079
-741,356	-153,112	-0,386	0,020
-740,342	3,353	0,139	0,074
-739,327	-83,109	-0,293	0,069
-738,312	34,098	0,101	-0,065
-737,298	-60,372	-0,374	-0,116
-736,283	200,077	0,063	0,072
-735,269	-118,861	-0,203	0,026
-734,254	399,079	0,083	0,128
-733,239	-20,880	-0,445	-0,200
-732,225	47,227	0,116	0,079
-731,210	800,000	-0,022	0,049
-730,196	102,802	0,081	-0,069
-729,181	110,706	-0,111	-0,098
-728,167	-200,000	0,003	0,032
-727,152	-200,000	-0,032	0,211
-726,137	-167,479	-0,108	0,003
-725,123	59,359	-0,155	-0,112
-724,108	227,127	-0,079	-0,094
-723,094	800,000	0,060	-0,163
-722,079	250,133	0,013	-0,017
-721,064	-57,033	-0,008	-0,003
-720,050	-200,000	0,022	-0,112
-719,035	178,851	-0,080	0,086
-718,021	800,000	-0,035	-0,077
-717,006	800,000	-0,038	-0,087
-715,991	301,178	-0,079	-0,108
-714,977	312,169	0,053	-0,074
-713,962	43,582	-0,094	-0,063
-712,948	800,000	0,063	0,136
-711,933	800,000	-0,027	-0,067
-710,918	28,282	-0,087	-0,054
-709,904	-200,000	-0,031	-0,106
-708,889	-56,115	-0,031	0,010
-707,875	-110,020	-0,175	0,027
-706,860	189,794	-0,121	-0,134
-705,845	-31,876	0,078	-0,032
-704,831	555,974	-0,075	0,134
-703,816	-14,838	-0,088	-0,041
-702,802	-200,000	0,009	-0,182
-701,787	800,000	0,033	-0,072
-700,772	28,280	-0,075	-0,046
-699,758	800,000	-0,056	-0,119
-698,743	-200,000	-0,010	-0,053
-697,729	-71,892	-0,091	0,025
-696,714	305,303	-0,084	0,115
-695,699	-200,000	0,007	0,040
-694,685	-146,094	-0,136	0,009
-693,670	-200,000	-0,003	-0,035
-692,656	800,000	-0,041	-0,097
-691,641	-113,831	0,152	0,021
-690,627	56,039	-0,034	-0,024
-689,612	-200,000	0,002	0,140
-688,597	-20,302	-0,086	-0,039
-687,583	-69,801	-0,052	0,015
-686,568	-89,111	-0,127	-0,027
-685,554	-111,625	-0,099	-0,015
-684,539	-200,000	0,011	-0,061
-683,524	172,794	-0,066	-0,070
-682,510	-128,737	0,061	0,006
-681,495	-200,000	-0,019	-0,078
-680,481	-200,000	0,003	-0,058
-679,466	104,839	-0,124	0,107
-678,451	301,723	0,067	-0,090
-677,437	800,000	0,025	0,071
-676,422	-200,000	0,013	-0,113
-675,408	-200,000	0,026	-0,124
-674,393	-112,536	-0,105	0,015
-673,378	-125,469	-0,137	-0,015
-672,364	772,886	0,019	0,039
-671,349	-200,000	0,011	-0,062
-670,335	-200,000	0,023	0,222
-669,320	800,000	0,039	0,105
-668,305	-200,000	-0,005	0,075
-667,291	51,165	-0,119	-0,083
-666,276	-200,000	-0,026	0,094
-665,262	-200,000	-0,026	-0,136
-664,247	578,655	-0,035	-0,063
-663,232	93,370	0,108	0,089
-662,218	-47,951	0,103	0,036
-661,203	800,000	-0,020	-0,054
-660,189	-172,672	0,078	0,002
-659,174	-200,000	0,027	-0,119
-658,159	-154,803	-0,115	-0,005
-657,145	800,000	0,033	-0,077
-656,130	-24,921	-0,159	-0,069
-655,116	594,847	0,090	0,164
-654,101	-200,000	-0,002	0,091
-653,086	800,000	-0,038	-0,078
-652,072	-29,957	-0,046	0,019
-651,057	24,525	-0,106	-0,064
-650,043	-200,000	-0,015	-0,114
-649,028	7,390	0,079	-0,043
-648,014	-200,000	-0,002	0,055
-646,999	51,017	0,139	0,096
-645,984	-62,383	-0,072	-0,022
-644,970	-200,000	0,009	-0,041
-643,955	-200,000	-0,005	-0,142
-642,941	-30,500	-0,074	-0,031
-641,926	14,266	-0,045	0,026
-640,911	191,832	0,071	0,079
-639,897	-73,155	0,030	0,008
-638,882	107,050	-0,114	0,099
-637,868	-200,000	0,010	-0,052
-636,853	-173,234	-0,044	0,001
-635,838	143,146	-0,056	-0,055
-634,824	62,706	-0,102	-0,075
-633,809	800,000	0,044	0,119
-632,795	262,156	-0,035	0,044
-631,780	-52,594	0,012	-0,004
-630,765	-123,682	-0,083	-0,010
-629,751	-63,703	-0,024	0,007
-628,736	-200,000	0,008	0,077
-627,722	111,042	-0,082	0,072
-626,707	-200,000	-0,005	-0,056
-625,692	61,169	-0,047	-0,034
-624,678	-9,680	0,087	0,042
-623,663	800,000	-0,006	-0,016
-622,649	382,876	0,031	0,047
-621,634	31,894	0,038	-0,024
-620,619	-46,656	0,071	-0,025
-619,605	-73,332	0,124	0,033
-618,590	57,444	-0,046	-0,033
-617,576	770,642	-0,008	-0,017
-616,561	-200,000	0,001	0,036
-615,546	614,415	-0,023	0,042
-614,532	-187,963	-0,128	0,001
-613,517	-100,120	0,075	-0,013
-612,503	-200,000	-0,002	-0,133
-611,488	39,159	0,073	0,047
-610,474	262,146	0,039	-0,049
-609,459	-200,000	-0,063	-0,248
-608,444	-111,448	-0,051	-0,007
-607,430	-14,322	-0,103	-0,048
-606,415	-113,633	0,130	0,018
-605,401	-79,246	-0,075	-0,018
-604,386	-18,541	0,088	0,040
-603,371	444,157	0,093	0,149
-602,357	591,890	-0,032	-0,057
-601,342	-62,060	-0,053	0,016
-600,328	140,016	-0,058	0,056
-599,313	368,750	0,044	0,066
-598,298	262,205	0,051	-0,065
-597,284	242,449	0,036	0,044
-596,269	-200,000	0,014	0,132
-595,255	7,303	-0,046	-0,025
-594,240	-178,335	-0,162	-0,003
-593,225	-200,000	0,026	-0,095
-592,211	-23,596	-0,100	-0,044
-591,196	-27,611	0,077	0,032
-590,182	-52,888	0,103	-0,034
-589,167	800,000	0,069	0,142
-588,152	-200,000	-0,014	0,164
-587,138	125,828	0,076	0,071
-586,123	-177,019	-0,025	-0,000
-585,109	63,443	0,061	0,045
-584,094	-37,822	-0,132	-0,051
-583,079	-15,307	-0,084	-0,039
-582,065	-90,247	0,195	-0,041
-581,050	-200,000	0,010	0,191
-580,036	391,431	-0,075	0,115
-579,021	-200,000	-0,013	-0,084
-578,006	111,962	-0,097	-0,086
-576,992	-21,733	0,088	-0,039
-575,977	312,858	-0,105	-0,144
-574,963	-200,000	0,002	-0,019
-573,948	259,587	0,087	0,110
-572,934	-16,935	-0,050	-0,023
-571,919	-200,000	0,008	0,091
-570,904	36,987	0,022	-0,014
-569,890	-200,000	0,000	-0,071
-568,875	18,647	0,091	-0,053
-567,861	-200,000	-0,024	-0,087
-566,846	300,363	-0,070	0,094
-565,831	-200,000	0,007	0,035
-564,817	509,589	0,028	-0,047
-563,802	149,967	0,039	-0,039
-562,788	221,107	-0,092	-0,108
-561,773	-29,177	0,035	0,014
-560,758	-200,000	-0,014	-0,085
-559,744	-101,764	-0,099	0,017
-558,729	91,415	0,036	0,030
-557,715	800,000	0,037	0,083
-556,700	131,571	-0,035	0,033
-555,685	57,014	-0,013	-0,009
-554,671	-172,213	0,107	-0,002
-553,656	-41,938	0,047	-0,018
-552,642	-57,794	-0,059	0,019
-551,627	106,670	0,013	0,011
-550,612	-200,000	0,020	-0,094
-549,598	-200,000	0,008	0,057
-548,583	-200,000	-0,009	0,069
-547,569	4,136	-0,022	-0,012
-546,554	372,089	0,034	-0,050
-545,539	788,391	-0,090	0,182
-544,525	-143,096	0,014	-0,001
-543,510	-32,269	-0,065	-0,026
-542,496	-200,000	-0,013	-0,129
-541,481	189,302	-0,033	-0,037
-540,466	-200,000	0,002	-0,206
-539,452	166,450	0,120	-0,124
-538,437	-200,000	0,029	-0,099
-537,423	800,000	-0,039	0,090
-536,408	800,000	0,026	-0,065
-535,393	233,963	-0,018	0,022
-534,379	-131,695	-0,052	0,005
-533,364	401,164	-0,053	-0,082
-532,350	800,000	-0,013	-0,038
-531,335	-31,775	0,075	0,030
-530,321	-49,258	-0,181	0,063
-529,306	-92,074	0,145	0,030
-528,291	459,135	-0,033	-0,053
-527,277	106,244	0,095	-0,082
-526,262	-200,000	0,018	0,072
-525,248	-18,867	-0,073	0,033
-524,233	-200,000	0,016	0,094
-523,218	-40,008	0,103	-0,039
-522,204	-39,376	-0,069	0,026
-521,189	800,000	0,026	-0,082
-520,175	800,000	0,032	-0,083
-519,160	-139,758	0,048	0,004
-518,145	-39,833	0,097	-0,037
-517,131	-200,000	-0,005	0,041
-516,116	1,646	0,142	-0,074
-515,102	-108,152	0,027	-0,004
-514,087	667,620	-0,049	0,093
-513,072	-25,951	-0,063	-0,027
-512,058	37,067	-0,088	0,057
-511,043	176,930	0,047	0,050
-510,029	-189,365	0,075	-0,001
-509,014	-146,968	0,080	0,005
-507,999	491,887	-0,026	-0,043
-506,985	-154,288	0,079	-0,004
-505,970	699,911	0,036	-0,070
-504,956	800,000	0,024	0,057
-503,941	800,000	0,039	0,101
-502,926	-200,000	0,002	-0,132
-501,912	800,000	-0,060	0,159
-500,897	-76,776	-0,023	-0,006
-499,883	800,000	0,009	0,024
-498,868	54,607	-0,045	-0,032
-497,853	-129,942	-0,098	0,010
-496,839	800,000	0,042	-0,108
-495,824	22,217	0,081	0,048
-494,810	259,615	0,016	0,021
-493,795	52,853	0,069	0,048
-492,781	-200,000	0,014	-0,142
-491,766	-155,884	0,050	0,002
-490,751	800,000	-0,037	-0,091
-489,737	-8,943	0,034	0,017
-488,722	-100,110	0,039	0,007
-487,708	-101,883	0,083	0,014
-486,693	-200,000	-0,017	0,072
-485,678	-136,315	-0,073	0,006
-484,664	-200,000	0,003	-0,051
-483,649	-29,003	0,113	-0,047
-482,635	-25,346	-0,186	0,080
-481,620	225,391	-0,058	-0,068
-480,605	170,634	0,066	0,069
-479,591	-7,975	-0,047	0,023
-478,576	-169,920	0,102	-0,003
-477,562	12,804	-0,089	-0,050
-476,547	-200,000	0,000	-0,058
-475,532	-103,324	-0,091	-0,015
-474,518	-200,000	-0,007	0,090
-473,503	-200,000	-0,000	-0,030
-472,489	-200,000	0,033	0,122
-471,474	-9,486	0,083	0,040
-470,459	125,135	-0,081	0,074
-469,445	78,796	0,035	0,027
-468,430	800,000	-0,041	0,084
-467,416	-200,000	-0,011	0,038
-466,401	-33,695	-0,039	-0,016
-465,386	41,773	0,120	0,079
-464,372	800,000	0,043	-0,097
-463,357	-200,000	0,022	-0,122
-462,343	800,000	0,030	-0,081
-461,328	-200,000	-0,009	-0,066
-460,313	201,175	0,057	-0,064
-459,299	58,988	0,064	-0,046
-458,284	69,695	-0,061	0,045
-457,270	-19,962	-0,132	-0,059
-456,255	25,875	0,021	-0,012
-455,241	593,369	-0,072	-0,131
-454,226	606,714	0,035	-0,064
-453,211	-110,769	0,034	0,005
-452,197	-15,141	0,067	-0,031
-451,182	169,374	-0,081	0,084
-450,168	69,335	0,090	-0,067
-449,153	-63,637	-0,148	0,044
-448,138	800,000	0,029	-0,091
-447,124	800,000	-0,033	-0,085
-446,109	315,879	0,028	0,038
-445,095	21,643	-0,038	0,022
-444,080	-57,483	-0,061	-0,019
-443,065	800,000	-0,063	0,160
-442,051	458,115	-0,024	-0,038
-441,036	-10,832	0,196	-0,094
-440,022	-131,138	-0,102	0,010
-439,007	800,000	-0,048	-0,097
-437,992	-200,000	-0,002	0,104
-436,978	-76,713	-0,070	0,018
-435,963	577,056	-0,015	0,026
-434,949	-200,000	-0,006	0,112
-433,934	130,570	-0,093	-0,087
-432,919	679,377	-0,047	0,089
-431,905	-200,000	-0,027	-0,089
-430,890	224,113	0,073	0,086
-429,876	116,790	0,019	-0,017
-428,861	-73,438	-0,075	0,020
-427,846	8,834	-0,071	-0,039
-426,832	91,761	0,006	-0,005
-425,817	-58,317	0,133	-0,042
-424,803	-200,000	-0,007	-0,106
-423,788	32,135	0,103	-0,064
-422,773	352,852	-0,033	-0,048
-421,759	179,007	0,034	-0,036
-420,744	10,640	-0,092	-0,051
-419,730	729,218	-0,037	-0,071
-418,715	800,000	0,056	-0,150
-417,701	76,246	-0,103	-0,079
-416,686	-98,553	0,123	-0,023
-415,671	-200,000	-0,017	0,056
-414,657	280,260	0,107	0,139
-413,642	14,870	-0,110	0,063
-412,628	800,000	-0,025	0,070
-411,613	-105,391	0,045	0,007
-410,598	473,410	-0,085	-0,139
-409,584	-200,000	-0,020	0,065
-408,569	800,000	0,025	-0,061
-407,555	-122,409	0,091	0,011
-406,540	369,158	0,033	0,049
-405,525	-120,556	-0,169	-0,021
-404,511	-200,000	0,012	-0,151
-403,496	48,070	-0,059	-0,040
-402,482	-46,368	-0,097	-0,034
-401,467	-46,302	0,061	0,022
-400,452	136,061	0,056	0,053
-399,438	-84,291	0,091	0,021
-398,423	95,743	0,036	0,030
-397,409	693,144	0,087	-0,166
-396,394	-122,907	0,110	-0,013
-395,379	-200,000	0,026	0,086
-394,365	-164,951	0,026	-0,001
-393,350	108,683	-0,044	0,038
-392,336	-200,000	-0,015	-0,152
-391,321	800,000	0,025	0,066
-390,306	-3,102	-0,046	-0,023
-389,292	-200,000	0,013	-0,164
-388,277	-15,680	0,107	0,049
-387,263	800,000	0,021	0,062
-386,248	469,312	0,071	0,116
-385,233	733,401	-0,027	0,053
-384,219	-200,000	0,001	0,079
-383,204	41,235	0,053	0,034
-382,190	-200,000	0,016	-0,097
-381,175	800,000	-0,017	-0,049
-380,160	-200,000	0,044	-0,153
-379,146	509,240	0,033	-0,056
-378,131	58,039	-0,135	-0,096
-377,117	171,500	-0,068	-0,071
-376,102	-126,056	-0,149	0,016
-375,088	683,876	-0,018	-0,034
-374,073	-75,898	-0,136	0,035
-373,058	-65,787	0,113	0,033
-372,044	393,718	0,052	0,079
-371,029	-71,668	0,058	0,016
-370,015	84,674	0,016	-0,013
-369,000	-200,000	-0,012	-0,053
-367,985	67,845	-0,104	0,077
-366,971	-38,215	-0,047	-0,018
-365,956	-11,749	0,168	0,080
-364,942	-195,432	0,081	0,000
-363,927	-200,000	0,020	0,100
-362,912	800,000	-0,013	-0,034
-361,898	208,405	0,042	0,048
-360,883	800,000	-0,040	-0,102
-359,869	-200,000	0,016	0,076
-358,854	-200,000	0,003	-0,044
-357,839	26,024	0,140	-0,084
-356,825	-200,000	0,046	0,205
-355,810	800,000	-0,015	0,045
-354,796	275,700	-0,036	0,046
-353,781	63,579	-0,087	0,063
-352,766	-114,042	0,099	0,014
-351,752	476,996	-0,116	-0,190
-350,737	165,303	0,091	0,094
-349,723	19,415	0,079	0,046
-348,708	-200,000	-0,005	0,056
-347,693	26,133	0,104	0,063
-346,679	73,970	0,032	0,024
-345,664	-122,668	-0,024	0,003
-344,650	-4,133	0,078	-0,039
-343,635	437,264	0,057	0,091
-342,620	62,976	0,192	0,139
-341,606	800,000	-0,029	0,077
-340,591	271,230	-0,079	0,101
-339,577	-113,851	0,071	0,010
-338,562	-200,000	0,016	-0,096
-337,548	42,962	0,013	0,009
-336,533	-140,409	-0,070	-0,005
-335,518	-72,074	0,038	0,010
-334,504	-130,347	0,050	-0,005
-333,489	-36,842	-0,127	0,049
-332,475	52,202	-0,153	0,105
-331,460	157,744	0,064	0,064
-330,445	-87,378	-0,050	-0,011
-329,431	-5,910	0,073	-0,036
-328,416	170,150	-0,021	0,022
-327,402	800,000	-0,024	0,060
-326,387	-160,496	0,091	-0,003
-325,372	-200,000	0,008	-0,029
-324,358	227,817	-0,121	-0,143
-323,343	110,719	-0,053	0,046
-322,329	-80,865	0,111	0,027
-321,314	-143,154	-0,043	0,003
-320,299	201,317	-0,052	0,058
-319,285	-44,711	0,061	-0,022
-318,270	800,000	-0,022	0,057
-317,256	123,600	0,102	-0,093
-316,241	22,512	-0,037	0,022
-315,226	-200,000	0,009	-0,070
-314,212	-59,654	-0,024	-0,007
-313,197	-71,061	-0,088	0,024
-312,183	170,240	-0,055	0,057
-311,168	800,000	-0,038	-0,105
-310,153	-31,424	-0,071	-0,029
-309,139	-129,764	-0,051	0,005
-308,124	800,000	0,045	0,090
-307,110	88,127	-0,115	-0,092
-306,095	-87,735	0,221	-0,048
-305,080	106,435	-0,162	-0,139
-304,066	800,000	-0,061	-0,153
-303,051	403,383	0,063	-0,096
-302,037	371,624	0,057	-0,083
-301,022	532,957	0,029	0,050
-300,008	-85,251	0,078	0,017
-298,993	43,146	-0,150	0,099
-297,978	-78,717	-0,113	-0,028
-296,964	-43,293	0,027	-0,010
-295,949	71,713	-0,014	-0,010
-294,935	-8,916	-0,050	0,024
-293,920	-149,456	0,042	0,002
-292,905	-60,827	0,056	-0,017
-291,891	800,000	-0,021	0,047
-290,876	-70,787	0,076	-0,021
-289,862	-19,594	-0,081	0,036
-288,847	192,607	-0,015	-0,017
-287,832	-140,351	-0,089	-0,007
-286,818	-137,425	-0,099	0,008
-285,803	-81,091	0,212	-0,050
-284,789	800,000	0,031	0,088
-283,774	119,170	0,078	0,069
-282,759	-23,998	0,123	-0,053
-281,745	49,667	-0,063	0,043
-280,730	-106,000	-0,158	-0,025
-279,716	96,301	0,172	-0,142
-278,701	-200,000	-0,008	0,053
-277,686	422,697	0,077	0,119
-276,672	338,202	0,056	0,079
-275,657	800,000	0,028	-0,078
-274,643	90,631	-0,053	-0,043
-273,628	516,115	-0,060	-0,102
-272,613	-200,000	0,028	-0,101
-271,599	761,364	-0,039	0,076
-270,584	112,178	0,030	0,026
-269,570	-90,152	0,137	0,029
-268,555	800,000	-0,034	-0,074
-267,540	-157,840	0,054	-0,002
-266,526	-41,555	-0,008	-0,003
-265,511	800,000	0,022	0,044
-264,497	-200,000	0,005	-0,016
-263,482	-143,932	0,060	-0,004
-262,467	-19,884	-0,081	0,036
-261,453	-200,000	-0,015	-0,094
-260,438	800,000	-0,018	-0,057
-259,424	-157,851	-0,039	-0,002
-258,409	-200,000	0,029	-0,092
-257,395	23,870	0,081	-0,048
-256,380	800,000	0,070	0,173
-255,365	37,670	-0,054	0,034
-254,351	800,000	0,024	-0,066
-253,336	-200,000	-0,007	0,053
-252,322	-200,000	0,013	0,064
-251,307	14,221	-0,104	0,058
-250,292	402,763	0,043	0,066
-249,278	-200,000	0,002	0,118
-248,263	-180,262	0,111	0,002
-247,249	-76,910	-0,088	0,022
-246,234	116,353	0,137	0,121
-245,219	-96,491	-0,108	0,020
-244,205	268,785	-0,052	0,066
-243,190	800,000	0,023	0,064
-242,176	323,503	-0,068	0,094
-241,161	-200,000	0,012	0,147
-240,146	-21,225	0,103	0,045
-239,132	-90,429	-0,097	-0,020
-238,117	-200,000	0,046	-0,183
-237,103	-200,000	-0,015	-0,048
-236,088	-107,890	-0,021	0,003
-235,073	431,952	0,020	0,031
-234,059	114,938	0,088	0,077
-233,044	-200,000	0,009	0,071
-232,030	128,053	-0,025	-0,023
-231,015	-9,909	0,105	-0,050
-230,000	173,939	-0,054	-0,056
-228,986	8,534	0,096	-0,052
-227,971	104,001	0,057	0,049
-226,957	-23,651	0,071	0,031
-225,942	116,771	0,031	0,027
-224,927	-113,893	-0,104	0,014
-223,913	-168,857	-0,176	0,005
-222,898	-138,334	0,081	-0,006
-221,884	-200,000	-0,007	-0,064
-220,869	-124,160	0,042	-0,005
-219,855	-44,693	0,086	0,031
-218,840	-200,000	0,003	0,086
-217,825	45,181	-0,033	-0,022
-216,811	297,256	-0,028	-0,037
-215,796	317,180	-0,102	-0,140
-214,782	285,143	-0,071	-0,092
-213,767	121,088	0,029	-0,026
-212,752	-117,510	0,025	0,003
-211,738	-200,000	0,030	0,126
-210,723	-126,172	-0,038	0,004
-209,709	-159,318	-0,032	-0,001
-208,694	-143,699	-0,143	-0,010
-207,679	-59,269	0,173	-0,053
-206,665	112,242	-0,016	0,014
-205,650	554,947	0,025	0,043
-204,636	85,975	0,015	0,012
-203,621	760,865	0,046	0,091
-202,606	189,405	-0,087	0,094
-201,592	800,000	0,024	-0,055
-200,577	-91,975	-0,116	0,024
-199,563	-200,000	-0,021	0,076
-198,548	-200,000	0,012	0,102
-197,533	-137,385	-0,133	0,011
-196,519	691,318	0,060	0,114
-195,504	176,504	-0,048	-0,050
-194,490	530,555	-0,056	0,095
-193,475	111,793	-0,060	0,052
-192,460	-38,484	0,048	0,018
-191,446	-200,000	0,038	0,217
-190,431	-200,000	-0,004	0,028
-189,417	800,000	-0,025	0,056
-188,402	-200,000	0,001	-0,065
-187,387	800,000	0,019	-0,048
-186,373	-2,131	-0,059	0,030
-185,358	-200,000	-0,019	-0,078
-184,344	-200,000	0,016	-0,103
-183,329	800,000	-0,028	0,080
-182,315	-82,046	-0,093	0,022
-181,300	124,185	-0,023	0,021
-180,285	-200,000	0,006	0,042
-179,271	118,945	0,072	-0,064
-178,256	230,215	-0,081	-0,095
-177,242	96,500	0,042	-0,034
-176,227	-29,151	-0,082	0,033
-175,212	-200,000	-0,002	0,064
-174,198	708,806	0,030	0,057
-173,183	-154,008	-0,065	-0,003
-172,169	-23,119	-0,143	-0,062
-171,154	71,252	-0,025	-0,018
-170,139	-200,000	0,003	-0,057
-169,125	760,500	-0,005	-0,009
-168,110	653,734	-0,016	0,029
-167,096	-200,000	-0,021	0,082
-166,081	-102,791	-0,208	-0,035
-165,066	-22,539	0,092	-0,040
-164,052	121,196	-0,075	-0,067
-163,037	62,945	-0,030	0,021
-162,023	-118,460	0,106	-0,013
-161,008	-74,622	-0,159	0,041
-159,993	442,181	0,058	-0,092
-158,979	-200,000	-0,032	-0,107
-157,964	38,924	0,058	-0,037
-156,950	163,870	0,046	-0,047
-155,935	-32,303	-0,115	0,046
-154,920	-200,000	0,014	0,077
-153,906	531,133	0,067	-0,115
-152,891	165,071	-0,065	0,066
-151,877	800,000	-0,036	0,094
-150,862	-200,000	0,028	0,114
-149,847	68,938	0,098	-0,072
-148,833	23,167	0,026	0,015
-147,818	800,000	0,033	0,077
-146,804	-104,835	0,150	-0,024
-145,789	396,833	0,062	0,093
-144,775	-200,000	-0,005	-0,112
-143,760	800,000	-0,051	-0,115
-142,745	143,968	-0,046	0,044
-141,731	108,322	-0,041	0,036
-140,716	3,254	-0,099	-0,051
-139,702	626,857	0,022	-0,040
-138,687	-30,115	-0,140	-0,057
-137,672	-129,765	0,032	-0,003
-136,658	-200,000	-0,004	-0,069
-135,643	-200,000	-0,010	-0,066
-134,629	800,000	0,033	-0,085
-133,614	397,399	-0,035	-0,052
-132,599	-200,000	-0,013	0,122
-131,585	800,000	0,042	-0,090
-130,570	156,614	-0,057	-0,057
-129,556	-56,782	-0,079	0,025
-128,541	800,000	0,066	-0,136
-127,526	-118,228	0,034	-0,004
-126,512	364,549	0,042	-0,060
-125,497	-185,113	0,088	0,001
-124,483	-166,401	-0,087	-0,003
-123,468	49,710	0,050	0,034
-122,453	-200,000	0,003	0,060
-121,439	-200,000	-0,014	-0,161
-120,424	-200,000	-0,004	-0,053
-119,410	-139,576	0,023	-0,002
-118,395	-34,773	-0,114	-0,044
-117,380	-197,452	0,102	-0,000
-116,366	653,923	-0,053	0,099
-115,351	800,000	0,035	-0,089
-114,337	-98,262	-0,132	0,024
-113,322	-200,000	0,009	-0,064
-112,307	800,000	0,064	-0,170
-111,293	75,864	0,043	0,033
-110,278	186,711	-0,106	-0,114
-109,264	-200,000	0,001	-0,110
-108,249	-118,327	-0,069	-0,009
-107,234	-161,096	-0,035	-0,001
-106,220	-157,266	0,050	-0,002
-105,205	-75,445	0,062	0,016
-104,191	88,978	0,054	0,043
-103,176	269,105	0,103	0,131
-102,162	-37,836	0,047	-0,018
-101,147	62,041	-0,075	-0,054
-100,132	800,000	0,058	-0,152
-99,118	133,765	0,074	-0,069
-98,103	-200,000	-0,001	-0,063
-97,089	-189,500	0,068	-0,001
-96,074	97,238	-0,051	0,042
-95,059	-172,505	0,145	0,003
-94,045	800,000	-0,053	-0,108
-93,030	-90,321	-0,080	0,017
-92,016	-200,000	0,007	-0,103
-91,001	-97,188	0,077	0,014
-89,986	64,328	0,030	0,022
-88,972	-181,240	0,077	0,001
-87,957	800,000	0,025	-0,070
-86,943	29,164	-0,116	-0,070
-85,928	719,006	-0,057	-0,110
-84,913	-46,040	0,035	0,012
-83,899	-200,000	-0,002	-0,086
-82,884	-59,366	-0,001	0,000
-81,870	145,966	0,037	0,035
-80,855	4,650	0,063	-0,033
-79,840	160,184	-0,046	-0,046
-78,826	-200,000	0,015	0,056
-77,811	-200,000	-0,022	-0,099
-76,797	-87,173	0,025	-0,005
-75,782	-200,000	-0,003	-0,116
-74,767	-64,057	0,153	-0,045
-73,753	-109,422	-0,098	-0,015
-72,738	-200,000	-0,023	0,142
-71,724	-94,868	-0,127	-0,024
-70,709	53,247	0,059	-0,041
-69,694	102,555	-0,028	-0,023
-68,680	-131,257	-0,095	0,009
-67,665	170,196	0,050	0,051
-66,651	-200,000	0,008	0,141
-65,636	445,513	-0,045	-0,070
-64,622	222,297	0,034	0,039
-63,607	-113,954	-0,073	-0,010
-62,592	800,000	0,028	0,063
-61,578	421,738	0,038	0,059
-60,563	204,289	0,077	0,086
-59,549	374,429	-0,085	0,125
-58,534	42,071	-2,151	-1,396
-57,519	-200,000	-0,084	-0,821
-56,505	-200,000	-1,475	-5,203
-55,490	67,917	1,033	0,756
-54,476	800,000	5,441	12,091
-53,461	-200,000	18,823	318,491
-52,446	800,000	740,815	2322,980
-51,432	549,736	1654,494	2851,219
-50,417	109,988	1637,592	1406,596
-49,403	73,630	1287,997	965,018
-48,388	29,612	1029,674	625,763
-47,373	19,681	992,499	570,346
-46,359	17,017	979,991	554,392
-45,344	13,645	976,118	541,121
-44,330	13,977	974,734	541,422
-43,315	13,325	972,765	538,172
-42,300	13,210	971,791	537,237
-41,286	13,271	970,847	536,892
-40,271	13,282	969,824	536,342
-39,257	13,249	969,050	535,783
-38,242	13,243	968,278	535,319
-37,227	13,265	967,514	534,946
-36,213	13,285	966,368	534,355
-35,198	13,219	965,645	533,720
-34,184	13,229	964,905	533,321
-33,169	13,276	963,736	532,806
-32,154	13,280	962,879	532,326
-31,140	13,313	961,994	531,921
-30,125	13,276	961,450	531,480
-29,111	13,219	960,586	530,797
-28,096	13,265	959,751	530,464
-27,082	13,273	959,155	530,138
-26,067	13,220	958,437	529,549
-25,052	13,267	957,546	529,188
-24,038	13,224	957,042	528,751
-23,023	13,289	956,392	528,578
-22,009	13,335	955,504	528,217
-20,994	13,315	955,082	527,898
-19,979	13,289	954,368	527,397
-18,965	13,235	953,855	526,919
-17,950	13,293	953,323	526,790
-16,936	13,228	952,551	526,134
-15,921	13,202	952,004	525,731
-14,906	13,219	951,226	525,335
-13,892	13,181	950,643	524,868
-12,877	13,144	949,937	524,341
-11,863	13,163	949,203	523,975
-10,848	13,187	948,684	523,743
-9,833	13,212	948,399	523,645
-8,819	13,211	947,537	523,146
-7,804	13,179	947,025	522,742
-6,790	13,197	946,359	522,408
-5,775	13,251	945,798	522,250
-4,760	13,208	945,129	521,722
-3,746	13,180	944,612	521,329
-2,731	13,077	943,807	520,536
-1,717	12,988	943,195	519,896
-0,702	12,983	942,435	519,440
0,313	12,814	941,976	519,438
1,327	16,211	939,707	528,869
2,342	25,254	790,605	468,792
3,356	21,245	445,138	257,979
4,371	-8,017	298,033	143,231
5,386	-11,628	279,743	130,980
6,400	-12,800	274,115	127,235
7,415	-12,921	271,654	125,970
8,429	-13,143	270,279	125,116
9,444	-13,166	269,427	124,688
10,459	-13,141	268,701	124,365
11,473	-13,338	268,125	123,907
12,488	-13,547	267,690	123,503
13,502	-13,583	266,940	123,114
14,517	-13,398	266,482	123,060
15,531	-13,358	266,027	122,875
16,546	-13,364	265,856	122,779
17,561	-13,194	265,415	122,719
18,575	-13,126	265,130	122,637
19,590	-13,289	264,623	122,245
20,604	-13,376	264,568	122,130
21,619	-13,445	264,026	121,806
22,634	-13,423	263,869	121,743
23,648	-13,455	263,378	121,477
24,663	-13,531	263,198	121,315
25,677	-13,349	262,800	121,284
26,692	-13,348	262,588	121,176
27,707	-13,231	262,382	121,176
28,721	-13,356	262,114	120,928
29,736	-13,461	261,920	120,735
30,750	-13,366	261,450	120,592
31,765	-13,449	261,277	120,427
32,780	-13,367	260,904	120,318
33,794	-13,314	260,734	120,276
34,809	-13,404	260,570	120,109
35,823	-13,560	260,322	119,846
36,838	-13,431	260,043	119,821
37,853	-13,358	259,788	119,758
38,867	-13,557	259,494	119,435
39,882	-13,559	259,334	119,350
40,896	-13,532	259,111	119,260
41,911	-13,619	258,856	119,055
42,926	-13,426	258,642	119,116
43,940	-13,593	258,313	118,808
44,955	-13,662	258,188	118,679
45,969	-13,755	257,911	118,459
46,984	-13,890	257,567	118,171
47,999	-14,167	257,333	117,811
49,013	-14,013	256,869	117,723
50,028	-14,261	256,873	117,497
51,042	-14,233	256,441	117,314
52,057	-14,377	256,225	117,079
53,071	-14,237	256,119	117,142
54,086	-14,257	255,976	117,048
55,101	-14,156	255,839	117,063
56,115	-13,498	255,388	117,419
57,130	-13,408	255,503	117,539
58,144	-13,406	255,354	117,462
59,159	-13,204	255,177	117,546
60,174	-13,256	254,879	117,353
61,188	-13,490	254,833	117,118
62,203	-13,346	254,535	117,096
63,217	-13,376	254,284	116,944
64,232	-13,394	254,021	116,797
65,247	-13,390	253,859	116,716
66,261	-13,481	253,647	116,529
67,276	-13,645	253,340	116,236
68,290	-13,786	252,937	115,920
69,305	-13,934	252,810	115,724
70,320	-13,897	252,721	115,705
71,334	-13,484	252,531	115,962
72,349	-13,248	252,252	116,026
73,363	-13,279	252,037	115,890
74,378	-13,306	251,941	115,812
75,393	-13,387	251,680	115,613
76,407	-13,448	251,590	115,509
77,422	-13,369	251,234	115,403
78,436	-13,436	251,133	115,289
79,451	-13,307	250,840	115,254
80,466	-13,393	250,435	114,984
81,480	-13,689	250,220	114,624
82,495	-13,760	250,244	114,565
83,509	-13,561	250,057	114,637
84,524	-13,585	249,652	114,421
85,539	-13,767	249,435	114,157
86,553	-13,919	249,417	114,010
87,568	-13,400	249,050	114,271
88,582	-13,699	249,024	113,996
89,597	-13,792	248,687	113,753
90,611	-13,557	248,422	113,821
91,626	-13,432	248,543	113,971
92,641	-13,663	248,359	113,682
93,655	-13,354	248,036	113,784
94,670	-13,658	247,938	113,473
95,684	-13,550	247,601	113,400
96,699	-13,377	247,353	113,421
97,714	-13,792	247,278	113,029
98,728	-13,942	247,133	112,826
99,743	-13,687	246,728	112,844
100,757	-13,858	246,523	112,598
101,772	-13,829	246,434	112,571
102,787	-13,849	246,310	112,488
103,801	-13,541	246,049	112,616
104,816	-13,674	245,907	112,429
105,830	-13,419	245,703	112,539
106,845	-13,447	245,661	112,487
107,860	-13,484	245,349	112,302
108,874	-13,685	245,182	112,049
109,889	-13,622	244,928	111,975
110,903	-13,609	244,851	111,941
111,918	-13,759	244,527	111,659
112,933	-13,660	244,401	111,673
113,947	-13,463	244,301	111,781
114,962	-13,548	244,210	111,659
115,976	-13,417	243,976	111,650
116,991	-13,503	243,661	111,425
118,006	-13,622	243,613	111,295
119,020	-13,577	243,429	111,238
120,035	-13,257	243,151	111,364
121,049	-13,307	243,097	111,288
122,064	-13,452	243,059	111,142
123,079	-13,487	242,687	110,933
124,093	-13,424	242,402	110,845
125,108	-13,629	242,110	110,533
126,122	-13,735	241,911	110,346
127,137	-13,729	241,706	110,247
128,151	-13,892	241,606	110,058
129,166	-13,832	241,412	110,009
130,181	-13,809	241,264	109,951
131,195	-13,902	240,985	109,738
132,210	-13,524	240,929	110,011
133,224	-13,601	240,776	109,869
134,239	-13,622	240,746	109,827
135,254	-13,455	240,405	109,798
136,268	-13,725	240,166	109,460
137,283	-13,658	239,775	109,326
138,297	-13,969	239,863	109,105
139,312	-13,932	239,482	108,952
140,327	-13,547	239,476	109,251
141,341	-13,026	239,384	109,621
142,356	-13,069	239,317	109,545
143,370	-13,079	239,087	109,422
144,385	-13,151	238,859	109,250
145,400	-13,061	238,743	109,260
146,414	-13,197	238,605	109,077
147,429	-13,307	238,387	108,879
148,443	-13,214	238,243	108,879
149,458	-13,377	238,010	108,631
150,473	-13,145	237,831	108,727
151,487	-13,364	237,607	108,439
152,502	-13,126	237,464	108,555
153,516	-13,050	237,377	108,566
154,531	-13,274	237,276	108,331
155,546	-13,298	237,012	108,182
156,560	-13,262	236,795	108,101
157,575	-13,653	236,721	107,745
158,589	-13,340	236,448	107,861
159,604	-13,044	236,310	108,024
160,619	-13,091	236,161	107,909
161,633	-12,929	235,958	107,936
162,648	-13,227	235,711	107,577
163,662	-13,183	235,742	107,617
164,677	-13,248	235,369	107,384
165,692	-13,393	235,462	107,303
166,706	-13,089	235,314	107,466
167,721	-13,031	235,245	107,471
168,735	-12,874	234,901	107,429
169,750	-13,227	234,932	107,154
170,764	-13,298	234,707	106,986
171,779	-13,292	234,396	106,839
172,794	-13,223	234,351	106,864
173,808	-13,222	234,112	106,746
174,823	-13,560	233,783	106,321
175,837	-13,990	233,597	105,888
176,852	-13,360	233,653	106,399
177,867	-13,071	233,403	106,503
178,881	-13,228	233,437	106,386
179,896	-13,052	233,180	106,397
180,910	-12,897	232,924	106,393
181,925	-13,177	232,815	106,114
182,940	-13,164	232,615	106,024
183,954	-13,165	232,546	105,982
184,969	-12,871	232,349	106,113
185,983	-12,847	232,264	106,083
186,998	-12,876	232,185	106,015
188,013	-12,964	232,084	105,890
189,027	-13,025	231,709	105,662
190,042	-12,990	231,561	105,613
191,056	-12,847	231,472	105,674
192,071	-12,930	231,290	105,517
193,086	-13,052	231,079	105,317
194,100	-12,898	230,975	105,380
195,115	-13,373	230,547	104,807
196,129	-13,462	230,552	104,730
197,144	-7,753	232,417	110,025
198,159	-2,499	234,094	114,930
199,173	1,894	235,297	118,964
200,188	2,880	235,461	119,810
201,202	2,652	235,195	119,486
202,217	2,805	235,104	119,548
203,232	2,871	235,007	119,540
204,246	2,895	234,914	119,501
205,261	3,215	234,685	119,624
206,275	3,284	234,539	119,593
207,290	3,280	234,430	119,523
208,304	3,073	234,253	119,261
209,319	3,156	234,111	119,243
210,334	3,132	233,793	119,052
211,348	2,793	233,789	118,775
212,363	2,512	233,461	118,379
213,377	2,299	233,160	118,051
214,392	2,284	233,154	118,025
215,407	2,520	232,933	118,087
216,421	2,577	232,841	118,072
217,436	2,446	232,609	117,843
218,450	2,064	232,481	117,472
219,465	2,433	232,082	117,545
220,480	2,235	232,055	117,368
221,494	2,100	232,005	117,228
222,509	2,576	231,882	117,523
223,523	2,387	231,731	117,291
224,538	2,255	231,626	117,125
225,553	2,359	231,477	117,119
226,567	2,320	231,248	116,963
227,582	2,784	231,115	117,242
228,596	2,727	231,035	117,147
229,611	2,472	230,857	116,851
230,626	2,116	230,659	116,467
231,640	2,247	230,521	116,487
232,655	2,538	230,241	116,558
233,669	2,740	230,427	116,797
234,684	2,787	230,310	116,763
235,699	2,896	229,931	116,644
236,713	2,543	229,822	116,309
237,728	2,395	229,602	116,074
238,742	2,483	229,379	116,017
239,757	2,409	229,373	115,948
240,772	2,308	229,208	115,777
241,786	2,179	228,999	115,563
242,801	2,595	228,832	115,784
243,815	2,755	228,942	115,952
244,830	2,894	228,807	115,979
245,844	2,672	228,383	115,585
246,859	2,317	228,232	115,230
247,874	2,586	228,072	115,342
248,888	2,579	228,078	115,330
249,903	2,409	227,751	115,025
250,917	2,513	227,635	115,035
251,932	2,407	227,560	114,907
252,947	2,460	227,254	114,782
253,961	2,134	227,203	114,500
254,976	2,142	227,094	114,441
255,990	2,639	226,970	114,743
257,005	2,463	226,875	114,552
258,020	2,727	226,669	114,636
259,034	2,695	226,647	114,591
260,049	2,907	226,429	114,630
261,063	2,470	226,191	114,171
262,078	2,836	226,219	114,449
263,093	2,989	226,048	114,467
264,107	2,869	225,879	114,282
265,122	3,041	225,663	114,291
266,136	2,956	225,579	114,175
267,151	2,832	225,430	113,996
268,166	2,495	225,238	113,638
269,180	2,039	224,995	113,165
270,195	2,319	224,910	113,321
271,209	2,242	224,611	113,103
272,224	2,288	224,767	113,205
273,239	2,368	224,567	113,155
274,253	2,285	224,302	112,949
275,268	2,521	223,979	112,951
276,282	2,153	224,001	112,679
277,297	2,251	223,727	112,604
278,312	2,259	223,705	112,588
279,326	2,332	223,624	112,592
280,341	2,566	223,446	112,665
281,355	2,462	223,237	112,473
282,370	2,514	223,194	112,480
283,384	2,320	222,866	112,161
284,399	2,394	222,779	112,162
285,414	2,253	222,668	111,992
286,428	2,544	222,585	112,155
287,443	2,614	222,452	112,129
288,457	2,512	222,438	112,037
289,472	2,412	222,129	111,799
290,487	1,948	221,879	111,322
291,501	1,740	221,825	111,132
292,516	1,979	221,624	111,197
293,530	2,117	221,619	111,286
294,545	2,083	221,500	111,191
295,560	2,152	221,340	111,151
296,574	2,454	221,139	111,261
297,589	2,346	220,923	111,064
298,603	2,287	220,862	110,980
299,618	2,470	220,651	110,998
300,633	2,667	220,602	111,107
301,647	2,614	220,566	111,040
302,662	2,769	220,428	111,074
303,676	2,696	220,317	110,954
304,691	2,725	220,124	110,869
305,706	2,844	219,904	110,834
306,720	2,864	219,743	110,758
307,735	2,436	219,504	110,317
308,749	2,160	219,498	110,104
309,764	2,614	219,256	110,302
310,779	2,564	219,224	110,240
311,793	2,454	219,126	110,101
312,808	2,587	218,945	110,096
313,822	2,461	218,858	109,952
314,837	2,432	218,524	109,753
315,852	2,321	218,502	109,652
316,866	2,403	218,360	109,630
317,881	2,644	218,213	109,720
318,895	2,535	218,084	109,567
319,910	2,197	217,917	109,231
320,925	2,153	217,580	109,020
321,939	1,627	217,418	108,552
322,954	2,034	217,484	108,868
323,968	2,558	217,240	109,111
324,983	2,593	217,435	109,224
325,997	2,692	217,213	109,174
327,012	2,700	217,025	109,076
328,027	2,753	216,886	109,034
329,041	3,073	216,860	109,239
330,056	3,114	216,641	109,149
331,070	2,563	216,554	108,702
332,085	2,364	216,114	108,330
333,100	2,345	216,104	108,301
334,114	2,428	216,025	108,311
335,129	2,590	215,808	108,308
336,143	2,458	215,644	108,122
337,158	2,370	215,553	108,005
338,173	2,347	215,344	107,874
339,187	2,066	215,117	107,552
340,202	2,209	215,199	107,684
341,216	2,635	214,998	107,875
342,231	2,588	214,965	107,816
343,246	2,438	214,717	107,576
344,260	2,531	214,764	107,656
345,275	2,602	214,631	107,629
346,289	2,735	214,401	107,599
347,304	2,627	214,248	107,436
348,319	2,615	214,051	107,319
349,333	2,410	214,094	107,187
350,348	2,686	213,843	107,246
351,362	2,765	213,845	107,293
352,377	2,658	213,625	107,098
353,392	2,733	213,588	107,122
354,406	2,505	213,316	106,816
355,421	196,825	1313,304	1390,351
356,435	157,466	1447,257	1390,285
