DTS Sentinel unit serial number:	SN410029Multiplexer serial number:	ORYXHardware model number:	OX2-SRSoftware version number:	ORYX F/W v4,00 Oryx Data Collector v3.7.2.0data status	okinstallation	B6 Nyhavnadifferential loss correction	single-endedforward channel	channel 2reverse channel	N/Adate	2023/12/09time	19:15:08forward acquisition time	300,00reverse acquisition time	0,00gamma	499,1914k internal	0,3130k external	0,3130temperature offset calibration	1,0000default loss term (dB/km)	0,3820temperature slope calibration	1,0000multiplexer offset coefficient	1,0000multiplexer slope coefficient	1,0000fibre end	0,00T internal ref (°C)	21,07T ext. ref 1 (°C)	4,88T ext. ref 2 (°C)	4,86length (m)	temperature (°C)	Stokes	anti-Stokes-744,400	800,000	0,028	-0,069
-743,385	-92,326	-0,156	0,032
-742,371	80,796	0,082	0,066
-741,356	-107,552	-0,216	0,035
-740,342	-44,773	0,093	-0,034
-739,327	-151,411	-0,186	0,010
-738,312	51,550	0,146	-0,103
-737,298	-42,606	-0,247	0,093
-736,283	-200,000	0,009	0,052
-735,269	-12,826	-0,345	0,166
-734,254	78,675	0,010	-0,008
-733,239	-124,845	-0,342	-0,039
-732,225	24,238	0,018	0,011
-731,210	-35,915	0,110	0,044
-730,196	-200,000	-0,014	-0,081
-729,181	-101,181	0,104	-0,019
-728,167	-100,203	-0,098	0,018
-727,152	-7,167	-0,070	0,035
-726,137	80,832	-0,074	0,059
-725,123	257,314	-0,069	0,089
-724,108	69,817	-0,098	-0,075
-723,094	-200,000	-0,006	-0,055
-722,079	800,000	0,008	-0,022
-721,064	13,489	-0,085	-0,049
-720,050	505,133	-0,068	-0,118
-719,035	-82,276	-0,017	0,004
-718,021	800,000	-0,016	0,035
-717,006	150,678	-0,069	-0,070
-715,991	512,443	-0,023	-0,040
-714,977	115,951	-0,031	-0,029
-713,962	22,783	0,169	-0,102
-712,948	61,293	0,059	0,044
-711,933	151,186	-0,094	-0,095
-710,918	-64,432	0,115	0,035
-709,904	187,329	-0,116	0,129
-708,889	-200,000	-0,013	-0,071
-707,875	800,000	0,045	-0,114
-706,860	110,275	0,026	-0,023
-705,845	-200,000	-0,012	-0,126
-704,831	139,803	0,048	-0,047
-703,816	218,292	-0,060	-0,071
-702,802	-68,530	0,177	0,051
-701,787	-48,583	0,107	0,038
-700,772	401,431	-0,056	0,088
-699,758	48,987	0,024	-0,016
-698,743	-200,000	0,011	0,160
-697,729	32,312	0,087	0,056
-696,714	0,883	-0,033	-0,018
-695,699	377,863	-0,023	0,035
-694,685	800,000	0,036	-0,111
-693,670	166,508	-0,071	-0,075
-692,656	-47,583	0,057	0,021
-691,641	146,930	0,088	0,088
-690,627	-104,066	-0,138	-0,024
-689,612	-200,000	-0,007	0,113
-688,597	800,000	-0,057	0,177
-687,583	386,415	0,070	-0,107
-686,568	107,593	-0,032	-0,028
-685,554	252,978	-0,026	0,032
-684,539	-95,905	-0,145	-0,028
-683,524	-200,000	0,035	-0,141
-682,510	-200,000	-0,008	0,085
-681,495	-200,000	-0,019	0,077
-680,481	800,000	0,030	-0,069
-679,466	277,132	0,040	-0,053
-678,451	160,355	-0,065	0,067
-677,437	224,438	0,035	-0,042
-676,422	-166,658	-0,040	-0,001
-675,408	800,000	-0,072	0,164
-674,393	-200,000	-0,013	0,136
-673,378	-145,046	-0,066	0,004
-672,364	-39,773	-0,048	0,019
-671,349	462,653	0,041	0,068
-670,335	-29,270	-0,064	0,027
-669,320	627,837	-0,083	-0,156
-668,305	-86,377	0,158	0,036
-667,291	723,773	0,016	-0,031
-666,276	510,310	-0,043	0,074
-665,262	800,000	-0,020	-0,063
-664,247	341,816	0,035	-0,051
-663,232	-200,000	-0,013	0,170
-662,218	256,712	0,065	0,084
-661,203	411,346	0,044	0,070
-660,189	-200,000	0,025	0,106
-659,174	-163,892	-0,168	0,006
-658,159	800,000	0,020	-0,062
-657,145	33,055	-0,036	0,023
-656,130	-1,724	-0,075	0,039
-655,116	-200,000	0,023	-0,092
-654,101	800,000	-0,025	-0,052
-653,086	-93,735	0,090	-0,018
-652,072	7,225	-0,037	0,020
-651,057	-88,575	-0,069	0,015
-650,043	642,525	0,042	0,080
-649,028	-22,620	0,046	-0,021
-648,014	-39,032	0,107	0,041
-646,999	800,000	0,008	0,017
-645,984	-200,000	0,000	-0,090
-644,970	257,631	0,020	0,025
-643,955	260,787	-0,057	-0,073
-642,941	-200,000	-0,021	-0,101
-641,926	-54,203	-0,057	0,019
-640,911	-111,818	-0,042	-0,006
-639,897	-87,219	-0,015	-0,003
-638,882	800,000	-0,006	-0,019
-637,868	-200,000	0,011	-0,067
-636,853	367,360	0,072	0,108
-635,838	9,543	0,016	-0,009
-634,824	-169,839	-0,109	-0,003
-633,809	-170,861	0,092	-0,002
-632,795	-121,847	0,086	-0,010
-631,780	-100,222	-0,068	-0,012
-630,765	85,520	0,041	0,033
-629,751	-30,330	-0,093	0,039
-628,736	270,396	0,056	-0,073
-627,722	-200,000	0,026	-0,129
-626,707	-23,224	-0,118	-0,053
-625,692	137,616	0,091	0,088
-624,678	-144,707	-0,179	-0,012
-623,663	-70,608	0,131	0,036
-622,649	-200,000	0,020	-0,137
-621,634	67,461	-0,134	-0,101
-620,619	52,430	-0,063	0,044
-619,605	800,000	-0,016	0,043
-618,590	674,922	-0,039	-0,075
-617,576	478,786	0,121	0,204
-616,561	263,240	0,079	-0,102
-615,546	-200,000	-0,014	-0,152
-614,532	202,357	-0,060	-0,069
-613,517	-200,000	-0,033	-0,261
-612,503	252,067	0,027	0,034
-611,488	1,684	-0,112	0,060
-610,474	-200,000	-0,005	0,064
-609,459	-200,000	0,037	0,130
-608,444	-154,086	-0,121	-0,006
-607,430	81,123	0,019	0,015
-606,415	-57,185	-0,080	-0,026
-605,401	36,779	0,029	-0,019
-604,386	-83,523	0,137	0,032
-603,371	17,100	0,069	0,040
-602,357	800,000	-0,059	0,187
-601,342	800,000	0,028	-0,067
-600,328	-200,000	0,002	0,089
-599,313	800,000	-0,022	-0,071
-598,298	-51,590	-0,158	0,054
-597,284	-200,000	-0,016	0,162
-596,269	305,931	0,050	0,069
-595,255	624,083	0,054	0,101
-594,240	-200,000	-0,006	-0,113
-593,225	-6,012	-0,024	-0,012
-592,211	800,000	0,047	-0,140
-591,196	267,228	0,110	-0,143
-590,182	73,793	0,048	0,037
-589,167	357,492	0,056	0,083
-588,152	151,022	0,122	0,123
-587,138	-159,499	0,066	0,003
-586,123	229,345	-0,087	-0,106
-585,109	202,067	0,055	-0,062
-584,094	339,757	0,059	-0,085
-583,079	-200,000	0,019	-0,064
-582,065	-150,218	-0,085	-0,005
-581,050	-119,971	0,090	-0,011
-580,036	647,976	0,039	-0,075
-579,021	-152,003	-0,053	-0,003
-578,006	392,519	-0,034	-0,052
-576,992	117,875	-0,121	-0,110
-575,977	-7,344	-0,031	-0,015
-574,963	374,727	0,101	0,153
-573,948	-154,691	-0,190	0,009
-572,934	-200,000	-0,024	0,109
-571,919	800,000	-0,029	-0,090
-570,904	-14,795	-0,010	-0,005
-569,890	-200,000	-0,007	-0,036
-568,875	144,049	-0,059	0,058
-567,861	-61,714	-0,079	-0,024
-566,846	670,264	0,043	0,082
-565,831	12,185	-0,119	0,067
-564,817	-200,000	0,001	-0,092
-563,802	321,416	-0,051	-0,072
-562,788	-69,935	-0,068	0,019
-561,773	-122,831	0,012	-0,001
-560,758	-144,420	-0,046	0,003
-559,744	151,100	0,020	0,020
-558,729	800,000	-0,011	0,035
-557,715	-200,000	0,013	-0,044
-556,700	399,778	0,069	-0,107
-555,685	-132,816	-0,094	-0,009
-554,671	-130,954	0,079	-0,008
-553,656	-67,537	0,078	0,022
-552,642	-200,000	-0,008	0,104
-551,627	-39,194	-0,090	0,035
-550,612	57,450	-0,094	0,068
-549,598	-190,736	-0,089	-0,001
-548,583	249,240	-0,070	-0,087
-547,569	97,531	0,066	0,056
-546,554	227,770	0,055	0,066
-545,539	505,925	-0,035	-0,060
-544,525	800,000	0,036	0,111
-543,510	-200,000	-0,002	0,061
-542,496	-200,000	-0,012	-0,055
-541,481	-200,000	0,023	0,111
-540,466	800,000	-0,054	0,122
-539,452	800,000	-0,032	0,098
-538,437	127,423	0,050	-0,047
-537,423	148,312	0,079	-0,078
-536,408	4,166	0,034	-0,018
-535,393	800,000	-0,071	-0,164
-534,379	-21,166	0,044	-0,020
-533,364	-200,000	-0,011	-0,051
-532,350	69,201	0,138	0,105
-531,335	800,000	-0,022	0,053
-530,321	-200,000	-0,014	-0,126
-529,306	88,827	-0,114	0,093
-528,291	-200,000	0,008	-0,041
-527,277	-200,000	-0,025	-0,106
-526,262	800,000	-0,029	-0,074
-525,248	585,408	0,025	-0,045
-524,233	206,072	0,085	0,098
-523,218	-117,557	-0,154	0,020
-522,204	152,395	-0,023	-0,023
-521,189	185,865	-0,042	0,046
-520,175	-24,230	-0,007	0,003
-519,160	168,691	0,047	-0,049
-518,145	23,322	0,071	-0,043
-517,131	-200,000	0,015	-0,067
-516,116	-200,000	0,026	0,087
-515,102	215,618	-0,036	-0,043
-514,087	160,733	-0,069	0,071
-513,072	-56,906	-0,167	-0,054
-512,058	141,362	-0,060	-0,059
-511,043	734,251	0,086	0,171
-510,029	-107,424	0,115	0,018
-509,014	-200,000	-0,010	0,104
-507,999	797,345	-0,050	-0,102
-506,985	-200,000	-0,022	-0,087
-505,970	81,230	-0,078	-0,062
-504,956	-27,455	0,110	-0,047
-503,941	113,896	-0,066	-0,059
-502,926	-83,828	0,129	-0,030
-501,912	800,000	0,019	0,051
-500,897	23,889	-0,039	-0,024
-499,883	-200,000	0,020	-0,111
-498,868	662,387	0,028	-0,054
-497,853	288,755	-0,129	-0,172
-496,839	800,000	-0,010	0,025
-495,824	-21,678	0,154	0,069
-494,810	470,248	-0,051	0,085
-493,795	395,566	-0,018	-0,027
-492,781	-82,402	0,103	0,024
-491,766	-105,401	-0,055	0,009
-490,751	279,033	-0,033	-0,043
-489,737	800,000	0,025	0,081
-488,722	800,000	-0,023	0,070
-487,708	678,157	0,045	0,087
-486,693	-66,509	-0,035	0,010
-485,678	81,885	0,080	0,063
-484,664	274,358	0,038	-0,049
-483,649	-77,534	-0,112	0,028
-482,635	121,234	0,017	0,016
-481,620	-77,472	0,192	-0,049
-480,605	20,820	-0,064	0,038
-479,591	800,000	0,050	0,149
-478,576	-42,694	-0,074	-0,028
-477,562	-200,000	-0,016	-0,079
-476,547	180,284	0,065	0,071
-475,532	-200,000	0,016	-0,102
-474,518	800,000	-0,037	0,085
-473,503	800,000	-0,050	-0,123
-472,489	566,545	0,077	0,137
-471,474	-200,000	0,025	0,094
-470,459	-200,000	0,017	-0,149
-469,445	137,222	-0,117	-0,112
-468,430	-200,000	0,015	-0,089
-467,416	47,307	0,071	-0,049
-466,401	-131,100	-0,026	0,003
-465,386	-200,000	-0,012	0,059
-464,372	800,000	0,009	0,023
-463,357	-94,853	-0,096	-0,019
-462,343	-200,000	0,003	0,032
-461,328	198,261	0,075	-0,084
-460,313	800,000	-0,046	-0,101
-459,299	243,316	0,129	0,159
-458,284	-191,782	0,149	0,001
-457,270	93,312	-0,054	-0,045
-456,255	-200,000	0,004	0,020
-455,241	66,964	-0,179	-0,134
-454,226	106,475	-0,061	-0,053
-453,211	345,272	0,017	-0,024
-452,197	3,273	0,109	-0,058
-451,182	-200,000	-0,029	0,138
-450,168	381,861	0,033	0,050
-449,153	138,874	-0,064	0,062
-448,138	5,562	0,050	0,027
-447,124	-200,000	0,004	0,077
-446,109	95,518	0,073	0,062
-445,095	309,666	0,057	0,078
-444,080	43,870	0,107	-0,072
-443,065	800,000	-0,024	-0,052
-442,051	-200,000	0,019	0,108
-441,036	322,926	-0,048	0,068
-440,022	233,113	-0,091	0,111
-439,007	-79,377	0,127	-0,031
-437,992	-36,006	0,141	-0,056
-436,978	625,349	0,045	-0,084
-435,963	0,843	0,093	0,049
-434,949	143,875	-0,073	-0,072
-433,934	800,000	-0,038	-0,078
-432,919	-200,000	-0,015	-0,135
-431,905	258,496	-0,051	-0,064
-430,890	-162,260	0,142	-0,005
-429,876	-120,265	-0,128	0,016
-428,861	800,000	0,019	0,047
-427,846	203,278	0,065	0,074
-426,832	105,377	-0,065	-0,056
-425,817	207,587	-0,009	-0,010
-424,803	21,664	0,112	0,067
-423,788	-138,485	0,064	-0,005
-422,773	-40,820	0,053	-0,020
-421,759	-21,950	0,068	-0,030
-420,744	104,937	-0,060	0,052
-419,730	47,061	0,075	-0,051
-418,715	668,134	0,083	-0,158
-417,701	-200,000	-0,011	0,067
-416,686	800,000	-0,034	0,074
-415,671	-200,000	-0,013	-0,096
-414,657	-200,000	0,011	0,150
-413,642	95,801	0,033	0,028
-412,628	-144,710	-0,079	0,005
-411,613	800,000	0,019	-0,056
-410,598	392,622	-0,048	0,074
-409,584	102,185	0,048	0,041
-408,569	-11,213	-0,028	-0,013
-407,555	-200,000	-0,009	0,055
-406,540	678,291	0,024	0,045
-405,525	490,728	0,054	-0,091
-404,511	800,000	0,023	-0,065
-403,496	-73,551	0,136	0,036
-402,482	-107,922	0,158	-0,025
-401,467	-107,485	-0,016	-0,003
-400,452	316,631	-0,042	0,059
-399,438	-200,000	0,014	0,071
-398,423	-108,802	0,049	-0,008
-397,409	800,000	0,034	0,084
-396,394	340,176	-0,045	-0,064
-395,379	47,565	-0,047	-0,032
-394,365	-200,000	0,006	0,052
-393,350	-200,000	-0,009	-0,072
-392,336	87,704	0,065	0,053
-391,321	371,262	-0,046	-0,069
-390,306	113,569	-0,048	-0,043
-389,292	800,000	-0,021	0,044
-388,277	0,460	-0,122	-0,064
-387,263	-33,955	0,037	0,015
-386,248	1,206	0,111	0,058
-385,233	-200,000	-0,006	-0,065
-384,219	138,650	-0,049	0,048
-383,204	174,491	0,059	-0,062
-382,190	-74,723	-0,051	0,013
-381,175	470,899	-0,052	-0,086
-380,160	-176,380	0,152	-0,003
-379,146	-200,000	0,009	0,064
-378,131	-200,000	-0,019	0,154
-377,117	501,274	0,062	0,106
-376,102	-200,000	-0,006	0,019
-375,088	280,141	0,025	-0,033
-374,073	-200,000	0,003	0,016
-373,058	279,200	0,044	-0,058
-372,044	800,000	-0,036	-0,104
-371,029	-41,162	0,117	0,044
-370,015	-17,566	0,071	-0,033
-369,000	-200,000	0,024	0,081
-367,985	126,484	-0,109	-0,101
-366,971	-27,911	0,050	-0,021
-365,956	388,395	-0,097	-0,147
-364,942	109,537	0,098	0,086
-363,927	-98,015	0,152	-0,028
-362,912	-69,787	-0,094	-0,026
-361,898	-200,000	0,002	0,021
-360,883	-200,000	-0,048	-0,171
-359,869	-200,000	0,020	0,100
-358,854	-200,000	-0,034	0,121
-357,839	-200,000	-0,012	0,064
-356,825	-200,000	0,022	0,095
-355,810	129,507	0,056	-0,053
-354,796	-12,227	0,005	-0,003
-353,781	237,565	-0,109	0,133
-352,766	486,861	0,056	-0,094
-351,752	7,917	-0,165	-0,091
-350,737	650,910	0,073	0,137
-349,723	800,000	0,019	-0,053
-348,708	469,199	0,061	-0,100
-347,693	-110,800	-0,086	-0,013
-346,679	800,000	-0,027	-0,060
-345,664	-200,000	-0,021	-0,125
-344,650	800,000	-0,038	-0,077
-343,635	800,000	0,020	0,045
-342,620	-35,589	-0,126	-0,050
-341,606	800,000	0,073	0,215
-340,591	-200,000	-0,007	0,090
-339,577	240,252	-0,147	-0,179
-338,562	-200,000	0,002	-0,014
-337,548	85,014	0,104	-0,084
-336,533	287,669	-0,063	0,083
-335,518	207,118	0,041	-0,047
-334,504	156,920	-0,048	0,048
-333,489	74,401	-0,020	-0,016
-332,475	127,724	-0,122	0,113
-331,460	129,940	-0,094	-0,088
-330,445	-103,871	0,102	-0,017
-329,431	-51,472	0,121	0,041
-328,416	148,218	0,101	0,100
-327,402	614,020	0,089	0,165
-326,387	15,533	-0,094	-0,054
-325,372	-124,971	-0,174	-0,019
-324,358	-54,960	-0,079	0,026
-323,343	744,665	0,045	0,088
-322,329	118,105	0,036	0,033
-321,314	196,139	-0,005	-0,006
-320,299	660,984	0,037	0,070
-319,285	462,572	-0,034	-0,056
-318,270	663,529	-0,037	0,070
-317,256	-200,000	-0,015	0,122
-316,241	800,000	0,039	-0,096
-315,226	208,466	0,050	-0,058
-314,212	-200,000	0,016	0,000
-313,197	-4,924	-0,154	0,077
-312,183	705,335	-0,089	0,173
-311,168	265,982	0,061	-0,079
-310,153	91,597	-0,014	0,011
-309,139	-78,035	0,035	0,009
-308,124	-144,974	-0,135	-0,009
-307,110	-103,118	-0,098	0,017
-306,095	17,703	-0,148	0,086
-305,080	17,419	0,143	-0,083
-304,066	89,697	-0,153	-0,125
-303,051	545,149	-0,081	0,142
-302,037	525,012	-0,046	-0,080
-301,022	290,355	0,050	-0,066
-300,008	258,689	0,044	-0,055
-298,993	-200,000	0,004	-0,018
-297,978	-200,000	0,007	0,033
-296,964	-158,461	-0,076	-0,003
-295,949	-197,001	-0,030	-0,000
-294,935	216,175	0,044	0,051
-293,920	741,985	-0,080	0,158
-292,905	-0,557	-0,002	-0,001
-291,891	64,214	0,046	-0,034
-290,876	798,005	0,058	-0,118
-289,862	-200,000	0,038	0,165
-288,847	-70,721	-0,061	0,017
-287,832	-200,000	0,001	0,115
-286,818	-200,000	0,008	-0,031
-285,803	800,000	0,031	0,086
-284,789	-170,172	0,116	-0,003
-283,774	-49,453	0,134	-0,046
-282,759	-93,552	0,091	0,018
-281,745	14,248	-0,051	0,029
-280,730	-8,278	-0,039	-0,019
-279,716	-200,000	-0,037	-0,200
-278,701	690,237	-0,015	-0,029
-277,686	-116,017	0,083	-0,011
-276,672	-84,572	-0,085	0,020
-275,657	-23,414	0,128	0,056
-274,643	800,000	-0,018	0,039
-273,628	362,521	-0,049	-0,072
-272,613	-200,000	0,002	-0,014
-271,599	47,061	0,085	-0,058
-270,584	212,530	0,030	0,034
-269,570	-200,000	0,027	0,142
-268,555	491,556	0,060	-0,101
-267,540	-27,364	0,140	-0,059
-266,526	800,000	0,022	-0,069
-265,511	69,308	-0,111	0,083
-264,497	-44,257	0,127	-0,046
-263,482	312,926	-0,077	-0,105
-262,467	181,734	0,073	0,079
-261,453	501,548	0,048	0,081
-260,438	800,000	-0,032	-0,095
-259,424	-112,258	0,162	0,024
-258,409	-200,000	0,052	0,178
-257,395	33,349	0,166	0,105
-256,380	800,000	-0,016	-0,038
-255,365	-75,181	0,071	-0,018
-254,351	143,060	-0,091	-0,088
-253,336	-200,000	-0,004	0,022
-252,322	-49,712	-0,092	-0,032
-251,307	-200,000	-0,017	-0,137
-250,292	-200,000	0,028	-0,109
-249,278	138,808	-0,059	0,057
-248,263	-121,545	0,143	0,017
-247,249	-59,967	0,089	0,028
-246,234	192,525	-0,056	0,062
-245,219	-24,488	-0,062	-0,027
-244,205	135,188	0,072	0,069
-243,190	196,138	-0,055	0,061
-242,176	55,608	0,107	0,075
-241,161	-27,283	-0,095	0,040
-240,146	-88,227	0,078	0,017
-239,132	-66,023	-0,078	0,023
-238,117	-50,816	-0,108	-0,037
-237,103	307,421	-0,044	-0,060
-236,088	800,000	-0,039	-0,116
-235,073	-149,154	0,121	-0,007
-234,059	-200,000	0,022	-0,093
-233,044	-200,000	-0,010	0,040
-232,030	-2,006	0,077	0,039
-231,015	-50,699	-0,116	-0,040
-230,000	-200,000	-0,023	0,086
-228,986	-200,000	-0,005	0,098
-227,971	406,872	-0,079	0,121
-226,957	-135,028	0,056	0,005
-225,942	-141,338	-0,146	0,011
-224,927	-200,000	-0,003	-0,100
-223,913	-200,000	0,000	0,055
-222,898	-81,226	-0,113	-0,027
-221,884	-200,000	0,010	-0,036
-220,869	527,739	0,058	-0,100
-219,855	-70,665	-0,024	0,007
-218,840	-200,000	0,011	0,092
-217,825	-48,270	-0,062	-0,022
-216,811	620,009	-0,043	-0,080
-215,796	-47,603	-0,053	0,019
-214,782	199,300	-0,044	-0,049
-213,767	151,985	0,122	0,121
-212,752	127,400	-0,063	0,058
-211,738	-193,388	-0,015	0,000
-210,723	-97,021	0,091	-0,017
-209,709	165,427	-0,069	-0,072
-208,694	800,000	-0,011	-0,024
-207,679	217,657	-0,099	-0,115
-206,665	-200,000	-0,001	0,014
-205,650	185,823	-0,115	0,125
-204,636	-18,394	0,170	0,077
-203,621	9,533	-0,092	0,051
-202,606	-22,319	-0,090	-0,039
-201,592	-101,898	-0,154	-0,027
-200,577	-200,000	0,000	-0,126
-199,563	-128,359	-0,052	0,005
-198,548	-6,478	0,051	-0,025
-197,533	-200,000	0,011	0,181
-196,519	100,025	-0,047	0,040
-195,504	365,935	-0,062	-0,091
-194,490	800,000	-0,044	0,116
-193,475	-72,527	-0,087	0,023
-192,460	800,000	-0,031	0,084
-191,446	155,873	-0,071	-0,071
-190,431	-69,155	0,103	0,029
-189,417	-200,000	0,005	0,046
-188,402	41,490	0,074	-0,049
-187,387	-3,114	-0,056	0,028
-186,373	-118,207	-0,126	0,016
-185,358	224,167	-0,030	0,035
-184,344	-81,477	0,132	-0,031
-183,329	-5,257	-0,065	0,032
-182,315	-19,583	0,131	-0,059
-181,300	-200,000	0,002	-0,019
-180,285	4,637	0,110	0,059
-179,271	-200,000	0,005	-0,113
-178,256	-126,556	0,049	-0,005
-177,242	315,254	0,047	-0,065
-176,227	-151,036	-0,133	-0,007
-175,212	-61,554	0,053	0,016
-174,198	490,097	-0,056	0,093
-173,183	800,000	-0,078	0,162
-172,169	9,255	0,091	-0,050
-171,154	-53,176	-0,027	0,009
-170,139	800,000	0,048	0,104
-169,125	800,000	0,047	0,131
-168,110	-200,000	0,008	0,051
-167,096	98,998	0,029	0,024
-166,081	199,914	-0,083	-0,092
-165,066	800,000	-0,015	-0,047
-164,052	800,000	0,014	-0,033
-163,037	321,501	0,095	0,132
-162,023	469,217	0,040	-0,065
-161,008	223,282	0,070	-0,082
-159,993	800,000	-0,048	-0,101
-158,979	800,000	-0,064	-0,149
-157,964	800,000	0,048	-0,106
-156,950	206,166	-0,042	-0,048
-155,935	800,000	-0,048	-0,135
-154,920	-200,000	0,007	0,093
-153,906	-200,000	-0,004	0,065
-152,891	330,200	0,027	-0,037
-151,877	-200,000	0,031	-0,119
-150,862	800,000	-0,052	0,151
-149,847	-200,000	0,020	-0,136
-148,833	-121,414	-0,098	0,012
-147,818	23,576	0,155	0,093
-146,804	8,981	-0,131	-0,072
-145,789	-177,677	-0,083	-0,001
-144,775	38,356	-0,106	-0,068
-143,760	800,000	-0,034	-0,068
-142,745	751,690	0,043	-0,086
-141,731	-200,000	0,014	-0,070
-140,716	65,359	0,086	-0,063
-139,702	6,530	0,080	0,043
-138,687	800,000	0,043	0,130
-137,672	-200,000	0,013	-0,113
-136,658	620,345	-0,093	-0,171
-135,643	-200,000	-0,014	-0,139
-134,629	800,000	0,049	0,143
-133,614	-163,805	0,171	0,006
-132,599	-73,577	0,038	0,010
-131,585	-39,454	0,040	-0,015
-130,570	135,975	0,091	-0,086
-129,556	-200,000	0,008	-0,147
-128,541	-200,000	-0,011	-0,096
-127,526	355,385	-0,094	0,136
-126,512	52,245	0,083	-0,057
-125,497	-1,011	0,152	-0,078
-124,483	-87,158	0,026	0,006
-123,468	91,731	-0,138	-0,113
-122,453	346,054	0,043	0,061
-121,439	-200,000	-0,013	-0,056
-120,424	13,535	-0,034	0,019
-119,410	800,000	0,002	-0,004
-118,395	222,152	0,046	-0,054
-117,380	-87,550	-0,049	0,011
-116,366	-113,728	-0,108	0,015
-115,351	-200,000	0,003	-0,018
-114,337	5,119	0,115	-0,061
-113,322	-83,699	0,120	0,028
-112,307	-200,000	-0,026	0,087
-111,293	-57,905	0,074	0,023
-110,278	729,369	-0,015	0,029
-109,264	36,006	-0,084	-0,054
-108,249	131,812	-0,058	0,054
-107,234	274,110	0,055	0,070
-106,220	-200,000	-0,012	0,043
-105,205	-169,916	0,107	-0,003
-104,191	36,198	-0,114	0,073
-103,176	156,462	0,155	0,155
-102,162	-200,000	0,004	0,031
-101,147	235,443	-0,032	0,038
-100,132	176,518	0,031	-0,032
-99,118	43,116	-0,044	0,029
-98,103	-33,621	0,063	0,025
-97,089	304,461	0,073	0,098
-96,074	134,480	0,091	0,085
-95,059	800,000	0,041	0,096
-94,045	-65,284	0,004	-0,001
-93,030	-27,561	-0,072	0,030
-92,016	-77,550	-0,007	0,002
-91,001	-200,000	-0,002	0,011
-89,986	-200,000	-0,001	0,056
-88,972	440,172	0,063	-0,101
-87,957	177,849	-0,027	0,028
-86,943	-179,797	0,069	0,001
-85,928	75,624	-0,132	-0,101
-84,913	-200,000	0,002	-0,056
-83,899	-73,526	0,121	-0,032
-82,884	800,000	-0,025	-0,053
-81,870	-200,000	-0,041	-0,145
-80,855	431,119	0,048	-0,076
-79,840	-200,000	-0,003	-0,143
-78,826	-128,098	0,049	-0,005
-77,811	-73,334	-0,093	-0,024
-76,797	239,456	0,037	0,044
-75,782	290,906	0,045	-0,060
-74,767	-129,405	-0,125	-0,012
-73,753	800,000	0,035	0,087
-72,738	-79,170	0,106	-0,026
-71,724	-9,026	-0,074	0,036
-70,709	145,439	-0,053	0,052
-69,694	-76,125	-0,125	0,032
-68,680	800,000	0,028	0,065
-67,665	800,000	0,007	0,014
-66,651	-200,000	0,019	0,099
-65,636	-200,000	-0,004	0,025
-64,622	44,626	-0,049	-0,032
-63,607	222,085	-0,056	0,065
-62,592	-200,000	0,025	0,088
-61,578	527,423	0,071	-0,121
-60,563	83,386	-0,036	0,028
-59,549	38,776	-0,107	0,069
-58,534	-72,408	-1,454	-0,387
-57,519	800,000	-0,675	-1,561
-56,505	-200,000	-0,929	-4,617
-55,490	-70,913	0,588	-0,159
-54,476	800,000	5,009	11,840
-53,461	-200,000	14,550	259,267
-52,446	-200,000	696,461	2236,003
-51,432	566,076	1622,795	2861,411
-50,417	117,619	1630,461	1452,597
-49,403	74,541	1284,414	976,755
-48,388	37,390	1022,609	654,904
-47,373	23,249	981,722	582,280
-46,359	22,438	971,209	573,367
-45,344	21,323	966,688	567,036
-44,330	21,307	965,358	566,181
-43,315	21,132	963,951	564,763
-42,300	21,114	962,873	564,053
-41,286	21,115	961,905	563,466
-40,271	21,129	960,674	562,767
-39,257	21,082	959,971	562,180
-38,242	21,111	959,003	561,687
-37,227	21,070	958,299	561,119
-36,213	20,987	957,318	560,253
-35,198	21,061	956,333	559,894
-34,184	21,100	955,762	559,662
-33,169	21,062	954,845	558,981
-32,154	21,121	953,952	558,628
-31,140	21,158	952,991	558,160
-30,125	21,132	952,420	557,721
-29,111	21,134	951,445	557,134
-28,096	21,070	950,957	556,621
-27,082	21,117	950,209	556,312
-26,067	21,142	949,203	555,780
-25,052	21,128	948,567	555,340
-24,038	21,125	947,897	554,916
-23,023	21,067	947,432	554,438
-22,009	21,162	946,690	554,284
-20,994	21,129	946,194	553,866
-19,979	21,132	945,653	553,539
-18,965	21,164	944,893	553,174
-17,950	21,118	944,293	552,654
-16,936	21,076	943,693	552,147
-15,921	21,011	942,831	551,415
-14,906	20,967	942,110	550,831
-13,892	20,990	941,569	550,565
-12,877	21,007	940,898	550,204
-11,863	20,938	940,391	549,667
-10,848	20,959	939,890	549,418
-9,833	21,103	939,335	549,530
-8,819	21,056	938,707	548,991
-7,804	21,088	938,082	548,707
-6,790	21,005	937,326	547,980
-5,775	21,024	936,979	547,814
-4,760	21,002	936,447	547,413
-3,746	20,953	935,596	546,739
-2,731	20,866	934,925	546,051
-1,717	20,801	934,264	545,439
-0,702	20,846	933,393	545,048
0,313	20,673	932,763	544,960
1,327	23,702	930,982	553,382
2,342	33,085	794,154	496,966
3,356	30,619	450,927	278,447
4,371	0,243	294,614	151,550
5,386	-4,182	275,758	137,639
6,400	-5,384	270,049	133,660
7,415	-5,786	267,846	132,186
8,429	-5,539	266,460	131,717
9,444	-5,528	265,593	131,288
10,459	-5,449	265,051	131,080
11,473	-5,649	264,551	130,639
12,488	-5,656	263,970	130,334
13,502	-5,782	263,357	129,906
14,517	-5,783	263,088	129,760
15,531	-5,753	262,678	129,573
16,546	-5,714	262,430	129,475
17,561	-5,724	261,870	129,179
18,575	-5,759	261,688	129,046
19,590	-5,642	261,236	128,916
20,604	-5,594	261,089	128,876
21,619	-5,748	260,648	128,507
22,634	-5,683	260,159	128,313
23,648	-5,655	259,861	128,180
24,663	-5,900	259,799	127,920
25,677	-5,629	259,497	128,000
26,692	-5,731	259,179	127,742
27,707	-5,679	258,945	127,661
28,721	-5,828	258,788	127,439
29,736	-5,889	258,508	127,236
30,750	-5,935	258,012	126,940
31,765	-5,941	257,901	126,869
32,780	-5,689	257,633	126,949
33,794	-5,756	257,436	126,781
34,809	-5,749	257,106	126,614
35,823	-5,816	256,885	126,435
36,838	-6,003	256,736	126,185
37,853	-5,787	256,443	126,220
38,867	-5,804	256,152	126,051
39,882	-5,867	256,113	125,964
40,896	-5,907	255,760	125,745
41,911	-5,831	255,535	125,689
42,926	-5,889	255,308	125,516
43,940	-5,796	255,027	125,447
44,955	-5,937	254,828	125,216
45,969	-6,074	254,639	124,992
46,984	-6,088	254,298	124,801
47,999	-6,224	254,170	124,608
49,013	-6,474	253,945	124,269
50,028	-6,413	253,595	124,140
51,042	-6,457	253,407	123,998
52,057	-6,481	253,176	123,853
53,071	-6,409	252,936	123,787
54,086	-6,379	252,879	123,774
55,101	-6,403	252,606	123,609
56,115	-6,258	252,554	123,699
57,130	-5,778	252,473	124,064
58,144	-5,783	252,354	123,989
59,159	-5,655	252,055	123,943
60,174	-5,576	251,777	123,862
61,188	-5,480	251,584	123,839
62,203	-5,849	251,394	123,417
63,217	-5,839	251,221	123,330
64,232	-5,763	251,080	123,314
65,247	-5,636	250,828	123,289
66,261	-5,740	250,628	123,091
67,276	-5,977	250,193	122,662
68,290	-6,122	250,115	122,489
69,305	-6,249	249,839	122,233
70,320	-5,969	249,662	122,376
71,334	-5,832	249,432	122,370
72,349	-5,671	249,397	122,479
73,363	-5,819	249,278	122,283
74,378	-5,853	248,877	122,047
75,393	-5,759	248,783	122,070
76,407	-5,642	248,500	122,020
77,422	-5,785	248,276	121,777
78,436	-5,790	248,166	121,708
79,451	-5,816	247,983	121,586
80,466	-5,746	247,606	121,449
81,480	-6,045	247,498	121,132
82,495	-5,986	247,444	121,145
83,509	-6,003	247,118	120,960
84,524	-5,969	246,908	120,875
85,539	-6,186	246,695	120,577
86,553	-6,012	246,487	120,611
87,568	-6,117	246,292	120,416
88,582	-6,243	246,184	120,247
89,597	-6,112	245,998	120,256
90,611	-5,908	245,861	120,349
91,626	-5,882	245,771	120,316
92,641	-5,566	245,589	120,482
93,655	-5,829	245,265	120,091
94,670	-5,821	245,010	119,963
95,684	-5,865	244,843	119,834
96,699	-5,759	244,681	119,832
97,714	-6,155	244,517	119,411
98,728	-6,057	244,316	119,383
99,743	-6,243	244,082	119,103
100,757	-6,132	243,843	119,068
101,772	-6,235	243,668	118,886
102,787	-6,059	243,554	118,967
103,801	-5,948	243,399	118,972
104,816	-5,933	243,231	118,893
105,830	-5,792	243,114	118,942
106,845	-5,714	243,058	118,968
107,860	-5,765	242,758	118,769
108,874	-5,742	242,461	118,632
109,889	-5,828	242,350	118,496
110,903	-5,884	242,173	118,352
111,918	-5,856	241,924	118,244
112,933	-5,919	241,812	118,127
113,947	-5,970	241,687	118,013
114,962	-5,883	241,552	118,008
115,976	-5,874	241,457	117,959
116,991	-5,896	241,145	117,777
118,006	-5,779	240,817	117,703
119,020	-5,826	240,948	117,718
120,035	-5,679	240,712	117,712
121,049	-5,658	240,506	117,619
122,064	-5,903	240,434	117,371
123,079	-5,756	240,002	117,271
124,093	-6,160	239,991	116,924
125,108	-6,042	239,707	116,872
126,122	-6,378	239,602	116,536
127,137	-6,419	239,459	116,422
128,151	-6,057	239,095	116,530
129,166	-6,075	239,056	116,486
130,181	-6,164	238,764	116,261
131,195	-6,103	238,622	116,231
132,210	-5,977	238,492	116,259
133,224	-5,733	238,196	116,303
134,239	-5,814	238,152	116,205
135,254	-5,637	238,063	116,296
136,268	-5,945	237,749	115,882
137,283	-6,276	237,588	115,525
138,297	-6,246	237,314	115,406
139,312	-6,298	237,120	115,259
140,327	-5,993	237,006	115,440
141,341	-5,562	237,032	115,790
142,356	-5,469	236,776	115,730
143,370	-5,606	236,762	115,603
144,385	-5,574	236,543	115,511
145,400	-5,606	236,452	115,431
146,414	-5,569	236,383	115,417
147,429	-5,675	236,006	115,137
148,443	-5,687	235,915	115,073
149,458	-5,749	235,692	114,904
150,473	-5,511	235,563	115,021
151,487	-5,688	235,444	114,811
152,502	-5,594	235,241	114,777
153,516	-5,406	235,047	114,822
154,531	-5,501	234,918	114,673
155,546	-5,598	234,610	114,435
156,560	-5,474	234,399	114,421
157,575	-5,764	234,317	114,139
158,589	-5,880	234,066	113,915
159,604	-5,248	234,051	114,401
160,619	-5,427	233,784	114,118
161,633	-5,392	233,583	114,037
162,648	-5,426	233,648	114,031
163,662	-5,820	233,391	113,583
164,677	-5,660	233,239	113,626
165,692	-5,618	233,092	113,578
166,706	-5,303	232,796	113,673
167,721	-5,588	232,845	113,461
168,735	-5,301	232,552	113,534
169,750	-5,468	232,495	113,365
170,764	-5,660	232,400	113,157
171,779	-5,552	232,352	113,209
172,794	-5,440	232,034	113,132
173,808	-5,455	231,743	112,968
174,823	-5,933	231,611	112,517
175,837	-6,170	231,436	112,236
176,852	-5,805	231,355	112,474
177,867	-5,569	231,272	112,609
178,881	-5,447	231,057	112,590
179,896	-5,362	230,917	112,578
180,910	-5,331	230,706	112,489
181,925	-5,490	230,671	112,338
182,940	-5,598	230,563	112,191
183,954	-5,418	230,329	112,207
184,969	-5,350	230,317	112,245
185,983	-5,438	230,064	112,043
186,998	-5,285	229,798	112,023
188,013	-5,233	229,658	111,985
189,027	-5,438	229,525	111,751
190,042	-5,406	229,529	111,767
191,056	-5,265	229,310	111,761
192,071	-5,247	229,049	111,637
193,086	-5,394	228,921	111,451
194,100	-5,527	228,753	111,256
195,115	-5,511	228,362	111,068
196,129	-5,907	228,342	110,742
197,144	-2,937	229,234	113,471
198,159	1,372	230,495	117,441
199,173	3,623	231,063	119,474
200,188	3,878	230,957	119,607
201,202	3,890	230,797	119,523
202,217	4,116	230,701	119,638
203,232	4,209	230,585	119,640
204,246	4,273	230,501	119,635
205,261	4,365	230,242	119,560
206,275	4,673	230,272	119,804
207,290	4,674	230,064	119,686
208,304	4,577	229,965	119,549
209,319	4,385	229,889	119,351
210,334	4,343	229,619	119,168
211,348	4,187	229,235	118,837
212,363	4,002	228,884	118,502
213,377	3,795	228,740	118,258
214,392	3,697	228,715	118,159
215,407	3,703	228,777	118,185
216,421	3,886	228,344	118,092
217,436	3,689	228,221	117,866
218,450	3,353	228,045	117,507
219,465	3,270	227,894	117,355
220,480	3,514	227,818	117,492
221,494	3,346	227,668	117,276
222,509	3,792	227,436	117,487
223,523	3,667	227,329	117,325
224,538	3,355	227,145	116,982
225,553	3,722	227,021	117,187
226,567	3,687	227,051	117,166
227,582	3,743	226,812	117,075
228,596	4,004	226,800	117,257
229,611	3,819	226,517	116,959
230,626	3,532	226,321	116,630
231,640	3,605	226,102	116,562
232,655	3,730	226,059	116,624
233,669	4,247	225,991	116,971
234,684	4,354	225,882	116,985
235,699	4,117	225,630	116,665
236,713	4,028	225,443	116,490
237,728	3,588	225,418	116,134
238,742	3,501	225,131	115,910
239,757	3,666	224,837	115,873
240,772	3,803	224,740	115,916
241,786	3,517	224,597	115,616
242,801	3,824	224,583	115,830
243,815	4,004	224,550	115,938
244,830	4,011	224,518	115,917
245,844	3,676	224,119	115,449
246,859	3,798	224,050	115,494
247,874	3,865	223,873	115,444
248,888	3,792	223,816	115,349
249,903	3,706	223,675	115,202
250,917	3,670	223,433	115,039
251,932	3,585	223,227	114,860
252,947	3,454	223,140	114,707
253,961	3,642	222,861	114,693
254,976	3,483	222,797	114,531
255,990	3,732	222,819	114,718
257,005	4,029	222,454	114,742
258,020	3,714	222,449	114,494
259,034	4,178	222,482	114,847
260,049	3,805	222,234	114,431
261,063	3,796	222,033	114,310
262,078	3,816	221,990	114,293
263,093	4,329	221,746	114,538
264,107	3,984	221,503	114,147
265,122	3,871	221,488	114,045
266,136	3,913	221,360	114,000
267,151	3,967	221,201	113,948
268,166	3,896	220,991	113,777
269,180	3,605	220,719	113,411
270,195	3,659	220,607	113,384
271,209	3,647	220,404	113,261
272,224	3,578	220,355	113,175
273,239	3,667	220,274	113,188
274,253	3,636	220,053	113,042
275,268	3,401	219,911	112,786
276,282	3,339	219,816	112,682
277,297	3,263	219,717	112,565
278,312	3,672	219,409	112,697
279,326	3,580	219,513	112,673
280,341	3,685	219,174	112,566
281,355	3,755	218,959	112,497
282,370	3,575	218,998	112,375
283,384	3,325	218,769	112,064
284,399	3,279	218,608	111,939
285,414	3,309	218,440	111,865
286,428	3,610	218,323	112,014
287,443	3,828	218,474	112,241
288,457	3,780	218,242	112,076
289,472	3,765	217,913	111,887
290,487	3,239	217,660	111,364
291,501	3,160	217,513	111,221
292,516	3,337	217,364	111,264
293,530	3,490	217,354	111,360
294,545	3,344	217,297	111,215
295,560	3,504	217,158	111,250
296,574	3,806	216,860	111,306
297,589	3,810	216,810	111,273
298,603	3,687	216,755	111,146
299,618	3,748	216,630	111,117
300,633	3,512	216,512	110,876
301,647	3,851	216,339	111,022
302,662	3,826	216,376	111,013
303,676	4,015	216,174	111,035
304,691	4,043	215,944	110,928
305,706	4,173	215,699	110,886
306,720	3,775	215,790	110,636
307,735	3,589	215,571	110,380
308,749	3,546	215,352	110,227
309,764	3,722	215,247	110,290
310,779	3,859	215,129	110,318
311,793	3,732	214,952	110,126
312,808	3,587	214,862	109,966
313,822	3,738	214,704	109,984
314,837	3,625	214,578	109,828
315,852	3,501	214,376	109,627
316,866	3,692	214,353	109,742
317,881	3,888	214,207	109,797
318,895	3,831	213,873	109,575
319,910	3,663	213,824	109,421
320,925	3,431	213,617	109,140
321,939	3,084	213,436	108,791
322,954	3,349	213,493	108,999
323,968	3,767	213,287	109,181
324,983	4,213	213,171	109,429
325,997	3,764	213,134	109,081
327,012	3,576	212,807	108,771
328,027	3,634	212,893	108,847
329,041	3,982	212,661	108,964
330,056	4,011	212,737	109,014
331,070	3,746	212,273	108,580
332,085	3,541	212,041	108,307
333,100	3,368	212,073	108,191
334,114	3,929	211,916	108,497
335,129	3,896	211,759	108,384
336,143	3,656	211,673	108,161
337,158	3,479	211,547	107,962
338,173	3,645	211,308	107,947
339,187	3,429	211,195	107,728
340,202	3,313	210,983	107,529
341,216	3,126	210,768	107,279
342,231	3,642	210,620	107,555
343,246	3,508	210,588	107,435
344,260	3,557	210,581	107,457
345,275	3,624	210,410	107,407
346,289	3,717	210,438	107,476
347,304	3,622	210,325	107,343
348,319	3,484	210,167	107,156
349,333	3,599	209,971	107,127
350,348	3,760	209,810	107,147
351,362	3,868	209,727	107,171
352,377	3,711	209,746	107,062
353,392	3,755	209,366	106,888
354,406	3,677	209,356	106,820
355,421	194,255	1344,001	1430,356
356,435	155,041	1482,325	1430,447
