DTS Sentinel unit serial number:	SN410029Multiplexer serial number:	ORYXHardware model number:	OX2-SRSoftware version number:	ORYX F/W v4,00 Oryx Data Collector v3.7.2.0data status	okinstallation	B6 Nyhavnadifferential loss correction	single-endedforward channel	channel 2reverse channel	N/Adate	2023/12/10time	22:25:08forward acquisition time	300,00reverse acquisition time	0,00gamma	499,1914k internal	0,3123k external	0,3123temperature offset calibration	1,0000default loss term (dB/km)	0,3820temperature slope calibration	1,0000multiplexer offset coefficient	1,0000multiplexer slope coefficient	1,0000fibre end	0,00T internal ref (°C)	22,37T ext. ref 1 (°C)	6,14T ext. ref 2 (°C)	6,12length (m)	temperature (°C)	Stokes	anti-Stokes-744,400	-78,607	-0,048	-0,012
-743,385	50,170	-0,193	0,136
-742,371	-200,000	0,019	0,109
-741,356	-200,000	-0,024	0,259
-740,342	-50,010	0,093	0,033
-739,327	250,675	-0,134	0,170
-738,312	-139,052	-0,073	-0,006
-737,298	-139,069	-0,248	-0,020
-736,283	120,811	0,065	0,060
-735,269	-115,992	-0,164	0,023
-734,254	31,020	0,041	-0,026
-733,239	-122,795	-0,422	0,050
-732,225	-131,129	0,141	-0,014
-731,210	-200,000	0,009	0,171
-730,196	800,000	-0,043	0,129
-729,181	-200,000	0,013	-0,082
-728,167	352,021	-0,035	-0,052
-727,152	-56,278	0,078	0,026
-726,137	800,000	-0,041	0,123
-725,123	-69,225	-0,040	0,011
-724,108	800,000	-0,049	0,138
-723,094	-21,219	0,012	-0,005
-722,079	339,823	0,023	-0,033
-721,064	800,000	-0,041	-0,110
-720,050	-13,014	0,123	-0,059
-719,035	-70,789	-0,130	0,036
-718,021	-200,000	0,004	0,017
-717,006	-123,999	-0,139	0,016
-715,991	156,983	-0,118	-0,122
-714,977	-50,776	-0,121	0,042
-713,962	-200,000	0,006	-0,053
-712,948	24,962	-0,005	-0,003
-711,933	-41,934	0,076	0,029
-710,918	-50,759	0,062	0,022
-709,904	-169,527	-0,040	-0,001
-708,889	21,237	0,079	-0,047
-707,875	-200,000	-0,009	-0,032
-706,860	-42,052	0,050	0,019
-705,845	-200,000	-0,032	0,146
-704,831	800,000	-0,047	0,117
-703,816	168,946	-0,058	0,061
-702,802	800,000	-0,051	-0,110
-701,787	68,204	-0,109	-0,083
-700,772	304,779	-0,039	0,054
-699,758	258,174	0,089	0,115
-698,743	756,499	-0,051	-0,104
-697,729	800,000	0,010	0,029
-696,714	25,977	-0,075	-0,047
-695,699	70,786	-0,084	-0,065
-694,685	53,031	-0,068	-0,048
-693,670	-200,000	0,002	-0,100
-692,656	-200,000	0,012	0,072
-691,641	800,000	-0,015	-0,035
-690,627	168,754	0,042	-0,045
-689,612	800,000	0,039	0,091
-688,597	-200,000	0,019	-0,086
-687,583	330,426	-0,071	-0,102
-686,568	389,857	-0,034	-0,053
-685,554	25,396	0,095	0,059
-684,539	125,957	0,057	0,053
-683,524	0,998	0,065	0,035
-682,510	-20,507	-0,063	0,029
-681,495	-200,000	-0,016	0,096
-680,481	-9,278	-0,097	-0,048
-679,466	-133,801	-0,061	-0,006
-678,451	-111,200	-0,143	0,022
-677,437	78,378	0,052	0,041
-676,422	-93,092	0,093	0,019
-675,408	443,662	-0,042	-0,068
-674,393	-200,000	0,027	-0,122
-673,378	800,000	-0,069	0,207
-672,364	7,389	-0,088	-0,049
-671,349	19,496	0,066	-0,040
-670,335	0,278	0,126	-0,066
-669,320	-151,636	-0,177	0,010
-668,305	181,506	-0,044	0,048
-667,291	638,645	0,038	-0,072
-666,276	-156,543	-0,180	-0,008
-665,262	-85,512	0,090	0,021
-664,247	46,335	0,094	-0,065
-663,232	604,576	0,039	0,072
-662,218	800,000	0,019	-0,055
-661,203	-200,000	0,002	0,073
-660,189	-84,963	-0,134	0,031
-659,174	135,705	-0,082	0,079
-658,159	-200,000	0,000	-0,019
-657,145	800,000	-0,030	0,067
-656,130	-11,388	0,022	0,011
-655,116	89,563	0,038	0,031
-654,101	365,250	-0,026	0,039
-653,086	-42,679	-0,023	0,009
-652,072	-15,906	-0,160	0,075
-651,057	154,084	-0,116	-0,119
-650,043	-200,000	-0,033	-0,122
-649,028	800,000	-0,013	0,037
-648,014	363,287	0,037	-0,055
-646,999	-18,378	-0,115	0,053
-645,984	21,499	-0,112	-0,068
-644,970	-78,958	0,130	0,033
-643,955	12,298	-0,044	-0,025
-642,941	800,000	-0,054	-0,113
-641,926	199,815	0,128	0,146
-640,911	-108,571	-0,070	-0,011
-639,897	-63,163	0,103	0,031
-638,882	-42,448	-0,065	0,024
-637,868	-101,804	0,144	-0,026
-636,853	194,524	0,043	-0,048
-635,838	-200,000	0,010	-0,070
-634,824	99,660	-0,087	-0,074
-633,809	207,440	0,072	0,083
-632,795	800,000	0,046	0,128
-631,780	-15,418	-0,117	0,055
-630,765	800,000	0,027	-0,064
-629,751	11,632	-0,054	-0,031
-628,736	101,768	-0,122	-0,105
-627,722	156,732	-0,064	-0,066
-626,707	-200,000	0,004	0,133
-625,692	163,384	0,109	0,114
-624,678	-44,436	0,102	0,038
-623,663	167,485	-0,093	-0,098
-622,649	-146,033	-0,024	0,002
-621,634	416,872	-0,039	-0,062
-620,619	-107,175	-0,072	-0,012
-619,605	-200,000	0,006	0,042
-618,590	-200,000	-0,006	-0,039
-617,576	117,216	-0,080	0,073
-616,561	-51,399	-0,063	0,022
-615,546	31,744	0,067	-0,042
-614,532	-161,520	-0,073	0,003
-613,517	-69,232	-0,139	-0,039
-612,503	99,433	-0,091	-0,078
-611,488	49,102	-0,113	-0,078
-610,474	800,000	0,021	-0,061
-609,459	800,000	0,040	0,110
-608,444	-44,388	0,040	0,015
-607,430	800,000	-0,023	-0,069
-606,415	114,050	-0,020	0,018
-605,401	341,956	-0,034	0,049
-604,386	-200,000	-0,010	0,069
-603,371	132,895	-0,052	-0,050
-602,357	-200,000	0,006	-0,114
-601,342	-18,094	-0,076	0,035
-600,328	-148,396	-0,012	-0,001
-599,313	-200,000	0,003	-0,124
-598,298	84,817	0,059	0,048
-597,284	-200,000	0,002	0,110
-596,269	-200,000	-0,015	0,053
-595,255	800,000	0,079	0,167
-594,240	129,723	0,003	-0,003
-593,225	267,006	-0,036	-0,047
-592,211	800,000	-0,069	-0,161
-591,196	695,647	-0,046	0,090
-590,182	73,800	-0,082	-0,064
-589,167	25,903	0,049	0,030
-588,152	237,444	0,028	0,035
-587,138	-100,251	-0,080	-0,015
-586,123	-117,661	-0,103	0,014
-585,109	108,595	-0,025	-0,022
-584,094	799,580	0,105	-0,215
-583,079	-59,060	0,189	-0,060
-582,065	-68,165	-0,048	0,014
-581,050	317,950	0,018	-0,025
-580,036	-10,468	0,038	0,018
-579,021	-8,380	-0,070	-0,035
-578,006	200,979	0,117	-0,133
-576,992	800,000	-0,045	-0,109
-575,977	-200,000	0,011	-0,094
-574,963	-200,000	-0,014	0,068
-573,948	449,331	0,071	0,116
-572,934	550,204	-0,012	-0,021
-571,919	-200,000	0,009	-0,072
-570,904	-162,361	-0,098	-0,004
-569,890	-200,000	-0,001	-0,007
-568,875	-200,000	-0,003	0,010
-567,861	190,957	0,112	0,125
-566,846	-86,185	0,135	0,030
-565,831	-200,000	0,001	-0,033
-564,817	-43,841	0,075	-0,028
-563,802	258,432	-0,038	0,048
-562,788	306,077	-0,026	0,036
-561,773	38,252	0,062	-0,041
-560,758	266,873	-0,153	0,198
-559,744	-200,000	-0,010	0,079
-558,729	800,000	0,011	-0,029
-557,715	60,218	-0,101	-0,074
-556,700	10,968	-0,035	0,020
-555,685	771,043	-0,043	-0,087
-554,671	480,620	-0,037	0,063
-553,656	800,000	0,053	0,116
-552,642	800,000	-0,027	0,059
-551,627	659,511	0,003	0,005
-550,612	455,969	-0,042	-0,069
-549,598	-105,805	-0,047	0,008
-548,583	-28,255	0,035	-0,015
-547,569	529,291	0,027	-0,048
-546,554	8,198	-0,027	-0,015
-545,539	140,508	0,117	0,115
-544,525	-200,000	0,038	0,151
-543,510	-174,464	-0,051	-0,001
-542,496	-127,800	-0,179	0,019
-541,481	581,182	-0,094	-0,171
-540,466	-200,000	0,023	-0,111
-539,452	289,693	0,049	0,066
-538,437	-99,850	0,075	-0,014
-537,423	14,387	-0,028	-0,016
-536,408	211,749	-0,086	0,101
-535,393	-117,378	-0,089	0,012
-534,379	29,570	0,055	0,034
-533,364	-11,689	-0,044	-0,021
-532,350	-104,397	0,097	-0,016
-531,335	466,699	-0,073	-0,122
-530,321	-113,227	-0,061	-0,009
-529,306	40,506	0,064	0,042
-528,291	555,076	0,083	-0,148
-527,277	-87,778	-0,075	0,017
-526,262	800,000	0,006	-0,014
-525,248	-132,855	-0,045	-0,004
-524,233	48,995	0,069	0,048
-523,218	455,392	0,095	0,156
-522,204	17,836	0,043	0,025
-521,189	-127,904	-0,150	-0,016
-520,175	97,276	-0,031	-0,026
-519,160	-20,228	-0,069	-0,031
-518,145	-200,000	0,004	0,051
-517,131	310,380	0,014	-0,020
-516,116	411,927	-0,058	0,091
-515,102	-200,000	0,015	-0,106
-514,087	-62,415	0,070	-0,021
-513,072	-21,035	-0,031	0,014
-512,058	-31,289	-0,085	0,035
-511,043	-61,026	0,085	-0,026
-510,029	800,000	0,019	0,060
-509,014	-74,573	-0,091	0,024
-507,999	151,874	-0,068	0,069
-506,985	-200,000	-0,008	-0,038
-505,970	82,404	-0,035	-0,028
-504,956	-200,000	0,009	-0,142
-503,941	66,803	0,027	0,021
-502,926	800,000	0,024	0,062
-501,912	800,000	0,017	0,039
-500,897	516,347	-0,070	-0,121
-499,883	40,968	-0,092	-0,062
-498,868	-65,132	0,117	0,034
-497,853	162,475	-0,032	0,033
-496,839	12,591	-0,044	0,025
-495,824	66,772	0,064	-0,048
-494,810	669,794	0,044	-0,084
-493,795	-68,359	0,044	-0,013
-492,781	237,970	0,051	0,063
-491,766	-200,000	-0,000	0,020
-490,751	11,564	0,090	-0,051
-489,737	501,337	0,050	0,086
-488,722	1,992	0,096	0,051
-487,708	718,036	-0,072	0,142
-486,693	800,000	-0,039	0,098
-485,678	-200,000	0,004	0,105
-484,664	-200,000	-0,006	0,033
-483,649	456,973	-0,036	-0,060
-482,635	-200,000	0,001	-0,015
-481,620	-66,905	0,100	0,029
-480,605	558,046	-0,042	0,075
-479,591	208,691	0,116	-0,134
-478,576	-11,318	0,019	-0,009
-477,562	-103,477	-0,095	-0,016
-476,547	800,000	0,016	-0,049
-475,532	-56,988	0,114	-0,037
-474,518	-89,962	0,115	0,025
-473,503	-200,000	0,017	-0,105
-472,489	800,000	0,041	-0,123
-471,474	-37,194	-0,116	-0,046
-470,459	800,000	-0,018	-0,053
-469,445	200,545	-0,019	-0,021
-468,430	800,000	0,017	-0,035
-467,416	311,399	0,055	-0,076
-466,401	321,960	0,020	0,028
-465,386	177,988	0,044	0,048
-464,372	418,211	-0,032	-0,051
-463,357	237,095	0,058	0,071
-462,343	-91,903	-0,057	-0,012
-461,328	-19,598	0,099	-0,045
-460,313	-93,418	0,097	0,020
-459,299	21,426	-0,101	-0,060
-458,284	312,670	0,063	0,087
-457,270	31,628	0,055	-0,035
-456,255	800,000	0,007	0,022
-455,241	-27,832	-0,037	0,016
-454,226	800,000	-0,014	0,032
-453,211	525,473	-0,037	-0,065
-452,197	800,000	-0,036	0,115
-451,182	294,373	0,051	-0,069
-450,168	-200,000	-0,033	0,155
-449,153	-200,000	0,000	-0,058
-448,138	-91,664	-0,067	0,014
-447,124	-29,572	-0,025	-0,011
-446,109	-31,503	-0,089	0,037
-445,095	43,849	-0,077	0,052
-444,080	164,336	0,052	0,054
-443,065	-200,000	-0,037	-0,230
-442,051	-55,896	0,092	0,030
-441,036	-200,000	0,031	-0,105
-440,022	-105,484	-0,076	0,013
-439,007	22,257	-0,087	-0,052
-437,992	-200,000	-0,002	0,078
-436,978	271,758	-0,051	0,067
-435,963	-200,000	-0,023	-0,098
-434,949	159,980	-0,023	0,024
-433,934	-53,790	-0,126	-0,042
-432,919	-119,126	-0,091	-0,012
-431,905	8,598	0,035	0,019
-430,890	-89,721	-0,136	0,029
-429,876	19,937	0,064	0,038
-428,861	-200,000	0,010	-0,144
-427,846	800,000	-0,038	-0,096
-426,832	-200,000	-0,035	-0,130
-425,817	-25,184	-0,103	0,045
-424,803	-92,356	0,115	0,024
-423,788	-79,335	-0,049	-0,012
-422,773	800,000	0,040	-0,098
-421,759	58,921	0,053	0,039
-420,744	-15,197	0,051	-0,024
-419,730	-200,000	0,008	-0,068
-418,715	-106,545	0,044	0,007
-417,701	-12,142	-0,160	-0,077
-416,686	-90,227	0,114	-0,024
-415,671	-200,000	-0,002	0,134
-414,657	-9,785	-0,022	-0,011
-413,642	-95,834	-0,200	-0,039
-412,628	-115,904	0,088	-0,012
-411,613	-200,000	-0,074	-0,000
-410,598	215,878	0,064	0,075
-409,584	389,243	-0,052	-0,080
-408,569	-200,000	-0,008	0,099
-407,555	-200,000	-0,004	-0,071
-406,540	-200,000	-0,025	0,088
-405,525	800,000	0,007	-0,017
-404,511	-87,054	-0,089	-0,020
-403,496	800,000	-0,028	-0,068
-402,482	-200,000	-0,001	0,015
-401,467	184,004	0,025	0,028
-400,452	61,873	0,084	0,061
-399,438	-127,205	-0,146	-0,016
-398,423	-200,000	0,001	-0,159
-397,409	-200,000	-0,002	0,036
-396,394	-22,942	-0,106	-0,047
-395,379	-42,023	0,074	0,028
-394,365	-45,190	0,061	0,022
-393,350	-85,906	0,110	-0,025
-392,336	-197,590	-0,079	0,000
-391,321	800,000	-0,045	-0,129
-390,306	-9,937	-0,012	-0,006
-389,292	-200,000	-0,005	-0,022
-388,277	-200,000	-0,006	-0,024
-387,263	189,775	0,053	0,058
-386,248	162,563	-0,020	0,020
-385,233	-200,000	0,040	-0,136
-384,219	-143,319	0,080	0,006
-383,204	147,892	-0,026	-0,026
-382,190	-200,000	-0,017	-0,174
-381,175	409,431	0,040	-0,063
-380,160	18,115	0,057	-0,034
-379,146	800,000	-0,035	0,090
-378,131	-18,349	0,184	0,084
-377,117	-120,973	0,047	-0,006
-376,102	97,252	0,020	-0,017
-375,088	-200,000	-0,015	-0,055
-374,073	-109,891	-0,013	0,002
-373,058	-200,000	0,040	-0,221
-372,044	-143,045	0,082	0,006
-371,029	-115,703	-0,126	-0,017
-370,015	160,904	0,026	0,027
-369,000	-167,400	-0,139	0,004
-367,985	-84,751	-0,057	0,013
-366,971	800,000	0,034	-0,075
-365,956	354,577	0,046	-0,067
-364,942	528,263	-0,073	0,127
-363,927	186,537	0,063	0,069
-362,912	800,000	-0,031	-0,082
-361,898	800,000	0,006	0,019
-360,883	49,862	-0,102	0,071
-359,869	89,857	0,068	-0,055
-358,854	800,000	-0,010	0,026
-357,839	19,259	-0,069	-0,040
-356,825	-200,000	-0,015	0,128
-355,810	-200,000	0,003	-0,092
-354,796	-82,342	-0,214	0,051
-353,781	800,000	-0,017	-0,050
-352,766	-200,000	-0,039	0,144
-351,752	-94,335	0,167	-0,033
-350,737	800,000	-0,022	-0,052
-349,723	-200,000	-0,020	0,129
-348,708	-200,000	0,020	0,086
-347,693	-50,016	0,093	-0,032
-346,679	156,388	0,059	-0,060
-345,664	-139,537	0,046	0,004
-344,650	139,342	0,032	0,031
-343,635	421,923	0,112	0,176
-342,620	5,036	0,131	0,070
-341,606	38,693	0,068	0,045
-340,591	-200,000	-0,011	-0,047
-339,577	9,489	-0,161	-0,089
-338,562	-200,000	-0,018	-0,068
-337,548	378,044	0,050	-0,076
-336,533	195,747	0,105	-0,117
-335,518	-17,753	0,105	0,048
-334,504	-200,000	-0,028	0,169
-333,489	87,828	0,027	0,022
-332,475	200,070	0,084	0,095
-331,460	-79,176	-0,047	-0,012
-330,445	-200,000	0,021	0,122
-329,431	-200,000	0,027	0,144
-328,416	-113,268	0,082	-0,012
-327,402	-132,850	0,037	-0,003
-326,387	-200,000	-0,016	0,125
-325,372	44,873	-0,118	-0,080
-324,358	-96,510	-0,099	0,019
-323,343	-200,000	0,044	-0,150
-322,329	279,821	0,084	0,110
-321,314	-200,000	-0,008	0,058
-320,299	-28,417	0,133	0,056
-319,285	742,796	0,039	0,077
-318,270	800,000	-0,005	-0,012
-317,256	59,769	-0,049	-0,036
-316,241	800,000	0,112	-0,230
-315,226	171,106	0,110	-0,116
-314,212	-200,000	-0,003	0,034
-313,197	-29,688	0,082	0,034
-312,183	395,404	-0,045	0,069
-311,168	-94,613	0,148	0,029
-310,153	243,288	-0,058	0,071
-309,139	736,110	-0,063	0,124
-308,124	285,229	0,092	0,121
-307,110	393,017	-0,023	-0,035
-306,095	379,361	-0,011	0,017
-305,080	46,966	0,085	-0,058
-304,066	289,101	0,012	-0,016
-303,051	-88,256	-0,068	0,015
-302,037	-73,036	-0,100	0,027
-301,022	187,599	-0,041	-0,045
-300,008	800,000	0,047	0,139
-298,993	800,000	0,041	0,132
-297,978	48,676	-0,014	0,009
-296,964	18,591	-0,133	-0,077
-295,949	132,966	-0,030	-0,028
-294,935	-29,861	-0,133	-0,055
-293,920	14,085	0,068	-0,039
-292,905	3,177	-0,092	0,049
-291,891	216,344	-0,042	-0,049
-290,876	-200,000	-0,030	0,109
-289,862	-200,000	0,009	-0,040
-288,847	-200,000	-0,001	-0,046
-287,832	530,261	-0,038	-0,066
-286,818	800,000	0,032	-0,068
-285,803	-170,249	0,065	0,002
-284,789	-175,427	0,065	-0,001
-283,774	42,769	-0,092	-0,061
-282,759	-27,303	-0,042	-0,018
-281,745	-200,000	-0,032	-0,132
-280,730	249,816	-0,039	0,048
-279,716	149,833	0,092	0,092
-278,701	-200,000	0,009	0,131
-277,686	-65,549	0,081	0,024
-276,672	-48,882	0,023	-0,008
-275,657	197,892	-0,037	-0,041
-274,643	-77,714	-0,061	-0,015
-273,628	-200,000	0,007	-0,108
-272,613	130,106	-0,011	-0,011
-271,599	365,904	0,050	0,075
-270,584	147,751	-0,046	-0,045
-269,570	-122,415	-0,059	-0,007
-268,555	66,257	0,073	0,055
-267,540	21,189	0,037	-0,022
-266,526	-169,543	-0,082	-0,002
-265,511	281,439	-0,035	0,045
-264,497	247,381	-0,075	0,093
-263,482	5,992	0,015	-0,008
-262,467	800,000	-0,044	0,109
-261,453	225,849	0,050	-0,060
-260,438	34,851	0,095	-0,061
-259,424	270,516	-0,045	0,058
-258,409	405,085	-0,042	-0,065
-257,395	138,732	-0,089	-0,085
-256,380	-67,644	0,091	0,026
-255,365	-1,635	0,124	0,064
-254,351	264,333	-0,033	-0,042
-253,336	334,405	-0,046	-0,066
-252,322	99,303	-0,049	-0,041
-251,307	372,863	-0,040	-0,060
-250,292	800,000	-0,042	0,121
-249,278	325,969	0,049	-0,068
-248,263	-169,219	-0,101	-0,003
-247,249	68,840	-0,113	0,085
-246,234	-15,929	0,049	0,023
-245,219	82,508	0,101	-0,080
-244,205	-200,000	-0,020	-0,122
-243,190	-1,840	0,095	0,049
-242,176	800,000	0,017	0,050
-241,161	-133,231	0,061	-0,006
-240,146	-86,650	-0,054	0,012
-239,132	125,207	0,044	0,041
-238,117	-128,496	-0,021	0,002
-237,103	682,195	-0,048	-0,093
-236,088	-200,000	0,001	-0,012
-235,073	16,607	0,133	0,077
-234,059	-74,419	0,033	0,009
-233,044	800,000	0,028	-0,063
-232,030	-146,829	0,143	0,009
-231,015	-200,000	0,001	0,150
-230,000	800,000	-0,055	0,147
-228,986	800,000	0,046	0,119
-227,971	800,000	-0,038	0,112
-226,957	-200,000	-0,008	0,070
-225,942	800,000	0,073	0,172
-224,927	628,512	0,056	0,103
-223,913	-65,864	-0,086	-0,025
-222,898	-31,719	-0,081	0,033
-221,884	122,140	0,015	-0,013
-220,869	6,429	0,138	-0,075
-219,855	-98,246	0,148	-0,028
-218,840	-200,000	-0,016	-0,065
-217,825	177,757	-0,060	-0,064
-216,811	17,682	-0,107	-0,062
-215,796	-200,000	0,026	-0,085
-214,782	-182,985	0,091	-0,001
-213,767	-90,813	-0,104	0,022
-212,752	271,023	0,069	0,088
-211,738	734,933	0,044	-0,087
-210,723	225,670	-0,079	-0,093
-209,709	-80,507	-0,166	-0,040
-208,694	200,242	0,063	-0,071
-207,679	-101,008	0,041	-0,007
-206,665	265,012	0,048	0,061
-205,650	28,533	0,032	0,020
-204,636	54,343	0,059	0,041
-203,621	100,713	0,032	-0,027
-202,606	-67,271	0,036	-0,010
-201,592	189,936	-0,074	-0,081
-200,577	-200,000	0,019	0,113
-199,563	800,000	-0,023	-0,065
-198,548	20,402	0,139	0,082
-197,533	800,000	0,090	0,243
-196,519	-200,000	-0,001	0,008
-195,504	737,720	-0,035	-0,068
-194,490	-113,824	0,066	0,009
-193,475	235,922	-0,036	-0,043
-192,460	-89,969	-0,041	-0,009
-191,446	111,446	0,009	0,008
-190,431	800,000	0,027	0,080
-189,417	-200,000	0,019	-0,094
-188,402	104,130	0,028	-0,024
-187,387	106,295	-0,095	0,083
-186,373	653,878	-0,037	0,070
-185,358	800,000	-0,036	0,108
-184,344	319,153	-0,036	0,051
-183,329	-200,000	0,004	0,120
-182,315	515,904	0,062	0,107
-181,300	193,786	0,076	-0,084
-180,285	-200,000	0,002	-0,058
-179,271	-102,231	-0,111	-0,019
-178,256	800,000	-0,037	-0,117
-177,242	232,860	0,014	-0,017
-176,227	-200,000	-0,007	-0,079
-175,212	-54,233	0,088	-0,029
-174,198	-127,182	0,102	-0,011
-173,183	-115,155	-0,009	-0,001
-172,169	9,707	-0,032	-0,018
-171,154	800,000	-0,070	0,155
-170,139	40,208	0,006	-0,004
-169,125	595,118	0,048	-0,086
-168,110	-200,000	0,046	0,195
-167,096	-200,000	-0,026	0,124
-166,081	-200,000	0,009	-0,148
-165,066	42,907	-0,126	-0,083
-164,052	-67,997	0,022	0,006
-163,037	643,830	0,038	-0,070
-162,023	6,780	-0,098	-0,053
-161,008	29,633	0,082	0,051
-159,993	-200,000	0,010	0,047
-158,979	-137,029	0,047	-0,004
-157,964	247,496	0,063	-0,077
-156,950	-12,927	-0,087	-0,041
-155,935	-76,210	0,101	-0,026
-154,920	-105,274	0,071	-0,012
-153,906	-200,000	-0,022	0,080
-152,891	-54,981	0,092	0,030
-151,877	228,322	-0,076	0,090
-150,862	-28,864	0,097	-0,040
-149,847	-74,604	0,042	0,011
-148,833	-139,215	-0,056	-0,004
-147,818	298,314	-0,058	0,078
-146,804	-200,000	0,034	0,177
-145,789	527,700	-0,052	0,090
-144,775	-200,000	-0,023	0,132
-143,760	49,270	-0,064	0,044
-142,745	-9,056	-0,030	0,014
-141,731	-200,000	0,025	-0,145
-140,716	139,386	-0,006	0,005
-139,702	-123,029	0,053	0,006
-138,687	-59,330	-0,088	0,027
-137,672	153,780	0,095	-0,095
-136,658	199,799	-0,099	-0,110
-135,643	138,857	0,025	0,024
-134,629	-200,000	-0,035	0,148
-133,614	-104,031	0,062	-0,010
-132,599	744,214	0,048	-0,094
-131,585	188,884	0,106	0,115
-130,570	588,069	-0,038	-0,068
-129,556	126,013	0,049	-0,045
-128,541	-2,149	-0,042	-0,021
-127,526	555,705	-0,065	-0,115
-126,512	190,730	0,027	-0,030
-125,497	162,666	-0,012	0,012
-124,483	800,000	0,030	-0,077
-123,468	-200,000	-0,004	0,024
-122,453	44,282	-0,058	0,038
-121,439	-200,000	0,028	-0,125
-120,424	21,292	0,090	0,053
-119,410	382,194	0,020	-0,029
-118,395	-141,840	-0,112	0,008
-117,380	327,998	0,068	0,095
-116,366	55,398	0,094	-0,066
-115,351	-94,121	0,147	-0,029
-114,337	-12,795	-0,089	0,042
-113,322	-183,901	-0,029	0,000
-112,307	509,923	0,037	-0,062
-111,293	-200,000	0,011	0,102
-110,278	800,000	0,037	0,109
-109,264	-200,000	-0,030	-0,099
-108,249	-200,000	0,005	-0,163
-107,234	-200,000	0,018	0,087
-106,220	800,000	-0,029	-0,089
-105,205	-94,236	-0,068	-0,013
-104,191	-200,000	-0,009	0,128
-103,176	800,000	0,014	0,043
-102,162	33,889	0,073	0,046
-101,147	-46,968	-0,049	0,017
-100,132	-66,497	0,104	-0,030
-99,118	49,826	-0,103	0,071
-98,103	-200,000	-0,017	-0,058
-97,089	744,552	0,014	-0,028
-96,074	-200,000	0,025	0,093
-95,059	-118,870	0,086	0,011
-94,045	51,241	-0,041	0,028
-93,030	-5,477	-0,078	-0,039
-92,016	800,000	0,035	0,077
-91,001	800,000	-0,060	0,178
-89,986	18,624	0,113	0,065
-88,972	800,000	0,021	-0,046
-87,957	800,000	-0,054	-0,120
-86,943	-87,252	0,055	-0,012
-85,928	-200,000	0,003	-0,073
-84,913	-175,939	0,156	0,003
-83,899	60,611	-0,057	0,041
-82,884	-24,123	0,088	0,038
-81,870	483,018	0,056	0,094
-80,855	800,000	0,045	0,116
-79,840	-200,000	0,021	-0,121
-78,826	-101,275	-0,161	0,028
-77,811	-28,219	0,086	-0,036
-76,797	-56,819	-0,072	-0,023
-75,782	124,992	0,027	0,025
-74,767	75,762	0,129	-0,099
-73,753	578,788	-0,016	0,028
-72,738	-200,000	0,012	0,041
-71,724	684,267	-0,055	-0,104
-70,709	275,508	-0,026	-0,034
-69,694	-146,187	0,022	-0,001
-68,680	-23,073	-0,157	0,068
-67,665	-200,000	-0,004	0,056
-66,651	-200,000	0,021	0,084
-65,636	-200,000	0,015	-0,059
-64,622	311,965	-0,031	0,042
-63,607	-59,974	0,063	-0,020
-62,592	-200,000	-0,001	0,043
-61,578	-10,885	0,138	-0,066
-60,563	478,604	-0,104	0,171
-59,549	-200,000	-0,021	0,079
-58,534	-158,384	-1,281	-0,053
-57,519	759,249	-0,733	-1,448
-56,505	-200,000	-0,944	-4,514
-55,490	145,087	0,495	-0,481
-54,476	800,000	5,003	11,901
-53,461	-200,000	13,682	253,478
-52,446	-200,000	690,000	2260,078
-51,432	591,405	1622,697	2918,021
-50,417	119,264	1635,078	1467,791
-49,403	73,296	1289,104	977,445
-48,388	38,111	1024,341	659,925
-47,373	24,343	981,991	587,363
-46,359	23,607	971,619	578,722
-45,344	22,574	967,389	572,805
-44,330	22,501	965,844	571,629
-43,315	22,399	964,431	570,438
-42,300	22,460	963,415	570,013
-41,286	22,464	962,277	569,327
-40,271	22,367	961,625	568,606
-39,257	22,349	960,595	567,914
-38,242	22,371	959,614	567,384
-37,227	22,339	958,783	566,768
-36,213	22,328	957,917	566,197
-35,198	22,362	957,121	565,814
-34,184	22,437	956,324	565,564
-33,169	22,375	955,516	564,860
-32,154	22,430	954,640	564,500
-31,140	22,431	953,874	564,028
-30,125	22,448	953,000	563,541
-29,111	22,342	952,314	562,774
-28,096	22,376	951,496	562,377
-27,082	22,404	950,843	562,059
-26,067	22,397	950,049	561,545
-25,052	22,444	949,265	561,210
-24,038	22,402	948,543	560,625
-23,023	22,367	948,128	560,246
-22,009	22,471	947,276	560,054
-20,994	22,456	946,872	559,746
-19,979	22,496	946,183	559,441
-18,965	22,464	945,386	558,847
-17,950	22,484	944,750	558,512
-16,936	22,431	944,053	557,909
-15,921	22,345	943,515	557,295
-14,906	22,330	942,834	556,823
-13,892	22,306	942,184	556,340
-12,877	22,337	941,459	555,989
-11,863	22,202	940,962	555,244
-10,848	22,283	940,304	555,090
-9,833	22,403	939,924	555,227
-8,819	22,329	939,358	554,636
-7,804	22,265	938,594	553,959
-6,790	22,303	937,939	553,670
-5,775	22,307	937,442	553,368
-4,760	22,355	936,822	553,131
-3,746	22,275	936,203	552,490
-2,731	22,138	935,573	551,666
-1,717	22,125	934,747	551,115
-0,702	22,102	934,146	550,668
0,313	21,900	933,558	550,516
1,327	25,044	931,747	559,286
2,342	34,879	796,119	504,066
3,356	32,982	451,728	283,131
4,371	1,891	293,910	153,191
5,386	-2,686	274,939	138,956
6,400	-4,270	269,015	134,480
7,415	-4,898	266,689	132,727
8,429	-4,418	265,463	132,544
9,444	-4,476	264,585	132,042
10,459	-4,534	263,914	131,641
11,473	-4,540	263,216	131,277
12,488	-4,428	262,736	131,127
13,502	-4,806	262,281	130,546
14,517	-4,633	261,743	130,423
15,531	-4,581	261,393	130,284
16,546	-4,566	261,070	130,125
17,561	-4,641	260,636	129,830
18,575	-4,553	260,376	129,768
19,590	-4,730	260,012	129,416
20,604	-4,583	259,715	129,388
21,619	-4,651	259,280	129,099
22,634	-4,616	259,095	129,026
23,648	-4,725	258,767	128,754
24,663	-4,674	258,509	128,660
25,677	-4,663	258,294	128,552
26,692	-4,626	257,929	128,391
27,707	-4,725	257,737	128,197
28,721	-4,578	257,378	128,137
29,736	-4,589	257,301	128,077
30,750	-4,758	256,821	127,677
31,765	-4,677	256,702	127,678
32,780	-4,781	256,626	127,537
33,794	-4,748	256,162	127,324
34,809	-4,619	255,960	127,327
35,823	-4,768	255,738	127,073
36,838	-4,880	255,425	126,808
37,853	-4,746	255,352	126,878
38,867	-4,728	255,070	126,742
39,882	-4,799	254,793	126,531
40,896	-4,775	254,601	126,446
41,911	-4,833	254,585	126,376
42,926	-4,737	254,242	126,278
43,940	-4,907	253,782	125,891
44,955	-4,777	253,715	125,959
45,969	-4,881	253,434	125,718
46,984	-5,072	253,250	125,449
47,999	-5,405	253,027	125,037
49,013	-5,379	252,623	124,849
50,028	-5,646	252,535	124,563
51,042	-5,655	252,305	124,430
52,057	-5,603	251,966	124,297
53,071	-5,742	251,874	124,119
54,086	-5,563	251,729	124,192
55,101	-5,413	251,415	124,156
56,115	-5,141	251,553	124,448
57,130	-4,761	251,352	124,666
58,144	-4,605	251,183	124,706
59,159	-4,582	250,843	124,546
60,174	-4,621	250,763	124,461
61,188	-4,634	250,509	124,313
62,203	-4,482	250,302	124,330
63,217	-4,731	250,133	124,021
64,232	-4,736	249,972	123,926
65,247	-4,562	249,554	123,857
66,261	-4,711	249,483	123,682
67,276	-5,038	249,278	123,291
68,290	-5,120	248,955	123,049
69,305	-5,125	248,652	122,884
70,320	-5,237	248,581	122,743
71,334	-4,802	248,378	123,002
72,349	-4,563	248,366	123,189
73,363	-4,559	248,189	123,094
74,378	-4,551	247,909	122,951
75,393	-4,673	247,615	122,690
76,407	-4,550	247,564	122,759
77,422	-4,740	247,376	122,493
78,436	-4,557	247,064	122,483
79,451	-4,620	246,809	122,293
80,466	-4,662	246,571	122,128
81,480	-4,588	246,300	122,045
82,495	-4,979	246,392	121,749
83,509	-4,849	245,936	121,623
84,524	-4,891	245,950	121,584
85,539	-5,143	245,557	121,166
86,553	-5,130	245,296	121,038
87,568	-4,904	245,240	121,189
88,582	-4,841	244,992	121,109
89,597	-4,915	244,652	120,868
90,611	-4,792	244,738	121,003
91,626	-4,761	244,643	120,971
92,641	-4,759	244,449	120,866
93,655	-4,752	244,276	120,776
94,670	-4,797	244,107	120,643
95,684	-4,885	243,909	120,461
96,699	-4,639	243,629	120,518
97,714	-4,708	243,375	120,324
98,728	-5,181	243,296	119,880
99,743	-4,936	242,981	119,918
100,757	-5,136	242,775	119,640
101,772	-5,067	242,517	119,559
102,787	-5,183	242,545	119,465
103,801	-5,054	242,384	119,482
104,816	-4,566	242,061	119,717
105,830	-4,721	242,089	119,591
106,845	-4,720	241,949	119,513
107,860	-4,536	241,680	119,521
108,874	-4,741	241,468	119,237
109,889	-4,973	241,332	118,967
110,903	-4,921	241,068	118,869
111,918	-4,853	240,828	118,797
112,933	-5,049	240,796	118,609
113,947	-4,814	240,663	118,726
114,962	-4,763	240,366	118,611
115,976	-4,796	240,201	118,492
116,991	-4,758	240,146	118,485
118,006	-4,730	239,919	118,385
119,020	-4,781	239,855	118,302
120,035	-4,796	239,735	118,220
121,049	-4,593	239,561	118,290
122,064	-4,634	239,333	118,133
123,079	-4,621	239,117	118,026
124,093	-4,818	238,869	117,733
125,108	-5,139	238,650	117,353
126,122	-5,365	238,563	117,115
127,137	-5,363	238,314	116,984
128,151	-4,986	238,026	117,138
129,166	-4,872	237,936	117,177
130,181	-5,165	237,663	116,794
131,195	-5,131	237,571	116,765
132,210	-5,043	237,549	116,816
133,224	-4,856	237,339	116,854
134,239	-4,920	237,196	116,721
135,254	-4,803	236,989	116,704
136,268	-4,873	236,745	116,516
137,283	-5,230	236,580	116,137
138,297	-5,131	236,298	116,067
139,312	-5,223	236,033	115,853
140,327	-4,926	236,019	116,075
141,341	-4,532	235,967	116,356
142,356	-4,190	235,868	116,572
143,370	-4,399	235,689	116,305
144,385	-4,482	235,595	116,182
145,400	-4,368	235,375	116,154
146,414	-4,369	235,178	116,046
147,429	-4,479	234,929	115,825
148,443	-4,357	234,662	115,780
149,458	-4,383	234,885	115,859
150,473	-4,428	234,582	115,664
151,487	-4,547	234,318	115,428
152,502	-4,657	234,167	115,256
153,516	-4,338	234,013	115,424
154,531	-4,478	233,880	115,236
155,546	-4,603	233,586	114,981
156,560	-4,635	233,630	114,968
157,575	-4,828	233,339	114,661
158,589	-4,861	233,059	114,487
159,604	-4,362	233,020	114,853
160,619	-4,568	233,051	114,696
161,633	-4,284	232,600	114,687
162,648	-4,257	232,595	114,696
163,662	-4,465	232,602	114,525
164,677	-4,735	232,356	114,180
165,692	-4,377	232,128	114,341
166,706	-4,347	232,027	114,305
167,721	-4,302	231,919	114,277
168,735	-4,147	231,701	114,281
169,750	-4,286	231,505	114,064
170,764	-4,337	231,294	113,911
171,779	-4,441	231,395	113,869
172,794	-4,517	231,190	113,698
173,808	-4,428	230,966	113,647
174,823	-4,988	230,620	113,027
175,837	-5,142	230,423	112,801
176,852	-4,782	230,464	113,092
177,867	-4,438	230,234	113,239
178,881	-4,242	230,230	113,380
179,896	-4,210	229,982	113,272
180,910	-4,377	229,999	113,141
181,925	-4,166	229,721	113,159
182,940	-4,256	229,480	112,959
183,954	-4,330	229,378	112,841
184,969	-4,267	229,281	112,833
185,983	-4,185	229,243	112,868
186,998	-4,302	229,063	112,678
188,013	-4,197	228,814	112,628
189,027	-4,042	228,553	112,610
190,042	-4,025	228,519	112,595
191,056	-4,255	228,160	112,230
192,071	-3,974	228,155	112,436
193,086	-4,364	228,026	112,060
194,100	-4,320	227,761	111,954
195,115	-4,614	227,544	111,610
196,129	-5,240	227,258	110,976
197,144	-2,095	228,279	113,901
198,159	2,196	229,425	117,795
199,173	4,345	229,784	119,638
200,188	4,311	229,890	119,656
201,202	4,287	229,570	119,460
202,217	4,500	229,571	119,615
203,232	4,769	229,470	119,759
204,246	4,894	229,310	119,762
205,261	4,999	229,112	119,729
206,275	5,038	229,113	119,749
207,290	5,045	228,945	119,656
208,304	5,193	228,668	119,614
209,319	4,971	228,598	119,396
210,334	4,792	228,432	119,161
211,348	4,772	228,177	119,003
212,363	4,318	227,935	118,516
213,377	4,132	227,646	118,213
214,392	4,161	227,556	118,178
215,407	4,264	227,481	118,207
216,421	4,309	227,397	118,188
217,436	3,973	227,125	117,778
218,450	3,673	226,909	117,426
219,465	3,719	226,872	117,432
220,480	3,980	226,693	117,529
221,494	4,104	226,330	117,424
222,509	4,152	226,283	117,426
223,523	4,018	226,160	117,250
224,538	4,123	226,091	117,284
225,553	3,973	225,983	117,103
226,567	4,375	225,774	117,290
227,582	4,333	225,727	117,223
228,596	4,602	225,614	117,358
229,611	4,102	225,510	116,914
230,626	3,842	225,245	116,569
231,640	4,074	225,088	116,653
232,655	4,309	224,975	116,762
233,669	4,636	224,973	116,998
234,684	4,844	224,628	116,965
235,699	4,360	224,718	116,636
236,713	4,451	224,312	116,483
237,728	4,301	224,049	116,223
238,742	4,100	223,954	116,012
239,757	4,037	223,923	115,938
240,772	4,226	223,493	115,848
241,786	3,825	223,617	115,600
242,801	4,241	223,557	115,872
243,815	4,407	223,453	115,932
244,830	4,521	223,375	115,966
245,844	4,243	223,098	115,604
246,859	4,410	222,760	115,543
247,874	4,354	222,970	115,600
248,888	4,444	222,724	115,529
249,903	4,162	222,595	115,242
250,917	4,151	222,389	115,117
251,932	4,139	222,178	114,988
252,947	4,239	222,012	114,966
253,961	4,048	221,851	114,731
254,976	3,998	221,776	114,644
255,990	4,310	221,711	114,833
257,005	4,276	221,675	114,778
258,020	4,624	221,312	114,839
259,034	4,692	221,220	114,832
260,049	4,394	221,040	114,507
261,063	4,355	220,958	114,425
262,078	4,741	220,701	114,568
263,093	4,688	220,696	114,516
264,107	4,580	220,502	114,325
265,122	4,464	220,453	114,203
266,136	4,445	220,415	114,160
267,151	4,834	220,114	114,280
268,166	4,227	219,864	113,693
269,180	3,877	219,641	113,310
270,195	3,991	219,631	113,378
271,209	4,126	219,351	113,324
272,224	4,120	219,335	113,300
273,239	4,332	219,161	113,356
274,253	4,015	219,118	113,091
275,268	4,023	218,888	112,968
276,282	3,888	218,564	112,692
277,297	3,802	218,515	112,593
278,312	3,934	218,395	112,618
279,326	4,148	218,304	112,718
280,341	4,171	218,065	112,601
281,355	4,358	218,034	112,711
282,370	3,998	217,940	112,390
283,384	4,125	217,809	112,406
284,399	3,783	217,601	112,038
285,414	3,967	217,412	112,066
286,428	4,174	217,403	112,201
287,443	4,285	217,370	112,255
288,457	4,382	217,208	112,233
289,472	4,201	217,077	112,022
290,487	3,791	216,672	111,506
291,501	3,688	216,585	111,377
292,516	3,751	216,469	111,353
293,530	3,870	216,267	111,325
294,545	3,883	216,254	111,318
295,560	3,794	216,140	111,185
296,574	4,047	215,964	111,267
297,589	4,098	215,874	111,248
298,603	4,136	215,694	111,173
299,618	4,222	215,479	111,114
300,633	4,214	215,459	111,088
301,647	4,574	215,376	111,295
302,662	4,286	215,246	111,011
303,676	4,229	215,116	110,892
304,691	4,336	214,939	110,868
305,706	4,608	214,673	110,917
306,720	4,439	214,645	110,770
307,735	4,176	214,516	110,506
308,749	3,896	214,261	110,164
309,764	4,336	214,187	110,431
310,779	4,581	214,143	110,574
311,793	4,362	213,893	110,278
312,808	4,272	213,802	110,157
313,822	4,219	213,691	110,052
314,837	4,110	213,572	109,903
315,852	4,150	213,285	109,775
316,866	3,953	213,303	109,634
317,881	4,356	213,218	109,867
318,895	4,456	213,019	109,826
319,910	4,134	212,971	109,562
320,925	3,895	212,611	109,198
321,939	3,827	212,419	109,041
322,954	3,612	212,412	108,875
323,968	4,271	212,308	109,279
324,983	4,127	212,401	109,215
325,997	4,338	212,138	109,220
327,012	4,481	211,901	109,189
328,027	4,188	211,865	108,954
329,041	4,483	211,802	109,120
330,056	4,764	211,568	109,188
331,070	4,206	211,308	108,651
332,085	3,880	211,119	108,314
333,100	4,121	211,002	108,414
334,114	4,237	210,989	108,480
335,129	4,013	210,608	108,117
336,143	3,876	210,495	107,953
337,158	3,842	210,419	107,880
338,173	3,954	210,292	107,884
339,187	3,811	210,293	107,774
340,202	3,885	210,030	107,682
341,216	3,560	210,006	107,433
342,231	3,909	209,799	107,561
343,246	3,840	209,645	107,425
344,260	3,997	209,574	107,488
345,275	4,252	209,491	107,615
346,289	3,985	209,516	107,431
347,304	4,401	209,326	107,614
348,319	4,239	209,162	107,407
349,333	3,833	208,976	107,020
350,348	4,208	208,816	107,189
351,362	4,150	208,773	107,117
352,377	4,488	208,641	107,275
353,392	4,059	208,550	106,920
354,406	4,268	208,369	106,963
355,421	194,434	1345,837	1436,086
356,435	155,155	1484,532	1436,212
