DTS Sentinel unit serial number:	SN410029Multiplexer serial number:	ORYXHardware model number:	OX2-SRSoftware version number:	ORYX F/W v4,00 Oryx Data Collector v3.7.2.0data status	okinstallation	B6 Nyhavnadifferential loss correction	single-endedforward channel	channel 2reverse channel	N/Adate	2023/12/09time	13:10:08forward acquisition time	300,00reverse acquisition time	0,00gamma	499,1914k internal	0,3137k external	0,3137temperature offset calibration	1,0000default loss term (dB/km)	0,3820temperature slope calibration	1,0000multiplexer offset coefficient	1,0000multiplexer slope coefficient	1,0000fibre end	0,00T internal ref (°C)	19,92T ext. ref 1 (°C)	4,73T ext. ref 2 (°C)	4,70length (m)	temperature (°C)	Stokes	anti-Stokes-744,400	-75,405	0,158	0,042
-743,385	-107,334	-0,216	0,035
-742,371	-200,000	0,020	0,090
-741,356	-113,660	-0,195	0,028
-740,342	465,617	-0,030	-0,050
-739,327	-174,544	-0,233	0,005
-738,312	-52,937	0,095	0,032
-737,298	-163,409	-0,368	-0,013
-736,283	23,908	0,065	-0,040
-735,269	2,606	-0,190	0,102
-734,254	789,367	0,004	-0,008
-733,239	-100,384	-0,403	-0,073
-732,225	-153,731	0,063	-0,003
-731,210	144,880	0,059	0,058
-730,196	800,000	-0,027	-0,078
-729,181	-30,386	-0,095	0,040
-728,167	800,000	-0,016	-0,041
-727,152	169,314	0,028	-0,029
-726,137	-39,353	-0,221	0,085
-725,123	82,477	-0,124	-0,100
-724,108	153,357	-0,125	-0,127
-723,094	86,474	-0,081	-0,066
-722,079	800,000	0,058	-0,126
-721,064	-77,239	-0,105	0,027
-720,050	379,428	-0,041	-0,062
-719,035	71,579	-0,076	0,059
-718,021	-67,429	0,048	0,014
-717,006	800,000	-0,027	0,079
-715,991	800,000	-0,053	0,114
-714,977	424,280	0,030	-0,047
-713,962	-82,265	-0,078	-0,019
-712,948	-200,000	0,029	0,175
-711,933	77,636	-0,070	-0,055
-710,918	-69,437	0,135	-0,038
-709,904	-57,202	-0,078	-0,025
-708,889	-200,000	-0,016	0,105
-707,875	-122,131	-0,081	0,010
-706,860	-94,524	-0,090	-0,018
-705,845	-3,475	0,041	0,021
-704,831	103,444	0,029	-0,025
-703,816	-60,642	0,120	-0,037
-702,802	-200,000	0,025	-0,141
-701,787	-200,000	0,032	-0,135
-700,772	-200,000	-0,007	0,081
-699,758	26,527	-0,074	-0,046
-698,743	248,855	-0,097	-0,122
-697,729	-200,000	-0,003	0,078
-696,714	-200,000	-0,020	-0,118
-695,699	184,650	-0,085	0,093
-694,685	-178,598	-0,092	-0,002
-693,670	7,001	-0,145	-0,080
-692,656	-37,480	0,119	0,047
-691,641	646,628	-0,051	0,096
-690,627	-78,888	0,152	0,038
-689,612	140,411	0,045	-0,044
-688,597	36,549	0,027	0,017
-687,583	4,372	-0,077	-0,041
-686,568	174,277	-0,027	0,029
-685,554	38,450	0,081	0,053
-684,539	451,521	-0,072	0,119
-683,524	209,481	0,003	-0,003
-682,510	58,537	-0,051	0,037
-681,495	-131,839	0,100	0,010
-680,481	19,933	-0,107	0,064
-679,466	75,458	-0,076	-0,059
-678,451	381,819	-0,026	0,040
-677,437	-35,272	-0,129	-0,052
-676,422	98,813	0,048	-0,041
-675,408	-200,000	-0,011	-0,074
-674,393	597,788	-0,049	-0,091
-673,378	688,553	-0,021	0,041
-672,364	146,979	0,044	-0,044
-671,349	-119,550	0,094	0,012
-670,335	220,149	0,046	-0,055
-669,320	-200,000	0,020	-0,072
-668,305	800,000	0,030	-0,074
-667,291	392,923	-0,066	0,103
-666,276	-200,000	0,003	-0,089
-665,262	-120,917	-0,150	-0,018
-664,247	-77,869	0,125	-0,032
-663,232	800,000	0,030	0,090
-662,218	177,939	-0,099	0,107
-661,203	139,071	0,049	0,048
-660,189	116,399	-0,090	0,081
-659,174	-200,000	-0,001	-0,027
-658,159	-45,678	0,012	-0,004
-657,145	-200,000	0,043	-0,204
-656,130	234,991	-0,085	0,104
-655,116	-200,000	0,008	0,083
-654,101	175,608	-0,057	0,061
-653,086	-101,226	-0,098	0,018
-652,072	-20,089	-0,143	-0,065
-651,057	-200,000	-0,015	-0,087
-650,043	134,748	-0,058	0,056
-649,028	-152,352	0,066	-0,003
-648,014	800,000	0,040	-0,094
-646,999	-200,000	-0,006	0,055
-645,984	33,072	-0,032	-0,021
-644,970	-35,879	-0,202	-0,081
-643,955	-40,277	-0,051	-0,019
-642,941	800,000	-0,047	-0,097
-641,926	-200,000	-0,018	-0,064
-640,911	616,614	-0,013	-0,024
-639,897	752,107	0,018	0,035
-638,882	652,321	0,038	-0,073
-637,868	-122,688	-0,130	-0,015
-636,853	-200,000	0,002	-0,072
-635,838	394,207	0,035	-0,054
-634,824	31,318	0,007	-0,004
-633,809	237,163	0,065	0,079
-632,795	-200,000	-0,009	-0,145
-631,780	800,000	0,032	-0,076
-630,765	-156,510	0,062	-0,003
-629,751	-120,183	-0,087	0,011
-628,736	800,000	-0,028	0,079
-627,722	30,100	-0,113	-0,071
-626,707	-200,000	-0,007	0,109
-625,692	800,000	0,012	0,037
-624,678	-200,000	0,026	0,167
-623,663	761,223	0,024	0,049
-622,649	-39,209	0,121	-0,047
-621,634	-200,000	0,003	0,036
-620,619	-200,000	0,002	-0,078
-619,605	73,216	-0,063	0,049
-618,590	204,381	-0,103	0,118
-617,576	-200,000	-0,023	0,080
-616,561	234,032	0,037	-0,045
-615,546	643,088	-0,052	-0,099
-614,532	159,227	-0,056	-0,057
-613,517	-141,882	-0,150	0,011
-612,503	328,531	0,033	-0,048
-611,488	800,000	-0,020	-0,048
-610,474	-61,561	-0,080	0,025
-609,459	-13,516	0,112	-0,053
-608,444	-71,752	-0,068	0,019
-607,430	74,120	0,054	-0,042
-606,415	-147,282	-0,016	0,001
-605,401	-41,606	0,074	0,028
-604,386	-160,430	0,156	-0,006
-603,371	-200,000	-0,004	-0,097
-602,357	-200,000	-0,007	-0,056
-601,342	-19,752	0,069	-0,031
-600,328	-111,733	-0,141	-0,021
-599,313	143,456	-0,034	0,034
-598,298	800,000	0,028	0,082
-597,284	284,093	-0,088	-0,117
-596,269	80,313	0,072	-0,057
-595,255	800,000	0,058	0,172
-594,240	-74,038	-0,165	0,044
-593,225	800,000	0,046	-0,138
-592,211	-200,000	0,073	-0,260
-591,196	800,000	0,022	-0,060
-590,182	-69,077	-0,059	0,017
-589,167	-71,007	0,044	-0,012
-588,152	800,000	0,025	-0,065
-587,138	-200,000	0,020	-0,139
-586,123	55,701	0,088	-0,063
-585,109	800,000	-0,075	-0,167
-584,094	-117,695	-0,078	0,010
-583,079	800,000	0,050	-0,111
-582,065	800,000	0,011	0,033
-581,050	-80,233	0,178	-0,044
-580,036	44,681	-0,041	-0,028
-579,021	-55,182	0,050	-0,016
-578,006	-188,596	0,087	-0,001
-576,992	-200,000	-0,002	-0,066
-575,977	-200,000	0,016	-0,071
-574,963	664,477	-0,024	-0,046
-573,948	15,543	-0,087	-0,050
-572,934	-200,000	-0,028	0,124
-571,919	458,285	0,025	0,042
-570,904	800,000	-0,076	-0,200
-569,890	116,933	-0,109	0,099
-568,875	63,272	-0,156	-0,115
-567,861	415,274	0,059	-0,094
-566,846	290,524	0,083	0,111
-565,831	-83,509	-0,146	0,034
-564,817	800,000	0,056	-0,126
-563,802	-200,000	-0,002	-0,103
-562,788	116,937	0,112	-0,101
-561,773	-200,000	-0,040	0,144
-560,758	800,000	0,059	0,145
-559,744	191,991	-0,113	0,125
-558,729	25,270	0,135	0,082
-557,715	-58,741	-0,134	-0,042
-556,700	443,953	-0,038	0,061
-555,685	-200,000	-0,008	-0,037
-554,671	700,812	0,020	-0,039
-553,656	800,000	0,084	0,175
-552,642	-200,000	0,015	0,145
-551,627	-200,000	-0,017	0,066
-550,612	3,862	0,025	0,013
-549,598	-11,758	-0,080	0,038
-548,583	800,000	-0,023	-0,064
-547,569	-200,000	-0,013	-0,064
-546,554	192,168	0,066	-0,073
-545,539	800,000	-0,021	0,060
-544,525	208,555	0,030	-0,034
-543,510	-169,113	-0,190	-0,005
-542,496	-200,000	-0,010	0,080
-541,481	-200,000	-0,028	-0,098
-540,466	-1,417	-0,110	-0,057
-539,452	280,151	-0,083	0,109
-538,437	-110,852	-0,006	-0,001
-537,423	800,000	0,033	0,078
-536,408	373,830	0,078	-0,117
-535,393	-96,035	0,122	0,024
-534,379	-93,848	-0,139	-0,028
-533,364	70,123	-0,053	-0,040
-532,350	-100,571	0,148	-0,027
-531,335	11,100	-0,143	-0,080
-530,321	279,375	0,115	0,152
-529,306	800,000	-0,085	0,201
-528,291	-200,000	-0,007	0,032
-527,277	-88,816	-0,140	-0,030
-526,262	800,000	-0,021	-0,049
-525,248	43,772	-0,043	0,029
-524,233	-117,852	0,193	0,025
-523,218	1,968	0,105	-0,056
-522,204	-11,971	-0,115	-0,055
-521,189	800,000	-0,030	-0,063
-520,175	62,892	0,007	0,005
-519,160	96,986	0,021	-0,018
-518,145	-200,000	-0,004	-0,021
-517,131	-200,000	0,002	0,018
-516,116	-33,135	0,050	-0,020
-515,102	-143,356	-0,141	0,010
-514,087	-200,000	-0,000	0,019
-513,072	424,691	0,015	0,024
-512,058	303,663	0,049	-0,067
-511,043	800,000	0,081	0,171
-510,029	-27,241	0,087	-0,037
-509,014	106,424	-0,011	-0,009
-507,999	130,353	-0,088	-0,083
-506,985	237,504	0,086	-0,105
-505,970	347,868	-0,033	-0,048
-504,956	-51,813	-0,039	-0,013
-503,941	171,842	0,058	0,061
-502,926	199,050	0,072	-0,081
-501,912	800,000	-0,009	0,021
-500,897	-200,000	0,005	-0,087
-499,883	-160,323	-0,115	-0,004
-498,868	-200,000	-0,007	-0,119
-497,853	-67,503	-0,096	-0,028
-496,839	-73,957	-0,147	-0,039
-495,824	-200,000	0,012	0,137
-494,810	-200,000	0,008	0,106
-493,795	686,577	0,022	-0,043
-492,781	-99,444	-0,031	-0,006
-491,766	-66,833	-0,056	-0,016
-490,751	165,135	0,145	-0,150
-489,737	17,282	-0,097	0,057
-488,722	23,248	0,091	-0,055
-487,708	129,695	-0,028	-0,027
-486,693	800,000	0,045	0,117
-485,678	117,100	-0,131	-0,118
-484,664	-200,000	-0,000	-0,114
-483,649	-114,756	0,083	-0,012
-482,635	213,298	0,038	0,045
-481,620	-147,542	0,106	0,006
-480,605	9,534	0,056	-0,031
-479,591	-200,000	0,022	-0,099
-478,576	-88,709	0,034	-0,007
-477,562	-200,000	-0,003	0,033
-476,547	35,617	-0,109	0,070
-475,532	718,490	-0,008	-0,015
-474,518	-92,965	0,134	0,027
-473,503	-81,331	-0,089	-0,021
-472,489	13,991	0,069	0,039
-471,474	800,000	0,077	0,191
-470,459	-200,000	0,007	0,183
-469,445	-91,643	0,040	-0,008
-468,430	-200,000	0,022	0,112
-467,416	-200,000	-0,005	0,020
-466,401	-3,176	-0,034	-0,017
-465,386	-100,643	0,141	0,025
-464,372	800,000	0,034	-0,073
-463,357	800,000	0,034	0,074
-462,343	55,403	-0,103	-0,073
-461,328	-72,875	-0,099	-0,026
-460,313	800,000	0,049	0,112
-459,299	-118,339	0,073	0,009
-458,284	-200,000	0,037	0,130
-457,270	800,000	0,014	0,034
-456,255	78,486	-0,095	-0,075
-455,241	10,623	-0,171	-0,095
-454,226	-110,255	0,057	0,009
-453,211	-55,146	0,227	0,074
-452,197	-200,000	0,007	-0,024
-451,182	-200,000	-0,004	-0,012
-450,168	-200,000	-0,021	-0,089
-449,153	800,000	-0,075	0,157
-448,138	800,000	-0,031	-0,099
-447,124	86,131	0,059	-0,047
-446,109	225,343	-0,092	-0,110
-445,095	800,000	-0,011	0,025
-444,080	303,407	0,075	0,102
-443,065	190,070	0,024	0,027
-442,051	-55,251	-0,053	-0,018
-441,036	-52,938	0,109	-0,037
-440,022	-87,566	-0,084	-0,018
-439,007	449,486	-0,032	-0,052
-437,992	-170,147	0,080	0,002
-436,978	-200,000	0,022	0,132
-435,963	-200,000	0,027	0,108
-434,949	94,277	0,044	-0,036
-433,934	97,917	-0,050	0,042
-432,919	800,000	0,064	-0,130
-431,905	523,274	-0,033	-0,058
-430,890	324,985	0,070	0,098
-429,876	-200,000	0,027	0,251
-428,861	-96,649	0,011	-0,002
-427,846	800,000	-0,000	0,001
-426,832	-59,802	-0,083	-0,026
-425,817	92,271	0,082	-0,068
-424,803	-60,528	0,035	-0,011
-423,788	12,033	0,135	0,076
-422,773	-200,000	0,031	0,122
-421,759	-35,479	0,166	-0,066
-420,744	74,294	0,057	-0,044
-419,730	562,576	-0,075	-0,134
-418,715	364,104	-0,017	0,025
-417,701	413,554	0,043	0,068
-416,686	244,881	-0,076	0,094
-415,671	-58,696	0,145	-0,046
-414,657	-200,000	-0,039	0,196
-413,642	713,292	-0,053	-0,104
-412,628	800,000	-0,021	-0,059
-411,613	-200,000	-0,008	-0,098
-410,598	148,221	0,017	-0,016
-409,584	800,000	0,047	-0,099
-408,569	401,398	-0,050	0,078
-407,555	-200,000	-0,003	-0,117
-406,540	-54,385	0,126	-0,042
-405,525	290,724	-0,055	0,074
-404,511	72,688	-0,101	-0,077
-403,496	26,095	-0,064	-0,039
-402,482	-200,000	-0,000	-0,057
-401,467	-180,623	0,111	-0,002
-400,452	-60,747	0,027	0,008
-399,438	31,369	-0,031	0,020
-398,423	449,940	-0,065	0,105
-397,409	193,228	-0,083	0,092
-396,394	-85,559	0,087	-0,020
-395,379	-33,447	-0,115	-0,046
-394,365	-200,000	0,016	0,051
-393,350	-18,730	-0,036	-0,016
-392,336	78,938	-0,067	0,052
-391,321	483,557	-0,061	-0,102
-390,306	-100,947	-0,078	0,014
-389,292	510,189	0,060	-0,103
-388,277	-49,728	0,008	-0,003
-387,263	-200,000	0,007	0,123
-386,248	-200,000	0,002	0,064
-385,233	-169,669	0,150	-0,004
-384,219	-87,579	0,176	-0,039
-383,204	193,423	-0,039	-0,043
-382,190	109,215	-0,072	-0,063
-381,175	99,157	0,034	-0,029
-380,160	-200,000	-0,015	-0,082
-379,146	-16,894	0,112	-0,052
-378,131	98,838	-0,126	-0,106
-377,117	-200,000	0,013	0,087
-376,102	375,728	0,051	-0,076
-375,088	160,308	-0,041	0,042
-374,073	132,342	0,091	0,086
-373,058	-200,000	0,000	0,010
-372,044	386,718	0,027	-0,041
-371,029	-200,000	-0,006	-0,058
-370,015	-148,785	0,057	0,003
-369,000	35,546	0,137	0,088
-367,985	-60,011	-0,062	-0,019
-366,971	66,981	0,065	0,048
-365,956	768,143	-0,057	0,114
-364,942	-200,000	0,007	0,071
-363,927	237,339	0,102	-0,124
-362,912	127,122	0,064	-0,060
-361,898	-200,000	0,013	-0,104
-360,883	800,000	0,044	-0,092
-359,869	96,380	0,033	-0,027
-358,854	-200,000	-0,044	-0,200
-357,839	-80,253	0,147	0,036
-356,825	-142,417	0,084	0,006
-355,810	-107,246	-0,086	-0,014
-354,796	8,245	-0,091	-0,050
-353,781	82,009	0,039	-0,031
-352,766	20,734	-0,044	-0,026
-351,752	-200,000	-0,027	0,110
-350,737	-200,000	0,001	-0,012
-349,723	-200,000	0,025	0,155
-348,708	-200,000	0,007	-0,046
-347,693	-200,000	0,008	0,136
-346,679	89,955	0,105	0,086
-345,664	29,829	0,037	0,023
-344,650	-200,000	0,018	0,141
-343,635	-200,000	-0,028	0,132
-342,620	800,000	0,033	0,099
-341,606	-31,337	0,228	-0,093
-340,591	298,845	0,032	0,043
-339,577	-57,581	-0,074	0,024
-338,562	-146,301	-0,130	-0,008
-337,548	171,350	-0,022	-0,023
-336,533	800,000	-0,042	-0,098
-335,518	-200,000	0,017	0,086
-334,504	125,369	0,058	0,054
-333,489	8,966	-0,034	-0,019
-332,475	175,951	-0,070	-0,074
-331,460	72,614	-0,189	-0,144
-330,445	26,394	-0,012	0,007
-329,431	49,142	0,103	-0,071
-328,416	800,000	0,070	0,148
-327,402	-73,048	0,078	-0,021
-326,387	-175,548	0,118	-0,002
-325,372	-122,243	-0,088	-0,010
-324,358	191,236	-0,041	0,045
-323,343	-126,407	0,027	-0,003
-322,329	-119,670	0,051	-0,006
-321,314	401,669	-0,009	0,013
-320,299	-200,000	-0,001	0,089
-319,285	433,965	-0,065	-0,104
-318,270	-176,431	-0,116	0,002
-317,256	-13,911	0,115	0,054
-316,241	222,753	-0,100	-0,118
-315,226	137,356	-0,027	0,026
-314,212	-32,850	0,095	0,039
-313,197	383,759	0,067	0,101
-312,183	800,000	0,043	0,113
-311,168	153,584	-0,105	-0,105
-310,153	-141,090	-0,072	0,005
-309,139	-91,007	0,029	0,006
-308,124	199,594	-0,056	0,063
-307,110	70,403	0,106	0,080
-306,095	800,000	-0,049	0,124
-305,080	194,598	-0,066	0,073
-304,066	800,000	-0,047	-0,138
-303,051	-14,219	-0,155	-0,073
-302,037	134,004	-0,056	-0,053
-301,022	-200,000	0,026	-0,089
-300,008	515,186	0,049	-0,083
-298,993	800,000	0,080	0,193
-297,978	274,502	-0,054	0,070
-296,964	172,703	-0,074	-0,078
-295,949	218,818	-0,031	-0,036
-294,935	-200,000	-0,011	-0,072
-293,920	556,244	-0,059	-0,104
-292,905	106,716	0,061	-0,052
-291,891	28,930	0,085	-0,052
-290,876	-200,000	-0,003	-0,026
-289,862	-200,000	0,029	-0,146
-288,847	800,000	0,038	-0,094
-287,832	800,000	-0,032	-0,090
-286,818	-200,000	-0,002	-0,076
-285,803	-139,097	0,099	0,008
-284,789	-200,000	0,020	0,122
-283,774	800,000	-0,070	0,162
-282,759	-9,242	0,080	0,039
-281,745	183,178	-0,081	0,087
-280,730	-13,637	-0,109	-0,051
-279,716	-200,000	-0,021	-0,079
-278,701	800,000	-0,013	0,027
-277,686	-55,962	0,137	-0,044
-276,672	-200,000	-0,008	0,171
-275,657	-127,960	0,200	-0,021
-274,643	-173,076	-0,092	0,002
-273,628	-64,733	-0,113	-0,033
-272,613	-200,000	-0,006	-0,103
-271,599	126,172	-0,045	0,042
-270,584	-200,000	0,005	0,110
-269,570	-24,966	-0,054	-0,023
-268,555	-122,823	0,072	-0,008
-267,540	90,435	-0,112	0,091
-266,526	-134,783	-0,189	-0,016
-265,511	409,894	-0,044	0,068
-264,497	17,617	-0,060	-0,035
-263,482	-144,879	0,094	-0,006
-262,467	800,000	0,021	-0,045
-261,453	800,000	-0,004	0,010
-260,438	-48,022	-0,094	-0,033
-259,424	108,346	-0,057	-0,049
-258,409	-80,033	-0,133	0,032
-257,395	281,403	-0,036	0,047
-256,380	4,470	-0,014	-0,007
-255,365	800,000	0,060	0,171
-254,351	-6,846	-0,109	0,054
-253,336	-200,000	0,003	0,126
-252,322	453,450	0,031	0,050
-251,307	38,324	-0,041	0,026
-250,292	69,208	-0,043	0,032
-249,278	-52,387	0,134	-0,045
-248,263	-165,715	0,151	-0,005
-247,249	800,000	-0,045	0,107
-246,234	-200,000	0,024	0,088
-245,219	747,675	0,027	-0,053
-244,205	32,967	-0,080	-0,050
-243,190	330,713	0,066	0,093
-242,176	383,469	0,109	0,164
-241,161	776,360	-0,060	0,120
-240,146	800,000	-0,040	0,080
-239,132	-124,362	0,102	-0,011
-238,117	-22,942	-0,075	-0,033
-237,103	-200,000	0,027	-0,140
-236,088	-200,000	0,006	-0,060
-235,073	462,465	0,036	-0,058
-234,059	-200,000	0,000	0,067
-233,044	-200,000	0,044	0,147
-232,030	145,254	-0,087	-0,085
-231,015	417,709	-0,056	-0,088
-230,000	800,000	-0,071	0,146
-228,986	-200,000	0,006	-0,062
-227,971	-135,768	-0,105	0,009
-226,957	-125,634	-0,097	0,011
-225,942	-200,000	-0,007	0,157
-224,927	-100,958	0,057	0,010
-223,913	-99,552	0,009	0,002
-222,898	-200,000	0,022	-0,088
-221,884	-82,300	-0,156	0,037
-220,869	-94,576	0,043	0,009
-219,855	-176,105	0,120	0,002
-218,840	-77,830	-0,046	-0,012
-217,825	800,000	0,019	0,044
-216,811	-200,000	0,002	0,028
-215,796	-200,000	-0,015	0,079
-214,782	800,000	0,038	0,079
-213,767	-35,574	-0,049	-0,019
-212,752	-32,430	-0,092	0,037
-211,738	800,000	-0,029	0,060
-210,723	-200,000	-0,001	-0,100
-209,709	229,019	0,065	-0,077
-208,694	253,605	-0,047	-0,059
-207,679	68,618	-0,037	-0,028
-206,665	800,000	-0,041	0,105
-205,650	-45,234	0,135	0,048
-204,636	-121,773	0,089	0,011
-203,621	800,000	0,031	-0,091
-202,606	62,499	-0,023	-0,016
-201,592	-200,000	0,001	-0,119
-200,577	-200,000	0,004	-0,018
-199,563	800,000	0,041	-0,098
-198,548	638,530	-0,027	0,049
-197,533	-200,000	-0,010	0,104
-196,519	40,426	0,103	0,067
-195,504	81,806	-0,101	-0,080
-194,490	-200,000	-0,019	-0,064
-193,475	314,963	-0,042	0,058
-192,460	800,000	-0,071	0,188
-191,446	49,532	0,037	0,025
-190,431	-3,188	0,122	0,062
-189,417	-42,286	0,038	0,014
-188,402	-84,147	0,053	-0,012
-187,387	-100,708	-0,178	0,032
-186,373	-200,000	0,013	-0,046
-185,358	69,449	-0,102	0,077
-184,344	-43,947	0,132	-0,048
-183,329	709,329	0,029	0,056
-182,315	800,000	0,051	-0,161
-181,300	-84,743	0,074	0,017
-180,285	-200,000	-0,001	0,071
-179,271	-200,000	-0,029	-0,198
-178,256	483,776	-0,026	-0,043
-177,242	800,000	0,036	0,095
-176,227	800,000	0,019	0,041
-175,212	800,000	0,063	0,144
-174,198	-56,030	-0,029	-0,009
-173,183	-200,000	-0,004	-0,128
-172,169	-48,719	-0,102	-0,035
-171,154	271,805	-0,032	0,042
-170,139	-200,000	0,022	-0,075
-169,125	135,220	0,071	0,067
-168,110	-174,978	0,093	-0,002
-167,096	-145,877	0,024	-0,002
-166,081	-66,982	0,110	-0,031
-165,066	-94,668	0,050	-0,010
-164,052	-200,000	0,019	0,069
-163,037	-200,000	-0,024	0,218
-162,023	-200,000	-0,005	0,183
-161,008	800,000	-0,020	-0,060
-159,993	-200,000	0,009	-0,061
-158,979	6,285	-0,037	-0,020
-157,964	602,006	-0,061	-0,110
-156,950	800,000	-0,080	-0,164
-155,935	-59,058	0,051	0,016
-154,920	800,000	-0,057	0,170
-153,906	-200,000	0,023	0,144
-152,891	-200,000	-0,006	-0,042
-151,877	61,459	-0,133	-0,096
-150,862	-192,336	0,086	-0,001
-149,847	-75,658	-0,027	0,007
-148,833	800,000	-0,009	-0,027
-147,818	800,000	0,045	-0,137
-146,804	-135,260	-0,012	-0,001
-145,789	-200,000	0,013	0,094
-144,775	-200,000	0,005	0,098
-143,760	5,030	-0,031	-0,017
-142,745	-200,000	-0,005	0,046
-141,731	800,000	0,026	-0,057
-140,716	501,471	-0,088	0,147
-139,702	-200,000	0,018	0,085
-138,687	693,145	0,025	0,048
-137,672	395,474	0,081	0,123
-136,658	-88,665	0,054	0,012
-135,643	-64,667	0,124	0,036
-134,629	458,342	-0,046	-0,075
-133,614	-77,838	-0,104	0,026
-132,599	-54,902	0,178	0,058
-131,585	-200,000	-0,026	0,192
-130,570	-97,385	0,095	-0,018
-129,556	-8,015	-0,106	0,052
-128,541	54,962	-0,105	-0,074
-127,526	343,008	-0,026	0,037
-126,512	-70,425	0,062	0,017
-125,497	-190,484	-0,044	-0,000
-124,483	-97,897	0,149	-0,028
-123,468	412,869	-0,053	0,082
-122,453	75,950	-0,157	-0,120
-121,439	-117,990	-0,131	0,017
-120,424	733,166	-0,038	0,074
-119,410	-68,893	-0,047	0,013
-118,395	-149,036	0,155	-0,009
-117,380	-200,000	-0,008	0,218
-116,366	-200,000	0,019	0,113
-115,351	42,369	0,045	0,029
-114,337	303,289	-0,042	-0,057
-113,322	-200,000	0,002	-0,050
-112,307	-33,132	0,183	-0,073
-111,293	800,000	-0,026	-0,079
-110,278	-85,226	0,063	-0,014
-109,264	-105,693	0,197	0,032
-108,249	50,568	-0,096	-0,065
-107,234	-21,666	-0,077	0,034
-106,220	142,420	0,059	0,057
-105,205	-23,670	0,132	0,057
-104,191	613,234	-0,021	0,038
-103,176	-200,000	-0,031	-0,127
-102,162	-54,993	-0,092	-0,030
-101,147	-200,000	0,020	0,084
-100,132	-200,000	0,015	-0,062
-99,118	800,000	0,046	0,093
-98,103	280,072	0,088	0,114
-97,089	-200,000	0,023	0,146
-96,074	-47,460	0,022	0,008
-95,059	-66,938	-0,140	-0,040
-94,045	177,567	0,061	-0,064
-93,030	-142,529	-0,069	0,005
-92,016	800,000	0,086	-0,187
-91,001	69,163	0,075	0,055
-89,986	71,169	-0,060	0,045
-88,972	91,342	-0,096	0,078
-87,957	-159,936	-0,021	0,001
-86,943	17,699	-0,036	0,021
-85,928	447,425	0,047	0,075
-84,913	-142,381	-0,077	-0,005
-83,899	-200,000	0,016	-0,079
-82,884	106,873	0,112	0,096
-81,870	139,885	-0,071	0,067
-80,855	-200,000	0,016	0,127
-79,840	800,000	-0,060	0,175
-78,826	-122,428	0,066	0,008
-77,811	174,471	0,063	-0,066
-76,797	800,000	-0,014	-0,029
-75,782	626,571	0,029	0,053
-74,767	-200,000	0,016	0,100
-73,753	35,613	0,055	-0,035
-72,738	-106,674	0,110	0,017
-71,724	393,012	0,116	0,175
-70,709	431,627	-0,034	-0,054
-69,694	37,139	-0,031	0,020
-68,680	161,018	-0,121	0,122
-67,665	-52,469	0,076	-0,025
-66,651	-104,139	-0,082	-0,014
-65,636	-200,000	-0,024	-0,090
-64,622	-127,037	-0,049	-0,005
-63,607	-200,000	0,012	0,042
-62,592	-200,000	-0,023	0,085
-61,578	22,003	-0,056	-0,033
-60,563	-200,000	-0,034	0,147
-59,549	708,025	-0,102	0,196
-58,534	-44,484	-1,563	-0,562
-57,519	800,000	-0,615	-1,303
-56,505	-200,000	-0,992	-4,679
-55,490	-99,559	0,624	-0,112
-54,476	800,000	5,210	12,058
-53,461	-200,000	15,148	263,539
-52,446	800,000	700,610	2215,608
-51,432	554,253	1622,690	2830,830
-50,417	119,406	1628,704	1456,315
-49,403	78,185	1283,663	988,668
-48,388	37,255	1023,528	653,607
-47,373	22,355	983,942	579,367
-46,359	21,491	972,969	570,051
-45,344	20,187	968,565	563,190
-44,330	20,172	967,323	562,397
-43,315	20,039	965,597	560,938
-42,300	20,000	964,788	560,318
-41,286	20,014	963,836	559,788
-40,271	20,010	962,754	559,126
-39,257	19,907	962,088	558,383
-38,242	19,964	961,137	557,993
-37,227	19,984	960,268	557,531
-36,213	19,928	959,468	556,863
-35,198	19,929	958,405	556,228
-34,184	19,989	957,645	555,958
-33,169	19,928	956,704	555,194
-32,154	19,983	955,983	554,931
-31,140	19,979	954,953	554,296
-30,125	19,956	954,330	553,841
-29,111	19,978	953,446	553,375
-28,096	19,994	952,794	553,025
-27,082	19,941	952,049	552,401
-26,067	19,961	951,181	551,940
-25,052	19,961	950,510	551,530
-24,038	19,890	949,949	550,953
-23,023	19,909	949,296	550,615
-22,009	19,983	948,559	550,401
-20,994	19,983	947,927	550,014
-19,979	19,918	947,695	549,649
-18,965	19,945	946,873	549,236
-17,950	19,950	946,100	548,782
-16,936	19,889	945,374	548,145
-15,921	19,853	944,896	547,733
-14,906	19,882	944,121	547,352
-13,892	19,832	943,356	546,728
-12,877	19,835	942,701	546,338
-11,863	19,800	942,151	545,884
-10,848	19,828	941,674	545,676
-9,833	19,937	941,347	545,811
-8,819	19,943	940,497	545,315
-7,804	19,822	940,185	544,729
-6,790	19,858	939,340	544,331
-5,775	19,849	938,819	543,979
-4,760	19,842	938,059	543,498
-3,746	19,806	937,695	543,152
-2,731	19,672	936,680	542,117
-1,717	19,623	936,283	541,713
-0,702	19,696	935,194	541,289
0,313	19,508	934,808	541,293
1,327	22,559	933,115	549,855
2,342	31,881	794,038	492,631
3,356	29,532	450,721	276,079
4,371	-0,107	295,914	151,532
5,386	-4,365	277,124	137,846
6,400	-5,500	271,283	133,870
7,415	-6,069	269,070	132,240
8,429	-5,927	267,677	131,674
9,444	-5,668	266,748	131,442
10,459	-6,037	266,065	130,757
11,473	-6,036	265,565	130,501
12,488	-6,122	265,011	130,138
13,502	-6,143	264,411	129,814
14,517	-6,379	263,984	129,377
15,531	-6,443	263,622	129,131
16,546	-6,314	263,122	128,991
17,561	-6,562	262,806	128,601
18,575	-6,415	262,605	128,623
19,590	-6,449	262,108	128,338
20,604	-6,560	261,845	128,098
21,619	-6,446	261,511	128,026
22,634	-6,438	261,213	127,875
23,648	-6,656	260,836	127,484
24,663	-6,564	260,536	127,409
25,677	-6,538	260,309	127,309
26,692	-6,766	260,140	127,012
27,707	-6,623	259,769	126,946
28,721	-6,818	259,530	126,645
29,736	-6,515	259,153	126,719
30,750	-6,651	258,846	126,437
31,765	-6,804	258,735	126,236
32,780	-6,776	258,548	126,158
33,794	-6,562	258,326	126,228
34,809	-6,662	258,026	125,982
35,823	-6,596	257,843	125,940
36,838	-6,701	257,488	125,662
37,853	-6,795	257,183	125,419
38,867	-6,623	257,094	125,516
39,882	-6,756	256,880	125,283
40,896	-6,799	256,614	125,105
41,911	-6,669	256,433	125,120
42,926	-6,721	256,224	124,961
43,940	-7,014	255,990	124,578
44,955	-6,876	255,839	124,614
45,969	-6,924	255,369	124,333
46,984	-7,212	255,213	123,994
47,999	-7,305	254,924	123,761
49,013	-7,291	254,675	123,641
50,028	-7,591	254,503	123,285
51,042	-7,740	254,180	122,987
52,057	-7,740	253,947	122,864
53,071	-7,660	253,749	122,827
54,086	-7,641	253,632	122,775
55,101	-7,609	253,559	122,757
56,115	-7,021	253,279	123,121
57,130	-6,866	253,360	123,284
58,144	-6,363	253,149	123,606
59,159	-6,342	252,901	123,492
60,174	-6,410	252,634	123,292
61,188	-6,513	252,537	123,145
62,203	-6,673	252,185	122,824
63,217	-6,789	252,054	122,649
64,232	-6,687	251,803	122,604
65,247	-6,301	251,700	122,875
66,261	-6,551	251,418	122,512
67,276	-6,791	251,053	122,117
68,290	-7,055	250,775	121,744
69,305	-6,992	250,535	121,671
70,320	-7,181	250,404	121,435
71,334	-6,931	250,403	121,637
72,349	-6,377	250,244	122,023
73,363	-6,369	250,023	121,911
74,378	-6,420	249,771	121,734
75,393	-6,461	249,617	121,613
76,407	-6,602	249,332	121,343
77,422	-6,605	249,228	121,280
78,436	-6,464	249,090	121,321
79,451	-6,618	248,780	121,029
80,466	-6,725	248,592	120,836
81,480	-6,754	248,413	120,713
82,495	-6,918	248,091	120,406
83,509	-6,981	247,860	120,230
84,524	-7,064	247,692	120,068
85,539	-7,141	247,464	119,882
86,553	-7,070	247,368	119,885
87,568	-6,923	247,134	119,885
88,582	-6,976	247,000	119,764
89,597	-6,933	246,646	119,618
90,611	-6,912	246,775	119,687
91,626	-6,658	246,549	119,781
92,641	-6,708	246,370	119,642
93,655	-6,791	246,039	119,401
94,670	-6,866	245,801	119,211
95,684	-7,014	245,873	119,111
96,699	-6,942	245,585	119,021
97,714	-7,023	245,399	118,853
98,728	-7,022	245,149	118,722
99,743	-7,140	244,881	118,483
100,757	-7,221	244,654	118,295
101,772	-7,085	244,407	118,279
102,787	-6,873	244,217	118,353
103,801	-6,685	244,088	118,436
104,816	-6,820	244,140	118,339
105,830	-6,662	244,019	118,401
106,845	-6,481	243,746	118,408
107,860	-6,559	243,603	118,264
108,874	-6,724	243,238	117,939
109,889	-6,775	243,246	117,890
110,903	-6,891	242,975	117,652
111,918	-6,928	242,848	117,549
112,933	-6,603	242,508	117,643
113,947	-6,607	242,507	117,628
114,962	-6,599	242,370	117,558
115,976	-6,650	242,077	117,364
116,991	-6,787	241,886	117,147
118,006	-6,883	241,774	117,004
119,020	-6,867	241,701	116,971
120,035	-6,684	241,546	117,036
121,049	-6,674	241,379	116,954
122,064	-6,589	241,131	116,893
123,079	-6,722	241,023	116,720
124,093	-6,712	240,709	116,566
125,108	-6,958	240,468	116,237
126,122	-7,297	240,327	115,882
127,137	-7,388	240,125	115,700
128,151	-6,988	239,833	115,875
129,166	-7,016	239,771	115,812
130,181	-6,990	239,440	115,663
131,195	-7,005	239,353	115,599
132,210	-6,905	239,178	115,585
133,224	-6,732	239,069	115,663
134,239	-6,692	238,952	115,628
135,254	-6,632	238,729	115,559
136,268	-6,766	238,528	115,342
137,283	-7,041	238,369	115,032
138,297	-7,171	238,119	114,796
139,312	-7,161	237,883	114,681
140,327	-6,748	237,827	114,977
141,341	-6,403	237,956	115,308
142,356	-6,163	237,761	115,398
143,370	-6,148	237,476	115,262
144,385	-6,331	237,450	115,090
145,400	-6,243	237,175	115,018
146,414	-6,160	236,977	114,978
147,429	-6,455	236,859	114,674
148,443	-6,473	236,734	114,588
149,458	-6,354	236,608	114,613
150,473	-6,330	236,325	114,485
151,487	-6,369	236,131	114,349
152,502	-6,291	235,933	114,306
153,516	-6,330	235,894	114,245
154,531	-6,223	235,644	114,200
155,546	-6,343	235,530	114,038
156,560	-6,391	235,348	113,902
157,575	-6,539	235,036	113,622
158,589	-6,237	234,852	113,764
159,604	-6,067	234,658	113,795
160,619	-6,104	234,629	113,742
161,633	-5,997	234,469	113,740
162,648	-6,132	234,445	113,610
163,662	-6,419	234,254	113,280
164,677	-6,419	234,131	113,210
165,692	-6,242	233,896	113,226
166,706	-6,055	233,783	113,310
167,721	-6,153	233,626	113,146
168,735	-6,173	233,409	113,015
169,750	-6,297	233,389	112,897
170,764	-6,240	233,034	112,760
171,779	-6,338	233,029	112,670
172,794	-6,168	232,783	112,675
173,808	-6,225	232,707	112,584
174,823	-6,803	232,227	111,886
175,837	-7,136	232,223	111,613
176,852	-6,321	232,094	112,181
177,867	-6,068	232,029	112,339
178,881	-6,123	231,947	112,246
179,896	-6,089	231,801	112,192
180,910	-6,112	231,490	112,013
181,925	-6,202	231,422	111,900
182,940	-5,974	231,210	111,966
183,954	-5,909	230,965	111,888
184,969	-6,112	231,030	111,751
185,983	-5,921	230,776	111,768
186,998	-6,028	230,715	111,645
188,013	-5,839	230,473	111,665
189,027	-5,889	230,347	111,555
190,042	-5,905	230,154	111,438
191,056	-5,849	229,970	111,384
192,071	-5,809	229,859	111,351
193,086	-5,985	229,699	111,127
194,100	-5,727	229,608	111,273
195,115	-5,766	229,378	111,122
196,129	-6,157	229,286	110,764
197,144	-2,661	230,412	114,020
198,159	1,379	231,451	117,677
199,173	3,550	231,989	119,635
200,188	3,800	231,894	119,770
201,202	3,837	231,674	119,675
202,217	3,974	231,615	119,740
203,232	4,137	231,542	119,818
204,246	4,318	231,534	119,944
205,261	4,355	231,338	119,861
206,275	4,570	231,239	119,966
207,290	4,522	231,109	119,851
208,304	4,687	230,883	119,850
209,319	4,306	230,749	119,475
210,334	4,155	230,487	119,212
211,348	4,220	230,308	119,159
212,363	3,854	230,112	118,764
213,377	3,522	229,871	118,373
214,392	3,639	229,668	118,348
215,407	3,640	229,566	118,286
216,421	3,887	229,379	118,368
217,436	3,677	229,272	118,142
218,450	3,337	229,075	117,768
219,465	3,314	228,929	117,665
220,480	3,232	228,826	117,538
221,494	3,264	228,627	117,450
222,509	3,649	228,542	117,691
223,523	3,454	228,368	117,441
224,538	3,533	228,237	117,425
225,553	3,574	228,082	117,366
226,567	3,649	228,015	117,378
227,582	3,843	227,852	117,432
228,596	4,140	227,830	117,637
229,611	3,692	227,535	117,133
230,626	3,422	227,329	116,811
231,640	3,644	227,203	116,904
232,655	3,729	227,133	116,922
233,669	4,171	227,001	117,180
234,684	4,246	226,910	117,180
235,699	4,285	226,602	117,040
236,713	3,739	226,663	116,647
237,728	3,714	226,243	116,400
238,742	3,526	226,135	116,192
239,757	3,727	226,049	116,290
240,772	3,653	225,794	116,093
241,786	3,499	225,593	115,863
242,801	3,934	225,559	116,164
243,815	4,095	225,505	116,246
244,830	3,984	225,386	116,091
245,844	3,969	225,063	115,903
246,859	3,709	225,016	115,673
247,874	3,938	224,800	115,724
248,888	3,907	224,746	115,662
249,903	3,757	224,584	115,456
250,917	3,634	224,379	115,248
251,932	3,652	224,266	115,193
252,947	3,583	224,092	115,042
253,961	3,559	223,931	114,931
254,976	3,634	223,690	114,853
255,990	3,826	223,717	115,001
257,005	3,969	223,672	115,074
258,020	3,888	223,474	114,901
259,034	3,938	223,444	114,913
260,049	3,932	223,118	114,731
261,063	3,762	223,094	114,581
262,078	4,089	222,743	114,634
263,093	3,985	222,827	114,590
264,107	3,963	222,632	114,463
265,122	3,807	222,498	114,268
266,136	4,140	222,466	114,488
267,151	4,000	222,399	114,340
268,166	3,816	221,946	113,960
269,180	3,417	221,715	113,536
270,195	3,721	221,540	113,661
271,209	3,344	221,468	113,336
272,224	3,743	221,356	113,563
273,239	3,701	221,217	113,451
274,253	3,603	221,098	113,307
275,268	3,327	220,931	113,008
276,282	3,384	220,732	112,938
277,297	3,177	220,728	112,773
278,312	3,297	220,480	112,724
279,326	3,703	220,253	112,897
280,341	3,541	220,182	112,732
281,355	3,574	220,165	112,737
282,370	3,621	219,856	112,603
283,384	3,246	219,731	112,254
284,399	3,365	219,557	112,242
285,414	3,497	219,344	112,220
286,428	3,447	219,342	112,172
287,443	3,815	219,277	112,399
288,457	3,807	219,199	112,342
289,472	3,746	218,993	112,182
290,487	3,304	218,653	111,676
291,501	3,133	218,582	111,505
292,516	3,492	218,426	111,677
293,530	3,237	218,329	111,432
294,545	3,304	218,202	111,406
295,560	3,640	218,031	111,553
296,574	3,807	217,876	111,585
297,589	3,672	217,814	111,445
298,603	3,731	217,615	111,376
299,618	3,697	217,531	111,299
300,633	3,450	217,498	111,093
301,647	3,926	217,427	111,392
302,662	3,944	217,155	111,255
303,676	3,975	217,116	111,248
304,691	4,148	216,936	111,271
305,706	3,778	216,807	110,927
306,720	3,677	216,587	110,732
307,735	3,451	216,319	110,422
308,749	3,536	216,290	110,459
309,764	3,797	216,145	110,562
310,779	4,000	216,190	110,722
311,793	3,901	215,867	110,475
312,808	3,820	215,679	110,311
313,822	3,720	215,746	110,264
314,837	3,567	215,441	109,989
315,852	3,480	215,340	109,865
316,866	3,600	215,174	109,857
317,881	3,929	215,217	110,104
318,895	3,745	214,896	109,798
319,910	3,725	214,774	109,712
320,925	3,187	214,629	109,244
321,939	3,310	214,458	109,235
322,954	3,224	214,287	109,077
323,968	3,653	214,372	109,416
324,983	3,533	214,265	109,267
325,997	4,023	214,108	109,525
327,012	3,811	213,819	109,217
328,027	3,751	213,751	109,130
329,041	3,964	213,799	109,296
330,056	3,913	213,683	109,190
331,070	3,663	213,381	108,849
332,085	3,506	213,175	108,624
333,100	3,528	212,992	108,536
334,114	3,704	212,865	108,587
335,129	3,792	212,659	108,534
336,143	3,750	212,570	108,449
337,158	3,420	212,502	108,172
338,173	3,526	212,350	108,160
339,187	3,479	212,088	107,983
340,202	3,257	211,879	107,711
341,216	3,363	211,806	107,739
342,231	3,398	211,873	107,788
343,246	3,273	211,621	107,563
344,260	3,407	211,470	107,570
345,275	3,493	211,423	107,597
346,289	3,844	211,212	107,726
347,304	3,720	211,262	107,655
348,319	3,645	210,911	107,414
349,333	3,408	210,935	107,250
350,348	3,708	210,773	107,368
351,362	3,962	210,596	107,446
352,377	3,880	210,535	107,348
353,392	3,668	210,368	107,106
354,406	3,675	210,240	107,036
355,421	195,026	1341,323	1426,904
356,435	155,729	1479,188	1426,976
