DTS Sentinel unit serial number:	SN410029Multiplexer serial number:	ORYXHardware model number:	OX2-SRSoftware version number:	ORYX F/W v4,00 Oryx Data Collector v3.7.2.0data status	okinstallation	B6 Nyhavnadifferential loss correction	single-endedforward channel	channel 2reverse channel	N/Adate	2023/12/07time	10:50:08forward acquisition time	300,00reverse acquisition time	0,00gamma	499,1914k internal	0,3199k external	0,3199temperature offset calibration	1,0000default loss term (dB/km)	0,3820temperature slope calibration	1,0000multiplexer offset coefficient	1,0000multiplexer slope coefficient	1,0000fibre end	0,00T internal ref (°C)	7,41T ext. ref 1 (°C)	-6,78T ext. ref 2 (°C)	-6,83length (m)	temperature (°C)	Stokes	anti-Stokes-744,400	33,970	0,128	0,081
-743,385	-45,566	-0,386	-0,138
-742,371	-171,077	0,251	0,006
-741,356	-137,254	-0,257	-0,021
-740,342	-78,034	0,109	0,027
-739,327	-157,485	-0,532	0,023
-738,312	-1,505	0,203	0,104
-737,298	-13,480	-0,326	-0,153
-736,283	220,423	0,047	0,055
-735,269	93,660	-0,270	-0,223
-734,254	-189,253	0,311	0,003
-733,239	121,637	-0,482	-0,437
-732,225	-36,526	0,243	0,095
-731,210	-200,000	-0,001	0,024
-730,196	540,595	0,048	0,084
-729,181	-200,000	-0,009	-0,074
-728,167	-105,231	-0,157	0,026
-727,152	0,610	0,077	0,040
-726,137	-27,323	-0,129	0,054
-725,123	720,918	-0,042	-0,081
-724,108	-142,206	-0,044	-0,003
-723,094	54,479	-0,144	-0,101
-722,079	7,503	0,084	-0,045
-721,064	708,916	-0,033	0,063
-720,050	212,429	-0,054	0,062
-719,035	51,228	0,047	-0,032
-718,021	-112,837	-0,068	-0,010
-717,006	-200,000	-0,010	-0,096
-715,991	-200,000	-0,046	-0,163
-714,977	-200,000	0,001	-0,006
-713,962	55,788	0,111	-0,078
-712,948	-42,769	-0,039	0,014
-711,933	-200,000	0,020	0,072
-710,918	-12,678	0,050	0,023
-709,904	-137,466	-0,160	0,013
-708,889	146,634	0,095	-0,093
-707,875	47,124	-0,150	0,102
-706,860	-177,691	0,167	0,003
-705,845	-200,000	-0,000	-0,022
-704,831	791,019	0,095	0,191
-703,816	-200,000	0,022	0,160
-702,802	624,677	-0,067	-0,123
-701,787	470,555	-0,039	-0,064
-700,772	800,000	0,007	-0,017
-699,758	800,000	-0,042	0,104
-698,743	-200,000	-0,037	0,207
-697,729	-200,000	0,011	0,117
-696,714	-111,677	0,052	-0,008
-695,699	-34,787	-0,165	-0,065
-694,685	-104,830	-0,153	-0,025
-693,670	-173,726	-0,164	0,003
-692,656	163,594	0,095	-0,097
-691,641	-2,071	0,138	0,070
-690,627	48,868	-0,047	-0,032
-689,612	326,383	-0,015	-0,021
-688,597	-200,000	0,036	-0,125
-687,583	-200,000	-0,014	-0,096
-686,568	800,000	0,041	-0,105
-685,554	113,129	-0,080	-0,070
-684,539	121,681	0,060	0,054
-683,524	-200,000	-0,009	-0,132
-682,510	-76,622	-0,086	0,022
-681,495	314,025	-0,097	-0,133
-680,481	101,404	-0,128	-0,108
-679,466	303,622	-0,071	0,095
-678,451	-200,000	0,024	0,131
-677,437	-81,411	0,160	-0,038
-676,422	800,000	-0,043	-0,109
-675,408	80,276	-0,085	-0,067
-674,393	24,404	-0,020	-0,012
-673,378	58,324	-0,017	0,012
-672,364	188,024	-0,148	-0,161
-671,349	348,171	-0,047	-0,067
-670,335	-26,701	0,137	-0,058
-669,320	800,000	-0,067	0,149
-668,305	-8,805	0,123	0,059
-667,291	-200,000	0,012	-0,102
-666,276	-84,962	-0,096	-0,022
-665,262	-80,462	-0,041	0,010
-664,247	-103,836	0,045	-0,008
-663,232	800,000	-0,046	-0,140
-662,218	57,208	0,109	0,077
-661,203	-4,056	-0,017	-0,009
-660,189	62,249	-0,049	-0,035
-659,174	43,006	0,063	-0,042
-658,159	775,761	-0,062	-0,123
-657,145	-200,000	-0,008	0,094
-656,130	800,000	-0,044	0,091
-655,116	258,065	0,109	-0,136
-654,101	-200,000	0,011	-0,088
-653,086	-41,699	-0,052	0,019
-652,072	-47,305	-0,211	-0,074
-651,057	106,978	-0,055	0,047
-650,043	381,115	0,053	-0,079
-649,028	-200,000	0,020	-0,220
-648,014	-200,000	-0,009	-0,033
-646,999	-49,334	0,031	-0,011
-645,984	150,706	-0,059	-0,058
-644,970	76,626	-0,030	-0,023
-643,955	-200,000	0,020	-0,234
-642,941	-48,161	-0,099	-0,034
-641,926	223,376	-0,056	-0,065
-640,911	126,003	-0,051	0,047
-639,897	408,621	0,102	-0,156
-638,882	56,601	0,038	0,027
-637,868	-2,345	0,053	0,027
-636,853	-124,695	0,059	-0,007
-635,838	-200,000	0,013	-0,139
-634,824	800,000	-0,005	-0,014
-633,809	-42,932	0,111	-0,041
-632,795	782,487	-0,052	-0,104
-631,780	-151,843	-0,137	-0,007
-630,765	-200,000	0,000	0,034
-629,751	-162,266	-0,056	-0,002
-628,736	-109,795	-0,030	0,005
-627,722	-6,992	-0,045	0,022
-626,707	319,601	-0,011	0,015
-625,692	-73,365	-0,058	-0,015
-624,678	93,834	0,080	0,066
-623,663	-181,058	-0,149	0,002
-622,649	-119,001	-0,130	0,016
-621,634	-200,000	-0,043	-0,164
-620,619	-200,000	-0,019	0,130
-619,605	-145,747	-0,071	0,004
-618,590	-200,000	0,001	-0,096
-617,576	800,000	0,094	0,198
-616,561	-27,309	-0,102	0,043
-615,546	-200,000	0,008	-0,090
-614,532	106,518	-0,042	-0,036
-613,517	104,424	-0,021	0,018
-612,503	426,297	0,042	0,067
-611,488	112,681	0,068	-0,060
-610,474	-21,740	-0,025	-0,011
-609,459	800,000	-0,016	-0,038
-608,444	128,043	-0,080	0,073
-607,430	-200,000	-0,005	0,038
-606,415	-66,694	0,038	0,011
-605,401	-137,145	-0,033	0,003
-604,386	800,000	-0,020	-0,040
-603,371	69,650	0,091	-0,068
-602,357	-200,000	-0,014	0,088
-601,342	98,293	-0,146	0,121
-600,328	176,367	0,067	0,071
-599,313	-50,935	-0,064	-0,022
-598,298	98,943	-0,068	0,057
-597,284	-200,000	0,012	0,051
-596,269	-76,324	0,092	0,023
-595,255	518,225	-0,021	-0,035
-594,240	160,191	-0,039	-0,040
-593,225	-37,228	0,063	-0,024
-592,211	-85,949	-0,092	0,020
-591,196	79,219	-0,053	-0,041
-590,182	-200,000	0,035	0,000
-589,167	14,084	0,050	-0,028
-588,152	-140,979	-0,052	-0,004
-587,138	-200,000	-0,007	0,051
-586,123	-200,000	0,000	0,083
-585,109	430,383	-0,038	-0,059
-584,094	-151,089	-0,131	0,007
-583,079	98,723	0,087	0,072
-582,065	82,111	0,052	-0,041
-581,050	49,673	-0,091	0,062
-580,036	800,000	0,044	-0,116
-579,021	32,884	-0,052	0,033
-578,006	-200,000	-0,012	0,044
-576,992	-200,000	0,012	-0,147
-575,977	83,358	-0,120	0,094
-574,963	-200,000	0,008	0,102
-573,948	-61,880	-0,098	-0,030
-572,934	-200,000	0,004	0,023
-571,919	800,000	-0,045	-0,137
-570,904	-111,954	0,098	-0,014
-569,890	268,090	-0,089	-0,113
-568,875	569,576	0,005	0,009
-567,861	-19,582	0,066	-0,029
-566,846	-200,000	-0,029	0,102
-565,831	-91,350	-0,103	-0,021
-564,817	109,362	-0,037	-0,032
-563,802	30,339	0,085	-0,052
-562,788	186,935	-0,050	0,054
-561,773	-200,000	-0,018	-0,062
-560,758	-200,000	0,014	0,055
-559,744	55,275	0,049	0,034
-558,729	326,507	-0,018	-0,024
-557,715	-200,000	0,010	0,060
-556,700	-76,735	0,121	-0,030
-555,685	85,928	-0,047	0,037
-554,671	-200,000	-0,003	0,056
-553,656	37,136	0,040	0,026
-552,642	-200,000	0,015	0,087
-551,627	-87,979	0,095	-0,021
-550,612	-78,221	-0,089	-0,022
-549,598	800,000	0,038	0,081
-548,583	-68,822	0,037	0,010
-547,569	-39,213	0,043	-0,016
-546,554	-200,000	-0,008	-0,058
-545,539	800,000	0,034	-0,087
-544,525	-109,249	0,063	0,010
-543,510	-98,990	-0,024	-0,004
-542,496	-93,498	-0,073	0,014
-541,481	678,997	-0,021	-0,040
-540,466	74,410	0,101	0,076
-539,452	-200,000	0,020	0,094
-538,437	-200,000	0,009	-0,057
-537,423	286,156	0,035	0,045
-536,408	648,610	-0,052	-0,096
-535,393	-200,000	-0,020	0,106
-534,379	18,585	-0,038	-0,022
-533,364	-200,000	-0,009	0,035
-532,350	246,974	-0,096	0,117
-531,335	-200,000	-0,021	0,078
-530,321	800,000	0,072	0,204
-529,306	-200,000	-0,010	0,052
-528,291	800,000	-0,053	-0,128
-527,277	105,288	-0,178	-0,152
-526,262	179,404	-0,012	-0,012
-525,248	156,190	0,117	0,116
-524,233	-200,000	-0,005	0,028
-523,218	800,000	0,016	-0,032
-522,204	-47,593	0,088	-0,031
-521,189	-168,170	-0,044	0,001
-520,175	-46,083	-0,092	0,032
-519,160	690,040	-0,018	-0,034
-518,145	193,762	0,097	0,106
-517,131	-65,442	0,156	-0,045
-516,116	-200,000	-0,011	0,050
-515,102	-200,000	-0,005	0,038
-514,087	63,067	0,045	-0,032
-513,072	-135,999	-0,176	-0,015
-512,058	15,190	0,035	0,020
-511,043	-200,000	0,021	0,135
-510,029	147,553	0,089	0,087
-509,014	-200,000	0,104	-0,000
-507,999	118,566	0,076	0,068
-506,985	47,923	-0,120	0,081
-505,970	-200,000	-0,008	0,088
-504,956	640,339	-0,103	-0,190
-503,941	-18,618	-0,091	-0,041
-502,926	800,000	-0,059	0,127
-501,912	-200,000	0,035	0,154
-500,897	57,655	-0,143	0,101
-499,883	788,197	-0,046	0,091
-498,868	-200,000	0,010	0,102
-497,853	-51,437	-0,147	0,049
-496,839	-200,000	-0,015	-0,063
-495,824	-169,870	0,015	0,000
-494,810	-200,000	-0,025	0,145
-493,795	-77,312	-0,047	-0,012
-492,781	-64,131	0,097	0,028
-491,766	29,369	0,060	0,037
-490,751	-200,000	-0,023	-0,079
-489,737	-25,261	0,132	0,056
-488,722	229,083	-0,086	0,102
-487,708	-200,000	0,009	0,109
-486,693	-127,632	-0,100	0,010
-485,678	145,190	-0,099	0,096
-484,664	105,369	0,016	-0,013
-483,649	800,000	-0,037	-0,101
-482,635	74,800	0,018	0,013
-481,620	-200,000	0,011	-0,079
-480,605	418,195	0,042	-0,064
-479,591	95,448	-0,128	-0,105
-478,576	800,000	-0,070	-0,196
-477,562	363,255	0,008	-0,012
-476,547	-149,467	0,067	-0,004
-475,532	200,550	-0,098	0,109
-474,518	31,792	0,087	0,054
-473,503	-158,845	0,092	0,004
-472,489	-200,000	-0,008	-0,049
-471,474	-200,000	-0,008	-0,087
-470,459	-200,000	-0,004	-0,098
-469,445	-200,000	0,017	0,138
-468,430	178,400	-0,024	-0,025
-467,416	75,030	-0,067	-0,051
-466,401	411,746	-0,051	-0,078
-465,386	800,000	0,021	-0,061
-464,372	-68,048	0,065	-0,018
-463,357	-200,000	0,001	-0,181
-462,343	-27,296	-0,062	-0,026
-461,328	-200,000	0,025	0,100
-460,313	-200,000	-0,011	0,078
-459,299	-200,000	0,016	-0,081
-458,284	-200,000	0,007	0,052
-457,270	538,775	-0,011	0,020
-456,255	25,105	0,026	-0,015
-455,241	-200,000	0,015	-0,070
-454,226	-200,000	0,011	0,049
-453,211	-29,396	-0,080	0,033
-452,197	-200,000	0,046	-0,183
-451,182	-45,879	0,030	0,011
-450,168	-176,386	-0,118	-0,002
-449,153	800,000	0,031	0,065
-448,138	-20,106	0,160	-0,071
-447,124	113,877	0,089	0,078
-446,109	-138,424	-0,094	-0,007
-445,095	112,209	0,112	0,097
-444,080	186,508	0,031	0,033
-443,065	-200,000	-0,015	0,110
-442,051	-200,000	-0,010	0,124
-441,036	-160,710	-0,073	-0,003
-440,022	59,699	0,067	0,048
-439,007	794,372	0,030	-0,059
-437,992	-124,876	0,097	0,011
-436,978	158,085	0,055	0,055
-435,963	73,691	-0,130	0,098
-434,949	-200,000	-0,015	-0,061
-433,934	-7,296	-0,155	-0,075
-432,919	275,117	0,092	0,118
-431,905	27,743	0,085	0,051
-430,890	187,002	0,043	-0,046
-429,876	0,763	0,097	-0,050
-428,861	800,000	0,020	-0,044
-427,846	800,000	-0,012	0,025
-426,832	144,075	-0,116	-0,111
-425,817	-200,000	0,006	-0,047
-424,803	-113,306	0,021	-0,003
-423,788	79,500	0,059	-0,045
-422,773	-80,896	0,087	-0,021
-421,759	-200,000	0,015	0,184
-420,744	-200,000	-0,016	0,082
-419,730	800,000	-0,016	0,045
-418,715	42,869	0,135	0,088
-417,701	800,000	-0,043	0,090
-416,686	421,136	-0,041	-0,063
-415,671	7,403	0,076	0,041
-414,657	800,000	-0,015	0,032
-413,642	108,016	0,005	0,004
-412,628	338,073	-0,057	-0,080
-411,613	-153,236	-0,081	0,004
-410,598	800,000	-0,038	-0,080
-409,584	-200,000	0,014	-0,059
-408,569	-200,000	0,010	-0,169
-407,555	88,044	0,074	-0,059
-406,540	800,000	0,061	0,186
-405,525	-200,000	-0,016	-0,061
-404,511	350,921	0,069	-0,098
-403,496	545,515	-0,043	-0,074
-402,482	61,209	-0,061	0,043
-401,467	-200,000	-0,032	0,156
-400,452	-75,314	-0,139	-0,035
-399,438	68,154	0,049	-0,036
-398,423	-38,209	0,065	-0,025
-397,409	-34,824	-0,132	-0,051
-396,394	43,410	0,049	-0,032
-395,379	-57,019	-0,025	-0,008
-394,365	-200,000	-0,033	0,107
-393,350	129,001	-0,075	0,069
-392,336	325,248	-0,060	0,082
-391,321	335,342	0,017	-0,024
-390,306	800,000	0,109	-0,240
-389,292	150,883	-0,048	-0,047
-388,277	-200,000	0,020	-0,069
-387,263	-200,000	-0,011	0,054
-386,248	-200,000	0,001	0,194
-385,233	-40,595	-0,103	0,038
-384,219	182,887	-0,076	0,080
-383,204	-28,446	-0,122	-0,050
-382,190	800,000	-0,055	-0,116
-381,175	-124,366	-0,051	-0,006
-380,160	600,451	0,043	-0,077
-379,146	-200,000	-0,006	0,119
-378,131	-122,712	-0,037	-0,004
-377,117	207,450	-0,059	0,066
-376,102	171,910	0,084	-0,087
-375,088	144,279	0,060	-0,058
-374,073	-85,189	0,107	-0,024
-373,058	296,815	0,109	0,144
-372,044	-200,000	-0,001	0,034
-371,029	-97,127	0,092	0,017
-370,015	66,051	-0,031	-0,023
-369,000	-200,000	-0,003	0,041
-367,985	33,927	-0,111	-0,069
-366,971	-154,845	0,051	0,002
-365,956	155,857	0,051	0,050
-364,942	-200,000	-0,015	0,062
-363,927	-86,685	0,089	0,019
-362,912	-200,000	0,006	-0,154
-361,898	-89,331	-0,085	-0,018
-360,883	-88,962	-0,088	-0,019
-359,869	-59,604	0,092	0,028
-358,854	-56,260	-0,066	0,021
-357,839	196,783	-0,053	-0,058
-356,825	39,637	0,104	0,067
-355,810	-200,000	-0,013	0,050
-354,796	-120,311	0,061	-0,007
-353,781	-148,690	-0,142	0,008
-352,766	-200,000	-0,005	-0,028
-351,752	3,137	0,048	0,025
-350,737	-69,848	0,087	-0,024
-349,723	800,000	0,025	0,059
-348,708	23,706	0,038	0,022
-347,693	800,000	0,029	0,064
-346,679	-87,651	-0,081	-0,017
-345,664	44,075	-0,072	0,047
-344,650	-142,037	0,145	0,010
-343,635	47,673	0,106	-0,070
-342,620	-200,000	0,204	0,000
-341,606	17,688	-0,133	0,076
-340,591	20,763	0,138	-0,080
-339,577	700,749	-0,023	-0,044
-338,562	-200,000	0,016	0,062
-337,548	-200,000	0,016	0,056
-336,533	106,381	-0,014	-0,012
-335,518	-90,001	-0,137	0,028
-334,504	33,794	-0,054	0,033
-333,489	-200,000	-0,012	0,109
-332,475	637,456	0,012	-0,022
-331,460	-63,031	-0,112	-0,033
-330,445	82,227	0,030	0,023
-329,431	-200,000	0,075	0,000
-328,416	-125,647	0,165	-0,018
-327,402	95,941	-0,057	0,046
-326,387	82,019	0,104	0,081
-325,372	240,196	-0,023	-0,027
-324,358	-134,267	-0,134	-0,012
-323,343	83,413	0,116	-0,090
-322,329	-200,000	0,004	0,090
-321,314	-164,235	0,015	0,000
-320,299	10,818	0,059	-0,032
-319,285	120,940	0,019	-0,017
-318,270	-58,868	0,049	0,015
-317,256	800,000	-0,027	0,060
-316,241	-97,600	-0,199	0,037
-315,226	-200,000	-0,003	0,043
-314,212	27,436	0,079	0,047
-313,197	367,931	0,014	0,021
-312,183	-119,440	0,190	-0,023
-311,168	258,538	-0,098	0,121
-310,153	91,474	0,016	0,013
-309,139	308,634	0,064	0,086
-308,124	79,228	0,044	0,033
-307,110	-200,000	0,010	0,082
-306,095	-200,000	-0,010	0,202
-305,080	-131,955	-0,107	0,010
-304,066	103,436	0,222	-0,186
-303,051	-200,000	0,015	0,102
-302,037	-200,000	0,001	-0,075
-301,022	137,903	0,083	-0,078
-300,008	-121,542	-0,088	-0,010
-298,993	706,785	-0,025	-0,048
-297,978	65,736	0,055	-0,040
-296,964	131,344	0,032	-0,030
-295,949	243,276	-0,066	-0,080
-294,935	-109,638	0,096	-0,014
-293,920	-28,441	0,100	0,041
-292,905	-30,856	0,126	-0,051
-291,891	455,337	0,010	-0,016
-290,876	-33,277	0,093	-0,036
-289,862	410,197	-0,050	0,076
-288,847	800,000	-0,060	-0,120
-287,832	-200,000	-0,005	-0,061
-286,818	800,000	-0,043	0,099
-285,803	800,000	-0,042	0,098
-284,789	548,656	0,033	-0,058
-283,774	800,000	0,025	0,055
-282,759	-200,000	0,002	-0,008
-281,745	800,000	-0,026	-0,062
-280,730	-200,000	-0,020	-0,097
-279,716	-200,000	0,022	-0,107
-278,701	-81,534	0,046	-0,011
-277,686	-28,009	0,117	0,048
-276,672	-142,729	-0,150	0,010
-275,657	800,000	0,037	0,098
-274,643	-200,000	0,020	0,173
-273,628	-200,000	0,042	-0,195
-272,613	-200,000	-0,013	0,079
-271,599	-24,877	0,060	-0,025
-270,584	-200,000	0,051	-0,191
-269,570	-7,121	-0,011	0,005
-268,555	800,000	0,025	0,071
-267,540	-0,780	-0,113	-0,057
-266,526	800,000	0,040	-0,086
-265,511	482,267	0,054	-0,089
-264,497	800,000	-0,008	0,026
-263,482	20,771	-0,032	-0,018
-262,467	-167,470	0,141	0,004
-261,453	-73,370	-0,097	0,025
-260,438	-67,299	-0,169	-0,047
-259,424	-200,000	-0,020	-0,114
-258,409	800,000	-0,053	-0,111
-257,395	297,917	-0,047	0,062
-256,380	5,910	0,075	-0,039
-255,365	-179,761	0,037	0,001
-254,351	-200,000	-0,005	-0,074
-253,336	-15,036	0,049	0,022
-252,322	724,253	-0,087	0,166
-251,307	-152,257	0,087	-0,004
-250,292	-200,000	0,016	0,060
-249,278	-50,174	0,031	-0,011
-248,263	50,905	0,147	-0,099
-247,249	800,000	0,092	0,197
-246,234	183,900	0,070	-0,073
-245,219	561,670	-0,051	-0,089
-244,205	188,084	-0,170	-0,181
-243,190	-74,730	0,096	-0,024
-242,176	18,355	0,099	0,056
-241,161	78,304	0,070	-0,054
-240,146	664,769	0,066	-0,123
-239,132	10,481	-0,042	0,023
-238,117	800,000	-0,032	-0,080
-237,103	-138,979	-0,057	0,004
-236,088	98,564	-0,031	-0,026
-235,073	400,128	0,035	-0,053
-234,059	-82,617	0,043	0,010
-233,044	-8,747	0,029	0,014
-232,030	122,328	0,042	-0,037
-231,015	530,094	-0,076	-0,128
-230,000	175,255	-0,042	0,043
-228,986	800,000	-0,059	-0,163
-227,971	-74,745	0,138	-0,035
-226,957	-53,263	0,041	0,013
-225,942	121,857	0,052	0,046
-224,927	207,684	-0,127	-0,142
-223,913	-161,662	0,210	-0,008
-222,898	-193,764	-0,054	-0,000
-221,884	93,840	0,118	-0,095
-220,869	198,205	0,058	0,064
-219,855	-175,065	0,070	-0,001
-218,840	-16,519	-0,078	-0,035
-217,825	503,959	0,079	0,131
-216,811	-121,805	0,113	-0,013
-215,796	800,000	0,025	0,062
-214,782	4,458	-0,088	-0,046
-213,767	-200,000	-0,007	-0,065
-212,752	-200,000	-0,033	-0,123
-211,738	800,000	0,067	0,202
-210,723	800,000	-0,015	0,031
-209,709	59,331	-0,063	-0,044
-208,694	-0,992	-0,132	-0,066
-207,679	3,795	-0,025	0,013
-206,665	-200,000	0,017	-0,076
-205,650	-200,000	0,011	0,175
-204,636	-47,751	-0,054	-0,019
-203,621	70,891	0,146	0,107
-202,606	-78,642	0,036	0,009
-201,592	115,582	-0,151	-0,132
-200,577	-41,248	0,181	0,066
-199,563	-9,783	0,082	0,039
-198,548	-43,679	0,182	-0,065
-197,533	-85,177	0,067	-0,015
-196,519	-98,184	-0,062	-0,011
-195,504	800,000	-0,034	-0,095
-194,490	-31,225	0,053	-0,021
-193,475	-116,652	-0,137	-0,018
-192,460	-200,000	0,019	0,162
-191,446	-5,349	-0,040	-0,019
-190,431	-200,000	-0,019	0,089
-189,417	52,856	-0,054	-0,037
-188,402	-200,000	0,002	-0,152
-187,387	-200,000	0,012	-0,078
-186,373	243,055	0,020	0,024
-185,358	-100,467	-0,166	0,029
-184,344	243,708	0,047	0,056
-183,329	-200,000	-0,017	0,092
-182,315	643,591	0,052	0,095
-181,300	101,712	0,071	0,059
-180,285	25,229	-0,085	-0,050
-179,271	-200,000	0,035	0,207
-178,256	-200,000	0,004	0,082
-177,242	-200,000	0,013	-0,073
-176,227	-140,652	0,070	0,005
-175,212	70,382	-0,116	0,085
-174,198	54,485	0,082	0,056
-173,183	186,949	-0,044	-0,047
-172,169	5,214	-0,065	-0,034
-171,154	-9,606	-0,073	0,035
-170,139	-50,750	0,019	0,006
-169,125	131,946	0,025	-0,023
-168,110	-200,000	-0,020	-0,111
-167,096	-71,575	-0,117	-0,031
-166,081	-200,000	-0,000	-0,082
-165,066	177,318	-0,106	-0,110
-164,052	-66,635	-0,124	0,035
-163,037	65,242	0,063	-0,045
-162,023	-200,000	-0,004	0,071
-161,008	-82,667	-0,063	-0,014
-159,993	210,683	-0,106	0,118
-158,979	234,791	-0,082	-0,096
-157,964	-11,287	-0,029	-0,013
-156,950	800,000	0,040	-0,082
-155,935	800,000	0,024	-0,066
-154,920	376,338	0,037	0,054
-153,906	441,761	0,053	-0,082
-152,891	800,000	-0,016	-0,038
-151,877	73,952	-0,055	-0,041
-150,862	-73,146	-0,126	-0,033
-149,847	-94,558	0,216	-0,041
-148,833	99,425	-0,164	0,135
-147,818	57,843	0,123	0,085
-146,804	-18,148	-0,013	0,006
-145,789	-138,015	0,071	0,006
-144,775	-120,589	0,068	-0,008
-143,760	360,949	-0,063	0,090
-142,745	-74,203	0,058	0,015
-141,731	77,596	-0,071	0,053
-140,716	-80,411	0,068	-0,016
-139,702	691,544	0,013	0,025
-138,687	168,851	-0,063	0,064
-137,672	-31,333	0,135	0,054
-136,658	-108,811	-0,129	0,019
-135,643	-200,000	-0,006	-0,051
-134,629	800,000	-0,033	0,074
-133,614	800,000	0,029	0,071
-132,599	14,572	-0,052	0,029
-131,585	258,090	0,115	0,141
-130,570	750,263	-0,039	-0,076
-129,556	-153,404	0,111	-0,005
-128,541	130,171	-0,046	-0,042
-127,526	86,880	0,085	0,067
-126,512	-200,000	0,056	0,210
-125,497	800,000	0,025	-0,071
-124,483	-200,000	0,038	0,139
-123,468	-89,787	-0,075	-0,015
-122,453	45,796	-0,055	-0,036
-121,439	-200,000	-0,044	-0,190
-120,424	800,000	0,029	-0,080
-119,410	-31,923	0,055	0,022
-118,395	50,963	0,033	-0,022
-117,380	38,900	0,120	0,076
-116,366	-63,718	-0,041	-0,012
-115,351	-200,000	-0,020	0,173
-114,337	-72,502	0,063	0,016
-113,322	-112,434	-0,024	0,003
-112,307	800,000	0,041	-0,101
-111,293	-200,000	0,023	0,142
-110,278	-106,595	-0,133	0,021
-109,264	12,877	-0,101	-0,055
-108,249	-43,852	-0,046	0,016
-107,234	800,000	-0,056	-0,152
-106,220	-200,000	0,027	0,106
-105,205	32,497	0,085	0,052
-104,191	-200,000	0,024	0,145
-103,176	386,550	-0,050	0,073
-102,162	436,280	-0,031	-0,049
-101,147	-200,000	0,033	-0,160
-100,132	-80,180	-0,166	-0,039
-99,118	800,000	0,013	-0,032
-98,103	632,135	0,070	-0,126
-97,089	639,571	-0,048	0,088
-96,074	-122,925	-0,049	0,006
-95,059	-37,342	0,094	-0,035
-94,045	143,051	-0,109	0,103
-93,030	59,431	-0,044	-0,031
-92,016	332,995	0,068	-0,093
-91,001	-200,000	-0,004	-0,088
-89,986	486,259	-0,026	0,042
-88,972	-132,418	0,063	-0,006
-87,957	183,532	-0,018	-0,019
-86,943	189,065	0,086	-0,091
-85,928	-53,195	-0,133	-0,043
-84,913	-200,000	-0,023	0,129
-83,899	-34,051	-0,145	-0,056
-82,884	800,000	0,023	-0,067
-81,870	752,678	-0,066	0,126
-80,855	-200,000	-0,037	0,121
-79,840	654,513	0,030	-0,055
-78,826	-116,761	0,066	-0,009
-77,811	-87,125	0,046	-0,010
-76,797	-90,441	0,129	-0,026
-75,782	-43,157	-0,130	0,046
-74,767	-105,834	0,200	0,032
-73,753	-17,045	0,146	0,065
-72,738	228,004	0,058	0,067
-71,724	-44,239	-0,049	0,017
-70,709	-114,807	0,127	0,017
-69,694	-200,000	-0,037	-0,173
-68,680	-200,000	0,022	0,099
-67,665	-50,911	-0,122	-0,041
-66,651	-10,646	0,080	0,037
-65,636	800,000	-0,043	0,097
-64,622	-200,000	-0,009	-0,115
-63,607	171,854	-0,047	-0,048
-62,592	-200,000	0,011	0,057
-61,578	111,592	0,088	0,075
-60,563	-200,000	0,006	-0,078
-59,549	-82,150	0,114	0,026
-58,534	93,067	-2,836	-2,269
-57,519	-134,613	0,576	-0,049
-56,505	800,000	-1,841	-5,628
-55,490	377,916	1,062	1,542
-54,476	800,000	5,482	12,002
-53,461	-200,000	22,516	351,557
-52,446	800,000	761,037	2283,736
-51,432	519,229	1643,108	2736,438
-50,417	65,407	1649,907	1180,892
-49,403	14,239	1568,730	863,514
-48,388	9,041	1521,634	811,183
-47,373	18,658	1515,846	856,576
-46,359	12,622	1504,102	819,744
-45,344	7,629	1500,186	792,571
-44,330	7,519	1498,241	790,963
-43,315	7,433	1496,553	789,608
-42,300	7,452	1494,702	788,696
-41,286	7,453	1493,014	787,780
-40,271	7,424	1491,474	786,791
-39,257	7,470	1490,148	786,290
-38,242	7,441	1488,613	785,306
-37,227	7,437	1487,548	784,693
-36,213	7,387	1486,220	783,709
-35,198	7,437	1484,492	783,017
-34,184	7,417	1483,553	782,390
-33,169	7,417	1482,089	781,590
-32,154	7,475	1480,368	780,937
-31,140	7,454	1478,971	780,066
-30,125	7,498	1477,780	779,625
-29,111	7,465	1476,738	778,880
-28,096	7,448	1475,646	778,187
-27,082	7,459	1474,619	777,673
-26,067	7,454	1473,241	776,890
-25,052	7,434	1472,200	776,209
-24,038	7,408	1471,128	775,487
-23,023	7,400	1470,364	775,013
-22,009	7,457	1469,076	774,583
-20,994	7,467	1468,249	774,166
-19,979	7,442	1467,084	773,398
-18,965	7,444	1466,258	772,941
-17,950	7,445	1465,142	772,328
-16,936	7,447	1464,185	771,805
-15,921	7,396	1463,130	770,969
-14,906	7,336	1462,090	770,095
-13,892	7,309	1461,085	769,402
-12,877	7,275	1460,405	768,851
-11,863	7,297	1459,064	768,221
-10,848	7,330	1458,318	767,957
-9,833	7,414	1457,157	767,724
-8,819	7,383	1456,361	767,124
-7,804	7,343	1455,261	766,321
-6,790	7,356	1454,823	766,121
-5,775	7,416	1453,728	765,807
-4,760	7,401	1452,743	765,183
-3,746	7,334	1451,758	764,312
-2,731	7,222	1450,721	763,191
-1,717	7,166	1449,468	762,232
-0,702	7,186	1448,784	761,934
0,313	7,036	1447,462	761,667
1,327	10,697	1444,474	777,692
2,342	19,688	1203,384	683,775
3,356	15,285	673,298	372,716
4,371	-12,585	456,602	210,027
5,386	-15,736	429,748	193,075
6,400	-16,922	421,148	187,504
7,415	-16,299	417,642	186,807
8,429	-17,773	414,870	183,481
9,444	-17,738	413,435	182,879
10,459	-17,754	412,305	182,341
11,473	-17,838	411,566	181,881
12,488	-18,077	410,522	181,072
13,502	-18,147	409,937	180,700
14,517	-18,215	409,044	180,196
15,531	-18,197	408,329	179,890
16,546	-18,270	407,727	179,508
17,561	-18,240	407,134	179,271
18,575	-18,141	406,505	179,115
19,590	-18,208	405,987	178,779
20,604	-18,199	405,590	178,601
21,619	-18,233	405,093	178,320
22,634	-18,325	404,620	177,970
23,648	-18,282	404,020	177,748
24,663	-18,157	403,444	177,649
25,677	-18,339	403,223	177,288
26,692	-18,233	402,807	177,234
27,707	-18,138	402,421	177,178
28,721	-18,223	401,969	176,847
29,736	-18,355	401,561	176,473
30,750	-18,271	401,121	176,378
31,765	-18,281	400,690	176,158
32,780	-18,310	400,249	175,910
33,794	-18,251	400,005	175,866
34,809	-18,222	399,544	175,688
35,823	-18,311	399,173	175,389
36,838	-18,176	398,687	175,342
37,853	-18,383	398,502	174,966
38,867	-18,354	397,999	174,768
39,882	-18,287	397,503	174,625
40,896	-18,370	397,532	174,510
41,911	-18,240	396,889	174,386
42,926	-18,213	396,445	174,212
43,940	-18,325	396,267	173,969
44,955	-18,291	395,814	173,800
45,969	-18,345	395,464	173,559
46,984	-18,363	395,187	173,398
47,999	-18,366	394,898	173,252
49,013	-18,299	394,527	173,162
50,028	-18,399	394,178	172,861
51,042	-18,341	393,787	172,752
52,057	-18,314	393,257	172,539
53,071	-18,322	393,166	172,473
54,086	-18,274	392,766	172,345
55,101	-18,282	392,495	172,200
56,115	-18,139	392,037	172,174
57,130	-18,025	391,538	172,089
58,144	-18,153	391,273	171,788
59,159	-18,215	391,023	171,582
60,174	-18,179	390,625	171,439
61,188	-18,141	390,247	171,308
62,203	-18,253	389,971	171,024
63,217	-18,223	389,681	170,922
64,232	-18,137	389,272	170,839
65,247	-18,087	388,999	170,771
66,261	-18,194	388,507	170,400
67,276	-18,160	388,027	170,218
68,290	-18,173	387,680	170,033
69,305	-18,159	387,667	170,030
70,320	-18,255	387,076	169,631
71,334	-18,113	386,959	169,750
72,349	-18,093	386,519	169,567
73,363	-18,180	386,425	169,398
74,378	-18,114	385,853	169,218
75,393	-18,108	385,567	169,085
76,407	-18,033	385,265	169,035
77,422	-18,057	384,821	168,794
78,436	-18,232	384,615	168,462
79,451	-18,117	384,198	168,413
80,466	-18,167	383,833	168,173
81,480	-18,168	383,373	167,956
82,495	-18,211	383,299	167,854
83,509	-18,231	383,031	167,695
84,524	-18,146	382,594	167,599
85,539	-18,215	382,382	167,401
86,553	-18,112	381,894	167,305
87,568	-18,244	381,641	167,010
88,582	-18,309	381,315	166,770
89,597	-18,264	381,150	166,740
90,611	-18,186	380,694	166,626
91,626	-18,062	380,363	166,623
92,641	-18,067	380,261	166,558
93,655	-18,122	379,882	166,307
94,670	-18,143	379,584	166,135
95,684	-18,139	379,148	165,935
96,699	-18,082	378,907	165,886
97,714	-18,155	378,656	165,670
98,728	-18,267	378,387	165,395
99,743	-18,124	378,104	165,437
100,757	-18,161	377,678	165,189
101,772	-18,242	377,355	164,931
102,787	-17,954	376,865	165,066
103,801	-18,001	376,672	164,907
104,816	-18,120	376,603	164,713
105,830	-18,009	376,134	164,633
106,845	-18,012	375,923	164,522
107,860	-18,014	375,609	164,368
108,874	-18,165	375,341	164,046
109,889	-17,972	374,918	164,089
110,903	-18,109	374,744	163,826
111,918	-18,061	374,696	163,850
112,933	-18,118	374,216	163,554
113,947	-17,943	373,900	163,621
114,962	-17,956	373,558	163,441
115,976	-17,948	373,194	163,277
116,991	-18,127	373,037	162,970
118,006	-17,949	372,737	163,046
119,020	-18,062	372,452	162,765
120,035	-18,041	372,368	162,741
121,049	-17,924	371,873	162,656
122,064	-17,917	371,636	162,546
123,079	-17,991	371,283	162,285
124,093	-17,974	370,755	162,062
125,108	-18,030	370,595	161,907
126,122	-18,173	370,388	161,625
127,137	-18,077	370,079	161,595
128,151	-18,101	369,788	161,423
129,166	-18,032	369,519	161,377
130,181	-18,031	369,112	161,186
131,195	-18,116	369,019	161,026
132,210	-18,019	368,661	160,975
133,224	-18,099	368,285	160,698
134,239	-17,944	368,060	160,776
135,254	-17,979	367,887	160,643
136,268	-17,911	367,446	160,521
137,283	-18,017	367,069	160,211
138,297	-18,056	366,858	160,057
139,312	-17,961	366,415	159,967
140,327	-18,036	366,312	159,815
141,341	-17,989	366,007	159,725
142,356	-17,918	365,894	159,749
143,370	-17,889	365,527	159,610
144,385	-17,839	365,101	159,471
145,400	-17,989	364,983	159,221
146,414	-17,824	364,614	159,247
147,429	-17,920	364,387	159,017
148,443	-17,900	364,097	158,900
149,458	-17,914	363,759	158,721
150,473	-17,916	363,700	158,680
151,487	-17,945	363,321	158,465
152,502	-17,998	363,084	158,284
153,516	-17,989	362,685	158,106
154,531	-17,943	362,615	158,117
155,546	-17,937	362,250	157,951
156,560	-17,902	361,915	157,834
157,575	-17,949	361,685	157,662
158,589	-17,846	361,443	157,667
159,604	-17,831	361,186	157,558
160,619	-17,847	360,849	157,379
161,633	-17,967	360,642	157,130
162,648	-17,691	360,286	157,293
163,662	-17,924	360,185	156,954
164,677	-17,974	360,042	156,817
165,692	-17,819	359,653	156,821
166,706	-17,987	359,626	156,593
167,721	-17,906	359,308	156,537
168,735	-17,884	359,024	156,427
169,750	-18,001	358,901	156,218
170,764	-17,658	358,589	156,480
171,779	-17,873	358,230	156,052
172,794	-17,777	358,023	156,063
173,808	-17,902	357,797	155,800
174,823	-17,903	357,493	155,654
175,837	-18,089	357,197	155,289
176,852	-17,930	357,197	155,464
177,867	-17,792	356,751	155,420
178,881	-17,854	356,527	155,235
179,896	-17,911	356,239	155,029
180,910	-17,839	355,951	154,975
181,925	-17,824	355,742	154,888
182,940	-17,858	355,513	154,734
183,954	-17,728	355,254	154,762
184,969	-17,933	354,989	154,390
185,983	-17,768	354,845	154,508
186,998	-17,847	354,560	154,277
188,013	-17,577	354,210	154,430
189,027	-17,767	353,848	154,034
190,042	-17,771	353,846	154,014
191,056	-17,762	353,501	153,862
192,071	-17,735	353,318	153,800
193,086	-17,751	353,042	153,647
194,100	-17,419	352,997	154,004
195,115	-16,778	352,899	154,701
196,129	-15,546	353,743	156,508
197,144	-11,114	355,746	162,624
198,159	-7,468	357,376	167,682
199,173	-4,671	358,514	171,525
200,188	-4,043	358,585	172,290
201,202	-3,704	358,488	172,630
202,217	-3,498	358,357	172,795
203,232	-3,284	358,197	172,957
204,246	-3,179	357,939	172,941
205,261	-3,015	357,688	172,999
206,275	-3,043	357,555	172,885
207,290	-3,014	357,578	172,915
208,304	-2,948	357,091	172,743
209,319	-2,861	356,813	172,696
210,334	-2,764	356,486	172,636
211,348	-2,758	356,318	172,547
212,363	-2,739	356,090	172,443
213,377	-2,589	356,079	172,599
214,392	-2,769	355,807	172,240
215,407	-2,660	355,571	172,239
216,421	-2,759	355,408	172,028
217,436	-2,592	354,900	171,963
218,450	-2,700	354,849	171,796
219,465	-2,640	354,534	171,699
220,480	-2,710	354,468	171,570
221,494	-2,656	354,228	171,501
222,509	-2,787	353,958	171,202
223,523	-2,480	353,657	171,399
224,538	-2,594	353,463	171,157
225,553	-2,556	353,174	171,047
226,567	-2,688	352,911	170,750
227,582	-2,740	352,876	170,658
228,596	-2,706	352,611	170,553
229,611	-2,705	352,316	170,396
230,626	-2,675	352,136	170,329
231,640	-2,587	351,717	170,213
232,655	-2,695	351,646	170,038
233,669	-2,694	351,349	169,881
234,684	-2,624	351,085	169,819
235,699	-2,701	350,992	169,669
236,713	-2,716	350,701	169,496
237,728	-2,671	350,405	169,391
238,742	-2,558	350,240	169,427
239,757	-2,644	350,036	169,213
240,772	-2,826	349,794	168,871
241,786	-2,715	349,539	168,861
242,801	-2,707	349,490	168,832
243,815	-2,618	349,176	168,767
244,830	-2,661	348,886	168,563
245,844	-2,569	348,568	168,500
246,859	-2,642	348,432	168,335
247,874	-2,675	348,136	168,140
248,888	-2,735	347,912	167,947
249,903	-2,695	347,789	167,919
250,917	-2,598	347,470	167,861
251,932	-2,579	347,287	167,779
252,947	-2,536	346,968	167,659
253,961	-2,553	346,801	167,544
254,976	-2,480	346,509	167,471
255,990	-2,690	346,505	167,215
257,005	-2,558	346,090	167,150
258,020	-2,466	345,985	167,189
259,034	-2,494	345,689	166,999
260,049	-2,573	345,615	166,859
261,063	-2,539	345,306	166,734
262,078	-2,567	344,990	166,535
263,093	-2,715	344,901	166,309
264,107	-2,419	344,533	166,452
265,122	-2,475	344,325	166,273
266,136	-2,429	344,110	166,206
267,151	-2,612	343,937	165,901
268,166	-2,467	343,725	165,948
269,180	-2,517	343,404	165,722
270,195	-2,504	343,253	165,648
271,209	-2,435	342,868	165,527
272,224	-2,606	342,691	165,234
273,239	-2,480	342,422	165,231
274,253	-2,491	342,313	165,150
275,268	-2,554	342,135	164,979
276,282	-2,532	341,802	164,828
277,297	-2,512	341,614	164,745
278,312	-2,572	341,438	164,579
279,326	-2,470	341,211	164,569
280,341	-2,437	341,078	164,528
281,355	-2,365	340,820	164,469
282,370	-2,367	340,555	164,325
283,384	-2,490	340,418	164,106
284,399	-2,481	340,038	163,917
285,414	-2,404	339,988	163,965
286,428	-2,240	339,709	163,999
287,443	-2,304	339,370	163,749
288,457	-2,375	339,249	163,597
289,472	-2,357	339,135	163,547
290,487	-2,311	338,769	163,408
291,501	-2,263	338,476	163,305
292,516	-2,299	338,265	163,148
293,530	-2,495	338,218	162,894
294,545	-2,261	337,947	163,009
295,560	-2,240	338,020	163,052
296,574	-2,149	337,511	162,893
297,589	-2,256	337,338	162,677
298,603	-2,278	337,118	162,532
299,618	-2,348	336,895	162,333
300,633	-2,264	336,680	162,307
301,647	-2,186	336,444	162,265
302,662	-2,107	336,182	162,211
303,676	-2,358	336,100	161,881
304,691	-2,258	335,814	161,839
305,706	-2,352	335,575	161,606
306,720	-2,220	335,486	161,694
307,735	-2,140	335,124	161,593
308,749	-2,420	334,985	161,204
309,764	-2,294	334,817	161,246
310,779	-2,289	334,668	161,166
311,793	-2,242	334,294	161,023
312,808	-2,089	334,060	161,063
313,822	-2,009	333,798	161,010
314,837	-2,139	333,592	160,754
315,852	-2,102	333,669	160,817
316,866	-2,174	333,291	160,542
317,881	-2,057	332,991	160,511
318,895	-2,088	332,844	160,393
319,910	-2,035	332,561	160,299
320,925	-2,039	332,396	160,201
321,939	-2,217	332,274	159,934
322,954	-2,209	331,984	159,789
323,968	-2,033	331,864	159,908
324,983	-1,949	331,647	159,881
325,997	-2,053	331,333	159,602
327,012	-2,071	331,156	159,484
328,027	-2,135	330,842	159,249
329,041	-2,155	330,679	159,134
330,056	-2,192	330,470	158,979
331,070	-1,960	330,348	159,158
332,085	-1,903	330,079	159,074
333,100	-1,888	330,106	159,090
334,114	-1,947	329,788	158,859
335,129	-1,791	329,395	158,823
336,143	-2,021	329,247	158,490
337,158	-1,797	329,031	158,614
338,173	-1,930	328,895	158,391
339,187	-1,970	328,721	158,250
340,202	-1,858	328,457	158,228
341,216	-1,950	328,105	157,947
342,231	-2,123	328,080	157,735
343,246	-1,976	327,798	157,743
344,260	-2,017	327,713	157,644
345,275	-2,075	327,479	157,456
346,289	-1,948	327,056	157,373
347,304	-2,084	327,031	157,202
348,319	-1,841	326,682	157,280
349,333	-1,761	326,444	157,236
350,348	-1,885	326,287	157,015
351,362	-2,080	326,255	156,778
352,377	-2,060	325,797	156,565
353,392	-1,684	325,866	156,983
354,406	-1,658	325,593	156,865
355,421	196,424	1322,286	1383,530
356,435	160,615	1443,523	1383,356
