DTS Sentinel unit serial number:	SN410029Multiplexer serial number:	ORYXHardware model number:	OX2-SRSoftware version number:	ORYX F/W v4,00 Oryx Data Collector v3.7.2.0data status	okinstallation	B6 Nyhavnadifferential loss correction	single-endedforward channel	channel 2reverse channel	N/Adate	2023/12/11time	01:40:08forward acquisition time	300,00reverse acquisition time	0,00gamma	499,1914k internal	0,3122k external	0,3122temperature offset calibration	1,0000default loss term (dB/km)	0,3820temperature slope calibration	1,0000multiplexer offset coefficient	1,0000multiplexer slope coefficient	1,0000fibre end	0,00T internal ref (°C)	22,06T ext. ref 1 (°C)	5,25T ext. ref 2 (°C)	5,30length (m)	temperature (°C)	Stokes	anti-Stokes-744,400	-36,214	0,111	0,045
-743,385	56,289	-0,313	0,226
-742,371	526,742	0,062	0,110
-741,356	42,618	-0,274	0,186
-740,342	-200,000	-0,003	-0,046
-739,327	-29,367	-0,249	0,106
-738,312	800,000	-0,043	-0,138
-737,298	92,721	-0,158	0,133
-736,283	-51,823	-0,085	0,029
-735,269	-3,323	-0,213	0,110
-734,254	5,070	0,146	-0,080
-733,239	-47,070	-0,377	-0,136
-732,225	-88,877	0,100	0,022
-731,210	800,000	-0,071	0,199
-730,196	-21,360	0,078	0,035
-729,181	-94,809	-0,110	0,022
-728,167	8,871	-0,114	-0,064
-727,152	-40,134	0,048	0,019
-726,137	610,184	-0,053	-0,098
-725,123	338,666	0,056	-0,082
-724,108	-158,155	-0,071	-0,003
-723,094	-151,194	-0,141	-0,008
-722,079	128,552	-0,045	0,043
-721,064	800,000	-0,039	-0,083
-720,050	-200,000	0,001	0,045
-719,035	800,000	-0,047	0,131
-718,021	8,559	-0,018	0,010
-717,006	-118,697	0,056	-0,007
-715,991	-54,200	-0,218	-0,073
-714,977	-197,748	-0,185	0,001
-713,962	786,345	-0,074	-0,153
-712,948	14,194	-0,024	-0,014
-711,933	-9,516	0,080	0,040
-710,918	-200,000	0,017	-0,067
-709,904	-200,000	-0,001	-0,024
-708,889	-38,460	0,122	-0,048
-707,875	-95,450	-0,171	-0,034
-706,860	194,331	0,084	-0,095
-705,845	161,362	0,053	0,055
-704,831	285,110	-0,084	0,113
-703,816	-105,914	0,042	-0,007
-702,802	-200,000	0,009	0,070
-701,787	191,635	0,075	-0,084
-700,772	-200,000	-0,051	-0,170
-699,758	-143,350	0,052	0,004
-698,743	174,631	0,118	-0,127
-697,729	-127,276	0,133	0,014
-696,714	-109,827	0,014	0,002
-695,699	-118,817	-0,086	0,011
-694,685	-106,093	-0,054	-0,009
-693,670	-200,000	0,024	-0,087
-692,656	-61,752	-0,117	0,036
-691,641	-113,632	0,194	0,028
-690,627	-145,682	0,097	-0,006
-689,612	-3,759	-0,102	-0,053
-688,597	8,283	-0,059	0,033
-687,583	241,332	-0,094	-0,118
-686,568	800,000	-0,049	-0,147
-685,554	682,796	0,057	-0,111
-684,539	-200,000	0,020	0,083
-683,524	-200,000	-0,038	0,178
-682,510	215,858	0,088	0,104
-681,495	601,399	0,029	-0,053
-680,481	-200,000	0,035	-0,165
-679,466	311,325	0,051	-0,072
-678,451	140,445	-0,035	-0,034
-677,437	-200,000	0,002	-0,077
-676,422	24,500	0,095	0,058
-675,408	-12,184	-0,068	0,033
-674,393	-51,454	-0,120	0,041
-673,378	20,758	-0,065	-0,039
-672,364	233,100	-0,011	-0,014
-671,349	-200,000	-0,001	-0,095
-670,335	577,186	0,043	0,079
-669,320	244,397	0,022	-0,028
-668,305	259,203	-0,077	0,098
-667,291	311,491	-0,077	0,108
-666,276	32,828	0,013	0,008
-665,262	670,734	0,037	0,071
-664,247	242,379	0,155	-0,193
-663,232	-114,183	-0,053	-0,007
-662,218	58,538	-0,083	-0,061
-661,203	-200,000	0,013	0,064
-660,189	-145,360	-0,070	0,005
-659,174	-200,000	0,014	-0,045
-658,159	-73,951	-0,062	-0,017
-657,145	-200,000	-0,037	-0,149
-656,130	240,636	0,091	-0,112
-655,116	-80,194	-0,132	0,033
-654,101	20,330	0,131	0,078
-653,086	99,685	-0,071	-0,061
-652,072	-90,056	-0,191	0,041
-651,057	-154,014	-0,068	-0,003
-650,043	70,381	0,038	-0,029
-649,028	638,088	0,027	-0,052
-648,014	800,000	-0,063	0,172
-646,999	479,892	-0,034	-0,057
-645,984	-10,141	0,017	0,008
-644,970	-200,000	-0,032	-0,129
-643,955	800,000	-0,031	0,076
-642,941	-4,991	-0,094	0,048
-641,926	800,000	-0,025	-0,074
-640,911	-113,360	0,068	-0,010
-639,897	-48,763	0,054	-0,019
-638,882	283,029	-0,011	-0,015
-637,868	-127,351	-0,182	-0,019
-636,853	120,210	-0,020	-0,019
-635,838	-68,505	-0,127	-0,036
-634,824	800,000	-0,065	-0,151
-633,809	-54,217	0,032	-0,011
-632,795	-200,000	0,006	0,060
-631,780	42,909	0,167	0,113
-630,765	-200,000	-0,008	0,041
-629,751	-200,000	0,000	0,047
-628,736	25,369	-0,035	-0,021
-627,722	-200,000	0,029	-0,133
-626,707	-200,000	0,004	-0,029
-625,692	800,000	-0,002	-0,005
-624,678	93,027	-0,071	0,060
-623,663	-200,000	-0,012	0,042
-622,649	-170,197	0,030	-0,001
-621,634	-200,000	-0,028	-0,118
-620,619	143,004	0,034	-0,033
-619,605	-99,079	-0,144	-0,027
-618,590	21,173	0,153	0,092
-617,576	277,978	0,041	0,054
-616,561	-118,515	-0,102	-0,013
-615,546	-44,914	-0,057	-0,021
-614,532	-200,000	0,005	-0,028
-613,517	33,365	-0,114	0,073
-612,503	-200,000	-0,007	-0,055
-611,488	800,000	0,018	0,048
-610,474	-200,000	-0,017	-0,122
-609,459	49,905	-0,110	-0,077
-608,444	380,296	0,032	-0,048
-607,430	47,540	-0,077	-0,053
-606,415	-61,365	-0,126	-0,039
-605,401	496,818	0,055	-0,094
-604,386	-134,750	0,065	-0,006
-603,371	252,206	-0,035	0,044
-602,357	248,696	0,038	-0,047
-601,342	-200,000	-0,012	0,125
-600,328	115,566	-0,143	-0,129
-599,313	800,000	-0,026	-0,076
-598,298	-41,614	-0,115	0,044
-597,284	800,000	-0,040	0,104
-596,269	-52,843	-0,155	0,052
-595,255	-200,000	0,007	0,041
-594,240	-172,670	-0,143	-0,003
-593,225	-200,000	0,013	0,058
-592,211	219,245	-0,053	-0,062
-591,196	231,130	-0,017	-0,021
-590,182	150,956	0,038	-0,039
-589,167	51,677	-0,058	0,041
-588,152	521,637	-0,060	0,105
-587,138	792,175	0,014	-0,028
-586,123	-200,000	0,040	-0,152
-585,109	-200,000	-0,042	-0,186
-584,094	-105,696	0,034	-0,006
-583,079	12,558	0,072	0,041
-582,065	-11,902	0,204	0,099
-581,050	-200,000	-0,005	0,023
-580,036	-20,140	-0,082	-0,037
-579,021	156,566	-0,038	0,038
-578,006	-40,010	-0,045	0,017
-576,992	-136,869	-0,131	-0,011
-575,977	247,541	0,083	-0,104
-574,963	216,436	0,122	0,144
-573,948	-200,000	-0,019	0,101
-572,934	-79,097	-0,098	0,025
-571,919	271,050	-0,010	-0,013
-570,904	30,825	-0,046	0,029
-569,890	30,648	-0,117	-0,074
-568,875	441,048	-0,059	0,096
-567,861	800,000	-0,036	0,091
-566,846	-200,000	-0,009	0,079
-565,831	-200,000	-0,004	0,077
-564,817	134,339	-0,095	0,091
-563,802	-80,833	-0,037	0,009
-562,788	-37,689	0,101	0,040
-561,773	101,785	-0,042	0,036
-560,758	-86,255	0,070	-0,016
-559,744	278,668	0,061	0,080
-558,729	-200,000	-0,019	0,128
-557,715	-114,710	-0,116	0,016
-556,700	-200,000	0,037	0,129
-555,685	245,762	0,045	-0,056
-554,671	-111,890	-0,074	-0,011
-553,656	112,457	-0,053	0,047
-552,642	800,000	0,044	-0,123
-551,627	132,314	0,071	0,068
-550,612	7,628	0,061	-0,034
-549,598	87,164	-0,121	-0,099
-548,583	-200,000	-0,011	-0,118
-547,569	6,792	-0,090	-0,050
-546,554	-104,703	-0,059	-0,010
-545,539	25,030	0,019	0,012
-544,525	800,000	-0,029	-0,070
-543,510	800,000	-0,038	0,090
-542,496	-73,503	-0,166	-0,044
-541,481	-200,000	0,004	-0,065
-540,466	390,260	-0,038	0,058
-539,452	152,229	0,022	-0,022
-538,437	-149,662	0,169	-0,010
-537,423	702,664	0,036	-0,071
-536,408	800,000	0,040	-0,096
-535,393	86,424	-0,154	-0,126
-534,379	33,133	0,054	-0,034
-533,364	-70,080	-0,061	0,017
-532,350	800,000	0,079	0,174
-531,335	-144,665	-0,212	0,014
-530,321	-200,000	-0,000	0,051
-529,306	-200,000	-0,008	-0,037
-528,291	-106,898	-0,049	-0,008
-527,277	-200,000	-0,009	-0,159
-526,262	140,697	-0,117	-0,114
-525,248	-200,000	-0,016	0,074
-524,233	342,681	0,040	0,058
-523,218	-200,000	-0,006	0,043
-522,204	-200,000	-0,008	-0,035
-521,189	-200,000	-0,007	-0,100
-520,175	547,160	-0,037	-0,065
-519,160	-93,639	-0,165	0,033
-518,145	-60,817	-0,096	-0,030
-517,131	111,037	0,126	-0,113
-516,116	105,984	-0,125	-0,109
-515,102	-15,654	0,056	-0,026
-514,087	83,257	-0,092	-0,074
-513,072	-200,000	0,012	-0,058
-512,058	-86,785	-0,052	-0,012
-511,043	-142,781	-0,070	0,005
-510,029	-113,022	0,059	0,008
-509,014	172,303	0,107	-0,114
-507,999	-72,815	-0,032	0,009
-506,985	-30,118	-0,046	0,019
-505,970	356,639	0,094	-0,139
-504,956	25,406	-0,066	-0,041
-503,941	210,528	0,031	-0,036
-502,926	-200,000	-0,020	0,070
-501,912	-200,000	0,005	0,098
-500,897	2,735	0,091	-0,049
-499,883	-177,130	-0,063	0,001
-498,868	11,844	-0,172	-0,097
-497,853	178,108	0,103	-0,111
-496,839	-31,245	0,090	-0,037
-495,824	104,642	0,096	0,083
-494,810	754,638	-0,044	-0,087
-493,795	33,354	-0,059	-0,038
-492,781	8,591	-0,076	-0,042
-491,766	329,387	0,012	-0,017
-490,751	-200,000	0,004	-0,079
-489,737	410,188	-0,050	-0,079
-488,722	-200,000	0,007	-0,113
-487,708	-32,454	-0,026	-0,011
-486,693	412,434	-0,053	-0,083
-485,678	168,287	0,052	0,054
-484,664	-6,764	0,030	-0,015
-483,649	23,025	-0,147	-0,089
-482,635	-200,000	0,017	-0,087
-481,620	-34,767	-0,075	-0,030
-480,605	-39,427	0,013	0,005
-479,591	800,000	0,026	0,054
-478,576	534,796	-0,060	-0,106
-477,562	498,063	0,044	-0,076
-476,547	118,985	-0,028	-0,026
-475,532	296,147	-0,066	0,089
-474,518	122,947	0,056	0,051
-473,503	-200,000	0,038	0,191
-472,489	799,387	0,021	-0,044
-471,474	-200,000	-0,001	-0,085
-470,459	427,221	-0,094	-0,150
-469,445	-200,000	0,044	-0,164
-468,430	-92,902	-0,066	-0,014
-467,416	185,625	0,078	-0,085
-466,401	-58,991	-0,100	-0,032
-465,386	-200,000	0,001	0,043
-464,372	-134,101	-0,042	0,004
-463,357	56,580	0,063	0,045
-462,343	-200,000	-0,007	-0,034
-461,328	21,328	-0,051	-0,030
-460,313	110,276	0,019	0,017
-459,299	-200,000	0,034	0,159
-458,284	800,000	0,022	-0,068
-457,270	519,736	-0,035	0,060
-456,255	46,772	-0,088	0,060
-455,241	77,676	-0,061	-0,048
-454,226	800,000	0,026	0,067
-453,211	4,905	0,123	-0,066
-452,197	-200,000	0,006	0,131
-451,182	-28,720	0,111	0,047
-450,168	32,358	0,035	0,022
-449,153	-200,000	0,014	0,113
-448,138	800,000	0,022	0,069
-447,124	-200,000	-0,007	0,046
-446,109	-200,000	-0,027	-0,095
-445,095	122,000	-0,090	-0,083
-444,080	8,439	-0,047	-0,026
-443,065	-200,000	0,005	-0,090
-442,051	800,000	0,097	0,257
-441,036	79,207	0,055	0,044
-440,022	20,692	-0,108	-0,064
-439,007	232,842	-0,051	-0,062
-437,992	243,612	0,057	0,071
-436,978	-75,837	0,187	0,049
-435,963	-200,000	0,006	0,082
-434,949	-200,000	-0,002	0,045
-433,934	384,149	-0,046	-0,070
-432,919	88,272	0,066	-0,054
-431,905	238,373	0,051	0,063
-430,890	-0,119	0,036	-0,019
-429,876	10,309	0,051	0,028
-428,861	460,873	0,069	0,113
-427,846	673,614	-0,043	0,082
-426,832	800,000	0,016	0,049
-425,817	49,325	0,144	-0,099
-424,803	-200,000	-0,015	-0,064
-423,788	-82,944	0,148	-0,035
-422,773	60,821	0,042	-0,031
-421,759	517,014	0,047	0,081
-420,744	88,080	-0,047	-0,038
-419,730	-200,000	0,004	0,055
-418,715	437,629	-0,081	-0,131
-417,701	-134,142	0,141	0,013
-416,686	-134,183	-0,060	0,005
-415,671	354,755	0,073	0,107
-414,657	800,000	0,045	0,145
-413,642	-200,000	-0,002	-0,061
-412,628	-200,000	0,015	0,101
-411,613	-94,813	-0,089	-0,018
-410,598	800,000	0,032	0,087
-409,584	738,231	-0,024	-0,047
-408,569	-200,000	0,029	0,124
-407,555	-200,000	-0,012	0,071
-406,540	-10,249	0,015	0,007
-405,525	81,797	0,086	-0,069
-404,511	-174,701	-0,146	0,003
-403,496	141,979	0,127	0,124
-402,482	93,304	-0,006	-0,005
-401,467	800,000	0,077	0,176
-400,452	-200,000	0,012	0,090
-399,438	-20,499	0,044	-0,020
-398,423	-117,902	0,013	-0,002
-397,409	-2,497	0,096	-0,049
-396,394	240,665	0,152	0,186
-395,379	120,945	-0,072	-0,066
-394,365	41,376	-0,187	-0,124
-393,350	-200,000	0,026	0,148
-392,336	800,000	-0,038	0,090
-391,321	559,654	0,046	-0,083
-390,306	209,212	-0,033	0,038
-389,292	398,999	-0,048	0,074
-388,277	72,910	-0,114	-0,088
-387,263	-200,000	-0,010	0,082
-386,248	-140,203	0,102	-0,008
-385,233	-103,453	0,084	-0,014
-384,219	-200,000	0,002	0,014
-383,204	196,665	-0,046	0,052
-382,190	55,047	0,037	-0,026
-381,175	-75,134	0,093	-0,024
-380,160	-21,511	0,111	-0,049
-379,146	-200,000	0,005	-0,073
-378,131	-11,740	0,212	0,102
-377,117	21,860	-0,126	0,075
-376,102	104,677	-0,055	-0,047
-375,088	-74,633	-0,062	0,016
-374,073	732,707	0,017	-0,034
-373,058	85,321	0,148	0,119
-372,044	-34,391	0,154	0,062
-371,029	800,000	-0,025	0,062
-370,015	4,506	-0,077	-0,042
-369,000	3,371	-0,005	-0,003
-367,985	497,586	0,032	-0,055
-366,971	-82,566	-0,048	-0,011
-365,956	-200,000	-0,000	0,095
-364,942	-46,402	0,051	-0,018
-363,927	675,962	-0,055	-0,105
-362,912	2,262	-0,082	0,044
-361,898	190,073	-0,034	-0,038
-360,883	675,955	-0,040	0,077
-359,869	-46,946	-0,052	-0,019
-358,854	367,094	0,042	-0,062
-357,839	194,659	-0,012	-0,014
-356,825	-97,209	0,097	0,018
-355,810	11,352	-0,119	-0,067
-354,796	291,625	0,039	-0,053
-353,781	-200,000	-0,033	-0,146
-352,766	255,206	0,041	-0,052
-351,752	274,768	0,079	-0,103
-350,737	49,304	0,077	0,053
-349,723	50,281	-0,126	0,088
-348,708	800,000	0,022	0,054
-347,693	-101,404	-0,056	-0,010
-346,679	97,116	-0,084	-0,071
-345,664	431,151	-0,018	-0,029
-344,650	800,000	-0,087	0,188
-343,635	-36,753	0,055	0,022
-342,620	-98,183	0,045	-0,008
-341,606	-200,000	-0,011	0,076
-340,591	-128,302	-0,048	-0,005
-339,577	143,463	-0,052	-0,051
-338,562	-200,000	-0,022	-0,139
-337,548	-13,401	0,100	-0,047
-336,533	-200,000	0,024	0,092
-335,518	-121,080	-0,006	-0,001
-334,504	377,155	-0,016	0,024
-333,489	-200,000	0,018	0,118
-332,475	-86,631	-0,033	0,007
-331,460	-200,000	-0,007	0,093
-330,445	-200,000	-0,018	0,212
-329,431	351,685	0,076	0,110
-328,416	-200,000	0,019	0,228
-327,402	-10,316	-0,072	0,035
-326,387	0,752	-0,053	0,028
-325,372	800,000	-0,003	-0,010
-324,358	186,768	-0,046	-0,051
-323,343	-95,592	-0,035	0,007
-322,329	-200,000	0,010	-0,060
-321,314	621,549	0,024	0,045
-320,299	51,100	0,050	0,034
-319,285	-147,914	0,103	-0,006
-318,270	800,000	0,031	-0,073
-317,256	-200,000	-0,006	-0,051
-316,241	-77,984	-0,022	-0,006
-315,226	-94,913	0,113	0,022
-314,212	-45,671	0,083	0,030
-313,197	82,773	0,061	-0,048
-312,183	-135,427	-0,039	-0,003
-311,168	-200,000	0,003	-0,016
-310,153	-167,085	-0,073	0,002
-309,139	-8,773	-0,044	0,021
-308,124	-200,000	-0,020	0,101
-307,110	-200,000	0,018	-0,078
-306,095	2,866	-0,076	0,040
-305,080	-200,000	0,004	0,066
-304,066	800,000	0,043	-0,101
-303,051	587,170	-0,097	-0,176
-302,037	99,488	-0,094	-0,080
-301,022	318,181	0,004	-0,006
-300,008	207,341	0,079	-0,091
-298,993	28,828	-0,032	0,020
-297,978	309,547	0,069	0,095
-296,964	-93,141	-0,126	-0,025
-295,949	93,261	0,074	-0,061
-294,935	45,598	-0,072	0,049
-293,920	-36,275	0,056	-0,022
-292,905	-200,000	0,015	-0,145
-291,891	4,688	0,084	0,045
-290,876	245,006	-0,028	0,034
-289,862	21,734	0,169	-0,101
-288,847	-128,289	0,074	-0,008
-287,832	-99,798	-0,099	-0,018
-286,818	-95,663	0,094	-0,018
-285,803	-90,841	-0,064	0,013
-284,789	403,808	0,052	-0,080
-283,774	184,914	0,099	-0,108
-282,759	-145,642	-0,113	0,007
-281,745	-47,144	0,151	-0,054
-280,730	-200,000	-0,006	0,046
-279,716	800,000	-0,037	0,077
-278,701	-150,337	-0,100	0,006
-277,686	-200,000	0,016	-0,064
-276,672	-167,870	0,109	-0,003
-275,657	-52,362	-0,114	-0,038
-274,643	698,049	-0,042	-0,081
-273,628	172,570	-0,034	0,035
-272,613	234,768	-0,020	0,024
-271,599	-84,034	0,085	-0,020
-270,584	-137,710	-0,047	0,004
-269,570	800,000	0,055	-0,168
-268,555	-200,000	0,027	0,088
-267,540	11,683	0,043	0,024
-266,526	214,756	0,063	0,073
-265,511	3,367	-0,053	0,028
-264,497	-133,293	-0,037	0,003
-263,482	52,478	0,045	-0,031
-262,467	328,777	0,146	0,206
-261,453	800,000	0,031	-0,087
-260,438	-187,168	-0,106	0,001
-259,424	-200,000	0,025	0,092
-258,409	800,000	0,012	-0,038
-257,395	-200,000	-0,010	0,056
-256,380	-200,000	-0,005	0,025
-255,365	139,337	0,097	0,093
-254,351	-129,059	0,076	0,008
-253,336	-77,877	-0,177	-0,044
-252,322	109,222	0,036	-0,031
-251,307	-85,422	0,121	-0,027
-250,292	-200,000	0,025	-0,188
-249,278	-116,430	0,135	0,018
-248,263	-18,217	0,023	-0,010
-247,249	-95,245	-0,097	0,019
-246,234	-200,000	0,032	-0,173
-245,219	0,688	0,166	-0,086
-244,205	187,344	0,029	0,032
-243,190	800,000	0,024	0,072
-242,176	800,000	0,042	-0,116
-241,161	-200,000	-0,013	0,139
-240,146	-82,273	0,225	-0,053
-239,132	-200,000	0,002	0,019
-238,117	-67,477	-0,108	-0,031
-237,103	575,836	0,054	-0,097
-236,088	166,601	0,078	-0,081
-235,073	-200,000	-0,002	0,013
-234,059	-90,632	0,091	-0,019
-233,044	-200,000	-0,028	0,102
-232,030	-68,043	0,130	0,037
-231,015	-200,000	0,039	0,152
-230,000	-80,919	-0,035	-0,008
-228,986	56,496	-0,035	-0,025
-227,971	673,049	-0,050	0,096
-226,957	354,452	-0,075	-0,109
-225,942	-51,913	0,126	0,042
-224,927	-73,115	-0,124	0,033
-223,913	-60,236	0,042	-0,013
-222,898	66,239	-0,088	0,065
-221,884	800,000	0,010	-0,026
-220,869	800,000	0,029	-0,090
-219,855	-34,583	0,074	-0,030
-218,840	371,793	0,051	-0,076
-217,825	307,928	-0,024	0,032
-216,811	-200,000	0,019	-0,066
-215,796	800,000	0,030	-0,070
-214,782	-46,626	0,070	-0,025
-213,767	-106,853	-0,051	0,008
-212,752	116,889	0,159	0,143
-211,738	144,930	-0,079	-0,077
-210,723	-75,859	0,109	-0,028
-209,709	-200,000	0,017	-0,058
-208,694	-30,372	-0,093	0,038
-207,679	468,901	-0,058	-0,096
-206,665	58,652	0,090	0,064
-205,650	131,391	0,072	0,068
-204,636	143,212	0,105	0,102
-203,621	-200,000	-0,054	0,207
-202,606	800,000	-0,034	-0,087
-201,592	-78,678	0,081	0,020
-200,577	-164,776	-0,073	0,002
-199,563	17,888	0,075	0,043
-198,548	59,399	-0,103	-0,074
-197,533	-200,000	0,010	-0,127
-196,519	97,255	-0,003	0,003
-195,504	-3,765	0,066	-0,033
-194,490	-200,000	0,003	-0,113
-193,475	-51,985	-0,133	0,045
-192,460	81,145	0,053	0,042
-191,446	-47,970	0,109	-0,038
-190,431	800,000	0,043	0,117
-189,417	98,470	-0,035	-0,030
-188,402	-127,675	-0,105	-0,011
-187,387	800,000	0,028	0,074
-186,373	-112,797	-0,090	0,013
-185,358	498,778	0,047	-0,080
-184,344	110,459	0,058	0,051
-183,329	-83,099	0,069	-0,016
-182,315	21,110	0,090	-0,053
-181,300	-53,508	-0,043	-0,014
-180,285	800,000	0,027	0,074
-179,271	-16,521	0,128	-0,059
-178,256	800,000	0,001	-0,002
-177,242	88,226	-0,052	0,042
-176,227	682,699	0,069	0,131
-175,212	533,323	0,070	-0,122
-174,198	-200,000	0,013	0,074
-173,183	191,299	0,035	-0,038
-172,169	524,360	0,029	0,050
-171,154	-12,378	-0,026	0,012
-170,139	417,982	0,020	-0,031
-169,125	800,000	0,017	0,039
-168,110	-106,175	0,153	-0,025
-167,096	-200,000	0,008	0,079
-166,081	-97,325	-0,058	0,011
-165,066	-91,125	-0,113	0,023
-164,052	-57,557	-0,109	0,035
-163,037	61,339	-0,087	-0,063
-162,023	-157,199	0,095	-0,004
-161,008	-200,000	-0,023	0,159
-159,993	145,517	-0,046	0,045
-158,979	-97,461	-0,126	0,024
-157,964	-86,519	-0,091	-0,020
-156,950	-33,231	-0,088	-0,035
-155,935	800,000	0,032	0,079
-154,920	800,000	0,009	0,019
-153,906	800,000	0,083	0,173
-152,891	271,858	0,105	0,135
-151,877	-200,000	0,002	-0,173
-150,862	23,600	-0,074	0,044
-149,847	800,000	0,042	0,092
-148,833	273,162	-0,056	-0,072
-147,818	-117,154	0,159	0,021
-146,804	-54,819	-0,088	-0,029
-145,789	-23,403	0,113	0,049
-144,775	-43,033	-0,109	-0,040
-143,760	800,000	0,044	0,120
-142,745	-120,885	0,083	0,010
-141,731	-63,640	-0,014	-0,004
-140,716	-200,000	0,012	0,041
-139,702	146,850	0,037	-0,036
-138,687	-200,000	-0,002	0,047
-137,672	800,000	-0,053	0,131
-136,658	167,814	-0,039	0,041
-135,643	52,996	-0,069	0,048
-134,629	-147,699	-0,039	-0,002
-133,614	10,051	0,149	0,082
-132,599	-118,420	0,082	-0,011
-131,585	437,861	0,016	-0,025
-130,570	-108,443	-0,046	0,007
-129,556	139,031	0,073	-0,070
-128,541	418,580	-0,048	0,075
-127,526	-67,916	0,041	-0,012
-126,512	-68,903	0,167	-0,047
-125,497	-48,259	0,047	0,016
-124,483	327,296	-0,037	0,052
-123,468	-11,797	-0,101	0,048
-122,453	-109,263	-0,089	-0,014
-121,439	-200,000	0,015	-0,106
-120,424	39,227	0,060	-0,039
-119,410	-20,123	0,025	-0,011
-118,395	800,000	0,039	-0,118
-117,380	67,535	0,051	-0,038
-116,366	-40,771	-0,157	0,059
-115,351	41,907	0,053	0,035
-114,337	95,726	0,015	-0,012
-113,322	104,880	0,046	-0,040
-112,307	66,473	0,097	0,072
-111,293	607,062	0,066	0,119
-110,278	-200,000	-0,016	0,057
-109,264	-200,000	-0,012	0,079
-108,249	-118,093	-0,032	0,004
-107,234	-200,000	-0,002	0,057
-106,220	-138,635	-0,065	0,005
-105,205	-100,927	-0,013	0,002
-104,191	541,033	0,030	0,052
-103,176	-200,000	0,016	-0,092
-102,162	-120,927	-0,093	-0,011
-101,147	236,421	-0,127	-0,154
-100,132	79,882	-0,054	0,042
-99,118	-200,000	-0,007	-0,140
-98,103	296,994	0,049	-0,066
-97,089	-21,799	0,195	0,086
-96,074	782,698	0,015	0,030
-95,059	-200,000	0,001	0,084
-94,045	-200,000	-0,004	0,082
-93,030	-51,102	-0,068	-0,023
-92,016	365,486	-0,033	-0,048
-91,001	195,049	0,066	-0,073
-89,986	331,798	0,088	0,124
-88,972	-200,000	-0,019	0,133
-87,957	-166,367	0,179	0,005
-86,943	421,492	-0,065	0,102
-85,928	-62,248	0,122	-0,037
-84,913	446,157	-0,028	-0,045
-83,899	-200,000	0,027	-0,167
-82,884	800,000	0,040	0,099
-81,870	154,228	-0,036	-0,036
-80,855	-46,846	-0,062	-0,022
-79,840	350,274	-0,035	-0,051
-78,826	800,000	-0,056	0,120
-77,811	160,705	-0,095	-0,097
-76,797	107,338	-0,039	-0,034
-75,782	74,201	-0,061	-0,046
-74,767	-200,000	-0,029	-0,140
-73,753	-200,000	0,003	0,079
-72,738	800,000	0,019	-0,060
-71,724	-78,150	-0,054	0,013
-70,709	-18,234	0,062	0,028
-69,694	-77,807	-0,032	0,008
-68,680	-200,000	0,029	-0,156
-67,665	-0,789	0,064	0,033
-66,651	-200,000	0,008	0,158
-65,636	31,034	0,080	0,050
-64,622	580,090	0,057	-0,102
-63,607	-105,228	-0,028	0,005
-62,592	19,978	-0,089	0,052
-61,578	-142,594	0,172	-0,012
-60,563	-200,000	-0,003	0,068
-59,549	800,000	-0,025	0,073
-58,534	-120,023	-1,408	-0,173
-57,519	543,832	-0,823	-1,431
-56,505	-200,000	-0,866	-4,315
-55,490	22,182	0,539	-0,319
-54,476	800,000	4,965	11,779
-53,461	-200,000	14,070	254,484
-52,446	-200,000	693,588	2253,630
-51,432	583,747	1624,331	2906,572
-50,417	118,097	1633,721	1461,344
-49,403	73,137	1287,700	975,952
-48,388	37,689	1024,130	658,502
-47,373	24,042	982,240	586,645
-46,359	23,305	971,566	577,828
-45,344	22,248	967,481	571,921
-44,330	22,268	965,767	570,948
-43,315	22,175	964,300	569,756
-42,300	22,056	963,469	568,856
-41,286	22,041	962,490	568,205
-40,271	22,127	961,183	567,690
-39,257	22,050	960,636	567,096
-38,242	22,028	959,538	566,354
-37,227	22,059	958,852	566,025
-36,213	22,002	957,935	565,278
-35,198	22,057	956,967	564,861
-34,184	22,057	956,423	564,519
-33,169	22,060	955,430	563,919
-32,154	22,139	954,482	563,593
-31,140	22,133	953,634	563,051
-30,125	22,142	952,915	562,631
-29,111	22,099	952,140	562,015
-28,096	22,118	951,345	561,582
-27,082	22,134	950,678	561,218
-26,067	22,104	949,924	560,654
-25,052	22,084	949,248	560,170
-24,038	22,117	948,400	559,754
-23,023	22,071	948,034	559,367
-22,009	22,195	947,329	559,325
-20,994	22,147	946,614	558,729
-19,979	22,127	946,040	558,304
-18,965	22,078	945,513	557,814
-17,950	22,076	944,757	557,339
-16,936	22,054	943,976	556,787
-15,921	22,046	943,251	556,311
-14,906	21,961	942,706	555,696
-13,892	21,973	942,085	555,346
-12,877	21,942	941,360	554,798
-11,863	21,981	940,704	554,514
-10,848	21,976	940,203	554,180
-9,833	22,040	939,916	554,194
-8,819	22,036	939,277	553,781
-7,804	22,021	938,532	553,272
-6,790	22,008	937,916	552,845
-5,775	22,056	937,333	552,631
-4,760	21,947	936,734	551,912
-3,746	21,951	936,101	551,531
-2,731	21,848	935,354	550,743
-1,717	21,789	934,620	550,102
-0,702	21,726	934,129	549,593
0,313	21,626	933,294	549,615
1,327	24,743	931,211	558,143
2,342	34,253	795,356	502,037
3,356	32,029	451,127	281,380
4,371	0,995	294,077	152,406
5,386	-3,471	275,157	138,352
6,400	-5,081	269,343	133,919
7,415	-5,564	267,027	132,310
8,429	-5,089	265,726	132,090
9,444	-4,958	264,880	131,777
10,459	-5,172	264,343	131,303
11,473	-5,342	263,743	130,839
12,488	-5,213	263,179	130,665
13,502	-5,398	262,733	130,264
14,517	-5,219	262,251	130,175
15,531	-5,119	261,949	130,104
16,546	-5,151	261,611	129,896
17,561	-4,960	261,176	129,840
18,575	-4,819	260,834	129,785
19,590	-5,025	260,547	129,446
20,604	-5,081	260,450	129,336
21,619	-5,079	259,837	129,021
22,634	-5,175	259,708	128,860
23,648	-5,120	259,302	128,697
24,663	-5,109	259,138	128,613
25,677	-5,014	258,890	128,563
26,692	-5,079	258,578	128,339
27,707	-5,100	258,407	128,224
28,721	-5,124	257,933	127,957
29,736	-5,283	257,986	127,830
30,750	-5,204	257,545	127,670
31,765	-5,073	257,297	127,652
32,780	-5,039	256,967	127,507
33,794	-5,171	256,903	127,346
34,809	-5,353	256,816	127,131
35,823	-5,167	256,479	127,118
36,838	-5,329	256,156	126,803
37,853	-5,145	255,969	126,862
38,867	-5,213	255,616	126,615
39,882	-5,191	255,598	126,614
40,896	-5,289	255,251	126,345
41,911	-5,231	254,817	126,170
42,926	-5,349	254,834	126,063
43,940	-5,067	254,551	126,159
44,955	-5,335	254,274	125,776
45,969	-5,455	254,073	125,560
46,984	-5,373	253,764	125,468
47,999	-5,667	253,558	125,099
49,013	-5,783	253,293	124,856
50,028	-5,708	252,950	124,741
51,042	-5,894	252,845	124,516
52,057	-5,938	252,650	124,371
53,071	-5,928	252,363	124,227
54,086	-5,863	252,259	124,221
55,101	-5,788	252,105	124,199
56,115	-5,619	252,056	124,311
57,130	-5,312	251,838	124,458
58,144	-4,886	251,526	124,661
59,159	-5,055	251,511	124,496
60,174	-4,855	251,135	124,472
61,188	-5,129	251,059	124,187
62,203	-5,075	250,776	124,082
63,217	-5,113	250,639	123,970
64,232	-5,057	250,334	123,857
65,247	-4,905	250,148	123,884
66,261	-5,193	250,100	123,602
67,276	-5,259	249,677	123,325
68,290	-5,489	249,437	122,999
69,305	-5,613	249,287	122,808
70,320	-5,378	249,141	122,926
71,334	-5,070	248,952	123,085
72,349	-5,025	248,704	122,989
73,363	-4,937	248,562	122,983
74,378	-5,032	248,443	122,833
75,393	-5,080	248,124	122,624
76,407	-4,936	247,967	122,657
77,422	-5,111	247,826	122,428
78,436	-4,912	247,486	122,418
79,451	-5,061	247,300	122,189
80,466	-5,176	247,126	121,994
81,480	-5,399	247,040	121,752
82,495	-5,164	246,599	121,723
83,509	-5,270	246,623	121,634
84,524	-5,271	246,258	121,442
85,539	-5,617	246,197	121,109
86,553	-5,539	245,939	121,037
87,568	-5,329	245,689	121,080
88,582	-5,283	245,692	121,109
89,597	-5,419	245,493	120,886
90,611	-5,270	245,421	120,965
91,626	-5,310	245,248	120,835
92,641	-4,951	245,025	121,017
93,655	-5,271	244,882	120,666
94,670	-5,211	244,522	120,529
95,684	-5,416	244,451	120,311
96,699	-5,334	244,089	120,191
97,714	-5,467	243,989	120,019
98,728	-5,386	243,813	119,990
99,743	-5,655	243,617	119,658
100,757	-5,607	243,450	119,606
101,772	-5,367	243,132	119,638
102,787	-5,477	242,929	119,437
103,801	-5,439	242,920	119,453
104,816	-5,358	242,775	119,438
105,830	-5,172	242,656	119,524
106,845	-5,168	242,465	119,423
107,860	-5,187	242,278	119,304
108,874	-5,368	242,139	119,075
109,889	-5,293	241,672	118,897
110,903	-5,381	241,520	118,738
111,918	-5,485	241,508	118,636
112,933	-5,585	241,335	118,458
113,947	-5,428	241,267	118,543
114,962	-5,165	240,902	118,571
115,976	-5,075	240,801	118,584
116,991	-5,238	240,717	118,398
118,006	-5,365	240,501	118,177
119,020	-5,140	240,334	118,269
120,035	-5,056	240,027	118,177
121,049	-5,193	240,164	118,121
122,064	-4,986	239,752	118,077
123,079	-5,479	239,706	117,640
124,093	-5,394	239,467	117,582
125,108	-5,484	238,994	117,266
126,122	-5,489	239,003	117,256
127,137	-5,867	238,955	116,913
128,151	-5,674	238,688	116,930
129,166	-5,331	238,446	117,080
130,181	-5,575	238,354	116,825
131,195	-5,432	238,028	116,772
132,210	-5,465	238,019	116,730
133,224	-5,573	237,985	116,615
134,239	-5,229	237,771	116,779
135,254	-5,301	237,462	116,558
136,268	-5,650	237,288	116,181
137,283	-5,388	236,974	116,228
138,297	-5,561	236,818	116,001
139,312	-5,813	236,616	115,688
140,327	-5,547	236,727	115,947
141,341	-4,849	236,473	116,376
142,356	-4,878	236,390	116,301
143,370	-4,997	236,247	116,124
144,385	-4,775	236,186	116,263
145,400	-4,795	235,922	116,106
146,414	-4,937	235,826	115,935
147,429	-5,124	235,634	115,680
148,443	-4,942	235,418	115,709
149,458	-4,919	235,226	115,623
150,473	-5,074	235,081	115,417
151,487	-4,858	234,855	115,469
152,502	-5,156	234,838	115,212
153,516	-4,966	234,595	115,235
154,531	-4,939	234,416	115,158
155,546	-5,080	234,294	114,975
156,560	-5,205	234,062	114,751
157,575	-5,039	233,804	114,747
158,589	-5,018	233,677	114,691
159,604	-4,873	233,572	114,744
160,619	-4,765	233,354	114,713
161,633	-4,716	233,187	114,660
162,648	-4,680	233,046	114,609
163,662	-5,096	232,919	114,205
164,677	-5,157	232,766	114,072
165,692	-4,939	232,713	114,209
166,706	-4,797	232,525	114,219
167,721	-4,733	232,301	114,149
168,735	-4,859	232,199	113,989
169,750	-4,848	231,956	113,869
170,764	-4,883	231,784	113,747
171,779	-4,957	231,870	113,720
172,794	-4,781	231,526	113,680
173,808	-5,200	231,238	113,199
174,823	-5,289	231,013	113,009
175,837	-5,565	230,872	112,713
176,852	-5,328	230,826	112,866
177,867	-5,115	230,764	112,994
178,881	-4,968	230,694	113,064
179,896	-4,997	230,509	112,941
180,910	-4,905	230,397	112,948
181,925	-4,930	230,182	112,812
182,940	-4,667	229,918	112,879
183,954	-4,830	229,850	112,708
184,969	-4,871	229,711	112,598
185,983	-4,759	229,553	112,598
186,998	-4,672	229,450	112,605
188,013	-4,749	229,409	112,514
189,027	-4,455	229,050	112,558
190,042	-4,793	229,033	112,276
191,056	-4,784	228,777	112,148
192,071	-4,883	228,750	112,047
193,086	-4,682	228,440	112,041
194,100	-4,751	228,242	111,881
195,115	-5,198	227,832	111,324
196,129	-6,560	227,562	110,129
197,144	-2,954	228,583	113,412
198,159	1,573	230,047	117,656
199,173	3,980	230,474	119,739
200,188	4,306	230,473	119,982
201,202	4,246	230,371	119,871
202,217	4,675	230,247	120,129
203,232	4,558	230,171	119,988
204,246	4,805	229,944	120,051
205,261	4,971	229,873	120,132
206,275	5,179	229,633	120,156
207,290	5,155	229,510	120,063
208,304	4,894	229,396	119,791
209,319	4,866	229,206	119,659
210,334	4,814	229,156	119,582
211,348	4,619	228,875	119,274
212,363	4,232	228,552	118,798
213,377	3,973	228,406	118,511
214,392	4,039	228,211	118,450
215,407	4,199	228,175	118,544
216,421	4,263	227,985	118,484
217,436	4,050	227,728	118,177
218,450	4,004	227,429	117,976
219,465	3,805	227,397	117,796
220,480	3,813	227,294	117,738
221,494	3,926	227,150	117,739
222,509	4,112	227,051	117,820
223,523	4,208	226,780	117,742
224,538	4,089	226,652	117,574
225,553	4,056	226,527	117,474
226,567	4,408	226,388	117,660
227,582	4,330	226,307	117,548
228,596	4,355	226,355	117,581
229,611	4,278	225,998	117,327
230,626	4,049	225,805	117,042
231,640	4,093	225,666	116,993
232,655	4,315	225,660	117,148
233,669	4,644	225,643	117,379
234,684	4,813	225,474	117,409
235,699	4,566	225,255	117,097
236,713	4,270	225,045	116,753
237,728	4,230	224,874	116,624
238,742	3,904	224,634	116,243
239,757	4,094	224,462	116,287
240,772	4,065	224,329	116,186
241,786	3,805	224,230	115,928
242,801	4,254	224,088	116,182
243,815	4,504	224,090	116,361
244,830	4,505	223,833	116,219
245,844	4,449	223,673	116,083
246,859	4,227	223,446	115,788
247,874	4,359	223,388	115,847
248,888	4,470	223,304	115,876
249,903	4,361	223,168	115,713
250,917	4,048	223,010	115,386
251,932	3,845	223,042	115,240
252,947	3,927	222,716	115,123
253,961	3,977	222,380	114,976
254,976	4,029	222,383	115,006
255,990	4,087	222,443	115,071
257,005	4,029	222,196	114,890
258,020	4,235	222,093	114,980
259,034	4,431	221,996	115,065
260,049	4,429	221,659	114,879
261,063	4,305	221,551	114,721
262,078	4,588	221,375	114,829
263,093	4,487	221,271	114,690
264,107	4,484	221,040	114,558
265,122	4,333	221,012	114,421
266,136	4,491	220,970	114,507
267,151	4,616	220,759	114,480
268,166	4,195	220,552	114,050
269,180	4,042	220,202	113,747
270,195	3,663	220,266	113,489
271,209	3,909	220,012	113,530
272,224	4,022	220,032	113,613
273,239	4,235	219,846	113,665
274,253	4,135	219,508	113,406
275,268	4,104	219,342	113,287
276,282	3,853	219,204	113,021
277,297	3,832	219,015	112,898
278,312	3,992	219,173	113,087
279,326	4,098	218,894	113,011
280,341	4,094	218,782	112,940
281,355	4,102	218,526	112,804
282,370	4,051	218,551	112,769
283,384	3,792	218,283	112,432
284,399	3,807	218,136	112,356
285,414	3,883	218,043	112,354
286,428	4,002	217,965	112,391
287,443	4,347	217,866	112,582
288,457	4,315	217,727	112,476
289,472	4,199	217,567	112,299
290,487	3,810	217,275	111,855
291,501	3,822	217,132	111,780
292,516	4,075	217,027	111,900
293,530	3,670	217,102	111,635
294,545	3,690	216,810	111,489
295,560	3,947	216,652	111,584
296,574	4,022	216,449	111,524
297,589	4,301	216,278	111,628
298,603	4,132	216,343	111,529
299,618	4,095	216,084	111,359
300,633	4,083	216,044	111,320
301,647	4,293	215,973	111,425
302,662	4,583	215,682	111,474
303,676	4,480	215,643	111,370
304,691	4,396	215,456	111,203
305,706	4,337	215,387	111,114
306,720	4,451	215,236	111,109
307,735	4,165	215,154	110,851
308,749	4,029	214,957	110,642
309,764	4,248	214,836	110,727
310,779	4,296	214,697	110,680
311,793	4,393	214,637	110,708
312,808	4,127	214,527	110,451
313,822	4,393	214,214	110,470
314,837	4,174	214,153	110,273
315,852	3,883	213,898	109,924
316,866	4,067	213,753	109,971
317,881	4,288	213,801	110,143
318,895	4,376	213,475	110,028
319,910	3,938	213,533	109,736
320,925	3,760	213,186	109,422
321,939	3,617	213,012	109,220
322,954	3,767	213,055	109,340
323,968	4,319	212,774	109,578
324,983	4,270	212,758	109,525
325,997	4,358	212,627	109,510
327,012	4,230	212,335	109,259
328,027	4,116	212,452	109,229
329,041	4,578	212,291	109,464
330,056	4,596	212,162	109,400
331,070	4,200	211,815	108,931
332,085	3,956	211,782	108,732
333,100	4,072	211,512	108,666
334,114	4,176	211,493	108,719
335,129	3,986	211,311	108,483
336,143	4,007	211,104	108,382
337,158	3,916	211,090	108,301
338,173	3,803	210,982	108,156
339,187	3,469	210,930	107,885
340,202	3,745	210,664	107,933
341,216	3,750	210,386	107,784
342,231	4,034	210,370	107,966
343,246	3,946	210,304	107,861
344,260	3,726	210,150	107,618
345,275	3,807	210,009	107,592
346,289	3,951	210,034	107,697
347,304	4,089	209,888	107,709
348,319	4,031	209,576	107,499
349,333	4,303	209,463	107,621
350,348	4,292	209,355	107,549
351,362	4,211	209,342	107,475
352,377	4,203	209,176	107,375
353,392	3,967	209,061	107,143
354,406	4,217	208,837	107,192
355,421	194,218	1343,291	1432,980
356,435	154,999	1481,613	1433,097
