DTS Sentinel unit serial number:	SN410029Multiplexer serial number:	ORYXHardware model number:	OX2-SRSoftware version number:	ORYX F/W v4,00 Oryx Data Collector v3.7.2.0data status	okinstallation	B6 Nyhavnadifferential loss correction	single-endedforward channel	channel 2reverse channel	N/Adate	2023/12/09time	04:10:08forward acquisition time	300,00reverse acquisition time	0,00gamma	499,1914k internal	0,3150k external	0,3150temperature offset calibration	1,0000default loss term (dB/km)	0,3820temperature slope calibration	1,0000multiplexer offset coefficient	1,0000multiplexer slope coefficient	1,0000fibre end	0,00T internal ref (°C)	16,80T ext. ref 1 (°C)	1,30T ext. ref 2 (°C)	1,30length (m)	temperature (°C)	Stokes	anti-Stokes-744,400	-139,896	0,163	0,013
-743,385	-100,566	-0,337	-0,061
-742,371	-200,000	-0,035	0,171
-741,356	-170,712	-0,305	-0,008
-740,342	-131,717	-0,014	-0,001
-739,327	-86,872	-0,332	0,074
-738,312	-200,000	0,007	0,069
-737,298	-104,006	-0,244	0,042
-736,283	-157,443	0,053	-0,002
-735,269	-13,650	-0,273	0,130
-734,254	228,570	0,083	0,100
-733,239	3,778	-0,463	-0,249
-732,225	12,688	0,076	0,043
-731,210	46,529	0,129	0,088
-730,196	150,817	-0,023	-0,024
-729,181	-37,478	-0,075	-0,029
-728,167	161,881	0,069	-0,072
-727,152	-200,000	-0,004	-0,078
-726,137	-17,953	-0,118	-0,054
-725,123	-200,000	0,006	0,073
-724,108	-117,754	-0,074	-0,010
-723,094	253,694	0,078	-0,098
-722,079	42,603	0,064	-0,043
-721,064	-200,000	-0,032	-0,113
-720,050	107,118	0,041	-0,036
-719,035	522,585	0,018	-0,032
-718,021	-45,395	-0,080	-0,029
-717,006	704,013	-0,043	-0,084
-715,991	-200,000	-0,010	0,075
-714,977	-200,000	-0,040	-0,147
-713,962	-200,000	-0,004	0,114
-712,948	-200,000	0,007	-0,022
-711,933	800,000	0,024	-0,055
-710,918	-200,000	-0,011	0,035
-709,904	631,509	-0,028	-0,053
-708,889	-200,000	-0,009	-0,128
-707,875	93,154	0,084	-0,070
-706,860	800,000	0,081	-0,166
-705,845	35,587	0,057	-0,037
-704,831	-200,000	0,012	0,060
-703,816	-133,876	-0,072	0,007
-702,802	268,384	0,043	-0,055
-701,787	138,719	0,082	0,080
-700,772	-52,159	-0,052	-0,018
-699,758	55,101	-0,095	-0,068
-698,743	87,485	-0,078	-0,064
-697,729	361,141	0,075	0,112
-696,714	-200,000	-0,010	0,059
-695,699	800,000	-0,013	-0,037
-694,685	-200,000	-0,013	-0,133
-693,670	570,224	-0,021	-0,038
-692,656	618,912	-0,014	-0,027
-691,641	-32,313	-0,045	0,018
-690,627	800,000	0,024	-0,068
-689,612	65,754	0,044	0,033
-688,597	-200,000	0,000	0,014
-687,583	-61,209	-0,149	0,046
-686,568	-3,928	-0,038	-0,019
-685,554	-127,184	-0,110	-0,012
-684,539	30,108	-0,017	-0,011
-683,524	-195,635	-0,034	0,000
-682,510	618,336	-0,048	0,089
-681,495	103,074	-0,048	-0,042
-680,481	47,535	0,050	0,035
-679,466	170,133	0,027	-0,028
-678,451	138,869	0,023	0,022
-677,437	-200,000	-0,001	-0,165
-676,422	800,000	0,020	0,057
-675,408	89,066	0,124	0,102
-674,393	257,227	-0,049	0,062
-673,378	-124,307	-0,152	0,017
-672,364	442,657	-0,064	0,104
-671,349	-114,714	-0,052	0,007
-670,335	-121,284	-0,106	-0,013
-669,320	497,286	0,042	-0,072
-668,305	-51,864	0,121	0,041
-667,291	-64,814	-0,142	-0,042
-666,276	-15,865	-0,087	0,041
-665,262	12,976	-0,142	-0,080
-664,247	289,454	-0,020	-0,027
-663,232	-200,000	-0,006	0,098
-662,218	149,041	0,058	0,058
-661,203	127,660	-0,069	0,065
-660,189	582,773	0,083	0,150
-659,174	200,509	-0,058	0,066
-658,159	-33,721	-0,110	0,044
-657,145	149,342	-0,087	0,086
-656,130	-85,944	0,042	-0,010
-655,116	-200,000	-0,003	0,094
-654,101	240,250	0,044	-0,054
-653,086	178,717	-0,084	0,091
-652,072	248,283	-0,089	0,112
-651,057	800,000	-0,057	-0,118
-650,043	-200,000	0,007	-0,180
-649,028	800,000	-0,038	0,118
-648,014	800,000	-0,021	0,052
-646,999	100,895	-0,016	-0,014
-645,984	-144,315	-0,054	0,004
-644,970	-200,000	-0,016	-0,065
-643,955	-200,000	0,027	-0,114
-642,941	143,571	-0,103	-0,101
-641,926	-104,741	0,093	0,016
-640,911	-69,981	0,118	0,033
-639,897	-61,408	0,087	0,027
-638,882	119,086	0,121	-0,110
-637,868	-85,235	-0,123	0,028
-636,853	800,000	0,061	-0,140
-635,838	800,000	-0,041	-0,119
-634,824	744,670	0,032	-0,064
-633,809	-126,107	-0,048	0,005
-632,795	-200,000	0,012	-0,054
-631,780	-200,000	-0,013	0,096
-630,765	800,000	0,035	-0,088
-629,751	-77,412	-0,102	-0,026
-628,736	800,000	-0,067	0,149
-627,722	649,466	-0,030	0,057
-626,707	-147,874	-0,076	-0,005
-625,692	235,551	-0,106	-0,129
-624,678	800,000	0,024	0,073
-623,663	215,513	-0,052	0,061
-622,649	-200,000	0,006	-0,050
-621,634	-114,128	-0,055	0,008
-620,619	402,919	0,028	0,044
-619,605	173,724	-0,049	0,052
-618,590	-39,345	-0,102	-0,039
-617,576	10,057	0,093	-0,052
-616,561	186,517	0,031	-0,034
-615,546	-200,000	0,002	-0,086
-614,532	-167,447	0,085	0,002
-613,517	146,325	0,094	-0,093
-612,503	800,000	0,022	0,049
-611,488	389,304	-0,030	0,045
-610,474	43,391	-0,047	0,031
-609,459	-79,963	-0,056	-0,014
-608,444	195,065	-0,092	-0,103
-607,430	231,878	-0,044	-0,053
-606,415	-200,000	-0,015	-0,052
-605,401	-200,000	0,024	-0,080
-604,386	15,209	-0,097	0,056
-603,371	-200,000	0,010	-0,041
-602,357	586,541	0,021	-0,038
-601,342	12,175	-0,099	0,056
-600,328	209,670	0,017	-0,019
-599,313	-200,000	-0,006	0,098
-598,298	764,632	0,041	0,082
-597,284	800,000	0,029	0,075
-596,269	-139,025	0,156	0,012
-595,255	174,206	0,023	-0,024
-594,240	-200,000	0,014	0,066
-593,225	-104,279	-0,167	0,028
-592,211	10,932	0,037	-0,021
-591,196	-87,266	-0,075	0,017
-590,182	108,039	0,102	0,089
-589,167	245,168	-0,035	0,043
-588,152	-200,000	0,015	0,050
-587,138	-24,699	0,115	-0,050
-586,123	800,000	0,008	0,019
-585,109	523,102	-0,059	-0,103
-584,094	-11,138	0,074	-0,036
-583,079	-200,000	0,043	0,165
-582,065	-11,576	0,032	0,016
-581,050	-35,348	-0,024	0,009
-580,036	786,229	-0,022	0,045
-579,021	800,000	0,005	0,011
-578,006	28,389	0,053	-0,033
-576,992	800,000	0,017	-0,049
-575,977	68,405	0,170	0,128
-574,963	224,053	0,033	0,039
-573,948	-200,000	0,020	0,079
-572,934	504,536	-0,038	0,064
-571,919	59,533	-0,083	0,060
-570,904	21,096	-0,101	-0,060
-569,890	-40,940	-0,061	-0,023
-568,875	49,000	0,038	-0,026
-567,861	-85,241	0,059	-0,013
-566,846	800,000	0,026	0,075
-565,831	-200,000	-0,005	-0,098
-564,817	379,792	0,077	-0,116
-563,802	376,536	-0,070	-0,105
-562,788	-200,000	-0,006	0,110
-561,773	734,266	0,017	-0,033
-560,758	-121,662	-0,002	-0,000
-559,744	664,054	-0,009	-0,017
-558,729	45,279	-0,053	-0,036
-557,715	-38,438	-0,062	-0,024
-556,700	-79,246	-0,082	0,020
-555,685	564,520	0,038	0,068
-554,671	176,766	0,027	-0,029
-553,656	-200,000	-0,001	0,026
-552,642	-130,359	0,019	-0,002
-551,627	110,393	0,059	0,052
-550,612	800,000	0,042	0,124
-549,598	-154,138	-0,074	-0,004
-548,583	104,299	0,106	-0,092
-547,569	-118,799	0,111	0,014
-546,554	-200,000	0,005	0,032
-545,539	65,249	0,048	0,036
-544,525	-52,728	-0,083	0,028
-543,510	-44,707	-0,055	-0,020
-542,496	-51,096	0,070	0,024
-541,481	10,820	0,040	-0,022
-540,466	202,643	-0,027	-0,031
-539,452	-200,000	0,023	0,104
-538,437	455,891	0,127	0,207
-537,423	419,248	-0,076	0,119
-536,408	-196,470	-0,126	0,001
-535,393	38,080	0,035	-0,023
-534,379	-35,649	0,080	0,032
-533,364	-3,701	0,018	0,009
-532,350	98,203	-0,112	-0,094
-531,335	800,000	-0,047	0,113
-530,321	495,695	-0,034	-0,057
-529,306	-15,994	-0,193	-0,089
-528,291	149,489	0,124	-0,123
-527,277	-11,271	-0,097	0,047
-526,262	-33,334	0,071	0,028
-525,248	-200,000	-0,018	-0,067
-524,233	-200,000	-0,013	0,072
-523,218	-104,783	-0,148	0,025
-522,204	-51,750	-0,071	0,024
-521,189	-200,000	0,028	0,103
-520,175	188,136	-0,043	0,048
-519,160	337,653	-0,057	-0,081
-518,145	-200,000	0,003	0,121
-517,131	364,064	0,063	0,093
-516,116	-190,088	0,101	-0,001
-515,102	-13,926	0,047	-0,022
-514,087	214,414	-0,078	-0,091
-513,072	-54,406	-0,058	-0,019
-512,058	800,000	-0,030	-0,070
-511,043	5,757	-0,092	-0,050
-510,029	-200,000	0,020	0,076
-509,014	40,181	0,016	-0,011
-507,999	546,474	-0,047	-0,083
-506,985	37,144	-0,110	0,071
-505,970	48,020	0,056	-0,038
-504,956	21,862	0,084	-0,050
-503,941	-83,451	-0,032	-0,007
-502,926	800,000	0,038	-0,109
-501,912	256,511	0,059	-0,074
-500,897	-200,000	0,001	-0,137
-499,883	561,781	0,030	0,053
-498,868	80,596	-0,055	0,044
-497,853	-200,000	0,009	0,064
-496,839	-131,976	-0,075	-0,007
-495,824	157,618	0,117	0,118
-494,810	579,760	-0,039	-0,070
-493,795	186,933	0,032	0,035
-492,781	-9,999	-0,029	0,014
-491,766	800,000	-0,038	-0,123
-490,751	19,565	0,086	-0,051
-489,737	800,000	0,025	-0,056
-488,722	-200,000	-0,006	-0,081
-487,708	218,457	0,081	0,095
-486,693	26,285	-0,030	-0,018
-485,678	800,000	0,017	0,040
-484,664	109,073	0,166	-0,146
-483,649	800,000	-0,056	-0,166
-482,635	427,491	0,070	-0,110
-481,620	54,992	0,107	0,075
-480,605	-128,551	-0,175	-0,018
-479,591	-200,000	0,015	0,118
-478,576	-200,000	-0,007	-0,038
-477,562	29,587	-0,071	-0,044
-476,547	-200,000	-0,011	-0,076
-475,532	-200,000	0,006	0,044
-474,518	-15,759	0,045	0,021
-473,503	800,000	-0,014	0,032
-472,489	-37,437	0,062	0,024
-471,474	-72,302	0,040	0,011
-470,459	527,469	0,051	0,089
-469,445	-51,027	0,083	-0,028
-468,430	-20,836	-0,026	0,012
-467,416	-78,227	-0,020	0,005
-466,401	140,145	-0,088	0,085
-465,386	-54,716	-0,057	-0,019
-464,372	-200,000	-0,004	0,042
-463,357	460,630	0,099	-0,161
-462,343	-54,169	-0,026	-0,009
-461,328	110,423	-0,074	-0,065
-460,313	44,022	-0,057	-0,038
-459,299	235,865	-0,044	0,054
-458,284	7,591	0,057	-0,031
-457,270	-143,488	-0,136	-0,009
-456,255	135,429	-0,035	0,033
-455,241	226,671	-0,041	-0,049
-454,226	512,593	-0,068	-0,116
-453,211	-200,000	-0,003	-0,067
-452,197	209,743	0,046	-0,053
-451,182	62,054	-0,051	0,037
-450,168	42,855	-0,084	-0,056
-449,153	-39,887	-0,093	-0,035
-448,138	-157,177	0,130	-0,006
-447,124	800,000	-0,013	0,030
-446,109	258,415	0,046	0,058
-445,095	800,000	0,018	-0,038
-444,080	-200,000	-0,004	0,055
-443,065	-61,347	0,043	-0,013
-442,051	-114,042	-0,037	0,005
-441,036	-119,119	0,143	0,018
-440,022	-200,000	-0,028	-0,194
-439,007	178,436	0,034	0,037
-437,992	-200,000	0,015	0,132
-436,978	-200,000	-0,025	0,131
-435,963	137,443	0,060	-0,057
-434,949	-200,000	-0,002	0,011
-433,934	800,000	-0,103	-0,222
-432,919	201,063	0,065	0,073
-431,905	-75,317	0,100	0,026
-430,890	-104,390	-0,110	-0,018
-429,876	-200,000	-0,041	0,145
-428,861	443,016	-0,010	0,017
-427,846	-15,846	-0,107	0,050
-426,832	542,412	-0,048	0,085
-425,817	-200,000	0,005	0,056
-424,803	-6,208	-0,019	-0,009
-423,788	-200,000	-0,014	-0,061
-422,773	-103,775	0,089	-0,015
-421,759	-200,000	0,005	0,115
-420,744	660,902	0,023	-0,043
-419,730	56,628	-0,143	-0,102
-418,715	296,717	0,024	-0,033
-417,701	-73,144	-0,045	0,012
-416,686	-138,206	-0,063	-0,005
-415,671	-46,778	0,108	0,038
-414,657	-11,080	0,033	-0,016
-413,642	-114,774	0,052	-0,007
-412,628	800,000	0,056	-0,158
-411,613	-37,965	0,044	0,017
-410,598	-88,022	-0,020	-0,004
-409,584	800,000	0,020	0,052
-408,569	-200,000	0,002	0,048
-407,555	-200,000	0,007	0,023
-406,540	172,986	0,084	0,089
-405,525	800,000	-0,038	0,079
-404,511	32,198	-0,144	-0,090
-403,496	18,261	-0,050	-0,029
-402,482	16,291	-0,113	0,065
-401,467	800,000	-0,041	0,111
-400,452	381,865	0,090	-0,135
-399,438	125,075	-0,049	0,045
-398,423	518,907	-0,030	0,052
-397,409	0,704	-0,061	0,032
-396,394	220,096	-0,040	-0,047
-395,379	-200,000	-0,009	-0,051
-394,365	-52,487	0,041	-0,014
-393,350	-56,638	0,060	0,019
-392,336	-182,717	0,121	-0,002
-391,321	289,893	-0,078	-0,104
-390,306	85,946	-0,152	-0,122
-389,292	800,000	0,073	-0,225
-388,277	447,884	-0,018	-0,028
-387,263	-150,428	0,052	-0,003
-386,248	-200,000	0,023	0,110
-385,233	599,449	-0,050	0,091
-384,219	-59,737	0,064	-0,020
-383,204	103,000	-0,096	0,082
-382,190	425,408	-0,078	-0,123
-381,175	176,102	0,111	-0,117
-380,160	-107,846	0,098	0,015
-379,146	94,462	0,011	0,009
-378,131	54,034	-0,074	-0,051
-377,117	-150,787	0,100	-0,005
-376,102	-200,000	0,015	0,128
-375,088	305,958	-0,080	-0,108
-374,073	-200,000	-0,008	-0,044
-373,058	800,000	-0,004	0,010
-372,044	406,306	0,047	0,072
-371,029	-200,000	-0,010	-0,072
-370,015	-200,000	0,006	0,125
-369,000	-138,879	0,078	-0,006
-367,985	102,028	-0,082	-0,070
-366,971	-200,000	-0,007	-0,080
-365,956	320,380	0,074	0,103
-364,942	-200,000	-0,006	0,029
-363,927	-200,000	-0,011	0,052
-362,912	-81,344	0,069	-0,016
-361,898	-15,274	-0,090	0,042
-360,883	-200,000	-0,012	0,056
-359,869	93,163	0,064	-0,053
-358,854	-68,880	-0,040	-0,011
-357,839	-200,000	0,022	0,079
-356,825	800,000	0,044	0,113
-355,810	-51,505	0,069	-0,023
-354,796	800,000	-0,016	-0,037
-353,781	414,258	0,044	-0,068
-352,766	-96,761	-0,050	0,010
-351,752	-30,216	-0,024	0,010
-350,737	-200,000	-0,024	-0,087
-349,723	485,812	0,067	0,112
-348,708	649,016	0,088	0,165
-347,693	594,235	-0,062	0,112
-346,679	263,339	0,074	-0,094
-345,664	-15,762	0,047	-0,022
-344,650	-200,000	-0,021	0,069
-343,635	800,000	0,032	-0,098
-342,620	-82,265	0,125	0,029
-341,606	-200,000	0,024	0,085
-340,591	800,000	0,048	0,102
-339,577	-200,000	-0,003	-0,101
-338,562	-200,000	0,027	-0,096
-337,548	14,857	-0,018	0,010
-336,533	72,884	-0,059	0,044
-335,518	-200,000	0,036	0,241
-334,504	-200,000	0,009	0,043
-333,489	-173,395	0,063	0,001
-332,475	-200,000	-0,060	-0,221
-331,460	-200,000	-0,009	-0,031
-330,445	-200,000	0,016	-0,088
-329,431	-39,667	0,109	0,041
-328,416	-3,181	-0,105	-0,053
-327,402	587,708	-0,024	0,043
-326,387	-125,044	-0,058	0,006
-325,372	-159,136	-0,066	0,003
-324,358	-200,000	0,021	-0,186
-323,343	29,115	-0,020	0,012
-322,329	-62,048	-0,194	0,058
-321,314	-133,660	0,058	-0,005
-320,299	800,000	-0,017	0,049
-319,285	-88,136	0,161	0,035
-318,270	12,550	-0,077	0,043
-317,256	-200,000	0,002	-0,033
-316,241	800,000	-0,058	0,142
-315,226	-200,000	-0,009	0,038
-314,212	-131,558	0,070	-0,007
-313,197	800,000	0,029	-0,082
-312,183	800,000	0,034	0,104
-311,168	800,000	-0,042	0,088
-310,153	176,463	-0,074	-0,078
-309,139	25,262	0,064	0,039
-308,124	203,409	0,067	0,075
-307,110	-200,000	-0,014	-0,109
-306,095	300,401	-0,048	0,064
-305,080	-181,881	-0,037	0,000
-304,066	-127,042	-0,053	0,006
-303,051	618,627	-0,053	-0,096
-302,037	328,127	0,036	0,050
-301,022	-27,039	0,098	0,041
-300,008	-200,000	0,008	-0,076
-298,993	128,555	-0,022	0,021
-297,978	-200,000	-0,029	0,202
-296,964	-200,000	0,001	-0,090
-295,949	-200,000	0,010	-0,041
-294,935	52,307	-0,090	-0,062
-293,920	-143,033	0,063	-0,004
-292,905	-200,000	0,016	0,101
-291,891	800,000	0,047	-0,124
-290,876	-153,501	-0,049	-0,002
-289,862	145,643	-0,028	-0,027
-288,847	495,912	-0,064	0,108
-287,832	248,086	-0,040	-0,049
-286,818	104,807	0,078	0,067
-285,803	-3,520	0,017	-0,009
-284,789	-200,000	0,005	0,088
-283,774	-166,510	0,060	0,002
-282,759	5,890	0,098	-0,052
-281,745	-118,057	-0,099	0,013
-280,730	-3,826	-0,096	-0,048
-279,716	-200,000	-0,029	0,100
-278,701	-200,000	0,032	-0,115
-277,686	167,323	0,105	0,108
-276,672	-75,652	0,148	0,038
-275,657	-200,000	0,031	-0,125
-274,643	-200,000	0,004	-0,074
-273,628	179,086	-0,083	-0,088
-272,613	1,206	-0,008	-0,004
-271,599	800,000	-0,022	-0,050
-270,584	347,465	0,074	0,106
-269,570	-101,038	-0,062	-0,011
-268,555	-172,557	0,084	-0,002
-267,540	-126,185	0,081	0,009
-266,526	-200,000	-0,033	-0,109
-265,511	-165,667	0,027	0,001
-264,497	-200,000	0,034	-0,146
-263,482	-53,292	-0,099	-0,033
-262,467	-18,825	-0,121	0,055
-261,453	800,000	-0,010	-0,020
-260,438	-200,000	-0,001	-0,029
-259,424	577,660	-0,043	-0,077
-258,409	79,912	-0,075	-0,058
-257,395	246,530	0,050	0,062
-256,380	-200,000	-0,038	0,135
-255,365	-35,094	0,046	0,018
-254,351	27,796	-0,068	-0,042
-253,336	-25,894	0,138	-0,059
-252,322	137,584	-0,151	-0,143
-251,307	-80,002	-0,107	0,026
-250,292	91,997	-0,095	-0,077
-249,278	281,491	0,048	0,063
-248,263	800,000	-0,011	0,036
-247,249	93,228	-0,041	-0,033
-246,234	-200,000	-0,016	0,068
-245,219	-200,000	0,032	0,108
-244,205	-200,000	0,004	-0,052
-243,190	-167,152	0,145	0,004
-242,176	151,782	0,063	-0,062
-241,161	373,646	0,083	-0,123
-240,146	-50,778	-0,128	-0,044
-239,132	58,206	-0,084	-0,060
-238,117	338,842	-0,026	-0,037
-237,103	-200,000	0,012	-0,130
-236,088	-200,000	-0,004	0,059
-235,073	-39,089	0,159	-0,060
-234,059	359,453	-0,051	0,075
-233,044	-94,578	0,051	-0,010
-232,030	-200,000	-0,024	-0,155
-231,015	29,346	-0,018	-0,011
-230,000	620,746	0,056	-0,102
-228,986	-200,000	-0,014	0,095
-227,971	209,683	-0,100	0,113
-226,957	-200,000	0,007	0,137
-225,942	800,000	-0,026	0,081
-224,927	139,991	0,070	0,067
-223,913	100,875	0,061	-0,052
-222,898	633,833	0,032	0,058
-221,884	-97,266	-0,109	-0,020
-220,869	194,030	-0,058	-0,064
-219,855	-55,790	0,161	0,052
-218,840	800,000	0,029	0,060
-217,825	45,906	-0,034	0,023
-216,811	144,320	0,129	-0,124
-215,796	712,884	0,031	-0,059
-214,782	800,000	0,036	-0,075
-213,767	-85,942	-0,049	-0,011
-212,752	170,548	-0,053	0,054
-211,738	-72,135	0,052	0,014
-210,723	-8,169	-0,105	-0,051
-209,709	17,403	-0,090	0,052
-208,694	-61,737	-0,068	-0,020
-207,679	-86,918	0,077	-0,017
-206,665	716,782	0,080	0,154
-205,650	-135,316	0,097	-0,008
-204,636	-200,000	-0,002	0,081
-203,621	138,662	-0,034	0,032
-202,606	333,324	-0,065	-0,091
-201,592	687,730	0,013	0,024
-200,577	60,985	-0,063	0,045
-199,563	115,232	-0,051	-0,046
-198,548	-74,096	0,060	0,016
-197,533	128,579	0,098	0,090
-196,519	800,000	0,030	-0,075
-195,504	136,020	-0,088	-0,083
-194,490	300,473	-0,061	0,081
-193,475	75,296	0,083	0,064
-192,460	-33,125	0,079	0,032
-191,446	-200,000	0,007	0,129
-190,431	-38,894	-0,104	0,039
-189,417	661,213	0,042	-0,078
-188,402	-147,682	-0,021	-0,001
-187,387	421,655	-0,078	-0,122
-186,373	477,777	-0,023	-0,038
-185,358	66,431	0,029	0,021
-184,344	21,853	0,167	0,098
-183,329	-105,420	0,138	-0,023
-182,315	88,279	0,013	0,011
-181,300	-100,673	-0,111	0,020
-180,285	-11,790	-0,047	-0,022
-179,271	-200,000	0,003	0,058
-178,256	-101,696	0,120	-0,021
-177,242	-200,000	-0,003	0,035
-176,227	565,820	0,032	-0,057
-175,212	3,171	-0,109	-0,057
-174,198	131,380	0,011	0,010
-173,183	-200,000	-0,009	-0,080
-172,169	441,320	-0,047	-0,075
-171,154	-200,000	0,026	-0,193
-170,139	-140,718	-0,151	0,011
-169,125	800,000	0,008	0,021
-168,110	642,382	-0,085	0,157
-167,096	-86,105	0,056	-0,012
-166,081	116,981	0,025	0,022
-165,066	202,251	0,053	0,060
-164,052	-200,000	0,001	-0,017
-163,037	3,792	0,102	0,054
-162,023	290,556	0,103	0,135
-161,008	800,000	-0,040	0,109
-159,993	86,627	-0,044	0,035
-158,979	88,474	-0,034	0,027
-157,964	-1,318	-0,080	-0,041
-156,950	-45,404	0,126	-0,045
-155,935	-200,000	0,014	0,184
-154,920	-200,000	0,116	-0,000
-153,906	800,000	0,066	0,153
-152,891	715,440	-0,032	-0,062
-151,877	497,317	0,057	0,094
-150,862	208,170	0,080	-0,090
-149,847	-200,000	-0,003	-0,062
-148,833	800,000	-0,025	-0,054
-147,818	58,503	0,037	-0,026
-146,804	141,543	0,101	-0,097
-145,789	-26,673	-0,007	-0,003
-144,775	102,079	0,110	-0,092
-143,760	-80,912	-0,041	0,010
-142,745	-200,000	0,006	0,043
-141,731	-133,211	0,125	-0,011
-140,716	-36,138	0,102	-0,040
-139,702	509,067	-0,047	0,079
-138,687	302,467	0,073	0,098
-137,672	276,080	0,039	-0,051
-136,658	36,756	0,064	0,041
-135,643	-200,000	0,001	0,049
-134,629	-200,000	0,033	0,163
-133,614	-164,288	-0,075	0,002
-132,599	800,000	0,015	0,033
-131,585	-60,872	-0,132	0,040
-130,570	-105,171	-0,029	-0,005
-129,556	781,331	-0,044	-0,087
-128,541	142,494	0,117	-0,112
-127,526	800,000	-0,041	0,122
-126,512	194,348	0,055	0,060
-125,497	-144,855	0,096	0,006
-124,483	-200,000	0,000	0,122
-123,468	-200,000	0,006	0,099
-122,453	-200,000	-0,006	-0,069
-121,439	238,237	-0,037	-0,044
-120,424	787,332	-0,044	-0,088
-119,410	256,697	0,044	0,054
-118,395	-200,000	-0,006	0,035
-117,380	-36,553	0,086	0,033
-116,366	150,354	-0,040	-0,039
-115,351	-200,000	0,035	-0,115
-114,337	-61,641	0,104	0,031
-113,322	137,467	-0,063	0,060
-112,307	800,000	0,037	0,107
-111,293	-200,000	-0,028	0,122
-110,278	800,000	0,064	0,179
-109,264	-200,000	-0,003	0,049
-108,249	800,000	0,037	-0,077
-107,234	194,779	-0,073	0,080
-106,220	104,259	-0,083	-0,070
-105,205	-26,704	-0,022	-0,009
-104,191	-53,230	0,075	0,025
-103,176	-21,382	0,093	0,041
-102,162	800,000	-0,014	0,028
-101,147	60,837	0,037	-0,026
-100,132	-200,000	-0,018	-0,092
-99,118	-14,859	0,095	0,044
-98,103	800,000	0,058	0,181
-97,089	-52,522	-0,041	0,013
-96,074	-80,541	0,100	-0,024
-95,059	138,005	-0,107	0,101
-94,045	800,000	-0,033	-0,103
-93,030	-195,715	-0,099	0,000
-92,016	44,415	-0,113	0,074
-91,001	588,839	0,008	-0,014
-89,986	331,530	-0,018	-0,025
-88,972	-28,710	0,176	-0,072
-87,957	425,440	0,054	0,084
-86,943	48,718	-0,034	-0,023
-85,928	-17,211	-0,044	0,020
-84,913	-200,000	-0,037	0,124
-83,899	432,718	-0,015	-0,024
-82,884	-200,000	0,007	0,139
-81,870	-149,903	0,218	0,012
-80,855	-137,809	-0,139	0,011
-79,840	2,537	0,022	0,011
-78,826	565,237	0,014	-0,025
-77,811	167,668	0,111	-0,114
-76,797	-200,000	0,038	-0,155
-75,782	800,000	0,040	-0,109
-74,767	-79,406	0,056	0,014
-73,753	-75,815	0,117	-0,030
-72,738	569,022	-0,078	-0,137
-71,724	-64,266	0,070	-0,020
-70,709	-4,464	-0,079	0,039
-69,694	-171,348	-0,154	0,004
-68,680	405,987	-0,028	0,042
-67,665	302,730	-0,046	0,061
-66,651	169,047	0,065	-0,067
-65,636	275,856	-0,017	0,022
-64,622	-44,997	-0,070	0,025
-63,607	155,215	-0,018	-0,018
-62,592	207,879	-0,175	-0,197
-61,578	161,832	0,042	-0,042
-60,563	153,549	0,111	0,109
-59,549	-200,000	0,002	0,047
-58,534	-7,577	-1,935	-0,938
-57,519	800,000	-0,414	-1,119
-56,505	-200,000	-1,184	-4,939
-55,490	-71,618	0,760	0,203
-54,476	800,000	5,391	12,456
-53,461	-200,000	16,811	273,310
-52,446	800,000	715,756	2191,153
-51,432	534,353	1628,896	2788,328
-50,417	113,835	1624,483	1420,387
-49,403	76,987	1285,371	981,174
-48,388	33,890	1032,582	645,233
-47,373	20,509	994,914	577,279
-46,359	19,205	983,332	566,229
-45,344	17,107	978,987	556,789
-44,330	17,277	977,821	556,664
-43,315	16,878	976,129	554,364
-42,300	16,855	975,136	553,705
-41,286	16,841	973,860	552,910
-40,271	16,828	972,890	552,297
-39,257	16,798	972,298	551,841
-38,242	16,879	971,256	551,492
-37,227	16,830	970,447	550,851
-36,213	16,802	969,796	550,367
-35,198	16,793	968,889	549,803
-34,184	16,842	968,103	549,494
-33,169	16,791	967,197	548,793
-32,154	16,818	966,337	548,371
-31,140	16,851	965,349	547,893
-30,125	16,885	964,509	547,507
-29,111	16,917	963,583	547,064
-28,096	16,835	963,091	546,495
-27,082	16,867	962,303	546,131
-26,067	16,813	961,767	545,631
-25,052	16,807	960,799	545,040
-24,038	16,875	960,178	544,885
-23,023	16,858	959,490	544,418
-22,009	16,840	958,795	543,944
-20,994	16,875	958,160	543,677
-19,979	16,792	957,474	542,998
-18,965	16,814	956,848	542,691
-17,950	16,829	956,132	542,312
-16,936	16,788	955,651	541,887
-15,921	16,744	954,895	541,293
-14,906	16,660	954,171	540,592
-13,892	16,756	953,467	540,481
-12,877	16,706	952,802	539,921
-11,863	16,663	952,232	539,441
-10,848	16,688	951,905	539,312
-9,833	16,811	951,302	539,344
-8,819	16,867	950,362	538,970
-7,804	16,768	949,782	538,301
-6,790	16,624	949,465	537,640
-5,775	16,754	948,751	537,630
-4,760	16,732	948,152	537,200
-3,746	16,775	947,431	536,906
-2,731	16,618	946,665	535,949
-1,717	16,566	945,989	535,383
-0,702	16,620	945,457	535,231
0,313	16,367	944,831	534,880
1,327	19,727	943,114	544,524
2,342	29,081	798,157	485,750
3,356	26,260	449,518	269,323
4,371	-3,242	296,811	148,192
5,386	-7,137	278,093	135,124
6,400	-8,288	272,386	131,265
7,415	-8,827	270,129	129,666
8,429	-8,787	268,664	128,989
9,444	-8,833	267,636	128,441
10,459	-9,071	267,118	127,964
11,473	-9,032	266,375	127,632
12,488	-9,136	265,878	127,287
13,502	-9,350	265,162	126,739
14,517	-9,419	264,913	126,546
15,531	-9,505	264,293	126,160
16,546	-9,493	263,914	125,979
17,561	-9,464	263,468	125,781
18,575	-9,387	263,341	125,779
19,590	-9,557	262,951	125,428
20,604	-9,562	262,548	125,220
21,619	-9,557	262,105	125,002
22,634	-9,559	261,885	124,885
23,648	-9,758	261,604	124,561
24,663	-9,755	261,341	124,427
25,677	-9,818	261,034	124,213
26,692	-9,673	260,873	124,256
27,707	-9,638	260,535	124,115
28,721	-9,881	260,283	123,767
29,736	-9,720	260,106	123,816
30,750	-9,999	259,734	123,379
31,765	-9,931	259,533	123,333
32,780	-10,051	259,408	123,156
33,794	-9,857	259,108	123,175
34,809	-9,658	258,812	123,199
35,823	-9,970	258,474	122,751
36,838	-9,977	258,383	122,691
37,853	-10,073	258,104	122,463
38,867	-9,811	257,831	122,554
39,882	-9,708	257,659	122,551
40,896	-9,887	257,413	122,266
41,911	-10,094	257,137	121,942
42,926	-9,873	256,871	121,999
43,940	-9,980	256,617	121,773
44,955	-9,999	256,431	121,658
45,969	-10,028	256,210	121,517
46,984	-10,406	255,877	121,017
47,999	-10,743	255,614	120,587
49,013	-10,523	255,397	120,667
50,028	-10,900	255,303	120,282
51,042	-10,935	254,878	120,041
52,057	-10,879	254,782	120,033
53,071	-10,779	254,472	119,964
54,086	-10,962	254,507	119,810
55,101	-10,561	254,135	119,973
56,115	-10,365	253,961	120,050
57,130	-9,797	253,922	120,514
58,144	-9,224	253,658	120,874
59,159	-9,556	253,533	120,517
60,174	-9,562	253,460	120,466
61,188	-9,566	253,109	120,285
62,203	-9,630	252,908	120,123
63,217	-9,764	252,769	119,930
64,232	-9,659	252,628	119,944
65,247	-9,442	252,289	119,959
66,261	-9,554	251,996	119,713
67,276	-10,143	251,779	119,093
68,290	-10,316	251,499	118,802
69,305	-10,314	251,361	118,727
70,320	-10,168	251,069	118,704
71,334	-10,008	251,067	118,829
72,349	-9,581	250,972	119,139
73,363	-9,362	250,704	119,189
74,378	-9,614	250,548	118,888
75,393	-9,673	250,187	118,656
76,407	-9,687	249,925	118,509
77,422	-9,932	249,814	118,238
78,436	-9,700	249,751	118,395
79,451	-9,508	249,319	118,343
80,466	-9,649	248,984	118,053
81,480	-10,026	248,927	117,696
82,495	-10,093	248,689	117,517
83,509	-10,087	248,485	117,415
84,524	-10,307	248,327	117,144
85,539	-10,349	248,065	116,973
86,553	-10,315	247,900	116,914
87,568	-10,191	247,615	116,874
88,582	-10,093	247,440	116,863
89,597	-10,042	247,377	116,866
90,611	-9,890	247,142	116,873
91,626	-9,724	246,966	116,918
92,641	-9,971	246,997	116,715
93,655	-9,890	246,735	116,649
94,670	-10,075	246,464	116,355
95,684	-9,886	246,187	116,373
96,699	-10,015	246,101	116,214
97,714	-9,957	245,771	116,096
98,728	-10,197	245,601	115,804
99,743	-10,515	245,459	115,461
100,757	-10,394	245,248	115,452
101,772	-10,202	245,030	115,500
102,787	-10,200	244,772	115,370
103,801	-10,168	244,856	115,426
104,816	-9,823	244,440	115,507
105,830	-9,962	244,543	115,429
106,845	-9,631	244,308	115,583
107,860	-9,566	244,021	115,490
108,874	-9,901	243,765	115,081
109,889	-9,890	243,768	115,082
110,903	-10,007	243,464	114,831
111,918	-10,123	243,386	114,689
112,933	-9,828	243,076	114,776
113,947	-9,784	242,869	114,704
114,962	-9,634	242,738	114,755
115,976	-9,859	242,534	114,463
116,991	-9,773	242,447	114,483
118,006	-9,856	242,298	114,334
119,020	-9,645	241,921	114,319
120,035	-9,621	241,910	114,324
121,049	-9,711	241,890	114,230
122,064	-9,749	241,651	114,076
123,079	-9,613	241,389	114,054
124,093	-9,779	241,242	113,838
125,108	-10,028	240,973	113,498
126,122	-10,107	240,595	113,244
127,137	-10,439	240,470	112,904
128,151	-10,162	240,384	113,080
129,166	-10,095	240,254	113,063
130,181	-10,178	239,970	112,852
131,195	-10,262	239,786	112,687
132,210	-10,036	239,751	112,845
133,224	-9,890	239,622	112,892
134,239	-9,745	239,491	112,938
135,254	-9,584	239,251	112,947
136,268	-10,002	239,005	112,481
137,283	-10,021	238,769	112,344
138,297	-10,333	238,486	111,949
139,312	-10,208	238,329	111,966
140,327	-9,934	238,436	112,228
141,341	-9,454	238,319	112,550
142,356	-9,465	238,354	112,548
143,370	-9,443	238,008	112,393
144,385	-9,523	238,003	112,316
145,400	-9,353	237,595	112,250
146,414	-9,134	237,437	112,342
147,429	-9,508	237,220	111,929
148,443	-9,351	237,153	112,013
149,458	-9,303	237,061	111,998
150,473	-9,612	236,896	111,662
151,487	-9,409	236,523	111,639
152,502	-9,374	236,361	111,580
153,516	-9,345	236,222	111,528
154,531	-9,499	236,037	111,307
155,546	-9,617	235,884	111,131
156,560	-9,576	235,761	111,096
157,575	-9,447	235,547	111,089
158,589	-9,503	235,369	110,951
159,604	-9,515	235,487	110,986
160,619	-9,399	235,117	110,894
161,633	-9,369	235,017	110,861
162,648	-9,295	234,748	110,783
163,662	-9,307	234,656	110,721
164,677	-9,319	234,536	110,644
165,692	-9,445	234,344	110,444
166,706	-9,274	234,360	110,577
167,721	-9,353	234,062	110,364
168,735	-9,082	233,920	110,501
169,750	-9,147	233,912	110,437
170,764	-9,282	233,538	110,144
171,779	-9,552	233,440	109,874
172,794	-9,382	233,379	109,970
173,808	-9,289	233,180	109,940
174,823	-9,992	232,698	109,150
175,837	-10,103	232,455	108,939
176,852	-9,551	232,474	109,371
177,867	-9,300	232,539	109,590
178,881	-9,306	232,285	109,456
179,896	-9,333	232,193	109,382
180,910	-9,067	231,956	109,469
181,925	-9,315	231,936	109,255
182,940	-9,207	231,719	109,227
183,954	-9,197	231,696	109,215
184,969	-9,214	231,341	109,024
185,983	-9,183	231,343	109,040
186,998	-9,144	231,177	108,982
188,013	-9,065	230,945	108,925
189,027	-9,212	230,803	108,733
190,042	-9,051	230,731	108,815
191,056	-9,063	230,544	108,708
192,071	-8,916	230,393	108,742
193,086	-8,920	230,220	108,647
194,100	-8,801	230,254	108,746
195,115	-8,502	230,145	108,917
196,129	-7,747	230,379	109,604
197,144	-3,619	231,409	113,302
198,159	-0,191	232,622	116,566
199,173	2,942	233,460	119,428
200,188	3,640	233,375	119,919
201,202	3,733	233,364	119,975
202,217	3,732	233,002	119,778
203,232	3,946	233,055	119,961
204,246	3,818	232,989	119,817
205,261	3,995	232,758	119,826
206,275	4,166	232,711	119,924
207,290	3,932	232,675	119,712
208,304	4,178	232,344	119,722
209,319	4,059	232,065	119,476
210,334	4,081	231,989	119,443
211,348	3,825	231,769	119,120
212,363	3,506	231,450	118,699
213,377	3,003	231,235	118,189
214,392	3,171	231,117	118,248
215,407	3,430	230,926	118,340
216,421	3,434	230,797	118,267
217,436	3,244	230,671	118,045
218,450	3,145	230,394	117,816
219,465	3,240	230,276	117,818
220,480	2,954	230,074	117,485
221,494	3,254	229,882	117,607
222,509	3,240	229,927	117,608
223,523	3,359	229,808	117,629
224,538	3,278	229,651	117,475
225,553	3,276	229,477	117,374
226,567	3,563	229,300	117,494
227,582	3,545	229,239	117,438
228,596	3,862	229,142	117,620
229,611	3,561	228,883	117,247
230,626	3,152	228,600	116,779
231,640	3,279	228,572	116,852
232,655	3,402	228,474	116,885
233,669	3,882	228,454	117,230
234,684	4,048	228,363	117,299
235,699	3,785	228,154	116,982
236,713	3,565	227,990	116,719
237,728	3,490	227,624	116,464
238,742	3,220	227,534	116,203
239,757	3,379	227,271	116,179
240,772	3,056	227,256	115,916
241,786	3,208	227,023	115,903
242,801	3,342	226,997	115,980
243,815	3,568	226,829	116,055
244,830	3,722	226,777	116,134
245,844	3,383	226,518	115,736
246,859	3,372	226,316	115,613
247,874	3,553	226,242	115,702
248,888	3,757	226,151	115,799
249,903	3,692	225,894	115,608
250,917	3,420	225,723	115,305
251,932	3,489	225,570	115,269
252,947	3,307	225,454	115,063
253,961	3,107	225,373	114,861
254,976	3,193	225,125	114,788
255,990	3,739	225,066	115,158
257,005	3,379	224,933	114,810
258,020	3,474	224,821	114,813
259,034	3,662	224,791	114,928
260,049	3,748	224,587	114,879
261,063	3,487	224,437	114,596
262,078	3,698	224,311	114,679
263,093	3,742	224,103	114,596
264,107	3,822	223,807	114,494
265,122	3,401	223,895	114,215
266,136	3,652	223,794	114,340
267,151	3,879	223,575	114,386
268,166	3,408	223,313	113,893
269,180	3,068	223,074	113,508
270,195	3,140	223,155	113,593
271,209	3,121	222,979	113,479
272,224	3,063	222,911	113,391
273,239	3,426	222,629	113,506
274,253	3,317	222,480	113,340
275,268	3,341	222,247	113,229
276,282	2,978	222,145	112,898
277,297	3,083	221,819	112,800
278,312	3,265	221,735	112,881
279,326	3,384	221,640	112,911
280,341	3,568	221,527	112,978
281,355	3,426	221,461	112,830
282,370	3,341	221,305	112,678
283,384	2,974	221,145	112,317
284,399	2,989	220,828	112,157
285,414	2,862	220,786	112,032
286,428	3,205	220,731	112,246
287,443	3,469	220,630	112,378
288,457	3,391	220,552	112,272
289,472	3,394	220,317	112,144
290,487	2,849	220,067	111,608
291,501	2,932	219,744	111,495
292,516	2,974	219,856	111,573
293,530	3,183	219,682	111,627
294,545	3,097	219,528	111,476
295,560	3,293	219,506	111,598
296,574	3,419	219,310	111,580
297,589	3,244	219,268	111,421
298,603	3,434	219,115	111,471
299,618	3,425	218,795	111,292
300,633	3,502	218,852	111,367
301,647	3,558	218,768	111,355
302,662	3,788	218,434	111,342
303,676	3,623	218,431	111,211
304,691	3,459	218,312	111,021
305,706	3,712	218,147	111,111
306,720	3,525	218,037	110,910
307,735	3,368	217,753	110,642
308,749	3,254	217,652	110,499
309,764	3,373	217,682	110,590
310,779	3,707	217,447	110,701
311,793	3,462	217,308	110,444
312,808	3,689	217,138	110,512
313,822	3,437	217,034	110,267
314,837	3,445	216,718	110,102
315,852	3,176	216,496	109,787
316,866	3,394	216,500	109,936
317,881	3,390	216,326	109,835
318,895	3,388	216,139	109,729
319,910	3,139	216,128	109,535
320,925	3,218	215,924	109,478
321,939	3,127	215,872	109,377
322,954	3,139	215,723	109,301
323,968	3,403	215,680	109,457
324,983	3,441	215,534	109,401
325,997	3,606	215,372	109,426
327,012	3,352	215,162	109,129
328,027	3,519	215,140	109,227
329,041	3,711	215,035	109,300
330,056	3,888	214,862	109,329
331,070	3,410	214,619	108,856
332,085	3,357	214,423	108,709
333,100	3,013	214,407	108,447
334,114	3,265	214,169	108,496
335,129	3,562	214,027	108,625
336,143	3,667	213,946	108,648
337,158	3,310	213,849	108,337
338,173	3,282	213,729	108,246
339,187	3,398	213,526	108,216
340,202	3,373	213,181	108,014
341,216	3,134	213,078	107,783
342,231	3,356	213,155	107,969
343,246	3,159	212,937	107,710
344,260	2,972	212,938	107,569
345,275	3,323	212,680	107,676
346,289	3,549	212,665	107,818
347,304	3,335	212,610	107,630
348,319	3,586	212,284	107,632
349,333	3,264	212,246	107,377
350,348	3,299	212,181	107,359
351,362	3,685	211,924	107,490
352,377	3,579	211,849	107,368
353,392	3,382	211,732	107,162
354,406	3,397	211,627	107,109
355,421	196,440	1341,048	1425,376
356,435	156,953	1478,659	1425,374
