DTS Sentinel unit serial number:	SN410029Multiplexer serial number:	ORYXHardware model number:	OX2-SRSoftware version number:	ORYX F/W v4,00 Oryx Data Collector v3.7.2.0data status	okinstallation	B6 Nyhavnadifferential loss correction	single-endedforward channel	channel 2reverse channel	N/Adate	2023/12/08time	18:15:08forward acquisition time	300,00reverse acquisition time	0,00gamma	499,1914k internal	0,3158k external	0,3158temperature offset calibration	1,0000default loss term (dB/km)	0,3820temperature slope calibration	1,0000multiplexer offset coefficient	1,0000multiplexer slope coefficient	1,0000fibre end	0,00T internal ref (°C)	15,25T ext. ref 1 (°C)	-1,24T ext. ref 2 (°C)	-1,25length (m)	temperature (°C)	Stokes	anti-Stokes-744,400	-60,860	0,228	-0,071
-743,385	-136,715	-0,436	0,037
-742,371	173,972	0,133	0,142
-741,356	-107,668	-0,182	-0,029
-740,342	135,791	0,013	0,013
-739,327	-58,873	-0,390	-0,124
-738,312	30,725	0,125	-0,079
-737,298	-99,397	-0,211	0,039
-736,283	-56,548	0,085	0,027
-735,269	-114,596	-0,367	0,051
-734,254	46,052	0,159	0,108
-733,239	-40,761	-0,456	-0,173
-732,225	136,421	0,084	0,081
-731,210	217,843	-0,049	0,058
-730,196	-25,380	0,086	-0,037
-729,181	252,337	-0,061	0,077
-728,167	41,228	0,117	-0,078
-727,152	-200,000	-0,020	-0,119
-726,137	-200,000	-0,041	-0,160
-725,123	0,195	-0,074	0,039
-724,108	-200,000	0,016	-0,059
-723,094	74,339	-0,105	0,081
-722,079	-114,493	-0,070	0,010
-721,064	-200,000	-0,016	-0,089
-720,050	-156,069	0,123	0,006
-719,035	283,248	-0,130	-0,173
-718,021	-120,619	-0,064	0,008
-717,006	800,000	-0,034	-0,100
-715,991	471,614	-0,032	-0,053
-714,977	442,439	-0,044	0,072
-713,962	503,386	-0,074	0,127
-712,948	97,758	-0,051	-0,043
-711,933	800,000	0,027	0,058
-710,918	436,877	-0,065	-0,105
-709,904	800,000	-0,079	-0,193
-708,889	-74,205	0,038	0,010
-707,875	-200,000	0,025	-0,132
-706,860	61,161	-0,072	0,052
-705,845	-200,000	-0,010	0,185
-704,831	-200,000	0,009	-0,033
-703,816	-173,306	0,097	-0,002
-702,802	-200,000	-0,003	0,045
-701,787	-200,000	-0,015	0,069
-700,772	800,000	-0,043	0,099
-699,758	-67,015	-0,037	0,011
-698,743	317,309	0,032	0,045
-697,729	60,062	0,071	0,052
-696,714	153,281	0,022	-0,022
-695,699	-25,497	0,049	0,021
-694,685	154,385	-0,078	-0,079
-693,670	665,984	0,073	-0,140
-692,656	-200,000	-0,022	-0,082
-691,641	-200,000	-0,017	0,071
-690,627	157,289	-0,043	0,044
-689,612	-53,787	-0,029	-0,010
-688,597	-200,000	0,021	-0,106
-687,583	68,673	-0,119	-0,090
-686,568	800,000	-0,012	-0,031
-685,554	517,162	-0,083	-0,144
-684,539	609,665	0,056	-0,104
-683,524	-127,752	-0,121	-0,013
-682,510	-200,000	0,001	-0,079
-681,495	-114,158	-0,119	0,017
-680,481	-200,000	-0,010	-0,035
-679,466	79,573	-0,144	-0,114
-678,451	41,162	0,091	-0,060
-677,437	172,620	0,102	0,108
-676,422	140,413	-0,076	0,074
-675,408	-200,000	0,007	-0,038
-674,393	800,000	-0,023	0,058
-673,378	283,596	0,034	0,045
-672,364	-94,904	0,062	-0,012
-671,349	-200,000	-0,006	-0,049
-670,335	800,000	0,057	-0,141
-669,320	98,771	-0,090	-0,077
-668,305	31,525	-0,103	0,065
-667,291	37,046	0,044	0,029
-666,276	712,633	-0,065	-0,127
-665,262	-200,000	-0,011	-0,042
-664,247	-89,756	0,071	-0,015
-663,232	800,000	0,040	-0,121
-662,218	-11,953	0,053	0,025
-661,203	581,380	-0,046	-0,084
-660,189	5,888	-0,052	0,028
-659,174	30,026	0,043	0,027
-658,159	-200,000	-0,031	0,104
-657,145	289,328	-0,100	-0,134
-656,130	286,156	-0,032	0,043
-655,116	0,829	0,111	0,058
-654,101	-200,000	0,019	-0,096
-653,086	296,920	0,025	-0,034
-652,072	44,507	-0,125	-0,084
-651,057	-200,000	-0,019	-0,099
-650,043	-71,700	0,037	-0,010
-649,028	-108,534	0,026	-0,004
-648,014	-200,000	0,017	0,166
-646,999	-200,000	-0,021	0,136
-645,984	800,000	0,050	-0,105
-644,970	48,618	-0,046	0,032
-643,955	-200,000	0,008	-0,065
-642,941	-200,000	-0,018	-0,117
-641,926	409,866	-0,011	-0,016
-640,911	-111,005	-0,062	0,009
-639,897	800,000	0,058	-0,125
-638,882	800,000	0,036	-0,074
-637,868	-200,000	-0,011	-0,132
-636,853	-154,284	-0,235	-0,011
-635,838	800,000	-0,048	0,124
-634,824	800,000	-0,013	0,033
-633,809	-200,000	0,011	-0,049
-632,795	-200,000	0,001	0,070
-631,780	-200,000	0,012	0,106
-630,765	-84,488	-0,050	0,012
-629,751	-124,005	0,076	0,009
-628,736	-6,206	0,049	0,024
-627,722	65,312	-0,068	-0,051
-626,707	-85,386	-0,116	-0,026
-625,692	-112,239	-0,104	0,015
-624,678	-200,000	-0,001	0,073
-623,663	-14,331	-0,071	-0,033
-622,649	275,761	0,036	-0,047
-621,634	213,667	-0,036	0,042
-620,619	60,283	0,099	-0,072
-619,605	31,217	-0,124	0,078
-618,590	562,967	0,040	0,072
-617,576	-127,330	-0,099	0,010
-616,561	800,000	-0,087	0,178
-615,546	-192,369	0,066	-0,000
-614,532	75,019	-0,140	0,108
-613,517	120,422	0,061	0,056
-612,503	197,656	-0,070	0,078
-611,488	800,000	-0,049	0,107
-610,474	546,420	0,066	-0,116
-609,459	-200,000	-0,008	0,104
-608,444	9,403	0,051	-0,028
-607,430	666,040	-0,034	-0,065
-606,415	-64,972	-0,109	0,032
-605,401	91,686	0,030	0,025
-604,386	-44,077	-0,115	-0,042
-603,371	157,036	0,040	0,041
-602,357	-92,589	-0,092	-0,019
-601,342	-108,320	0,086	-0,013
-600,328	93,712	-0,111	-0,092
-599,313	-95,042	-0,109	-0,021
-598,298	113,907	0,115	0,102
-597,284	66,021	0,064	0,047
-596,269	-22,431	-0,104	-0,046
-595,255	137,788	0,061	-0,059
-594,240	-34,229	0,142	0,057
-593,225	-200,000	-0,073	-0,291
-592,211	77,594	0,068	-0,053
-591,196	800,000	-0,039	-0,089
-590,182	800,000	-0,054	0,175
-589,167	-99,231	0,098	0,018
-588,152	10,020	-0,110	0,061
-587,138	-200,000	0,014	0,060
-586,123	-200,000	0,020	-0,086
-585,109	120,626	-0,084	-0,076
-584,094	46,427	0,054	0,037
-583,079	518,415	0,091	0,157
-582,065	-42,061	-0,169	0,063
-581,050	-200,000	-0,042	0,162
-580,036	-46,081	-0,101	0,036
-579,021	-200,000	-0,036	-0,237
-578,006	683,794	0,048	-0,092
-576,992	365,314	-0,093	-0,137
-575,977	97,876	-0,074	0,062
-574,963	800,000	-0,015	0,046
-573,948	148,121	-0,067	-0,067
-572,934	-200,000	-0,035	-0,167
-571,919	-200,000	-0,007	-0,108
-570,904	28,498	-0,125	-0,077
-569,890	-124,179	-0,065	0,007
-568,875	666,593	0,100	-0,189
-567,861	-200,000	-0,004	-0,191
-566,846	39,040	0,056	-0,036
-565,831	43,587	0,012	0,008
-564,817	-53,183	-0,100	0,034
-563,802	800,000	-0,031	-0,078
-562,788	-14,222	0,028	-0,013
-561,773	-200,000	0,002	0,073
-560,758	-200,000	0,023	0,093
-559,744	-200,000	0,025	0,159
-558,729	-96,489	0,041	0,008
-557,715	-18,015	-0,065	0,030
-556,700	-89,144	0,009	-0,002
-555,685	121,720	-0,104	-0,095
-554,671	-200,000	-0,016	-0,078
-553,656	200,177	0,086	0,097
-552,642	800,000	0,042	0,126
-551,627	-27,084	-0,071	0,030
-550,612	20,159	-0,133	-0,078
-549,598	800,000	0,082	-0,176
-548,583	-82,521	-0,076	0,018
-547,569	-200,000	0,022	-0,113
-546,554	-112,457	0,042	0,006
-545,539	-26,327	0,099	-0,042
-544,525	-200,000	-0,039	-0,147
-543,510	800,000	0,049	0,153
-542,496	-34,709	-0,132	-0,053
-541,481	-110,189	-0,115	-0,017
-540,466	115,280	-0,088	-0,079
-539,452	-200,000	0,018	0,064
-538,437	800,000	0,020	0,042
-537,423	-161,171	0,060	-0,002
-536,408	-200,000	0,014	0,059
-535,393	213,441	-0,036	-0,041
-534,379	738,816	0,041	-0,081
-533,364	-200,000	-0,035	0,145
-532,350	370,865	0,055	-0,082
-531,335	-144,204	0,167	-0,011
-530,321	37,760	-0,111	-0,072
-529,306	-200,000	-0,074	0,000
-528,291	800,000	0,051	-0,106
-527,277	-146,156	0,166	0,011
-526,262	-14,313	0,039	-0,018
-525,248	800,000	0,014	0,030
-524,233	800,000	-0,011	0,032
-523,218	-185,848	0,115	0,001
-522,204	-173,578	0,081	-0,002
-521,189	-91,453	-0,085	0,018
-520,175	-132,454	-0,040	-0,004
-519,160	-65,798	0,112	0,033
-518,145	800,000	0,025	0,056
-517,131	-200,000	0,008	0,113
-516,116	-200,000	-0,004	0,178
-515,102	-102,520	-0,105	0,018
-514,087	-69,492	0,048	0,013
-513,072	-200,000	-0,025	-0,129
-512,058	343,649	0,050	-0,072
-511,043	-200,000	-0,010	0,147
-510,029	219,284	0,042	0,049
-509,014	800,000	0,020	0,043
-507,999	66,320	0,070	-0,052
-506,985	-200,000	0,029	-0,203
-505,970	-9,669	-0,138	0,067
-504,956	800,000	-0,038	0,102
-503,941	800,000	0,024	-0,059
-502,926	800,000	0,030	-0,082
-501,912	27,215	-0,089	0,055
-500,897	220,666	-0,033	0,039
-499,883	-120,724	-0,103	-0,013
-498,868	800,000	-0,041	-0,101
-497,853	-200,000	0,012	-0,201
-496,839	-130,723	-0,117	-0,011
-495,824	344,308	-0,007	0,010
-494,810	-74,025	-0,060	0,016
-493,795	331,251	-0,051	-0,072
-492,781	146,326	0,021	0,021
-491,766	170,720	0,019	0,020
-490,751	-200,000	0,003	-0,058
-489,737	-200,000	0,005	-0,074
-488,722	24,879	0,090	0,054
-487,708	44,171	-0,038	0,026
-486,693	239,411	-0,089	-0,108
-485,678	-200,000	0,003	0,112
-484,664	-40,932	0,158	-0,059
-483,649	15,658	-0,081	0,046
-482,635	-200,000	0,015	-0,125
-481,620	-24,904	-0,050	0,022
-480,605	-200,000	0,020	0,092
-479,591	-149,352	0,136	-0,008
-478,576	800,000	-0,025	-0,064
-477,562	-176,366	-0,018	-0,000
-476,547	-60,385	-0,125	-0,039
-475,532	-84,118	-0,036	-0,008
-474,518	272,503	0,011	-0,015
-473,503	-69,860	0,089	0,025
-472,489	201,136	0,078	0,088
-471,474	71,529	-0,049	-0,037
-470,459	-200,000	-0,005	-0,172
-469,445	541,180	-0,065	-0,114
-468,430	178,650	0,021	0,023
-467,416	-200,000	0,004	0,087
-466,401	0,039	0,071	0,037
-465,386	516,864	-0,009	-0,015
-464,372	-81,336	0,139	0,033
-463,357	438,684	-0,045	-0,071
-462,343	-200,000	-0,027	-0,091
-461,328	24,057	-0,031	-0,018
-460,313	571,873	0,033	-0,059
-459,299	-37,818	-0,067	0,026
-458,284	-49,225	0,052	0,018
-457,270	-200,000	-0,001	-0,071
-456,255	105,533	-0,012	0,010
-455,241	76,720	-0,147	-0,113
-454,226	-200,000	0,015	-0,144
-453,211	71,591	-0,086	0,065
-452,197	-200,000	-0,010	-0,133
-451,182	-155,162	0,203	-0,010
-450,168	-200,000	-0,014	0,090
-449,153	800,000	0,048	0,108
-448,138	621,950	-0,031	-0,058
-447,124	800,000	0,020	-0,042
-446,109	-4,054	-0,062	0,031
-445,095	-200,000	-0,007	0,171
-444,080	-200,000	0,019	0,091
-443,065	12,461	-0,221	0,124
-442,051	-200,000	0,002	0,096
-441,036	-29,523	0,038	-0,016
-440,022	72,768	0,082	-0,062
-439,007	-42,321	-0,161	-0,060
-437,992	800,000	0,033	-0,088
-436,978	800,000	0,082	-0,170
-435,963	-200,000	-0,009	0,038
-434,949	-123,398	-0,088	0,010
-433,934	563,590	0,016	0,028
-432,919	-200,000	0,004	-0,073
-431,905	358,513	-0,078	0,114
-430,890	-173,223	0,094	0,002
-429,876	-122,198	0,048	0,006
-428,861	-187,535	0,090	0,001
-427,846	178,546	-0,016	0,017
-426,832	800,000	-0,053	-0,116
-425,817	192,142	0,081	-0,089
-424,803	102,587	-0,087	0,074
-423,788	-88,623	-0,062	0,013
-422,773	-36,639	0,162	-0,063
-421,759	629,638	-0,050	-0,092
-420,744	105,211	-0,066	0,057
-419,730	-114,085	-0,126	0,018
-418,715	100,595	-0,110	-0,093
-417,701	-95,301	-0,056	0,011
-416,686	220,756	0,025	-0,029
-415,671	497,995	-0,040	-0,067
-414,657	-200,000	-0,006	0,047
-413,642	800,000	-0,030	-0,076
-412,628	-200,000	-0,019	0,097
-411,613	800,000	0,044	-0,095
-410,598	-200,000	0,005	0,084
-409,584	-55,121	-0,068	0,022
-408,569	800,000	0,054	-0,112
-407,555	742,253	0,043	0,084
-406,540	800,000	-0,041	0,096
-405,525	800,000	-0,063	-0,150
-404,511	-200,000	0,028	-0,119
-403,496	-200,000	0,003	-0,033
-402,482	-200,000	0,011	0,083
-401,467	-122,989	-0,029	0,003
-400,452	47,420	0,084	0,057
-399,438	376,389	-0,064	-0,096
-398,423	34,174	-0,054	-0,034
-397,409	-111,979	-0,080	0,012
-396,394	-91,794	0,174	-0,036
-395,379	-200,000	-0,001	-0,035
-394,365	356,065	0,097	0,141
-393,350	-65,763	-0,055	0,016
-392,336	-4,014	-0,030	0,015
-391,321	-109,582	0,144	-0,022
-390,306	-114,479	0,073	0,010
-389,292	375,996	0,048	0,072
-388,277	-200,000	0,005	-0,047
-387,263	-200,000	0,039	0,149
-386,248	75,863	0,036	0,028
-385,233	-200,000	-0,017	0,081
-384,219	-101,181	0,060	-0,010
-383,204	173,075	0,010	-0,011
-382,190	-200,000	-0,039	0,126
-381,175	338,022	0,020	0,028
-380,160	494,379	0,049	-0,082
-379,146	106,846	0,068	0,059
-378,131	-200,000	-0,005	0,134
-377,117	254,856	-0,069	0,085
-376,102	141,294	-0,109	-0,105
-375,088	2,465	0,023	-0,012
-374,073	-163,156	0,122	0,004
-373,058	-144,477	0,048	0,003
-372,044	420,138	0,084	0,131
-371,029	-200,000	0,016	-0,058
-370,015	-106,354	0,194	-0,031
-369,000	3,765	-0,044	-0,023
-367,985	-200,000	-0,033	0,109
-366,971	22,070	-0,054	-0,032
-365,956	-84,461	0,167	0,038
-364,942	-200,000	0,005	0,025
-363,927	80,172	-0,090	0,070
-362,912	544,074	0,010	-0,018
-361,898	-200,000	0,000	-0,092
-360,883	117,772	-0,086	0,077
-359,869	-200,000	0,021	-0,069
-358,854	800,000	0,033	-0,092
-357,839	-200,000	0,013	0,069
-356,825	-129,936	0,145	0,014
-355,810	-68,522	-0,030	-0,008
-354,796	-200,000	-0,021	0,075
-353,781	-200,000	0,007	0,157
-352,766	-10,761	0,133	0,064
-351,752	-123,843	0,163	0,018
-350,737	-78,325	0,120	-0,030
-349,723	124,732	0,072	0,066
-348,708	-200,000	-0,007	0,047
-347,693	-200,000	-0,003	0,013
-346,679	800,000	0,016	0,049
-345,664	-8,029	-0,077	0,037
-344,650	87,812	0,091	0,073
-343,635	800,000	-0,041	-0,114
-342,620	215,752	0,088	-0,101
-341,606	-24,484	0,064	0,028
-340,591	-24,430	-0,060	0,026
-339,577	-200,000	0,008	-0,044
-338,562	-46,364	0,042	-0,015
-337,548	412,780	0,074	0,115
-336,533	800,000	-0,075	0,215
-335,518	-3,811	0,117	0,059
-334,504	-200,000	0,025	0,121
-333,489	125,715	0,139	0,127
-332,475	527,444	-0,048	-0,082
-331,460	-90,737	-0,067	-0,014
-330,445	-42,818	0,058	-0,021
-329,431	-40,779	0,119	-0,045
-328,416	55,869	-0,084	-0,059
-327,402	-159,912	0,050	0,002
-326,387	143,546	-0,034	0,033
-325,372	670,521	0,007	0,013
-324,358	737,230	-0,012	0,024
-323,343	-200,000	-0,021	0,106
-322,329	-84,447	-0,051	0,011
-321,314	-200,000	0,008	0,032
-320,299	59,958	0,109	0,078
-319,285	81,634	-0,085	-0,066
-318,270	800,000	-0,045	-0,102
-317,256	-200,000	0,004	-0,024
-316,241	-0,903	0,010	-0,005
-315,226	-200,000	-0,041	0,141
-314,212	-200,000	0,011	0,062
-313,197	-10,254	-0,106	0,051
-312,183	110,027	-0,088	0,077
-311,168	-76,911	0,094	-0,024
-310,153	160,609	-0,043	-0,043
-309,139	-200,000	-0,018	-0,070
-308,124	641,333	-0,047	0,088
-307,110	5,726	0,139	0,074
-306,095	259,984	0,030	-0,038
-305,080	-200,000	-0,055	0,220
-304,066	-200,000	0,005	0,021
-303,051	54,955	0,103	-0,072
-302,037	735,625	-0,052	-0,101
-301,022	28,121	0,059	0,036
-300,008	217,552	0,056	0,065
-298,993	800,000	0,045	-0,097
-297,978	-6,440	-0,084	0,041
-296,964	-14,532	-0,130	0,061
-295,949	-117,249	-0,108	-0,014
-294,935	258,124	0,024	-0,030
-293,920	119,780	0,050	-0,045
-292,905	-200,000	-0,007	0,148
-291,891	6,771	0,119	0,064
-290,876	58,427	-0,067	-0,047
-289,862	-74,060	-0,113	-0,029
-288,847	61,256	-0,032	0,023
-287,832	-115,315	0,116	0,016
-286,818	3,626	-0,068	0,036
-285,803	529,647	0,039	0,067
-284,789	-200,000	0,021	0,116
-283,774	-200,000	0,003	0,024
-282,759	-99,009	-0,100	-0,018
-281,745	-200,000	0,001	-0,096
-280,730	699,528	-0,047	-0,090
-279,716	416,994	0,030	-0,046
-278,701	800,000	0,023	0,046
-277,686	800,000	0,027	-0,078
-276,672	107,647	0,073	-0,063
-275,657	216,383	-0,051	-0,059
-274,643	-200,000	-0,012	-0,102
-273,628	44,789	-0,051	0,034
-272,613	-27,058	-0,060	0,025
-271,599	544,068	0,087	-0,151
-270,584	46,120	0,100	0,067
-269,570	-200,000	-0,002	-0,044
-268,555	-200,000	-0,014	-0,086
-267,540	-200,000	-0,001	-0,017
-266,526	-96,430	-0,103	0,020
-265,511	68,984	-0,126	-0,093
-264,497	720,350	0,050	0,097
-263,482	3,719	0,115	0,061
-262,467	-200,000	0,016	0,114
-261,453	62,827	-0,131	0,095
-260,438	150,822	-0,063	-0,062
-259,424	-98,378	-0,133	-0,024
-258,409	-74,862	0,099	-0,026
-257,395	-144,868	0,067	0,004
-256,380	-200,000	-0,022	0,111
-255,365	183,310	0,051	0,055
-254,351	44,516	-0,122	0,081
-253,336	409,618	0,074	-0,114
-252,322	162,230	-0,057	-0,058
-251,307	800,000	0,036	0,084
-250,292	-200,000	0,010	0,132
-249,278	671,471	0,040	0,076
-248,263	-200,000	0,053	0,254
-247,249	-200,000	0,024	0,147
-246,234	800,000	0,060	-0,129
-245,219	21,855	-0,088	-0,052
-244,205	34,105	-0,057	-0,036
-243,190	6,958	0,110	0,059
-242,176	800,000	-0,006	-0,020
-241,161	-89,274	0,172	0,036
-240,146	-200,000	0,016	-0,085
-239,132	800,000	-0,081	-0,168
-238,117	800,000	-0,053	-0,112
-237,103	9,334	-0,057	-0,031
-236,088	-36,634	0,104	-0,040
-235,073	180,516	-0,059	0,062
-234,059	-200,000	-0,009	0,082
-233,044	-142,776	0,095	0,007
-232,030	118,607	-0,079	0,070
-231,015	-2,073	-0,070	-0,035
-230,000	800,000	-0,011	-0,026
-228,986	327,809	0,032	-0,044
-227,971	-200,000	0,022	-0,152
-226,957	-70,361	-0,042	-0,011
-225,942	-59,892	0,149	-0,046
-224,927	-18,249	-0,108	-0,049
-223,913	277,838	0,016	0,020
-222,898	-30,268	-0,056	-0,023
-221,884	800,000	-0,051	-0,122
-220,869	-20,280	0,119	-0,053
-219,855	116,059	0,069	-0,061
-218,840	391,985	0,051	0,076
-217,825	413,014	0,060	-0,092
-216,811	800,000	0,053	-0,144
-215,796	234,419	-0,032	0,038
-214,782	151,876	-0,138	-0,136
-213,767	-200,000	0,008	-0,110
-212,752	119,093	0,049	0,044
-211,738	-200,000	-0,014	-0,069
-210,723	800,000	-0,031	-0,089
-209,709	-54,771	-0,176	-0,057
-208,694	-26,562	0,076	-0,032
-207,679	-44,166	-0,076	0,028
-206,665	800,000	-0,043	-0,104
-205,650	-5,320	0,059	-0,029
-204,636	63,623	0,062	0,045
-203,621	550,850	0,080	0,139
-202,606	12,384	-0,054	-0,030
-201,592	75,685	-0,067	0,051
-200,577	-129,344	-0,064	0,006
-199,563	-200,000	-0,017	-0,116
-198,548	129,754	0,122	0,112
-197,533	156,755	0,030	0,030
-196,519	34,683	-0,077	0,049
-195,504	74,733	-0,104	-0,079
-194,490	9,151	0,075	0,041
-193,475	-124,917	0,107	0,012
-192,460	-200,000	-0,004	-0,023
-191,446	-61,666	0,073	0,022
-190,431	38,009	0,111	-0,071
-189,417	800,000	-0,059	0,136
-188,402	-191,853	0,074	-0,001
-187,387	800,000	-0,047	-0,101
-186,373	248,774	-0,006	0,007
-185,358	800,000	0,055	-0,126
-184,344	30,903	0,129	0,079
-183,329	-200,000	0,018	-0,067
-182,315	-135,076	-0,083	-0,007
-181,300	-200,000	0,001	-0,076
-180,285	-200,000	-0,022	-0,089
-179,271	800,000	0,022	0,045
-178,256	18,929	0,093	0,054
-177,242	33,406	-0,113	0,070
-176,227	-200,000	-0,019	0,099
-175,212	237,408	-0,028	0,033
-174,198	212,574	0,037	0,042
-173,183	21,558	-0,091	-0,053
-172,169	-71,351	0,124	-0,033
-171,154	800,000	-0,011	0,033
-170,139	-140,889	0,131	-0,010
-169,125	19,152	0,080	0,046
-168,110	507,272	0,097	0,162
-167,096	-33,891	-0,058	0,023
-166,081	17,892	-0,064	-0,036
-165,066	8,601	0,128	0,069
-164,052	800,000	-0,011	0,033
-163,037	800,000	0,034	0,085
-162,023	800,000	-0,031	0,079
-161,008	115,071	-0,064	0,056
-159,993	161,112	-0,021	0,021
-158,979	461,601	-0,074	-0,119
-157,964	-200,000	-0,004	-0,132
-156,950	-82,879	0,093	0,021
-155,935	34,361	0,111	0,070
-154,920	42,712	0,105	0,069
-153,906	800,000	0,014	-0,039
-152,891	-121,013	-0,041	0,005
-151,877	-14,468	0,134	-0,062
-150,862	-68,177	-0,087	-0,024
-149,847	-65,125	0,132	-0,038
-148,833	800,000	0,053	-0,119
-147,818	-151,510	-0,042	0,002
-146,804	800,000	-0,025	0,061
-145,789	-200,000	0,013	-0,053
-144,775	12,010	0,187	0,104
-143,760	223,727	-0,054	-0,063
-142,745	244,520	0,056	-0,068
-141,731	250,968	0,125	0,153
-140,716	86,017	-0,070	0,056
-139,702	800,000	0,068	0,137
-138,687	-200,000	0,001	0,137
-137,672	800,000	-0,022	-0,062
-136,658	164,542	-0,084	0,085
-135,643	137,335	-0,117	-0,111
-134,629	-74,832	0,067	0,017
-133,614	243,888	0,109	-0,132
-132,599	126,023	0,037	0,033
-131,585	430,943	0,037	-0,058
-130,570	-27,677	-0,084	0,035
-129,556	206,565	0,053	0,060
-128,541	110,665	-0,103	-0,089
-127,526	-91,336	0,136	-0,028
-126,512	-38,846	0,163	-0,061
-125,497	715,828	0,037	0,071
-124,483	75,976	-0,086	-0,066
-123,468	800,000	-0,047	-0,099
-122,453	73,045	-0,003	-0,002
-121,439	-73,038	-0,193	-0,051
-120,424	-63,080	0,165	-0,049
-119,410	-77,584	0,086	-0,021
-118,395	-200,000	0,012	0,055
-117,380	800,000	-0,036	0,094
-116,366	28,612	-0,038	0,023
-115,351	-124,699	0,032	-0,004
-114,337	42,706	-0,136	-0,089
-113,322	-182,977	-0,049	-0,001
-112,307	390,063	-0,054	-0,081
-111,293	-83,723	-0,033	0,008
-110,278	230,235	-0,099	0,116
-109,264	180,516	-0,058	0,062
-108,249	-200,000	0,007	0,075
-107,234	-200,000	0,031	-0,165
-106,220	-117,694	-0,052	-0,007
-105,205	-57,990	0,069	-0,022
-104,191	-103,401	0,048	0,008
-103,176	-43,973	0,048	0,017
-102,162	101,877	0,043	0,036
-101,147	70,036	0,024	-0,017
-100,132	800,000	0,037	-0,088
-99,118	118,898	0,037	0,033
-98,103	-200,000	-0,006	0,144
-97,089	141,831	0,023	0,022
-96,074	-200,000	-0,013	-0,078
-95,059	-59,711	0,113	-0,035
-94,045	720,727	-0,094	-0,181
-93,030	-111,517	0,024	-0,003
-92,016	-103,233	0,060	0,010
-91,001	-200,000	0,009	0,057
-89,986	-200,000	0,081	0,289
-88,972	645,713	0,084	0,156
-87,957	-200,000	-0,020	0,124
-86,943	-54,190	-0,053	0,017
-85,928	-68,874	-0,119	-0,033
-84,913	800,000	-0,036	-0,073
-83,899	-200,000	0,004	-0,017
-82,884	-169,644	0,024	-0,001
-81,870	800,000	0,019	-0,053
-80,855	-200,000	0,042	0,000
-79,840	521,079	0,085	-0,144
-78,826	-200,000	0,010	-0,201
-77,811	800,000	-0,029	0,058
-76,797	-121,871	0,030	0,003
-75,782	177,704	0,033	-0,034
-74,767	-200,000	-0,031	0,125
-73,753	-62,828	0,068	-0,020
-72,738	199,400	-0,036	0,040
-71,724	-96,790	-0,111	-0,021
-70,709	-200,000	0,005	-0,027
-69,694	800,000	-0,011	-0,024
-68,680	-200,000	-0,020	0,079
-67,665	800,000	-0,061	0,156
-66,651	-200,000	-0,019	0,097
-65,636	800,000	0,060	0,125
-64,622	800,000	-0,023	-0,050
-63,607	-200,000	-0,016	-0,080
-62,592	34,580	0,076	0,048
-61,578	-17,990	0,034	-0,015
-60,563	71,899	-0,123	0,091
-59,549	119,464	-0,031	0,027
-58,534	-4,979	-2,081	-1,025
-57,519	-200,000	-0,142	-0,827
-56,505	-200,000	-1,332	-4,922
-55,490	70,249	0,826	0,611
-54,476	800,000	5,142	11,683
-53,461	-200,000	17,784	290,532
-52,446	800,000	726,544	2231,456
-51,432	537,012	1639,416	2804,426
-50,417	109,674	1629,374	1401,029
-49,403	73,355	1283,270	962,429
-48,388	31,590	1026,101	631,648
-47,373	19,956	988,146	569,971
-46,359	18,253	976,309	557,543
-45,344	15,596	972,235	546,511
-44,330	15,776	970,804	546,275
-43,315	15,321	969,056	543,783
-42,300	15,255	967,912	542,906
-41,286	15,257	966,987	542,372
-40,271	15,295	965,860	541,842
-39,257	15,303	964,886	541,299
-38,242	15,253	964,313	540,795
-37,227	15,283	963,388	540,350
-36,213	15,229	962,752	539,798
-35,198	15,266	961,633	539,269
-34,184	15,321	960,951	539,044
-33,169	15,311	959,826	538,358
-32,154	15,291	959,176	537,908
-31,140	15,271	958,164	537,255
-30,125	15,278	957,563	536,920
-29,111	15,303	956,594	536,434
-28,096	15,336	955,909	536,135
-27,082	15,305	955,345	535,698
-26,067	15,258	954,623	535,122
-25,052	15,242	953,894	534,641
-24,038	15,321	952,999	534,371
-23,023	15,235	952,548	533,823
-22,009	15,265	951,901	533,533
-20,994	15,259	951,253	533,129
-19,979	15,315	950,567	532,903
-18,965	15,329	949,821	532,507
-17,950	15,259	949,342	531,997
-16,936	15,285	948,683	531,687
-15,921	15,301	947,993	531,331
-14,906	15,147	947,495	530,542
-13,892	15,255	946,532	530,323
-12,877	15,140	946,076	529,682
-11,863	15,143	945,347	529,262
-10,848	15,195	944,897	529,155
-9,833	15,214	944,634	529,047
-8,819	15,185	944,010	528,582
-7,804	15,194	943,226	528,153
-6,790	15,138	942,738	527,681
-5,775	15,231	942,039	527,561
-4,760	15,202	941,451	527,120
-3,746	15,213	940,599	526,657
-2,731	15,033	940,045	525,759
-1,717	15,001	939,430	525,290
-0,702	15,001	938,846	524,946
0,313	14,784	938,329	524,762
1,327	18,200	936,197	534,275
2,342	27,384	789,648	474,821
3,356	23,886	444,485	262,072
4,371	-5,537	295,063	144,609
5,386	-9,324	276,675	132,003
6,400	-10,699	270,886	127,955
7,415	-11,039	268,814	126,651
8,429	-10,981	267,245	125,954
9,444	-10,942	266,436	125,597
10,459	-10,805	265,825	125,423
11,473	-11,030	265,175	124,900
12,488	-11,225	264,672	124,475
13,502	-11,362	264,111	124,077
14,517	-11,114	263,749	124,120
15,531	-11,276	263,298	123,751
16,546	-11,285	262,894	123,541
17,561	-11,220	262,451	123,381
18,575	-11,027	262,127	123,390
19,590	-11,300	261,874	123,016
20,604	-11,190	261,596	122,972
21,619	-11,230	261,226	122,752
22,634	-11,162	261,032	122,710
23,648	-11,343	260,408	122,245
24,663	-11,238	260,303	122,278
25,677	-11,166	260,083	122,228
26,692	-11,276	259,804	121,988
27,707	-11,379	259,633	121,806
28,721	-11,344	259,101	121,576
29,736	-11,155	258,935	121,655
30,750	-11,261	258,559	121,374
31,765	-11,260	258,468	121,321
32,780	-11,299	258,341	121,216
33,794	-11,220	258,023	121,127
34,809	-11,327	257,717	120,877
35,823	-11,231	257,552	120,873
36,838	-11,260	257,267	120,704
37,853	-11,545	257,048	120,340
38,867	-11,449	256,819	120,307
39,882	-11,371	256,650	120,285
40,896	-11,391	256,297	120,091
41,911	-11,241	256,051	120,096
42,926	-11,391	255,953	119,908
43,940	-11,320	255,476	119,736
44,955	-11,600	255,429	119,460
45,969	-11,718	255,313	119,291
46,984	-11,809	254,846	118,984
47,999	-11,853	254,748	118,889
49,013	-11,987	254,393	118,597
50,028	-12,184	254,006	118,234
51,042	-12,199	253,866	118,146
52,057	-12,199	253,521	117,975
53,071	-12,221	253,600	117,983
54,086	-11,920	253,230	118,060
55,101	-12,084	253,123	117,857
56,115	-11,667	252,948	118,125
57,130	-11,196	252,963	118,528
58,144	-10,924	252,843	118,696
59,159	-11,109	252,589	118,406
60,174	-11,153	252,313	118,228
61,188	-11,000	252,033	118,218
62,203	-11,198	251,787	117,922
63,217	-11,284	251,588	117,745
64,232	-11,229	251,323	117,658
65,247	-11,218	251,174	117,587
66,261	-11,258	250,999	117,460
67,276	-11,289	250,719	117,292
68,290	-11,708	250,513	116,828
69,305	-11,779	250,244	116,631
70,320	-11,646	250,018	116,629
71,334	-11,460	249,853	116,700
72,349	-11,246	249,668	116,784
73,363	-11,119	249,430	116,771
74,378	-11,114	249,464	116,781
75,393	-11,266	249,123	116,482
76,407	-11,223	248,918	116,412
77,422	-11,303	248,789	116,274
78,436	-11,302	248,699	116,222
79,451	-11,270	248,365	116,082
80,466	-11,306	248,081	115,909
81,480	-11,672	247,824	115,470
82,495	-11,602	247,638	115,432
83,509	-11,660	247,515	115,315
84,524	-11,636	247,264	115,209
85,539	-11,724	247,102	115,049
86,553	-11,749	246,726	114,843
87,568	-11,752	246,769	114,850
88,582	-11,533	246,470	114,884
89,597	-11,622	246,266	114,704
90,611	-11,400	246,143	114,823
91,626	-11,502	246,021	114,671
92,641	-11,230	245,779	114,774
93,655	-11,368	245,573	114,552
94,670	-11,371	245,389	114,454
95,684	-11,596	245,338	114,232
96,699	-11,457	244,955	114,159
97,714	-11,609	244,853	113,976
98,728	-11,604	244,609	113,856
99,743	-11,744	244,478	113,668
100,757	-11,695	244,184	113,563
101,772	-11,874	244,130	113,379
102,787	-11,562	243,834	113,489
103,801	-11,502	243,667	113,451
104,816	-11,278	243,522	113,558
105,830	-11,334	243,444	113,466
106,845	-11,315	243,257	113,385
107,860	-11,327	243,018	113,253
108,874	-11,400	242,711	113,040
109,889	-11,446	242,584	112,932
110,903	-11,561	242,408	112,747
111,918	-11,502	242,138	112,659
112,933	-11,510	242,051	112,601
113,947	-11,376	241,777	112,575
114,962	-11,261	241,685	112,615
115,976	-11,303	241,532	112,500
116,991	-11,296	241,140	112,313
118,006	-11,481	241,272	112,213
119,020	-11,227	240,991	112,280
120,035	-11,351	241,052	112,197
121,049	-11,359	240,802	112,064
122,064	-11,327	240,592	111,982
123,079	-11,405	240,530	111,880
124,093	-11,494	240,260	111,671
125,108	-11,685	239,957	111,366
126,122	-11,572	239,634	111,297
127,137	-11,783	239,507	111,058
128,151	-11,773	239,323	110,971
129,166	-11,776	239,195	110,899
130,181	-11,539	238,837	110,914
131,195	-11,750	238,849	110,740
132,210	-11,589	238,566	110,728
133,224	-11,429	238,595	110,861
134,239	-11,455	238,415	110,747
135,254	-11,313	238,040	110,677
136,268	-11,586	238,010	110,434
137,283	-11,890	237,621	109,999
138,297	-11,806	237,555	110,026
139,312	-11,813	237,220	109,855
140,327	-11,340	237,144	110,190
141,341	-11,062	237,292	110,472
142,356	-11,014	236,978	110,354
143,370	-11,096	236,957	110,269
144,385	-10,914	236,797	110,331
145,400	-11,044	236,644	110,146
146,414	-11,021	236,365	110,024
147,429	-10,948	236,186	109,989
148,443	-11,096	236,049	109,798
149,458	-10,933	235,816	109,809
150,473	-11,086	235,771	109,656
151,487	-11,003	235,381	109,532
152,502	-11,105	235,270	109,389
153,516	-10,910	235,136	109,472
154,531	-10,861	235,144	109,505
155,546	-11,022	234,746	109,182
156,560	-11,187	234,693	109,017
157,575	-11,214	234,408	108,853
158,589	-11,367	234,226	108,638
159,604	-11,019	234,179	108,882
160,619	-10,873	233,968	108,889
161,633	-10,841	233,882	108,864
162,648	-11,045	233,796	108,654
163,662	-11,134	233,557	108,463
164,677	-11,235	233,313	108,260
165,692	-10,916	233,073	108,390
166,706	-10,849	233,136	108,463
167,721	-10,753	232,877	108,408
168,735	-10,874	232,864	108,298
169,750	-10,855	232,610	108,185
170,764	-11,115	232,526	107,932
171,779	-10,902	232,376	108,019
172,794	-10,756	232,139	108,014
173,808	-11,002	231,822	107,664
174,823	-11,430	231,582	107,209
175,837	-11,631	231,477	106,994
176,852	-11,391	231,534	107,198
177,867	-10,879	231,365	107,510
178,881	-10,976	231,103	107,303
179,896	-11,033	230,923	107,166
180,910	-10,720	230,801	107,343
181,925	-10,719	230,658	107,267
182,940	-10,891	230,588	107,092
183,954	-10,978	230,533	106,989
184,969	-10,904	230,320	106,938
185,983	-10,789	230,034	106,886
186,998	-10,791	229,980	106,849
188,013	-10,900	229,970	106,750
189,027	-10,822	229,847	106,744
190,042	-10,762	229,490	106,615
191,056	-10,830	229,381	106,503
192,071	-10,720	229,097	106,446
193,086	-10,770	228,936	106,324
194,100	-10,685	228,852	106,340
195,115	-11,181	228,423	105,750
196,129	-11,289	228,497	105,692
197,144	-6,037	230,369	110,617
198,159	0,072	232,093	116,190
199,173	2,923	232,928	118,819
200,188	3,351	232,806	119,079
201,202	3,294	232,549	118,892
202,217	3,492	232,488	119,005
203,232	3,522	232,550	119,049
204,246	3,855	232,298	119,167
205,261	3,803	232,126	119,029
206,275	4,085	232,114	119,230
207,290	3,914	231,969	119,012
208,304	3,998	231,777	118,968
209,319	4,020	231,493	118,828
210,334	3,739	231,292	118,498
211,348	3,624	231,063	118,281
212,363	3,154	230,933	117,843
213,377	2,898	230,725	117,529
214,392	2,989	230,544	117,496
215,407	3,204	230,525	117,641
216,421	3,167	230,230	117,452
217,436	3,172	229,988	117,322
218,450	2,829	229,914	117,010
219,465	2,965	229,578	116,933
220,480	3,093	229,418	116,939
221,494	2,940	229,367	116,786
222,509	3,084	229,474	116,940
223,523	3,118	229,146	116,789
224,538	2,927	228,968	116,541
225,553	3,180	228,821	116,649
226,567	3,242	228,850	116,701
227,582	3,293	228,646	116,625
228,596	3,390	228,711	116,722
229,611	3,088	228,424	116,335
230,626	3,001	228,003	116,044
231,640	2,914	227,975	115,954
232,655	3,500	227,782	116,289
233,669	3,491	227,854	116,309
234,684	3,622	227,737	116,338
235,699	3,639	227,428	116,183
236,713	3,270	227,303	115,829
237,728	3,195	227,070	115,643
238,742	3,169	226,919	115,537
239,757	3,245	226,757	115,502
240,772	3,297	226,501	115,400
241,786	2,716	226,633	115,018
242,801	3,316	226,367	115,326
243,815	3,630	226,392	115,565
244,830	3,417	226,347	115,371
245,844	3,008	225,976	114,864
246,859	3,011	225,871	114,803
247,874	3,726	225,472	115,126
248,888	3,550	225,414	114,954
249,903	3,277	225,320	114,691
250,917	3,185	225,207	114,555
251,932	3,079	225,184	114,453
252,947	2,956	224,864	114,189
253,961	3,147	224,667	114,221
254,976	3,075	224,524	114,084
255,990	3,473	224,551	114,385
257,005	3,171	224,377	114,061
258,020	3,306	224,315	114,120
259,034	3,387	224,189	114,105
260,049	3,623	223,904	114,126
261,063	3,475	223,682	113,893
262,078	3,380	223,744	113,844
263,093	3,626	223,500	113,892
264,107	3,605	223,274	113,751
265,122	3,463	223,255	113,626
266,136	3,616	223,224	113,714
267,151	3,581	223,057	113,593
268,166	3,095	222,751	113,067
269,180	2,989	222,628	112,916
270,195	2,961	222,457	112,798
271,209	3,042	222,224	112,731
272,224	3,111	222,138	112,727
273,239	3,225	222,211	112,839
274,253	3,326	221,784	112,686
275,268	2,902	221,556	112,249
276,282	3,019	221,388	112,239
277,297	2,800	221,394	112,071
278,312	3,030	221,272	112,168
279,326	3,327	221,129	112,304
280,341	3,039	221,129	112,083
281,355	2,876	221,062	111,919
282,370	3,212	220,620	111,931
283,384	3,085	220,375	111,704
284,399	2,948	220,329	111,571
285,414	3,021	220,221	111,559
286,428	3,318	220,036	111,672
287,443	3,304	220,136	111,703
288,457	3,162	219,960	111,500
289,472	3,201	219,588	111,330
290,487	2,490	219,460	110,738
291,501	2,558	219,329	110,712
292,516	2,897	219,153	110,859
293,530	2,757	219,061	110,701
294,545	2,891	219,040	110,778
295,560	3,008	218,900	110,782
296,574	3,285	218,619	110,831
297,589	3,167	218,542	110,696
298,603	3,534	218,349	110,854
299,618	3,268	218,295	110,624
300,633	3,253	218,248	110,580
301,647	3,458	218,158	110,672
302,662	3,599	217,877	110,621
303,676	3,248	217,979	110,410
304,691	3,267	217,815	110,331
305,706	3,272	217,486	110,158
306,720	3,520	217,252	110,208
307,735	3,515	216,979	110,056
308,749	3,041	217,098	109,766
309,764	3,357	216,940	109,904
310,779	3,373	216,943	109,907
311,793	3,210	216,775	109,695
312,808	3,284	216,595	109,646
313,822	3,390	216,391	109,609
314,837	3,322	216,183	109,445
315,852	2,937	215,907	109,022
316,866	3,164	216,018	109,230
317,881	3,286	215,824	109,210
318,895	3,211	215,801	109,134
319,910	3,289	215,513	109,035
320,925	2,772	215,389	108,594
321,939	2,574	215,278	108,387
322,954	2,583	215,156	108,323
323,968	3,147	215,109	108,691
324,983	3,333	214,839	108,676
325,997	3,467	214,738	108,711
327,012	3,120	214,673	108,422
328,027	3,124	214,531	108,344
329,041	3,393	214,394	108,454
330,056	3,283	214,321	108,331
331,070	3,101	213,990	108,025
332,085	3,082	213,914	107,963
333,100	3,124	213,782	107,917
334,114	3,542	213,756	108,189
335,129	3,367	213,673	108,014
336,143	3,097	213,436	107,695
337,158	3,209	213,271	107,680
338,173	3,253	213,042	107,586
339,187	3,050	213,005	107,415
340,202	3,029	212,677	107,225
341,216	2,733	212,675	107,007
342,231	3,209	212,507	107,246
343,246	2,917	212,469	107,014
344,260	2,939	212,292	106,930
345,275	2,960	212,235	106,906
346,289	3,268	212,021	107,005
347,304	3,577	211,672	107,034
348,319	3,077	211,784	106,733
349,333	3,037	211,563	106,584
350,348	3,017	211,527	106,542
351,362	3,481	211,446	106,815
352,377	3,415	211,261	106,666
353,392	3,281	211,065	106,464
354,406	3,305	211,007	106,442
355,421	195,596	1340,973	1418,722
356,435	156,230	1478,612	1418,697
