DTS Sentinel unit serial number:	SN410029Multiplexer serial number:	ORYXHardware model number:	OX2-SRSoftware version number:	ORYX F/W v4,00 Oryx Data Collector v3.7.2.0data status	okinstallation	B6 Nyhavnadifferential loss correction	single-endedforward channel	channel 2reverse channel	N/Adate	2023/12/10time	07:40:08forward acquisition time	300,00reverse acquisition time	0,00gamma	499,1914k internal	0,3123k external	0,3123temperature offset calibration	1,0000default loss term (dB/km)	0,3820temperature slope calibration	1,0000multiplexer offset coefficient	1,0000multiplexer slope coefficient	1,0000fibre end	0,00T internal ref (°C)	22,59T ext. ref 1 (°C)	6,34T ext. ref 2 (°C)	6,33length (m)	temperature (°C)	Stokes	anti-Stokes-744,400	45,804	0,076	0,053
-743,385	-48,708	-0,144	0,051
-742,371	-144,319	0,025	-0,002
-741,356	21,871	-0,133	0,081
-740,342	800,000	-0,002	-0,005
-739,327	-62,370	-0,266	0,082
-738,312	-104,695	-0,051	0,009
-737,298	-16,043	-0,224	0,106
-736,283	-200,000	0,017	-0,071
-735,269	438,782	-0,076	0,125
-734,254	-107,963	0,247	0,040
-733,239	-99,757	-0,323	-0,060
-732,225	-26,204	-0,042	-0,018
-731,210	184,891	0,026	0,029
-730,196	21,342	-0,130	0,079
-729,181	800,000	-0,020	-0,065
-728,167	316,883	0,036	0,051
-727,152	747,398	-0,056	0,112
-726,137	329,859	-0,046	-0,067
-725,123	-200,000	0,010	-0,100
-724,108	174,530	-0,059	-0,064
-723,094	-150,935	-0,048	0,003
-722,079	800,000	0,014	-0,036
-721,064	687,037	0,016	0,032
-720,050	189,840	0,080	-0,090
-719,035	800,000	0,036	-0,088
-718,021	182,453	-0,039	0,043
-717,006	800,000	-0,071	-0,230
-715,991	516,192	-0,063	-0,110
-714,977	53,473	-0,064	-0,045
-713,962	535,085	0,030	-0,053
-712,948	17,731	-0,043	0,025
-711,933	-200,000	-0,009	-0,112
-710,918	-200,000	-0,019	-0,075
-709,904	228,366	0,043	0,052
-708,889	59,956	-0,108	0,079
-707,875	-200,000	0,022	-0,099
-706,860	6,639	0,088	-0,049
-705,845	37,551	0,026	0,017
-704,831	-200,000	0,020	-0,090
-703,816	-48,210	-0,144	-0,051
-702,802	253,179	0,055	-0,070
-701,787	735,021	-0,089	-0,178
-700,772	38,324	-0,138	0,092
-699,758	-97,206	0,112	-0,022
-698,743	-200,000	0,025	0,123
-697,729	-28,985	-0,079	0,034
-696,714	-200,000	0,014	0,109
-695,699	125,428	-0,011	-0,010
-694,685	800,000	-0,044	-0,143
-693,670	-200,000	0,019	0,084
-692,656	-142,794	0,058	-0,004
-691,641	-19,094	0,042	-0,019
-690,627	-102,072	0,079	-0,014
-689,612	-62,933	-0,085	0,026
-688,597	305,058	-0,051	-0,070
-687,583	424,329	-0,033	-0,054
-686,568	800,000	0,045	-0,103
-685,554	463,982	0,019	0,032
-684,539	24,843	-0,087	0,053
-683,524	800,000	-0,064	0,144
-682,510	613,408	-0,056	0,104
-681,495	800,000	0,049	-0,147
-680,481	-70,351	0,058	0,016
-679,466	496,057	0,068	-0,117
-678,451	-200,000	0,009	-0,053
-677,437	222,982	0,029	0,035
-676,422	24,977	0,127	0,078
-675,408	-200,000	0,005	0,074
-674,393	-200,000	-0,011	0,068
-673,378	262,421	-0,054	-0,069
-672,364	-200,000	-0,017	-0,063
-671,349	-200,000	-0,002	-0,057
-670,335	-200,000	0,008	0,076
-669,320	-200,000	-0,005	0,089
-668,305	24,962	-0,110	0,067
-667,291	-200,000	-0,008	-0,106
-666,276	-116,882	0,008	0,001
-665,262	800,000	-0,058	-0,134
-664,247	389,622	0,041	-0,064
-663,232	302,797	-0,065	0,090
-662,218	-200,000	0,030	0,103
-661,203	102,124	0,073	0,064
-660,189	239,422	0,077	0,095
-659,174	-200,000	-0,019	0,067
-658,159	-200,000	0,004	-0,050
-657,145	459,402	0,060	-0,099
-656,130	-200,000	0,017	-0,208
-655,116	195,421	0,102	0,115
-654,101	471,932	-0,047	0,079
-653,086	-103,467	-0,190	0,033
-652,072	745,098	0,056	-0,112
-651,057	-200,000	0,006	-0,028
-650,043	340,991	0,014	-0,020
-649,028	-18,292	-0,152	-0,070
-648,014	-200,000	-0,004	0,045
-646,999	-200,000	0,025	0,193
-645,984	-200,000	0,015	0,056
-644,970	510,956	-0,038	0,066
-643,955	262,684	-0,030	0,039
-642,941	800,000	-0,043	-0,118
-641,926	74,705	0,097	-0,076
-640,911	-200,000	0,024	-0,103
-639,897	178,810	0,008	-0,008
-638,882	76,447	0,066	-0,052
-637,868	-33,127	0,056	-0,023
-636,853	-200,000	-0,028	-0,180
-635,838	38,989	-0,084	0,056
-634,824	533,120	0,024	-0,043
-633,809	36,986	0,133	0,087
-632,795	800,000	0,046	0,149
-631,780	-75,245	-0,038	0,010
-630,765	651,169	-0,032	0,062
-629,751	288,660	-0,084	-0,113
-628,736	103,132	0,023	-0,020
-627,722	-76,788	-0,068	-0,018
-626,707	-200,000	-0,005	0,096
-625,692	295,479	0,095	0,130
-624,678	-148,649	-0,099	-0,006
-623,663	37,078	-0,008	0,005
-622,649	-150,347	0,078	-0,004
-621,634	800,000	-0,042	0,137
-620,619	210,924	-0,011	0,012
-619,605	-200,000	0,015	0,111
-618,590	-133,642	0,018	-0,002
-617,576	124,085	0,048	-0,044
-616,561	-56,122	0,045	-0,015
-615,546	-88,724	-0,019	-0,004
-614,532	-21,132	-0,136	-0,061
-613,517	800,000	-0,006	-0,017
-612,503	-1,631	0,134	0,070
-611,488	318,339	-0,032	-0,046
-610,474	-161,210	0,152	0,006
-609,459	800,000	-0,056	0,115
-608,444	214,611	0,028	0,033
-607,430	800,000	0,038	-0,103
-606,415	800,000	0,092	-0,227
-605,401	57,399	-0,060	-0,043
-604,386	162,627	0,125	-0,130
-603,371	-135,544	0,107	0,009
-602,357	-200,000	-0,014	0,144
-601,342	-106,148	-0,110	0,018
-600,328	800,000	-0,055	-0,136
-599,313	204,160	-0,047	0,054
-598,298	-200,000	-0,021	-0,124
-597,284	201,307	-0,039	-0,044
-596,269	-200,000	0,004	0,019
-595,255	-200,000	-0,013	0,094
-594,240	304,191	-0,030	-0,041
-593,225	102,941	-0,153	0,133
-592,211	19,372	-0,086	0,051
-591,196	3,138	0,059	0,031
-590,182	249,960	-0,082	-0,104
-589,167	-200,000	-0,008	0,037
-588,152	-200,000	-0,001	0,054
-587,138	-6,790	-0,018	-0,009
-586,123	72,970	-0,143	-0,111
-585,109	228,808	0,103	-0,125
-584,094	388,446	0,105	-0,161
-583,079	-200,000	-0,040	-0,149
-582,065	232,225	0,066	-0,081
-581,050	800,000	0,016	0,039
-580,036	18,910	-0,090	0,053
-579,021	-164,763	-0,008	0,000
-578,006	-5,704	-0,100	-0,050
-576,992	-200,000	-0,009	0,041
-575,977	-200,000	0,003	-0,073
-574,963	-64,774	0,057	-0,017
-573,948	-71,668	-0,077	0,021
-572,934	251,830	0,038	0,049
-571,919	669,376	-0,062	-0,119
-570,904	-200,000	-0,014	-0,059
-569,890	233,326	-0,113	-0,138
-568,875	-76,568	0,136	0,035
-567,861	-44,151	0,041	-0,015
-566,846	800,000	-0,050	0,151
-565,831	800,000	-0,083	0,191
-564,817	-148,655	-0,045	-0,003
-563,802	277,059	-0,081	0,106
-562,788	-93,256	0,032	0,007
-561,773	172,107	0,025	0,027
-560,758	329,451	-0,014	0,019
-559,744	-129,003	0,156	-0,016
-558,729	-88,914	-0,114	0,025
-557,715	359,014	0,030	-0,045
-556,700	52,211	-0,213	-0,150
-555,685	289,830	0,071	0,095
-554,671	800,000	0,045	0,103
-553,656	474,333	-0,039	0,065
-552,642	800,000	-0,012	0,033
-551,627	-200,000	-0,007	0,076
-550,612	187,453	-0,034	-0,038
-549,598	-200,000	-0,038	-0,176
-548,583	-43,338	-0,111	-0,041
-547,569	-56,668	0,098	0,032
-546,554	315,762	0,030	-0,042
-545,539	-200,000	-0,009	-0,112
-544,525	434,164	-0,072	-0,117
-543,510	-37,890	-0,061	0,024
-542,496	800,000	-0,033	-0,078
-541,481	-200,000	-0,008	0,099
-540,466	-130,933	0,108	-0,011
-539,452	-51,760	0,054	-0,019
-538,437	-35,782	0,081	-0,032
-537,423	-200,000	0,012	-0,127
-536,408	345,877	-0,092	-0,134
-535,393	-137,192	-0,050	0,004
-534,379	330,610	-0,031	0,044
-533,364	-44,493	0,079	0,029
-532,350	161,990	-0,015	0,015
-531,335	135,006	-0,078	0,075
-530,321	-31,671	0,071	-0,029
-529,306	13,514	-0,133	0,076
-528,291	800,000	-0,035	-0,099
-527,277	-8,377	0,018	0,009
-526,262	-92,785	-0,054	-0,011
-525,248	-102,752	0,079	0,014
-524,233	532,236	0,107	-0,187
-523,218	192,354	0,123	-0,137
-522,204	659,527	-0,027	0,052
-521,189	800,000	0,037	-0,095
-520,175	800,000	-0,029	-0,061
-519,160	-200,000	0,017	-0,054
-518,145	-57,156	-0,090	-0,029
-517,131	188,961	0,102	0,112
-516,116	-64,161	0,147	0,044
-515,102	282,583	0,096	-0,128
-514,087	315,116	0,060	0,083
-513,072	224,863	0,074	-0,088
-512,058	800,000	-0,020	-0,050
-511,043	71,173	-0,018	-0,014
-510,029	-114,748	-0,137	-0,019
-509,014	0,812	-0,041	0,022
-507,999	-159,488	0,055	-0,002
-506,985	97,121	0,044	0,037
-505,970	-200,000	-0,004	-0,045
-504,956	41,707	0,072	0,048
-503,941	-27,686	0,150	-0,064
-502,926	601,038	-0,073	0,135
-501,912	800,000	0,037	0,091
-500,897	471,436	0,082	0,137
-499,883	800,000	0,043	-0,137
-498,868	94,893	0,039	-0,033
-497,853	-200,000	-0,004	-0,094
-496,839	14,682	-0,182	-0,105
-495,824	-174,637	0,092	-0,002
-494,810	469,256	-0,035	0,058
-493,795	-200,000	-0,017	0,092
-492,781	-159,760	0,039	0,002
-491,766	800,000	0,040	0,098
-490,751	124,089	-0,021	0,020
-489,737	-141,234	0,130	0,010
-488,722	472,929	0,077	0,129
-487,708	-90,654	0,084	-0,018
-486,693	-93,715	0,031	0,006
-485,678	357,285	-0,079	-0,117
-484,664	-179,121	-0,125	-0,002
-483,649	126,041	0,042	-0,039
-482,635	-200,000	-0,002	-0,025
-481,620	800,000	-0,015	-0,031
-480,605	144,858	-0,102	0,100
-479,591	-57,402	0,016	-0,005
-478,576	249,170	0,016	-0,020
-477,562	-67,813	-0,047	0,013
-476,547	405,619	-0,016	0,025
-475,532	-200,000	0,034	0,117
-474,518	-75,743	0,061	0,016
-473,503	-200,000	0,011	-0,116
-472,489	239,936	-0,050	-0,061
-471,474	-10,788	0,078	0,038
-470,459	800,000	0,016	-0,038
-469,445	800,000	0,036	0,108
-468,430	-31,965	0,101	0,041
-467,416	174,185	0,112	0,119
-466,401	-132,464	0,182	0,017
-465,386	306,301	0,029	0,040
-464,372	800,000	0,033	0,095
-463,357	78,551	-0,078	0,061
-462,343	-200,000	0,013	-0,084
-461,328	6,241	-0,152	-0,083
-460,313	-64,047	0,072	0,021
-459,299	-155,439	-0,077	-0,004
-458,284	150,158	0,013	0,013
-457,270	443,445	-0,071	-0,116
-456,255	-200,000	-0,004	-0,040
-455,241	800,000	-0,059	-0,168
-454,226	-200,000	-0,007	-0,041
-453,211	-71,264	0,069	-0,019
-452,197	-118,659	0,055	0,007
-451,182	-72,876	0,087	-0,023
-450,168	-200,000	0,016	0,151
-449,153	47,426	-0,084	0,058
-448,138	-78,521	0,134	-0,034
-447,124	435,315	0,022	-0,036
-446,109	-18,102	-0,081	0,037
-445,095	725,238	0,046	-0,091
-444,080	-200,000	-0,011	0,056
-443,065	7,414	-0,053	-0,029
-442,051	36,631	-0,059	-0,038
-441,036	-200,000	-0,008	-0,050
-440,022	281,957	-0,050	-0,066
-439,007	130,685	0,084	-0,079
-437,992	800,000	-0,045	-0,112
-436,978	223,492	-0,078	0,093
-435,963	800,000	-0,043	-0,095
-434,949	607,675	-0,032	-0,059
-433,934	9,438	-0,068	0,038
-432,919	-200,000	-0,020	0,173
-431,905	277,226	0,073	0,096
-430,890	243,420	-0,045	-0,056
-429,876	-200,000	-0,012	0,107
-428,861	-82,442	0,066	-0,016
-427,846	228,126	-0,095	-0,114
-426,832	-139,815	-0,058	-0,004
-425,817	456,140	-0,064	-0,105
-424,803	68,491	0,092	-0,069
-423,788	-39,768	-0,047	-0,018
-422,773	-107,574	-0,126	0,020
-421,759	-200,000	-0,001	0,082
-420,744	800,000	0,042	-0,128
-419,730	-200,000	-0,011	-0,086
-418,715	-200,000	-0,013	0,077
-417,701	31,667	0,069	0,043
-416,686	471,071	-0,033	0,055
-415,671	142,078	0,078	0,076
-414,657	800,000	0,026	0,085
-413,642	-200,000	0,060	0,218
-412,628	-200,000	0,023	0,117
-411,613	-15,101	-0,067	0,032
-410,598	202,443	0,059	-0,067
-409,584	-200,000	0,015	0,208
-408,569	800,000	0,076	0,166
-407,555	-200,000	0,008	0,077
-406,540	63,159	-0,070	-0,052
-405,525	721,079	0,026	0,051
-404,511	-86,868	-0,072	0,016
-403,496	-200,000	0,027	-0,167
-402,482	800,000	-0,015	-0,037
-401,467	800,000	-0,058	-0,127
-400,452	136,350	-0,083	0,080
-399,438	-33,778	0,130	-0,052
-398,423	-118,033	0,027	-0,004
-397,409	-200,000	0,009	0,034
-396,394	10,060	-0,061	-0,034
-395,379	86,653	-0,151	-0,123
-394,365	277,166	0,063	0,083
-393,350	310,196	0,034	-0,047
-392,336	-29,812	0,119	0,049
-391,321	-26,693	0,054	-0,023
-390,306	260,466	-0,033	-0,042
-389,292	33,080	0,108	-0,069
-388,277	14,091	0,036	0,021
-387,263	719,540	0,032	0,064
-386,248	-57,339	0,100	-0,032
-385,233	-89,075	0,103	-0,022
-384,219	-200,000	-0,003	-0,045
-383,204	1,120	0,107	-0,056
-382,190	-138,662	-0,137	-0,011
-381,175	-200,000	-0,006	0,110
-380,160	797,522	-0,053	0,109
-379,146	-200,000	0,012	-0,163
-378,131	38,166	-0,102	0,067
-377,117	100,986	-0,091	0,078
-376,102	179,454	-0,055	0,059
-375,088	523,226	0,021	-0,036
-374,073	-168,553	-0,025	0,001
-373,058	-200,000	-0,026	-0,105
-372,044	140,178	0,085	0,083
-371,029	-80,748	0,068	-0,016
-370,015	-60,870	-0,114	-0,035
-369,000	-200,000	-0,024	-0,165
-367,985	263,172	-0,091	-0,116
-366,971	480,247	0,033	-0,056
-365,956	-200,000	-0,012	0,049
-364,942	800,000	0,017	-0,045
-363,927	-200,000	0,019	0,163
-362,912	-113,395	-0,147	0,021
-361,898	18,687	-0,168	0,099
-360,883	266,312	0,023	0,030
-359,869	-200,000	-0,022	-0,133
-358,854	45,477	0,109	0,074
-357,839	-173,548	0,117	0,003
-356,825	-200,000	-0,013	0,051
-355,810	800,000	-0,017	-0,034
-354,796	-200,000	-0,021	-0,154
-353,781	-200,000	0,010	0,060
-352,766	88,605	-0,049	-0,040
-351,752	-83,407	0,104	0,024
-350,737	118,831	0,141	0,128
-349,723	67,940	-0,025	-0,019
-348,708	82,406	0,094	-0,075
-347,693	-189,541	-0,214	0,002
-346,679	636,035	0,085	-0,160
-345,664	-200,000	-0,023	-0,081
-344,650	-103,266	0,032	0,006
-343,635	215,711	0,084	0,098
-342,620	-120,823	-0,062	-0,008
-341,606	560,172	0,072	0,129
-340,591	154,953	-0,147	-0,149
-339,577	419,517	0,038	-0,060
-338,562	285,820	-0,081	-0,107
-337,548	800,000	0,071	0,208
-336,533	89,972	0,092	0,075
-335,518	-99,288	0,071	0,013
-334,504	380,625	0,044	-0,066
-333,489	561,367	0,020	-0,036
-332,475	-83,146	-0,121	0,028
-331,460	-134,294	0,073	0,007
-330,445	-200,000	0,010	-0,041
-329,431	50,166	0,054	0,037
-328,416	417,245	0,048	0,075
-327,402	110,750	-0,071	0,062
-326,387	-200,000	0,036	0,159
-325,372	-200,000	0,003	0,014
-324,358	-200,000	0,012	-0,047
-323,343	178,991	0,085	0,091
-322,329	-25,433	-0,111	-0,048
-321,314	-200,000	-0,007	-0,044
-320,299	371,979	0,048	0,071
-319,285	148,288	-0,020	-0,020
-318,270	-200,000	0,023	0,090
-317,256	-140,086	-0,082	-0,006
-316,241	-46,547	-0,153	-0,055
-315,226	215,800	0,107	0,125
-314,212	-200,000	0,011	0,123
-313,197	363,285	0,021	0,031
-312,183	800,000	-0,067	0,144
-311,168	159,434	-0,116	0,118
-310,153	-52,601	0,054	-0,018
-309,139	108,215	-0,071	0,062
-308,124	-111,991	0,063	-0,009
-307,110	-200,000	0,023	-0,095
-306,095	-56,114	0,065	-0,021
-305,080	-200,000	0,017	-0,068
-304,066	-200,000	-0,003	0,050
-303,051	-200,000	0,030	0,123
-302,037	101,793	-0,142	-0,122
-301,022	-60,429	0,034	0,010
-300,008	39,385	-0,047	-0,031
-298,993	180,215	-0,066	-0,071
-297,978	800,000	0,052	0,154
-296,964	-200,000	-0,002	-0,035
-295,949	-77,330	-0,046	0,012
-294,935	80,955	0,136	-0,107
-293,920	551,324	-0,029	-0,052
-292,905	69,366	0,108	-0,081
-291,891	-200,000	-0,011	-0,063
-290,876	-28,909	-0,072	0,030
-289,862	-200,000	-0,012	-0,043
-288,847	27,401	-0,053	0,033
-287,832	9,630	0,080	-0,044
-286,818	234,724	0,046	0,055
-285,803	142,940	0,078	0,076
-284,789	-3,313	-0,044	-0,022
-283,774	65,053	-0,130	0,096
-282,759	-76,208	-0,109	0,028
-281,745	154,017	-0,164	-0,164
-280,730	29,505	0,074	-0,046
-279,716	-28,940	0,115	-0,048
-278,701	-110,390	0,046	0,007
-277,686	575,114	0,068	0,121
-276,672	52,380	0,011	0,007
-275,657	467,168	-0,016	0,026
-274,643	-200,000	-0,039	-0,128
-273,628	631,895	0,028	-0,052
-272,613	92,001	-0,021	-0,018
-271,599	-200,000	-0,008	0,139
-270,584	-158,577	-0,067	-0,003
-269,570	-200,000	0,000	0,020
-268,555	154,796	-0,020	-0,020
-267,540	-200,000	0,001	-0,095
-266,526	-200,000	0,004	-0,031
-265,511	155,214	-0,129	0,130
-264,497	166,624	0,094	-0,097
-263,482	-200,000	-0,012	0,117
-262,467	305,974	-0,009	0,012
-261,453	298,391	0,003	0,003
-260,438	-70,581	0,079	0,022
-259,424	-42,169	-0,061	0,023
-258,409	195,391	0,077	-0,085
-257,395	-74,464	0,097	-0,025
-256,380	17,735	-0,112	0,065
-255,365	-23,805	-0,101	0,044
-254,351	-3,063	-0,036	-0,018
-253,336	331,184	-0,031	-0,043
-252,322	54,904	-0,084	0,059
-251,307	800,000	0,058	0,149
-250,292	135,376	0,073	-0,069
-249,278	123,589	-0,055	0,051
-248,263	800,000	-0,016	-0,046
-247,249	399,996	-0,036	0,056
-246,234	-121,925	0,125	0,015
-245,219	67,800	-0,066	-0,049
-244,205	-56,446	-0,128	-0,041
-243,190	-129,931	0,018	0,002
-242,176	689,345	-0,036	0,070
-241,161	-83,896	0,140	-0,032
-240,146	-169,119	-0,071	0,002
-239,132	-78,367	-0,052	0,013
-238,117	800,000	-0,055	-0,154
-237,103	724,148	-0,078	-0,153
-236,088	615,113	-0,030	0,055
-235,073	-56,756	0,036	0,012
-234,059	-200,000	-0,009	0,057
-233,044	28,587	0,128	0,079
-232,030	-104,222	-0,095	-0,016
-231,015	-121,251	-0,114	0,014
-230,000	800,000	0,017	0,054
-228,986	-200,000	0,055	0,212
-227,971	125,262	0,069	0,063
-226,957	-200,000	0,048	0,296
-225,942	-119,495	0,125	0,016
-224,927	-73,419	-0,107	-0,028
-223,913	-114,864	-0,076	0,010
-222,898	800,000	0,023	-0,051
-221,884	-200,000	0,001	-0,116
-220,869	19,840	-0,138	-0,081
-219,855	-68,286	-0,061	0,017
-218,840	644,613	0,039	0,073
-217,825	409,337	0,036	0,056
-216,811	-126,926	0,128	-0,014
-215,796	-200,000	0,004	0,039
-214,782	21,027	-0,071	0,042
-213,767	460,991	0,023	0,038
-212,752	-200,000	-0,012	0,068
-211,738	-200,000	0,012	-0,095
-210,723	-137,372	0,104	0,008
-209,709	-200,000	0,016	-0,150
-208,694	90,719	-0,123	-0,101
-207,679	-200,000	-0,013	-0,073
-206,665	-200,000	0,005	0,033
-205,650	-137,462	0,145	-0,012
-204,636	234,133	-0,018	-0,022
-203,621	-38,680	-0,049	-0,019
-202,606	109,542	-0,056	-0,049
-201,592	-76,804	0,075	-0,019
-200,577	-200,000	-0,009	0,089
-199,563	50,206	-0,074	-0,051
-198,548	29,666	0,102	0,063
-197,533	764,472	0,069	-0,137
-196,519	-200,000	-0,008	0,112
-195,504	-200,000	0,002	-0,025
-194,490	-200,000	-0,004	-0,096
-193,475	800,000	-0,020	0,044
-192,460	306,428	0,056	0,076
-191,446	160,574	-0,029	0,029
-190,431	-200,000	0,012	0,111
-189,417	-1,344	0,071	0,036
-188,402	-109,074	0,146	0,022
-187,387	-30,923	-0,062	-0,025
-186,373	-200,000	-0,015	-0,060
-185,358	-200,000	0,003	0,110
-184,344	-200,000	-0,010	-0,063
-183,329	176,968	0,033	0,035
-182,315	59,338	-0,122	0,087
-181,300	-111,505	0,065	0,010
-180,285	102,964	-0,024	0,020
-179,271	-168,624	-0,090	-0,002
-178,256	800,000	-0,049	-0,107
-177,242	-0,018	0,121	0,062
-176,227	-200,000	-0,032	0,113
-175,212	-200,000	0,020	0,070
-174,198	118,111	-0,065	0,059
-173,183	500,210	0,015	-0,025
-172,169	-200,000	-0,012	-0,096
-171,154	-141,833	-0,142	-0,010
-170,139	-99,528	-0,041	-0,008
-169,125	800,000	0,040	-0,123
-168,110	520,700	-0,033	0,057
-167,096	-200,000	-0,013	0,072
-166,081	44,143	-0,033	0,022
-165,066	68,103	0,107	-0,080
-164,052	-144,395	0,036	0,002
-163,037	-200,000	-0,014	-0,144
-162,023	63,220	-0,055	0,040
-161,008	53,456	0,099	-0,069
-159,993	414,849	-0,042	-0,065
-158,979	107,107	0,043	-0,038
-157,964	-200,000	-0,001	-0,081
-156,950	-14,527	-0,103	0,048
-155,935	-200,000	-0,016	-0,063
-154,920	-157,600	0,077	0,003
-153,906	-44,183	0,105	-0,038
-152,891	-200,000	0,029	0,138
-151,877	17,141	-0,115	-0,066
-150,862	-22,393	-0,117	-0,051
-149,847	269,653	-0,037	-0,048
-148,833	-11,154	-0,108	-0,052
-147,818	430,240	0,067	0,106
-146,804	39,468	0,027	-0,017
-145,789	138,282	0,031	0,030
-144,775	34,447	0,041	0,026
-143,760	-53,068	-0,163	-0,054
-142,745	-71,246	-0,130	0,035
-141,731	-31,739	0,026	-0,011
-140,716	207,756	-0,077	0,088
-139,702	-31,096	0,101	-0,041
-138,687	412,942	-0,033	-0,051
-137,672	800,000	-0,045	0,125
-136,658	564,639	0,037	0,065
-135,643	-95,653	-0,146	0,028
-134,629	320,375	-0,026	0,036
-133,614	179,096	-0,151	0,161
-132,599	-200,000	-0,035	-0,131
-131,585	163,350	0,029	-0,030
-130,570	92,922	0,012	-0,009
-129,556	800,000	-0,023	-0,068
-128,541	-10,895	-0,108	-0,052
-127,526	168,492	0,027	-0,028
-126,512	89,683	-0,096	0,078
-125,497	171,380	0,037	-0,039
-124,483	-158,942	-0,063	-0,003
-123,468	351,461	-0,050	0,072
-122,453	77,060	-0,075	-0,058
-121,439	-200,000	-0,040	-0,177
-120,424	-11,582	-0,163	0,078
-119,410	800,000	0,027	0,071
-118,395	136,646	0,093	-0,088
-117,380	150,209	0,084	-0,083
-116,366	-200,000	0,018	-0,090
-115,351	117,789	0,082	-0,074
-114,337	-200,000	0,011	0,039
-113,322	-129,128	0,048	-0,005
-112,307	11,977	-0,061	-0,034
-111,293	-35,239	-0,177	-0,070
-110,278	-114,908	-0,069	-0,009
-109,264	-109,059	0,097	0,015
-108,249	800,000	-0,017	-0,039
-107,234	-146,239	-0,111	0,007
-106,220	-200,000	-0,018	-0,081
-105,205	492,744	0,022	-0,037
-104,191	-200,000	0,023	0,087
-103,176	371,167	0,057	0,084
-102,162	-90,481	-0,046	0,010
-101,147	222,287	0,040	-0,047
-100,132	18,808	-0,055	0,032
-99,118	31,669	0,085	0,053
-98,103	425,475	0,023	-0,037
-97,089	-200,000	-0,004	-0,058
-96,074	800,000	0,048	-0,097
-95,059	-200,000	-0,034	-0,160
-94,045	4,397	-0,110	0,058
-93,030	-38,660	0,053	-0,020
-92,016	800,000	0,035	-0,081
-91,001	800,000	-0,061	0,126
-89,986	4,315	0,120	0,064
-88,972	198,734	0,085	0,094
-87,957	-19,043	-0,063	0,028
-86,943	-37,447	-0,115	-0,044
-85,928	-58,371	0,089	-0,028
-84,913	-200,000	0,014	-0,118
-83,899	-26,968	-0,150	0,063
-82,884	-200,000	0,003	-0,037
-81,870	764,717	-0,015	0,030
-80,855	800,000	0,031	0,083
-79,840	366,540	-0,073	-0,107
-78,826	103,770	-0,172	-0,146
-77,811	-200,000	0,010	-0,067
-76,797	-200,000	-0,009	-0,050
-75,782	236,600	0,023	-0,027
-74,767	800,000	0,018	-0,053
-73,753	95,076	0,045	-0,038
-72,738	505,677	-0,067	0,113
-71,724	-86,788	0,030	0,007
-70,709	78,849	-0,090	-0,070
-69,694	-103,235	-0,024	0,004
-68,680	-36,390	0,040	-0,016
-67,665	800,000	0,060	0,128
-66,651	76,336	0,060	0,046
-65,636	333,795	-0,091	0,129
-64,622	-200,000	0,017	0,062
-63,607	-200,000	-0,026	-0,087
-62,592	-200,000	0,001	-0,084
-61,578	-29,208	0,120	-0,050
-60,563	-160,326	-0,145	-0,006
-59,549	-200,000	0,006	0,049
-58,534	-184,791	-1,430	0,016
-57,519	501,065	-0,890	-1,497
-56,505	-200,000	-0,869	-4,436
-55,490	15,256	0,547	-0,310
-54,476	800,000	5,054	11,905
-53,461	-200,000	13,377	252,666
-52,446	-200,000	688,677	2268,435
-51,432	596,114	1622,935	2927,373
-50,417	120,902	1636,286	1476,557
-49,403	73,686	1290,453	979,984
-48,388	38,428	1025,267	661,552
-47,373	24,511	982,654	588,271
-46,359	23,722	972,499	579,580
-45,344	22,858	968,107	574,115
-44,330	22,787	966,794	573,084
-43,315	22,653	965,380	571,783
-42,300	22,594	964,384	570,980
-41,286	22,685	963,298	570,610
-40,271	22,564	962,574	569,765
-39,257	22,641	961,466	569,337
-38,242	22,643	960,479	568,735
-37,227	22,554	959,708	567,969
-36,213	22,581	958,736	567,457
-35,198	22,557	958,024	566,935
-34,184	22,589	957,570	566,747
-33,169	22,572	956,448	566,009
-32,154	22,664	955,388	565,654
-31,140	22,612	954,614	565,005
-30,125	22,616	953,856	564,549
-29,111	22,627	953,015	564,062
-28,096	22,673	952,311	563,771
-27,082	22,671	951,561	563,298
-26,067	22,616	950,895	562,706
-25,052	22,658	950,054	562,320
-24,038	22,633	949,560	561,927
-23,023	22,639	948,922	561,546
-22,009	22,634	948,233	561,101
-20,994	22,693	947,448	560,800
-19,979	22,618	947,163	560,370
-18,965	22,677	946,317	560,035
-17,950	22,613	945,801	559,503
-16,936	22,544	945,101	558,848
-15,921	22,593	944,411	558,573
-14,906	22,545	943,622	557,932
-13,892	22,541	942,957	557,503
-12,877	22,528	942,340	557,076
-11,863	22,499	941,796	556,641
-10,848	22,477	941,271	556,238
-9,833	22,530	940,852	556,135
-8,819	22,616	940,086	555,936
-7,804	22,523	939,476	555,257
-6,790	22,508	938,917	554,856
-5,775	22,557	938,361	554,662
-4,760	22,584	937,625	554,291
-3,746	22,554	936,995	553,801
-2,731	22,355	936,400	552,797
-1,717	22,384	935,709	552,460
-0,702	22,375	935,058	552,023
0,313	22,136	934,270	551,638
1,327	25,128	932,333	559,860
2,342	34,785	796,686	504,138
3,356	32,704	451,877	282,783
4,371	1,857	293,681	153,026
5,386	-2,723	274,646	138,762
6,400	-4,163	268,908	134,515
7,415	-4,517	266,411	132,929
8,429	-4,230	265,105	132,528
9,444	-4,209	264,360	132,163
10,459	-4,378	263,746	131,690
11,473	-4,385	263,178	131,388
12,488	-4,335	262,425	131,046
13,502	-4,450	262,000	130,719
14,517	-4,389	261,648	130,587
15,531	-4,267	261,175	130,448
16,546	-4,211	260,833	130,317
17,561	-4,571	260,495	129,813
18,575	-4,188	260,224	130,010
19,590	-4,269	259,860	129,744
20,604	-4,369	259,579	129,502
21,619	-4,406	259,225	129,281
22,634	-4,349	258,957	129,187
23,648	-4,468	258,782	128,982
24,663	-4,560	258,447	128,721
25,677	-4,458	258,217	128,686
26,692	-4,293	257,867	128,647
27,707	-4,472	257,734	128,410
28,721	-4,437	257,216	128,172
29,736	-4,496	257,114	128,057
30,750	-4,554	256,885	127,880
31,765	-4,412	256,618	127,861
32,780	-4,371	256,458	127,806
33,794	-4,319	256,155	127,690
34,809	-4,369	255,917	127,516
35,823	-4,472	255,726	127,318
36,838	-4,506	255,432	127,131
37,853	-4,407	255,219	127,100
38,867	-4,526	254,915	126,833
39,882	-4,440	254,824	126,852
40,896	-4,434	254,525	126,697
41,911	-4,614	254,389	126,461
42,926	-4,679	254,139	126,268
43,940	-4,613	253,837	126,165
44,955	-4,573	253,644	126,092
45,969	-4,619	253,280	125,860
46,984	-4,780	253,212	125,675
47,999	-4,995	252,926	125,334
49,013	-5,074	252,715	125,151
50,028	-5,229	252,371	124,834
51,042	-5,310	252,255	124,695
52,057	-5,432	252,033	124,469
53,071	-5,132	251,715	124,560
54,086	-5,134	251,666	124,524
55,101	-5,192	251,563	124,411
56,115	-4,853	251,383	124,604
57,130	-4,433	251,371	124,950
58,144	-4,446	251,256	124,871
59,159	-4,188	250,814	124,861
60,174	-4,211	250,652	124,750
61,188	-4,003	250,396	124,790
62,203	-4,513	250,398	124,342
63,217	-4,359	250,023	124,277
64,232	-4,253	249,866	124,278
65,247	-4,290	249,620	124,113
66,261	-4,107	249,418	124,158
67,276	-4,450	249,068	123,680
68,290	-4,804	248,890	123,278
69,305	-4,901	248,685	123,082
70,320	-4,716	248,386	123,081
71,334	-4,474	248,311	123,240
72,349	-4,315	248,224	123,321
73,363	-4,235	248,083	123,308
74,378	-4,226	247,802	123,165
75,393	-4,238	247,512	123,000
76,407	-4,483	247,486	122,768
77,422	-4,439	247,277	122,690
78,436	-4,284	246,930	122,638
79,451	-4,430	246,849	122,464
80,466	-4,487	246,627	122,295
81,480	-4,642	246,390	122,035
82,495	-4,570	246,104	121,943
83,509	-4,453	245,991	121,975
84,524	-4,545	245,855	121,819
85,539	-4,849	245,569	121,411
86,553	-4,773	245,374	121,367
87,568	-4,627	245,190	121,388
88,582	-4,528	244,986	121,359
89,597	-4,702	244,844	121,132
90,611	-4,455	244,644	121,230
91,626	-4,280	244,589	121,338
92,641	-4,379	244,476	121,188
93,655	-4,480	244,248	120,981
94,670	-4,488	243,941	120,811
95,684	-4,519	243,709	120,660
96,699	-4,615	243,754	120,590
97,714	-4,503	243,456	120,526
98,728	-4,578	243,088	120,270
99,743	-4,862	242,916	119,939
100,757	-4,697	242,784	119,999
101,772	-4,627	242,475	119,894
102,787	-4,595	242,384	119,865
103,801	-4,482	242,353	119,933
104,816	-4,458	241,988	119,761
105,830	-4,501	242,012	119,727
106,845	-4,310	241,845	119,792
107,860	-4,402	241,561	119,565
108,874	-4,564	241,377	119,329
109,889	-4,577	241,186	119,214
110,903	-4,743	241,047	118,997
111,918	-4,542	240,857	119,058
112,933	-4,530	240,732	118,996
113,947	-4,423	240,467	118,941
114,962	-4,456	240,417	118,880
115,976	-4,570	240,293	118,714
116,991	-4,563	240,061	118,595
118,006	-4,654	239,908	118,434
119,020	-4,499	239,754	118,474
120,035	-4,465	239,642	118,436
121,049	-4,283	239,481	118,495
122,064	-4,215	239,137	118,370
123,079	-4,178	239,038	118,340
124,093	-4,457	238,893	118,030
125,108	-4,590	238,693	117,813
126,122	-4,731	238,373	117,529
127,137	-4,812	238,154	117,345
128,151	-4,660	238,043	117,403
129,166	-4,747	237,977	117,289
130,181	-4,803	237,758	117,126
131,195	-4,824	237,461	116,952
132,210	-4,673	237,470	117,068
133,224	-4,435	237,193	117,114
134,239	-4,315	236,953	117,082
135,254	-4,577	236,928	116,847
136,268	-4,479	236,675	116,791
137,283	-4,658	236,431	116,516
138,297	-4,784	236,248	116,314
139,312	-5,031	236,086	116,025
140,327	-4,674	235,979	116,249
141,341	-4,361	235,996	116,500
142,356	-4,055	235,818	116,647
143,370	-4,195	235,703	116,468
144,385	-4,012	235,493	116,501
145,400	-3,916	235,274	116,458
146,414	-4,115	235,146	116,225
147,429	-4,182	234,982	116,080
148,443	-4,270	234,742	115,880
149,458	-4,148	234,723	115,958
150,473	-4,058	234,290	115,806
151,487	-4,288	234,170	115,553
152,502	-4,340	234,080	115,457
153,516	-4,306	233,897	115,383
154,531	-3,954	233,594	115,504
155,546	-4,135	233,563	115,334
156,560	-4,382	233,501	115,097
157,575	-4,233	233,210	115,062
158,589	-4,439	233,077	114,822
159,604	-4,149	232,951	114,979
160,619	-4,093	232,774	114,926
161,633	-3,950	232,690	114,988
162,648	-4,050	232,517	114,813
163,662	-4,098	232,275	114,646
164,677	-4,314	232,176	114,416
165,692	-4,127	232,080	114,506
166,706	-4,001	231,732	114,424
167,721	-3,793	231,746	114,584
168,735	-3,991	231,579	114,335
169,750	-4,050	231,426	114,203
170,764	-4,346	231,290	113,893
171,779	-4,092	230,999	113,939
172,794	-4,028	231,062	114,010
173,808	-4,037	230,756	113,842
174,823	-4,511	230,464	113,317
175,837	-4,673	230,281	113,089
176,852	-4,357	230,176	113,276
177,867	-4,280	230,089	113,283
178,881	-4,360	230,162	113,246
179,896	-3,927	229,844	113,418
180,910	-4,059	229,797	113,281
181,925	-4,270	229,729	113,073
182,940	-4,101	229,450	113,057
183,954	-3,919	229,294	113,112
184,969	-4,139	229,199	112,884
185,983	-3,894	228,983	112,957
186,998	-3,955	228,758	112,789
188,013	-3,913	228,714	112,790
189,027	-3,955	228,611	112,697
190,042	-4,033	228,357	112,501
191,056	-4,041	228,273	112,444
192,071	-3,973	228,138	112,420
193,086	-4,123	228,041	112,245
194,100	-4,206	227,749	112,028
195,115	-4,285	227,440	111,805
196,129	-4,764	227,297	111,354
197,144	-2,097	228,083	113,793
198,159	1,818	229,032	117,292
199,173	3,994	229,613	119,267
200,188	4,100	229,639	119,352
201,202	4,148	229,370	119,239
202,217	4,512	229,222	119,433
203,232	4,655	229,207	119,525
204,246	4,564	229,082	119,379
205,261	4,757	228,981	119,465
206,275	4,712	228,939	119,398
207,290	4,597	228,686	119,166
208,304	4,813	228,547	119,249
209,319	4,693	228,389	119,064
210,334	4,740	228,117	118,948
211,348	4,296	227,927	118,497
212,363	4,360	227,583	118,357
213,377	3,833	227,491	117,894
214,392	4,014	227,352	117,950
215,407	4,167	227,085	117,918
216,421	4,197	227,001	117,887
217,436	3,994	226,811	117,623
218,450	3,817	226,590	117,363
219,465	3,680	226,494	117,197
220,480	3,722	226,252	117,094
221,494	3,651	226,252	117,029
222,509	3,674	226,170	116,995
223,523	3,686	226,080	116,946
224,538	3,794	225,764	116,854
225,553	3,824	225,631	116,799
226,567	4,160	225,613	117,034
227,582	4,229	225,446	116,989
228,596	4,239	225,515	117,022
229,611	3,966	225,210	116,646
230,626	3,832	224,875	116,361
231,640	3,839	224,737	116,285
232,655	4,038	224,756	116,434
233,669	4,625	224,547	116,760
234,684	4,453	224,515	116,602
235,699	4,306	224,360	116,400
236,713	4,221	224,148	116,216
237,728	3,812	223,952	115,796
238,742	3,996	223,594	115,739
239,757	3,960	223,517	115,662
240,772	3,905	223,337	115,517
241,786	3,834	223,278	115,423
242,801	4,088	223,250	115,589
243,815	4,315	223,170	115,707
244,830	4,504	222,926	115,712
245,844	4,003	222,825	115,274
246,859	4,021	222,655	115,189
247,874	4,247	222,573	115,306
248,888	4,269	222,352	115,198
249,903	4,086	222,165	114,953
250,917	3,864	222,051	114,719
251,932	3,819	221,915	114,605
252,947	3,970	221,794	114,645
253,961	3,888	221,549	114,446
254,976	3,863	221,471	114,378
255,990	4,144	221,278	114,477
257,005	4,046	221,307	114,408
258,020	4,290	221,034	114,438
259,034	4,602	220,892	114,586
260,049	4,376	220,744	114,331
261,063	4,175	220,714	114,157
262,078	4,348	220,589	114,210
263,093	4,476	220,504	114,250
264,107	4,500	220,272	114,138
265,122	4,492	220,060	114,012
266,136	4,531	220,021	114,011
267,151	4,422	219,823	113,817
268,166	4,064	219,702	113,481
269,180	3,914	219,349	113,178
270,195	3,887	219,233	113,088
271,209	3,729	219,082	112,884
272,224	3,983	219,032	113,034
273,239	4,095	218,952	113,065
274,253	3,811	218,872	112,806
275,268	3,765	218,564	112,603
276,282	3,739	218,346	112,461
277,297	3,818	218,193	112,431
278,312	3,877	218,202	112,468
279,326	3,874	218,138	112,423
280,341	3,800	218,032	112,305
281,355	3,949	217,777	112,272
282,370	3,873	217,651	112,141
283,384	3,825	217,422	111,978
284,399	3,769	217,206	111,817
285,414	3,714	217,116	111,720
286,428	3,949	217,175	111,912
287,443	4,213	216,912	111,958
288,457	4,168	216,812	111,864
289,472	3,951	216,626	111,600
290,487	3,463	216,465	111,153
291,501	3,437	216,174	110,975
292,516	3,582	216,192	111,080
293,530	3,917	215,996	111,211
294,545	3,585	215,870	110,897
295,560	3,685	215,698	110,871
296,574	3,769	215,722	110,934
297,589	4,043	215,504	111,009
298,603	3,911	215,447	110,875
299,618	4,141	215,232	110,920
300,633	3,831	215,185	110,663
301,647	4,275	215,048	110,902
302,662	4,284	214,913	110,829
303,676	4,290	214,679	110,702
304,691	4,302	214,644	110,683
305,706	4,096	214,511	110,457
306,720	3,942	214,437	110,299
307,735	4,091	214,131	110,238
308,749	3,687	214,010	109,876
309,764	4,064	213,950	110,106
310,779	4,282	213,896	110,224
311,793	4,227	213,670	110,058
312,808	4,183	213,448	109,903
313,822	4,055	213,394	109,774
314,837	3,881	213,229	109,556
315,852	4,134	212,962	109,588
316,866	3,787	212,935	109,318
317,881	4,236	212,873	109,596
318,895	4,394	212,697	109,608
319,910	3,829	212,485	109,088
320,925	3,666	212,286	108,860
321,939	3,559	212,039	108,648
322,954	3,679	211,975	108,691
323,968	4,100	211,947	108,964
324,983	4,040	211,952	108,915
325,997	4,398	211,685	109,021
327,012	3,862	211,720	108,650
328,027	4,010	211,400	108,581
329,041	4,259	211,513	108,805
330,056	4,252	211,399	108,732
331,070	3,878	211,080	108,295
332,085	3,543	210,958	107,986
333,100	3,751	210,836	108,060
334,114	4,059	210,653	108,173
335,129	3,894	210,548	107,994
336,143	3,917	210,331	107,890
337,158	4,162	210,101	107,933
338,173	4,113	210,053	107,865
339,187	3,768	209,784	107,475
340,202	3,591	209,789	107,345
341,216	3,515	209,571	107,171
342,231	3,491	209,596	107,157
343,246	3,594	209,420	107,129
344,260	3,890	209,292	107,261
345,275	4,078	209,115	107,292
346,289	3,981	209,026	107,169
347,304	4,002	208,944	107,132
348,319	3,890	208,834	106,988
349,333	3,965	208,495	106,857
350,348	3,990	208,471	106,853
351,362	4,173	208,453	106,961
352,377	4,206	208,340	106,916
353,392	4,075	208,042	106,664
354,406	3,859	207,977	106,471
355,421	193,538	1344,721	1431,851
356,435	154,398	1483,324	1431,976
