DTS Sentinel unit serial number:	SN410029Multiplexer serial number:	ORYXHardware model number:	OX2-SRSoftware version number:	ORYX F/W v4,00 Oryx Data Collector v3.7.2.0data status	okinstallation	B6 Nyhavnadifferential loss correction	single-endedforward channel	channel 2reverse channel	N/Adate	2023/12/09time	13:55:08forward acquisition time	300,00reverse acquisition time	0,00gamma	499,1914k internal	0,3134k external	0,3134temperature offset calibration	1,0000default loss term (dB/km)	0,3820temperature slope calibration	1,0000multiplexer offset coefficient	1,0000multiplexer slope coefficient	1,0000fibre end	0,00T internal ref (°C)	20,39T ext. ref 1 (°C)	4,40T ext. ref 2 (°C)	4,40length (m)	temperature (°C)	Stokes	anti-Stokes-744,400	74,023	-0,007	-0,005
-743,385	-40,439	-0,268	0,103
-742,371	170,431	0,033	0,035
-741,356	-29,643	-0,161	0,068
-740,342	-200,000	0,026	0,128
-739,327	24,357	-0,142	0,087
-738,312	363,449	0,023	0,035
-737,298	-67,214	-0,256	0,074
-736,283	-200,000	-0,014	-0,077
-735,269	-164,923	-0,135	0,004
-734,254	509,264	0,012	-0,021
-733,239	-57,346	-0,475	-0,154
-732,225	362,872	0,045	-0,068
-731,210	18,379	-0,039	-0,023
-730,196	-62,746	-0,043	-0,013
-729,181	-85,522	-0,172	0,039
-728,167	-200,000	0,013	0,051
-727,152	-46,882	-0,075	-0,027
-726,137	-75,746	-0,083	0,022
-725,123	38,119	0,020	-0,013
-724,108	103,220	-0,143	-0,125
-723,094	-200,000	-0,034	-0,152
-722,079	-200,000	-0,126	0,000
-721,064	-130,676	-0,192	0,019
-720,050	-200,000	0,006	0,047
-719,035	-86,464	-0,046	0,010
-718,021	-34,596	-0,115	0,047
-717,006	-14,250	0,080	0,038
-715,991	181,219	-0,108	-0,118
-714,977	76,484	0,105	-0,083
-713,962	-169,218	-0,205	0,006
-712,948	-200,000	0,009	-0,091
-711,933	-200,000	-0,005	-0,043
-710,918	-200,000	-0,059	0,264
-709,904	21,320	-0,053	0,032
-708,889	-152,183	-0,086	-0,005
-707,875	52,891	-0,104	-0,074
-706,860	107,450	0,092	0,082
-705,845	33,882	0,150	-0,097
-704,831	-98,251	-0,042	0,008
-703,816	-95,147	0,074	0,015
-702,802	681,638	-0,054	0,105
-701,787	-112,539	-0,086	0,013
-700,772	-43,696	-0,091	-0,034
-699,758	-200,000	-0,008	0,111
-698,743	101,254	-0,051	0,044
-697,729	-18,302	-0,020	0,009
-696,714	357,494	-0,007	0,011
-695,699	-200,000	-0,038	-0,145
-694,685	85,245	-0,106	-0,086
-693,670	800,000	-0,020	-0,062
-692,656	-94,117	0,075	-0,015
-691,641	-139,346	0,080	0,006
-690,627	-114,321	-0,081	0,011
-689,612	-200,000	-0,003	-0,027
-688,597	116,023	-0,068	-0,062
-687,583	-39,681	-0,124	-0,048
-686,568	-33,074	-0,220	-0,090
-685,554	-200,000	0,026	-0,117
-684,539	-163,692	-0,042	-0,001
-683,524	-112,876	-0,107	-0,016
-682,510	129,287	-0,073	-0,069
-681,495	173,634	-0,039	-0,042
-680,481	-185,826	-0,088	0,001
-679,466	800,000	0,013	-0,029
-678,451	429,453	-0,051	0,082
-677,437	-200,000	0,004	-0,050
-676,422	33,032	0,116	0,074
-675,408	-58,605	0,092	-0,029
-674,393	-200,000	-0,023	-0,157
-673,378	86,229	0,059	0,048
-672,364	567,899	-0,075	-0,135
-671,349	282,941	-0,046	0,061
-670,335	800,000	-0,025	0,073
-669,320	-155,215	0,091	-0,004
-668,305	-200,000	0,016	-0,054
-667,291	-200,000	-0,007	0,066
-666,276	137,703	-0,086	0,084
-665,262	-94,956	-0,016	-0,003
-664,247	333,272	0,020	0,029
-663,232	61,613	0,027	0,020
-662,218	-58,834	0,083	-0,026
-661,203	-115,788	-0,105	0,014
-660,189	-3,730	-0,090	0,046
-659,174	-200,000	-0,007	-0,144
-658,159	-42,666	-0,043	-0,016
-657,145	336,040	0,096	-0,138
-656,130	800,000	-0,023	-0,051
-655,116	96,332	0,083	0,070
-654,101	43,892	-0,143	-0,097
-653,086	189,829	-0,111	0,123
-652,072	631,042	-0,054	-0,101
-651,057	800,000	-0,043	-0,124
-650,043	45,574	-0,134	-0,091
-649,028	-100,357	-0,104	-0,019
-648,014	-6,227	0,093	0,047
-646,999	-146,041	-0,081	0,005
-645,984	16,218	0,028	-0,016
-644,970	53,844	-0,044	0,032
-643,955	256,611	0,073	0,093
-642,941	435,292	-0,045	0,072
-641,926	800,000	0,030	0,062
-640,911	-135,621	-0,098	-0,009
-639,897	800,000	0,064	0,150
-638,882	-77,634	0,121	-0,031
-637,868	112,287	-0,049	0,044
-636,853	-200,000	-0,060	-0,218
-635,838	198,780	-0,154	-0,175
-634,824	800,000	0,022	-0,047
-633,809	-200,000	0,031	0,133
-632,795	-200,000	0,008	-0,047
-631,780	-169,044	-0,039	0,001
-630,765	-200,000	-0,019	-0,074
-629,751	800,000	-0,039	0,097
-628,736	49,587	0,058	0,041
-627,722	-79,035	-0,133	-0,033
-626,707	22,055	-0,083	0,050
-625,692	-60,787	0,122	0,038
-624,678	800,000	-0,026	-0,069
-623,663	-200,000	-0,036	-0,144
-622,649	-200,000	-0,000	-0,188
-621,634	181,274	0,051	-0,056
-620,619	-148,160	-0,084	-0,005
-619,605	107,798	0,041	-0,036
-618,590	-10,924	0,062	-0,030
-617,576	-200,000	-0,004	0,101
-616,561	800,000	-0,003	-0,011
-615,546	30,637	-0,029	0,018
-614,532	-200,000	0,009	-0,075
-613,517	174,241	-0,050	0,054
-612,503	92,168	0,077	-0,064
-611,488	-22,952	-0,066	-0,029
-610,474	-23,818	0,196	0,086
-609,459	-200,000	0,011	0,044
-608,444	-58,005	-0,098	-0,031
-607,430	231,460	0,051	-0,061
-606,415	-15,499	-0,052	-0,024
-605,401	100,659	0,053	-0,045
-604,386	-115,763	0,093	0,013
-603,371	42,145	-0,024	0,016
-602,357	-72,581	-0,100	0,027
-601,342	-200,000	0,033	-0,122
-600,328	-200,000	0,028	-0,118
-599,313	-31,203	0,031	-0,013
-598,298	385,112	0,038	-0,057
-597,284	-200,000	-0,003	-0,078
-596,269	-26,829	0,082	0,035
-595,255	-67,560	-0,070	-0,020
-594,240	176,721	-0,106	-0,114
-593,225	-200,000	0,013	-0,193
-592,211	-144,528	0,002	0,000
-591,196	131,437	0,059	0,056
-590,182	-46,096	0,057	0,021
-589,167	75,364	-0,034	0,026
-588,152	357,717	-0,032	0,047
-587,138	-166,607	-0,105	-0,003
-586,123	-200,000	-0,001	0,029
-585,109	-44,250	-0,047	-0,017
-584,094	225,126	0,087	-0,105
-583,079	-200,000	0,037	0,126
-582,065	-5,085	0,071	-0,036
-581,050	800,000	0,038	-0,107
-580,036	38,694	-0,036	-0,024
-579,021	285,684	-0,031	-0,041
-578,006	68,671	-0,041	0,031
-576,992	607,740	0,046	-0,085
-575,977	-112,334	-0,024	0,004
-574,963	-200,000	-0,042	0,242
-573,948	-16,508	-0,111	0,052
-572,934	-185,061	-0,137	-0,002
-571,919	-45,009	-0,092	-0,034
-570,904	498,114	-0,017	0,029
-569,890	-101,337	0,058	0,010
-568,875	-200,000	0,015	0,132
-567,861	128,780	-0,032	0,030
-566,846	242,059	-0,111	0,137
-565,831	-200,000	-0,007	0,039
-564,817	-200,000	0,008	-0,154
-563,802	800,000	-0,053	0,116
-562,788	166,109	0,041	0,043
-561,773	27,938	0,144	-0,090
-560,758	-90,227	0,064	0,014
-559,744	79,708	-0,071	-0,056
-558,729	543,571	-0,042	0,075
-557,715	-200,000	0,036	-0,150
-556,700	369,024	-0,050	-0,075
-555,685	-15,381	-0,098	0,046
-554,671	268,852	-0,033	-0,043
-553,656	629,716	-0,027	-0,051
-552,642	800,000	0,046	-0,110
-551,627	9,664	0,039	0,022
-550,612	207,106	0,060	-0,069
-549,598	583,903	-0,048	0,087
-548,583	88,652	-0,097	0,079
-547,569	48,635	0,038	-0,026
-546,554	-200,000	-0,006	0,114
-545,539	277,764	-0,037	0,048
-544,525	-200,000	0,010	0,099
-543,510	94,493	-0,067	-0,056
-542,496	215,091	-0,039	-0,046
-541,481	-200,000	-0,025	-0,117
-540,466	-200,000	-0,010	0,056
-539,452	-200,000	0,035	0,183
-538,437	-200,000	-0,002	0,015
-537,423	-10,622	0,041	-0,020
-536,408	-78,041	0,094	0,024
-535,393	-200,000	-0,015	0,126
-534,379	36,519	-0,081	0,053
-533,364	250,317	-0,038	0,048
-532,350	79,216	0,127	-0,100
-531,335	7,590	-0,107	-0,059
-530,321	184,920	0,026	-0,029
-529,306	-167,828	0,140	-0,004
-528,291	-105,982	-0,116	-0,019
-527,277	800,000	0,028	-0,062
-526,262	64,220	-0,057	0,042
-525,248	-121,612	0,038	-0,005
-524,233	356,975	-0,083	-0,122
-523,218	156,890	0,014	-0,014
-522,204	-200,000	0,019	0,130
-521,189	611,111	-0,045	-0,083
-520,175	13,243	-0,090	-0,051
-519,160	729,269	-0,063	-0,125
-518,145	-200,000	-0,010	0,196
-517,131	800,000	0,034	0,093
-516,116	-200,000	-0,033	0,190
-515,102	82,360	-0,043	0,034
-514,087	800,000	-0,047	-0,098
-513,072	315,987	-0,074	-0,103
-512,058	-122,953	-0,052	0,006
-511,043	-88,858	0,055	0,012
-510,029	37,972	0,114	0,075
-509,014	-200,000	-0,006	0,101
-507,999	-104,203	-0,074	0,013
-506,985	183,096	-0,084	-0,091
-505,970	-19,044	0,112	-0,051
-504,956	47,961	0,075	0,051
-503,941	-34,315	-0,084	-0,034
-502,926	627,850	0,050	0,094
-501,912	92,108	0,146	-0,121
-500,897	257,972	0,100	-0,126
-499,883	740,269	0,044	0,088
-498,868	-82,063	-0,074	-0,018
-497,853	178,242	-0,144	-0,154
-496,839	117,394	0,172	-0,156
-495,824	514,073	0,049	0,084
-494,810	-200,000	-0,018	0,086
-493,795	15,284	0,070	-0,040
-492,781	-131,006	-0,027	-0,003
-491,766	325,361	0,065	-0,092
-490,751	615,816	0,055	0,103
-489,737	40,908	0,080	-0,053
-488,722	328,137	0,040	0,056
-487,708	69,553	0,137	0,103
-486,693	800,000	-0,023	0,065
-485,678	-50,577	-0,037	0,013
-484,664	-200,000	-0,023	0,076
-483,649	800,000	-0,040	0,093
-482,635	49,309	-0,100	-0,069
-481,620	275,654	0,036	-0,047
-480,605	-85,554	0,057	-0,013
-479,591	-200,000	-0,017	0,075
-478,576	-200,000	-0,001	-0,026
-477,562	504,786	-0,077	-0,132
-476,547	-200,000	0,017	-0,105
-475,532	547,848	0,038	-0,068
-474,518	800,000	0,058	0,151
-473,503	-20,168	0,107	-0,048
-472,489	561,738	-0,047	0,083
-471,474	-200,000	0,017	0,078
-470,459	88,825	-0,123	0,101
-469,445	-146,686	0,155	0,010
-468,430	-200,000	-0,011	-0,045
-467,416	-200,000	0,022	0,073
-466,401	211,716	0,103	0,119
-465,386	-200,000	0,032	-0,128
-464,372	800,000	0,045	0,115
-463,357	-38,690	-0,183	-0,071
-462,343	-104,538	-0,106	-0,018
-461,328	-200,000	-0,004	0,057
-460,313	800,000	-0,011	0,030
-459,299	136,819	0,019	-0,018
-458,284	297,222	0,038	0,051
-457,270	49,621	0,113	0,078
-456,255	-200,000	-0,014	-0,092
-455,241	-78,953	0,105	0,026
-454,226	328,315	-0,107	0,151
-453,211	-22,163	0,088	0,039
-452,197	-200,000	0,017	-0,117
-451,182	65,907	0,045	-0,033
-450,168	-94,682	0,173	-0,034
-449,153	-50,571	-0,050	-0,017
-448,138	-149,637	0,083	-0,005
-447,124	-150,207	0,050	0,003
-446,109	240,356	0,022	-0,027
-445,095	21,825	-0,047	0,028
-444,080	-37,035	-0,076	-0,030
-443,065	-137,804	0,157	-0,013
-442,051	-175,156	-0,054	-0,001
-441,036	-19,248	-0,222	-0,101
-440,022	-4,639	0,083	0,042
-439,007	-112,478	0,039	-0,006
-437,992	314,181	0,053	0,073
-436,978	-200,000	0,031	-0,143
-435,963	408,801	-0,112	0,175
-434,949	29,012	-0,020	0,013
-433,934	287,538	-0,062	-0,082
-432,919	6,302	0,021	0,012
-431,905	440,659	0,010	0,016
-430,890	-134,344	0,102	0,009
-429,876	800,000	-0,070	0,162
-428,861	-43,472	0,192	0,071
-427,846	177,737	-0,063	-0,068
-426,832	33,143	-0,058	0,037
-425,817	416,841	-0,070	0,110
-424,803	-92,022	-0,063	0,013
-423,788	800,000	-0,071	0,186
-422,773	76,826	0,130	0,101
-421,759	-200,000	-0,019	0,062
-420,744	62,819	-0,065	0,047
-419,730	-200,000	-0,019	-0,147
-418,715	-200,000	-0,011	-0,166
-417,701	-86,920	-0,038	-0,009
-416,686	-200,000	-0,028	0,104
-415,671	141,178	0,049	0,048
-414,657	389,018	0,042	0,064
-413,642	63,951	-0,014	-0,010
-412,628	3,123	0,105	-0,056
-411,613	77,257	0,076	-0,059
-410,598	-43,448	-0,154	-0,057
-409,584	45,731	0,050	-0,034
-408,569	278,607	0,012	-0,016
-407,555	117,014	0,007	-0,006
-406,540	-200,000	-0,008	0,130
-405,525	-200,000	-0,023	0,110
-404,511	-96,627	-0,079	-0,015
-403,496	-33,715	0,032	0,013
-402,482	-0,710	0,042	-0,022
-401,467	91,144	0,121	-0,099
-400,452	800,000	-0,035	0,108
-399,438	-116,675	0,090	-0,012
-398,423	107,965	-0,117	0,103
-397,409	800,000	0,031	-0,084
-396,394	56,724	-0,065	0,046
-395,379	98,211	-0,078	-0,066
-394,365	387,934	0,103	0,157
-393,350	470,157	0,042	0,070
-392,336	800,000	-0,037	-0,096
-391,321	-45,355	0,095	-0,034
-390,306	-26,641	0,039	0,017
-389,292	-99,746	-0,113	-0,021
-388,277	354,785	0,034	0,050
-387,263	-200,000	0,023	0,116
-386,248	430,130	0,090	0,143
-385,233	463,499	0,063	-0,104
-384,219	-165,943	0,156	-0,005
-383,204	-20,879	0,092	0,041
-382,190	800,000	-0,034	-0,080
-381,175	165,504	-0,040	-0,041
-380,160	315,393	0,043	-0,059
-379,146	-156,393	0,209	-0,009
-378,131	-64,248	-0,058	0,017
-377,117	-200,000	0,011	0,088
-376,102	-200,000	-0,005	0,063
-375,088	36,916	0,084	0,054
-374,073	155,087	0,089	0,089
-373,058	-200,000	0,019	-0,069
-372,044	466,523	0,084	0,138
-371,029	-200,000	0,036	0,167
-370,015	-81,088	0,060	0,014
-369,000	98,747	-0,122	0,103
-367,985	62,219	-0,067	-0,049
-366,971	-152,140	-0,048	0,002
-365,956	232,829	0,062	0,074
-364,942	467,138	0,027	0,045
-363,927	-200,000	0,010	0,093
-362,912	571,096	-0,039	0,069
-361,898	800,000	0,031	-0,091
-360,883	-200,000	0,003	0,029
-359,869	344,649	-0,062	-0,090
-358,854	258,328	-0,035	-0,045
-357,839	380,158	0,048	0,073
-356,825	800,000	0,031	-0,073
-355,810	14,285	-0,074	0,042
-354,796	-200,000	-0,022	0,164
-353,781	-200,000	-0,003	0,055
-352,766	800,000	-0,020	-0,058
-351,752	-200,000	0,003	0,039
-350,737	561,166	-0,032	0,056
-349,723	110,616	-0,038	0,034
-348,708	800,000	-0,045	0,117
-347,693	800,000	-0,017	-0,037
-346,679	-200,000	-0,023	-0,191
-345,664	59,445	-0,033	-0,024
-344,650	370,562	0,048	-0,072
-343,635	-200,000	-0,011	0,072
-342,620	800,000	0,036	-0,085
-341,606	800,000	-0,015	-0,035
-340,591	50,103	-0,021	0,015
-339,577	-86,729	-0,121	-0,027
-338,562	-69,256	-0,035	0,010
-337,548	361,200	0,051	-0,075
-336,533	116,933	-0,041	0,036
-335,518	129,154	-0,065	0,060
-334,504	-22,220	0,114	-0,050
-333,489	-200,000	-0,004	-0,062
-332,475	-101,329	0,083	0,015
-331,460	800,000	-0,036	-0,075
-330,445	-200,000	0,024	-0,098
-329,431	-5,879	-0,040	0,020
-328,416	200,697	0,066	-0,074
-327,402	205,517	-0,095	0,108
-326,387	126,286	-0,124	0,115
-325,372	141,463	-0,166	-0,161
-324,358	529,307	-0,083	-0,143
-323,343	294,101	0,045	-0,060
-322,329	-174,075	-0,087	-0,002
-321,314	-96,235	0,112	0,022
-320,299	616,318	0,071	0,131
-319,285	-36,851	-0,075	0,029
-318,270	2,907	0,089	-0,047
-317,256	800,000	0,057	0,123
-316,241	-200,000	0,041	-0,172
-315,226	-16,794	-0,072	-0,033
-314,212	133,490	0,050	0,047
-313,197	800,000	0,046	0,095
-312,183	-200,000	0,018	0,142
-311,168	800,000	-0,055	-0,130
-310,153	140,855	-0,068	-0,066
-309,139	-200,000	0,009	-0,136
-308,124	81,574	0,105	-0,083
-307,110	458,820	0,073	0,119
-306,095	-95,905	0,164	0,032
-305,080	173,791	0,056	-0,060
-304,066	257,377	-0,040	-0,050
-303,051	-200,000	0,045	-0,177
-302,037	800,000	0,035	-0,079
-301,022	-51,455	0,030	0,010
-300,008	800,000	-0,047	0,116
-298,993	-87,696	0,068	-0,015
-297,978	425,484	-0,043	-0,067
-296,964	408,903	-0,065	-0,101
-295,949	333,576	-0,017	0,024
-294,935	-144,714	0,097	-0,006
-293,920	800,000	-0,052	-0,109
-292,905	-92,068	0,109	0,022
-291,891	-200,000	-0,008	0,142
-290,876	800,000	0,046	0,112
-289,862	750,363	-0,070	0,138
-288,847	10,027	-0,058	-0,032
-287,832	-154,929	0,146	-0,007
-286,818	88,337	-0,078	0,063
-285,803	-105,059	0,065	0,011
-284,789	800,000	-0,031	0,087
-283,774	83,468	0,101	-0,080
-282,759	255,356	-0,094	-0,118
-281,745	622,832	-0,080	-0,148
-280,730	800,000	-0,047	-0,100
-279,716	800,000	-0,024	-0,063
-278,701	10,751	0,127	0,070
-277,686	-89,074	0,058	0,012
-276,672	726,098	-0,028	-0,055
-275,657	446,397	0,083	0,134
-274,643	-66,616	-0,048	-0,014
-273,628	-98,343	-0,079	0,015
-272,613	-117,421	0,035	0,005
-271,599	-64,564	-0,116	0,034
-270,584	-200,000	-0,004	0,095
-269,570	-152,652	0,066	0,003
-268,555	-200,000	0,106	-0,000
-267,540	800,000	-0,057	0,120
-266,526	261,723	-0,031	0,039
-265,511	-200,000	-0,001	0,009
-264,497	-24,569	0,165	-0,071
-263,482	192,330	0,041	-0,045
-262,467	38,132	0,061	0,040
-261,453	-103,049	-0,040	-0,007
-260,438	-9,275	-0,126	-0,061
-259,424	-200,000	0,002	-0,042
-258,409	233,740	0,126	-0,152
-257,395	163,927	0,074	0,076
-256,380	-25,497	0,199	0,085
-255,365	349,719	-0,078	-0,113
-254,351	415,963	-0,013	-0,021
-253,336	-54,835	-0,102	0,033
-252,322	-200,000	0,021	-0,070
-251,307	88,818	0,044	-0,035
-250,292	-62,372	-0,162	0,049
-249,278	-152,566	-0,099	0,005
-248,263	-200,000	0,014	-0,096
-247,249	281,895	0,025	-0,033
-246,234	-115,090	-0,106	0,015
-245,219	161,250	0,030	-0,031
-244,205	-200,000	0,008	-0,143
-243,190	-200,000	-0,004	-0,053
-242,176	314,384	-0,080	-0,110
-241,161	90,121	0,037	0,030
-240,146	-200,000	0,024	0,156
-239,132	-200,000	0,019	-0,154
-238,117	166,548	0,009	-0,010
-237,103	-80,952	-0,105	-0,025
-236,088	94,278	-0,146	-0,121
-235,073	-200,000	-0,004	0,056
-234,059	-200,000	-0,009	0,091
-233,044	37,136	0,071	0,045
-232,030	-59,355	-0,075	-0,023
-231,015	-200,000	-0,008	-0,049
-230,000	-200,000	-0,002	0,010
-228,986	-25,588	-0,080	-0,034
-227,971	800,000	-0,084	-0,198
-226,957	-153,859	-0,024	-0,001
-225,942	-80,839	-0,033	0,008
-224,927	54,172	-0,058	0,040
-223,913	221,227	0,059	-0,069
-222,898	666,700	-0,056	0,105
-221,884	207,460	0,023	0,026
-220,869	-200,000	0,003	0,045
-219,855	217,477	-0,031	-0,035
-218,840	-200,000	0,008	0,080
-217,825	-188,984	-0,067	-0,001
-216,811	-183,053	0,033	-0,000
-215,796	412,195	-0,090	-0,140
-214,782	-152,972	0,098	-0,005
-213,767	90,024	0,061	0,050
-212,752	800,000	0,044	0,101
-211,738	211,885	-0,090	0,103
-210,723	800,000	-0,020	0,063
-209,709	737,083	-0,089	0,175
-208,694	-200,000	-0,025	-0,107
-207,679	-200,000	-0,016	-0,122
-206,665	-200,000	0,013	0,076
-205,650	800,000	0,004	0,012
-204,636	-200,000	0,006	0,062
-203,621	484,850	0,071	0,117
-202,606	800,000	-0,034	-0,073
-201,592	-144,563	-0,067	-0,004
-200,577	-200,000	0,022	-0,079
-199,563	335,105	0,062	0,088
-198,548	-200,000	-0,019	-0,170
-197,533	97,725	-0,036	-0,030
-196,519	215,317	-0,054	0,062
-195,504	-21,815	0,015	0,007
-194,490	-200,000	0,025	0,087
-193,475	-200,000	0,008	-0,047
-192,460	50,629	0,091	0,063
-191,446	33,259	0,092	-0,058
-190,431	-200,000	-0,031	0,171
-189,417	-32,005	0,063	-0,026
-188,402	-200,000	-0,013	0,083
-187,387	325,690	0,033	-0,046
-186,373	-82,113	-0,163	-0,038
-185,358	444,323	0,067	-0,108
-184,344	-134,917	0,155	0,013
-183,329	-11,559	-0,074	0,035
-182,315	-200,000	-0,013	-0,102
-181,300	-108,211	-0,104	0,016
-180,285	-98,709	-0,035	-0,006
-179,271	221,874	0,037	-0,044
-178,256	-10,211	-0,113	-0,054
-177,242	-160,267	-0,114	0,004
-176,227	-85,288	-0,069	-0,016
-175,212	800,000	0,017	-0,042
-174,198	93,516	-0,057	0,047
-173,183	361,729	0,051	-0,075
-172,169	-200,000	0,021	-0,080
-171,154	800,000	-0,066	0,170
-170,139	316,138	0,070	-0,096
-169,125	40,505	0,086	0,056
-168,110	800,000	0,066	0,135
-167,096	800,000	-0,045	-0,142
-166,081	-47,929	-0,094	-0,033
-165,066	-200,000	0,010	0,048
-164,052	800,000	-0,026	0,066
-163,037	-200,000	-0,031	-0,145
-162,023	-42,243	0,058	-0,021
-161,008	49,071	-0,091	0,062
-159,993	588,044	0,030	-0,053
-158,979	-200,000	-0,016	-0,069
-157,964	-73,176	0,092	-0,024
-156,950	111,330	-0,027	-0,024
-155,935	207,679	0,025	-0,028
-154,920	312,880	0,023	0,031
-153,906	-8,022	-0,027	0,013
-152,891	-200,000	0,008	-0,079
-151,877	205,981	-0,133	-0,151
-150,862	800,000	0,014	-0,034
-149,847	42,586	-0,112	0,074
-148,833	-200,000	-0,011	-0,083
-147,818	-200,000	0,016	-0,092
-146,804	-67,488	0,135	-0,038
-145,789	72,913	0,048	0,037
-144,775	-125,753	-0,048	0,005
-143,760	800,000	-0,017	0,044
-142,745	25,750	0,082	0,049
-141,731	-53,779	-0,041	-0,014
-140,716	-200,000	-0,003	-0,122
-139,702	277,129	-0,016	-0,021
-138,687	791,150	-0,016	0,032
-137,672	54,654	-0,077	0,054
-136,658	105,223	0,087	0,074
-135,643	800,000	0,035	-0,080
-134,629	221,340	-0,075	-0,087
-133,614	800,000	0,008	0,017
-132,599	212,191	-0,031	-0,036
-131,585	-200,000	-0,027	0,097
-130,570	439,489	-0,022	0,035
-129,556	42,505	-0,012	0,008
-128,541	-120,594	-0,169	0,020
-127,526	526,943	-0,068	0,116
-126,512	-30,428	-0,102	0,042
-125,497	-137,248	0,137	-0,011
-124,483	-200,000	0,022	0,108
-123,468	800,000	0,046	-0,102
-122,453	-200,000	-0,009	-0,155
-121,439	310,397	-0,039	-0,053
-120,424	-200,000	0,013	0,058
-119,410	307,420	0,053	0,072
-118,395	800,000	0,014	0,035
-117,380	-38,436	-0,098	0,037
-116,366	-51,123	0,035	-0,012
-115,351	800,000	-0,072	-0,165
-114,337	339,698	-0,084	-0,118
-113,322	-149,688	0,121	-0,007
-112,307	-47,818	-0,037	-0,013
-111,293	-200,000	0,001	-0,031
-110,278	-34,817	0,020	-0,008
-109,264	-200,000	0,013	0,073
-108,249	163,903	0,061	-0,062
-107,234	-91,103	-0,078	0,016
-106,220	-200,000	-0,009	-0,037
-105,205	285,420	-0,089	0,117
-104,191	41,686	0,033	0,022
-103,176	800,000	0,050	0,129
-102,162	78,926	-0,047	-0,037
-101,147	406,949	0,050	0,077
-100,132	-47,695	0,056	0,019
-99,118	-6,079	-0,071	-0,035
-98,103	2,457	0,081	0,042
-97,089	-79,039	0,038	0,009
-96,074	23,831	-0,076	0,045
-95,059	-179,472	0,036	0,001
-94,045	495,341	-0,036	0,060
-93,030	-200,000	-0,006	-0,079
-92,016	18,997	-0,107	-0,062
-91,001	-9,510	0,151	0,073
-89,986	620,355	0,050	0,091
-88,972	-38,731	0,057	-0,022
-87,957	-200,000	0,016	-0,057
-86,943	107,168	0,033	0,028
-85,928	224,545	-0,117	0,137
-84,913	800,000	0,036	0,082
-83,899	7,284	0,043	0,023
-82,884	800,000	0,031	0,095
-81,870	800,000	0,050	0,108
-80,855	151,011	-0,126	0,124
-79,840	-41,428	0,104	0,039
-78,826	260,802	-0,069	0,087
-77,811	59,518	-0,185	-0,132
-76,797	748,341	0,059	0,116
-75,782	-166,486	0,114	-0,003
-74,767	-20,406	-0,106	-0,047
-73,753	-30,904	0,107	-0,044
-72,738	8,227	-0,064	0,035
-71,724	-63,571	-0,022	-0,007
-70,709	-70,524	0,042	0,011
-69,694	-200,000	0,001	-0,088
-68,680	800,000	0,012	-0,032
-67,665	5,107	-0,026	-0,014
-66,651	700,132	-0,071	0,137
-65,636	-54,682	-0,173	-0,056
-64,622	-200,000	-0,013	-0,050
-63,607	282,931	-0,045	-0,058
-62,592	-17,761	-0,068	-0,031
-61,578	-200,000	-0,003	-0,062
-60,563	-200,000	0,000	0,096
-59,549	79,794	-0,080	0,062
-58,534	-74,910	-1,551	-0,399
-57,519	584,208	-0,645	-1,151
-56,505	-200,000	-1,012	-4,523
-55,490	-41,215	0,612	-0,227
-54,476	800,000	5,176	11,981
-53,461	-200,000	14,893	262,843
-52,446	-200,000	698,597	2236,386
-51,432	564,132	1622,265	2852,888
-50,417	119,336	1628,664	1457,268
-49,403	76,772	1283,272	983,603
-48,388	37,446	1022,100	653,931
-47,373	22,819	982,104	580,341
-46,359	21,855	971,393	570,834
-45,344	20,645	967,208	564,405
-44,330	20,674	965,749	563,625
-43,315	20,508	964,049	562,072
-42,300	20,385	963,389	561,264
-41,286	20,470	962,165	560,805
-40,271	20,413	961,111	559,983
-39,257	20,446	960,152	559,509
-38,242	20,423	959,336	558,939
-37,227	20,394	958,622	558,406
-36,213	20,414	957,683	557,900
-35,198	20,340	956,765	557,104
-34,184	20,458	955,927	556,976
-33,169	20,373	955,068	556,180
-32,154	20,469	954,263	555,997
-31,140	20,473	953,332	555,446
-30,125	20,430	952,633	554,878
-29,111	20,463	951,749	554,447
-28,096	20,398	951,183	553,887
-27,082	20,398	950,335	553,371
-26,067	20,416	949,614	552,988
-25,052	20,443	948,863	552,614
-24,038	20,459	948,185	552,250
-23,023	20,416	947,506	551,695
-22,009	20,448	946,942	551,447
-20,994	20,422	946,382	551,015
-19,979	20,447	945,612	550,624
-18,965	20,401	945,143	550,183
-17,950	20,450	944,472	549,925
-16,936	20,353	943,829	549,222
-15,921	20,347	943,082	548,746
-14,906	20,354	942,478	548,396
-13,892	20,318	942,007	547,985
-12,877	20,339	941,190	547,556
-11,863	20,338	940,438	547,091
-10,848	20,329	940,076	546,833
-9,833	20,427	939,570	546,827
-8,819	20,358	938,737	546,099
-7,804	20,330	938,110	545,626
-6,790	20,333	937,690	545,370
-5,775	20,344	937,145	545,067
-4,760	20,307	936,580	544,598
-3,746	20,334	935,869	544,247
-2,731	20,159	935,184	543,277
-1,717	20,080	934,574	542,653
-0,702	20,164	933,769	542,428
0,313	20,018	933,236	542,477
1,327	23,090	931,340	550,970
2,342	32,365	793,165	493,813
3,356	29,708	450,657	276,554
4,371	-0,236	295,895	151,528
5,386	-4,649	277,205	137,741
6,400	-5,853	271,550	133,793
7,415	-6,159	269,037	132,260
8,429	-6,111	267,870	131,719
9,444	-5,995	266,886	131,329
10,459	-6,225	266,332	130,835
11,473	-6,215	265,785	130,563
12,488	-6,177	265,188	130,293
13,502	-6,512	264,736	129,754
14,517	-6,400	264,259	129,611
15,531	-6,186	263,818	129,577
16,546	-6,175	263,545	129,441
17,561	-6,201	263,144	129,209
18,575	-6,358	262,776	128,875
19,590	-6,408	262,482	128,675
20,604	-6,344	262,218	128,592
21,619	-6,583	261,969	128,243
22,634	-6,353	261,491	128,204
23,648	-6,294	261,246	128,126
24,663	-6,311	261,009	127,982
25,677	-6,331	260,830	127,865
26,692	-6,308	260,344	127,636
27,707	-6,349	260,304	127,568
28,721	-6,546	259,918	127,192
29,736	-6,522	259,641	127,067
30,750	-6,527	259,370	126,918
31,765	-6,394	259,160	126,923
32,780	-6,510	258,869	126,666
33,794	-6,681	258,663	126,402
34,809	-6,398	258,374	126,500
35,823	-6,611	258,198	126,214
36,838	-6,580	258,009	126,138
37,853	-6,431	257,687	126,101
38,867	-6,508	257,585	125,971
39,882	-6,577	257,150	125,686
40,896	-6,719	257,127	125,538
41,911	-6,566	256,790	125,497
42,926	-6,612	256,587	125,348
43,940	-6,670	256,336	125,162
44,955	-6,645	256,207	125,110
45,969	-6,778	255,901	124,833
46,984	-6,826	255,551	124,609
47,999	-7,038	255,209	124,245
49,013	-7,263	255,109	123,988
50,028	-7,274	254,759	123,798
51,042	-7,335	254,456	123,587
52,057	-7,508	254,362	123,379
53,071	-7,301	254,033	123,388
54,086	-7,314	253,998	123,349
55,101	-7,274	253,811	123,283
56,115	-6,967	253,712	123,490
57,130	-6,576	253,734	123,830
58,144	-6,272	253,427	123,933
59,159	-5,877	253,158	124,133
60,174	-6,070	253,123	123,937
61,188	-6,244	252,816	123,625
62,203	-6,368	252,666	123,433
63,217	-6,476	252,442	123,220
64,232	-6,322	252,183	123,215
65,247	-6,219	251,876	123,143
66,261	-6,224	251,584	122,986
67,276	-6,553	251,393	122,598
68,290	-6,918	251,124	122,142
69,305	-6,857	250,972	122,110
70,320	-6,860	250,769	121,997
71,334	-6,838	250,730	121,986
72,349	-6,450	250,717	122,302
73,363	-6,146	250,494	122,443
74,378	-6,302	250,206	122,158
75,393	-6,238	249,875	122,040
76,407	-6,575	249,850	121,729
77,422	-6,470	249,512	121,643
78,436	-6,397	249,387	121,634
79,451	-6,342	249,185	121,571
80,466	-6,635	248,811	121,128
81,480	-6,731	248,753	121,007
82,495	-6,669	248,338	120,847
83,509	-6,526	248,220	120,901
84,524	-6,717	248,133	120,685
85,539	-6,851	247,700	120,350
86,553	-6,950	247,514	120,166
87,568	-6,645	247,428	120,371
88,582	-6,841	247,330	120,147
89,597	-6,671	247,091	120,164
90,611	-6,625	246,977	120,137
91,626	-6,453	246,903	120,235
92,641	-6,450	246,610	120,084
93,655	-6,539	246,384	119,889
94,670	-6,710	246,163	119,626
95,684	-6,654	245,933	119,551
96,699	-6,850	246,042	119,429
97,714	-6,660	245,625	119,374
98,728	-6,815	245,392	119,121
99,743	-6,917	245,235	118,948
100,757	-6,978	244,846	118,698
101,772	-6,825	244,755	118,772
102,787	-6,715	244,659	118,806
103,801	-6,906	244,651	118,632
104,816	-6,792	244,287	118,540
105,830	-6,459	244,278	118,803
106,845	-6,391	244,172	118,797
107,860	-6,457	243,773	118,538
108,874	-6,550	243,657	118,394
109,889	-6,599	243,421	118,228
110,903	-6,657	243,106	118,016
111,918	-6,824	243,053	117,841
112,933	-6,746	242,935	117,838
113,947	-6,579	242,754	117,878
114,962	-6,421	242,491	117,871
115,976	-6,618	242,433	117,669
116,991	-6,420	242,215	117,716
118,006	-6,597	242,061	117,485
119,020	-6,447	241,975	117,556
120,035	-6,439	241,834	117,484
121,049	-6,568	241,704	117,304
122,064	-6,540	241,354	117,146
123,079	-6,744	241,297	116,941
124,093	-6,650	240,870	116,801
125,108	-6,767	240,806	116,663
126,122	-6,831	240,540	116,472
127,137	-7,147	240,386	116,128
128,151	-7,072	240,154	116,067
129,166	-6,845	240,117	116,224
130,181	-6,753	239,890	116,179
131,195	-6,849	239,630	115,965
132,210	-6,821	239,598	115,962
133,224	-6,595	239,457	116,067
134,239	-6,672	239,257	115,897
135,254	-6,656	238,998	115,775
136,268	-6,522	238,846	115,799
137,283	-6,918	238,540	115,319
138,297	-6,977	238,359	115,174
139,312	-7,227	238,156	114,862
140,327	-6,652	238,173	115,326
141,341	-6,235	238,159	115,647
142,356	-6,094	237,969	115,659
143,370	-6,107	237,837	115,574
144,385	-6,149	237,679	115,453
145,400	-6,114	237,545	115,406
146,414	-5,790	237,193	115,486
147,429	-6,237	237,172	115,104
148,443	-6,244	236,916	114,965
149,458	-6,295	236,855	114,884
150,473	-6,249	236,649	114,810
151,487	-6,338	236,459	114,636
152,502	-6,116	236,118	114,639
153,516	-6,057	236,236	114,734
154,531	-6,124	235,933	114,522
155,546	-6,430	235,704	114,156
156,560	-6,368	235,542	114,117
157,575	-6,332	235,209	113,974
158,589	-6,436	235,165	113,860
159,604	-6,211	235,111	114,004
160,619	-6,006	234,891	114,050
161,633	-6,006	234,771	113,982
162,648	-6,098	234,673	113,850
163,662	-6,412	234,547	113,529
164,677	-6,235	234,220	113,502
165,692	-6,158	234,146	113,516
166,706	-5,996	233,988	113,558
167,721	-6,053	233,811	113,417
168,735	-5,776	233,661	113,554
169,750	-6,132	233,574	113,219
170,764	-6,165	233,306	113,054
171,779	-6,191	233,406	113,072
172,794	-5,909	233,156	113,164
173,808	-6,188	232,860	112,789
174,823	-6,757	232,422	112,118
175,837	-6,793	232,281	112,012
176,852	-6,543	232,330	112,223
177,867	-6,214	232,384	112,498
178,881	-6,050	232,128	112,493
179,896	-6,181	232,055	112,345
180,910	-6,018	231,751	112,315
181,925	-6,194	231,746	112,164
182,940	-5,986	231,492	112,195
183,954	-5,848	231,343	112,221
184,969	-5,944	231,301	112,115
185,983	-6,004	231,219	112,018
186,998	-5,919	230,912	111,926
188,013	-5,952	230,651	111,764
189,027	-5,592	230,539	111,980
190,042	-6,056	230,384	111,533
191,056	-5,851	230,324	111,654
192,071	-5,861	230,177	111,565
193,086	-5,911	229,892	111,378
194,100	-5,952	229,893	111,337
195,115	-6,075	229,462	111,023
196,129	-6,826	229,344	110,372
197,144	-3,197	230,341	113,671
198,159	1,143	231,613	117,682
199,173	3,529	232,175	119,823
200,188	3,704	232,201	119,962
201,202	3,752	231,965	119,867
202,217	3,825	231,873	119,865
203,232	4,127	231,937	120,124
204,246	4,309	231,706	120,135
205,261	4,203	231,501	119,936
206,275	4,413	231,575	120,127
207,290	4,271	231,362	119,895
208,304	4,425	231,094	119,865
209,319	4,102	231,192	119,654
210,334	4,371	230,658	119,575
211,348	4,083	230,515	119,268
212,363	3,705	230,317	118,863
213,377	3,478	230,066	118,547
214,392	3,407	229,969	118,431
215,407	3,586	229,746	118,444
216,421	3,623	229,702	118,439
217,436	3,589	229,417	118,255
218,450	3,292	229,253	117,932
219,465	3,373	229,026	117,866
220,480	3,351	229,019	117,835
221,494	3,352	228,699	117,661
222,509	3,615	228,714	117,861
223,523	3,528	228,521	117,684
224,538	3,558	228,306	117,585
225,553	3,671	228,055	117,532
226,567	3,693	228,063	117,543
227,582	3,885	228,051	117,673
228,596	4,071	227,920	117,737
229,611	3,734	227,717	117,364
230,626	3,636	227,467	117,150
231,640	3,619	227,325	117,054
232,655	3,818	227,337	117,201
233,669	4,395	227,099	117,508
234,684	4,265	227,069	117,382
235,699	4,069	226,988	117,181
236,713	3,690	226,674	116,720
237,728	3,638	226,495	116,578
238,742	3,422	226,291	116,298
239,757	3,321	226,112	116,120
240,772	3,546	225,945	116,194
241,786	3,301	225,857	115,953
242,801	3,666	225,790	116,185
243,815	4,172	225,743	116,533
244,830	3,943	225,564	116,257
245,844	3,616	225,373	115,901
246,859	3,432	225,401	115,766
247,874	3,854	224,982	115,859
248,888	3,913	224,954	115,879
249,903	3,890	224,749	115,746
250,917	3,662	224,603	115,489
251,932	3,528	224,506	115,327
252,947	3,514	224,213	115,157
253,961	3,382	224,149	115,014
254,976	3,347	224,016	114,909
255,990	3,760	224,008	115,205
257,005	3,727	223,869	115,098
258,020	3,825	223,570	115,008
259,034	4,069	223,560	115,175
260,049	3,973	223,344	114,982
261,063	3,714	223,154	114,680
262,078	4,127	223,048	114,923
263,093	4,128	222,978	114,878
264,107	3,848	222,933	114,636
265,122	3,856	222,655	114,489
266,136	3,963	222,643	114,552
267,151	4,077	222,394	114,498
268,166	3,682	222,204	114,097
269,180	3,309	221,982	113,695
270,195	3,494	221,704	113,680
271,209	3,626	221,529	113,678
272,224	3,553	221,579	113,640
273,239	3,742	221,540	113,749
274,253	3,625	221,202	113,479
275,268	3,338	221,131	113,220
276,282	3,427	220,801	113,108
277,297	3,209	220,771	112,921
278,312	3,467	220,647	113,037
279,326	3,730	220,560	113,176
280,341	3,659	220,429	113,047
281,355	3,540	220,213	112,839
282,370	3,432	220,105	112,694
283,384	3,248	219,799	112,392
284,399	3,296	219,685	112,359
285,414	3,085	219,711	112,207
286,428	3,576	219,719	112,562
287,443	3,526	219,539	112,423
288,457	3,619	219,335	112,376
289,472	3,478	219,161	112,174
290,487	3,085	218,964	111,776
291,501	3,131	218,761	111,696
292,516	3,281	218,590	111,709
293,530	3,372	218,424	111,679
294,545	3,385	218,264	111,598
295,560	3,715	218,275	111,834
296,574	3,338	218,220	111,521
297,589	3,425	217,993	111,458
298,603	3,622	217,870	111,528
299,618	3,651	217,856	111,532
300,633	3,513	217,666	111,325
301,647	3,829	217,411	111,413
302,662	3,899	217,174	111,333
303,676	3,884	217,278	111,366
304,691	4,058	217,069	111,374
305,706	3,790	216,980	111,125
306,720	3,761	216,742	110,972
307,735	3,355	216,681	110,638
308,749	3,490	216,477	110,621
309,764	3,685	216,477	110,752
310,779	3,785	216,281	110,714
311,793	3,786	216,155	110,640
312,808	3,792	216,056	110,584
313,822	3,623	215,864	110,355
314,837	3,496	215,659	110,149
315,852	3,234	215,650	109,946
316,866	3,373	215,540	109,980
317,881	3,812	215,173	110,097
318,895	3,899	215,045	110,084
319,910	3,521	214,889	109,724
320,925	3,458	214,718	109,582
321,939	3,155	214,607	109,299
322,954	3,238	214,477	109,282
323,968	3,416	214,517	109,420
324,983	3,679	214,295	109,485
325,997	4,080	214,247	109,736
327,012	4,054	214,013	109,588
328,027	3,806	213,969	109,379
329,041	3,843	213,986	109,404
330,056	3,895	213,790	109,332
331,070	3,586	213,635	109,023
332,085	3,554	213,226	108,782
333,100	3,370	213,165	108,611
334,114	3,560	213,054	108,679
335,129	3,842	212,966	108,824
336,143	3,357	212,793	108,383
337,158	3,524	212,618	108,402
338,173	3,509	212,522	108,333
339,187	3,739	212,254	108,349
340,202	3,502	212,117	108,102
341,216	3,199	212,107	107,874
342,231	3,415	211,993	107,959
343,246	3,373	211,864	107,853
344,260	3,490	211,633	107,809
345,275	3,363	211,694	107,741
346,289	3,696	211,495	107,864
347,304	3,813	211,371	107,873
348,319	3,638	211,220	107,663
349,333	3,603	211,084	107,560
350,348	3,650	210,918	107,499
351,362	3,863	210,956	107,658
352,377	3,735	210,723	107,440
353,392	3,821	210,455	107,354
354,406	3,557	210,436	107,150
355,421	194,735	1342,175	1428,156
356,435	155,485	1480,129	1428,229
