DTS Sentinel unit serial number:	SN410029Multiplexer serial number:	ORYXHardware model number:	OX2-SRSoftware version number:	ORYX F/W v4,00 Oryx Data Collector v3.7.2.0data status	okinstallation	B6 Nyhavnadifferential loss correction	single-endedforward channel	channel 2reverse channel	N/Adate	2023/12/10time	22:05:08forward acquisition time	300,00reverse acquisition time	0,00gamma	499,1914k internal	0,3123k external	0,3123temperature offset calibration	1,0000default loss term (dB/km)	0,3820temperature slope calibration	1,0000multiplexer offset coefficient	1,0000multiplexer slope coefficient	1,0000fibre end	0,00T internal ref (°C)	22,31T ext. ref 1 (°C)	6,11T ext. ref 2 (°C)	6,12length (m)	temperature (°C)	Stokes	anti-Stokes-744,400	374,385	0,070	-0,107
-743,385	-88,300	-0,318	0,070
-742,371	-110,404	0,098	-0,015
-741,356	-114,707	-0,185	0,026
-740,342	-39,965	0,125	-0,048
-739,327	-94,979	-0,304	0,061
-738,312	56,117	-0,065	-0,047
-737,298	63,866	-0,118	0,088
-736,283	800,000	0,088	-0,208
-735,269	-52,587	-0,111	0,038
-734,254	498,462	0,032	-0,054
-733,239	-101,389	-0,384	-0,069
-732,225	174,132	0,030	-0,032
-731,210	800,000	0,021	0,045
-730,196	-54,760	-0,108	-0,036
-729,181	-116,236	0,079	0,011
-728,167	-200,000	0,025	0,105
-727,152	230,347	0,076	-0,093
-726,137	-41,979	-0,197	0,075
-725,123	-13,354	-0,043	-0,021
-724,108	285,582	-0,078	-0,104
-723,094	-200,000	-0,016	-0,053
-722,079	-200,000	-0,050	-0,208
-721,064	-8,927	0,053	-0,026
-720,050	-20,757	-0,107	-0,049
-719,035	-200,000	-0,030	-0,132
-718,021	15,481	0,023	0,013
-717,006	-57,932	-0,020	0,006
-715,991	-57,915	0,056	0,018
-714,977	-200,000	0,006	-0,024
-713,962	800,000	-0,055	-0,133
-712,948	800,000	0,040	0,104
-711,933	-127,357	-0,171	-0,018
-710,918	56,660	0,096	-0,070
-709,904	-200,000	-0,006	-0,089
-708,889	285,596	-0,054	-0,073
-707,875	51,985	-0,052	0,037
-706,860	-200,000	-0,001	0,116
-705,845	109,318	0,073	0,065
-704,831	112,591	-0,087	0,078
-703,816	-200,000	0,014	0,094
-702,802	-200,000	-0,006	0,110
-701,787	20,639	-0,152	-0,092
-700,772	-99,951	-0,067	0,012
-699,758	-52,872	0,031	0,010
-698,743	-98,921	0,067	-0,013
-697,729	23,564	-0,111	-0,068
-696,714	-140,058	-0,140	-0,011
-695,699	-200,000	0,009	0,045
-694,685	-132,617	-0,067	-0,006
-693,670	-200,000	0,027	-0,159
-692,656	43,287	-0,049	0,033
-691,641	-200,000	-0,007	0,101
-690,627	-83,961	0,130	0,031
-689,612	-92,833	-0,068	0,014
-688,597	-9,353	0,074	-0,036
-687,583	372,360	-0,047	-0,072
-686,568	800,000	-0,027	0,061
-685,554	800,000	-0,017	0,050
-684,539	-200,000	0,003	-0,019
-683,524	-200,000	0,016	0,086
-682,510	391,664	0,077	0,119
-681,495	228,307	-0,071	0,086
-680,481	800,000	0,049	-0,137
-679,466	758,395	-0,092	-0,186
-678,451	-200,000	-0,005	0,030
-677,437	-200,000	-0,022	0,186
-676,422	800,000	-0,072	0,164
-675,408	-103,205	0,090	-0,016
-674,393	153,030	-0,106	0,108
-673,378	147,946	-0,089	-0,089
-672,364	-126,861	-0,113	-0,012
-671,349	4,350	0,042	-0,023
-670,335	184,386	-0,063	0,070
-669,320	-200,000	0,001	-0,087
-668,305	-56,591	0,081	-0,026
-667,291	-60,300	0,079	-0,025
-666,276	594,109	0,054	-0,099
-665,262	144,896	-0,100	-0,100
-664,247	800,000	0,046	-0,107
-663,232	55,902	-0,066	0,048
-662,218	145,713	0,093	-0,093
-661,203	800,000	0,025	0,080
-660,189	-119,952	0,015	-0,002
-659,174	0,662	-0,100	-0,053
-658,159	175,556	0,073	-0,079
-657,145	91,880	-0,102	-0,085
-656,130	-67,594	0,046	-0,013
-655,116	-200,000	-0,005	0,114
-654,101	261,711	0,065	0,084
-653,086	-200,000	0,004	-0,031
-652,072	-200,000	-0,010	0,043
-651,057	-133,075	-0,102	-0,010
-650,043	-200,000	-0,006	-0,128
-649,028	-200,000	0,006	-0,102
-648,014	101,286	0,077	-0,066
-646,999	-200,000	-0,001	-0,049
-645,984	-146,187	0,022	-0,001
-644,970	-177,231	-0,120	0,002
-643,955	3,923	0,080	-0,044
-642,941	-180,489	-0,202	-0,003
-641,926	79,362	0,054	-0,043
-640,911	8,219	0,067	0,037
-639,897	17,673	-0,234	0,138
-638,882	306,229	-0,038	0,052
-637,868	179,424	0,092	-0,100
-636,853	177,322	-0,068	-0,073
-635,838	17,628	0,055	-0,033
-634,824	-161,168	0,142	0,005
-633,809	23,689	-0,044	-0,027
-632,795	539,683	-0,012	0,022
-631,780	-200,000	0,000	0,065
-630,765	-86,583	-0,076	0,017
-629,751	313,828	-0,033	-0,047
-628,736	800,000	0,057	-0,177
-627,722	-8,277	0,118	0,059
-626,707	608,892	-0,070	0,129
-625,692	342,793	0,027	-0,040
-624,678	158,147	-0,100	0,103
-623,663	322,102	0,020	0,028
-622,649	82,298	-0,055	0,045
-621,634	-147,387	-0,074	0,005
-620,619	-200,000	0,008	-0,044
-619,605	-200,000	-0,001	-0,072
-618,590	0,024	0,062	-0,032
-617,576	-121,794	0,030	-0,004
-616,561	115,721	0,037	0,033
-615,546	800,000	0,035	-0,112
-614,532	-20,284	-0,119	0,054
-613,517	406,189	0,043	0,067
-612,503	-78,948	-0,144	-0,036
-611,488	-17,412	-0,054	0,025
-610,474	-200,000	0,000	-0,129
-609,459	85,540	0,085	0,069
-608,444	457,237	-0,027	-0,044
-607,430	-74,889	-0,095	0,025
-606,415	-102,400	0,025	-0,004
-605,401	-121,575	-0,097	-0,012
-604,386	37,481	0,091	0,060
-603,371	336,390	-0,020	0,029
-602,357	800,000	-0,012	-0,030
-601,342	35,904	-0,080	-0,052
-600,328	-117,236	-0,067	-0,009
-599,313	-38,281	0,041	0,016
-598,298	225,776	-0,078	0,094
-597,284	800,000	-0,034	0,078
-596,269	-82,645	-0,037	-0,009
-595,255	-200,000	-0,010	0,048
-594,240	-27,598	0,092	-0,040
-593,225	-146,942	-0,080	0,005
-592,211	760,494	-0,006	0,012
-591,196	800,000	-0,015	0,044
-590,182	18,508	0,018	-0,010
-589,167	86,273	-0,069	0,056
-588,152	74,442	-0,079	-0,061
-587,138	-43,635	0,029	0,011
-586,123	572,239	-0,089	-0,161
-585,109	37,361	0,067	-0,044
-584,094	-150,342	-0,083	-0,005
-583,079	-109,910	0,163	-0,025
-582,065	-200,000	0,004	-0,074
-581,050	108,336	-0,071	-0,063
-580,036	-200,000	0,010	-0,075
-579,021	-200,000	0,027	-0,096
-578,006	-12,223	-0,061	0,029
-576,992	800,000	-0,025	-0,062
-575,977	364,753	-0,037	-0,055
-574,963	800,000	0,031	0,079
-573,948	64,221	-0,100	-0,075
-572,934	781,739	-0,060	0,123
-571,919	755,067	-0,037	0,074
-570,904	250,096	-0,070	0,088
-569,890	274,578	-0,026	-0,034
-568,875	800,000	-0,044	-0,141
-567,861	11,447	-0,102	-0,058
-566,846	800,000	0,061	0,127
-565,831	-175,175	-0,059	0,001
-564,817	-123,809	-0,017	0,002
-563,802	-96,890	-0,205	0,040
-562,788	-200,000	0,003	0,082
-561,773	-200,000	0,031	-0,152
-560,758	56,069	0,026	0,019
-559,744	-107,664	0,099	-0,016
-558,729	175,129	-0,022	-0,023
-557,715	-200,000	-0,000	-0,061
-556,700	-200,000	-0,034	-0,123
-555,685	165,195	-0,114	-0,119
-554,671	-68,937	0,072	0,020
-553,656	-136,309	0,056	-0,005
-552,642	17,984	0,095	0,056
-551,627	800,000	-0,046	0,127
-550,612	232,791	0,083	-0,101
-549,598	800,000	0,021	0,059
-548,583	141,915	-0,062	0,061
-547,569	-2,016	0,008	-0,004
-546,554	-200,000	0,028	0,114
-545,539	-200,000	0,022	0,098
-544,525	800,000	-0,096	0,210
-543,510	-73,884	0,087	-0,023
-542,496	3,634	-0,080	-0,043
-541,481	-200,000	-0,035	-0,249
-540,466	-75,935	-0,200	-0,052
-539,452	-200,000	-0,005	0,099
-538,437	-200,000	0,002	-0,054
-537,423	-200,000	0,019	0,084
-536,408	252,674	0,110	-0,139
-535,393	331,470	-0,046	-0,065
-534,379	33,628	-0,130	-0,083
-533,364	59,841	0,088	-0,064
-532,350	141,799	0,048	0,047
-531,335	-200,000	-0,013	0,088
-530,321	586,529	0,034	0,062
-529,306	4,937	-0,166	0,090
-528,291	26,143	-0,161	-0,099
-527,277	2,324	-0,086	-0,046
-526,262	20,842	-0,175	-0,104
-525,248	212,037	0,109	-0,128
-524,233	-200,000	-0,001	0,112
-523,218	564,888	-0,014	-0,026
-522,204	-200,000	0,037	0,136
-521,189	-200,000	-0,001	-0,027
-520,175	-58,373	-0,109	-0,035
-519,160	-200,000	0,010	0,088
-518,145	-200,000	0,040	-0,136
-517,131	-166,599	0,187	-0,006
-516,116	800,000	-0,052	0,116
-515,102	796,357	0,021	-0,043
-514,087	236,998	-0,037	0,046
-513,072	-55,707	-0,056	0,018
-512,058	-110,742	-0,079	0,012
-511,043	-62,320	-0,060	0,018
-510,029	750,834	-0,044	-0,088
-509,014	-200,000	0,031	0,110
-507,999	800,000	-0,010	0,029
-506,985	-117,086	-0,110	-0,015
-505,970	-79,526	0,023	-0,006
-504,956	800,000	-0,024	-0,071
-503,941	-46,096	0,136	-0,049
-502,926	122,010	-0,041	0,038
-501,912	38,261	0,083	0,055
-500,897	-78,556	-0,091	0,023
-499,883	39,108	-0,043	0,029
-498,868	-200,000	0,000	0,046
-497,853	763,629	-0,065	0,131
-496,839	-200,000	-0,014	0,067
-495,824	-108,584	0,127	0,020
-494,810	155,401	0,067	-0,068
-493,795	401,879	0,054	0,084
-492,781	202,529	-0,125	-0,143
-491,766	-1,966	0,087	0,045
-490,751	-111,381	-0,095	0,014
-489,737	-85,621	0,107	0,024
-488,722	-200,000	0,004	0,038
-487,708	-200,000	0,017	0,074
-486,693	-92,960	0,098	-0,020
-485,678	52,510	0,016	-0,011
-484,664	-156,453	0,127	0,006
-483,649	-200,000	-0,018	-0,118
-482,635	328,688	0,080	0,113
-481,620	350,615	0,038	0,056
-480,605	74,732	0,132	0,103
-479,591	264,456	0,044	-0,057
-478,576	29,429	0,139	-0,087
-477,562	-75,565	-0,130	0,034
-476,547	-183,845	0,080	0,001
-475,532	800,000	0,023	-0,068
-474,518	-200,000	-0,028	-0,120
-473,503	-200,000	0,014	0,142
-472,489	-40,376	0,136	0,052
-471,474	23,666	0,081	0,049
-470,459	-108,496	-0,066	-0,010
-469,445	-200,000	-0,001	-0,035
-468,430	-103,673	-0,041	0,007
-467,416	-10,262	0,121	-0,059
-466,401	800,000	0,027	0,057
-465,386	62,113	0,131	-0,096
-464,372	51,402	0,064	0,045
-463,357	-34,989	-0,138	-0,055
-462,343	-200,000	0,024	-0,111
-461,328	-53,261	0,130	0,044
-460,313	-200,000	-0,105	-0,000
-459,299	-102,220	0,199	0,035
-458,284	229,405	-0,111	0,134
-457,270	239,445	-0,016	-0,020
-456,255	156,799	-0,026	-0,026
-455,241	28,424	-0,054	-0,033
-454,226	425,275	0,067	0,107
-453,211	-53,521	0,029	-0,010
-452,197	-87,603	0,066	-0,015
-451,182	-145,161	-0,048	-0,003
-450,168	319,448	0,052	-0,073
-449,153	800,000	-0,058	-0,139
-448,138	-10,477	-0,082	0,040
-447,124	28,161	-0,042	0,026
-446,109	173,147	-0,078	0,083
-445,095	219,102	-0,101	-0,119
-444,080	397,966	0,099	0,152
-443,065	-8,924	0,045	-0,022
-442,051	800,000	-0,048	-0,104
-441,036	-73,038	-0,080	-0,022
-440,022	800,000	0,036	-0,108
-439,007	151,339	0,090	-0,091
-437,992	800,000	-0,063	0,159
-436,978	-93,205	0,035	0,007
-435,963	-78,997	0,145	-0,036
-434,949	18,031	0,023	0,013
-433,934	312,266	-0,080	0,111
-432,919	302,324	0,077	-0,105
-431,905	-45,224	-0,119	-0,043
-430,890	117,459	0,010	0,009
-429,876	130,367	0,114	0,108
-428,861	165,228	0,134	-0,139
-427,846	46,485	-0,047	0,032
-426,832	-200,000	-0,024	0,089
-425,817	-65,559	-0,010	0,003
-424,803	800,000	0,018	0,044
-423,788	168,004	0,061	0,064
-422,773	-107,146	0,068	0,011
-421,759	-36,248	0,158	0,062
-420,744	-113,123	-0,106	0,015
-419,730	256,254	0,042	-0,053
-418,715	286,005	0,131	-0,174
-417,701	203,714	-0,010	-0,012
-416,686	800,000	0,013	-0,028
-415,671	725,475	0,023	0,045
-414,657	53,356	0,095	0,067
-413,642	800,000	-0,019	-0,057
-412,628	32,099	-0,105	-0,067
-411,613	184,115	-0,026	-0,028
-410,598	-200,000	0,003	-0,058
-409,584	-72,237	0,108	-0,029
-408,569	800,000	0,029	-0,073
-407,555	800,000	0,040	-0,106
-406,540	78,275	0,070	-0,055
-405,525	69,603	-0,026	-0,020
-404,511	12,036	0,045	0,026
-403,496	800,000	-0,048	-0,115
-402,482	800,000	-0,027	0,068
-401,467	99,692	-0,058	0,050
-400,452	-63,056	-0,072	-0,022
-399,438	-14,263	-0,047	-0,022
-398,423	-200,000	0,025	-0,177
-397,409	-200,000	-0,022	-0,107
-396,394	75,281	-0,012	-0,009
-395,379	-200,000	0,197	-0,000
-394,365	432,261	0,037	-0,060
-393,350	-92,324	0,086	0,018
-392,336	-200,000	0,008	-0,093
-391,321	-148,042	0,102	0,006
-390,306	268,579	-0,126	-0,162
-389,292	425,646	-0,009	0,015
-388,277	-200,000	0,003	-0,135
-387,263	136,724	0,045	0,043
-386,248	-200,000	0,005	-0,043
-385,233	224,417	-0,008	-0,009
-384,219	-86,276	-0,069	0,015
-383,204	26,668	-0,049	-0,030
-382,190	230,815	0,016	-0,020
-381,175	-93,041	0,076	-0,015
-380,160	-200,000	-0,034	0,113
-379,146	-76,852	0,191	0,049
-378,131	-149,322	-0,087	-0,005
-377,117	243,873	0,058	0,071
-376,102	77,563	-0,023	-0,018
-375,088	-200,000	0,006	-0,063
-374,073	279,333	-0,089	0,117
-373,058	-200,000	0,011	0,093
-372,044	800,000	0,067	0,155
-371,029	7,897	-0,214	0,117
-370,015	-42,525	-0,048	0,018
-369,000	3,076	0,134	0,071
-367,985	-25,114	-0,050	0,022
-366,971	800,000	-0,033	-0,086
-365,956	-102,642	-0,168	0,029
-364,942	172,563	0,004	0,005
-363,927	197,395	0,049	0,055
-362,912	221,566	0,107	-0,126
-361,898	93,169	-0,085	-0,070
-360,883	-200,000	-0,018	-0,078
-359,869	800,000	-0,042	-0,133
-358,854	13,664	0,124	-0,070
-357,839	496,202	-0,017	-0,029
-356,825	-200,000	-0,004	0,147
-355,810	551,936	-0,063	-0,112
-354,796	-200,000	0,000	0,018
-353,781	-142,842	0,185	-0,013
-352,766	419,828	0,034	0,053
-351,752	-91,859	0,176	0,036
-350,737	-200,000	0,012	-0,069
-349,723	-200,000	0,006	0,064
-348,708	-58,192	0,098	-0,031
-347,693	-100,369	0,080	0,014
-346,679	140,717	-0,110	0,107
-345,664	-200,000	-0,064	0,216
-344,650	-79,497	0,037	-0,009
-343,635	-97,638	-0,177	0,033
-342,620	-2,626	0,070	0,036
-341,606	-200,000	0,009	0,057
-340,591	3,047	-0,076	-0,040
-339,577	-42,783	-0,099	-0,037
-338,562	644,301	0,050	-0,093
-337,548	-119,913	-0,049	0,006
-336,533	-200,000	0,049	-0,187
-335,518	-62,653	0,102	0,031
-334,504	87,361	-0,109	0,088
-333,489	566,717	-0,031	0,055
-332,475	-0,504	-0,081	-0,042
-331,460	70,977	0,096	-0,073
-330,445	-200,000	0,003	0,109
-329,431	-200,000	-0,025	0,188
-328,416	90,578	0,063	-0,052
-327,402	143,773	-0,039	0,038
-326,387	800,000	0,006	-0,017
-325,372	33,182	-0,068	0,043
-324,358	-200,000	0,010	-0,057
-323,343	-200,000	0,007	-0,030
-322,329	-115,695	-0,134	-0,018
-321,314	406,643	-0,014	-0,022
-320,299	800,000	0,010	0,029
-319,285	-200,000	0,019	-0,063
-318,270	-200,000	0,025	0,093
-317,256	438,444	-0,009	0,014
-316,241	284,449	0,049	-0,065
-315,226	-167,732	0,166	0,005
-314,212	121,902	0,135	0,124
-313,197	309,539	-0,033	-0,045
-312,183	309,002	0,057	-0,079
-311,168	27,805	-0,111	-0,068
-310,153	-107,407	-0,104	-0,017
-309,139	-200,000	0,005	-0,029
-308,124	-25,677	-0,064	-0,028
-307,110	75,118	0,026	0,020
-306,095	-200,000	-0,014	0,200
-305,080	-92,551	0,131	0,027
-304,066	-50,331	0,146	-0,050
-303,051	311,769	-0,042	0,058
-302,037	-200,000	-0,044	-0,150
-301,022	372,539	0,053	-0,079
-300,008	-106,007	0,114	0,019
-298,993	-200,000	0,021	0,205
-297,978	-200,000	-0,043	0,277
-296,964	-200,000	-0,025	-0,125
-295,949	800,000	0,043	-0,098
-294,935	-86,089	0,116	0,026
-293,920	-174,138	0,057	0,001
-292,905	-200,000	0,017	0,105
-291,891	429,899	0,067	0,106
-290,876	756,534	0,028	0,056
-289,862	339,678	-0,024	0,035
-288,847	-200,000	0,011	-0,120
-287,832	-190,654	-0,029	-0,000
-286,818	-95,395	-0,134	0,026
-285,803	478,236	0,047	0,078
-284,789	-200,000	0,014	0,103
-283,774	-10,575	-0,135	0,065
-282,759	-200,000	0,016	0,051
-281,745	88,432	-0,070	-0,057
-280,730	-28,985	0,065	-0,027
-279,716	108,826	-0,046	0,040
-278,701	-200,000	0,022	0,127
-277,686	-156,167	0,152	0,007
-276,672	-200,000	-0,005	0,051
-275,657	20,226	-0,052	-0,030
-274,643	-1,785	-0,041	-0,021
-273,628	800,000	0,062	-0,145
-272,613	-200,000	-0,014	0,069
-271,599	-67,930	-0,088	0,025
-270,584	411,074	-0,057	0,088
-269,570	-81,472	0,128	-0,031
-268,555	646,451	-0,037	-0,069
-267,540	117,187	0,097	-0,087
-266,526	455,949	-0,099	-0,162
-265,511	185,298	0,119	-0,130
-264,497	-14,056	-0,044	0,021
-263,482	-200,000	-0,040	0,173
-262,467	94,453	-0,143	0,119
-261,453	85,185	0,082	0,065
-260,438	-63,742	0,039	-0,012
-259,424	-200,000	-0,002	-0,025
-258,409	-200,000	-0,007	-0,131
-257,395	-158,041	-0,090	-0,004
-256,380	-125,428	0,171	-0,019
-255,365	180,977	0,056	0,060
-254,351	-106,593	-0,124	-0,020
-253,336	-177,609	0,074	0,001
-252,322	67,708	0,038	-0,029
-251,307	-200,000	-0,005	-0,126
-250,292	25,705	0,130	-0,079
-249,278	90,978	0,039	0,032
-248,263	-21,376	-0,134	-0,060
-247,249	41,552	-0,035	-0,023
-246,234	-19,608	-0,123	0,055
-245,219	-167,997	0,077	-0,002
-244,205	-200,000	-0,034	-0,147
-243,190	-200,000	-0,010	-0,145
-242,176	123,873	-0,136	-0,125
-241,161	34,946	0,070	-0,045
-240,146	324,591	0,046	0,064
-239,132	54,180	-0,049	-0,034
-238,117	-200,000	-0,044	-0,175
-237,103	100,173	-0,024	-0,021
-236,088	800,000	-0,005	0,010
-235,073	4,619	0,089	0,048
-234,059	-6,834	0,067	0,033
-233,044	800,000	-0,049	0,149
-232,030	-200,000	-0,006	-0,104
-231,015	-121,816	-0,124	0,015
-230,000	157,179	-0,056	-0,056
-228,986	-147,184	-0,069	0,004
-227,971	-43,976	0,047	-0,017
-226,957	-107,014	-0,103	-0,017
-225,942	649,618	-0,025	0,047
-224,927	373,488	0,015	0,023
-223,913	-108,929	0,154	0,024
-222,898	-118,678	-0,096	-0,012
-221,884	746,604	-0,027	-0,052
-220,869	800,000	-0,037	0,113
-219,855	-101,054	0,187	0,033
-218,840	-200,000	-0,003	0,016
-217,825	-200,000	0,040	0,155
-216,811	-87,183	-0,089	-0,020
-215,796	370,640	-0,040	0,060
-214,782	341,067	0,108	0,154
-213,767	160,710	0,076	0,077
-212,752	-200,000	-0,012	-0,085
-211,738	110,738	0,092	0,081
-210,723	-111,629	0,085	-0,013
-209,709	-6,938	0,045	-0,022
-208,694	480,141	-0,057	-0,094
-207,679	36,590	0,024	0,016
-206,665	135,571	-0,101	0,096
-205,650	87,361	0,018	-0,015
-204,636	228,577	-0,064	0,076
-203,621	-49,767	-0,135	0,047
-202,606	35,249	0,078	0,050
-201,592	-200,000	0,008	-0,102
-200,577	69,109	-0,105	-0,079
-199,563	-200,000	0,067	0,000
-198,548	-44,140	0,050	0,018
-197,533	357,109	0,033	0,048
-196,519	800,000	0,051	0,104
-195,504	800,000	0,025	0,056
-194,490	292,685	0,034	-0,045
-193,475	-200,000	0,008	0,037
-192,460	-200,000	-0,031	-0,112
-191,446	-22,458	-0,098	-0,043
-190,431	219,355	0,047	0,055
-189,417	800,000	-0,061	-0,150
-188,402	-127,890	-0,134	0,014
-187,387	-200,000	-0,007	0,108
-186,373	310,747	0,049	0,067
-185,358	241,184	0,119	0,145
-184,344	101,387	-0,111	-0,094
-183,329	174,978	-0,097	0,102
-182,315	297,742	0,043	0,058
-181,300	-200,000	-0,002	0,098
-180,285	-51,799	0,062	0,021
-179,271	46,297	-0,062	-0,042
-178,256	-200,000	0,001	-0,033
-177,242	10,038	0,083	0,046
-176,227	46,100	0,107	0,072
-175,212	800,000	0,041	-0,119
-174,198	166,546	-0,033	-0,034
-173,183	-200,000	0,020	-0,082
-172,169	-75,184	-0,058	0,015
-171,154	-119,889	-0,047	-0,006
-170,139	546,682	0,013	-0,023
-169,125	179,419	0,138	0,148
-168,110	-126,218	-0,055	0,006
-167,096	93,108	-0,095	0,078
-166,081	-200,000	-0,018	-0,087
-165,066	-200,000	-0,031	-0,172
-164,052	800,000	-0,016	0,039
-163,037	-200,000	-0,013	0,063
-162,023	-200,000	0,004	-0,019
-161,008	-200,000	-0,003	0,041
-159,993	484,592	-0,046	0,076
-158,979	-104,386	-0,068	0,011
-157,964	6,231	0,016	0,009
-156,950	320,278	-0,041	0,057
-155,935	-53,483	0,048	-0,016
-154,920	98,196	0,067	0,056
-153,906	171,133	0,058	0,060
-152,891	-200,000	-0,007	-0,054
-151,877	-56,731	0,101	-0,032
-150,862	454,407	-0,051	-0,082
-149,847	-122,345	0,073	0,009
-148,833	-33,187	-0,141	-0,057
-147,818	20,787	-0,096	-0,056
-146,804	-200,000	-0,026	0,092
-145,789	24,042	-0,059	0,036
-144,775	-180,843	0,092	-0,001
-143,760	-200,000	0,025	-0,098
-142,745	383,374	-0,049	0,073
-141,731	-74,375	-0,115	-0,030
-140,716	478,423	0,117	0,194
-139,702	-22,451	0,066	0,029
-138,687	108,696	0,077	-0,067
-137,672	225,517	-0,039	0,046
-136,658	800,000	-0,048	0,142
-135,643	112,340	0,069	-0,061
-134,629	-200,000	-0,018	-0,078
-133,614	800,000	0,024	0,065
-132,599	-86,406	-0,037	0,008
-131,585	-102,625	-0,093	-0,016
-130,570	332,287	0,112	-0,158
-129,556	-128,011	0,038	-0,004
-128,541	-200,000	-0,032	0,118
-127,526	-36,854	0,090	-0,035
-126,512	800,000	-0,015	-0,046
-125,497	335,203	0,065	0,092
-124,483	604,765	-0,024	-0,044
-123,468	-11,554	0,112	0,053
-122,453	800,000	-0,009	0,023
-121,439	240,285	-0,053	0,065
-120,424	-200,000	0,004	-0,056
-119,410	-110,588	0,061	0,009
-118,395	-200,000	0,004	-0,027
-117,380	347,899	-0,036	0,052
-116,366	46,271	-0,062	0,042
-115,351	640,846	-0,010	0,019
-114,337	629,906	0,024	-0,044
-113,322	294,316	0,050	0,066
-112,307	0,794	-0,061	0,032
-111,293	137,087	-0,036	0,035
-110,278	288,818	0,086	0,113
-109,264	-117,920	-0,100	0,013
-108,249	73,833	0,007	-0,005
-107,234	181,994	0,047	0,050
-106,220	-200,000	-0,029	-0,126
-105,205	-31,918	0,049	-0,020
-104,191	155,369	0,016	0,016
-103,176	800,000	0,062	0,131
-102,162	-200,000	0,014	0,077
-101,147	18,401	-0,169	0,098
-100,132	-151,937	-0,210	0,011
-99,118	55,832	0,027	-0,019
-98,103	-105,700	0,152	0,025
-97,089	-34,748	0,067	0,026
-96,074	-130,676	0,075	0,007
-95,059	800,000	0,090	0,189
-94,045	455,682	0,017	-0,028
-93,030	-200,000	0,018	-0,120
-92,016	509,691	-0,051	-0,087
-91,001	-133,731	0,058	0,005
-89,986	-71,142	0,081	-0,022
-88,972	-32,829	0,075	0,030
-87,957	-173,345	0,118	0,003
-86,943	76,007	0,082	-0,063
-85,928	134,664	-0,063	-0,060
-84,913	-78,838	0,106	0,026
-83,899	-200,000	-0,022	0,078
-82,884	-147,914	0,035	-0,002
-81,870	174,925	0,031	0,033
-80,855	800,000	0,030	-0,065
-79,840	109,459	0,060	-0,052
-78,826	-200,000	-0,026	-0,083
-77,811	-200,000	-0,008	-0,085
-76,797	800,000	-0,047	-0,128
-75,782	232,857	0,066	0,079
-74,767	-200,000	0,014	0,073
-73,753	732,654	0,019	-0,038
-72,738	-200,000	0,007	0,231
-71,724	-164,633	0,096	0,003
-70,709	-200,000	0,008	0,132
-69,694	196,968	0,003	0,004
-68,680	81,460	0,099	0,078
-67,665	-200,000	-0,011	0,054
-66,651	524,062	0,022	0,038
-65,636	-149,351	-0,105	-0,006
-64,622	-200,000	-0,002	-0,110
-63,607	-200,000	0,004	-0,208
-62,592	82,905	0,027	-0,021
-61,578	82,095	0,052	0,041
-60,563	212,941	0,145	0,167
-59,549	-187,373	0,098	0,001
-58,534	-138,853	-1,263	-0,098
-57,519	597,006	-0,767	-1,384
-56,505	-200,000	-0,907	-4,431
-55,490	-12,719	0,704	-0,332
-54,476	800,000	5,009	11,929
-53,461	-200,000	13,508	253,105
-52,446	-200,000	689,976	2257,491
-51,432	590,869	1622,294	2916,334
-50,417	119,124	1634,915	1467,024
-49,403	73,170	1288,718	976,671
-48,388	37,970	1024,310	659,444
-47,373	24,293	981,833	587,120
-46,359	23,510	971,510	578,354
-45,344	22,543	967,272	572,649
-44,330	22,482	965,541	571,405
-43,315	22,321	964,324	570,137
-42,300	22,368	963,221	569,615
-41,286	22,330	962,488	569,034
-40,271	22,312	961,445	568,337
-39,257	22,315	960,621	567,837
-38,242	22,294	959,667	567,183
-37,227	22,328	958,710	566,704
-36,213	22,335	957,644	566,075
-35,198	22,262	957,059	565,472
-34,184	22,305	956,284	565,127
-33,169	22,257	955,424	564,443
-32,154	22,361	954,552	564,242
-31,140	22,349	953,712	563,682
-30,125	22,415	952,935	563,413
-29,111	22,420	952,033	562,874
-28,096	22,398	951,197	562,287
-27,082	22,364	950,650	561,834
-26,067	22,369	949,778	561,310
-25,052	22,359	949,173	560,900
-24,038	22,312	948,795	560,501
-23,023	22,388	947,844	560,163
-22,009	22,335	947,329	559,667
-20,994	22,401	946,528	559,382
-19,979	22,364	945,935	558,892
-18,965	22,348	945,466	558,540
-17,950	22,389	944,688	558,189
-16,936	22,302	944,133	557,562
-15,921	22,306	943,432	557,140
-14,906	22,271	942,636	556,534
-13,892	22,197	942,185	556,010
-12,877	22,185	941,377	555,474
-11,863	22,203	940,675	555,094
-10,848	22,216	940,322	554,906
-9,833	22,344	939,758	554,956
-8,819	22,256	939,171	554,308
-7,804	22,297	938,401	553,964
-6,790	22,258	937,848	553,492
-5,775	22,271	937,328	553,202
-4,760	22,263	936,563	552,705
-3,746	22,251	935,971	552,294
-2,731	22,123	935,439	551,554
-1,717	22,131	934,517	551,013
-0,702	22,109	934,046	550,646
0,313	21,908	933,381	550,451
1,327	25,071	931,395	559,177
2,342	34,757	796,054	503,718
3,356	32,844	451,691	282,907
4,371	1,839	294,029	153,205
5,386	-2,695	275,068	139,016
6,400	-3,967	268,896	134,705
7,415	-4,444	266,566	133,087
8,429	-4,333	265,436	132,613
9,444	-4,461	264,453	131,993
10,459	-4,399	263,962	131,793
11,473	-4,527	263,369	131,368
12,488	-4,316	262,691	131,209
13,502	-4,747	262,313	130,620
14,517	-4,681	262,011	130,517
15,531	-4,735	261,483	130,194
16,546	-4,574	260,986	130,080
17,561	-4,565	260,713	129,940
18,575	-4,432	260,346	129,865
19,590	-4,734	260,137	129,479
20,604	-4,494	259,808	129,517
21,619	-4,477	259,403	129,320
22,634	-4,682	259,080	128,964
23,648	-4,658	258,874	128,871
24,663	-4,754	258,625	128,650
25,677	-4,693	258,436	128,599
26,692	-4,809	258,056	128,295
27,707	-4,914	257,861	128,094
28,721	-4,868	257,650	128,018
29,736	-4,805	257,308	127,893
30,750	-4,688	256,929	127,797
31,765	-4,657	256,786	127,742
32,780	-4,677	256,467	127,554
33,794	-4,790	256,466	127,442
34,809	-4,750	256,338	127,402
35,823	-4,761	255,914	127,171
36,838	-4,661	255,602	127,092
37,853	-4,855	255,467	126,843
38,867	-4,858	255,177	126,685
39,882	-4,728	254,897	126,649
40,896	-4,822	254,670	126,442
41,911	-4,768	254,534	126,411
42,926	-5,014	254,273	126,054
43,940	-4,798	253,964	126,079
44,955	-5,152	253,926	125,740
45,969	-5,050	253,498	125,605
46,984	-5,182	253,412	125,437
47,999	-5,306	253,167	125,196
49,013	-5,368	252,772	124,936
50,028	-5,557	252,504	124,628
51,042	-5,750	252,288	124,342
52,057	-5,748	252,098	124,240
53,071	-5,757	251,984	124,165
54,086	-5,390	251,672	124,318
55,101	-5,210	251,512	124,383
56,115	-4,973	251,287	124,465
57,130	-4,750	251,401	124,704
58,144	-4,452	251,183	124,841
59,159	-4,556	251,088	124,693
60,174	-4,406	250,791	124,664
61,188	-4,563	250,640	124,442
62,203	-4,686	250,391	124,203
63,217	-4,651	250,214	124,134
64,232	-4,683	250,058	124,018
65,247	-4,641	249,759	123,894
66,261	-4,651	249,357	123,675
67,276	-4,932	249,380	123,435
68,290	-5,188	249,036	123,035
69,305	-5,271	248,893	122,882
70,320	-5,178	248,551	122,782
71,334	-4,841	248,443	123,004
72,349	-4,478	248,254	123,210
73,363	-4,466	248,202	123,184
74,378	-4,404	247,864	123,057
75,393	-4,674	247,889	122,829
76,407	-4,656	247,519	122,649
77,422	-4,751	247,361	122,480
78,436	-4,678	247,251	122,477
79,451	-4,554	246,909	122,401
80,466	-4,722	246,786	122,187
81,480	-4,841	246,331	121,850
82,495	-4,902	246,340	121,792
83,509	-5,010	246,096	121,570
84,524	-4,985	245,945	121,505
85,539	-4,894	245,552	121,377
86,553	-4,959	245,472	121,272
87,568	-5,126	245,551	121,160
88,582	-4,898	245,143	121,139
89,597	-5,228	245,077	120,818
90,611	-4,692	244,728	121,085
91,626	-4,826	244,714	120,955
92,641	-4,831	244,501	120,835
93,655	-4,773	244,339	120,793
94,670	-4,872	244,102	120,582
95,684	-4,836	243,824	120,464
96,699	-4,779	243,630	120,405
97,714	-5,012	243,516	120,143
98,728	-4,849	243,014	120,021
99,743	-5,005	242,988	119,867
100,757	-5,106	242,908	119,733
101,772	-5,080	242,595	119,590
102,787	-4,847	242,528	119,739
103,801	-4,758	242,341	119,710
104,816	-4,873	242,324	119,596
105,830	-4,789	242,171	119,579
106,845	-4,901	242,080	119,431
107,860	-4,658	241,672	119,420
108,874	-4,635	241,526	119,357
109,889	-4,834	241,342	119,090
110,903	-4,781	241,044	118,976
111,918	-4,870	240,745	118,745
112,933	-4,945	240,817	118,708
113,947	-4,757	240,623	118,756
114,962	-4,781	240,546	118,688
115,976	-4,679	240,259	118,619
116,991	-4,703	240,027	118,475
118,006	-4,828	240,070	118,383
119,020	-4,602	239,839	118,444
120,035	-4,523	239,611	118,385
121,049	-4,667	239,543	118,223
122,064	-4,609	239,325	118,153
123,079	-4,611	239,082	118,020
124,093	-5,040	238,946	117,592
125,108	-4,949	238,716	117,543
126,122	-5,099	238,507	117,307
127,137	-5,230	238,396	117,136
128,151	-5,200	238,157	117,032
129,166	-4,905	237,829	117,100
130,181	-5,110	237,842	116,930
131,195	-4,972	237,570	116,898
132,210	-4,835	237,461	116,945
133,224	-4,772	237,248	116,881
134,239	-4,752	237,252	116,888
135,254	-4,815	237,010	116,708
136,268	-4,802	236,802	116,605
137,283	-5,306	236,601	116,088
138,297	-5,407	236,376	115,887
139,312	-5,229	236,113	115,891
140,327	-5,071	236,113	116,007
141,341	-4,478	236,118	116,477
142,356	-4,385	236,041	116,504
143,370	-4,495	235,819	116,296
144,385	-4,408	235,634	116,264
145,400	-4,514	235,508	116,106
146,414	-4,277	235,116	116,093
147,429	-4,467	235,002	115,874
148,443	-4,509	234,905	115,782
149,458	-4,497	234,750	115,705
150,473	-4,582	234,630	115,568
151,487	-4,651	234,467	115,422
152,502	-4,139	234,185	115,681
153,516	-4,166	234,088	115,602
154,531	-4,436	233,916	115,291
155,546	-4,639	233,691	115,008
156,560	-4,547	233,414	114,935
157,575	-4,666	233,240	114,744
158,589	-4,672	233,191	114,705
159,604	-4,404	233,089	114,857
160,619	-4,450	233,018	114,776
161,633	-4,265	232,755	114,783
162,648	-4,362	232,617	114,627
163,662	-4,570	232,536	114,412
164,677	-4,634	232,418	114,294
165,692	-4,473	232,178	114,293
166,706	-4,324	232,104	114,364
167,721	-4,188	232,005	114,412
168,735	-4,364	231,625	114,076
169,750	-4,472	231,542	113,940
170,764	-4,389	231,503	113,976
171,779	-4,503	231,486	113,868
172,794	-4,360	231,295	113,876
173,808	-4,452	230,871	113,585
174,823	-4,880	230,609	113,110
175,837	-4,893	230,294	112,935
176,852	-4,596	230,353	113,187
177,867	-4,574	230,342	113,189
178,881	-4,446	230,241	113,229
179,896	-4,112	229,972	113,347
180,910	-4,205	229,895	113,227
181,925	-4,145	229,723	113,179
182,940	-4,278	229,662	113,035
183,954	-4,505	229,578	112,806
184,969	-4,314	229,203	112,761
185,983	-4,431	229,205	112,661
186,998	-4,289	229,013	112,667
188,013	-4,247	228,883	112,625
189,027	-4,267	228,641	112,481
190,042	-4,188	228,556	112,490
191,056	-4,329	228,449	112,319
192,071	-3,893	228,093	112,471
193,086	-4,245	228,081	112,183
194,100	-4,377	227,942	112,002
195,115	-4,346	227,497	111,797
196,129	-5,071	227,270	111,117
197,144	-2,087	228,429	113,985
198,159	2,374	229,429	117,939
199,173	4,138	229,895	119,538
200,188	4,235	229,892	119,601
201,202	4,237	229,709	119,496
202,217	4,675	229,439	119,685
203,232	4,882	229,511	119,872
204,246	4,764	229,427	119,726
205,261	5,073	229,141	119,805
206,275	4,911	229,123	119,659
207,290	5,100	228,941	119,700
208,304	5,001	228,910	119,596
209,319	5,123	228,685	119,562
210,334	4,920	228,537	119,318
211,348	4,722	228,099	118,926
212,363	4,222	227,877	118,416
213,377	4,223	227,693	118,311
214,392	4,063	227,538	118,097
215,407	4,144	227,479	118,117
216,421	4,223	227,382	118,117
217,436	4,139	227,237	117,967
218,450	3,846	227,020	117,620
219,465	3,758	226,827	117,441
220,480	4,049	226,528	117,499
221,494	3,972	226,589	117,461
222,509	3,682	226,528	117,198
223,523	4,022	226,249	117,302
224,538	3,988	226,197	117,239
225,553	4,136	225,944	117,210
226,567	4,231	225,860	117,228
227,582	4,442	225,838	117,367
228,596	4,568	225,673	117,366
229,611	4,326	225,340	116,999
230,626	3,859	225,259	116,592
231,640	4,162	225,041	116,699
232,655	4,197	225,166	116,779
233,669	5,007	224,931	117,260
234,684	4,905	224,736	117,071
235,699	4,426	224,655	116,656
236,713	4,313	224,464	116,462
237,728	4,183	224,249	116,241
238,742	4,058	224,097	116,058
239,757	4,190	223,815	116,002
240,772	3,960	223,865	115,843
241,786	4,197	223,586	115,867
242,801	4,324	223,480	115,897
243,815	4,509	223,634	116,106
244,830	4,509	223,345	115,945
245,844	4,190	223,017	115,525
246,859	4,105	223,009	115,447
247,874	4,629	222,745	115,692
248,888	4,472	222,639	115,510
249,903	4,530	222,514	115,478
250,917	4,213	222,271	115,105
251,932	4,262	222,192	115,090
252,947	4,140	222,030	114,905
253,961	3,945	221,910	114,688
254,976	4,030	221,726	114,645
255,990	4,338	221,708	114,855
257,005	4,343	221,572	114,779
258,020	4,457	221,365	114,746
259,034	4,683	221,245	114,841
260,049	4,321	221,261	114,570
261,063	4,291	220,847	114,323
262,078	4,485	220,861	114,464
263,093	4,701	220,764	114,564
264,107	4,443	220,569	114,261
265,122	4,467	220,448	114,206
266,136	4,474	220,408	114,181
267,151	4,674	220,072	114,144
268,166	4,175	219,948	113,701
269,180	3,741	219,755	113,271
270,195	3,915	219,619	113,319
271,209	4,069	219,299	113,257
272,224	4,150	219,353	113,335
273,239	4,433	219,284	113,497
274,253	4,179	219,210	113,262
275,268	3,886	218,968	112,911
276,282	3,973	218,573	112,762
277,297	3,870	218,498	112,638
278,312	3,882	218,439	112,606
279,326	3,906	218,458	112,623
280,341	3,947	218,299	112,561
281,355	4,022	218,258	112,585
282,370	4,009	218,024	112,445
283,384	4,023	217,709	112,282
284,399	3,909	217,690	112,179
285,414	3,768	217,470	111,954
286,428	4,166	217,386	112,190
287,443	4,407	217,270	112,296
288,457	4,200	217,054	112,023
289,472	4,247	216,888	111,962
290,487	4,040	216,733	111,722
291,501	3,637	216,465	111,281
292,516	3,963	216,381	111,464
293,530	3,985	216,365	111,462
294,545	3,929	216,282	111,369
295,560	3,854	216,221	111,274
296,574	4,201	215,979	111,389
297,589	4,208	215,744	111,263
298,603	4,157	215,760	111,225
299,618	4,396	215,587	111,298
300,633	4,304	215,435	111,144
301,647	4,402	215,474	111,224
302,662	4,379	215,363	111,141
303,676	4,265	215,199	110,964
304,691	4,540	214,992	111,045
305,706	4,492	214,917	110,962
306,720	4,354	214,672	110,726
307,735	4,268	214,532	110,583
308,749	3,944	214,360	110,252
309,764	4,146	214,349	110,381
310,779	4,425	214,187	110,488
311,793	4,447	213,974	110,384
312,808	4,153	213,905	110,128
313,822	4,297	213,650	110,090
314,837	4,128	213,543	109,904
315,852	4,056	213,358	109,748
316,866	4,149	213,206	109,726
317,881	4,300	213,266	109,855
318,895	4,425	213,096	109,846
319,910	3,991	212,926	109,440
320,925	4,148	212,522	109,335
321,939	3,530	212,564	108,908
322,954	3,580	212,407	108,853
323,968	4,095	212,460	109,236
324,983	4,102	212,302	109,150
325,997	4,502	212,126	109,333
327,012	4,339	211,905	109,094
328,027	4,193	211,915	108,986
329,041	4,335	211,834	109,035
330,056	4,497	211,594	109,016
331,070	4,402	211,444	108,862
332,085	4,109	211,115	108,477
333,100	4,120	211,105	108,470
334,114	4,189	211,021	108,466
335,129	3,973	210,755	108,167
336,143	3,779	210,644	107,965
337,158	3,929	210,484	107,977
338,173	4,122	210,268	107,992
339,187	4,017	210,180	107,864
340,202	3,953	210,004	107,719
341,216	3,904	209,969	107,657
342,231	3,905	209,918	107,623
343,246	3,988	209,730	107,575
344,260	3,883	209,680	107,466
345,275	4,046	209,501	107,478
346,289	4,301	209,516	107,655
347,304	4,322	209,223	107,509
348,319	4,225	209,016	107,325
349,333	4,030	208,942	107,143
350,348	3,981	208,980	107,118
351,362	4,462	208,686	107,292
352,377	4,226	208,631	107,091
353,392	4,223	208,452	106,987
354,406	4,137	208,377	106,879
355,421	194,482	1347,745	1438,320
356,435	155,183	1486,672	1438,433
