DTS Sentinel unit serial number:	SN410029Multiplexer serial number:	ORYXHardware model number:	OX2-SRSoftware version number:	ORYX F/W v4,00 Oryx Data Collector v3.7.2.0data status	okinstallation	B6 Nyhavnadifferential loss correction	single-endedforward channel	channel 2reverse channel	N/Adate	2023/12/11time	09:35:08forward acquisition time	300,00reverse acquisition time	0,00gamma	499,1914k internal	0,3139k external	0,3139temperature offset calibration	1,0000default loss term (dB/km)	0,3820temperature slope calibration	1,0000multiplexer offset coefficient	1,0000multiplexer slope coefficient	1,0000fibre end	0,00T internal ref (°C)	16,57T ext. ref 1 (°C)	-0,88T ext. ref 2 (°C)	-0,91length (m)	temperature (°C)	Stokes	anti-Stokes-744,400	-59,283	0,130	-0,041
-743,385	-175,943	-0,332	-0,006
-742,371	161,474	0,105	0,109
-741,356	-121,940	-0,355	0,043
-740,342	-200,000	0,033	0,139
-739,327	-123,649	-0,304	0,035
-738,312	184,605	0,056	0,062
-737,298	-71,924	-0,323	0,088
-736,283	48,213	0,064	0,044
-735,269	-117,574	-0,316	0,042
-734,254	-139,374	0,099	-0,008
-733,239	-70,807	-0,499	-0,138
-732,225	66,525	0,106	0,080
-731,210	-200,000	0,005	0,136
-730,196	-1,741	-0,128	-0,067
-729,181	-20,067	0,095	0,043
-728,167	-200,000	0,040	-0,148
-727,152	800,000	0,012	-0,030
-726,137	604,779	0,066	-0,123
-725,123	-200,000	0,000	-0,180
-724,108	800,000	-0,024	-0,053
-723,094	-17,934	-0,069	-0,032
-722,079	82,543	0,026	-0,021
-721,064	800,000	0,049	-0,125
-720,050	93,818	-0,081	0,068
-719,035	704,288	-0,024	0,048
-718,021	-90,970	0,037	-0,008
-717,006	411,496	-0,062	-0,098
-715,991	248,698	-0,076	-0,095
-714,977	786,409	-0,046	0,093
-713,962	145,635	-0,081	-0,081
-712,948	800,000	-0,007	0,021
-711,933	47,942	0,110	0,076
-710,918	251,400	0,067	0,085
-709,904	-141,147	0,052	0,004
-708,889	-85,594	-0,107	-0,025
-707,875	134,407	0,035	-0,034
-706,860	-200,000	-0,011	-0,050
-705,845	-106,631	0,015	-0,002
-704,831	27,780	-0,016	0,010
-703,816	44,035	0,022	0,015
-702,802	575,426	-0,016	0,029
-701,787	-65,692	0,136	-0,040
-700,772	366,410	-0,085	-0,127
-699,758	126,870	-0,148	-0,139
-698,743	-90,896	0,215	0,045
-697,729	-200,000	-0,010	0,042
-696,714	-119,408	0,095	-0,012
-695,699	-63,324	-0,011	-0,003
-694,685	800,000	0,063	-0,149
-693,670	-102,914	-0,028	-0,005
-692,656	800,000	-0,003	-0,008
-691,641	-200,000	-0,018	-0,068
-690,627	703,943	0,066	0,129
-689,612	800,000	-0,054	-0,124
-688,597	-94,978	-0,089	-0,018
-687,583	48,971	-0,126	-0,087
-686,568	-200,000	-0,007	-0,039
-685,554	-114,460	-0,088	0,012
-684,539	94,003	-0,021	0,018
-683,524	90,888	0,079	-0,065
-682,510	-74,544	-0,084	0,022
-681,495	-200,000	-0,006	0,027
-680,481	457,975	-0,077	-0,128
-679,466	-200,000	-0,018	-0,134
-678,451	29,215	-0,130	-0,081
-677,437	-148,913	0,114	-0,007
-676,422	-6,841	0,081	0,041
-675,408	178,432	-0,101	0,109
-674,393	65,744	-0,079	-0,059
-673,378	705,018	0,028	-0,056
-672,364	-75,401	0,054	0,014
-671,349	343,500	0,037	-0,054
-670,335	-154,446	0,043	-0,002
-669,320	800,000	0,032	-0,070
-668,305	800,000	-0,023	-0,052
-667,291	-137,030	-0,035	0,003
-666,276	2,247	0,085	0,045
-665,262	26,143	-0,181	-0,111
-664,247	-8,848	0,055	0,027
-663,232	227,366	-0,020	0,024
-662,218	-200,000	-0,001	0,097
-661,203	683,103	0,028	-0,054
-660,189	-35,740	0,102	-0,041
-659,174	-200,000	0,059	0,196
-658,159	-145,242	-0,105	-0,007
-657,145	716,364	0,042	-0,083
-656,130	123,992	0,042	-0,039
-655,116	-126,333	0,092	-0,010
-654,101	6,112	-0,064	-0,035
-653,086	184,168	0,083	-0,091
-652,072	582,901	-0,064	-0,117
-651,057	-200,000	-0,040	-0,134
-650,043	361,585	0,058	0,086
-649,028	-101,761	-0,111	-0,020
-648,014	-200,000	0,026	-0,110
-646,999	260,329	-0,064	0,081
-645,984	-6,834	0,066	0,033
-644,970	502,091	-0,058	-0,099
-643,955	-78,724	0,015	0,004
-642,941	-33,370	-0,164	0,067
-641,926	336,196	-0,026	0,037
-640,911	800,000	0,008	-0,021
-639,897	-8,263	-0,110	0,055
-638,882	211,365	0,069	0,080
-637,868	-200,000	0,017	0,071
-636,853	800,000	-0,012	0,036
-635,838	-107,959	0,134	-0,021
-634,824	-200,000	-0,009	-0,140
-633,809	450,981	0,051	0,084
-632,795	22,105	0,050	-0,030
-631,780	-2,838	-0,043	0,022
-630,765	156,572	0,044	-0,045
-629,751	211,613	-0,087	0,101
-628,736	-187,924	0,081	-0,001
-627,722	-57,896	0,052	-0,017
-626,707	512,099	-0,034	-0,058
-625,692	-200,000	0,025	0,088
-624,678	0,419	0,038	-0,020
-623,663	-39,532	0,060	-0,023
-622,649	-138,254	-0,111	-0,009
-621,634	-66,022	0,081	0,024
-620,619	-200,000	0,001	0,040
-619,605	-15,852	0,099	-0,046
-618,590	522,716	-0,036	-0,062
-617,576	-168,036	0,183	0,005
-616,561	149,175	-0,037	-0,036
-615,546	105,633	0,017	-0,015
-614,532	134,668	0,040	-0,039
-613,517	800,000	-0,045	0,106
-612,503	800,000	0,018	-0,037
-611,488	210,607	-0,063	-0,073
-610,474	230,221	0,082	-0,099
-609,459	800,000	0,017	-0,046
-608,444	467,340	0,077	-0,128
-607,430	800,000	-0,037	-0,094
-606,415	800,000	0,031	-0,063
-605,401	364,049	-0,056	0,083
-604,386	166,203	0,039	0,040
-603,371	176,416	0,107	-0,115
-602,357	-200,000	-0,004	0,109
-601,342	162,753	-0,011	0,012
-600,328	44,330	-0,104	-0,070
-599,313	-200,000	-0,012	-0,103
-598,298	81,977	0,002	-0,002
-597,284	62,710	0,103	0,076
-596,269	671,091	-0,068	0,131
-595,255	-200,000	0,011	0,067
-594,240	191,402	-0,026	0,029
-593,225	284,832	0,070	0,093
-592,211	-200,000	0,001	0,075
-591,196	-113,774	0,094	-0,013
-590,182	-200,000	0,031	-0,103
-589,167	112,059	-0,046	-0,041
-588,152	23,344	0,038	-0,023
-587,138	-200,000	-0,000	-0,033
-586,123	424,262	0,057	0,091
-585,109	-31,199	-0,122	0,050
-584,094	800,000	0,022	0,069
-583,079	800,000	0,018	0,038
-582,065	237,409	0,074	0,090
-581,050	702,148	0,080	0,157
-580,036	-92,102	0,118	0,024
-579,021	301,721	-0,055	-0,075
-578,006	151,236	-0,119	-0,120
-576,992	94,350	-0,001	-0,000
-575,977	52,513	-0,085	0,060
-574,963	-97,321	0,057	-0,011
-573,948	-200,000	-0,022	0,147
-572,934	261,354	-0,046	0,058
-571,919	-110,887	-0,024	0,004
-570,904	296,536	-0,069	-0,093
-569,890	-200,000	0,002	-0,077
-568,875	-177,006	-0,103	-0,002
-567,861	800,000	-0,064	-0,136
-566,846	96,001	-0,068	-0,057
-565,831	398,307	0,017	-0,027
-564,817	800,000	0,055	-0,129
-563,802	282,270	-0,051	0,067
-562,788	800,000	-0,027	-0,085
-561,773	37,565	-0,122	0,079
-560,758	-200,000	0,007	0,038
-559,744	142,467	-0,021	0,020
-558,729	599,881	-0,061	-0,112
-557,715	109,261	0,038	0,033
-556,700	211,363	-0,071	-0,082
-555,685	-61,200	-0,018	-0,006
-554,671	-57,942	-0,198	0,063
-553,656	-200,000	-0,007	-0,044
-552,642	53,707	-0,076	-0,054
-551,627	185,077	-0,081	-0,088
-550,612	800,000	0,032	0,068
-549,598	-200,000	-0,011	-0,041
-548,583	-29,208	0,131	-0,055
-547,569	-117,039	0,026	-0,003
-546,554	-24,556	-0,114	0,050
-545,539	170,990	-0,059	-0,063
-544,525	51,089	0,057	0,039
-543,510	97,885	-0,042	-0,035
-542,496	-51,989	-0,094	0,032
-541,481	62,643	-0,175	0,128
-540,466	-82,129	-0,068	0,016
-539,452	-200,000	0,032	0,122
-538,437	89,143	-0,068	0,056
-537,423	22,431	0,124	0,074
-536,408	-114,292	-0,038	-0,005
-535,393	-19,085	0,051	0,023
-534,379	161,612	-0,121	0,124
-533,364	-200,000	0,022	-0,164
-532,350	661,410	0,058	-0,110
-531,335	103,018	0,073	0,063
-530,321	-6,436	-0,086	-0,043
-529,306	326,211	0,011	0,016
-528,291	277,574	0,088	-0,115
-527,277	-200,000	-0,048	-0,168
-526,262	13,020	0,054	0,031
-525,248	-108,700	0,171	0,027
-524,233	-13,643	-0,064	-0,030
-523,218	-200,000	-0,004	-0,040
-522,204	-114,627	-0,070	-0,010
-521,189	800,000	0,081	0,183
-520,175	230,139	-0,033	-0,040
-519,160	-200,000	-0,041	-0,214
-518,145	161,941	-0,049	0,050
-517,131	-7,725	0,154	0,076
-516,116	133,881	-0,025	0,024
-515,102	-200,000	-0,009	0,061
-514,087	11,411	-0,036	0,020
-513,072	-200,000	-0,004	-0,070
-512,058	800,000	-0,043	-0,126
-511,043	-106,206	0,115	0,019
-510,029	-200,000	-0,020	0,108
-509,014	800,000	0,050	0,136
-507,999	-200,000	-0,015	0,064
-506,985	67,959	-0,046	0,035
-505,970	-91,481	-0,105	-0,022
-504,956	485,277	-0,085	-0,143
-503,941	-22,172	0,137	0,061
-502,926	800,000	-0,053	-0,109
-501,912	-200,000	0,001	-0,068
-500,897	-200,000	-0,008	-0,129
-499,883	-200,000	0,002	-0,117
-498,868	-200,000	0,004	-0,025
-497,853	-200,000	-0,005	-0,109
-496,839	-200,000	0,006	-0,163
-495,824	113,916	0,128	-0,114
-494,810	-200,000	0,017	0,068
-493,795	-200,000	0,006	0,051
-492,781	82,495	0,059	-0,047
-491,766	-62,525	-0,110	-0,033
-490,751	-200,000	-0,008	0,042
-489,737	-200,000	0,012	-0,173
-488,722	96,591	0,109	-0,091
-487,708	-47,175	0,090	0,032
-486,693	-35,579	-0,105	0,042
-485,678	9,173	-0,125	0,069
-484,664	185,063	-0,047	-0,052
-483,649	-200,000	-0,023	-0,093
-482,635	-200,000	-0,042	-0,164
-481,620	-173,306	0,053	0,001
-480,605	-105,725	0,074	0,012
-479,591	-73,412	0,035	0,009
-478,576	-146,702	0,135	-0,008
-477,562	800,000	0,022	-0,066
-476,547	800,000	-0,036	0,112
-475,532	278,115	-0,049	0,065
-474,518	-90,236	-0,048	-0,010
-473,503	24,809	0,099	-0,060
-472,489	-166,121	0,067	-0,002
-471,474	-122,863	-0,153	-0,018
-470,459	-25,529	-0,090	-0,039
-469,445	102,520	-0,083	-0,072
-468,430	800,000	-0,016	-0,036
-467,416	-180,506	-0,045	-0,001
-466,401	214,209	-0,027	0,031
-465,386	-68,269	0,186	-0,053
-464,372	-10,936	-0,075	0,036
-463,357	-16,052	-0,098	0,046
-462,343	-87,979	-0,125	0,027
-461,328	22,042	0,014	0,008
-460,313	800,000	0,040	0,129
-459,299	139,466	-0,119	-0,115
-458,284	187,321	-0,062	-0,068
-457,270	-148,067	-0,049	-0,003
-456,255	-200,000	-0,003	-0,055
-455,241	-200,000	0,023	-0,089
-454,226	137,802	-0,056	-0,054
-453,211	792,267	0,074	0,149
-452,197	316,478	0,046	0,064
-451,182	123,275	-0,063	0,058
-450,168	143,774	0,013	-0,013
-449,153	-200,000	-0,015	-0,062
-448,138	0,975	-0,198	-0,104
-447,124	358,758	0,080	-0,118
-446,109	172,089	-0,037	0,039
-445,095	800,000	0,070	0,204
-444,080	800,000	-0,051	0,117
-443,065	-97,906	0,078	0,015
-442,051	-108,728	-0,107	0,017
-441,036	-200,000	0,022	-0,080
-440,022	5,266	-0,036	-0,019
-439,007	95,504	-0,030	0,025
-437,992	-200,000	0,000	0,078
-436,978	250,606	0,086	0,108
-435,963	79,983	-0,040	-0,032
-434,949	106,655	-0,065	-0,056
-433,934	-172,817	-0,121	-0,003
-432,919	-59,381	0,156	0,049
-431,905	-200,000	0,013	0,128
-430,890	-89,654	-0,061	0,013
-429,876	131,961	0,024	0,023
-428,861	190,140	-0,071	0,078
-427,846	-81,212	-0,160	0,038
-426,832	573,939	0,019	-0,033
-425,817	146,983	-0,069	0,068
-424,803	-200,000	0,002	0,100
-423,788	-200,000	0,012	0,071
-422,773	-55,631	0,145	-0,047
-421,759	-200,000	0,037	-0,168
-420,744	800,000	0,022	0,066
-419,730	161,374	0,096	-0,099
-418,715	46,278	-0,117	0,079
-417,701	601,759	0,083	-0,151
-416,686	38,396	0,058	-0,038
-415,671	800,000	-0,061	-0,134
-414,657	99,877	-0,035	0,030
-413,642	119,841	0,067	0,061
-412,628	-185,401	0,062	-0,001
-411,613	192,621	-0,063	0,069
-410,598	-129,535	0,105	0,010
-409,584	-200,000	0,012	0,038
-408,569	13,584	0,114	-0,064
-407,555	800,000	0,011	-0,035
-406,540	-130,336	-0,035	0,003
-405,525	-143,874	0,137	0,009
-404,511	800,000	-0,066	0,159
-403,496	99,486	0,114	0,097
-402,482	-200,000	0,001	-0,039
-401,467	-113,353	0,131	0,019
-400,452	-200,000	0,008	0,151
-399,438	-24,697	0,084	0,036
-398,423	-77,632	-0,016	-0,004
-397,409	-10,743	0,113	0,054
-396,394	-94,417	0,037	-0,007
-395,379	80,508	-0,072	-0,057
-394,365	-175,490	0,046	-0,001
-393,350	800,000	0,028	0,056
-392,336	211,866	-0,046	0,053
-391,321	188,587	-0,087	0,095
-390,306	714,580	0,043	-0,084
-389,292	-200,000	-0,015	-0,146
-388,277	140,324	0,146	-0,141
-387,263	-8,543	0,076	-0,037
-386,248	800,000	0,038	0,112
-385,233	800,000	-0,042	-0,100
-384,219	800,000	-0,025	0,073
-383,204	-69,244	-0,081	-0,023
-382,190	-139,295	0,087	-0,007
-381,175	-55,139	-0,087	-0,029
-380,160	-111,066	0,085	0,013
-379,146	275,226	0,059	-0,076
-378,131	792,573	0,068	0,137
-377,117	-76,596	0,164	-0,042
-376,102	-200,000	-0,008	-0,132
-375,088	44,036	0,039	-0,026
-374,073	-200,000	0,002	-0,016
-373,058	8,876	-0,109	-0,060
-372,044	-88,957	0,116	0,025
-371,029	-200,000	-0,016	0,072
-370,015	-200,000	-0,017	-0,136
-369,000	-34,294	0,055	0,022
-367,985	-171,854	-0,165	0,004
-366,971	-136,608	-0,089	-0,007
-365,956	-200,000	0,000	-0,047
-364,942	800,000	0,024	0,070
-363,927	-151,039	0,040	-0,002
-362,912	-7,969	0,112	0,055
-361,898	105,113	0,108	0,093
-360,883	-200,000	0,022	-0,202
-359,869	-147,189	-0,162	0,010
-358,854	668,290	0,072	0,137
-357,839	-95,932	0,170	0,033
-356,825	195,586	0,057	-0,064
-355,810	800,000	-0,030	0,076
-354,796	516,713	0,011	-0,018
-353,781	219,984	-0,087	-0,102
-352,766	-133,326	0,021	0,002
-351,752	329,544	0,047	0,066
-350,737	204,258	0,073	0,083
-349,723	-200,000	0,016	0,165
-348,708	-39,539	0,033	-0,013
-347,693	420,122	-0,048	-0,075
-346,679	92,593	-0,110	-0,090
-345,664	-37,431	-0,132	0,051
-344,650	38,238	-0,046	-0,030
-343,635	-33,656	0,075	-0,030
-342,620	-200,000	0,003	0,059
-341,606	-20,983	0,054	-0,024
-340,591	-131,243	-0,005	0,000
-339,577	661,305	-0,071	0,135
-338,562	800,000	-0,016	0,043
-337,548	7,983	-0,031	-0,017
-336,533	-25,673	0,055	-0,024
-335,518	270,499	0,025	-0,032
-334,504	-123,146	-0,196	0,023
-333,489	-200,000	-0,002	0,039
-332,475	-200,000	-0,020	-0,087
-331,460	-49,497	0,086	-0,030
-330,445	-69,896	-0,181	-0,050
-329,431	-131,243	0,142	0,014
-328,416	45,154	0,149	-0,100
-327,402	197,342	0,049	0,054
-326,387	-45,239	0,068	-0,025
-325,372	-200,000	0,002	0,027
-324,358	148,344	-0,039	-0,039
-323,343	92,949	0,025	-0,021
-322,329	-200,000	-0,012	-0,080
-321,314	138,256	0,101	0,097
-320,299	643,223	-0,019	-0,036
-319,285	-200,000	0,023	-0,122
-318,270	-200,000	0,001	0,006
-317,256	800,000	0,024	-0,063
-316,241	386,684	-0,035	-0,053
-315,226	-6,842	0,022	-0,011
-314,212	119,670	0,043	-0,039
-313,197	-200,000	0,012	0,108
-312,183	-105,402	-0,084	-0,014
-311,168	-200,000	-0,051	-0,166
-310,153	-200,000	-0,001	0,072
-309,139	89,283	0,067	0,054
-308,124	-200,000	-0,005	-0,043
-307,110	-200,000	-0,006	0,102
-306,095	289,697	0,163	0,216
-305,080	99,032	-0,022	-0,018
-304,066	239,449	-0,059	0,071
-303,051	191,961	-0,025	-0,027
-302,037	800,000	-0,027	-0,071
-301,022	-200,000	0,012	0,064
-300,008	-83,852	-0,130	0,030
-298,993	800,000	-0,052	0,112
-297,978	222,359	0,097	-0,114
-296,964	603,324	-0,036	0,066
-295,949	184,149	-0,021	0,023
-294,935	171,170	-0,087	-0,091
-293,920	-126,098	0,077	0,008
-292,905	419,099	-0,020	0,031
-291,891	-162,228	0,057	-0,002
-290,876	800,000	-0,050	-0,118
-289,862	800,000	0,032	0,077
-288,847	-159,742	0,031	-0,001
-287,832	-116,210	-0,088	-0,012
-286,818	-85,594	-0,084	0,019
-285,803	800,000	-0,054	0,158
-284,789	-200,000	-0,054	0,220
-283,774	800,000	0,040	0,118
-282,759	95,827	-0,108	0,090
-281,745	192,546	0,031	-0,034
-280,730	300,216	0,044	-0,060
-279,716	361,379	-0,067	-0,099
-278,701	800,000	-0,029	0,064
-277,686	-200,000	0,004	0,046
-276,672	-200,000	0,027	-0,088
-275,657	-200,000	-0,023	0,110
-274,643	-20,003	0,049	0,022
-273,628	-200,000	-0,010	-0,057
-272,613	800,000	0,050	-0,106
-271,599	-55,079	0,171	-0,056
-270,584	800,000	-0,039	0,086
-269,570	800,000	-0,066	0,148
-268,555	261,217	0,060	0,076
-267,540	-86,564	0,085	0,019
-266,526	380,808	-0,044	-0,067
-265,511	-167,760	0,119	-0,003
-264,497	-121,302	0,083	0,010
-263,482	-25,244	-0,056	0,024
-262,467	-59,282	-0,099	0,031
-261,453	-200,000	-0,002	0,115
-260,438	-73,767	-0,084	-0,022
-259,424	0,964	-0,067	0,035
-258,409	-61,073	0,113	0,035
-257,395	-200,000	0,002	0,042
-256,380	120,054	0,067	-0,061
-255,365	-200,000	-0,005	0,033
-254,351	-8,823	-0,117	0,057
-253,336	-59,004	-0,062	-0,019
-252,322	-51,062	-0,098	0,033
-251,307	-84,842	-0,019	-0,004
-250,292	800,000	-0,033	0,093
-249,278	800,000	-0,022	-0,048
-248,263	177,415	0,116	0,123
-247,249	-123,443	0,118	0,014
-246,234	468,044	0,006	-0,010
-245,219	465,478	0,048	-0,078
-244,205	-115,100	-0,117	0,016
-243,190	800,000	-0,013	0,033
-242,176	67,367	-0,019	-0,014
-241,161	-116,110	0,086	0,012
-240,146	-60,659	-0,021	0,006
-239,132	800,000	0,039	-0,093
-238,117	-81,775	-0,106	-0,025
-237,103	-47,495	-0,021	-0,007
-236,088	63,256	0,088	-0,064
-235,073	96,319	0,095	0,079
-234,059	748,900	-0,003	-0,006
-233,044	634,330	0,061	0,114
-232,030	231,705	-0,033	-0,039
-231,015	-97,926	-0,053	0,010
-230,000	64,683	-0,067	0,049
-228,986	470,886	-0,018	-0,030
-227,971	800,000	0,022	0,052
-226,957	-200,000	-0,026	0,140
-225,942	-200,000	-0,004	0,020
-224,927	248,238	0,054	0,066
-223,913	800,000	-0,044	-0,135
-222,898	132,194	-0,065	-0,061
-221,884	10,895	-0,067	0,037
-220,869	-200,000	0,047	-0,157
-219,855	0,148	0,104	0,054
-218,840	-80,664	0,084	0,020
-217,825	800,000	-0,056	-0,117
-216,811	-144,152	-0,032	-0,002
-215,796	-38,636	-0,074	-0,028
-214,782	-200,000	0,052	0,184
-213,767	12,048	0,048	0,027
-212,752	30,850	-0,044	-0,027
-211,738	28,303	0,090	0,055
-210,723	139,275	-0,040	-0,038
-209,709	146,187	-0,108	-0,105
-208,694	313,243	-0,009	-0,012
-207,679	327,677	-0,079	-0,110
-206,665	-58,296	-0,139	-0,044
-205,650	2,083	0,044	0,023
-204,636	-16,310	0,100	-0,046
-203,621	-105,869	0,121	0,020
-202,606	140,043	-0,029	0,027
-201,592	-36,695	-0,090	0,035
-200,577	-101,449	-0,060	0,010
-199,563	112,251	-0,012	-0,011
-198,548	-103,864	0,112	-0,019
-197,533	-200,000	-0,008	0,059
-196,519	169,088	-0,082	0,085
-195,504	320,318	0,071	-0,098
-194,490	68,737	-0,074	-0,055
-193,475	572,876	-0,024	0,043
-192,460	-200,000	-0,001	-0,130
-191,446	800,000	0,014	-0,034
-190,431	800,000	0,029	0,060
-189,417	462,899	-0,013	-0,021
-188,402	86,922	0,101	0,081
-187,387	-200,000	-0,021	-0,199
-186,373	-17,470	0,118	0,053
-185,358	-200,000	-0,004	0,045
-184,344	-200,000	0,024	0,081
-183,329	800,000	0,009	-0,019
-182,315	-79,049	0,135	0,033
-181,300	52,866	-0,107	-0,074
-180,285	-67,539	0,033	-0,009
-179,271	-14,413	0,184	-0,085
-178,256	-200,000	0,039	0,150
-177,242	80,175	0,079	0,062
-176,227	800,000	-0,025	-0,078
-175,212	-200,000	-0,004	0,043
-174,198	-200,000	-0,021	-0,069
-173,183	362,057	-0,086	-0,125
-172,169	800,000	-0,054	-0,159
-171,154	-200,000	0,017	-0,079
-170,139	-200,000	0,019	0,159
-169,125	186,321	-0,053	0,058
-168,110	800,000	0,028	0,068
-167,096	-59,399	-0,102	0,032
-166,081	-94,812	-0,155	0,030
-165,066	-200,000	-0,008	-0,052
-164,052	41,872	0,105	0,069
-163,037	-200,000	-0,011	-0,063
-162,023	-124,598	-0,069	0,008
-161,008	15,462	0,089	-0,051
-159,993	-200,000	-0,021	-0,089
-158,979	800,000	0,018	0,048
-157,964	800,000	0,028	0,062
-156,950	-200,000	-0,010	-0,038
-155,935	800,000	0,028	0,082
-154,920	431,167	0,010	-0,015
-153,906	-99,241	-0,103	0,019
-152,891	147,733	0,039	0,038
-151,877	-175,323	-0,072	-0,001
-150,862	-77,533	-0,165	-0,041
-149,847	-200,000	-0,013	-0,098
-148,833	302,327	0,072	0,097
-147,818	800,000	-0,067	0,160
-146,804	6,667	0,163	-0,088
-145,789	-83,466	0,144	0,033
-144,775	418,813	0,052	-0,081
-143,760	36,880	-0,034	-0,021
-142,745	-200,000	-0,015	0,087
-141,731	-30,807	-0,036	0,015
-140,716	-92,755	0,089	0,018
-139,702	800,000	-0,036	-0,087
-138,687	-5,627	0,192	0,095
-137,672	-200,000	0,021	0,095
-136,658	800,000	-0,056	-0,138
-135,643	225,540	-0,013	-0,015
-134,629	-127,809	-0,097	0,010
-133,614	-200,000	0,000	0,098
-132,599	800,000	0,047	0,123
-131,585	-172,669	-0,078	0,002
-130,570	-119,881	-0,077	0,009
-129,556	-131,340	-0,035	-0,003
-128,541	68,370	-0,043	0,032
-127,526	800,000	0,032	0,080
-126,512	-20,440	0,031	0,014
-125,497	-16,410	0,125	0,057
-124,483	-200,000	0,022	0,073
-123,468	-102,582	0,099	-0,017
-122,453	-200,000	0,015	0,098
-121,439	-200,000	-0,001	0,005
-120,424	138,537	-0,071	-0,068
-119,410	128,862	0,099	-0,092
-118,395	356,945	0,025	-0,036
-117,380	-33,786	0,116	0,046
-116,366	-200,000	-0,025	-0,094
-115,351	106,161	-0,057	0,049
-114,337	-200,000	0,009	-0,134
-113,322	98,728	-0,061	0,051
-112,307	-73,092	0,054	0,014
-111,293	147,086	0,127	0,123
-110,278	-55,724	0,133	0,043
-109,264	-166,884	0,078	-0,002
-108,249	113,042	-0,148	0,130
-107,234	-200,000	0,004	-0,084
-106,220	-61,273	-0,131	-0,040
-105,205	64,600	-0,030	-0,022
-104,191	-84,463	0,129	-0,029
-103,176	683,303	-0,059	0,112
-102,162	-200,000	0,009	0,089
-101,147	-77,147	0,028	-0,007
-100,132	800,000	-0,096	-0,205
-99,118	194,976	0,045	0,049
-98,103	-118,216	-0,133	-0,017
-97,089	-200,000	-0,004	-0,055
-96,074	44,053	0,124	-0,082
-95,059	197,432	-0,093	-0,103
-94,045	160,271	0,076	-0,077
-93,030	44,052	0,031	0,020
-92,016	-7,111	-0,022	0,011
-91,001	141,771	-0,050	-0,048
-89,986	-191,876	0,059	0,000
-88,972	20,885	0,137	0,080
-87,957	470,921	-0,060	0,099
-86,943	-200,000	-0,025	0,084
-85,928	376,209	-0,049	-0,072
-84,913	18,298	-0,097	-0,056
-83,899	347,033	-0,073	-0,105
-82,884	92,466	0,063	0,051
-81,870	-200,000	0,017	0,081
-80,855	-200,000	0,024	-0,106
-79,840	515,045	0,039	-0,066
-78,826	-200,000	-0,005	-0,141
-77,811	120,735	-0,062	-0,056
-76,797	288,802	0,017	0,022
-75,782	540,173	0,035	-0,061
-74,767	-43,151	-0,037	-0,013
-73,753	10,712	0,087	-0,048
-72,738	800,000	-0,038	-0,114
-71,724	-200,000	0,012	-0,068
-70,709	-200,000	-0,004	-0,040
-69,694	800,000	0,033	0,069
-68,680	-200,000	0,043	0,144
-67,665	-11,508	-0,055	0,026
-66,651	75,169	0,071	0,054
-65,636	160,799	0,033	0,033
-64,622	-97,387	0,135	-0,025
-63,607	182,356	-0,107	-0,114
-62,592	-200,000	-0,007	-0,024
-61,578	-200,000	-0,010	-0,101
-60,563	-118,452	0,189	-0,024
-59,549	246,602	-0,085	-0,104
-58,534	23,673	-1,673	-0,992
-57,519	-200,000	-0,250	-1,047
-56,505	-200,000	-1,123	-4,888
-55,490	-78,217	0,749	0,184
-54,476	800,000	5,291	12,110
-53,461	-200,000	17,047	278,760
-52,446	800,000	715,649	2226,567
-51,432	559,647	1626,511	2846,283
-50,417	114,205	1622,582	1425,116
-49,403	78,678	1282,236	988,731
-48,388	33,791	1026,900	643,441
-47,373	20,519	988,894	575,695
-46,359	19,176	977,157	564,414
-45,344	16,906	973,117	554,595
-44,330	17,042	971,641	554,181
-43,315	16,640	969,869	551,830
-42,300	16,601	968,751	551,044
-41,286	16,618	967,727	550,493
-40,271	16,644	966,776	550,017
-39,257	16,679	965,763	549,532
-38,242	16,669	965,071	549,085
-37,227	16,635	964,188	548,450
-36,213	16,630	963,304	547,908
-35,198	16,642	962,339	547,378
-34,184	16,643	961,931	547,126
-33,169	16,578	960,908	546,314
-32,154	16,639	959,756	545,835
-31,140	16,580	958,851	545,105
-30,125	16,661	958,269	545,017
-29,111	16,646	957,313	544,402
-28,096	16,642	956,572	543,948
-27,082	16,599	956,054	543,491
-26,067	16,612	955,198	543,025
-25,052	16,668	954,438	542,752
-24,038	16,558	953,825	542,027
-23,023	16,578	953,377	541,814
-22,009	16,589	952,633	541,407
-20,994	16,608	951,938	541,050
-19,979	16,596	951,416	540,695
-18,965	16,635	950,516	540,287
-17,950	16,613	950,163	539,994
-16,936	16,576	949,351	539,393
-15,921	16,512	948,549	538,709
-14,906	16,499	947,965	538,314
-13,892	16,508	947,404	538,004
-12,877	16,460	946,863	537,521
-11,863	16,404	946,159	536,924
-10,848	16,518	945,462	536,869
-9,833	16,561	945,027	536,738
-8,819	16,549	944,316	536,275
-7,804	16,463	943,724	535,642
-6,790	16,418	943,337	535,257
-5,775	16,531	942,451	535,096
-4,760	16,500	942,043	534,742
-3,746	16,551	941,323	534,475
-2,731	16,413	940,701	533,664
-1,717	16,364	939,845	533,001
-0,702	16,383	939,345	532,756
0,313	16,194	938,576	532,523
1,327	19,662	936,662	542,362
2,342	29,055	792,645	483,903
3,356	25,494	446,705	267,367
4,371	-5,574	295,158	145,484
5,386	-9,784	276,797	132,413
6,400	-10,947	270,851	128,473
7,415	-11,285	268,565	127,065
8,429	-11,008	267,312	126,715
9,444	-11,145	266,320	126,108
10,459	-10,973	265,834	126,024
11,473	-10,873	265,325	125,862
12,488	-10,808	264,694	125,612
13,502	-11,024	264,330	125,231
14,517	-10,888	264,092	125,230
15,531	-10,515	263,788	125,414
16,546	-10,483	263,453	125,273
17,561	-10,394	263,029	125,141
18,575	-10,092	262,479	125,140
19,590	-10,430	262,381	124,778
20,604	-10,447	262,084	124,610
21,619	-10,429	261,797	124,478
22,634	-10,374	261,319	124,289
23,648	-10,470	261,054	124,066
24,663	-10,264	260,802	124,120
25,677	-10,370	260,640	123,937
26,692	-10,416	260,205	123,678
27,707	-10,254	259,950	123,690
28,721	-10,364	259,866	123,541
29,736	-10,345	259,500	123,373
30,750	-10,450	259,349	123,197
31,765	-10,373	258,910	123,046
32,780	-10,197	258,822	123,150
33,794	-10,490	258,733	122,835
34,809	-10,265	258,375	122,854
35,823	-10,412	258,008	122,539
36,838	-10,337	258,015	122,597
37,853	-10,356	257,611	122,378
38,867	-10,465	257,313	122,128
39,882	-10,280	257,118	122,188
40,896	-10,398	256,908	121,974
41,911	-10,247	256,612	121,956
42,926	-10,263	256,422	121,840
43,940	-10,409	256,272	121,630
44,955	-10,490	256,105	121,469
45,969	-10,394	255,899	121,445
46,984	-10,525	255,737	121,242
47,999	-10,403	255,368	121,163
49,013	-10,482	255,141	120,975
50,028	-10,634	254,983	120,756
51,042	-10,724	254,742	120,553
52,057	-10,803	254,565	120,390
53,071	-10,522	254,421	120,555
54,086	-10,515	254,106	120,402
55,101	-10,483	253,904	120,323
56,115	-10,529	253,862	120,252
57,130	-10,323	253,466	120,233
58,144	-10,395	253,089	119,982
59,159	-10,726	253,158	119,716
60,174	-10,501	252,783	119,723
61,188	-10,492	252,601	119,634
62,203	-10,431	252,623	119,687
63,217	-10,385	252,235	119,532
64,232	-10,319	251,954	119,445
65,247	-10,675	251,933	119,118
66,261	-10,620	251,513	118,955
67,276	-10,512	251,505	119,033
68,290	-10,536	251,029	118,777
69,305	-10,793	250,885	118,477
70,320	-10,648	250,932	118,614
71,334	-10,317	250,528	118,696
72,349	-10,424	250,423	118,544
73,363	-10,503	250,149	118,337
74,378	-10,363	249,808	118,284
75,393	-10,461	249,671	118,125
76,407	-10,469	249,510	118,031
77,422	-10,533	249,250	117,843
78,436	-10,472	249,053	117,791
79,451	-10,550	248,963	117,673
80,466	-10,591	248,634	117,472
81,480	-10,590	248,573	117,433
82,495	-10,395	248,257	117,439
83,509	-10,300	248,016	117,395
84,524	-10,549	247,991	117,162
85,539	-10,509	247,807	117,098
86,553	-10,489	247,378	116,902
87,568	-10,546	247,337	116,823
88,582	-10,599	247,112	116,663
89,597	-10,579	246,919	116,578
90,611	-10,409	246,683	116,599
91,626	-10,433	246,701	116,577
92,641	-10,334	246,446	116,529
93,655	-10,468	246,084	116,235
94,670	-10,600	245,959	116,055
95,684	-10,606	245,887	116,005
96,699	-10,646	245,697	115,871
97,714	-10,498	245,435	115,862
98,728	-10,470	245,214	115,771
99,743	-10,263	244,989	115,828
100,757	-10,542	244,898	115,541
101,772	-10,651	244,660	115,327
102,787	-10,634	244,465	115,239
103,801	-10,638	244,296	115,146
104,816	-10,399	243,959	115,176
105,830	-10,535	244,024	115,083
106,845	-10,485	243,865	115,039
107,860	-10,512	243,540	114,853
108,874	-10,523	243,221	114,684
109,889	-10,653	242,992	114,457
110,903	-10,801	243,030	114,342
111,918	-10,618	242,621	114,291
112,933	-10,535	242,554	114,318
113,947	-10,612	242,390	114,167
114,962	-10,536	242,263	114,160
115,976	-10,507	242,144	114,118
116,991	-10,569	242,067	114,020
118,006	-10,503	241,764	113,921
119,020	-10,429	241,612	113,901
120,035	-10,433	241,419	113,797
121,049	-10,338	241,255	113,787
122,064	-10,545	241,163	113,563
123,079	-10,586	240,895	113,393
124,093	-10,535	240,755	113,359
125,108	-10,625	240,554	113,181
126,122	-10,593	240,351	113,101
127,137	-10,456	240,155	113,111
128,151	-10,655	240,080	112,903
129,166	-10,588	239,774	112,803
130,181	-10,531	239,676	112,794
131,195	-10,547	239,409	112,645
132,210	-10,617	239,200	112,480
133,224	-10,688	238,984	112,310
134,239	-10,600	238,909	112,337
135,254	-10,689	238,617	112,117
136,268	-10,612	238,564	112,145
137,283	-10,453	238,276	112,128
138,297	-10,494	238,098	112,001
139,312	-10,764	237,932	111,695
140,327	-10,595	237,768	111,744
141,341	-10,512	237,597	111,721
142,356	-10,366	237,488	111,778
143,370	-10,520	237,306	111,558
144,385	-10,580	237,245	111,471
145,400	-10,206	236,856	111,580
146,414	-10,220	236,693	111,482
147,429	-10,341	236,556	111,309
148,443	-10,416	236,390	111,161
149,458	-10,308	236,222	111,159
150,473	-10,536	236,165	110,939
151,487	-10,477	235,897	110,851
152,502	-10,311	235,754	110,907
153,516	-10,342	235,618	110,808
154,531	-10,279	235,416	110,754
155,546	-10,341	235,129	110,559
156,560	-10,441	235,036	110,426
157,575	-10,411	234,618	110,244
158,589	-10,554	234,644	110,132
159,604	-10,486	234,599	110,155
160,619	-10,169	234,425	110,316
161,633	-10,281	234,209	110,116
162,648	-10,401	234,040	109,931
163,662	-10,316	233,991	109,965
164,677	-10,572	233,924	109,721
165,692	-10,445	233,655	109,686
166,706	-10,329	233,550	109,719
167,721	-10,008	233,327	109,858
168,735	-10,353	233,164	109,498
169,750	-10,528	233,147	109,342
170,764	-10,321	232,880	109,371
171,779	-10,570	232,651	109,058
172,794	-10,536	232,606	109,054
173,808	-10,541	232,240	108,868
174,823	-10,508	232,109	108,823
175,837	-10,519	231,822	108,670
176,852	-10,615	231,930	108,635
177,867	-10,379	231,838	108,769
178,881	-10,272	231,496	108,682
179,896	-10,398	231,480	108,566
180,910	-10,444	231,209	108,393
181,925	-10,491	231,040	108,267
182,940	-10,508	230,913	108,185
183,954	-10,297	230,610	108,198
184,969	-10,225	230,567	108,225
185,983	-10,403	230,734	108,154
186,998	-10,080	230,242	108,166
188,013	-10,165	230,120	108,032
189,027	-10,285	230,033	107,888
190,042	-10,155	229,696	107,822
191,056	-10,317	229,571	107,628
192,071	-10,518	229,484	107,421
193,086	-10,491	229,210	107,305
194,100	-10,860	228,838	106,835
195,115	-12,030	228,325	105,681
196,129	-11,729	228,533	106,000
197,144	-6,876	229,895	110,398
198,159	-1,876	231,352	114,994
199,173	0,703	232,007	117,326
200,188	1,499	232,351	118,111
201,202	2,263	232,262	118,652
202,217	2,946	232,321	119,205
203,232	3,095	232,252	119,275
204,246	3,057	232,097	119,155
205,261	3,147	231,895	119,111
206,275	3,260	231,754	119,116
207,290	3,176	231,602	118,962
208,304	3,255	231,491	118,955
209,319	3,296	231,143	118,798
210,334	2,874	231,183	118,481
211,348	2,519	230,786	117,991
212,363	2,082	230,608	117,551
213,377	1,719	230,311	117,109
214,392	1,981	230,000	117,142
215,407	1,764	229,788	116,856
216,421	1,718	229,702	116,766
217,436	1,547	229,604	116,575
218,450	1,781	229,263	116,572
219,465	1,660	229,144	116,407
220,480	1,651	229,140	116,388
221,494	1,534	229,030	116,232
222,509	1,854	228,934	116,419
223,523	1,939	228,720	116,364
224,538	1,893	228,499	116,207
225,553	1,930	228,379	116,163
226,567	1,820	228,185	115,970
227,582	1,700	228,115	115,833
228,596	1,853	227,850	115,804
229,611	1,936	227,803	115,834
230,626	1,721	227,684	115,598
231,640	1,915	227,454	115,619
232,655	1,902	227,331	115,537
233,669	1,693	227,289	115,346
234,684	1,890	227,068	115,373
235,699	2,012	227,021	115,432
236,713	1,908	226,859	115,260
237,728	2,015	226,628	115,214
238,742	1,695	226,497	114,895
239,757	1,886	226,471	115,016
240,772	1,926	226,263	114,930
241,786	2,288	226,062	115,092
242,801	2,098	226,024	114,918
243,815	2,155	225,831	114,853
244,830	2,240	225,809	114,896
245,844	2,332	225,487	114,791
246,859	2,106	225,433	114,583
247,874	2,148	225,168	114,470
248,888	2,190	225,035	114,424
249,903	1,962	224,929	114,189
250,917	2,031	224,927	114,229
251,932	2,125	224,683	114,166
252,947	2,166	224,481	114,083
253,961	2,108	224,322	113,949
254,976	2,124	224,120	113,848
255,990	2,096	223,969	113,740
257,005	1,794	224,067	113,553
258,020	2,291	223,678	113,718
259,034	2,349	223,712	113,769
260,049	2,262	223,602	113,638
261,063	1,975	223,438	113,329
262,078	2,319	223,155	113,433
263,093	2,210	222,984	113,254
264,107	2,182	222,975	113,219
265,122	2,213	222,730	113,107
266,136	2,215	222,611	113,038
267,151	2,248	222,409	112,950
268,166	2,141	222,405	112,859
269,180	2,014	222,164	112,632
270,195	1,911	221,888	112,406
271,209	2,074	221,832	112,488
272,224	2,114	221,719	112,450
273,239	1,829	221,619	112,179
274,253	1,859	221,422	112,091
275,268	1,881	221,296	112,033
276,282	1,876	221,064	111,903
277,297	1,806	220,885	111,750
278,312	1,922	220,789	111,777
279,326	2,000	220,728	111,793
280,341	1,969	220,591	111,692
281,355	1,939	220,358	111,541
282,370	2,082	220,323	111,619
283,384	2,030	220,198	111,508
284,399	2,077	219,871	111,366
285,414	1,899	219,933	111,257
286,428	2,069	219,761	111,285
287,443	2,079	219,671	111,237
288,457	2,046	219,455	111,093
289,472	2,270	219,289	111,164
290,487	1,982	219,036	110,815
291,501	1,970	218,976	110,765
292,516	1,937	218,931	110,709
293,530	2,257	218,721	110,826
294,545	2,426	218,581	110,869
295,560	2,276	218,368	110,641
296,574	2,330	218,280	110,627
297,589	2,411	218,191	110,631
298,603	2,080	218,186	110,377
299,618	2,237	217,920	110,347
300,633	2,227	217,996	110,368
301,647	2,469	217,627	110,347
302,662	2,438	217,559	110,280
303,676	2,383	217,400	110,150
304,691	2,571	217,249	110,200
305,706	2,200	217,182	109,887
306,720	2,263	216,981	109,822
307,735	2,163	216,863	109,679
308,749	2,073	216,702	109,524
309,764	2,291	216,469	109,553
310,779	2,234	216,472	109,503
311,793	2,357	216,185	109,438
312,808	2,372	216,066	109,379
313,822	2,372	215,817	109,242
314,837	2,322	215,660	109,117
315,852	2,149	215,607	108,957
316,866	2,097	215,681	108,947
317,881	2,195	215,338	108,834
318,895	1,883	215,276	108,570
319,910	2,313	215,053	108,755
320,925	1,895	214,968	108,404
321,939	2,007	214,736	108,357
322,954	2,329	214,568	108,493
323,968	2,091	214,659	108,359
324,983	2,152	214,359	108,242
325,997	2,106	214,155	108,095
327,012	1,978	214,218	108,027
328,027	2,111	213,978	107,991
329,041	1,846	213,891	107,749
330,056	2,096	213,832	107,887
331,070	2,124	213,592	107,776
332,085	2,048	213,401	107,616
333,100	1,964	213,361	107,527
334,114	2,280	213,102	107,611
335,129	2,121	213,089	107,482
336,143	2,139	212,805	107,342
337,158	1,958	212,826	107,215
338,173	1,877	212,755	107,112
339,187	2,293	212,478	107,257
340,202	2,289	212,139	107,073
341,216	2,162	212,033	106,921
342,231	2,175	212,018	106,912
343,246	2,097	212,043	106,861
344,260	2,270	211,774	106,837
345,275	2,304	211,749	106,839
346,289	2,202	211,641	106,704
347,304	2,148	211,340	106,505
348,319	2,196	211,209	106,463
349,333	2,148	211,034	106,331
350,348	2,024	211,001	106,218
351,362	2,441	210,864	106,432
352,377	2,438	210,593	106,284
353,392	2,073	210,608	106,027
354,406	2,111	210,534	106,007
355,421	194,998	1341,700	1426,051
356,435	155,710	1479,520	1426,058
