DTS Sentinel unit serial number:	SN410029Multiplexer serial number:	ORYXHardware model number:	OX2-SRSoftware version number:	ORYX F/W v4,00 Oryx Data Collector v3.7.2.0data status	okinstallation	B6 Nyhavnadifferential loss correction	single-endedforward channel	channel 2reverse channel	N/Adate	2023/12/07time	16:50:08forward acquisition time	300,00reverse acquisition time	0,00gamma	499,1914k internal	0,3164k external	0,3164temperature offset calibration	1,0000default loss term (dB/km)	0,3820temperature slope calibration	1,0000multiplexer offset coefficient	1,0000multiplexer slope coefficient	1,0000fibre end	0,00T internal ref (°C)	14,51T ext. ref 1 (°C)	-2,22T ext. ref 2 (°C)	-2,23length (m)	temperature (°C)	Stokes	anti-Stokes-744,400	-7,644	0,042	0,021
-743,385	1,736	-0,194	0,102
-742,371	800,000	-0,042	0,120
-741,356	-106,833	-0,250	0,040
-740,342	-200,000	-0,012	0,165
-739,327	-18,737	-0,337	0,154
-738,312	-144,025	0,119	0,008
-737,298	28,838	-0,261	0,163
-736,283	-17,989	0,149	0,068
-735,269	36,524	-0,151	0,098
-734,254	800,000	0,049	0,117
-733,239	-5,546	-0,476	-0,239
-732,225	134,995	0,157	0,150
-731,210	800,000	0,037	-0,109
-730,196	-200,000	-0,018	-0,124
-729,181	-200,000	0,008	-0,138
-728,167	-31,050	0,044	-0,018
-727,152	610,461	-0,077	-0,142
-726,137	415,834	0,046	0,072
-725,123	800,000	-0,023	-0,065
-724,108	800,000	-0,038	0,121
-723,094	800,000	-0,026	-0,065
-722,079	278,206	-0,042	-0,055
-721,064	-200,000	0,027	0,113
-720,050	-55,553	-0,137	-0,045
-719,035	48,303	0,024	-0,017
-718,021	-200,000	0,017	-0,179
-717,006	741,990	0,071	-0,140
-715,991	94,728	0,101	-0,084
-714,977	-61,483	-0,125	0,038
-713,962	407,015	-0,029	-0,045
-712,948	-114,878	-0,051	0,007
-711,933	-25,601	0,091	0,039
-710,918	-8,443	0,079	-0,039
-709,904	-74,535	-0,060	0,016
-708,889	0,617	-0,057	0,030
-707,875	50,330	-0,055	-0,038
-706,860	-200,000	-0,002	0,123
-705,845	800,000	-0,027	0,068
-704,831	276,895	0,060	0,078
-703,816	-91,785	0,046	0,010
-702,802	5,545	-0,073	0,039
-701,787	-200,000	0,017	-0,115
-700,772	159,612	0,018	-0,019
-699,758	-76,867	-0,018	0,005
-698,743	-200,000	-0,019	0,114
-697,729	-55,706	0,044	0,014
-696,714	-159,371	-0,149	-0,006
-695,699	-200,000	0,022	0,130
-694,685	376,371	-0,043	0,064
-693,670	-200,000	0,038	-0,249
-692,656	64,365	-0,028	-0,021
-691,641	-200,000	-0,044	0,186
-690,627	-200,000	0,005	0,053
-689,612	-200,000	-0,010	0,036
-688,597	-200,000	-0,007	-0,055
-687,583	-128,094	-0,248	-0,026
-686,568	399,206	0,092	-0,142
-685,554	800,000	-0,048	-0,104
-684,539	-175,542	-0,062	0,001
-683,524	-200,000	0,003	-0,055
-682,510	-54,537	0,044	-0,015
-681,495	-122,461	-0,127	-0,015
-680,481	-200,000	-0,026	0,130
-679,466	94,279	-0,072	-0,060
-678,451	184,533	-0,093	-0,101
-677,437	4,335	0,041	-0,022
-676,422	626,001	-0,035	-0,066
-675,408	161,622	0,022	0,023
-674,393	382,509	-0,073	0,110
-673,378	-200,000	-0,008	-0,064
-672,364	250,954	0,046	-0,058
-671,349	45,713	0,077	0,052
-670,335	160,265	-0,047	-0,048
-669,320	-122,908	-0,079	-0,009
-668,305	800,000	-0,019	0,045
-667,291	26,188	0,031	-0,019
-666,276	-200,000	-0,013	-0,072
-665,262	-135,067	-0,125	-0,011
-664,247	76,545	-0,034	0,027
-663,232	-12,461	0,046	0,022
-662,218	-141,480	-0,116	-0,009
-661,203	84,543	-0,082	0,066
-660,189	-200,000	-0,001	0,008
-659,174	-18,353	-0,057	0,026
-658,159	-200,000	0,004	-0,040
-657,145	-99,163	0,098	0,018
-656,130	570,638	-0,036	-0,064
-655,116	-200,000	-0,023	0,110
-654,101	800,000	-0,034	0,086
-653,086	-200,000	0,002	0,047
-652,072	645,798	0,032	0,060
-651,057	800,000	-0,046	-0,103
-650,043	-200,000	-0,025	-0,096
-649,028	-21,734	-0,105	-0,047
-648,014	156,561	0,140	-0,142
-646,999	245,523	-0,113	-0,140
-645,984	-18,602	-0,057	-0,026
-644,970	-68,036	-0,121	0,034
-643,955	3,354	-0,027	-0,015
-642,941	800,000	-0,029	-0,070
-641,926	800,000	-0,039	-0,100
-640,911	191,719	0,087	-0,097
-639,897	-93,900	-0,084	0,017
-638,882	-177,091	0,042	-0,001
-637,868	70,375	-0,100	0,076
-636,853	142,510	-0,158	-0,154
-635,838	109,326	-0,065	0,057
-634,824	10,229	-0,041	-0,023
-633,809	56,901	-0,055	-0,039
-632,795	-200,000	0,044	0,160
-631,780	-200,000	-0,032	0,167
-630,765	-73,048	0,074	-0,020
-629,751	-123,384	-0,068	-0,008
-628,736	298,664	-0,049	-0,067
-627,722	800,000	-0,014	-0,031
-626,707	427,412	0,040	0,063
-625,692	-111,658	0,149	0,022
-624,678	222,054	-0,048	0,057
-623,663	-200,000	-0,022	0,089
-622,649	209,284	-0,071	0,082
-621,634	-55,873	-0,143	-0,046
-620,619	-200,000	0,008	-0,070
-619,605	-120,157	0,040	0,005
-618,590	-33,883	0,052	0,021
-617,576	800,000	-0,015	0,037
-616,561	186,586	0,096	0,105
-615,546	113,827	-0,092	-0,082
-614,532	171,827	0,097	0,103
-613,517	-61,859	0,027	0,008
-612,503	-200,000	0,004	-0,093
-611,488	800,000	0,063	0,150
-610,474	-87,271	-0,119	-0,026
-609,459	127,810	0,051	-0,048
-608,444	-74,329	-0,094	0,025
-607,430	-200,000	-0,006	-0,039
-606,415	800,000	-0,026	-0,074
-605,401	330,949	-0,052	-0,073
-604,386	800,000	0,051	0,116
-603,371	25,624	0,200	-0,122
-602,357	800,000	0,053	0,157
-601,342	734,313	0,013	-0,026
-600,328	786,778	-0,041	-0,083
-599,313	49,993	0,060	-0,041
-598,298	-25,795	0,077	0,033
-597,284	-31,304	0,064	0,026
-596,269	-28,517	0,125	-0,052
-595,255	800,000	-0,011	0,025
-594,240	-91,149	-0,147	-0,031
-593,225	-64,212	0,068	-0,020
-592,211	-24,781	0,077	-0,033
-591,196	33,184	0,073	-0,046
-590,182	401,276	0,011	-0,017
-589,167	-200,000	0,048	0,000
-588,152	-163,288	0,079	-0,003
-587,138	368,303	0,009	0,013
-586,123	-124,379	0,067	-0,008
-585,109	-117,092	-0,081	-0,011
-584,094	-200,000	0,017	-0,088
-583,079	-146,067	0,080	0,005
-582,065	384,090	-0,040	0,061
-581,050	379,916	0,036	0,053
-580,036	286,631	0,052	-0,068
-579,021	230,564	0,040	-0,048
-578,006	60,210	0,015	0,010
-576,992	-17,460	-0,019	-0,009
-575,977	580,422	0,028	0,051
-574,963	-200,000	-0,029	0,128
-573,948	-200,000	-0,012	-0,076
-572,934	-129,605	-0,116	0,012
-571,919	-7,150	-0,071	0,035
-570,904	2,586	-0,032	0,017
-569,890	-200,000	0,008	-0,091
-568,875	-146,130	0,015	-0,001
-567,861	281,240	0,087	0,114
-566,846	-200,000	0,012	-0,104
-565,831	-200,000	-0,005	-0,020
-564,817	-137,788	-0,094	0,008
-563,802	-0,199	-0,138	-0,071
-562,788	-200,000	-0,003	0,102
-561,773	48,596	-0,052	-0,036
-560,758	-200,000	0,014	-0,058
-559,744	69,595	0,030	0,023
-558,729	-113,407	-0,073	0,010
-557,715	-23,262	0,120	-0,053
-556,700	156,787	-0,027	-0,028
-555,685	126,579	-0,072	-0,066
-554,671	71,670	-0,024	-0,018
-553,656	-39,390	0,134	0,051
-552,642	229,112	0,045	-0,053
-551,627	183,748	0,129	0,140
-550,612	-200,000	-0,003	0,011
-549,598	-200,000	-0,002	-0,068
-548,583	-7,426	-0,087	-0,043
-547,569	-73,038	0,185	0,049
-546,554	-72,890	0,018	0,005
-545,539	-200,000	-0,019	-0,166
-544,525	685,492	-0,068	0,130
-543,510	80,918	0,061	0,048
-542,496	-200,000	-0,000	-0,072
-541,481	-13,538	0,016	-0,007
-540,466	800,000	-0,059	0,136
-539,452	-200,000	-0,018	0,111
-538,437	-200,000	-0,006	-0,027
-537,423	395,894	0,061	0,093
-536,408	412,113	-0,061	-0,095
-535,393	522,556	-0,113	-0,195
-534,379	23,404	-0,188	-0,112
-533,364	-200,000	-0,008	0,056
-532,350	-175,325	0,029	0,001
-531,335	-200,000	-0,025	-0,224
-530,321	686,305	-0,031	0,059
-529,306	-200,000	0,016	0,097
-528,291	-200,000	-0,012	-0,118
-527,277	71,658	-0,054	0,041
-526,262	800,000	0,055	0,116
-525,248	-33,823	0,072	-0,029
-524,233	311,977	0,025	0,035
-523,218	-200,000	-0,006	0,063
-522,204	-40,970	0,051	0,019
-521,189	-141,930	0,062	0,004
-520,175	800,000	-0,007	-0,017
-519,160	1,195	-0,089	-0,046
-518,145	75,950	-0,123	-0,095
-517,131	-122,193	0,089	-0,010
-516,116	-200,000	0,002	0,037
-515,102	306,296	-0,062	-0,085
-514,087	-200,000	0,037	-0,129
-513,072	338,024	0,029	-0,042
-512,058	-42,990	-0,065	0,024
-511,043	6,871	0,156	-0,084
-510,029	800,000	-0,049	0,150
-509,014	338,001	-0,015	-0,021
-507,999	4,148	-0,026	0,014
-506,985	-182,585	0,116	0,002
-505,970	-163,135	-0,087	-0,003
-504,956	-200,000	0,006	-0,072
-503,941	264,414	-0,047	-0,060
-502,926	356,558	0,031	-0,045
-501,912	-200,000	0,028	-0,099
-500,897	-27,943	0,096	0,040
-499,883	-50,223	0,066	-0,023
-498,868	-200,000	-0,013	-0,051
-497,853	-155,138	0,158	-0,007
-496,839	6,149	-0,037	0,020
-495,824	-200,000	-0,007	-0,100
-494,810	188,578	-0,016	-0,017
-493,795	165,723	0,044	-0,046
-492,781	-52,049	-0,084	-0,028
-491,766	91,312	0,132	0,108
-490,751	-71,858	-0,063	0,017
-489,737	609,847	0,040	-0,073
-488,722	-103,613	-0,043	-0,007
-487,708	144,595	0,076	0,074
-486,693	278,755	0,056	-0,073
-485,678	289,173	0,030	-0,040
-484,664	368,525	-0,036	0,053
-483,649	90,000	0,135	0,110
-482,635	-200,000	0,050	-0,180
-481,620	33,381	0,079	0,050
-480,605	63,935	-0,042	-0,031
-479,591	96,557	0,071	-0,059
-478,576	800,000	-0,030	-0,095
-477,562	-200,000	0,001	0,040
-476,547	268,736	-0,087	-0,111
-475,532	196,758	-0,082	-0,091
-474,518	-28,134	-0,028	-0,012
-473,503	800,000	-0,034	0,102
-472,489	-200,000	-0,015	-0,106
-471,474	7,528	-0,021	0,011
-470,459	98,337	-0,002	0,002
-469,445	-132,879	-0,078	-0,007
-468,430	37,365	-0,026	-0,017
-467,416	-47,380	-0,094	0,033
-466,401	-106,267	-0,102	-0,016
-465,386	579,272	0,067	0,120
-464,372	-200,000	0,011	0,149
-463,357	103,972	-0,136	-0,116
-462,343	86,349	-0,031	0,025
-461,328	11,549	0,109	-0,060
-460,313	214,142	0,057	0,065
-459,299	-77,300	0,075	0,019
-458,284	748,869	-0,039	0,077
-457,270	525,219	-0,014	-0,025
-456,255	-108,289	-0,042	0,006
-455,241	87,612	-0,107	-0,086
-454,226	368,110	-0,065	-0,095
-453,211	82,126	-0,103	0,081
-452,197	-200,000	0,003	0,043
-451,182	-43,908	0,025	-0,009
-450,168	800,000	-0,042	0,107
-449,153	1,661	-0,052	-0,027
-448,138	800,000	0,014	-0,037
-447,124	-5,003	-0,046	-0,023
-446,109	-60,410	0,132	0,041
-445,095	800,000	-0,022	0,062
-444,080	745,775	-0,048	0,094
-443,065	-106,258	0,078	0,013
-442,051	112,428	0,053	-0,047
-441,036	158,557	-0,048	-0,048
-440,022	-200,000	0,029	-0,134
-439,007	-200,000	0,012	-0,071
-437,992	285,096	-0,066	0,087
-436,978	-12,243	0,155	0,074
-435,963	-25,561	0,042	0,018
-434,949	800,000	-0,035	0,090
-433,934	-105,224	-0,027	-0,004
-432,919	800,000	0,014	-0,031
-431,905	800,000	-0,032	0,065
-430,890	800,000	0,030	-0,063
-429,876	101,324	-0,052	-0,044
-428,861	694,242	-0,013	0,025
-427,846	662,298	0,069	-0,130
-426,832	62,455	-0,074	-0,054
-425,817	66,899	-0,033	0,024
-424,803	-94,349	0,174	0,034
-423,788	336,957	-0,025	-0,035
-422,773	12,731	-0,018	0,010
-421,759	210,409	0,097	0,111
-420,744	-115,377	-0,114	-0,016
-419,730	33,271	-0,061	-0,038
-418,715	88,464	-0,150	0,121
-417,701	800,000	0,031	-0,069
-416,686	388,985	-0,069	0,104
-415,671	-78,304	-0,115	0,028
-414,657	-40,019	-0,095	0,036
-413,642	-200,000	-0,003	-0,016
-412,628	-142,877	0,054	-0,004
-411,613	800,000	-0,036	-0,078
-410,598	800,000	0,017	0,046
-409,584	-7,298	0,092	0,045
-408,569	168,276	0,063	0,065
-407,555	4,638	-0,062	0,033
-406,540	800,000	-0,023	0,051
-405,525	183,803	-0,025	-0,027
-404,511	-46,377	0,108	-0,038
-403,496	-200,000	-0,024	0,125
-402,482	98,051	-0,054	-0,045
-401,467	61,089	-0,126	0,091
-400,452	-102,821	0,126	0,022
-399,438	-92,928	-0,055	0,011
-398,423	93,619	0,010	0,008
-397,409	800,000	-0,042	0,085
-396,394	740,482	0,095	0,186
-395,379	800,000	-0,052	-0,135
-394,365	-200,000	0,004	-0,165
-393,350	800,000	0,051	0,132
-392,336	-34,503	0,021	0,008
-391,321	75,450	-0,086	0,066
-390,306	-42,091	0,090	-0,033
-389,292	-200,000	0,003	0,036
-388,277	-169,287	-0,055	0,001
-387,263	-90,807	0,072	-0,015
-386,248	-37,836	0,037	0,014
-385,233	-200,000	-0,008	-0,067
-384,219	800,000	0,019	-0,047
-383,204	800,000	-0,037	-0,077
-382,190	-100,447	-0,128	-0,023
-381,175	-51,691	-0,053	0,018
-380,160	-6,991	0,104	-0,051
-379,146	-28,076	0,197	-0,082
-378,131	632,410	0,042	0,078
-377,117	-86,199	-0,034	-0,008
-376,102	481,416	0,030	-0,050
-375,088	1,303	-0,023	-0,012
-374,073	-148,396	0,133	0,008
-373,058	-27,812	0,011	0,005
-372,044	-200,000	-0,000	0,104
-371,029	800,000	-0,039	0,102
-370,015	52,450	0,041	-0,028
-369,000	552,097	-0,053	-0,093
-367,985	800,000	0,035	0,074
-366,971	27,517	0,119	-0,072
-365,956	-101,702	-0,116	-0,020
-364,942	-200,000	0,027	0,094
-363,927	-5,935	0,021	0,011
-362,912	-49,971	0,167	0,057
-361,898	800,000	-0,045	-0,135
-360,883	-200,000	0,002	-0,071
-359,869	15,651	-0,039	0,022
-358,854	44,607	0,090	0,060
-357,839	172,179	0,082	-0,086
-356,825	800,000	0,027	0,070
-355,810	30,403	-0,064	-0,039
-354,796	219,698	-0,095	0,111
-353,781	-200,000	-0,009	-0,115
-352,766	255,007	-0,068	-0,085
-351,752	-200,000	0,019	0,067
-350,737	800,000	0,047	0,097
-349,723	83,955	0,025	0,020
-348,708	337,028	-0,052	-0,073
-347,693	-200,000	-0,022	0,129
-346,679	-53,357	0,026	-0,008
-345,664	-200,000	-0,005	-0,073
-344,650	72,194	0,080	-0,061
-343,635	-135,801	-0,073	0,006
-342,620	800,000	0,015	0,033
-341,606	450,799	-0,042	0,068
-340,591	25,097	-0,114	-0,069
-339,577	-200,000	-0,019	-0,082
-338,562	-31,347	0,053	0,022
-337,548	82,212	-0,068	0,053
-336,533	463,411	0,106	0,172
-335,518	-103,588	-0,097	-0,016
-334,504	-200,000	0,010	-0,054
-333,489	260,388	-0,036	-0,045
-332,475	503,691	-0,035	-0,059
-331,460	-200,000	0,000	-0,060
-330,445	42,539	-0,149	0,098
-329,431	499,952	0,054	-0,091
-328,416	354,669	-0,104	0,150
-327,402	437,903	0,090	0,142
-326,387	-200,000	0,000	0,136
-325,372	440,054	-0,007	0,012
-324,358	101,372	-0,116	-0,098
-323,343	-200,000	0,008	-0,118
-322,329	476,150	0,081	-0,133
-321,314	11,045	0,144	0,079
-320,299	135,372	-0,044	-0,041
-319,285	-44,837	-0,106	-0,038
-318,270	-18,675	-0,111	-0,050
-317,256	653,683	0,034	0,063
-316,241	-27,669	-0,033	0,014
-315,226	-171,350	-0,051	0,001
-314,212	28,437	0,089	0,055
-313,197	111,631	-0,144	0,126
-312,183	800,000	-0,052	-0,163
-311,168	-140,260	-0,094	-0,007
-310,153	-11,461	-0,087	0,041
-309,139	221,511	-0,072	-0,084
-308,124	-200,000	-0,014	-0,065
-307,110	-200,000	-0,041	0,157
-306,095	-200,000	-0,018	0,104
-305,080	800,000	0,060	0,140
-304,066	20,630	0,059	0,034
-303,051	-28,461	-0,113	-0,047
-302,037	-200,000	-0,000	-0,045
-301,022	-71,110	0,078	-0,021
-300,008	-200,000	-0,012	-0,075
-298,993	298,781	-0,056	0,074
-297,978	-12,063	-0,038	-0,018
-296,964	800,000	-0,091	0,188
-295,949	-200,000	-0,004	-0,048
-294,935	-39,498	0,019	0,007
-293,920	202,468	-0,072	0,080
-292,905	-97,163	0,152	-0,028
-291,891	-29,458	0,045	0,019
-290,876	-53,137	-0,112	-0,037
-289,862	771,340	-0,038	0,076
-288,847	-200,000	-0,006	-0,073
-287,832	154,611	0,056	-0,055
-286,818	-200,000	0,032	-0,117
-285,803	236,532	-0,073	0,087
-284,789	-34,221	0,021	-0,008
-283,774	493,783	0,090	0,150
-282,759	-200,000	0,001	-0,034
-281,745	74,360	0,091	-0,069
-280,730	305,158	0,063	-0,085
-279,716	800,000	-0,010	0,026
-278,701	-49,488	-0,111	-0,038
-277,686	-200,000	0,022	0,078
-276,672	800,000	0,020	0,053
-275,657	800,000	-0,016	0,046
-274,643	-200,000	-0,007	-0,028
-273,628	-200,000	-0,009	-0,067
-272,613	777,251	0,044	-0,087
-271,599	382,479	0,015	0,023
-270,584	-104,533	-0,166	0,027
-269,570	74,258	0,007	0,005
-268,555	-200,000	0,021	-0,072
-267,540	115,519	0,098	-0,086
-266,526	-200,000	-0,005	-0,064
-265,511	-200,000	0,008	0,068
-264,497	-10,289	0,046	0,022
-263,482	-200,000	-0,012	-0,055
-262,467	181,834	0,012	-0,012
-261,453	-200,000	0,007	0,075
-260,438	172,710	0,090	-0,094
-259,424	-22,147	0,111	0,049
-258,409	-64,515	0,122	-0,036
-257,395	-153,458	-0,053	-0,003
-256,380	-170,014	-0,149	-0,004
-255,365	-74,779	0,101	0,026
-254,351	-15,790	0,148	-0,068
-253,336	38,907	0,081	0,052
-252,322	-200,000	-0,008	-0,038
-251,307	203,807	0,104	-0,116
-250,292	-200,000	-0,006	0,020
-249,278	-200,000	-0,009	0,047
-248,263	-73,032	0,129	0,034
-247,249	266,912	0,074	-0,093
-246,234	690,248	-0,044	-0,084
-245,219	-200,000	-0,012	-0,093
-244,205	50,835	-0,063	-0,043
-243,190	-173,656	-0,118	0,002
-242,176	82,972	0,081	0,063
-241,161	-193,669	0,109	-0,001
-240,146	-69,830	0,139	-0,038
-239,132	-200,000	0,030	-0,158
-238,117	655,046	0,040	0,075
-237,103	-200,000	-0,027	0,102
-236,088	317,530	0,060	-0,082
-235,073	-55,534	0,106	0,034
-234,059	-200,000	-0,030	0,132
-233,044	-93,674	0,026	-0,005
-232,030	309,288	0,041	-0,056
-231,015	-125,923	-0,090	-0,010
-230,000	-200,000	0,021	-0,084
-228,986	-200,000	-0,017	-0,105
-227,971	210,182	0,071	0,080
-226,957	180,044	0,046	0,048
-225,942	539,144	0,069	0,119
-224,927	-200,000	-0,010	0,094
-223,913	-123,283	0,117	-0,013
-222,898	722,423	0,054	0,103
-221,884	-200,000	0,030	0,107
-220,869	-32,687	0,111	-0,044
-219,855	-11,574	0,059	0,028
-218,840	-200,000	-0,011	0,062
-217,825	342,222	0,014	-0,020
-216,811	-28,640	-0,068	-0,028
-215,796	800,000	0,016	-0,032
-214,782	2,315	0,057	-0,029
-213,767	-90,197	0,054	0,011
-212,752	-87,918	0,023	0,005
-211,738	154,310	-0,031	0,031
-210,723	-85,913	0,129	0,029
-209,709	180,846	-0,061	-0,064
-208,694	-65,268	-0,070	0,020
-207,679	114,614	-0,088	-0,077
-206,665	150,963	-0,081	0,080
-205,650	700,813	0,060	-0,115
-204,636	-46,682	-0,072	-0,025
-203,621	681,964	0,073	0,138
-202,606	-7,582	-0,126	-0,061
-201,592	-200,000	0,002	0,059
-200,577	-77,428	0,127	-0,031
-199,563	-200,000	0,005	0,054
-198,548	-46,021	0,088	-0,031
-197,533	-123,196	0,036	0,004
-196,519	-47,719	-0,026	0,009
-195,504	-200,000	0,034	0,192
-194,490	64,081	0,101	0,073
-193,475	-200,000	0,030	-0,135
-192,460	-200,000	-0,016	0,121
-191,446	420,605	0,028	0,043
-190,431	-200,000	-0,012	0,041
-189,417	-37,312	-0,089	-0,034
-188,402	800,000	0,020	-0,051
-187,387	70,225	-0,105	0,078
-186,373	800,000	-0,050	-0,145
-185,358	-162,709	-0,098	0,003
-184,344	411,361	0,070	0,108
-183,329	83,313	-0,012	0,010
-182,315	-200,000	-0,001	0,092
-181,300	-200,000	0,025	-0,107
-180,285	196,051	-0,164	-0,180
-179,271	108,479	-0,075	-0,064
-178,256	72,570	0,074	0,056
-177,242	-200,000	-0,012	-0,062
-176,227	-200,000	0,045	0,154
-175,212	193,806	0,039	0,042
-174,198	-134,348	-0,093	0,008
-173,183	230,905	-0,121	0,143
-172,169	247,585	-0,044	0,053
-171,154	-200,000	0,038	-0,134
-170,139	800,000	0,037	0,096
-169,125	-54,758	-0,107	0,034
-168,110	-18,448	-0,091	-0,041
-167,096	315,140	-0,037	-0,051
-166,081	-200,000	-0,005	-0,075
-165,066	800,000	-0,017	-0,042
-164,052	-143,640	-0,202	-0,014
-163,037	309,963	-0,044	-0,059
-162,023	-86,646	0,053	-0,012
-161,008	-200,000	-0,039	0,123
-159,993	239,473	-0,066	0,079
-158,979	800,000	0,010	-0,023
-157,964	-200,000	0,023	0,078
-156,950	800,000	-0,059	0,157
-155,935	-200,000	0,003	0,022
-154,920	39,928	0,091	0,059
-153,906	191,537	-0,075	0,081
-152,891	-92,227	0,165	0,033
-151,877	-137,971	-0,033	-0,003
-150,862	494,659	-0,085	-0,141
-149,847	82,026	-0,065	0,051
-148,833	531,046	-0,034	0,058
-147,818	-200,000	0,008	0,144
-146,804	88,006	0,059	0,047
-145,789	-82,919	0,023	-0,005
-144,775	800,000	-0,048	0,097
-143,760	-82,122	-0,124	0,029
-142,745	369,641	-0,081	0,118
-141,731	-200,000	0,009	0,148
-140,716	12,666	-0,047	0,026
-139,702	-96,584	-0,044	0,008
-138,687	424,722	-0,010	-0,016
-137,672	-55,875	-0,054	0,017
-136,658	-47,141	-0,064	-0,022
-135,643	-16,714	-0,026	-0,012
-134,629	-99,952	0,104	-0,018
-133,614	-200,000	0,010	0,089
-132,599	77,467	0,015	0,011
-131,585	800,000	-0,003	0,008
-130,570	-200,000	0,007	0,046
-129,556	-200,000	-0,016	0,124
-128,541	415,364	-0,024	0,037
-127,526	295,701	0,072	-0,095
-126,512	28,955	-0,152	0,092
-125,497	-125,297	-0,091	-0,010
-124,483	-200,000	0,017	0,201
-123,468	-42,777	-0,038	-0,014
-122,453	50,764	-0,142	-0,096
-121,439	800,000	-0,050	-0,130
-120,424	665,659	0,082	-0,153
-119,410	-200,000	-0,001	0,033
-118,395	-200,000	0,006	-0,177
-117,380	289,509	0,033	-0,043
-116,366	48,410	0,048	0,033
-115,351	207,181	0,081	0,090
-114,337	800,000	-0,034	-0,094
-113,322	800,000	-0,046	-0,094
-112,307	-155,637	0,065	0,003
-111,293	-6,704	0,116	-0,056
-110,278	-147,805	0,118	-0,007
-109,264	-200,000	-0,005	-0,045
-108,249	-85,210	-0,073	0,016
-107,234	478,795	0,071	0,115
-106,220	-148,044	-0,083	0,005
-105,205	114,349	0,060	-0,053
-104,191	148,438	0,020	0,019
-103,176	-200,000	-0,032	0,101
-102,162	-79,989	-0,045	-0,011
-101,147	-94,661	-0,157	0,030
-100,132	-200,000	-0,018	-0,061
-99,118	-200,000	0,011	-0,044
-98,103	-200,000	0,054	0,176
-97,089	800,000	0,046	0,118
-96,074	86,815	-0,011	-0,008
-95,059	800,000	-0,049	0,109
-94,045	666,537	-0,041	0,076
-93,030	-200,000	0,044	0,231
-92,016	516,784	0,005	-0,008
-91,001	114,037	-0,105	-0,091
-89,986	-79,177	0,226	-0,055
-88,972	-136,811	-0,036	0,003
-87,957	-13,461	-0,041	0,019
-86,943	-12,850	0,042	-0,020
-85,928	-2,672	-0,182	0,091
-84,913	208,210	0,058	-0,065
-83,899	-200,000	-0,003	-0,079
-82,884	-53,499	0,063	0,020
-81,870	-200,000	-0,017	-0,077
-80,855	18,614	-0,102	0,058
-79,840	290,664	-0,071	0,093
-78,826	-129,281	-0,078	-0,008
-77,811	-200,000	0,028	-0,119
-76,797	-200,000	0,033	-0,190
-75,782	-38,055	0,080	0,030
-74,767	-22,645	0,074	0,032
-73,753	121,847	0,039	0,035
-72,738	52,641	-0,066	0,045
-71,724	85,532	0,095	-0,075
-70,709	800,000	-0,049	-0,113
-69,694	-200,000	0,009	-0,118
-68,680	-200,000	0,020	0,078
-67,665	-200,000	-0,003	0,046
-66,651	22,904	0,054	0,032
-65,636	696,270	0,062	0,116
-64,622	644,277	0,023	-0,042
-63,607	-159,546	-0,204	-0,008
-62,592	-200,000	-0,004	-0,088
-61,578	-26,109	-0,127	0,053
-60,563	50,538	0,084	0,057
-59,549	200,970	-0,061	0,068
-58,534	19,781	-2,027	-1,166
-57,519	-200,000	-0,177	-0,787
-56,505	-200,000	-1,391	-5,127
-55,490	35,449	0,909	0,570
-54,476	800,000	5,246	12,158
-53,461	-200,000	18,114	290,634
-52,446	800,000	729,150	2215,743
-51,432	524,356	1641,884	2776,493
-50,417	107,758	1631,162	1390,981
-49,403	72,411	1283,176	956,915
-48,388	30,802	1024,656	626,998
-47,373	19,806	986,769	567,692
-46,359	17,968	974,386	554,547
-45,344	14,854	970,463	542,147
-44,330	15,109	968,885	542,077
-43,315	14,559	966,865	539,135
-42,300	14,531	965,974	538,528
-41,286	14,590	964,898	538,098
-40,271	14,546	964,002	537,434
-39,257	14,542	963,155	536,927
-38,242	14,528	962,380	536,430
-37,227	14,625	961,419	536,184
-36,213	14,551	960,484	535,402
-35,198	14,522	959,625	534,809
-34,184	14,553	958,813	534,436
-33,169	14,485	958,004	533,745
-32,154	14,508	957,219	533,362
-31,140	14,582	956,061	532,934
-30,125	14,532	955,472	532,421
-29,111	14,523	954,666	531,923
-28,096	14,581	953,814	531,614
-27,082	14,492	953,437	531,098
-26,067	14,579	952,486	530,823
-25,052	14,576	951,697	530,353
-24,038	14,545	951,098	529,899
-23,023	14,507	950,500	529,426
-22,009	14,523	949,937	529,140
-20,994	14,551	949,410	528,917
-19,979	14,560	948,657	528,505
-18,965	14,591	947,866	528,140
-17,950	14,467	947,454	527,496
-16,936	14,576	946,683	527,391
-15,921	14,512	946,052	526,815
-14,906	14,413	945,480	526,162
-13,892	14,415	944,890	525,820
-12,877	14,432	944,252	525,498
-11,863	14,366	943,655	524,937
-10,848	14,445	942,984	524,792
-9,833	14,490	942,537	524,664
-8,819	14,493	941,826	524,259
-7,804	14,393	941,250	523,600
-6,790	14,396	940,852	523,367
-5,775	14,516	940,050	523,279
-4,760	14,443	939,435	522,687
-3,746	14,441	938,766	522,286
-2,731	14,355	938,075	521,610
-1,717	14,246	937,464	520,906
-0,702	14,296	936,710	520,625
0,313	14,085	935,996	520,350
1,327	17,433	934,065	529,731
2,342	26,247	787,197	469,556
3,356	22,615	442,891	258,804
4,371	-6,677	295,166	143,260
5,386	-10,348	276,864	130,894
6,400	-11,751	271,462	127,028
7,415	-11,971	268,988	125,657
8,429	-12,076	267,672	124,935
9,444	-12,187	266,717	124,377
10,459	-11,989	265,960	124,192
11,473	-12,220	265,468	123,742
12,488	-12,116	264,827	123,527
13,502	-12,500	264,227	122,888
14,517	-12,636	264,013	122,656
15,531	-12,415	263,478	122,595
16,546	-12,519	263,153	122,339
17,561	-12,531	262,685	122,100
18,575	-12,419	262,531	122,118
19,590	-12,245	262,004	122,018
20,604	-12,406	261,755	121,747
21,619	-12,410	261,378	121,557
22,634	-12,639	261,073	121,200
23,648	-12,592	260,726	121,071
24,663	-12,441	260,444	121,063
25,677	-12,527	260,264	120,892
26,692	-12,523	259,965	120,746
27,707	-12,534	259,632	120,571
28,721	-12,491	259,411	120,495
29,736	-12,462	259,144	120,386
30,750	-12,653	259,025	120,152
31,765	-12,504	258,538	120,046
32,780	-12,372	258,421	120,098
33,794	-12,575	258,011	119,718
34,809	-12,633	257,945	119,625
35,823	-12,544	257,652	119,557
36,838	-12,573	257,501	119,450
37,853	-12,606	257,180	119,263
38,867	-12,484	256,891	119,224
39,882	-12,447	256,587	119,106
40,896	-12,742	256,455	118,776
41,911	-12,762	256,462	118,751
42,926	-12,642	256,157	118,704
43,940	-12,653	255,745	118,492
44,955	-12,836	255,593	118,252
45,969	-12,631	255,265	118,268
46,984	-12,731	255,072	118,081
47,999	-13,101	254,886	117,663
49,013	-13,034	254,387	117,480
50,028	-13,206	254,342	117,300
51,042	-13,153	254,124	117,235
52,057	-13,328	253,780	116,914
53,071	-13,212	253,674	116,955
54,086	-13,216	253,455	116,841
55,101	-12,969	253,219	116,935
56,115	-12,813	253,253	117,074
57,130	-12,554	253,083	117,209
58,144	-12,274	252,833	117,323
59,159	-12,287	252,690	117,235
60,174	-12,282	252,593	117,184
61,188	-12,342	252,120	116,903
62,203	-12,366	251,926	116,782
63,217	-12,447	251,713	116,603
64,232	-12,555	251,595	116,446
65,247	-12,454	251,262	116,368
66,261	-12,411	251,044	116,293
67,276	-12,560	250,708	116,000
68,290	-12,591	250,539	115,885
69,305	-12,993	250,358	115,449
70,320	-12,818	250,204	115,516
71,334	-12,712	249,982	115,493
72,349	-12,501	249,974	115,659
73,363	-12,176	249,594	115,748
74,378	-12,506	249,425	115,380
75,393	-12,479	249,206	115,291
76,407	-12,575	249,163	115,180
77,422	-12,584	248,820	115,003
78,436	-12,544	248,595	114,923
79,451	-12,512	248,353	114,828
80,466	-12,685	248,168	114,586
81,480	-12,717	248,058	114,498
82,495	-12,819	247,817	114,290
83,509	-12,553	247,576	114,393
84,524	-12,704	247,461	114,203
85,539	-12,720	247,138	114,030
86,553	-12,819	246,861	113,809
87,568	-12,593	246,763	113,943
88,582	-12,705	246,532	113,733
89,597	-12,749	246,486	113,664
90,611	-12,559	246,237	113,699
91,626	-12,643	246,193	113,598
92,641	-12,531	245,935	113,562
93,655	-12,469	245,673	113,483
94,670	-12,452	245,450	113,384
95,684	-12,658	245,256	113,112
96,699	-12,682	245,059	112,992
97,714	-12,629	244,824	112,917
98,728	-12,722	244,710	112,778
99,743	-12,859	244,484	112,550
100,757	-12,909	244,138	112,339
101,772	-12,846	244,038	112,335
102,787	-12,919	243,964	112,231
103,801	-12,640	243,873	112,409
104,816	-12,628	243,567	112,269
105,830	-12,360	243,469	112,434
106,845	-12,357	243,157	112,283
107,860	-12,382	243,026	112,192
108,874	-12,514	242,716	111,930
109,889	-12,568	242,804	111,916
110,903	-12,570	242,375	111,707
111,918	-12,524	242,366	111,730
112,933	-12,592	242,177	111,577
113,947	-12,412	242,013	111,639
114,962	-12,318	241,699	111,562
115,976	-12,464	241,629	111,400
116,991	-12,578	241,375	111,180
118,006	-12,576	241,151	111,068
119,020	-12,463	240,999	111,080
120,035	-12,362	240,998	111,153
121,049	-12,290	240,887	111,150
122,064	-12,319	240,498	110,937
123,079	-12,321	240,380	110,871
124,093	-12,652	240,160	110,491
125,108	-12,744	239,926	110,299
126,122	-12,841	239,748	110,128
127,137	-13,011	239,541	109,886
128,151	-12,790	239,339	109,962
129,166	-12,785	239,341	109,957
130,181	-12,804	239,017	109,783
131,195	-12,827	238,713	109,615
132,210	-12,923	238,762	109,550
133,224	-12,535	238,615	109,787
134,239	-12,498	238,428	109,720
135,254	-12,212	238,089	109,784
136,268	-12,587	237,874	109,374
137,283	-12,849	237,754	109,099
138,297	-12,875	237,418	108,914
139,312	-12,970	237,278	108,764
140,327	-12,763	237,287	108,924
141,341	-12,487	237,308	109,146
142,356	-12,345	237,118	109,163
143,370	-12,401	236,925	109,019
144,385	-12,145	236,654	109,089
145,400	-12,119	236,398	108,982
146,414	-12,318	236,349	108,791
147,429	-12,438	236,064	108,554
148,443	-12,236	235,952	108,654
149,458	-12,331	235,819	108,507
150,473	-12,328	235,536	108,370
151,487	-12,305	235,383	108,308
152,502	-12,326	235,359	108,270
153,516	-12,152	235,148	108,302
154,531	-12,314	234,944	108,070
155,546	-12,266	234,649	107,963
156,560	-12,378	234,588	107,836
157,575	-12,270	234,401	107,827
158,589	-12,252	234,167	107,723
159,604	-12,362	234,038	107,567
160,619	-12,079	233,982	107,755
161,633	-12,203	233,868	107,595
162,648	-12,244	233,675	107,465
163,662	-12,461	233,480	107,194
164,677	-12,345	233,317	107,201
165,692	-12,284	233,079	107,131
166,706	-11,977	232,844	107,254
167,721	-12,109	232,865	107,151
168,735	-12,035	232,900	107,215
169,750	-12,178	232,617	106,963
170,764	-12,154	232,396	106,871
171,779	-12,246	232,332	106,759
172,794	-12,111	232,068	106,734
173,808	-12,269	231,876	106,513
174,823	-12,793	231,514	105,929
175,837	-13,006	231,509	105,751
176,852	-12,427	231,484	106,182
177,867	-12,156	231,320	106,308
178,881	-12,398	231,168	106,040
179,896	-12,353	230,976	105,978
180,910	-12,155	230,768	106,026
181,925	-12,412	230,781	105,823
182,940	-12,376	230,529	105,726
183,954	-12,167	230,368	105,805
184,969	-12,073	230,238	105,809
185,983	-12,062	230,122	105,755
186,998	-12,016	229,982	105,717
188,013	-12,055	229,667	105,532
189,027	-12,043	229,597	105,500
190,042	-12,144	229,383	105,314
191,056	-12,132	229,300	105,276
192,071	-12,035	229,055	105,229
193,086	-12,050	228,970	105,169
194,100	-11,816	228,685	105,209
195,115	-12,146	228,482	104,852
196,129	-12,041	228,646	104,999
197,144	-7,286	230,086	109,326
198,159	-2,456	231,512	113,741
199,173	1,096	232,447	116,950
200,188	1,736	232,455	117,440
201,202	1,507	232,238	117,143
202,217	1,546	232,124	117,105
203,232	1,704	232,023	117,166
204,246	1,554	231,877	116,966
205,261	1,774	231,802	117,087
206,275	2,016	231,664	117,195
207,290	2,042	231,641	117,192
208,304	2,065	231,391	117,073
209,319	1,921	231,276	116,894
210,334	1,809	230,990	116,653
211,348	1,577	230,878	116,407
212,363	1,449	230,631	116,173
213,377	1,246	230,385	115,883
214,392	1,179	230,228	115,743
215,407	1,684	230,204	116,108
216,421	1,721	229,973	116,009
217,436	1,286	229,789	115,573
218,450	1,090	229,551	115,293
219,465	1,442	229,400	115,476
220,480	1,302	229,302	115,309
221,494	1,096	229,035	115,008
222,509	1,511	229,235	115,415
223,523	1,463	229,037	115,268
224,538	1,317	228,877	115,066
225,553	1,344	228,645	114,959
226,567	1,577	228,422	115,014
227,582	1,825	228,352	115,158
228,596	2,207	228,129	115,325
229,611	1,725	227,901	114,833
230,626	1,025	227,972	114,328
231,640	1,345	227,571	114,359
232,655	1,637	227,628	114,599
233,669	1,753	227,510	114,617
234,684	1,990	227,285	114,673
235,699	1,802	227,285	114,520
236,713	1,360	227,080	114,073
237,728	1,437	226,884	114,022
238,742	1,284	226,401	113,654
239,757	1,233	226,536	113,673
240,772	1,427	226,353	113,718
241,786	1,391	226,281	113,644
242,801	1,555	226,149	113,691
243,815	2,008	226,093	113,993
244,830	2,142	225,727	113,899
245,844	1,283	225,655	113,208
246,859	1,380	225,528	113,207
247,874	1,555	225,402	113,265
248,888	1,799	225,254	113,363
249,903	1,624	225,149	113,169
250,917	1,488	224,978	112,971
251,932	1,190	224,802	112,651
252,947	1,171	224,642	112,546
253,961	1,431	224,368	112,593
254,976	1,333	224,304	112,477
255,990	1,387	224,268	112,489
257,005	1,739	224,095	112,655
258,020	1,843	223,975	112,661
259,034	1,742	223,802	112,490
260,049	1,677	223,801	112,431
261,063	1,771	223,517	112,348
262,078	1,877	223,348	112,331
263,093	1,917	223,349	112,352
264,107	1,758	223,228	112,163
265,122	1,975	222,849	112,123
266,136	1,919	222,965	112,129
267,151	1,967	222,752	112,048
268,166	1,681	222,243	111,572
269,180	1,210	222,155	111,170
270,195	1,564	222,049	111,368
271,209	1,361	222,033	111,200
272,224	1,562	221,751	111,197
273,239	1,458	221,837	111,154
274,253	1,648	221,542	111,136
275,268	0,981	221,316	110,523
276,282	1,160	221,193	110,583
277,297	1,190	221,188	110,592
278,312	1,317	221,098	110,631
279,326	1,492	220,967	110,683
280,341	1,655	220,779	110,699
281,355	1,596	220,639	110,575
282,370	1,702	220,369	110,508
283,384	1,205	220,305	110,103
284,399	1,088	220,045	109,878
285,414	1,310	219,905	109,960
286,428	1,435	219,941	110,059
287,443	1,764	219,808	110,222
288,457	1,643	219,672	110,056
289,472	1,433	219,426	109,771
290,487	1,104	219,118	109,368
291,501	1,041	219,140	109,323
292,516	0,957	218,942	109,154
293,530	1,316	218,822	109,344
294,545	1,356	218,636	109,271
295,560	1,449	218,684	109,353
296,574	1,318	218,540	109,176
297,589	1,250	218,405	109,050
298,603	1,540	218,156	109,125
299,618	1,626	218,060	109,129
300,633	1,597	218,020	109,079
301,647	1,645	217,993	109,090
302,662	1,524	217,761	108,877
303,676	1,807	217,532	108,956
304,691	1,949	217,350	108,957
305,706	1,912	217,259	108,875
306,720	1,887	217,115	108,776
307,735	1,545	216,898	108,412
308,749	1,460	216,719	108,252
309,764	1,756	216,661	108,425
310,779	1,901	216,571	108,475
311,793	1,611	216,502	108,223
312,808	1,645	216,319	108,146
313,822	1,960	216,056	108,229
314,837	1,708	215,833	107,928
315,852	1,371	215,817	107,671
316,866	1,380	215,770	107,644
317,881	1,730	215,525	107,761
318,895	1,847	215,347	107,746
319,910	1,519	215,226	107,442
320,925	1,060	215,102	107,045
321,939	0,876	214,937	106,823
322,954	1,202	214,759	106,956
323,968	1,766	214,794	107,364
324,983	1,649	214,773	107,261
325,997	1,639	214,670	107,193
327,012	1,431	214,551	106,976
328,027	1,685	214,246	106,995
329,041	1,870	214,014	107,000
330,056	1,583	213,926	106,744
331,070	1,137	213,728	106,321
332,085	1,199	213,725	106,353
333,100	1,832	213,527	106,691
334,114	1,791	213,399	106,589
335,129	1,535	213,326	106,363
336,143	1,569	213,137	106,283
337,158	1,382	212,981	106,065
338,173	1,783	212,744	106,218
339,187	1,459	212,586	105,903
340,202	1,322	212,480	105,745
341,216	1,240	212,344	105,610
342,231	1,402	212,283	105,684
343,246	1,298	212,106	105,514
344,260	1,005	212,059	105,276
345,275	1,676	211,925	105,668
346,289	2,432	211,802	106,126
347,304	2,007	211,810	105,823
348,319	1,869	211,501	105,563
349,333	1,749	211,491	105,466
350,348	1,724	211,340	105,364
351,362	2,087	211,159	105,517
352,377	1,749	211,084	105,234
353,392	1,820	210,843	105,154
354,406	1,717	210,819	105,061
355,421	196,925	1316,607	1394,719
356,435	157,456	1451,303	1394,687
