DTS Sentinel unit serial number:	SN410029Multiplexer serial number:	ORYXHardware model number:	OX2-SRSoftware version number:	ORYX F/W v4,00 Oryx Data Collector v3.7.2.0data status	okinstallation	B6 Nyhavnadifferential loss correction	single-endedforward channel	channel 2reverse channel	N/Adate	2023/12/11time	07:00:08forward acquisition time	300,00reverse acquisition time	0,00gamma	499,1914k internal	0,3126k external	0,3126temperature offset calibration	1,0000default loss term (dB/km)	0,3820temperature slope calibration	1,0000multiplexer offset coefficient	1,0000multiplexer slope coefficient	1,0000fibre end	0,00T internal ref (°C)	19,27T ext. ref 1 (°C)	2,26T ext. ref 2 (°C)	2,31length (m)	temperature (°C)	Stokes	anti-Stokes-744,400	72,644	0,030	-0,023
-743,385	-29,814	-0,337	0,142
-742,371	262,798	0,105	0,136
-741,356	-101,286	-0,281	0,051
-740,342	-200,000	-0,009	0,049
-739,327	16,407	-0,214	-0,126
-738,312	800,000	-0,037	-0,098
-737,298	-184,376	-0,286	0,003
-736,283	800,000	0,049	-0,125
-735,269	82,229	-0,189	0,153
-734,254	-144,318	0,140	-0,010
-733,239	-116,772	-0,491	-0,066
-732,225	800,000	0,043	-0,104
-731,210	-21,093	0,097	0,044
-730,196	167,718	-0,134	-0,142
-729,181	800,000	-0,041	-0,092
-728,167	800,000	0,054	-0,125
-727,152	-200,000	-0,012	-0,061
-726,137	-110,085	-0,138	-0,021
-725,123	800,000	-0,028	-0,062
-724,108	-200,000	-0,002	-0,145
-723,094	-110,674	0,057	0,009
-722,079	-127,945	-0,110	0,012
-721,064	196,738	0,100	0,114
-720,050	-36,849	-0,037	0,015
-719,035	147,104	-0,066	0,066
-718,021	524,073	0,037	-0,066
-717,006	-200,000	-0,027	-0,089
-715,991	18,128	-0,052	-0,031
-714,977	-101,965	0,017	-0,003
-713,962	-136,667	-0,091	-0,008
-712,948	28,021	0,116	0,073
-711,933	-123,408	-0,071	0,008
-710,918	-200,000	-0,005	0,070
-709,904	-200,000	0,019	-0,114
-708,889	-200,000	-0,015	-0,051
-707,875	-132,889	0,033	-0,003
-706,860	-91,291	-0,068	0,014
-705,845	297,273	0,049	-0,068
-704,831	247,921	-0,094	-0,119
-703,816	-200,000	0,002	0,185
-702,802	70,480	-0,062	0,048
-701,787	800,000	-0,047	-0,106
-700,772	48,449	-0,046	-0,032
-699,758	-200,000	-0,006	0,038
-698,743	-164,330	-0,111	0,004
-697,729	1,628	0,014	-0,008
-696,714	800,000	-0,023	-0,071
-695,699	258,728	0,024	-0,031
-694,685	366,456	-0,108	-0,163
-693,670	-200,000	-0,015	-0,157
-692,656	-127,812	0,171	0,018
-691,641	112,636	0,091	0,082
-690,627	-154,681	0,168	-0,008
-689,612	-118,999	-0,094	0,012
-688,597	-200,000	-0,006	0,028
-687,583	-200,000	0,012	-0,058
-686,568	-200,000	-0,002	-0,053
-685,554	-45,291	-0,050	-0,018
-684,539	800,000	0,041	0,130
-683,524	67,454	-0,010	0,008
-682,510	-53,165	-0,061	0,021
-681,495	69,437	-0,182	-0,139
-680,481	800,000	-0,044	-0,113
-679,466	-200,000	-0,029	0,000
-678,451	202,590	0,014	-0,016
-677,437	261,696	-0,066	-0,085
-676,422	746,041	-0,052	-0,105
-675,408	-74,393	-0,084	-0,022
-674,393	-46,131	-0,127	0,046
-673,378	38,134	-0,174	0,115
-672,364	-55,322	-0,115	-0,038
-671,349	5,550	-0,058	0,031
-670,335	800,000	-0,035	-0,090
-669,320	88,334	-0,135	0,112
-668,305	48,014	0,108	0,075
-667,291	373,279	0,062	-0,094
-666,276	140,714	-0,052	0,051
-665,262	553,761	0,005	0,009
-664,247	800,000	-0,031	0,063
-663,232	-67,153	0,043	-0,013
-662,218	-60,917	-0,027	-0,008
-661,203	800,000	0,015	-0,041
-660,189	97,637	0,031	0,026
-659,174	-7,154	0,030	-0,015
-658,159	800,000	-0,069	-0,188
-657,145	-66,839	-0,133	0,039
-656,130	40,061	-0,064	0,042
-655,116	-70,092	-0,115	-0,032
-654,101	192,405	-0,032	0,036
-653,086	-89,304	-0,073	0,016
-652,072	-4,027	0,120	0,061
-651,057	66,987	0,109	-0,082
-650,043	568,702	0,005	-0,009
-649,028	-200,000	-0,015	0,099
-648,014	138,647	-0,021	-0,020
-646,999	28,972	-0,060	-0,037
-645,984	800,000	-0,017	-0,051
-644,970	-65,802	0,013	-0,004
-643,955	-50,769	-0,071	-0,025
-642,941	81,597	-0,061	-0,049
-641,926	346,611	-0,046	-0,068
-640,911	-37,092	-0,266	0,105
-639,897	800,000	-0,039	0,089
-638,882	-116,124	-0,100	-0,014
-637,868	-179,132	-0,124	-0,002
-636,853	290,909	-0,043	-0,058
-635,838	-200,000	-0,055	-0,196
-634,824	-200,000	-0,001	0,037
-633,809	420,017	0,030	-0,048
-632,795	800,000	-0,033	0,078
-631,780	-19,052	0,175	-0,080
-630,765	-150,848	0,026	0,001
-629,751	-25,022	-0,182	0,080
-628,736	-74,107	0,089	0,024
-627,722	105,554	0,028	-0,024
-626,707	-40,818	0,138	0,053
-625,692	-90,997	-0,031	-0,007
-624,678	-95,765	-0,084	0,016
-623,663	255,613	0,079	0,101
-622,649	62,527	-0,143	-0,105
-621,634	7,149	-0,105	-0,058
-620,619	-200,000	-0,028	-0,122
-619,605	-10,399	-0,048	-0,023
-618,590	731,789	0,032	0,063
-617,576	-200,000	-0,017	0,166
-616,561	-200,000	0,011	0,047
-615,546	-32,202	-0,088	0,036
-614,532	-81,928	-0,108	-0,026
-613,517	-200,000	-0,148	0,000
-612,503	127,100	0,131	0,123
-611,488	-70,010	0,136	0,038
-610,474	800,000	-0,038	0,105
-609,459	153,833	-0,073	0,075
-608,444	16,204	-0,072	-0,042
-607,430	-200,000	0,001	-0,075
-606,415	800,000	-0,038	0,086
-605,401	-200,000	0,044	0,000
-604,386	64,881	0,089	-0,066
-603,371	160,512	-0,069	0,071
-602,357	-200,000	-0,013	0,122
-601,342	-200,000	-0,015	-0,147
-600,328	291,330	0,057	-0,078
-599,313	613,739	-0,039	-0,072
-598,298	115,293	-0,059	0,054
-597,284	338,202	0,059	-0,085
-596,269	-37,561	0,026	-0,010
-595,255	9,683	-0,104	-0,058
-594,240	23,574	0,026	-0,016
-593,225	0,747	-0,079	-0,042
-592,211	-200,000	0,042	-0,151
-591,196	-82,707	-0,092	0,022
-590,182	-77,267	0,110	0,028
-589,167	-200,000	-0,004	0,050
-588,152	-200,000	0,001	0,112
-587,138	70,599	-0,147	-0,113
-586,123	-200,000	0,007	-0,073
-585,109	-48,776	-0,099	0,035
-584,094	39,849	-0,016	0,011
-583,079	103,622	-0,067	0,059
-582,065	-200,000	-0,021	-0,078
-581,050	800,000	-0,027	0,082
-580,036	314,849	0,075	0,104
-579,021	-88,828	-0,119	0,026
-578,006	137,196	-0,032	-0,031
-576,992	-133,972	0,120	-0,011
-575,977	-73,803	0,039	0,011
-574,963	688,117	-0,018	0,035
-573,948	-200,000	-0,026	0,128
-572,934	36,450	-0,064	-0,042
-571,919	-40,648	-0,032	0,012
-570,904	-200,000	0,008	0,152
-569,890	80,292	-0,085	0,068
-568,875	2,013	0,092	0,049
-567,861	-200,000	0,010	-0,057
-566,846	21,599	-0,076	-0,045
-565,831	-200,000	0,018	0,076
-564,817	584,199	-0,054	-0,099
-563,802	-200,000	-0,033	-0,225
-562,788	800,000	0,039	0,085
-561,773	-122,341	-0,021	0,003
-560,758	-167,509	0,162	-0,005
-559,744	-187,543	0,107	0,001
-558,729	47,428	-0,161	0,111
-557,715	800,000	0,023	-0,066
-556,700	800,000	-0,043	0,100
-555,685	-17,227	-0,011	0,005
-554,671	-27,978	0,138	-0,059
-553,656	-55,234	0,149	-0,049
-552,642	73,908	0,073	0,057
-551,627	258,590	0,029	-0,038
-550,612	-58,289	-0,019	0,006
-549,598	46,292	-0,101	-0,069
-548,583	-3,048	-0,155	0,080
-547,569	-98,073	0,076	0,014
-546,554	-58,412	0,098	0,031
-545,539	-200,000	-0,002	0,042
-544,525	-200,000	-0,004	-0,048
-543,510	-184,323	-0,105	0,001
-542,496	-200,000	0,026	0,094
-541,481	-3,326	-0,071	0,036
-540,466	-136,038	0,121	-0,010
-539,452	279,427	-0,039	0,052
-538,437	-72,995	0,143	-0,039
-537,423	-186,484	0,110	0,001
-536,408	-26,057	0,073	0,032
-535,393	-200,000	-0,006	0,060
-534,379	28,615	-0,028	0,018
-533,364	-200,000	0,022	0,203
-532,350	238,589	-0,053	-0,065
-531,335	-4,919	0,113	0,057
-530,321	-143,820	0,084	0,006
-529,306	1,691	-0,141	-0,075
-528,291	-139,644	0,028	0,002
-527,277	580,561	0,018	0,033
-526,262	800,000	0,023	-0,072
-525,248	58,870	0,081	0,059
-524,233	-200,000	-0,004	0,089
-523,218	-136,492	-0,079	-0,007
-522,204	484,414	0,061	0,103
-521,189	269,637	-0,107	-0,139
-520,175	-200,000	0,021	-0,148
-519,160	-200,000	0,014	-0,052
-518,145	-200,000	-0,029	-0,108
-517,131	-53,316	0,130	0,044
-516,116	31,184	0,182	-0,115
-515,102	800,000	-0,020	-0,044
-514,087	-200,000	-0,007	-0,109
-513,072	182,501	0,044	-0,048
-512,058	-200,000	0,001	0,003
-511,043	98,166	-0,082	-0,070
-510,029	297,001	0,069	0,094
-509,014	-70,460	0,081	0,023
-507,999	800,000	0,025	-0,051
-506,985	-181,245	0,057	-0,001
-505,970	-74,765	-0,151	0,040
-504,956	800,000	0,029	-0,062
-503,941	13,598	-0,092	0,053
-502,926	31,496	0,091	0,058
-501,912	524,609	0,087	0,151
-500,897	800,000	-0,041	0,098
-499,883	800,000	-0,021	-0,058
-498,868	147,617	0,069	-0,069
-497,853	-200,000	-0,004	0,121
-496,839	45,815	-0,077	0,052
-495,824	800,000	-0,036	0,109
-494,810	234,904	-0,087	-0,107
-493,795	-200,000	-0,007	0,059
-492,781	21,591	-0,124	0,074
-491,766	-200,000	-0,001	-0,139
-490,751	-0,667	-0,137	-0,071
-489,737	800,000	0,022	-0,050
-488,722	-200,000	0,004	0,065
-487,708	-87,362	0,120	0,027
-486,693	367,376	-0,090	-0,134
-485,678	767,152	0,039	-0,079
-484,664	800,000	0,045	-0,095
-483,649	-200,000	-0,024	-0,150
-482,635	-18,492	-0,047	0,021
-481,620	-16,597	-0,092	0,043
-480,605	205,927	0,070	0,081
-479,591	501,042	-0,093	0,159
-478,576	-124,507	-0,047	0,005
-477,562	7,006	-0,059	0,032
-476,547	218,678	0,031	-0,037
-475,532	136,156	0,075	-0,072
-474,518	-176,546	-0,055	-0,001
-473,503	127,745	0,065	0,061
-472,489	-200,000	-0,015	-0,135
-471,474	-81,798	0,036	0,009
-470,459	272,792	-0,030	0,039
-469,445	-200,000	0,001	0,177
-468,430	27,008	-0,060	0,037
-467,416	-59,271	0,129	-0,041
-466,401	6,171	-0,071	0,039
-465,386	-53,612	0,067	0,023
-464,372	23,781	-0,131	-0,079
-463,357	314,694	0,058	0,080
-462,343	-52,933	0,158	-0,053
-461,328	-38,030	0,021	-0,008
-460,313	-200,000	-0,031	0,115
-459,299	800,000	0,006	0,014
-458,284	121,889	0,039	0,036
-457,270	-62,760	-0,056	-0,017
-456,255	-200,000	0,033	-0,142
-455,241	94,856	0,062	-0,052
-454,226	142,879	0,039	-0,039
-453,211	651,697	-0,057	-0,108
-452,197	43,146	0,098	0,066
-451,182	57,050	-0,157	0,113
-450,168	-60,291	0,130	0,040
-449,153	-33,658	0,089	0,036
-448,138	-7,223	-0,041	-0,021
-447,124	13,399	0,056	-0,032
-446,109	297,858	0,044	-0,059
-445,095	732,838	-0,037	-0,074
-444,080	62,811	0,073	-0,054
-443,065	800,000	0,049	-0,107
-442,051	55,994	-0,152	0,108
-441,036	-200,000	-0,028	-0,137
-440,022	107,888	0,036	0,032
-439,007	-188,064	0,065	-0,001
-437,992	322,265	-0,032	-0,046
-436,978	207,855	0,066	-0,077
-435,963	223,229	-0,040	-0,048
-434,949	-200,000	-0,022	0,119
-433,934	768,619	-0,032	-0,064
-432,919	55,985	-0,102	0,073
-431,905	-63,841	-0,077	-0,023
-430,890	252,818	-0,053	0,066
-429,876	36,509	0,090	0,058
-428,861	-200,000	0,010	-0,075
-427,846	45,558	-0,082	0,056
-426,832	-31,423	-0,042	-0,017
-425,817	-29,199	0,062	0,026
-424,803	790,729	0,022	-0,044
-423,788	1,373	-0,076	-0,040
-422,773	-200,000	0,012	0,056
-421,759	-80,518	-0,100	-0,024
-420,744	260,537	0,047	-0,060
-419,730	-200,000	-0,016	0,060
-418,715	-184,995	-0,042	0,000
-417,701	209,337	-0,078	-0,090
-416,686	198,670	0,033	-0,037
-415,671	800,000	-0,053	0,167
-414,657	-200,000	0,006	0,049
-413,642	268,451	-0,012	-0,016
-412,628	398,149	-0,052	-0,081
-411,613	128,413	0,045	-0,042
-410,598	-161,701	-0,104	0,004
-409,584	51,774	-0,082	0,057
-408,569	446,044	-0,066	0,107
-407,555	437,254	-0,014	-0,022
-406,540	286,271	0,020	0,027
-405,525	325,156	-0,085	-0,120
-404,511	-60,435	-0,024	0,007
-403,496	-200,000	0,009	-0,044
-402,482	95,671	-0,063	-0,053
-401,467	42,626	-0,113	-0,076
-400,452	-54,581	-0,062	-0,020
-399,438	366,038	0,058	0,086
-398,423	-200,000	0,007	-0,076
-397,409	-153,337	-0,040	-0,002
-396,394	-200,000	-0,001	0,056
-395,379	-105,373	-0,017	0,003
-394,365	-105,803	0,060	0,010
-393,350	-200,000	0,017	-0,065
-392,336	-200,000	0,016	0,126
-391,321	593,958	0,023	-0,042
-390,306	70,511	-0,056	0,043
-389,292	-200,000	0,015	0,076
-388,277	-37,851	0,062	-0,024
-387,263	-75,240	0,157	0,041
-386,248	13,969	-0,049	0,028
-385,233	-200,000	0,012	-0,039
-384,219	-50,854	-0,039	0,014
-383,204	61,412	-0,150	0,109
-382,190	-6,909	-0,104	-0,052
-381,175	-200,000	-0,026	-0,090
-380,160	-200,000	-0,010	-0,034
-379,146	800,000	0,031	-0,100
-378,131	691,255	-0,039	0,075
-377,117	128,927	0,028	0,026
-376,102	-200,000	-0,003	0,049
-375,088	-56,578	0,056	-0,018
-374,073	-60,335	-0,077	-0,024
-373,058	-200,000	0,017	0,151
-372,044	323,417	-0,011	-0,016
-371,029	-116,197	0,145	-0,019
-370,015	390,794	-0,033	-0,050
-369,000	182,517	-0,068	0,073
-367,985	800,000	0,066	-0,185
-366,971	258,953	0,055	-0,070
-365,956	65,877	0,072	0,053
-364,942	122,222	0,101	0,092
-363,927	-151,094	-0,112	0,006
-362,912	800,000	0,112	-0,261
-361,898	-90,932	0,045	-0,009
-360,883	-169,155	-0,087	0,002
-359,869	800,000	-0,042	0,097
-358,854	126,132	0,011	-0,010
-357,839	236,411	0,041	0,050
-356,825	11,316	0,017	-0,010
-355,810	-117,938	0,060	0,008
-354,796	98,686	0,070	-0,059
-353,781	-9,421	0,026	0,012
-352,766	-135,412	-0,079	0,007
-351,752	-200,000	0,004	-0,037
-350,737	420,947	-0,077	0,121
-349,723	-79,396	0,172	0,042
-348,708	-57,028	0,026	0,008
-347,693	-14,876	-0,106	-0,050
-346,679	162,989	-0,096	-0,099
-345,664	-142,316	-0,108	-0,008
-344,650	-169,727	0,065	-0,002
-343,635	-41,440	0,107	-0,040
-342,620	-98,818	-0,086	-0,016
-341,606	35,869	0,132	0,085
-340,591	800,000	-0,018	-0,039
-339,577	-200,000	-0,001	-0,093
-338,562	-60,553	0,086	-0,027
-337,548	-42,313	-0,090	-0,033
-336,533	-134,145	0,037	-0,003
-335,518	51,858	0,035	0,024
-334,504	-126,106	0,031	0,003
-333,489	800,000	-0,032	-0,065
-332,475	-200,000	-0,004	-0,197
-331,460	115,769	0,065	-0,058
-330,445	-200,000	0,019	0,079
-329,431	-50,473	0,136	0,047
-328,416	191,700	0,051	-0,056
-327,402	75,197	-0,065	-0,050
-326,387	110,359	-0,066	0,058
-325,372	-200,000	-0,002	-0,081
-324,358	-55,218	-0,082	0,027
-323,343	800,000	-0,020	0,053
-322,329	318,611	-0,052	0,073
-321,314	106,144	0,069	-0,060
-320,299	14,063	-0,021	0,012
-319,285	626,748	-0,064	0,119
-318,270	469,089	-0,067	0,111
-317,256	-88,491	-0,143	-0,031
-316,241	194,573	0,042	0,046
-315,226	-112,290	0,055	-0,008
-314,212	-200,000	0,001	-0,024
-313,197	-200,000	0,005	0,097
-312,183	-90,951	-0,031	-0,006
-311,168	-32,629	-0,083	0,034
-310,153	-200,000	0,051	-0,180
-309,139	-200,000	-0,047	-0,159
-308,124	115,293	0,096	0,085
-307,110	469,039	0,058	0,095
-306,095	126,849	0,115	0,107
-305,080	-200,000	0,000	0,020
-304,066	800,000	0,046	0,114
-303,051	87,381	-0,099	-0,080
-302,037	-200,000	-0,028	-0,139
-301,022	-45,546	-0,095	0,034
-300,008	-54,201	-0,086	0,028
-298,993	72,592	0,131	0,100
-297,978	-13,015	0,044	-0,021
-296,964	45,923	0,075	-0,051
-295,949	-24,820	0,030	0,013
-294,935	228,747	-0,101	-0,121
-293,920	-25,294	0,031	0,014
-292,905	89,232	0,063	-0,051
-291,891	260,301	0,065	0,082
-290,876	-200,000	0,004	0,124
-289,862	218,116	-0,071	-0,083
-288,847	-200,000	-0,005	-0,046
-287,832	103,806	-0,089	0,077
-286,818	800,000	0,029	-0,083
-285,803	562,347	-0,078	0,139
-284,789	-16,881	-0,058	-0,027
-283,774	713,396	0,059	0,114
-282,759	-200,000	-0,010	0,055
-281,745	800,000	-0,030	0,077
-280,730	-200,000	0,017	-0,081
-279,716	-11,024	0,139	0,067
-278,701	105,182	0,153	0,132
-277,686	-200,000	-0,001	0,064
-276,672	144,142	0,123	0,120
-275,657	696,436	0,081	0,155
-274,643	-23,649	-0,030	-0,013
-273,628	46,248	0,053	0,036
-272,613	-16,092	-0,071	-0,033
-271,599	-200,000	0,001	0,047
-270,584	-90,791	0,045	0,009
-269,570	-50,733	0,124	0,042
-268,555	574,591	0,080	-0,142
-267,540	64,711	-0,042	0,031
-266,526	-102,477	0,079	0,014
-265,511	800,000	-0,041	-0,131
-264,497	-164,613	0,098	-0,003
-263,482	800,000	-0,028	-0,069
-262,467	800,000	0,007	0,019
-261,453	16,821	0,074	-0,042
-260,438	800,000	-0,059	0,123
-259,424	-35,403	0,048	0,019
-258,409	123,201	-0,147	-0,135
-257,395	800,000	0,067	0,149
-256,380	650,788	-0,015	-0,029
-255,365	-200,000	0,021	-0,094
-254,351	800,000	-0,014	0,030
-253,336	-136,424	0,191	-0,016
-252,322	31,144	-0,100	-0,062
-251,307	221,574	0,008	-0,009
-250,292	748,328	0,060	0,118
-249,278	240,567	-0,088	0,108
-248,263	397,323	-0,073	-0,111
-247,249	-94,495	0,084	0,017
-246,234	395,240	-0,017	-0,026
-245,219	-143,055	0,102	0,007
-244,205	-117,045	0,130	0,017
-243,190	800,000	0,036	-0,109
-242,176	262,684	-0,008	0,010
-241,161	800,000	0,153	0,324
-240,146	800,000	0,043	0,100
-239,132	176,095	-0,033	-0,035
-238,117	-101,807	-0,164	0,029
-237,103	-200,000	0,022	-0,144
-236,088	103,611	0,054	-0,046
-235,073	-90,426	-0,052	-0,011
-234,059	242,892	0,127	-0,156
-233,044	-78,554	-0,178	-0,044
-232,030	-200,000	-0,013	0,044
-231,015	279,190	0,052	-0,069
-230,000	-136,752	0,115	-0,010
-228,986	-200,000	0,056	-0,000
-227,971	-200,000	0,014	0,086
-226,957	340,487	0,042	0,060
-225,942	-99,189	0,116	0,021
-224,927	-200,000	-0,017	-0,159
-223,913	800,000	-0,069	-0,176
-222,898	76,963	-0,068	-0,052
-221,884	-136,284	-0,075	-0,006
-220,869	-90,022	0,111	0,023
-219,855	72,072	0,075	-0,057
-218,840	468,209	-0,016	-0,026
-217,825	730,514	0,042	0,082
-216,811	-45,413	-0,078	-0,028
-215,796	-73,021	0,067	-0,018
-214,782	-200,000	0,009	-0,067
-213,767	525,506	0,050	0,087
-212,752	76,469	-0,053	-0,041
-211,738	-200,000	0,003	-0,019
-210,723	122,241	0,082	0,075
-209,709	531,404	-0,072	-0,124
-208,694	551,536	-0,057	-0,101
-207,679	-180,300	-0,135	-0,002
-206,665	16,672	0,091	-0,052
-205,650	-155,463	0,120	0,006
-204,636	-200,000	-0,020	0,083
-203,621	216,725	0,062	0,073
-202,606	269,511	0,017	0,022
-201,592	24,244	-0,046	0,028
-200,577	117,504	0,040	-0,036
-199,563	-200,000	-0,005	-0,064
-198,548	-36,239	0,117	0,046
-197,533	-137,147	0,092	-0,008
-196,519	405,582	-0,044	-0,068
-195,504	-200,000	0,007	0,166
-194,490	-145,391	-0,106	-0,007
-193,475	-200,000	0,001	-0,009
-192,460	14,449	0,123	0,070
-191,446	-161,370	-0,113	-0,004
-190,431	492,808	0,108	0,181
-189,417	-200,000	0,013	0,068
-188,402	800,000	-0,022	-0,051
-187,387	-168,443	-0,033	0,001
-186,373	-64,503	-0,170	0,050
-185,358	19,878	0,069	0,040
-184,344	800,000	-0,030	0,066
-183,329	259,435	0,067	-0,085
-182,315	-67,881	0,125	-0,035
-181,300	-61,512	0,072	0,022
-180,285	-200,000	0,002	-0,080
-179,271	-45,333	-0,161	-0,058
-178,256	-200,000	0,004	0,041
-177,242	-200,000	0,003	-0,065
-176,227	-176,345	-0,044	0,001
-175,212	475,855	0,045	0,074
-174,198	276,155	-0,081	-0,105
-173,183	-110,409	0,085	0,013
-172,169	80,663	-0,100	-0,079
-171,154	360,110	0,042	-0,062
-170,139	40,950	0,215	-0,141
-169,125	264,336	-0,016	0,020
-168,110	41,933	0,058	0,038
-167,096	-200,000	0,021	0,083
-166,081	-53,463	-0,139	-0,046
-165,066	124,708	0,092	-0,085
-164,052	-11,029	-0,134	-0,064
-163,037	-200,000	0,026	0,090
-162,023	-200,000	0,021	0,086
-161,008	-17,535	0,062	-0,028
-159,993	76,122	0,094	-0,072
-158,979	-153,476	0,032	-0,002
-157,964	2,554	-0,099	-0,052
-156,950	602,043	0,035	-0,064
-155,935	-26,350	-0,048	0,021
-154,920	45,998	-0,089	0,060
-153,906	-200,000	-0,013	-0,047
-152,891	800,000	-0,025	0,062
-151,877	67,305	-0,132	0,098
-150,862	139,016	-0,060	0,058
-149,847	-58,913	0,128	0,040
-148,833	-200,000	-0,026	-0,094
-147,818	-200,000	-0,007	-0,057
-146,804	-67,753	-0,133	0,038
-145,789	78,330	-0,153	0,119
-144,775	297,861	-0,103	0,139
-143,760	77,480	-0,067	0,052
-142,745	246,196	-0,072	-0,089
-141,731	177,026	0,104	0,110
-140,716	-82,902	0,054	0,012
-139,702	-77,501	0,068	-0,017
-138,687	-12,646	0,043	0,020
-137,672	-200,000	0,010	-0,091
-136,658	-99,838	-0,202	0,036
-135,643	-40,675	0,148	0,055
-134,629	-200,000	0,028	0,122
-133,614	-99,754	0,112	0,020
-132,599	-156,325	0,108	-0,005
-131,585	800,000	-0,023	0,057
-130,570	115,718	-0,094	-0,083
-129,556	800,000	-0,019	0,047
-128,541	800,000	-0,036	0,094
-127,526	489,306	-0,043	-0,071
-126,512	-200,000	0,026	0,085
-125,497	-135,203	0,033	-0,003
-124,483	232,060	0,023	0,028
-123,468	-111,218	-0,088	0,013
-122,453	-56,902	0,017	-0,006
-121,439	-48,975	0,032	0,011
-120,424	502,703	-0,055	0,093
-119,410	115,412	0,071	0,063
-118,395	-200,000	-0,000	0,066
-117,380	215,584	0,154	0,178
-116,366	64,931	-0,082	0,060
-115,351	-200,000	-0,021	0,139
-114,337	568,848	0,027	-0,047
-113,322	-200,000	0,007	0,055
-112,307	177,750	0,055	0,058
-111,293	27,633	0,104	0,064
-110,278	-92,414	0,013	0,003
-109,264	187,231	0,024	0,026
-108,249	-200,000	-0,004	0,015
-107,234	-61,960	-0,069	-0,021
-106,220	743,430	-0,027	0,054
-105,205	19,355	0,101	-0,059
-104,191	-52,060	-0,092	-0,031
-103,176	352,559	0,099	-0,143
-102,162	390,466	-0,037	-0,056
-101,147	-129,653	0,109	-0,011
-100,132	-82,159	-0,110	-0,026
-99,118	159,551	-0,116	-0,118
-98,103	252,254	0,071	0,088
-97,089	800,000	0,056	-0,143
-96,074	135,265	0,039	-0,037
-95,059	800,000	-0,033	0,106
-94,045	-134,517	-0,099	-0,009
-93,030	-200,000	-0,015	-0,149
-92,016	284,808	0,079	-0,104
-91,001	345,622	-0,077	-0,110
-89,986	765,724	0,029	0,058
-88,972	-130,290	-0,036	-0,004
-87,957	-9,743	0,106	0,051
-86,943	-95,655	0,160	-0,031
-85,928	157,898	-0,084	-0,084
-84,913	-35,924	0,062	0,024
-83,899	15,687	0,009	0,005
-82,884	-115,544	-0,224	-0,030
-81,870	184,065	-0,046	0,049
-80,855	800,000	-0,057	0,166
-79,840	-36,461	-0,095	-0,037
-78,826	800,000	0,025	-0,065
-77,811	800,000	-0,018	-0,046
-76,797	-200,000	0,016	-0,120
-75,782	312,087	-0,012	-0,017
-74,767	135,630	0,036	0,034
-73,753	782,226	-0,039	0,078
-72,738	15,360	-0,146	0,083
-71,724	143,400	-0,122	0,118
-70,709	209,698	-0,047	-0,054
-69,694	616,783	-0,026	0,047
-68,680	-90,019	0,201	-0,042
-67,665	-75,461	0,212	0,054
-66,651	-15,171	-0,095	0,044
-65,636	-200,000	-0,014	0,111
-64,622	217,627	0,034	0,039
-63,607	-200,000	-0,040	0,128
-62,592	800,000	-0,004	0,010
-61,578	-200,000	-0,015	0,054
-60,563	-18,524	0,093	0,042
-59,549	-200,000	0,027	0,195
-58,534	-37,871	-1,550	-0,595
-57,519	800,000	-0,628	-1,272
-56,505	-200,000	-0,983	-4,604
-55,490	-130,873	0,629	0,060
-54,476	800,000	5,149	12,122
-53,461	-200,000	15,327	275,751
-52,446	-200,000	696,340	2266,006
-51,432	584,978	1615,504	2890,119
-50,417	122,057	1624,499	1470,229
-49,403	82,881	1282,719	1010,226
-48,388	37,402	1025,142	657,474
-47,373	22,092	986,297	581,951
-46,359	21,070	975,078	571,940
-45,344	19,551	970,934	564,494
-44,330	19,534	969,783	563,746
-43,315	19,348	968,089	562,127
-42,300	19,354	966,935	561,454
-41,286	19,333	965,967	560,802
-40,271	19,319	965,001	560,174
-39,257	19,315	964,162	559,652
-38,242	19,303	963,441	559,171
-37,227	19,273	962,851	558,708
-36,213	19,331	961,635	558,169
-35,198	19,275	960,601	557,364
-34,184	19,326	960,059	557,194
-33,169	19,310	959,091	556,558
-32,154	19,297	958,243	556,002
-31,140	19,387	957,266	555,704
-30,125	19,293	956,763	555,087
-29,111	19,423	955,628	554,825
-28,096	19,318	955,341	554,298
-27,082	19,345	954,607	553,938
-26,067	19,301	953,762	553,285
-25,052	19,371	952,971	553,027
-24,038	19,308	952,327	552,430
-23,023	19,313	951,608	552,008
-22,009	19,375	950,756	551,691
-20,994	19,348	950,161	551,237
-19,979	19,286	949,636	550,709
-18,965	19,289	948,979	550,316
-17,950	19,273	948,427	549,925
-16,936	19,268	947,712	549,472
-15,921	19,265	947,186	549,134
-14,906	19,215	946,443	548,523
-13,892	19,174	945,743	547,964
-12,877	19,181	945,146	547,619
-11,863	19,161	944,543	547,182
-10,848	19,205	943,878	546,916
-9,833	19,275	943,446	546,868
-8,819	19,233	942,860	546,371
-7,804	19,128	942,462	545,786
-6,790	19,145	941,833	545,455
-5,775	19,197	941,150	545,204
-4,760	19,170	940,489	544,713
-3,746	19,180	939,855	544,353
-2,731	19,070	938,998	543,488
-1,717	18,974	938,446	542,841
-0,702	19,046	937,829	542,691
0,313	18,764	937,141	542,218
1,327	21,904	935,398	551,100
2,342	31,126	794,403	492,612
3,356	28,130	449,078	273,944
4,371	-2,655	295,063	149,046
5,386	-6,578	276,391	135,862
6,400	-8,167	270,621	131,527
7,415	-8,472	268,293	130,103
8,429	-8,011	267,171	129,972
9,444	-7,822	266,518	129,817
10,459	-7,667	265,853	129,623
11,473	-7,904	265,171	129,062
12,488	-8,107	264,725	128,649
13,502	-7,932	264,109	128,497
14,517	-7,820	263,774	128,424
15,531	-7,416	263,365	128,581
16,546	-7,249	263,004	128,545
17,561	-7,302	262,739	128,356
18,575	-7,372	262,386	128,109
19,590	-7,330	262,160	128,025
20,604	-7,462	261,899	127,767
21,619	-7,526	261,455	127,481
22,634	-7,557	261,220	127,328
23,648	-7,478	260,906	127,234
24,663	-7,554	260,686	127,047
25,677	-7,154	260,179	127,148
26,692	-7,593	260,134	126,720
27,707	-7,485	259,800	126,643
28,721	-7,500	259,608	126,525
29,736	-7,408	259,220	126,407
30,750	-7,580	258,987	126,129
31,765	-7,383	258,797	126,200
32,780	-7,514	258,792	126,070
33,794	-7,438	258,417	125,944
34,809	-7,471	258,192	125,793
35,823	-7,536	257,971	125,617
36,838	-7,604	257,709	125,418
37,853	-7,680	257,473	125,224
38,867	-7,667	257,278	125,130
39,882	-7,519	256,860	125,046
40,896	-7,479	256,697	124,991
41,911	-7,584	256,547	124,814
42,926	-7,705	256,255	124,554
43,940	-7,449	255,947	124,619
44,955	-7,665	255,878	124,384
45,969	-7,774	255,721	124,200
46,984	-7,965	255,416	123,873
47,999	-7,949	255,163	123,754
49,013	-8,131	254,946	123,478
50,028	-8,256	254,630	123,204
51,042	-8,242	254,354	123,072
52,057	-8,295	254,229	122,954
53,071	-8,309	254,099	122,867
54,086	-8,333	253,809	122,695
55,101	-7,960	253,555	122,888
56,115	-7,942	253,552	122,891
57,130	-7,821	253,393	122,907
58,144	-7,362	253,183	123,194
59,159	-7,374	252,899	123,035
60,174	-7,610	252,895	122,817
61,188	-7,547	252,504	122,671
62,203	-7,657	252,531	122,577
63,217	-7,373	252,150	122,628
64,232	-7,502	251,870	122,369
65,247	-7,717	251,703	122,091
66,261	-7,584	251,442	122,069
67,276	-7,595	251,219	121,940
68,290	-7,995	251,022	121,488
69,305	-8,324	250,878	121,124
70,320	-7,960	250,573	121,279
71,334	-7,688	250,370	121,404
72,349	-7,477	250,230	121,507
73,363	-7,647	250,074	121,274
74,378	-7,550	249,851	121,238
75,393	-7,526	249,694	121,172
76,407	-7,606	249,478	120,988
77,422	-7,553	249,333	120,952
78,436	-7,382	249,067	120,959
79,451	-7,526	248,840	120,715
80,466	-7,532	248,573	120,569
81,480	-7,611	248,309	120,363
82,495	-7,885	248,252	120,092
83,509	-7,752	247,990	120,067
84,524	-7,544	247,986	120,231
85,539	-7,826	247,632	119,809
86,553	-8,042	247,398	119,503
87,568	-7,713	247,152	119,652
88,582	-7,782	247,032	119,525
89,597	-7,979	246,821	119,246
90,611	-7,902	246,806	119,292
91,626	-7,770	246,567	119,278
92,641	-7,592	246,458	119,365
93,655	-7,400	246,042	119,315
94,670	-7,754	246,026	118,998
95,684	-7,719	245,787	118,901
96,699	-7,747	245,631	118,792
97,714	-7,851	245,392	118,578
98,728	-7,977	245,348	118,440
99,743	-7,757	244,929	118,412
100,757	-8,011	244,902	118,176
101,772	-7,918	244,669	118,130
102,787	-7,871	244,454	118,056
103,801	-7,899	244,384	117,988
104,816	-7,657	244,100	118,042
105,830	-7,683	243,850	117,889
106,845	-7,576	243,765	117,927
107,860	-7,902	243,640	117,584
108,874	-7,905	243,347	117,429
109,889	-8,142	243,093	117,099
110,903	-8,015	242,975	117,137
111,918	-8,019	242,772	117,026
112,933	-7,812	242,571	117,090
113,947	-7,789	242,500	117,064
114,962	-7,889	242,259	116,854
115,976	-7,709	242,023	116,879
116,991	-7,778	241,952	116,778
118,006	-7,753	241,842	116,735
119,020	-7,740	241,694	116,664
120,035	-7,606	241,562	116,701
121,049	-7,675	241,410	116,559
122,064	-7,973	241,347	116,273
123,079	-7,690	240,999	116,328
124,093	-7,724	240,797	116,192
125,108	-8,002	240,618	115,867
126,122	-7,999	240,397	115,753
127,137	-8,009	240,096	115,589
128,151	-8,127	239,976	115,424
129,166	-7,887	239,656	115,456
130,181	-7,918	239,596	115,392
131,195	-7,930	239,374	115,265
132,210	-8,027	239,286	115,133
133,224	-7,815	239,181	115,245
134,239	-8,076	239,075	114,971
135,254	-7,758	238,798	115,087
136,268	-8,067	238,585	114,722
137,283	-8,206	238,511	114,563
138,297	-8,339	238,330	114,358
139,312	-8,012	237,991	114,450
140,327	-7,851	237,826	114,492
141,341	-7,270	237,767	114,925
142,356	-7,518	237,738	114,700
143,370	-7,582	237,487	114,516
144,385	-7,447	237,383	114,565
145,400	-7,379	237,261	114,551
146,414	-7,302	236,946	114,451
147,429	-7,513	236,867	114,232
148,443	-7,568	236,666	114,080
149,458	-7,647	236,557	113,954
150,473	-7,527	236,323	113,928
151,487	-7,571	236,172	113,809
152,502	-7,569	235,889	113,665
153,516	-7,658	235,756	113,519
154,531	-7,481	235,702	113,625
155,546	-7,585	235,458	113,414
156,560	-7,539	235,319	113,374
157,575	-7,898	234,915	112,882
158,589	-7,794	234,754	112,877
159,604	-7,382	234,889	113,262
160,619	-7,183	234,669	113,304
161,633	-7,206	234,492	113,191
162,648	-7,165	234,357	113,148
163,662	-7,331	234,149	112,906
164,677	-7,660	234,063	112,592
165,692	-7,510	233,864	112,605
166,706	-7,505	233,788	112,563
167,721	-7,538	233,693	112,480
168,735	-7,356	233,465	112,505
169,750	-7,199	233,146	112,466
170,764	-7,536	233,073	112,154
171,779	-7,506	232,883	112,076
172,794	-7,471	232,818	112,063
173,808	-7,600	232,532	111,812
174,823	-7,951	232,236	111,383
175,837	-7,841	232,064	111,377
176,852	-8,033	232,086	111,227
177,867	-7,690	232,033	111,462
178,881	-7,553	231,841	111,468
179,896	-7,501	231,709	111,435
180,910	-7,434	231,455	111,356
181,925	-7,541	231,414	111,242
182,940	-7,597	231,241	111,105
183,954	-7,417	231,042	111,140
184,969	-7,318	230,846	111,114
185,983	-6,991	230,569	111,228
186,998	-7,320	230,651	111,000
188,013	-7,265	230,502	110,960
189,027	-7,175	230,149	110,851
190,042	-7,396	230,153	110,671
191,056	-7,418	229,930	110,536
192,071	-7,519	229,850	110,409
193,086	-7,498	229,450	110,223
194,100	-7,957	229,065	109,672
195,115	-9,548	228,410	108,112
196,129	-9,532	228,477	108,147
197,144	-5,255	230,026	112,212
198,159	-0,018	231,520	117,039
199,173	3,468	232,406	120,213
200,188	4,206	232,264	120,707
201,202	4,290	232,292	120,777
202,217	4,582	232,105	120,897
203,232	4,428	232,085	120,756
204,246	4,541	232,036	120,808
205,261	4,581	231,834	120,723
206,275	4,553	231,654	120,597
207,290	4,472	231,461	120,423
208,304	4,761	231,273	120,539
209,319	4,602	231,306	120,422
210,334	4,554	230,857	120,140
211,348	4,352	230,687	119,884
212,363	4,096	230,355	119,502
213,377	3,780	230,250	119,191
214,392	3,537	230,044	118,886
215,407	3,617	229,898	118,862
216,421	3,580	229,687	118,713
217,436	3,677	229,523	118,693
218,450	3,321	229,367	118,327
219,465	3,555	229,181	118,401
220,480	3,498	228,961	118,233
221,494	3,449	228,976	118,192
222,509	3,651	228,827	118,260
223,523	3,662	228,786	118,237
224,538	3,721	228,616	118,184
225,553	3,761	228,431	118,109
226,567	3,657	228,304	117,952
227,582	3,783	228,156	117,962
228,596	3,781	228,168	117,956
229,611	3,802	227,748	117,745
230,626	3,659	227,605	117,551
231,640	3,559	227,473	117,396
232,655	3,788	227,250	117,445
233,669	3,997	227,249	117,594
234,684	4,109	227,178	117,632
235,699	4,003	227,065	117,482
236,713	3,934	226,705	117,234
237,728	3,803	226,632	117,085
238,742	3,697	226,491	116,921
239,757	3,722	226,280	116,820
240,772	3,602	226,190	116,673
241,786	3,697	226,047	116,661
242,801	4,169	226,003	116,986
243,815	4,006	226,006	116,853
244,830	4,413	225,687	116,986
245,844	3,905	225,626	116,559
246,859	3,754	225,404	116,320
247,874	4,005	225,203	116,396
248,888	4,060	224,984	116,314
249,903	3,927	224,930	116,175
250,917	3,861	224,692	115,992
251,932	3,753	224,601	115,853
252,947	3,814	224,537	115,856
253,961	3,784	224,353	115,728
254,976	3,772	224,165	115,612
255,990	3,923	224,185	115,725
257,005	3,978	223,915	115,617
258,020	3,926	223,873	115,546
259,034	4,054	223,835	115,612
260,049	4,079	223,574	115,486
261,063	4,049	223,259	115,290
262,078	4,055	223,226	115,267
263,093	3,968	223,306	115,233
264,107	3,887	223,093	115,052
265,122	3,873	222,758	114,859
266,136	4,126	222,569	114,940
267,151	3,635	222,640	114,600
268,166	3,958	222,239	114,624
269,180	3,652	222,076	114,301
270,195	3,620	221,966	114,211
271,209	3,738	221,765	114,186
272,224	3,645	221,870	114,160
273,239	3,973	221,507	114,207
274,253	3,556	221,494	113,880
275,268	3,511	221,252	113,712
276,282	3,391	221,142	113,556
277,297	3,243	221,011	113,370
278,312	3,617	220,837	113,547
279,326	3,566	220,821	113,491
280,341	3,751	220,613	113,510
281,355	3,631	220,550	113,379
282,370	3,592	220,320	113,222
283,384	3,580	220,269	113,177
284,399	3,532	219,993	112,990
285,414	3,839	219,667	113,038
286,428	3,787	219,763	113,040
287,443	3,833	219,658	113,009
288,457	3,883	219,585	112,998
289,472	3,769	219,280	112,748
290,487	3,257	219,091	112,265
291,501	3,405	218,954	112,293
292,516	3,436	218,781	112,217
293,530	3,558	218,664	112,236
294,545	3,535	218,540	112,146
295,560	3,693	218,404	112,181
296,574	3,809	218,314	112,210
297,589	3,880	218,149	112,167
298,603	3,825	218,112	112,098
299,618	3,929	218,018	112,115
300,633	4,030	217,839	112,086
301,647	4,225	217,794	112,195
302,662	4,071	217,581	111,963
303,676	4,106	217,431	111,903
304,691	3,934	217,337	111,719
305,706	3,987	217,197	111,675
306,720	3,865	217,080	111,517
307,735	3,673	216,819	111,233
308,749	3,745	216,631	111,180
309,764	3,866	216,659	111,271
310,779	3,629	216,536	111,027
311,793	4,095	216,244	111,204
312,808	3,844	216,171	110,975
313,822	3,893	215,990	110,908
314,837	3,709	215,809	110,672
315,852	3,680	215,675	110,573
316,866	3,889	215,627	110,689
317,881	3,967	215,429	110,633
318,895	3,885	215,281	110,489
319,910	3,593	215,251	110,254
320,925	3,677	214,995	110,173
321,939	3,326	214,809	109,816
322,954	3,505	214,661	109,858
323,968	3,927	214,526	110,082
324,983	3,926	214,564	110,091
325,997	3,841	214,310	109,890
327,012	3,820	214,218	109,818
328,027	3,563	214,137	109,583
329,041	3,682	214,078	109,628
330,056	4,138	213,821	109,812
331,070	3,710	213,612	109,390
332,085	3,635	213,426	109,232
333,100	3,564	213,382	109,149
334,114	3,570	213,284	109,094
335,129	3,709	213,172	109,125
336,143	3,546	212,908	108,864
337,158	3,516	212,764	108,759
338,173	3,654	212,549	108,738
339,187	3,748	212,440	108,739
340,202	3,444	212,362	108,474
341,216	3,336	212,182	108,296
342,231	3,647	211,912	108,369
343,246	3,622	211,860	108,314
344,260	3,476	211,755	108,148
345,275	3,572	211,831	108,245
346,289	3,622	211,823	108,267
347,304	3,615	211,495	108,084
348,319	3,650	211,471	108,087
349,333	3,401	211,253	107,791
350,348	3,515	211,165	107,817
351,362	3,651	211,064	107,851
352,377	3,938	210,829	107,923
353,392	3,656	210,705	107,652
354,406	3,827	210,492	107,653
355,421	192,991	1343,583	1427,751
356,435	154,024	1481,675	1427,829
