DTS Sentinel unit serial number:	SN410029Multiplexer serial number:	ORYXHardware model number:	OX2-SRSoftware version number:	ORYX F/W v4,00 Oryx Data Collector v3.7.2.0data status	okinstallation	B6 Nyhavnadifferential loss correction	single-endedforward channel	channel 2reverse channel	N/Adate	2023/12/11time	09:00:08forward acquisition time	300,00reverse acquisition time	0,00gamma	499,1914k internal	0,3134k external	0,3134temperature offset calibration	1,0000default loss term (dB/km)	0,3820temperature slope calibration	1,0000multiplexer offset coefficient	1,0000multiplexer slope coefficient	1,0000fibre end	0,00T internal ref (°C)	17,21T ext. ref 1 (°C)	-0,44T ext. ref 2 (°C)	-0,44length (m)	temperature (°C)	Stokes	anti-Stokes-744,400	-200,000	0,009	-0,095
-743,385	-101,685	-0,377	0,067
-742,371	566,750	0,125	0,227
-741,356	120,186	-0,170	0,157
-740,342	-51,147	0,241	0,083
-739,327	-146,117	-0,359	-0,023
-738,312	618,981	0,040	0,076
-737,298	-119,289	-0,319	0,041
-736,283	-200,000	0,016	-0,101
-735,269	-91,233	-0,239	-0,050
-734,254	-32,224	0,223	-0,092
-733,239	-106,583	-0,491	-0,080
-732,225	221,496	0,127	0,152
-731,210	144,574	-0,063	0,063
-730,196	-200,000	-0,001	0,020
-729,181	351,879	0,043	-0,063
-728,167	5,109	-0,131	-0,071
-727,152	-149,575	-0,132	-0,008
-726,137	800,000	-0,052	-0,108
-725,123	-17,311	-0,096	-0,045
-724,108	-200,000	-0,025	-0,126
-723,094	-13,003	-0,100	-0,048
-722,079	293,626	-0,150	-0,203
-721,064	-200,000	-0,002	-0,061
-720,050	27,618	0,077	-0,048
-719,035	548,631	-0,073	0,130
-718,021	-11,132	-0,089	-0,043
-717,006	91,509	-0,083	-0,069
-715,991	-131,488	-0,084	-0,008
-714,977	-200,000	0,010	-0,104
-713,962	-200,000	-0,011	-0,093
-712,948	800,000	-0,014	-0,035
-711,933	600,038	0,075	0,140
-710,918	-99,456	-0,059	-0,011
-709,904	-200,000	-0,022	-0,083
-708,889	83,287	0,076	-0,061
-707,875	498,606	-0,032	0,054
-706,860	-15,037	0,173	-0,082
-705,845	-200,000	-0,019	-0,098
-704,831	-111,018	0,057	0,009
-703,816	800,000	-0,013	-0,038
-702,802	-40,883	0,054	-0,021
-701,787	444,825	-0,073	-0,119
-700,772	-200,000	-0,012	-0,064
-699,758	800,000	-0,037	-0,120
-698,743	211,916	0,046	-0,054
-697,729	7,866	-0,086	-0,048
-696,714	-50,571	0,035	0,012
-695,699	-55,866	0,176	-0,058
-694,685	52,162	-0,090	0,064
-693,670	-200,000	-0,006	0,050
-692,656	498,749	-0,067	-0,115
-691,641	-78,625	0,091	-0,023
-690,627	-200,000	-0,022	-0,101
-689,612	127,922	0,082	0,077
-688,597	-200,000	0,001	-0,024
-687,583	-200,000	-0,003	-0,026
-686,568	46,749	0,066	0,045
-685,554	389,207	-0,043	-0,066
-684,539	58,796	0,102	-0,074
-683,524	-158,822	0,005	-0,000
-682,510	-200,000	0,025	0,198
-681,495	725,049	-0,012	-0,024
-680,481	-101,242	0,082	-0,015
-679,466	800,000	-0,048	-0,120
-678,451	-200,000	0,014	0,073
-677,437	-200,000	0,049	-0,216
-676,422	227,829	0,090	0,109
-675,408	-106,354	0,164	0,027
-674,393	-8,859	-0,073	-0,036
-673,378	800,000	-0,042	-0,121
-672,364	99,544	0,113	0,097
-671,349	-200,000	-0,006	-0,025
-670,335	172,525	0,070	-0,075
-669,320	800,000	-0,051	-0,115
-668,305	530,222	0,055	0,096
-667,291	-200,000	0,024	-0,079
-666,276	-46,309	0,125	0,045
-665,262	-200,000	-0,010	-0,090
-664,247	-200,000	0,004	0,027
-663,232	442,238	0,063	0,102
-662,218	800,000	-0,011	0,025
-661,203	133,119	0,049	-0,047
-660,189	96,396	0,090	-0,076
-659,174	-200,000	-0,006	-0,026
-658,159	-200,000	0,012	-0,060
-657,145	800,000	-0,030	-0,083
-656,130	800,000	-0,008	-0,026
-655,116	-86,228	-0,094	0,021
-654,101	-135,841	0,093	-0,008
-653,086	406,992	-0,115	-0,181
-652,072	213,420	-0,101	0,118
-651,057	120,357	-0,089	-0,081
-650,043	202,627	-0,043	0,049
-649,028	248,204	0,058	-0,073
-648,014	800,000	-0,023	0,072
-646,999	-2,861	-0,080	0,041
-645,984	-31,341	-0,107	0,045
-644,970	80,820	-0,099	-0,079
-643,955	800,000	0,004	-0,009
-642,941	-74,532	-0,108	-0,028
-641,926	737,088	0,021	0,041
-640,911	28,268	0,038	-0,024
-639,897	136,497	-0,058	0,056
-638,882	510,839	0,032	0,056
-637,868	-56,549	0,099	0,032
-636,853	-200,000	-0,006	-0,047
-635,838	86,655	-0,130	-0,106
-634,824	-102,616	0,162	-0,028
-633,809	449,267	-0,025	-0,041
-632,795	-72,737	-0,053	0,014
-631,780	-200,000	0,012	0,168
-630,765	800,000	0,025	-0,082
-629,751	660,048	0,045	0,086
-628,736	81,460	-0,057	-0,046
-627,722	-132,374	0,112	0,011
-626,707	800,000	-0,019	-0,047
-625,692	18,890	0,116	0,069
-624,678	-200,000	0,013	-0,085
-623,663	270,787	0,073	0,096
-622,649	-44,449	-0,213	-0,078
-621,634	273,792	-0,094	-0,123
-620,619	-100,150	-0,012	0,002
-619,605	85,746	-0,034	-0,027
-618,590	-166,848	0,112	-0,003
-617,576	125,191	-0,085	-0,079
-616,561	85,073	-0,093	-0,076
-615,546	665,750	0,048	-0,092
-614,532	800,000	0,030	-0,086
-613,517	800,000	0,010	0,024
-612,503	39,835	-0,039	-0,026
-611,488	-200,000	0,006	0,051
-610,474	-200,000	-0,011	0,121
-609,459	-148,399	0,051	-0,003
-608,444	800,000	-0,035	-0,101
-607,430	-141,281	0,031	0,002
-606,415	-52,830	-0,091	0,031
-605,401	-19,906	0,209	0,095
-604,386	87,113	0,073	0,059
-603,371	-200,000	-0,013	0,115
-602,357	231,717	0,074	-0,090
-601,342	-165,095	-0,156	0,005
-600,328	-200,000	0,007	0,034
-599,313	262,575	-0,087	-0,112
-598,298	800,000	0,018	0,038
-597,284	800,000	-0,036	-0,077
-596,269	334,234	-0,008	0,011
-595,255	34,135	0,128	0,082
-594,240	-200,000	-0,003	-0,156
-593,225	134,076	-0,021	0,020
-592,211	800,000	-0,017	0,039
-591,196	29,314	0,026	0,016
-590,182	-200,000	-0,074	0,245
-589,167	-149,725	-0,107	0,006
-588,152	-11,135	-0,022	0,011
-587,138	55,985	0,083	-0,060
-586,123	-11,168	-0,152	-0,074
-585,109	800,000	-0,091	-0,239
-584,094	413,312	0,079	-0,124
-583,079	-123,072	0,082	-0,010
-582,065	310,864	0,019	0,027
-581,050	-38,557	0,010	-0,004
-580,036	403,679	-0,041	0,063
-579,021	800,000	-0,037	-0,104
-578,006	-200,000	-0,004	-0,107
-576,992	73,711	0,062	0,048
-575,977	628,422	0,039	-0,074
-574,963	-200,000	-0,039	0,149
-573,948	84,631	0,119	0,096
-572,934	800,000	0,047	-0,106
-571,919	-121,481	0,127	0,015
-570,904	-200,000	0,032	-0,169
-569,890	-78,794	0,115	0,029
-568,875	800,000	0,073	0,175
-567,861	-200,000	-0,010	0,091
-566,846	-58,416	-0,030	0,010
-565,831	215,570	-0,063	0,074
-564,817	-155,059	0,031	0,001
-563,802	-48,707	-0,213	0,075
-562,788	-28,522	0,029	0,012
-561,773	141,405	-0,072	-0,070
-560,758	475,035	0,022	-0,038
-559,744	-13,991	0,090	0,043
-558,729	-200,000	0,014	0,173
-557,715	-96,672	0,094	0,018
-556,700	547,528	-0,059	-0,105
-555,685	152,773	-0,046	-0,046
-554,671	800,000	0,034	0,084
-553,656	17,916	0,095	0,056
-552,642	207,603	-0,086	-0,099
-551,627	-200,000	-0,007	-0,098
-550,612	-93,374	0,081	0,016
-549,598	-56,503	-0,116	0,038
-548,583	-200,000	-0,006	-0,210
-547,569	-200,000	0,019	0,070
-546,554	85,418	0,112	0,091
-545,539	124,464	0,089	0,082
-544,525	86,913	0,114	0,092
-543,510	204,609	0,064	0,073
-542,496	-200,000	-0,007	-0,076
-541,481	623,219	0,031	-0,057
-540,466	88,984	0,081	-0,067
-539,452	28,679	0,098	0,061
-538,437	800,000	0,059	0,148
-537,423	-98,832	-0,073	0,014
-536,408	-200,000	0,021	-0,170
-535,393	496,097	-0,080	-0,136
-534,379	98,295	-0,067	0,057
-533,364	400,284	-0,027	-0,042
-532,350	4,508	0,125	-0,067
-531,335	207,932	0,081	-0,093
-530,321	-200,000	0,045	-0,163
-529,306	-93,198	-0,110	0,022
-528,291	38,911	0,075	-0,049
-527,277	800,000	0,063	-0,158
-526,262	800,000	-0,008	-0,023
-525,248	508,992	-0,045	0,077
-524,233	-49,539	0,110	-0,038
-523,218	-200,000	0,010	-0,068
-522,204	753,069	0,046	-0,092
-521,189	-200,000	0,000	-0,109
-520,175	-77,443	-0,042	-0,011
-519,160	20,605	0,116	-0,069
-518,145	-164,988	0,005	0,000
-517,131	-52,024	-0,021	0,007
-516,116	29,974	0,060	0,038
-515,102	-56,509	-0,113	-0,037
-514,087	-44,811	-0,037	0,013
-513,072	123,859	-0,051	-0,047
-512,058	-200,000	0,006	-0,041
-511,043	-27,029	-0,083	0,035
-510,029	109,303	-0,021	-0,018
-509,014	18,999	0,135	-0,079
-507,999	40,573	-0,026	0,017
-506,985	800,000	-0,018	-0,039
-505,970	17,228	-0,186	0,108
-504,956	180,314	-0,032	-0,034
-503,941	-140,250	0,160	0,012
-502,926	800,000	-0,037	0,113
-501,912	-124,431	-0,033	0,004
-500,897	-200,000	-0,006	0,103
-499,883	36,912	-0,083	-0,054
-498,868	122,786	-0,044	0,040
-497,853	-200,000	-0,009	-0,126
-496,839	379,634	0,050	0,076
-495,824	-200,000	-0,003	-0,041
-494,810	28,648	-0,042	0,026
-493,795	-22,512	0,133	-0,059
-492,781	-200,000	0,008	-0,065
-491,766	-9,734	0,004	0,002
-490,751	14,773	-0,044	-0,025
-489,737	-9,712	-0,133	-0,065
-488,722	-26,908	0,096	-0,041
-487,708	800,000	0,034	0,096
-486,693	310,280	0,025	0,035
-485,678	91,892	0,068	0,056
-484,664	800,000	0,046	-0,143
-483,649	3,830	-0,133	0,071
-482,635	-60,857	-0,085	0,026
-481,620	-200,000	-0,012	-0,081
-480,605	-164,700	0,053	-0,002
-479,591	167,613	-0,109	0,114
-478,576	-126,324	-0,152	-0,017
-477,562	300,558	0,067	0,091
-476,547	-119,523	-0,071	-0,009
-475,532	165,959	-0,085	-0,088
-474,518	112,516	-0,071	0,063
-473,503	-200,000	0,016	0,101
-472,489	-200,000	0,008	0,100
-471,474	-52,422	0,028	0,009
-470,459	-200,000	-0,013	-0,068
-469,445	33,847	0,086	-0,055
-468,430	-200,000	-0,005	-0,070
-467,416	800,000	0,052	0,156
-466,401	-200,000	-0,011	0,126
-465,386	247,721	0,030	0,038
-464,372	641,039	-0,030	0,056
-463,357	800,000	0,025	0,071
-462,343	-200,000	0,014	0,070
-461,328	-132,675	-0,035	-0,003
-460,313	-15,424	0,095	-0,044
-459,299	-200,000	0,001	-0,007
-458,284	336,316	-0,065	-0,093
-457,270	32,570	-0,099	0,062
-456,255	-200,000	0,013	0,052
-455,241	-200,000	0,034	-0,113
-454,226	3,317	-0,145	-0,077
-453,211	132,728	0,015	0,015
-452,197	119,339	0,051	-0,046
-451,182	-200,000	0,021	0,069
-450,168	-7,596	-0,152	-0,075
-449,153	300,052	0,042	0,057
-448,138	-165,454	-0,103	-0,003
-447,124	123,328	0,070	0,064
-446,109	-123,459	0,028	0,003
-445,095	270,184	0,043	0,055
-444,080	72,145	-0,041	-0,031
-443,065	-200,000	-0,025	-0,140
-442,051	-99,212	-0,022	0,004
-441,036	281,823	-0,091	-0,120
-440,022	-200,000	0,005	-0,090
-439,007	26,473	0,039	-0,024
-437,992	644,990	0,012	-0,023
-436,978	-165,760	0,071	0,002
-435,963	147,839	-0,089	0,088
-434,949	334,453	-0,075	0,107
-433,934	105,429	-0,133	-0,116
-432,919	-200,000	0,025	-0,116
-431,905	-110,522	-0,035	0,005
-430,890	-48,199	0,062	0,022
-429,876	-200,000	-0,012	-0,101
-428,861	505,773	-0,054	-0,092
-427,846	-200,000	0,009	-0,083
-426,832	-56,389	-0,067	-0,022
-425,817	105,315	-0,054	-0,046
-424,803	173,383	0,072	0,077
-423,788	-140,723	-0,097	0,007
-422,773	270,956	-0,035	-0,045
-421,759	-200,000	0,095	0,000
-420,744	224,041	-0,064	0,076
-419,730	-200,000	0,009	-0,068
-418,715	44,289	-0,091	0,061
-417,701	-30,965	-0,070	-0,029
-416,686	-200,000	-0,002	0,123
-415,671	662,995	0,096	0,182
-414,657	633,698	0,043	0,079
-413,642	298,885	0,045	0,061
-412,628	63,673	-0,056	0,041
-411,613	354,620	-0,100	-0,147
-410,598	-200,000	0,036	-0,177
-409,584	225,940	0,061	-0,073
-408,569	-72,521	0,127	-0,034
-407,555	197,362	-0,054	-0,061
-406,540	83,183	-0,047	0,037
-405,525	-200,000	-0,003	-0,082
-404,511	145,332	-0,033	0,032
-403,496	239,393	-0,089	0,109
-402,482	-131,921	0,070	0,007
-401,467	-200,000	0,033	0,167
-400,452	-200,000	-0,001	-0,021
-399,438	-200,000	0,008	0,142
-398,423	-61,611	-0,138	0,042
-397,409	-90,563	-0,039	0,008
-396,394	-146,294	-0,033	0,002
-395,379	101,393	0,055	-0,047
-394,365	259,399	-0,101	0,128
-393,350	-17,600	0,084	0,039
-392,336	-35,133	0,059	-0,023
-391,321	-105,837	-0,085	-0,014
-390,306	-54,538	-0,047	-0,015
-389,292	-200,000	-0,015	-0,050
-388,277	-22,513	-0,071	-0,031
-387,263	-200,000	0,020	0,084
-386,248	-114,982	-0,145	-0,020
-385,233	-111,660	0,082	0,012
-384,219	-200,000	0,005	-0,097
-383,204	-59,564	-0,053	0,017
-382,190	-23,339	0,144	-0,063
-381,175	-200,000	0,026	-0,114
-380,160	-200,000	0,027	0,105
-379,146	263,666	0,088	0,112
-378,131	-200,000	-0,015	0,066
-377,117	-200,000	0,001	0,081
-376,102	10,494	-0,136	-0,076
-375,088	751,326	-0,075	-0,148
-374,073	-1,216	0,059	-0,030
-373,058	-200,000	0,003	0,026
-372,044	-96,354	0,098	0,019
-371,029	38,513	-0,080	-0,052
-370,015	800,000	-0,017	-0,038
-369,000	800,000	0,026	-0,064
-367,985	160,022	-0,080	-0,081
-366,971	-84,936	0,049	-0,011
-365,956	-60,495	0,117	0,036
-364,942	702,240	0,105	0,203
-363,927	-147,859	0,163	0,010
-362,912	249,835	0,009	0,011
-361,898	-3,881	-0,124	0,063
-360,883	-200,000	0,003	-0,101
-359,869	-182,452	-0,078	-0,001
-358,854	-200,000	0,004	0,048
-357,839	-46,152	0,093	-0,033
-356,825	684,984	-0,050	0,096
-355,810	318,282	-0,084	-0,117
-354,796	51,727	0,050	-0,035
-353,781	656,467	0,068	0,128
-352,766	393,712	-0,046	-0,070
-351,752	151,126	-0,014	0,013
-350,737	728,662	0,069	0,136
-349,723	-200,000	0,007	-0,171
-348,708	-79,737	0,166	-0,041
-347,693	-3,228	-0,040	0,020
-346,679	725,597	-0,041	-0,081
-345,664	8,447	0,049	0,027
-344,650	-136,663	-0,027	0,002
-343,635	167,683	0,076	0,079
-342,620	-103,047	0,080	0,014
-341,606	476,620	0,024	0,040
-340,591	-94,301	-0,110	0,022
-339,577	-87,174	0,066	0,015
-338,562	-49,435	0,078	-0,027
-337,548	-198,542	0,122	0,000
-336,533	406,916	0,068	0,105
-335,518	76,638	-0,086	0,067
-334,504	-200,000	0,017	-0,068
-333,489	-167,184	-0,072	-0,002
-332,475	24,996	0,063	-0,038
-331,460	-149,730	-0,026	-0,001
-330,445	-8,316	-0,098	0,048
-329,431	1,097	0,081	0,042
-328,416	-76,657	-0,076	-0,019
-327,402	230,008	0,084	0,101
-326,387	-44,205	0,043	-0,016
-325,372	3,426	-0,112	-0,060
-324,358	201,330	0,114	-0,128
-323,343	-200,000	0,035	-0,115
-322,329	800,000	-0,017	-0,042
-321,314	800,000	-0,066	0,162
-320,299	800,000	0,049	0,129
-319,285	-47,791	-0,033	-0,012
-318,270	219,272	0,114	0,134
-317,256	2,813	-0,093	0,049
-316,241	65,690	-0,081	0,060
-315,226	800,000	0,072	0,170
-314,212	-200,000	0,011	0,131
-313,197	800,000	0,022	0,049
-312,183	-99,864	-0,005	0,001
-311,168	800,000	0,042	-0,117
-310,153	152,712	0,061	-0,060
-309,139	463,312	-0,039	-0,064
-308,124	-200,000	-0,004	0,055
-307,110	176,020	0,040	0,042
-306,095	-200,000	0,004	-0,070
-305,080	92,504	-0,011	0,009
-304,066	800,000	-0,070	0,185
-303,051	288,752	-0,072	-0,096
-302,037	-177,927	0,063	-0,001
-301,022	800,000	-0,027	-0,067
-300,008	-112,661	0,195	-0,028
-298,993	-47,482	-0,080	0,028
-297,978	124,300	0,031	-0,029
-296,964	516,148	-0,092	0,157
-295,949	122,596	-0,065	0,059
-294,935	-200,000	-0,020	0,088
-293,920	-200,000	-0,019	-0,070
-292,905	-200,000	-0,001	0,059
-291,891	153,612	0,065	-0,065
-290,876	800,000	0,078	0,193
-289,862	800,000	0,033	0,083
-288,847	-11,952	-0,115	0,055
-287,832	-200,000	-0,026	-0,092
-286,818	-132,185	0,053	-0,005
-285,803	-200,000	-0,003	-0,012
-284,789	375,621	-0,078	0,117
-283,774	260,449	0,083	0,105
-282,759	131,984	0,045	-0,043
-281,745	-200,000	0,029	0,101
-280,730	-120,098	0,046	-0,006
-279,716	127,953	0,112	-0,104
-278,701	635,635	0,038	0,070
-277,686	87,958	0,112	0,090
-276,672	-192,972	-0,109	-0,001
-275,657	-159,921	-0,042	0,002
-274,643	-200,000	0,009	-0,108
-273,628	-127,954	0,020	-0,002
-272,613	-70,174	0,082	-0,023
-271,599	57,686	0,060	0,043
-270,584	33,761	-0,039	-0,025
-269,570	800,000	-0,017	0,035
-268,555	178,010	-0,051	0,054
-267,540	-111,407	0,069	-0,010
-266,526	-200,000	0,005	0,048
-265,511	-200,000	0,003	0,077
-264,497	-21,260	-0,034	0,015
-263,482	-103,608	-0,079	-0,013
-262,467	49,688	-0,052	0,036
-261,453	800,000	0,013	0,040
-260,438	800,000	-0,079	0,223
-259,424	800,000	-0,041	-0,096
-258,409	800,000	0,019	-0,040
-257,395	30,402	-0,074	0,046
-256,380	800,000	0,033	0,078
-255,365	800,000	-0,037	0,110
-254,351	800,000	-0,013	0,031
-253,336	-200,000	-0,011	-0,054
-252,322	-73,833	-0,088	0,023
-251,307	-77,674	-0,111	0,028
-250,292	800,000	0,045	-0,094
-249,278	800,000	0,026	0,059
-248,263	104,713	0,065	0,056
-247,249	14,548	-0,147	-0,083
-246,234	-200,000	-0,001	0,040
-245,219	-164,652	-0,071	0,002
-244,205	194,951	0,038	0,042
-243,190	289,026	0,029	-0,039
-242,176	-31,208	-0,041	-0,017
-241,161	-200,000	0,017	0,100
-240,146	-82,667	0,050	0,012
-239,132	-200,000	0,031	-0,101
-238,117	-200,000	0,053	0,215
-237,103	26,233	-0,074	0,045
-236,088	642,018	-0,038	-0,070
-235,073	512,780	0,044	-0,075
-234,059	384,222	0,040	0,059
-233,044	630,758	0,043	0,079
-232,030	-200,000	0,001	0,056
-231,015	272,702	0,059	-0,076
-230,000	-15,211	-0,083	-0,038
-228,986	-200,000	-0,047	-0,206
-227,971	-6,974	-0,052	0,025
-226,957	-200,000	0,037	0,185
-225,942	92,932	0,017	-0,014
-224,927	501,410	0,055	0,092
-223,913	-200,000	-0,005	-0,074
-222,898	-200,000	-0,006	-0,062
-221,884	109,159	0,070	-0,061
-220,869	-138,868	0,143	0,011
-219,855	800,000	0,020	-0,056
-218,840	800,000	0,017	0,054
-217,825	-200,000	0,014	-0,076
-216,811	149,142	-0,068	-0,067
-215,796	29,501	-0,166	-0,102
-214,782	800,000	-0,014	-0,035
-213,767	683,418	0,027	-0,051
-212,752	-200,000	0,011	0,111
-211,738	-200,000	-0,027	0,098
-210,723	14,944	-0,102	0,058
-209,709	-200,000	0,013	-0,104
-208,694	-200,000	0,046	-0,159
-207,679	657,957	0,047	0,088
-206,665	-200,000	-0,017	0,067
-205,650	-25,034	-0,011	0,005
-204,636	153,304	-0,067	-0,067
-203,621	142,233	0,080	-0,077
-202,606	390,743	-0,069	-0,105
-201,592	800,000	-0,024	-0,057
-200,577	-145,615	0,025	0,002
-199,563	-48,164	0,090	-0,031
-198,548	-15,259	0,142	0,066
-197,533	-149,529	0,091	0,005
-196,519	86,938	0,032	0,026
-195,504	786,956	-0,056	-0,111
-194,490	564,670	-0,046	0,081
-193,475	-200,000	-0,049	-0,163
-192,460	-200,000	-0,003	0,016
-191,446	-200,000	-0,007	0,049
-190,431	-60,775	0,115	0,035
-189,417	-72,216	0,040	-0,011
-188,402	221,464	0,093	0,109
-187,387	289,865	-0,136	-0,180
-186,373	-59,960	0,079	-0,024
-185,358	800,000	0,054	-0,126
-184,344	800,000	0,013	-0,028
-183,329	68,182	0,039	0,029
-182,315	572,106	-0,044	-0,077
-181,300	-80,081	-0,224	-0,054
-180,285	-200,000	0,011	0,043
-179,271	-119,721	0,119	-0,015
-178,256	54,369	0,098	0,068
-177,242	800,000	0,018	-0,048
-176,227	102,485	-0,040	-0,034
-175,212	-101,208	-0,085	-0,015
-174,198	-200,000	-0,015	-0,080
-173,183	200,874	0,112	-0,126
-172,169	-200,000	0,009	-0,051
-171,154	-200,000	0,017	-0,109
-170,139	250,457	0,093	0,115
-169,125	29,428	-0,061	-0,038
-168,110	-15,004	0,039	0,018
-167,096	-200,000	-0,017	-0,089
-166,081	-90,410	-0,220	-0,046
-165,066	-28,389	-0,104	-0,043
-164,052	413,738	-0,052	-0,080
-163,037	-200,000	0,006	-0,055
-162,023	-200,000	0,009	0,188
-161,008	-200,000	0,008	0,046
-159,993	800,000	-0,024	0,068
-158,979	171,041	-0,122	0,127
-157,964	-200,000	0,022	0,097
-156,950	-45,145	-0,057	0,020
-155,935	8,795	-0,011	0,006
-154,920	800,000	0,019	-0,045
-153,906	-150,122	0,166	0,009
-152,891	-200,000	-0,008	-0,025
-151,877	112,811	-0,055	-0,048
-150,862	-200,000	0,014	-0,074
-149,847	119,024	-0,064	-0,057
-148,833	-102,847	-0,014	0,002
-147,818	-200,000	-0,005	0,136
-146,804	800,000	-0,011	0,033
-145,789	750,221	-0,035	0,068
-144,775	-200,000	0,002	0,027
-143,760	-200,000	0,009	0,033
-142,745	-21,005	0,115	-0,051
-141,731	800,000	0,054	0,123
-140,716	800,000	-0,013	-0,040
-139,702	-10,083	0,076	-0,037
-138,687	-200,000	-0,001	0,093
-137,672	1,966	-0,153	0,080
-136,658	800,000	-0,013	0,029
-135,643	-35,962	-0,023	0,009
-134,629	136,839	0,069	-0,066
-133,614	212,000	0,050	0,058
-132,599	-82,191	0,181	0,042
-131,585	-150,614	0,093	0,005
-130,570	-200,000	0,093	0,000
-129,556	154,621	-0,047	-0,047
-128,541	-200,000	-0,012	-0,070
-127,526	-0,400	0,045	-0,023
-126,512	-46,964	-0,011	0,004
-125,497	169,108	0,037	-0,039
-124,483	-200,000	-0,017	0,074
-123,468	377,509	0,094	0,139
-122,453	308,782	0,018	0,024
-121,439	-200,000	0,052	-0,165
-120,424	59,285	-0,018	0,013
-119,410	-113,272	-0,138	0,019
-118,395	-200,000	-0,002	-0,107
-117,380	-98,542	0,068	-0,013
-116,366	619,500	0,019	0,034
-115,351	-200,000	-0,006	0,125
-114,337	-22,821	-0,210	0,091
-113,322	786,249	0,054	0,108
-112,307	800,000	0,023	0,059
-111,293	-197,323	0,119	-0,001
-110,278	800,000	-0,054	0,119
-109,264	-119,588	0,058	-0,007
-108,249	-200,000	0,008	0,169
-107,234	39,160	-0,056	-0,036
-106,220	69,989	-0,143	0,107
-105,205	-34,231	0,078	-0,031
-104,191	-200,000	-0,001	-0,049
-103,176	-47,773	0,056	0,020
-102,162	21,121	-0,029	0,017
-101,147	-36,091	-0,082	-0,032
-100,132	800,000	0,027	-0,085
-99,118	800,000	0,061	-0,125
-98,103	800,000	-0,043	0,114
-97,089	200,774	0,066	0,074
-96,074	-33,309	-0,111	0,044
-95,059	540,939	0,078	0,135
-94,045	5,464	-0,047	-0,025
-93,030	50,627	0,080	0,055
-92,016	-200,000	-0,008	0,026
-91,001	800,000	-0,060	0,168
-89,986	-200,000	-0,016	0,066
-88,972	-14,118	-0,085	-0,040
-87,957	-91,255	0,160	0,033
-86,943	800,000	-0,016	-0,044
-85,928	-200,000	-0,032	-0,111
-84,913	27,759	-0,012	-0,007
-83,899	-45,184	0,057	-0,020
-82,884	-72,048	-0,045	0,012
-81,870	-200,000	0,013	0,088
-80,855	445,645	0,060	0,096
-79,840	-200,000	0,019	-0,075
-78,826	-200,000	0,009	-0,067
-77,811	-200,000	0,002	-0,043
-76,797	-200,000	-0,013	-0,097
-75,782	800,000	-0,015	-0,038
-74,767	590,892	-0,029	-0,051
-73,753	-100,224	0,093	0,017
-72,738	-200,000	0,003	-0,065
-71,724	-38,720	-0,100	0,038
-70,709	-200,000	-0,014	-0,063
-69,694	-53,927	-0,125	-0,041
-68,680	-49,231	0,075	0,026
-67,665	424,289	0,093	0,145
-66,651	12,801	-0,151	0,084
-65,636	-200,000	-0,020	-0,072
-64,622	-105,734	0,089	-0,014
-63,607	132,519	-0,038	-0,035
-62,592	-124,695	0,146	0,016
-61,578	800,000	-0,039	0,083
-60,563	-60,815	-0,069	-0,021
-59,549	523,514	-0,131	0,223
-58,534	-25,932	-1,812	-0,768
-57,519	-200,000	-0,284	-0,957
-56,505	-200,000	-1,127	-4,860
-55,490	-40,463	0,748	0,280
-54,476	800,000	5,284	12,046
-53,461	-200,000	16,735	271,418
-52,446	800,000	711,492	2209,550
-51,432	559,922	1622,258	2844,153
-50,417	115,824	1620,071	1432,957
-49,403	80,625	1281,581	997,640
-48,388	34,787	1028,080	648,663
-47,373	20,858	990,256	578,583
-46,359	19,598	978,454	567,506
-45,344	17,551	974,307	558,332
-44,330	17,649	973,209	558,003
-43,315	17,348	971,284	555,889
-42,300	17,268	970,200	554,982
-41,286	17,230	969,429	554,394
-40,271	17,273	968,261	553,846
-39,257	17,258	967,670	553,436
-38,242	17,264	966,748	552,906
-37,227	17,294	965,935	552,517
-36,213	17,316	965,101	552,092
-35,198	17,215	964,152	551,196
-34,184	17,262	963,380	550,886
-33,169	17,273	962,515	550,407
-32,154	17,311	961,536	549,947
-31,140	17,301	960,689	549,408
-30,125	17,304	959,889	548,941
-29,111	17,318	958,943	548,421
-28,096	17,248	958,616	547,988
-27,082	17,246	957,768	547,472
-26,067	17,229	956,939	546,922
-25,052	17,195	956,141	546,334
-24,038	17,240	955,528	546,109
-23,023	17,234	954,870	545,692
-22,009	17,303	954,070	545,436
-20,994	17,277	953,479	544,993
-19,979	17,219	952,999	544,510
-18,965	17,215	952,285	544,068
-17,950	17,238	951,763	543,822
-16,936	17,159	951,104	543,170
-15,921	17,202	950,133	542,730
-14,906	17,115	949,630	542,143
-13,892	17,118	949,148	541,854
-12,877	17,114	948,207	541,285
-11,863	17,064	947,730	540,831
-10,848	17,049	947,292	540,510
-9,833	17,169	946,576	540,463
-8,819	17,182	945,940	540,123
-7,804	17,103	945,248	539,452
-6,790	17,059	944,699	538,976
-5,775	17,172	944,147	539,001
-4,760	17,186	943,476	538,642
-3,746	17,115	942,754	537,983
-2,731	17,020	942,071	537,267
-1,717	16,925	941,609	536,682
-0,702	16,989	940,757	536,376
0,313	16,749	940,306	536,167
1,327	19,938	938,540	545,231
2,342	29,273	794,589	486,481
3,356	25,732	447,730	268,785
4,371	-5,284	295,007	145,947
5,386	-9,303	276,345	132,877
6,400	-10,871	270,633	128,655
7,415	-11,210	268,436	127,285
8,429	-10,757	267,075	127,046
9,444	-10,658	266,305	126,759
10,459	-10,576	265,744	126,556
11,473	-10,600	264,967	126,153
12,488	-10,542	264,609	126,024
13,502	-10,561	264,026	125,718
14,517	-10,574	263,804	125,589
15,531	-10,019	263,589	125,979
16,546	-10,030	263,237	125,791
17,561	-9,876	262,701	125,663
18,575	-9,774	262,416	125,606
19,590	-9,894	262,096	125,334
20,604	-9,924	261,838	125,172
21,619	-9,955	261,433	124,940
22,634	-9,758	261,043	124,919
23,648	-9,767	260,847	124,807
24,663	-9,769	260,576	124,664
25,677	-9,998	260,421	124,373
26,692	-10,004	260,058	124,184
27,707	-9,861	259,923	124,236
28,721	-9,901	259,444	123,960
29,736	-9,918	259,332	123,880
30,750	-9,932	259,125	123,758
31,765	-9,760	258,832	123,760
32,780	-9,704	258,405	123,595
33,794	-9,968	258,435	123,363
34,809	-9,717	258,104	123,417
35,823	-9,776	257,799	123,208
36,838	-9,875	257,717	123,071
37,853	-9,933	257,402	122,858
38,867	-9,853	257,101	122,774
39,882	-10,024	256,965	122,547
40,896	-9,810	256,675	122,586
41,911	-9,846	256,566	122,492
42,926	-9,793	256,181	122,344
43,940	-9,955	256,036	122,120
44,955	-9,980	255,788	121,969
45,969	-9,943	255,600	121,902
46,984	-9,950	255,403	121,791
47,999	-10,130	255,288	121,567
49,013	-10,148	254,950	121,379
50,028	-10,096	254,691	121,291
51,042	-10,140	254,558	121,178
52,057	-10,023	254,266	121,131
53,071	-10,068	254,117	121,009
54,086	-10,157	253,840	120,789
55,101	-10,107	253,728	120,769
56,115	-10,068	253,491	120,679
57,130	-10,010	253,328	120,641
58,144	-9,865	253,003	120,601
59,159	-9,974	252,864	120,430
60,174	-9,929	252,712	120,386
61,188	-9,929	252,459	120,255
62,203	-9,933	252,330	120,179
63,217	-9,819	252,029	120,124
64,232	-9,918	251,874	119,953
65,247	-10,013	251,612	119,735
66,261	-9,961	251,429	119,682
67,276	-9,958	251,102	119,519
68,290	-10,064	251,034	119,385
69,305	-10,154	250,669	119,123
70,320	-10,177	250,529	119,026
71,334	-10,075	250,273	118,982
72,349	-10,008	250,181	118,984
73,363	-10,027	249,920	118,833
74,378	-9,960	249,633	118,744
75,393	-10,057	249,577	118,624
76,407	-10,202	249,480	118,443
77,422	-9,952	249,227	118,526
78,436	-9,994	248,898	118,323
79,451	-10,105	248,832	118,187
80,466	-9,931	248,563	118,196
81,480	-10,060	248,338	117,970
82,495	-9,712	247,959	118,075
83,509	-9,878	248,032	117,958
84,524	-9,889	247,756	117,807
85,539	-10,010	247,537	117,589
86,553	-10,070	247,387	117,456
87,568	-9,895	247,077	117,447
88,582	-10,022	247,075	117,328
89,597	-10,221	246,893	117,063
90,611	-10,210	246,886	117,058
91,626	-9,997	246,380	116,987
92,641	-9,959	246,324	116,983
93,655	-9,975	245,998	116,804
94,670	-9,952	245,835	116,735
95,684	-9,983	245,712	116,641
96,699	-10,069	245,379	116,400
97,714	-10,086	245,264	116,321
98,728	-10,011	245,125	116,308
99,743	-10,090	245,027	116,185
100,757	-9,782	244,587	116,223
101,772	-10,242	244,627	115,847
102,787	-10,151	244,326	115,770
103,801	-10,149	244,182	115,693
104,816	-10,160	244,063	115,617
105,830	-10,105	243,904	115,577
106,845	-10,054	243,557	115,445
107,860	-10,156	243,456	115,303
108,874	-9,981	243,195	115,314
109,889	-10,044	242,921	115,122
110,903	-10,138	242,574	114,869
111,918	-10,281	242,487	114,698
112,933	-10,142	242,360	114,744
113,947	-10,192	242,354	114,689
114,962	-10,182	242,009	114,523
115,976	-10,125	242,045	114,578
116,991	-10,025	241,804	114,536
118,006	-10,050	241,488	114,356
119,020	-10,226	241,538	114,223
120,035	-9,956	241,387	114,365
121,049	-10,080	241,178	114,154
122,064	-10,025	241,083	114,144
123,079	-10,191	240,803	113,865
124,093	-10,144	240,601	113,797
125,108	-10,094	240,427	113,745
126,122	-10,076	240,238	113,661
127,137	-10,087	240,051	113,553
128,151	-10,201	239,855	113,358
129,166	-10,042	239,699	113,404
130,181	-10,170	239,404	113,149
131,195	-10,274	239,349	113,028
132,210	-10,346	239,164	112,873
133,224	-10,313	238,798	112,716
134,239	-10,180	238,662	112,750
135,254	-10,215	238,599	112,682
136,268	-10,140	238,206	112,547
137,283	-10,155	238,104	112,477
138,297	-9,986	237,888	112,502
139,312	-10,338	237,824	112,176
140,327	-10,057	237,543	112,261
141,341	-9,924	237,606	112,388
142,356	-10,004	237,379	112,207
143,370	-10,020	237,233	112,115
144,385	-9,746	236,998	112,215
145,400	-9,828	236,871	112,078
146,414	-9,788	236,621	111,982
147,429	-9,850	236,567	111,897
148,443	-9,976	236,324	111,671
149,458	-9,994	236,034	111,509
150,473	-10,001	235,947	111,452
151,487	-9,980	235,711	111,348
152,502	-9,854	235,649	111,410
153,516	-9,760	235,509	111,409
154,531	-10,023	235,272	111,076
155,546	-9,990	235,110	111,016
156,560	-10,158	235,000	110,820
157,575	-9,878	234,679	110,882
158,589	-9,955	234,487	110,720
159,604	-9,716	234,453	110,885
160,619	-9,835	234,179	110,650
161,633	-9,736	234,353	110,802
162,648	-9,632	233,950	110,685
163,662	-9,963	233,936	110,404
164,677	-10,050	233,600	110,167
165,692	-9,733	233,383	110,306
166,706	-10,001	233,540	110,158
167,721	-9,851	233,313	110,160
168,735	-9,789	233,121	110,109
169,750	-9,955	232,763	109,799
170,764	-9,958	232,651	109,734
171,779	-9,980	232,474	109,623
172,794	-9,991	232,411	109,575
173,808	-9,998	232,133	109,428
174,823	-10,200	231,906	109,152
175,837	-9,972	231,745	109,247
176,852	-10,008	231,633	109,155
177,867	-9,960	231,484	109,113
178,881	-10,119	231,471	108,972
179,896	-9,812	231,190	109,071
180,910	-9,837	231,035	108,969
181,925	-9,848	230,905	108,890
182,940	-9,849	230,664	108,765
183,954	-9,771	230,563	108,769
184,969	-9,727	230,487	108,758
185,983	-9,713	230,342	108,691
186,998	-9,555	230,162	108,719
188,013	-9,675	229,921	108,502
189,027	-9,793	229,847	108,366
190,042	-9,716	229,639	108,318
191,056	-9,888	229,615	108,163
192,071	-10,085	229,401	107,899
193,086	-10,017	229,129	107,814
194,100	-10,685	228,781	107,122
195,115	-11,954	228,006	105,768
196,129	-11,619	228,240	106,126
197,144	-7,178	229,639	110,225
198,159	-1,928	231,164	115,052
199,173	0,855	231,981	117,628
200,188	1,844	232,092	118,446
201,202	2,640	232,059	119,042
202,217	2,987	232,166	119,357
203,232	3,178	231,953	119,385
204,246	3,694	231,716	119,655
205,261	3,175	231,880	119,325
206,275	3,401	231,548	119,319
207,290	3,234	231,451	119,128
208,304	3,317	231,347	119,129
209,319	3,276	231,081	118,949
210,334	3,021	231,015	118,706
211,348	2,877	230,615	118,378
212,363	2,259	230,350	117,753
213,377	2,137	229,952	117,445
214,392	1,966	229,792	117,221
215,407	1,969	229,740	117,186
216,421	2,005	229,539	117,100
217,436	1,798	229,256	116,787
218,450	1,658	229,126	116,602
219,465	1,838	229,151	116,743
220,480	1,652	228,963	116,494
221,494	1,835	228,689	116,484
222,509	1,915	228,597	116,489
223,523	2,161	228,523	116,629
224,538	2,046	228,429	116,483
225,553	2,048	228,122	116,317
226,567	1,903	228,101	116,185
227,582	1,978	227,950	116,156
228,596	2,197	227,693	116,181
229,611	2,065	227,641	116,043
230,626	2,007	227,335	115,833
231,640	1,764	227,250	115,594
232,655	2,010	227,182	115,737
233,669	2,007	226,943	115,602
234,684	1,942	226,930	115,536
235,699	2,239	226,752	115,661
236,713	2,334	226,669	115,681
237,728	1,955	226,501	115,296
238,742	2,308	226,204	115,403
239,757	2,171	226,295	115,335
240,772	1,963	226,070	115,053
241,786	2,398	225,945	115,308
242,801	2,312	225,834	115,176
243,815	2,340	225,657	115,097
244,830	2,498	225,538	115,145
245,844	2,275	225,402	114,897
246,859	2,302	225,147	114,777
247,874	2,224	225,008	114,638
248,888	2,140	224,855	114,486
249,903	2,263	224,799	114,540
250,917	2,036	224,623	114,269
251,932	2,309	224,424	114,363
252,947	2,321	224,219	114,258
253,961	2,217	224,210	114,164
254,976	1,954	224,004	113,852
255,990	2,202	223,863	113,956
257,005	2,182	223,676	113,836
258,020	2,663	223,604	114,149
259,034	2,324	223,572	113,869
260,049	2,365	223,385	113,794
261,063	2,334	223,186	113,660
262,078	2,299	222,985	113,521
263,093	2,395	222,934	113,556
264,107	2,251	222,702	113,320
265,122	2,100	222,717	113,206
266,136	2,337	222,453	113,238
267,151	2,483	222,264	113,240
268,166	2,074	222,211	112,899
269,180	2,068	222,031	112,793
270,195	2,366	221,623	112,796
271,209	2,185	221,696	112,690
272,224	2,051	221,537	112,500
273,239	2,164	221,260	112,432
274,253	2,106	221,194	112,346
275,268	1,987	221,113	112,206
276,282	2,135	220,785	112,140
277,297	1,812	220,848	111,923
278,312	1,901	220,700	111,903
279,326	1,966	220,545	111,863
280,341	2,114	220,430	111,904
281,355	2,010	220,265	111,733
282,370	2,071	220,162	111,716
283,384	1,983	219,949	111,533
284,399	1,957	219,715	111,386
285,414	2,349	219,642	111,626
286,428	2,150	219,588	111,443
287,443	2,205	219,539	111,448
288,457	2,272	219,355	111,394
289,472	2,201	219,199	111,253
290,487	2,203	218,826	111,055
291,501	2,223	218,657	110,974
292,516	2,148	218,658	110,910
293,530	2,274	218,538	110,931
294,545	2,555	218,349	111,030
295,560	2,367	218,439	110,929
296,574	2,570	218,077	110,883
297,589	2,439	217,931	110,704
298,603	2,361	217,994	110,669
299,618	2,307	217,856	110,550
300,633	2,556	217,657	110,620
301,647	2,349	217,596	110,429
302,662	2,288	217,464	110,307
303,676	2,305	217,201	110,177
304,691	2,606	217,023	110,295
305,706	2,448	216,924	110,120
306,720	2,397	216,858	110,040
307,735	2,472	216,498	109,902
308,749	2,179	216,498	109,680
309,764	2,401	216,266	109,713
310,779	2,504	216,079	109,682
311,793	2,339	215,983	109,506
312,808	2,232	216,022	109,438
313,822	2,267	215,764	109,323
314,837	2,330	215,593	109,271
315,852	2,187	215,460	109,092
316,866	2,264	215,311	109,062
317,881	2,323	215,230	109,054
318,895	2,245	215,009	108,876
319,910	2,162	214,822	108,712
320,925	2,042	214,796	108,603
321,939	2,057	214,658	108,534
322,954	2,216	214,472	108,544
323,968	1,963	214,457	108,347
324,983	2,351	214,160	108,464
325,997	2,230	214,085	108,329
327,012	2,275	213,882	108,249
328,027	2,115	213,809	108,088
329,041	2,297	213,747	108,178
330,056	2,245	213,513	108,012
331,070	2,314	213,388	107,988
332,085	2,203	213,116	107,762
333,100	2,375	213,117	107,875
334,114	2,273	213,063	107,766
335,129	2,395	212,868	107,744
336,143	2,088	212,774	107,469
337,158	2,245	212,644	107,505
338,173	2,323	212,451	107,453
339,187	2,388	212,220	107,373
340,202	2,089	212,050	107,067
341,216	2,090	211,985	107,025
342,231	2,201	211,934	107,067
343,246	2,283	211,819	107,058
344,260	2,134	211,734	106,901
345,275	2,278	211,445	106,846
346,289	2,348	211,464	106,895
347,304	2,464	211,272	106,870
348,319	2,298	211,270	106,743
349,333	2,411	211,030	106,692
350,348	1,968	210,789	106,250
351,362	2,370	210,792	106,524
352,377	2,229	210,593	106,315
353,392	2,020	210,461	106,093
354,406	2,198	210,247	106,099
355,421	193,741	1342,003	1424,664
356,435	154,644	1479,911	1424,683
