DTS Sentinel unit serial number:	SN410029Multiplexer serial number:	ORYXHardware model number:	OX2-SRSoftware version number:	ORYX F/W v4,00 Oryx Data Collector v3.7.2.0data status	okinstallation	B6 Nyhavnadifferential loss correction	single-endedforward channel	channel 2reverse channel	N/Adate	2023/12/09time	03:25:08forward acquisition time	300,00reverse acquisition time	0,00gamma	499,1914k internal	0,3153k external	0,3153temperature offset calibration	1,0000default loss term (dB/km)	0,3820temperature slope calibration	1,0000multiplexer offset coefficient	1,0000multiplexer slope coefficient	1,0000fibre end	0,00T internal ref (°C)	16,32T ext. ref 1 (°C)	0,35T ext. ref 2 (°C)	0,35length (m)	temperature (°C)	Stokes	anti-Stokes-744,400	-200,000	-0,034	0,127
-743,385	-69,129	-0,237	0,067
-742,371	800,000	0,043	0,095
-741,356	75,244	-0,185	0,144
-740,342	284,667	0,125	0,167
-739,327	-62,523	-0,190	0,058
-738,312	800,000	0,078	0,190
-737,298	-85,340	-0,253	0,058
-736,283	-42,362	0,159	0,060
-735,269	-120,425	-0,247	-0,031
-734,254	-20,231	0,059	0,027
-733,239	-50,551	-0,538	-0,186
-732,225	-118,179	0,225	0,029
-731,210	-108,736	-0,050	0,008
-730,196	87,095	-0,043	-0,035
-729,181	800,000	-0,054	-0,156
-728,167	267,065	0,061	0,078
-727,152	122,495	0,017	0,015
-726,137	-8,973	-0,100	-0,049
-725,123	-200,000	-0,041	-0,165
-724,108	286,477	0,035	-0,047
-723,094	-145,804	-0,033	-0,002
-722,079	130,789	-0,085	-0,081
-721,064	-110,710	0,185	0,028
-720,050	153,810	0,012	0,012
-719,035	106,565	-0,122	-0,107
-718,021	800,000	0,020	-0,051
-717,006	-110,448	-0,036	0,005
-715,991	79,107	-0,094	-0,074
-714,977	-57,061	0,057	-0,018
-713,962	280,907	0,069	0,091
-712,948	40,637	-0,041	0,027
-711,933	-200,000	0,013	-0,067
-710,918	-200,000	0,010	0,105
-709,904	-200,000	0,001	-0,037
-708,889	-200,000	0,023	-0,208
-707,875	800,000	-0,066	-0,208
-706,860	800,000	0,014	-0,045
-705,845	561,360	-0,070	0,126
-704,831	-200,000	0,011	0,078
-703,816	76,699	-0,074	0,058
-702,802	-200,000	0,007	-0,073
-701,787	616,971	-0,063	-0,118
-700,772	-43,682	0,122	0,045
-699,758	75,596	-0,016	-0,012
-698,743	-45,285	-0,015	-0,005
-697,729	-200,000	-0,031	0,105
-696,714	-200,000	0,007	0,078
-695,699	-47,686	0,060	0,021
-694,685	-170,182	-0,211	-0,005
-693,670	-28,005	-0,093	-0,039
-692,656	57,357	-0,058	-0,042
-691,641	-200,000	-0,011	-0,140
-690,627	800,000	0,021	0,058
-689,612	-121,336	0,121	-0,015
-688,597	319,312	0,058	-0,081
-687,583	-200,000	-0,015	-0,063
-686,568	185,534	-0,087	0,095
-685,554	800,000	0,036	0,075
-684,539	-19,981	-0,083	0,037
-683,524	239,506	-0,049	0,060
-682,510	-100,419	-0,080	0,014
-681,495	800,000	-0,026	0,055
-680,481	168,616	-0,110	0,116
-679,466	-200,000	0,003	-0,102
-678,451	264,603	-0,101	0,130
-677,437	192,791	0,082	-0,091
-676,422	-200,000	0,022	0,160
-675,408	-121,303	0,072	0,009
-674,393	800,000	0,055	0,135
-673,378	779,097	-0,058	-0,117
-672,364	-200,000	-0,006	-0,048
-671,349	800,000	-0,038	-0,087
-670,335	-43,590	-0,073	-0,027
-669,320	800,000	-0,034	0,106
-668,305	-180,337	-0,074	0,001
-667,291	435,275	0,060	-0,097
-666,276	217,422	-0,089	0,105
-665,262	758,265	0,064	-0,129
-664,247	295,628	-0,041	-0,056
-663,232	-91,805	0,023	-0,005
-662,218	-32,029	0,117	0,048
-661,203	800,000	0,029	-0,088
-660,189	428,342	0,027	-0,043
-659,174	800,000	-0,027	-0,064
-658,159	-200,000	-0,002	-0,016
-657,145	162,428	-0,019	-0,019
-656,130	94,902	0,122	-0,102
-655,116	800,000	0,062	0,145
-654,101	-22,475	-0,080	0,036
-653,086	-200,000	-0,022	-0,123
-652,072	-73,775	-0,106	0,028
-651,057	117,785	-0,055	-0,050
-650,043	214,804	-0,062	-0,073
-649,028	336,279	-0,077	-0,110
-648,014	-70,707	0,102	-0,028
-646,999	92,141	0,085	-0,071
-645,984	251,438	0,025	0,031
-644,970	-120,140	0,046	-0,006
-643,955	59,209	-0,112	0,081
-642,941	-49,876	-0,080	-0,028
-641,926	-77,975	0,046	0,011
-640,911	-86,361	0,117	0,026
-639,897	-200,000	-0,034	0,207
-638,882	254,513	-0,105	0,132
-637,868	10,882	-0,062	0,035
-636,853	-200,000	-0,012	-0,073
-635,838	90,011	-0,134	0,110
-634,824	-200,000	0,011	0,047
-633,809	-200,000	-0,025	-0,095
-632,795	507,187	-0,034	-0,058
-631,780	41,340	-0,057	0,038
-630,765	38,258	-0,066	-0,043
-629,751	-200,000	0,008	-0,110
-628,736	800,000	-0,048	-0,112
-627,722	-161,105	0,044	0,002
-626,707	-140,743	-0,082	0,006
-625,692	74,248	0,044	-0,034
-624,678	4,764	0,014	0,008
-623,663	-83,090	-0,030	0,007
-622,649	-41,039	-0,127	-0,048
-621,634	146,659	0,040	-0,040
-620,619	-46,897	0,012	0,004
-619,605	-200,000	-0,001	0,098
-618,590	5,946	-0,057	0,031
-617,576	166,092	-0,075	0,078
-616,561	-61,968	-0,035	-0,011
-615,546	-56,026	-0,181	-0,059
-614,532	-200,000	-0,025	-0,163
-613,517	221,604	-0,041	-0,049
-612,503	60,413	0,112	0,082
-611,488	-151,646	0,121	-0,006
-610,474	375,972	0,090	0,135
-609,459	-200,000	-0,007	-0,129
-608,444	360,138	-0,096	-0,142
-607,430	-200,000	-0,024	0,097
-606,415	-131,977	-0,037	-0,003
-605,401	-49,975	-0,022	0,008
-604,386	-144,517	0,198	0,013
-603,371	-81,414	-0,118	0,028
-602,357	800,000	0,047	-0,137
-601,342	-61,053	-0,068	-0,021
-600,328	334,258	-0,023	0,032
-599,313	-12,199	-0,137	-0,065
-598,298	203,138	0,113	-0,128
-597,284	-200,000	0,006	0,056
-596,269	-200,000	0,009	-0,151
-595,255	800,000	0,023	0,060
-594,240	800,000	-0,058	-0,138
-593,225	-200,000	0,003	0,082
-592,211	-12,160	-0,074	-0,035
-591,196	73,101	-0,121	-0,093
-590,182	314,090	-0,078	0,109
-589,167	-58,653	0,049	0,016
-588,152	152,065	-0,038	0,038
-587,138	800,000	0,039	0,086
-586,123	800,000	0,016	-0,044
-585,109	-99,602	-0,059	0,011
-584,094	800,000	-0,027	0,076
-583,079	-29,130	0,094	0,039
-582,065	-158,030	0,094	0,004
-581,050	800,000	-0,023	-0,060
-580,036	-200,000	-0,007	0,091
-579,021	800,000	0,026	-0,074
-578,006	63,758	-0,058	-0,043
-576,992	-11,990	0,107	0,051
-575,977	-6,482	0,104	-0,052
-574,963	-200,000	0,003	0,066
-573,948	800,000	0,036	0,083
-572,934	-0,215	-0,105	0,054
-571,919	197,927	-0,061	0,069
-570,904	743,481	-0,033	-0,066
-569,890	-17,090	-0,108	-0,050
-568,875	32,481	-0,099	0,063
-567,861	697,476	0,038	0,073
-566,846	484,286	0,068	0,113
-565,831	-11,577	0,065	0,031
-564,817	-200,000	0,070	0,000
-563,802	1,072	-0,111	-0,058
-562,788	-200,000	0,038	-0,210
-561,773	-200,000	0,020	0,113
-560,758	386,779	0,058	0,089
-559,744	23,248	0,139	-0,083
-558,729	-200,000	0,005	-0,041
-557,715	350,835	0,037	-0,054
-556,700	469,465	-0,099	-0,163
-555,685	64,369	0,108	-0,080
-554,671	23,628	0,046	-0,028
-553,656	800,000	0,018	-0,041
-552,642	-124,233	0,149	0,017
-551,627	10,397	0,094	-0,052
-550,612	-200,000	-0,031	0,188
-549,598	-123,544	-0,089	-0,010
-548,583	-144,300	-0,148	0,010
-547,569	89,053	-0,133	0,108
-546,554	379,732	0,043	0,064
-545,539	800,000	0,029	0,068
-544,525	93,409	-0,074	-0,061
-543,510	96,105	-0,123	-0,103
-542,496	-150,758	0,105	0,006
-541,481	-130,003	-0,038	-0,004
-540,466	-200,000	0,009	0,039
-539,452	-170,502	-0,048	-0,001
-538,437	-200,000	0,023	-0,089
-537,423	800,000	0,034	0,107
-536,408	28,212	-0,112	-0,069
-535,393	800,000	-0,011	0,034
-534,379	-124,779	0,113	-0,013
-533,364	-49,747	-0,160	-0,055
-532,350	-84,333	-0,075	-0,017
-531,335	-200,000	0,017	0,081
-530,321	-28,546	0,047	0,020
-529,306	-97,032	-0,041	-0,008
-528,291	-186,460	-0,098	0,001
-527,277	561,417	-0,033	0,058
-526,262	200,909	0,078	-0,088
-525,248	-63,909	0,090	0,027
-524,233	-102,505	0,060	-0,010
-523,218	704,362	-0,062	0,120
-522,204	16,769	0,076	0,044
-521,189	-25,664	0,075	0,032
-520,175	-200,000	0,025	-0,094
-519,160	170,697	-0,034	0,036
-518,145	-65,128	-0,076	-0,022
-517,131	-106,198	0,066	-0,011
-516,116	664,881	0,017	-0,032
-515,102	-200,000	0,009	-0,066
-514,087	481,014	0,077	-0,129
-513,072	645,920	0,039	-0,073
-512,058	-200,000	0,009	-0,098
-511,043	-143,349	-0,100	0,007
-510,029	-200,000	0,003	0,083
-509,014	-200,000	0,021	0,091
-507,999	-200,000	0,003	-0,102
-506,985	-8,805	0,032	0,016
-505,970	-111,200	-0,084	-0,013
-504,956	123,888	-0,063	0,058
-503,941	13,396	0,065	0,037
-502,926	-81,903	0,109	0,026
-501,912	203,904	0,066	0,075
-500,897	-78,057	-0,068	-0,017
-499,883	800,000	-0,127	-0,269
-498,868	800,000	-0,078	-0,162
-497,853	-100,775	0,128	0,023
-496,839	800,000	0,044	0,101
-495,824	151,811	-0,039	-0,039
-494,810	-200,000	0,004	0,119
-493,795	-200,000	0,013	0,146
-492,781	147,053	-0,111	0,109
-491,766	49,509	0,053	0,037
-490,751	-97,560	0,067	0,013
-489,737	-158,886	-0,075	0,003
-488,722	-50,865	0,141	-0,048
-487,708	-200,000	0,027	0,136
-486,693	122,250	0,042	-0,038
-485,678	-200,000	-0,006	0,087
-484,664	289,671	-0,056	-0,074
-483,649	222,552	-0,078	-0,092
-482,635	-200,000	0,013	0,112
-481,620	-70,843	0,065	0,018
-480,605	-40,047	-0,021	-0,008
-479,591	-200,000	-0,032	0,110
-478,576	-119,345	0,020	0,002
-477,562	-113,618	0,215	0,030
-476,547	800,000	-0,129	-0,266
-475,532	-200,000	-0,004	-0,079
-474,518	790,887	0,022	0,045
-473,503	-200,000	-0,062	-0,200
-472,489	155,218	0,062	0,062
-471,474	-142,139	-0,057	-0,004
-470,459	-14,456	-0,147	-0,069
-469,445	-200,000	0,003	0,137
-468,430	-161,287	-0,107	0,004
-467,416	535,395	0,040	0,070
-466,401	800,000	-0,011	-0,028
-465,386	57,145	-0,087	-0,062
-464,372	800,000	-0,089	-0,205
-463,357	82,979	-0,146	-0,116
-462,343	-10,179	-0,075	0,036
-461,328	123,031	0,076	0,069
-460,313	79,378	0,152	0,119
-459,299	-200,000	-0,007	0,109
-458,284	198,572	0,038	0,042
-457,270	46,372	0,081	-0,055
-456,255	800,000	-0,039	-0,091
-455,241	800,000	-0,049	-0,106
-454,226	-146,516	0,024	-0,002
-453,211	590,249	0,029	0,053
-452,197	290,526	-0,021	-0,028
-451,182	315,880	-0,027	0,037
-450,168	291,307	-0,082	0,110
-449,153	-57,729	0,025	-0,008
-448,138	304,096	-0,043	-0,059
-447,124	214,141	0,108	-0,125
-446,109	-155,335	-0,051	0,002
-445,095	-40,607	-0,016	-0,006
-444,080	-96,246	-0,035	0,007
-443,065	151,246	0,018	0,018
-442,051	-200,000	0,008	-0,054
-441,036	-200,000	-0,001	-0,033
-440,022	160,929	0,018	0,018
-439,007	-121,207	-0,114	-0,014
-437,992	478,531	0,063	-0,104
-436,978	30,725	0,073	-0,045
-435,963	800,000	0,011	0,028
-434,949	-200,000	0,000	0,068
-433,934	268,285	-0,048	-0,062
-432,919	-30,343	0,087	0,036
-431,905	365,094	-0,012	0,018
-430,890	-200,000	-0,010	0,067
-429,876	-106,340	0,085	-0,014
-428,861	800,000	-0,024	0,058
-427,846	182,378	0,032	0,034
-426,832	800,000	0,095	-0,217
-425,817	-200,000	-0,001	-0,039
-424,803	9,884	-0,045	-0,025
-423,788	48,991	0,091	0,062
-422,773	140,803	-0,028	0,027
-421,759	800,000	0,056	0,121
-420,744	-16,793	-0,019	0,009
-419,730	-86,196	-0,050	-0,011
-418,715	75,574	0,048	0,037
-417,701	-27,576	-0,069	0,029
-416,686	-200,000	0,015	0,091
-415,671	-111,558	0,066	-0,010
-414,657	800,000	0,041	0,117
-413,642	36,453	0,048	-0,031
-412,628	-200,000	-0,013	0,066
-411,613	62,297	0,020	-0,015
-410,598	28,251	-0,137	-0,084
-409,584	-97,670	0,103	-0,019
-408,569	-82,879	0,017	0,004
-407,555	-86,830	0,056	-0,012
-406,540	277,566	-0,079	-0,102
-405,525	497,768	0,049	-0,082
-404,511	50,370	-0,073	0,050
-403,496	-97,669	0,062	-0,012
-402,482	292,903	-0,004	0,005
-401,467	-52,830	0,113	0,038
-400,452	513,118	-0,074	0,126
-399,438	514,194	0,053	0,090
-398,423	179,162	0,022	-0,023
-397,409	-98,233	0,045	0,008
-396,394	679,707	0,056	0,106
-395,379	-200,000	-0,005	-0,024
-394,365	-130,416	-0,014	0,001
-393,350	-200,000	-0,003	0,132
-392,336	432,326	0,046	0,073
-391,321	209,839	-0,040	-0,045
-390,306	-200,000	-0,014	-0,224
-389,292	-200,000	0,018	-0,086
-388,277	23,675	-0,034	0,020
-387,263	-102,022	-0,165	0,029
-386,248	-200,000	0,025	0,084
-385,233	-200,000	0,028	0,146
-384,219	-200,000	-0,019	-0,154
-383,204	-12,600	-0,079	-0,037
-382,190	-114,214	-0,164	0,023
-381,175	800,000	0,046	0,140
-380,160	-200,000	0,036	0,147
-379,146	-200,000	-0,021	0,144
-378,131	671,565	0,041	0,078
-377,117	220,821	-0,047	0,055
-376,102	-46,524	-0,035	0,012
-375,088	440,921	0,118	-0,188
-374,073	344,796	0,034	-0,048
-373,058	-200,000	0,012	0,088
-372,044	203,693	-0,017	-0,019
-371,029	193,148	0,090	-0,099
-370,015	241,415	-0,098	-0,120
-369,000	-200,000	-0,001	-0,092
-367,985	732,176	0,039	0,077
-366,971	-200,000	0,005	0,057
-365,956	-200,000	-0,003	0,016
-364,942	-103,700	-0,070	0,012
-363,927	-198,225	0,112	0,000
-362,912	800,000	0,044	0,133
-361,898	-141,207	-0,066	-0,005
-360,883	646,924	0,047	-0,088
-359,869	185,885	-0,092	-0,099
-358,854	38,803	0,102	0,066
-357,839	-200,000	-0,005	0,049
-356,825	249,663	0,069	0,086
-355,810	412,560	-0,093	0,145
-354,796	-112,748	-0,110	0,016
-353,781	371,302	0,059	0,088
-352,766	-200,000	-0,005	0,039
-351,752	348,851	0,067	-0,097
-350,737	800,000	0,052	0,126
-349,723	-87,525	0,085	0,018
-348,708	55,587	0,049	-0,035
-347,693	-127,111	-0,141	0,015
-346,679	67,095	-0,054	-0,040
-345,664	-200,000	-0,027	0,202
-344,650	-110,229	-0,046	-0,007
-343,635	-200,000	0,006	0,041
-342,620	-121,375	-0,124	0,015
-341,606	-55,159	0,106	0,034
-340,591	197,423	-0,091	0,101
-339,577	47,665	-0,013	-0,009
-338,562	146,673	-0,082	0,080
-337,548	194,463	-0,045	-0,050
-336,533	-52,022	0,117	-0,039
-335,518	-90,784	0,165	0,034
-334,504	-200,000	0,016	0,107
-333,489	-120,305	-0,035	0,004
-332,475	-200,000	0,025	-0,080
-331,460	86,617	-0,067	-0,053
-330,445	-200,000	-0,024	-0,138
-329,431	15,174	0,041	0,023
-328,416	-2,828	0,085	-0,043
-327,402	800,000	0,034	0,085
-326,387	-52,609	0,115	-0,038
-325,372	800,000	-0,053	0,108
-324,358	-200,000	-0,003	0,069
-323,343	72,494	0,067	0,050
-322,329	-106,840	-0,106	0,017
-321,314	-25,109	0,067	0,029
-320,299	262,558	-0,068	0,085
-319,285	594,725	0,064	-0,116
-318,270	341,960	0,074	0,105
-317,256	380,457	0,029	0,043
-316,241	-165,063	-0,095	0,003
-315,226	-157,686	0,109	-0,005
-314,212	-200,000	0,007	0,169
-313,197	37,878	0,092	-0,059
-312,183	523,486	0,080	-0,137
-311,168	20,080	0,080	-0,047
-310,153	-144,129	-0,053	0,004
-309,139	449,210	0,007	0,012
-308,124	9,917	-0,058	-0,032
-307,110	-18,713	0,068	-0,031
-306,095	-133,261	0,127	-0,011
-305,080	21,954	0,037	0,022
-304,066	209,293	-0,095	0,108
-303,051	-200,000	-0,003	-0,044
-302,037	356,621	-0,065	-0,094
-301,022	-28,096	0,066	0,028
-300,008	-200,000	-0,025	-0,100
-298,993	800,000	0,021	0,057
-297,978	-200,000	-0,010	0,033
-296,964	-32,650	0,074	0,030
-295,949	628,500	-0,105	-0,194
-294,935	-9,006	0,077	-0,037
-293,920	800,000	-0,047	0,137
-292,905	-163,600	0,113	0,004
-291,891	4,977	0,073	0,039
-290,876	-200,000	-0,019	0,082
-289,862	800,000	-0,017	-0,049
-288,847	-53,499	-0,096	0,032
-287,832	-139,473	0,058	-0,004
-286,818	-3,270	0,122	-0,061
-285,803	-200,000	0,004	-0,089
-284,789	98,095	0,109	-0,091
-283,774	-200,000	0,017	-0,068
-282,759	-200,000	-0,012	-0,137
-281,745	-66,699	0,090	0,026
-280,730	269,283	0,010	0,013
-279,716	-67,520	-0,050	-0,014
-278,701	365,507	0,081	0,118
-277,686	800,000	-0,018	0,046
-276,672	-200,000	0,004	-0,138
-275,657	243,808	0,049	0,059
-274,643	-200,000	-0,022	-0,175
-273,628	800,000	-0,053	-0,146
-272,613	625,467	-0,076	-0,140
-271,599	-155,283	0,138	-0,006
-270,584	-200,000	0,035	0,116
-269,570	30,603	0,111	0,069
-268,555	-200,000	0,022	0,155
-267,540	-133,843	-0,087	0,008
-266,526	93,598	0,052	0,043
-265,511	-40,395	-0,068	-0,025
-264,497	399,277	0,073	-0,111
-263,482	800,000	0,023	-0,062
-262,467	94,715	0,024	-0,019
-261,453	-200,000	0,016	-0,054
-260,438	800,000	-0,030	-0,092
-259,424	228,024	-0,099	-0,117
-258,409	19,498	-0,038	-0,022
-257,395	61,132	-0,076	-0,055
-256,380	313,227	0,059	0,081
-255,365	31,767	0,046	0,028
-254,351	202,437	-0,041	-0,046
-253,336	778,014	0,041	-0,082
-252,322	-90,354	-0,057	-0,012
-251,307	-65,365	0,090	0,026
-250,292	7,267	-0,087	0,047
-249,278	800,000	0,030	-0,072
-248,263	221,915	-0,055	0,065
-247,249	800,000	-0,065	0,176
-246,234	59,326	-0,161	-0,114
-245,219	800,000	0,017	-0,043
-244,205	800,000	-0,037	0,093
-243,190	-46,985	0,054	-0,019
-242,176	-200,000	0,018	0,086
-241,161	-148,996	0,122	0,007
-240,146	160,425	-0,076	0,077
-239,132	184,210	0,076	0,081
-238,117	-200,000	-0,045	-0,217
-237,103	-200,000	-0,002	0,033
-236,088	122,929	0,039	-0,035
-235,073	92,829	-0,069	-0,056
-234,059	800,000	-0,043	0,103
-233,044	503,283	0,059	-0,100
-232,030	764,869	0,012	-0,024
-231,015	-200,000	0,002	0,016
-230,000	-200,000	-0,024	-0,083
-228,986	67,464	0,062	0,046
-227,971	328,247	0,016	-0,022
-226,957	800,000	0,041	0,084
-225,942	-47,238	-0,104	0,037
-224,927	63,151	-0,085	-0,062
-223,913	510,156	-0,022	-0,037
-222,898	470,487	0,039	-0,063
-221,884	-200,000	0,024	-0,115
-220,869	231,275	0,052	-0,061
-219,855	113,621	0,072	0,063
-218,840	-29,863	0,120	0,049
-217,825	-123,876	-0,079	0,009
-216,811	783,505	-0,044	-0,088
-215,796	464,447	0,023	-0,038
-214,782	-9,501	-0,062	-0,030
-213,767	-134,026	0,120	-0,011
-212,752	-200,000	-0,019	0,071
-211,738	-200,000	0,029	0,097
-210,723	-42,583	-0,037	-0,014
-209,709	800,000	0,029	-0,089
-208,694	27,216	-0,080	0,049
-207,679	62,911	0,101	0,073
-206,665	64,868	-0,026	0,019
-205,650	-153,770	0,048	-0,002
-204,636	-200,000	-0,026	0,099
-203,621	19,964	-0,093	0,054
-202,606	123,723	0,108	-0,098
-201,592	327,307	-0,093	-0,130
-200,577	-200,000	-0,014	-0,094
-199,563	-38,281	0,134	-0,051
-198,548	800,000	0,034	-0,097
-197,533	708,039	-0,073	0,140
-196,519	800,000	0,023	0,047
-195,504	-102,574	0,022	0,004
-194,490	-120,531	-0,046	-0,006
-193,475	-123,876	-0,130	-0,015
-192,460	-133,987	-0,078	-0,007
-191,446	-200,000	-0,005	0,094
-190,431	412,433	0,079	0,122
-189,417	-200,000	0,001	0,061
-188,402	76,319	-0,113	0,086
-187,387	565,877	-0,083	-0,147
-186,373	65,167	-0,051	-0,037
-185,358	-130,822	-0,092	0,009
-184,344	-200,000	0,005	0,152
-183,329	-200,000	0,017	-0,105
-182,315	-200,000	-0,009	0,055
-181,300	84,010	0,057	0,045
-180,285	-26,952	0,133	-0,056
-179,271	-200,000	-0,000	-0,003
-178,256	-200,000	-0,011	0,036
-177,242	-200,000	-0,023	-0,129
-176,227	197,712	0,070	0,077
-175,212	46,412	-0,140	0,094
-174,198	-4,167	-0,107	-0,053
-173,183	-155,813	0,071	-0,003
-172,169	29,013	-0,039	0,024
-171,154	-200,000	0,004	-0,062
-170,139	220,172	0,079	0,092
-169,125	183,862	0,023	0,025
-168,110	-116,999	0,096	0,013
-167,096	-57,998	0,111	-0,035
-166,081	7,095	-0,127	-0,068
-165,066	-200,000	-0,043	-0,142
-164,052	-56,876	0,067	-0,021
-163,037	89,882	-0,091	-0,073
-162,023	75,576	0,092	0,070
-161,008	-200,000	-0,036	0,137
-159,993	-51,729	-0,065	-0,022
-158,979	-200,000	-0,004	0,096
-157,964	-56,989	-0,169	-0,053
-156,950	800,000	-0,038	-0,084
-155,935	-135,096	0,057	0,005
-154,920	-200,000	-0,005	0,055
-153,906	77,046	-0,037	0,028
-152,891	6,789	0,116	-0,062
-151,877	-107,040	0,039	-0,006
-150,862	-200,000	0,003	-0,114
-149,847	-200,000	-0,012	0,102
-148,833	-200,000	-0,021	-0,099
-147,818	800,000	-0,013	0,028
-146,804	586,327	-0,020	0,036
-145,789	237,016	-0,039	0,047
-144,775	56,347	0,062	-0,044
-143,760	-200,000	0,013	-0,083
-142,745	-98,124	-0,130	0,024
-141,731	126,411	0,119	0,108
-140,716	-200,000	-0,005	0,035
-139,702	-37,730	-0,074	0,028
-138,687	322,753	-0,068	0,094
-137,672	-200,000	-0,051	-0,170
-136,658	-14,394	-0,042	-0,019
-135,643	-132,738	-0,189	0,017
-134,629	-26,565	0,154	-0,065
-133,614	-200,000	0,000	-0,050
-132,599	800,000	0,062	0,136
-131,585	-200,000	0,008	0,053
-130,570	-119,269	-0,186	0,023
-129,556	649,310	-0,054	-0,100
-128,541	800,000	-0,056	-0,140
-127,526	-96,558	0,100	0,019
-126,512	104,044	0,060	0,051
-125,497	423,106	0,068	0,105
-124,483	2,139	-0,079	-0,041
-123,468	25,356	0,130	-0,078
-122,453	-50,314	0,135	-0,046
-121,439	422,561	-0,091	-0,141
-120,424	-200,000	-0,008	0,063
-119,410	-138,730	-0,125	0,010
-118,395	639,084	-0,064	0,119
-117,380	-160,638	-0,020	-0,001
-116,366	-118,729	-0,088	0,011
-115,351	36,722	0,083	0,053
-114,337	-29,096	-0,136	-0,056
-113,322	800,000	0,031	-0,068
-112,307	-65,149	0,103	-0,030
-111,293	-200,000	0,041	0,203
-110,278	-90,308	0,138	0,029
-109,264	187,596	0,063	0,068
-108,249	203,754	-0,090	-0,101
-107,234	517,991	-0,059	-0,100
-106,220	800,000	0,063	0,134
-105,205	800,000	0,016	-0,038
-104,191	-200,000	0,018	0,094
-103,176	-51,669	0,121	-0,040
-102,162	716,397	-0,043	0,083
-101,147	206,697	-0,069	-0,077
-100,132	-90,616	-0,147	-0,030
-99,118	137,774	0,085	0,080
-98,103	-200,000	-0,011	0,128
-97,089	800,000	0,008	0,023
-96,074	-70,594	0,113	-0,030
-95,059	67,821	-0,007	-0,005
-94,045	37,201	-0,124	-0,079
-93,030	-200,000	0,001	-0,214
-92,016	793,169	-0,060	-0,120
-91,001	-105,166	0,080	-0,013
-89,986	-110,980	-0,031	0,005
-88,972	63,632	0,047	0,034
-87,957	-200,000	0,004	0,019
-86,943	115,603	0,043	0,038
-85,928	351,954	-0,077	-0,110
-84,913	800,000	-0,011	-0,026
-83,899	101,145	-0,042	0,035
-82,884	141,160	0,141	-0,134
-81,870	360,932	-0,090	0,130
-80,855	-200,000	0,009	0,056
-79,840	278,246	-0,016	-0,020
-78,826	201,986	-0,076	-0,084
-77,811	-71,377	-0,036	-0,010
-76,797	30,573	0,081	0,050
-75,782	-1,230	0,193	0,098
-74,767	-78,906	0,011	0,003
-73,753	198,208	0,030	0,033
-72,738	-23,966	0,034	-0,014
-71,724	91,764	0,023	0,019
-70,709	-200,000	0,010	0,151
-69,694	164,046	-0,036	0,036
-68,680	-200,000	-0,014	0,069
-67,665	10,951	0,172	0,094
-66,651	800,000	0,061	0,166
-65,636	15,470	-0,131	0,074
-64,622	111,255	-0,064	-0,056
-63,607	402,249	0,030	0,045
-62,592	800,000	-0,028	-0,078
-61,578	-161,230	-0,083	0,003
-60,563	-200,000	0,018	0,130
-59,549	-85,197	-0,112	-0,025
-58,534	-4,155	-1,853	-0,919
-57,519	-200,000	-0,269	-0,956
-56,505	-200,000	-1,281	-4,874
-55,490	-12,803	0,651	0,304
-54,476	800,000	5,448	12,445
-53,461	-200,000	17,068	274,057
-52,446	800,000	718,030	2184,940
-51,432	529,010	1631,886	2778,833
-50,417	112,120	1626,603	1412,508
-49,403	75,643	1286,747	975,746
-48,388	33,091	1032,160	641,515
-47,373	20,201	994,078	575,117
-46,359	18,858	982,533	563,983
-45,344	16,621	978,264	554,149
-44,330	16,743	977,018	553,824
-43,315	16,463	975,056	551,769
-42,300	16,378	974,332	551,058
-41,286	16,375	973,182	550,376
-40,271	16,334	972,292	549,718
-39,257	16,361	971,437	549,301
-38,242	16,413	970,657	549,008
-37,227	16,364	969,635	548,249
-36,213	16,367	968,919	547,831
-35,198	16,347	967,969	547,206
-34,184	16,363	967,362	546,895
-33,169	16,257	966,364	545,963
-32,154	16,353	965,202	545,597
-31,140	16,300	964,592	545,058
-30,125	16,399	963,689	544,847
-29,111	16,384	962,822	544,287
-28,096	16,343	962,321	543,849
-27,082	16,345	961,636	543,449
-26,067	16,266	961,151	542,897
-25,052	16,355	959,956	542,488
-24,038	16,350	959,268	542,061
-23,023	16,363	958,607	541,707
-22,009	16,389	957,959	541,405
-20,994	16,394	957,237	540,990
-19,979	16,385	956,851	540,724
-18,965	16,328	956,019	540,046
-17,950	16,376	955,682	539,990
-16,936	16,320	954,813	539,298
-15,921	16,291	954,140	538,803
-14,906	16,205	953,556	538,177
-13,892	16,197	952,989	537,809
-12,877	16,250	952,217	537,523
-11,863	16,218	951,639	537,072
-10,848	16,243	951,004	536,773
-9,833	16,349	950,507	536,809
-8,819	16,272	949,820	536,152
-7,804	16,186	949,239	535,528
-6,790	16,223	948,559	535,242
-5,775	16,321	947,906	535,167
-4,760	16,275	947,280	534,646
-3,746	16,253	946,665	534,207
-2,731	16,096	946,161	533,400
-1,717	16,070	945,286	532,804
-0,702	16,038	944,763	532,386
0,313	15,905	944,126	532,409
1,327	19,356	942,102	542,155
2,342	28,789	796,998	483,726
3,356	25,843	449,287	268,257
4,371	-3,868	296,902	147,434
5,386	-8,053	278,208	134,155
6,400	-9,212	272,706	130,408
7,415	-9,358	270,333	129,127
8,429	-9,226	268,901	128,552
9,444	-9,628	268,146	127,811
10,459	-9,509	267,416	127,561
11,473	-9,807	266,900	127,030
12,488	-9,941	266,370	126,645
13,502	-10,036	265,852	126,300
14,517	-9,911	265,307	126,144
15,531	-9,844	264,829	125,966
16,546	-9,915	264,505	125,737
17,561	-10,012	264,072	125,431
18,575	-9,761	263,667	125,455
19,590	-10,020	263,371	125,069
20,604	-10,197	263,148	124,792
21,619	-9,991	262,686	124,748
22,634	-10,221	262,533	124,457
23,648	-10,210	262,128	124,264
24,663	-10,254	261,910	124,110
25,677	-10,219	261,588	123,978
26,692	-10,199	261,413	123,902
27,707	-10,190	261,211	123,803
28,721	-10,227	260,852	123,589
29,736	-10,188	260,515	123,453
30,750	-10,208	260,257	123,302
31,765	-10,201	260,042	123,195
32,780	-10,374	259,755	122,894
33,794	-10,178	259,534	122,953
34,809	-10,280	259,372	122,775
35,823	-10,145	258,999	122,706
36,838	-10,274	258,738	122,458
37,853	-10,489	258,642	122,212
38,867	-10,382	258,363	122,163
39,882	-10,187	257,977	122,142
40,896	-10,215	257,763	122,005
41,911	-10,400	257,488	121,701
42,926	-10,398	257,376	121,639
43,940	-10,366	257,235	121,590
44,955	-10,375	256,887	121,406
45,969	-10,607	256,747	121,126
46,984	-10,587	256,404	120,971
47,999	-10,864	256,026	120,540
49,013	-11,062	255,880	120,287
50,028	-11,006	255,450	120,124
51,042	-11,293	255,385	119,832
52,057	-11,368	255,080	119,612
53,071	-11,041	254,911	119,807
54,086	-11,035	254,710	119,707
55,101	-10,917	254,477	119,690
56,115	-10,668	254,487	119,900
57,130	-10,216	254,493	120,285
58,144	-9,954	254,287	120,403
59,159	-9,993	254,110	120,276
60,174	-9,967	253,724	120,105
61,188	-9,952	253,556	120,027
62,203	-10,165	253,485	119,799
63,217	-10,068	253,199	119,737
64,232	-10,284	252,944	119,419
65,247	-9,875	252,695	119,643
66,261	-10,021	252,596	119,460
67,276	-10,316	252,085	118,954
68,290	-10,806	251,922	118,446
69,305	-10,804	251,590	118,281
70,320	-10,573	251,406	118,382
71,334	-10,322	251,492	118,627
72,349	-10,050	251,347	118,781
73,363	-9,970	251,027	118,688
74,378	-9,899	250,873	118,665
75,393	-10,223	250,724	118,308
76,407	-10,125	250,267	118,164
77,422	-10,255	250,293	118,055
78,436	-10,119	249,948	117,998
79,451	-10,074	249,861	117,984
80,466	-10,358	249,583	117,601
81,480	-10,410	249,322	117,424
82,495	-10,554	249,009	117,143
83,509	-10,617	248,989	117,071
84,524	-10,551	248,717	116,989
85,539	-10,712	248,476	116,728
86,553	-10,590	248,225	116,704
87,568	-10,654	248,211	116,632
88,582	-10,536	247,885	116,567
89,597	-10,692	247,770	116,372
90,611	-10,310	247,557	116,583
91,626	-10,297	247,433	116,525
92,641	-10,251	247,310	116,495
93,655	-10,454	247,081	116,207
94,670	-10,455	246,687	116,011
95,684	-10,491	246,590	115,925
96,699	-10,437	246,594	115,961
97,714	-10,508	246,324	115,764
98,728	-10,610	245,946	115,491
99,743	-10,889	245,983	115,264
100,757	-10,710	245,542	115,197
101,772	-10,590	245,550	115,291
102,787	-10,513	245,429	115,288
103,801	-10,583	245,273	115,146
104,816	-10,315	244,945	115,205
105,830	-10,120	244,878	115,325
106,845	-9,960	244,578	115,307
107,860	-10,250	244,542	115,039
108,874	-10,562	244,309	114,659
109,889	-10,353	244,193	114,768
110,903	-10,694	243,813	114,297
111,918	-10,568	243,625	114,304
112,933	-10,438	243,459	114,322
113,947	-10,233	243,386	114,447
114,962	-10,249	243,197	114,335
115,976	-10,209	242,974	114,253
116,991	-10,379	242,861	114,049
118,006	-10,213	242,648	114,076
119,020	-10,182	242,448	113,998
120,035	-10,234	242,487	113,963
121,049	-10,081	242,283	113,983
122,064	-10,161	241,950	113,750
123,079	-10,386	241,914	113,538
124,093	-10,320	241,542	113,407
125,108	-10,511	241,407	113,178
126,122	-10,607	241,090	112,940
127,137	-10,776	240,866	112,687
128,151	-10,721	240,767	112,676
129,166	-10,758	240,774	112,639
130,181	-10,634	240,298	112,508
131,195	-10,725	240,146	112,352
132,210	-10,515	240,107	112,495
133,224	-10,240	239,981	112,650
134,239	-10,313	239,931	112,557
135,254	-10,274	239,605	112,425
136,268	-10,426	239,475	112,231
137,283	-10,558	239,035	111,908
138,297	-10,807	238,868	111,618
139,312	-10,729	238,597	111,545
140,327	-10,452	238,790	111,849
141,341	-10,025	238,751	112,166
142,356	-9,782	238,555	112,260
143,370	-9,946	238,420	112,055
144,385	-9,842	238,204	112,027
145,400	-9,883	238,050	111,911
146,414	-9,783	237,801	111,865
147,429	-9,929	237,687	111,684
148,443	-9,917	237,485	111,589
149,458	-9,744	237,219	111,592
150,473	-9,905	237,116	111,405
151,487	-9,807	236,896	111,370
152,502	-10,059	236,722	111,077
153,516	-9,770	236,582	111,232
154,531	-9,963	236,508	111,033
155,546	-10,069	236,216	110,801
156,560	-9,875	236,040	110,864
157,575	-10,052	235,866	110,631
158,589	-9,979	235,672	110,589
159,604	-9,821	235,605	110,673
160,619	-9,782	235,527	110,658
161,633	-9,731	235,250	110,558
162,648	-9,720	235,216	110,541
163,662	-10,021	234,815	110,104
164,677	-10,128	234,834	110,018
165,692	-9,834	234,641	110,151
166,706	-9,811	234,491	110,088
167,721	-9,723	234,346	110,081
168,735	-9,524	234,129	110,126
169,750	-9,772	234,134	109,923
170,764	-9,720	233,972	109,878
171,779	-9,798	233,827	109,739
172,794	-9,692	233,584	109,698
173,808	-9,949	233,258	109,333
174,823	-10,435	232,946	108,795
175,837	-10,642	232,871	108,587
176,852	-10,113	232,866	108,991
177,867	-9,794	232,755	109,179
178,881	-9,708	232,584	109,158
179,896	-9,620	232,421	109,140
180,910	-9,753	232,352	108,994
181,925	-9,648	232,159	108,975
182,940	-9,672	231,935	108,842
183,954	-9,622	232,014	108,909
184,969	-9,516	231,788	108,876
185,983	-9,685	231,629	108,660
186,998	-9,470	231,380	108,701
188,013	-9,506	231,314	108,632
189,027	-9,604	231,169	108,477
190,042	-9,533	230,974	108,432
191,056	-9,330	230,668	108,437
192,071	-9,456	230,739	108,362
193,086	-9,542	230,473	108,161
194,100	-9,379	230,331	108,210
195,115	-9,198	230,301	108,328
196,129	-9,019	230,352	108,481
197,144	-4,572	231,822	112,634
198,159	0,389	233,165	117,159
199,173	3,047	233,948	119,625
200,188	3,702	233,985	120,146
201,202	3,512	233,813	119,898
202,217	3,764	233,716	120,035
203,232	3,969	233,394	120,019
204,246	3,855	233,531	119,990
205,261	4,258	233,274	120,161
206,275	4,322	233,179	120,151
207,290	4,285	233,002	120,020
208,304	4,124	232,973	119,869
209,319	4,218	232,729	119,806
210,334	4,045	232,476	119,531
211,348	3,899	232,241	119,286
212,363	3,674	231,959	118,957
213,377	3,216	231,851	118,536
214,392	3,490	231,662	118,640
215,407	3,670	231,473	118,672
216,421	3,391	231,254	118,334
217,436	3,637	231,215	118,493
218,450	3,339	230,964	118,124
219,465	3,233	230,676	117,885
220,480	3,084	230,740	117,793
221,494	3,274	230,522	117,816
222,509	3,335	230,454	117,818
223,523	3,440	230,400	117,861
224,538	3,585	229,996	117,755
225,553	3,404	230,098	117,658
226,567	3,439	229,952	117,599
227,582	3,599	229,855	117,662
228,596	3,865	229,660	117,756
229,611	3,655	229,394	117,448
230,626	3,252	229,220	117,040
231,640	3,212	229,103	116,939
232,655	3,667	228,941	117,194
233,669	3,937	229,044	117,442
234,684	4,188	228,755	117,476
235,699	3,605	228,657	116,970
236,713	3,570	228,450	116,827
237,728	3,456	228,211	116,607
238,742	3,262	227,956	116,319
239,757	3,644	227,743	116,490
240,772	3,374	227,672	116,239
241,786	3,375	227,646	116,216
242,801	3,521	227,538	116,261
243,815	3,844	227,458	116,455
244,830	3,909	227,280	116,403
245,844	3,670	227,036	116,086
246,859	3,544	226,880	115,901
247,874	3,741	226,798	115,998
248,888	3,651	226,648	115,843
249,903	3,539	226,496	115,670
250,917	3,459	226,382	115,541
251,932	3,579	226,213	115,535
252,947	3,279	226,007	115,193
253,961	3,189	225,839	115,030
254,976	3,188	225,753	114,975
255,990	3,538	225,526	115,113
257,005	3,653	225,416	115,132
258,020	3,613	225,364	115,065
259,034	3,913	225,161	115,176
260,049	3,689	225,135	114,985
261,063	3,527	225,003	114,786
262,078	3,757	224,708	114,797
263,093	3,941	224,530	114,833
264,107	3,791	224,463	114,677
265,122	3,833	224,341	114,636
266,136	3,871	224,174	114,568
267,151	3,841	224,176	114,537
268,166	3,642	223,860	114,217
269,180	3,268	223,601	113,797
270,195	3,421	223,442	113,819
271,209	3,480	223,154	113,706
272,224	3,477	223,337	113,787
273,239	3,477	223,066	113,639
274,253	3,404	223,039	113,561
275,268	3,294	222,670	113,282
276,282	3,274	222,595	113,219
277,297	3,159	222,450	113,049
278,312	3,473	222,291	113,191
279,326	3,256	222,240	112,994
280,341	3,630	222,074	113,175
281,355	3,524	222,004	113,052
282,370	3,215	221,896	112,759
283,384	3,322	221,675	112,715
284,399	3,331	221,364	112,554
285,414	3,129	221,282	112,354
286,428	3,537	221,272	112,638
287,443	3,338	221,264	112,478
288,457	3,564	220,858	112,427
289,472	3,442	220,734	112,265
290,487	3,124	220,417	111,861
291,501	3,112	220,336	111,801
292,516	3,066	220,385	111,782
293,530	3,127	220,254	111,750
294,545	2,901	220,178	111,537
295,560	3,257	219,927	111,659
296,574	3,410	219,829	111,712
297,589	3,435	219,609	111,608
298,603	3,602	219,543	111,686
299,618	3,516	219,571	111,627
300,633	3,437	219,385	111,465
301,647	3,795	219,280	111,663
302,662	3,798	219,034	111,530
303,676	3,636	218,909	111,338
304,691	3,587	218,873	111,275
305,706	3,594	218,868	111,267
306,720	3,504	218,578	111,045
307,735	3,383	218,374	110,844
308,749	3,072	218,186	110,514
309,764	3,635	218,028	110,830
310,779	3,370	218,042	110,636
311,793	3,630	217,741	110,661
312,808	3,623	217,540	110,544
313,822	3,513	217,477	110,423
314,837	3,646	217,243	110,390
315,852	3,123	217,127	109,945
316,866	3,552	217,000	110,179
317,881	3,667	216,956	110,229
318,895	3,526	216,862	110,071
319,910	3,324	216,536	109,751
320,925	3,177	216,427	109,580
321,939	3,185	216,225	109,474
322,954	3,469	216,240	109,675
323,968	3,559	216,198	109,708
324,983	3,482	216,101	109,594
325,997	3,589	215,898	109,558
327,012	3,454	215,713	109,358
328,027	3,513	215,640	109,353
329,041	3,682	215,607	109,448
330,056	3,960	215,392	109,526
331,070	3,518	215,188	109,099
332,085	3,223	214,916	108,741
333,100	3,186	214,839	108,666
334,114	3,471	214,738	108,808
335,129	3,572	214,589	108,794
336,143	3,460	214,441	108,630
337,158	3,565	214,138	108,542
338,173	3,371	214,168	108,410
339,187	3,341	214,002	108,294
340,202	2,985	213,849	107,956
341,216	3,039	213,704	107,911
342,231	3,308	213,574	108,025
343,246	3,121	213,445	107,819
344,260	3,229	213,317	107,821
345,275	3,429	213,329	107,958
346,289	3,639	213,146	108,003
347,304	3,432	212,934	107,741
348,319	3,296	212,800	107,568
349,333	3,197	212,731	107,454
350,348	3,499	212,577	107,579
351,362	3,683	212,549	107,684
352,377	3,840	212,308	107,663
353,392	3,577	212,202	107,415
354,406	3,535	212,006	107,277
355,421	195,349	1341,507	1420,737
356,435	156,049	1479,114	1420,732
