DTS Sentinel unit serial number:	SN410029Multiplexer serial number:	ORYXHardware model number:	OX2-SRSoftware version number:	ORYX F/W v4,00 Oryx Data Collector v3.7.2.0data status	okinstallation	B6 Nyhavnadifferential loss correction	single-endedforward channel	channel 2reverse channel	N/Adate	2023/12/10time	01:30:08forward acquisition time	300,00reverse acquisition time	0,00gamma	499,1914k internal	0,3125k external	0,3125temperature offset calibration	1,0000default loss term (dB/km)	0,3820temperature slope calibration	1,0000multiplexer offset coefficient	1,0000multiplexer slope coefficient	1,0000fibre end	0,00T internal ref (°C)	21,92T ext. ref 1 (°C)	5,69T ext. ref 2 (°C)	5,70length (m)	temperature (°C)	Stokes	anti-Stokes-744,400	-200,000	0,037	-0,196
-743,385	-78,567	-0,263	-0,066
-742,371	-97,237	0,155	-0,030
-741,356	-77,089	-0,205	0,053
-740,342	-124,788	0,099	0,011
-739,327	88,553	-0,164	0,135
-738,312	800,000	0,062	-0,134
-737,298	-86,294	-0,260	-0,059
-736,283	-200,000	0,002	-0,101
-735,269	-48,719	-0,181	0,064
-734,254	0,305	-0,082	-0,044
-733,239	-198,957	-0,428	-0,002
-732,225	-200,000	0,010	0,077
-731,210	492,404	-0,031	-0,054
-730,196	93,157	-0,053	-0,044
-729,181	-137,839	-0,085	-0,007
-728,167	419,831	-0,048	-0,077
-727,152	234,545	-0,067	-0,082
-726,137	-91,699	-0,145	0,030
-725,123	-19,466	-0,139	0,064
-724,108	800,000	0,038	0,097
-723,094	174,138	-0,100	-0,108
-722,079	577,416	-0,034	-0,063
-721,064	690,688	-0,049	-0,096
-720,050	482,003	-0,040	0,069
-719,035	18,470	-0,071	0,042
-718,021	-24,420	-0,099	-0,044
-717,006	616,576	-0,056	-0,105
-715,991	57,278	-0,127	-0,092
-714,977	-16,076	-0,068	-0,032
-713,962	256,512	-0,069	-0,088
-712,948	800,000	-0,008	-0,024
-711,933	-88,208	0,098	-0,022
-710,918	-118,841	-0,083	-0,011
-709,904	-60,573	0,054	0,017
-708,889	-200,000	0,012	0,047
-707,875	271,536	-0,052	-0,069
-706,860	787,904	0,007	-0,014
-705,845	-118,506	0,081	0,011
-704,831	-59,637	-0,049	0,015
-703,816	175,230	0,043	0,047
-702,802	-200,000	-0,017	-0,159
-701,787	800,000	0,084	-0,261
-700,772	34,012	-0,009	-0,006
-699,758	147,870	-0,093	0,093
-698,743	70,741	0,062	0,048
-697,729	800,000	-0,007	0,021
-696,714	516,495	-0,068	-0,118
-695,699	50,486	-0,060	-0,042
-694,685	-15,587	-0,167	0,079
-693,670	315,846	-0,063	-0,089
-692,656	14,525	-0,161	-0,093
-691,641	277,333	-0,027	0,036
-690,627	800,000	0,052	0,123
-689,612	-18,129	-0,036	0,017
-688,597	-124,223	-0,170	0,020
-687,583	-94,526	-0,071	-0,014
-686,568	-171,895	-0,047	0,001
-685,554	-200,000	0,013	-0,098
-684,539	-132,757	0,237	-0,022
-683,524	-66,320	0,075	-0,022
-682,510	-121,527	0,064	0,008
-681,495	31,975	-0,083	-0,053
-680,481	471,168	0,081	0,136
-679,466	-38,445	-0,083	-0,032
-678,451	-66,299	0,118	-0,035
-677,437	-200,000	-0,023	0,077
-676,422	-194,875	-0,027	0,000
-675,408	-145,329	-0,066	0,004
-674,393	320,408	-0,061	0,086
-673,378	143,715	0,054	-0,053
-672,364	-200,000	-0,007	-0,051
-671,349	156,629	-0,019	0,020
-670,335	-200,000	0,002	-0,050
-669,320	-95,493	-0,196	-0,039
-668,305	-200,000	0,004	0,135
-667,291	-200,000	0,003	0,067
-666,276	-124,812	-0,138	0,016
-665,262	50,103	-0,074	0,052
-664,247	-47,410	0,113	0,041
-663,232	-137,640	-0,158	-0,013
-662,218	74,310	-0,090	0,070
-661,203	-200,000	0,009	0,113
-660,189	356,591	-0,108	0,161
-659,174	564,456	-0,012	-0,021
-658,159	800,000	0,085	-0,213
-657,145	10,223	-0,178	0,100
-656,130	84,567	0,057	-0,046
-655,116	-102,533	-0,044	-0,008
-654,101	98,593	-0,080	-0,068
-653,086	62,399	-0,071	-0,053
-652,072	27,289	-0,047	0,029
-651,057	37,908	-0,067	0,044
-650,043	-200,000	-0,018	0,070
-649,028	-200,000	-0,013	0,052
-648,014	-200,000	0,004	-0,114
-646,999	800,000	0,024	-0,071
-645,984	-145,882	0,066	-0,004
-644,970	-200,000	-0,022	-0,076
-643,955	298,789	-0,128	-0,176
-642,941	-165,750	0,045	0,001
-641,926	800,000	0,046	-0,118
-640,911	133,538	0,026	0,025
-639,897	-200,000	0,013	0,052
-638,882	-80,816	0,078	-0,019
-637,868	-28,504	0,074	-0,031
-636,853	131,789	-0,065	-0,063
-635,838	442,205	0,007	-0,012
-634,824	589,114	0,031	-0,056
-633,809	-26,896	0,088	0,038
-632,795	-60,002	-0,029	0,009
-631,780	-102,828	0,161	-0,028
-630,765	-84,915	0,035	-0,008
-629,751	159,943	-0,096	-0,099
-628,736	79,191	-0,079	-0,063
-627,722	133,314	-0,138	-0,133
-626,707	299,875	-0,051	-0,070
-625,692	800,000	0,059	-0,171
-624,678	467,632	-0,051	-0,085
-623,663	-200,000	0,000	-0,044
-622,649	481,732	-0,042	-0,071
-621,634	65,667	-0,058	-0,043
-620,619	-105,310	0,086	-0,014
-619,605	80,221	0,054	0,043
-618,590	44,984	0,116	0,079
-617,576	800,000	0,053	0,159
-616,561	-200,000	-0,000	0,155
-615,546	68,446	-0,022	0,017
-614,532	-200,000	0,005	0,024
-613,517	-104,757	-0,042	0,007
-612,503	-200,000	-0,007	0,126
-611,488	-200,000	0,016	0,098
-610,474	-95,032	-0,067	0,013
-609,459	449,568	0,039	-0,065
-608,444	197,664	0,056	-0,064
-607,430	-47,350	-0,076	-0,027
-606,415	203,001	-0,103	-0,119
-605,401	-200,000	0,017	-0,121
-604,386	779,951	0,082	-0,167
-603,371	-91,375	-0,073	0,015
-602,357	-74,931	-0,119	0,031
-601,342	800,000	-0,081	-0,166
-600,328	-200,000	-0,029	-0,171
-599,313	99,893	-0,131	-0,113
-598,298	406,957	0,048	-0,075
-597,284	37,200	0,042	0,028
-596,269	607,625	-0,018	-0,034
-595,255	-200,000	-0,004	0,257
-594,240	-200,000	-0,000	-0,026
-593,225	48,255	-0,089	0,062
-592,211	800,000	0,040	0,083
-591,196	-200,000	-0,001	0,037
-590,182	800,000	0,041	-0,096
-589,167	-47,188	0,087	-0,031
-588,152	-28,640	-0,060	0,025
-587,138	191,194	-0,068	0,076
-586,123	-134,721	-0,152	0,014
-585,109	88,737	-0,059	0,049
-584,094	-200,000	-0,010	-0,039
-583,079	304,033	-0,069	0,095
-582,065	-10,892	0,107	0,052
-581,050	-200,000	-0,018	-0,150
-580,036	-61,147	-0,177	-0,055
-579,021	-78,956	0,045	0,011
-578,006	209,034	0,100	-0,116
-576,992	48,524	-0,065	0,045
-575,977	-48,504	-0,080	-0,028
-574,963	800,000	0,013	-0,038
-573,948	-200,000	0,003	-0,057
-572,934	-97,464	0,041	-0,008
-571,919	-200,000	-0,022	-0,080
-570,904	-200,000	-0,009	-0,147
-569,890	314,931	-0,030	-0,042
-568,875	-134,943	0,127	-0,011
-567,861	-15,476	-0,029	-0,013
-566,846	16,018	0,041	0,024
-565,831	146,854	-0,143	-0,142
-564,817	112,356	-0,092	0,083
-563,802	-19,676	-0,045	0,021
-562,788	-200,000	-0,045	-0,201
-561,773	-200,000	-0,005	-0,063
-560,758	321,421	0,055	-0,078
-559,744	800,000	0,027	0,089
-558,729	267,867	0,095	-0,123
-557,715	-11,053	-0,183	0,089
-556,700	800,000	0,023	0,072
-555,685	-86,547	-0,125	-0,028
-554,671	-81,618	0,081	0,019
-553,656	40,281	-0,054	-0,036
-552,642	-120,678	0,112	-0,014
-551,627	738,186	0,063	0,125
-550,612	800,000	-0,042	0,099
-549,598	785,875	-0,070	-0,143
-548,583	172,205	0,050	0,053
-547,569	725,507	0,094	-0,186
-546,554	-132,795	0,149	0,014
-545,539	-200,000	0,005	0,058
-544,525	-38,355	0,047	0,018
-543,510	-77,105	-0,085	0,022
-542,496	0,264	-0,112	0,059
-541,481	-200,000	0,028	0,112
-540,466	-14,613	-0,136	0,065
-539,452	800,000	0,043	-0,110
-538,437	-102,322	0,167	0,029
-537,423	-103,590	0,027	-0,005
-536,408	-151,599	-0,314	0,017
-535,393	364,826	-0,048	-0,071
-534,379	-25,528	-0,140	-0,061
-533,364	-155,447	0,072	0,003
-532,350	-200,000	0,008	-0,143
-531,335	-93,620	-0,039	-0,008
-530,321	192,544	-0,021	0,024
-529,306	-118,334	-0,098	0,013
-528,291	800,000	0,018	-0,053
-527,277	-121,482	-0,142	0,017
-526,262	-200,000	-0,015	-0,110
-525,248	255,154	0,034	-0,043
-524,233	-101,362	0,063	0,011
-523,218	489,413	-0,081	0,137
-522,204	-88,269	-0,082	0,018
-521,189	-112,084	0,027	0,004
-520,175	457,567	0,033	-0,054
-519,160	-40,256	-0,050	-0,019
-518,145	373,229	-0,042	0,063
-517,131	800,000	0,014	-0,043
-516,116	534,407	-0,093	-0,163
-515,102	-200,000	-0,014	0,205
-514,087	-200,000	-0,002	0,032
-513,072	143,162	-0,127	-0,125
-512,058	74,413	-0,082	0,064
-511,043	666,088	0,050	0,096
-510,029	347,343	-0,052	0,075
-509,014	172,109	-0,059	0,062
-507,999	-200,000	0,029	0,110
-506,985	26,437	0,186	-0,114
-505,970	215,290	-0,105	-0,123
-504,956	-40,532	-0,036	-0,014
-503,941	671,385	-0,085	-0,163
-502,926	179,718	0,109	-0,118
-501,912	93,115	0,048	0,040
-500,897	800,000	-0,052	-0,146
-499,883	45,582	-0,032	-0,022
-498,868	390,115	-0,066	-0,102
-497,853	233,964	0,030	-0,037
-496,839	-109,762	-0,027	0,004
-495,824	-113,741	0,101	-0,014
-494,810	4,714	-0,019	0,010
-493,795	-200,000	-0,000	0,030
-492,781	497,110	-0,065	0,111
-491,766	800,000	0,062	-0,141
-490,751	93,605	-0,108	-0,090
-489,737	200,188	0,052	-0,059
-488,722	-87,794	-0,126	-0,028
-487,708	194,719	0,039	0,044
-486,693	95,119	0,071	0,060
-485,678	-110,598	0,130	-0,020
-484,664	120,297	-0,085	-0,078
-483,649	530,566	-0,056	0,098
-482,635	-200,000	0,014	0,114
-481,620	82,717	0,123	0,099
-480,605	505,876	-0,113	0,194
-479,591	-1,233	0,130	0,068
-478,576	52,928	-0,112	0,079
-477,562	-101,228	-0,032	-0,006
-476,547	-187,768	0,036	0,000
-475,532	-200,000	-0,012	0,066
-474,518	62,609	-0,053	-0,039
-473,503	143,588	-0,110	0,108
-472,489	787,649	0,065	0,132
-471,474	-200,000	-0,017	0,061
-470,459	686,825	0,019	0,036
-469,445	-200,000	-0,008	-0,142
-468,430	-65,519	-0,100	0,029
-467,416	238,699	0,019	0,024
-466,401	800,000	0,029	0,085
-465,386	72,230	-0,068	0,053
-464,372	-200,000	0,007	0,116
-463,357	-91,100	-0,158	-0,033
-462,343	-200,000	0,038	-0,192
-461,328	-200,000	0,006	-0,037
-460,313	246,958	0,120	0,150
-459,299	-200,000	0,010	0,196
-458,284	-200,000	0,001	0,136
-457,270	800,000	-0,044	0,118
-456,255	74,256	-0,061	0,047
-455,241	21,077	-0,096	0,057
-454,226	-200,000	-0,006	-0,123
-453,211	224,719	-0,073	0,087
-452,197	800,000	0,019	0,059
-451,182	198,127	-0,060	0,068
-450,168	-107,292	0,131	-0,021
-449,153	343,684	-0,019	0,027
-448,138	57,191	0,068	-0,049
-447,124	-9,649	-0,113	-0,055
-446,109	800,000	0,030	0,073
-445,095	-200,000	0,013	0,085
-444,080	8,159	-0,016	0,009
-443,065	-200,000	-0,014	-0,055
-442,051	60,049	-0,140	0,102
-441,036	38,706	0,035	-0,023
-440,022	-31,654	-0,051	0,021
-439,007	-20,830	-0,122	-0,055
-437,992	-200,000	0,001	0,118
-436,978	190,754	0,103	0,114
-435,963	635,286	0,045	0,085
-434,949	-200,000	0,015	-0,101
-433,934	-200,000	0,018	-0,139
-432,919	-100,524	-0,197	-0,036
-431,905	800,000	0,038	-0,083
-430,890	362,471	0,086	-0,128
-429,876	-101,336	0,166	0,030
-428,861	800,000	0,047	0,138
-427,846	203,500	0,132	-0,151
-426,832	800,000	-0,033	-0,077
-425,817	-17,736	-0,102	-0,047
-424,803	-200,000	-0,023	-0,090
-423,788	-71,320	0,046	0,013
-422,773	-97,110	0,080	0,015
-421,759	36,970	0,071	0,046
-420,744	-55,251	0,082	-0,027
-419,730	98,965	0,031	0,026
-418,715	-70,773	-0,099	0,027
-417,701	-200,000	-0,005	0,078
-416,686	-114,314	0,134	-0,019
-415,671	-15,736	0,047	0,022
-414,657	-148,749	0,054	0,003
-413,642	800,000	0,044	0,140
-412,628	-200,000	0,018	-0,079
-411,613	34,710	0,074	-0,047
-410,598	800,000	-0,035	0,076
-409,584	77,923	-0,043	0,034
-408,569	-200,000	0,010	0,090
-407,555	303,306	-0,049	0,067
-406,540	-169,121	-0,050	0,001
-405,525	800,000	-0,024	-0,070
-404,511	-104,380	0,112	0,019
-403,496	-76,941	0,087	0,022
-402,482	633,569	0,052	-0,097
-401,467	368,361	0,109	-0,162
-400,452	-94,819	0,040	-0,008
-399,438	800,000	-0,032	0,102
-398,423	-94,538	-0,110	0,022
-397,409	-106,773	-0,048	0,008
-396,394	-200,000	-0,033	-0,155
-395,379	76,047	-0,091	-0,071
-394,365	79,156	-0,103	-0,081
-393,350	-200,000	-0,002	-0,075
-392,336	-187,887	-0,086	0,001
-391,321	-1,190	0,069	0,036
-390,306	200,253	0,064	-0,072
-389,292	20,825	0,033	-0,020
-388,277	147,790	0,036	-0,035
-387,263	390,243	0,044	0,068
-386,248	800,000	-0,043	-0,123
-385,233	800,000	0,006	0,017
-384,219	126,999	0,109	0,102
-383,204	-6,994	-0,084	-0,042
-382,190	-178,939	-0,069	0,001
-381,175	-200,000	0,007	-0,174
-380,160	6,563	-0,030	-0,016
-379,146	-113,808	0,153	0,022
-378,131	72,302	0,097	0,074
-377,117	84,115	0,160	-0,128
-376,102	-200,000	-0,007	0,108
-375,088	-83,700	-0,083	-0,019
-374,073	144,945	0,080	-0,078
-373,058	23,079	0,009	-0,005
-372,044	-137,442	0,143	0,012
-371,029	-61,308	-0,012	-0,004
-370,015	117,332	0,070	0,063
-369,000	-78,766	0,095	-0,024
-367,985	-111,588	-0,139	-0,020
-366,971	189,129	-0,085	-0,094
-365,956	335,341	-0,022	-0,031
-364,942	-200,000	0,022	0,086
-363,927	576,412	0,104	0,188
-362,912	77,371	0,044	0,035
-361,898	-200,000	-0,026	0,094
-360,883	-65,957	0,115	-0,033
-359,869	-200,000	-0,016	-0,092
-358,854	800,000	0,044	0,125
-357,839	297,830	-0,063	0,085
-356,825	-101,407	-0,178	-0,032
-355,810	-15,307	0,235	0,110
-354,796	554,971	-0,013	0,023
-353,781	573,629	0,016	-0,029
-352,766	-161,375	0,029	-0,001
-351,752	-200,000	-0,043	0,157
-350,737	743,147	-0,015	0,030
-349,723	-57,727	0,037	0,012
-348,708	43,714	-0,176	-0,118
-347,693	11,312	-0,069	0,038
-346,679	-200,000	0,001	-0,155
-345,664	-200,000	0,001	0,035
-344,650	800,000	-0,030	-0,076
-343,635	86,172	0,074	-0,060
-342,620	-82,773	0,051	-0,012
-341,606	81,938	-0,082	0,065
-340,591	397,701	0,081	0,124
-339,577	81,194	0,086	-0,068
-338,562	77,111	0,076	-0,059
-337,548	254,630	0,110	0,139
-336,533	-138,345	0,104	-0,008
-335,518	800,000	0,050	0,118
-334,504	445,114	-0,063	0,101
-333,489	232,876	0,091	-0,110
-332,475	-68,217	-0,066	-0,019
-331,460	49,978	-0,106	-0,073
-330,445	593,414	0,058	0,106
-329,431	-173,959	-0,104	0,002
-328,416	47,285	0,049	-0,034
-327,402	-200,000	-0,034	0,120
-326,387	392,326	-0,043	-0,066
-325,372	800,000	0,031	-0,065
-324,358	272,683	0,079	-0,103
-323,343	93,615	-0,195	-0,162
-322,329	300,175	-0,058	0,078
-321,314	73,577	0,030	0,023
-320,299	-200,000	-0,012	0,126
-319,285	95,626	-0,054	-0,045
-318,270	-59,791	-0,050	0,016
-317,256	106,142	0,017	-0,015
-316,241	172,689	0,124	-0,131
-315,226	-78,069	-0,105	0,026
-314,212	460,346	0,041	0,067
-313,197	800,000	-0,010	-0,031
-312,183	517,948	0,030	-0,051
-311,168	-95,521	-0,026	0,005
-310,153	-114,347	-0,083	-0,012
-309,139	-200,000	0,006	0,083
-308,124	-42,943	0,124	0,046
-307,110	375,794	0,082	-0,123
-306,095	1,055	0,142	-0,074
-305,080	-0,376	-0,065	0,034
-304,066	105,292	0,023	0,020
-303,051	564,921	-0,016	0,029
-302,037	-67,009	-0,115	-0,033
-301,022	-200,000	-0,011	-0,123
-300,008	51,723	0,083	0,058
-298,993	800,000	0,065	0,133
-297,978	47,838	0,068	0,047
-296,964	-144,649	0,082	0,005
-295,949	800,000	-0,011	0,028
-294,935	-200,000	-0,030	-0,137
-293,920	621,906	-0,038	-0,070
-292,905	-128,996	-0,056	0,006
-291,891	32,884	0,158	-0,100
-290,876	-145,240	0,049	0,003
-289,862	289,962	-0,041	0,055
-288,847	-200,000	-0,001	-0,079
-287,832	-126,205	0,140	0,015
-286,818	-103,645	-0,099	0,017
-285,803	-200,000	0,009	0,086
-284,789	-200,000	-0,013	-0,081
-283,774	337,449	0,043	-0,062
-282,759	-71,068	0,033	0,009
-281,745	259,455	-0,092	-0,116
-280,730	108,766	-0,041	-0,036
-279,716	256,852	-0,028	0,036
-278,701	-78,331	-0,058	-0,015
-277,686	26,985	0,058	0,036
-276,672	157,318	0,108	0,109
-275,657	-151,804	-0,057	-0,003
-274,643	13,286	0,158	-0,089
-273,628	457,133	0,077	-0,126
-272,613	-67,916	-0,110	0,031
-271,599	-190,942	-0,074	0,001
-270,584	-59,479	-0,075	0,023
-269,570	-8,592	0,113	0,055
-268,555	-66,447	-0,110	0,032
-267,540	313,922	-0,071	-0,098
-266,526	-200,000	-0,017	-0,062
-265,511	157,977	-0,136	0,138
-264,497	-200,000	-0,021	0,084
-263,482	-200,000	0,003	0,059
-262,467	-200,000	-0,010	-0,061
-261,453	11,968	-0,095	0,053
-260,438	-200,000	0,025	-0,108
-259,424	800,000	-0,030	0,097
-258,409	-157,717	0,122	0,005
-257,395	226,509	-0,058	-0,069
-256,380	-200,000	0,039	-0,158
-255,365	-200,000	0,003	0,187
-254,351	-200,000	0,008	0,144
-253,336	206,302	-0,095	0,108
-252,322	135,203	0,024	0,023
-251,307	-13,248	0,084	0,040
-250,292	-90,405	0,087	0,018
-249,278	46,679	0,092	-0,062
-248,263	-7,097	0,090	0,044
-247,249	6,751	0,099	0,054
-246,234	800,000	0,011	-0,031
-245,219	-200,000	-0,037	-0,119
-244,205	-200,000	-0,033	0,116
-243,190	185,788	0,075	0,082
-242,176	-44,199	-0,098	-0,036
-241,161	-200,000	-0,012	0,134
-240,146	800,000	-0,086	0,216
-239,132	359,975	0,042	0,062
-238,117	-200,000	0,027	0,130
-237,103	438,585	-0,072	0,115
-236,088	15,680	0,083	0,047
-235,073	-200,000	-0,010	0,140
-234,059	65,577	0,079	0,058
-233,044	27,449	-0,021	-0,013
-232,030	72,063	0,028	0,022
-231,015	-200,000	-0,019	-0,079
-230,000	-200,000	-0,008	-0,077
-228,986	-73,703	-0,137	0,036
-227,971	292,257	0,064	0,085
-226,957	-17,395	-0,054	0,025
-225,942	137,337	-0,019	0,018
-224,927	460,307	0,073	0,120
-223,913	8,744	-0,076	-0,041
-222,898	-200,000	0,006	0,056
-221,884	-16,517	0,088	0,040
-220,869	14,405	0,065	0,037
-219,855	-200,000	-0,000	-0,162
-218,840	248,621	0,093	0,115
-217,825	8,843	0,159	0,087
-216,811	-30,261	-0,036	-0,015
-215,796	-87,434	-0,122	-0,027
-214,782	-15,718	0,097	-0,045
-213,767	47,098	0,147	-0,100
-212,752	-183,649	0,072	0,001
-211,738	-35,002	-0,107	0,042
-210,723	198,275	-0,035	-0,039
-209,709	-66,601	-0,109	-0,031
-208,694	-8,407	-0,060	-0,029
-207,679	101,218	-0,041	-0,035
-206,665	252,304	0,030	0,037
-205,650	127,339	0,130	0,121
-204,636	208,020	-0,032	-0,036
-203,621	39,421	0,088	-0,057
-202,606	238,975	-0,057	0,069
-201,592	-78,820	0,191	0,047
-200,577	9,401	-0,094	0,052
-199,563	800,000	0,028	0,077
-198,548	41,635	-0,088	-0,058
-197,533	800,000	0,027	0,076
-196,519	143,075	0,032	-0,031
-195,504	-200,000	-0,002	-0,074
-194,490	573,147	0,080	-0,143
-193,475	309,976	-0,008	-0,011
-192,460	-11,772	0,076	-0,036
-191,446	800,000	0,071	0,218
-190,431	-200,000	-0,003	0,119
-189,417	48,559	0,040	0,027
-188,402	-200,000	0,022	0,074
-187,387	800,000	0,041	-0,091
-186,373	153,759	-0,094	-0,094
-185,358	-35,297	-0,043	-0,017
-184,344	104,986	0,077	0,066
-183,329	10,178	-0,029	0,016
-182,315	-58,380	-0,072	0,023
-181,300	44,018	-0,022	-0,015
-180,285	-125,979	-0,119	-0,013
-179,271	368,354	-0,043	-0,064
-178,256	-153,029	0,128	-0,006
-177,242	29,803	-0,119	-0,074
-176,227	544,432	0,097	0,170
-175,212	-6,488	0,071	0,035
-174,198	-200,000	-0,007	-0,097
-173,183	-200,000	0,017	0,100
-172,169	33,695	0,077	-0,049
-171,154	148,141	-0,090	-0,088
-170,139	611,265	-0,045	0,083
-169,125	-25,478	0,039	0,017
-168,110	103,023	0,099	0,084
-167,096	751,151	0,074	0,145
-166,081	-81,784	-0,075	-0,018
-165,066	216,913	-0,106	-0,123
-164,052	66,834	0,007	0,005
-163,037	800,000	-0,062	-0,163
-162,023	800,000	0,047	-0,146
-161,008	-200,000	-0,014	0,071
-159,993	-70,067	-0,027	-0,007
-158,979	-95,657	-0,079	0,015
-157,964	39,725	-0,050	0,032
-156,950	800,000	0,036	0,093
-155,935	160,873	0,106	-0,107
-154,920	-118,851	0,041	0,005
-153,906	-200,000	-0,002	0,065
-152,891	-28,042	0,090	0,038
-151,877	352,847	0,045	-0,065
-150,862	-97,386	-0,129	-0,024
-149,847	-68,333	-0,119	-0,033
-148,833	-7,932	0,093	-0,045
-147,818	-157,948	0,141	0,006
-146,804	-124,701	0,118	0,013
-145,789	285,612	-0,003	-0,004
-144,775	-200,000	0,002	-0,062
-143,760	8,068	0,051	-0,028
-142,745	-15,180	-0,089	0,041
-141,731	-64,147	-0,121	-0,036
-140,716	-143,186	0,079	-0,005
-139,702	800,000	0,012	-0,033
-138,687	-200,000	0,024	0,118
-137,672	349,448	0,021	-0,030
-136,658	70,570	-0,040	0,030
-135,643	-101,860	-0,113	0,020
-134,629	-200,000	0,006	-0,076
-133,614	585,619	0,079	0,143
-132,599	-3,285	-0,041	-0,021
-131,585	-200,000	-0,035	0,121
-130,570	394,310	0,047	-0,071
-129,556	-16,232	-0,159	-0,073
-128,541	-200,000	0,002	0,024
-127,526	-94,541	-0,016	0,003
-126,512	-79,404	0,180	-0,044
-125,497	-200,000	0,011	0,072
-124,483	83,650	-0,021	0,017
-123,468	800,000	0,050	0,135
-122,453	733,238	0,014	0,027
-121,439	-23,065	-0,116	0,051
-120,424	-200,000	0,012	-0,046
-119,410	18,375	0,119	-0,069
-118,395	275,182	-0,062	-0,080
-117,380	7,591	0,059	-0,032
-116,366	-128,864	-0,128	0,013
-115,351	800,000	0,052	-0,106
-114,337	-14,773	0,061	0,028
-113,322	-200,000	0,019	-0,071
-112,307	60,677	0,079	0,057
-111,293	800,000	0,015	0,047
-110,278	-46,906	0,053	-0,019
-109,264	603,828	0,062	-0,112
-108,249	-200,000	-0,002	-0,131
-107,234	-108,574	-0,185	0,029
-106,220	-34,699	-0,164	0,065
-105,205	434,613	-0,014	0,022
-104,191	534,244	-0,091	0,157
-103,176	257,264	-0,083	-0,104
-102,162	-200,000	-0,015	-0,102
-101,147	698,565	-0,067	0,129
-100,132	-16,568	0,133	-0,061
-99,118	17,324	-0,014	0,008
-98,103	-200,000	0,021	0,107
-97,089	-43,672	0,095	0,035
-96,074	800,000	0,030	0,094
-95,059	-200,000	0,007	-0,063
-94,045	-81,068	0,124	0,030
-93,030	-200,000	-0,008	0,081
-92,016	-200,000	-0,009	-0,060
-91,001	800,000	0,016	-0,047
-89,986	-200,000	-0,020	0,172
-88,972	47,281	0,065	-0,044
-87,957	-132,442	0,005	0,000
-86,943	-72,319	-0,086	0,023
-85,928	-153,023	0,091	0,005
-84,913	800,000	0,008	0,018
-83,899	-159,794	0,084	-0,003
-82,884	-200,000	-0,010	0,066
-81,870	197,378	-0,098	0,108
-80,855	50,012	-0,050	0,034
-79,840	156,362	0,089	-0,089
-78,826	82,035	0,069	0,055
-77,811	-200,000	0,016	-0,109
-76,797	-200,000	-0,018	-0,141
-75,782	100,648	0,097	0,082
-74,767	-20,075	-0,025	0,011
-73,753	-200,000	-0,014	-0,050
-72,738	283,870	-0,018	0,024
-71,724	36,733	-0,108	-0,069
-70,709	-122,319	0,053	-0,006
-69,694	-200,000	0,012	-0,106
-68,680	-120,941	0,069	-0,008
-67,665	159,345	-0,024	-0,024
-66,651	665,231	-0,053	0,099
-65,636	557,719	0,055	-0,096
-64,622	800,000	0,032	-0,077
-63,607	692,432	-0,034	0,065
-62,592	433,101	0,048	0,076
-61,578	-200,000	-0,016	0,114
-60,563	-200,000	-0,034	0,128
-59,549	363,298	-0,047	0,068
-58,534	-121,693	-1,505	-0,178
-57,519	800,000	-0,715	-1,464
-56,505	-200,000	-0,902	-4,378
-55,490	43,125	0,545	-0,360
-54,476	800,000	4,855	11,623
-53,461	-200,000	13,959	252,951
-52,446	-200,000	693,194	2239,142
-51,432	574,892	1623,580	2884,975
-50,417	117,599	1632,957	1456,959
-49,403	72,370	1286,868	971,320
-48,388	37,486	1023,161	656,587
-47,373	23,883	981,546	585,168
-46,359	23,095	970,893	576,213
-45,344	22,123	966,670	570,511
-44,330	22,167	964,813	569,535
-43,315	22,010	963,654	568,318
-42,300	22,007	962,670	567,705
-41,286	21,871	961,895	566,784
-40,271	21,960	960,578	566,274
-39,257	21,921	959,899	565,723
-38,242	21,929	958,667	565,001
-37,227	21,897	957,938	564,446
-36,213	21,932	957,021	563,998
-35,198	21,886	956,192	563,336
-34,184	21,949	955,573	563,152
-33,169	21,939	954,637	562,549
-32,154	21,996	953,693	562,153
-31,140	21,979	952,828	561,565
-30,125	22,007	952,115	561,214
-29,111	21,992	951,293	560,658
-28,096	22,015	950,416	560,193
-27,082	21,931	949,883	559,586
-26,067	21,907	949,195	559,082
-25,052	21,953	948,424	558,752
-24,038	21,969	947,764	558,394
-23,023	21,937	947,090	557,872
-22,009	21,995	946,504	557,690
-20,994	22,001	945,737	557,236
-19,979	22,040	945,188	557,014
-18,965	21,997	944,589	556,502
-17,950	21,959	943,964	555,989
-16,936	21,899	943,301	555,387
-15,921	21,895	942,682	554,988
-14,906	21,850	941,901	554,362
-13,892	21,858	941,217	553,963
-12,877	21,846	940,554	553,511
-11,863	21,824	939,904	553,040
-10,848	21,852	939,429	552,826
-9,833	21,892	939,206	552,799
-8,819	21,928	938,378	552,404
-7,804	21,833	937,726	551,699
-6,790	21,850	937,182	551,409
-5,775	21,842	936,586	551,013
-4,760	21,838	935,941	550,598
-3,746	21,827	935,260	550,140
-2,731	21,689	934,483	549,226
-1,717	21,671	933,893	548,801
-0,702	21,651	933,192	548,306
0,313	21,489	932,699	548,332
1,327	24,546	930,659	556,686
2,342	33,983	794,949	500,606
3,356	31,813	450,729	280,551
4,371	1,208	293,609	152,239
5,386	-3,485	274,605	137,935
6,400	-4,700	268,685	133,823
7,415	-5,182	266,442	132,251
8,429	-4,806	265,235	131,984
9,444	-4,852	264,495	131,562
10,459	-4,835	263,879	131,259
11,473	-4,923	263,179	130,820
12,488	-5,129	262,810	130,438
13,502	-4,974	262,301	130,314
14,517	-4,809	261,648	130,127
15,531	-4,982	261,426	129,850
16,546	-4,974	261,113	129,689
17,561	-4,868	260,624	129,530
18,575	-4,767	260,375	129,486
19,590	-4,927	259,957	129,123
20,604	-4,846	259,756	129,083
21,619	-4,885	259,406	128,864
22,634	-5,086	259,145	128,543
23,648	-5,016	258,866	128,455
24,663	-5,031	258,530	128,264
25,677	-4,841	258,320	128,317
26,692	-4,911	258,002	128,086
27,707	-4,997	257,828	127,911
28,721	-4,912	257,507	127,816
29,736	-5,059	257,400	127,622
30,750	-5,120	257,129	127,421
31,765	-5,024	256,797	127,331
32,780	-4,886	256,562	127,324
33,794	-4,992	256,356	127,118
34,809	-5,112	256,110	126,879
35,823	-5,113	255,762	126,694
36,838	-5,017	255,464	126,619
37,853	-5,094	255,303	126,461
38,867	-5,116	255,208	126,383
39,882	-5,174	255,156	126,295
40,896	-5,136	254,903	126,192
41,911	-5,146	254,576	126,010
42,926	-5,045	254,192	125,897
43,940	-5,168	254,092	125,729
44,955	-5,063	253,833	125,681
45,969	-5,192	253,687	125,485
46,984	-5,601	253,427	124,989
47,999	-5,700	253,131	124,745
49,013	-5,503	252,811	124,748
50,028	-5,843	252,678	124,376
51,042	-5,777	252,373	124,272
52,057	-5,830	252,125	124,093
53,071	-5,990	251,922	123,843
54,086	-5,661	251,708	124,011
55,101	-5,449	251,655	124,157
56,115	-5,398	251,662	124,194
57,130	-5,166	251,286	124,198
58,144	-4,957	251,194	124,322
59,159	-4,902	251,096	124,310
60,174	-4,857	250,800	124,191
61,188	-4,887	250,503	124,007
62,203	-4,930	250,327	123,871
63,217	-4,874	250,133	123,812
64,232	-4,966	250,031	123,672
65,247	-4,960	249,769	123,536
66,261	-5,132	249,583	123,286
67,276	-5,373	249,373	122,965
68,290	-5,228	248,972	122,880
69,305	-5,427	248,695	122,563
70,320	-5,345	248,613	122,582
71,334	-5,078	248,495	122,740
72,349	-4,922	248,317	122,774
73,363	-5,031	248,100	122,563
74,378	-4,806	247,934	122,662
75,393	-4,895	247,644	122,432
76,407	-4,873	247,523	122,380
77,422	-4,863	247,419	122,326
78,436	-5,013	247,086	122,023
79,451	-5,032	246,909	121,909
80,466	-5,094	246,588	121,687
81,480	-5,372	246,412	121,354
82,495	-5,145	246,116	121,389
83,509	-5,190	246,034	121,301
84,524	-5,331	245,959	121,133
85,539	-5,329	245,552	120,924
86,553	-5,286	245,379	120,863
87,568	-5,255	245,227	120,804
88,582	-4,924	245,034	120,976
89,597	-5,192	244,929	120,688
90,611	-5,123	244,926	120,735
91,626	-5,199	244,670	120,533
92,641	-4,901	244,458	120,668
93,655	-5,233	244,273	120,289
94,670	-5,144	244,058	120,246
95,684	-5,126	243,906	120,176
96,699	-4,999	243,708	120,173
97,714	-5,316	243,589	119,840
98,728	-5,265	243,279	119,719
99,743	-5,389	243,118	119,525
100,757	-5,469	242,871	119,327
101,772	-5,338	242,593	119,289
102,787	-5,153	242,521	119,396
103,801	-5,474	242,456	119,087
104,816	-5,262	242,386	119,218
105,830	-5,004	242,057	119,259
106,845	-4,963	241,984	119,247
107,860	-4,902	241,686	119,140
108,874	-5,106	241,575	118,905
109,889	-5,109	241,327	118,771
110,903	-5,171	241,101	118,597
111,918	-5,184	241,000	118,526
112,933	-5,157	240,887	118,483
113,947	-5,020	240,552	118,420
114,962	-5,082	240,502	118,334
115,976	-5,215	240,467	118,197
116,991	-4,978	240,119	118,209
118,006	-5,062	240,039	118,090
119,020	-4,941	239,790	118,057
120,035	-5,028	239,667	117,915
121,049	-5,054	239,622	117,861
122,064	-4,953	239,338	117,793
123,079	-4,921	239,184	117,733
124,093	-4,903	238,900	117,597
125,108	-5,238	238,806	117,267
126,122	-5,274	238,488	117,072
127,137	-5,300	238,344	116,969
128,151	-5,350	238,182	116,838
129,166	-5,286	238,010	116,796
130,181	-5,368	237,785	116,608
131,195	-5,338	237,567	116,515
132,210	-5,147	237,456	116,606
133,224	-5,145	237,291	116,515
134,239	-5,089	237,242	116,527
135,254	-4,972	236,901	116,443
136,268	-5,103	236,815	116,285
137,283	-5,285	236,465	115,955
138,297	-5,393	236,404	115,828
139,312	-5,483	236,107	115,600
140,327	-4,994	236,073	115,967
141,341	-4,782	236,142	116,161
142,356	-4,712	235,923	116,099
143,370	-4,959	235,812	115,835
144,385	-4,742	235,533	115,862
145,400	-4,839	235,467	115,742
146,414	-4,726	235,212	115,696
147,429	-4,750	234,998	115,562
148,443	-4,625	234,896	115,601
149,458	-4,644	234,691	115,475
150,473	-4,876	234,732	115,299
151,487	-5,145	234,512	114,966
152,502	-4,792	234,197	115,082
153,516	-4,818	234,035	114,972
154,531	-4,945	233,992	114,840
155,546	-4,753	233,783	114,880
156,560	-4,594	233,521	114,868
157,575	-4,924	233,317	114,494
158,589	-4,823	233,233	114,523
159,604	-4,558	232,965	114,592
160,619	-4,557	232,862	114,532
161,633	-4,678	232,873	114,431
162,648	-4,754	232,520	114,188
163,662	-4,803	232,525	114,141
164,677	-4,949	232,333	113,921
165,692	-4,528	232,170	114,164
166,706	-4,797	232,133	113,922
167,721	-4,576	231,771	113,909
168,735	-4,607	231,805	113,891
169,750	-4,776	231,675	113,684
170,764	-4,957	231,441	113,417
171,779	-4,737	231,367	113,543
172,794	-4,503	231,066	113,569
173,808	-4,771	230,894	113,264
174,823	-5,296	230,713	112,753
175,837	-5,312	230,469	112,611
176,852	-5,004	230,446	112,832
177,867	-4,648	230,370	113,063
178,881	-4,875	230,252	112,817
179,896	-4,714	230,000	112,809
180,910	-4,847	229,933	112,663
181,925	-4,578	229,739	112,768
182,940	-4,698	229,634	112,613
183,954	-4,401	229,377	112,708
184,969	-4,507	229,231	112,544
185,983	-4,683	229,083	112,324
186,998	-4,387	228,803	112,406
188,013	-4,509	228,695	112,249
189,027	-4,511	228,563	112,172
190,042	-4,244	228,387	112,283
191,056	-4,420	228,199	112,044
192,071	-4,548	228,082	111,877
193,086	-4,692	228,000	111,716
194,100	-4,822	227,828	111,522
195,115	-4,668	227,530	111,484
196,129	-5,184	227,327	110,977
197,144	-2,436	228,196	113,518
198,159	1,468	229,223	117,046
199,173	3,767	229,785	119,108
200,188	3,776	229,820	119,122
201,202	4,022	229,589	119,182
202,217	4,140	229,581	119,259
203,232	4,568	229,406	119,488
204,246	4,487	229,341	119,381
205,261	4,555	229,234	119,368
206,275	4,466	229,157	119,248
207,290	4,676	229,025	119,330
208,304	4,673	228,888	119,246
209,319	4,856	228,514	119,182
210,334	4,541	228,395	118,866
211,348	4,116	228,268	118,463
212,363	3,835	227,942	118,067
213,377	3,826	227,674	117,911
214,392	3,789	227,488	117,776
215,407	3,850	227,410	117,772
216,421	3,965	227,371	117,829
217,436	3,898	227,210	117,684
218,450	3,594	226,892	117,277
219,465	3,498	226,812	117,151
220,480	3,691	226,575	117,166
221,494	3,805	226,436	117,170
222,509	3,917	226,302	117,176
223,523	3,662	226,336	116,989
224,538	3,817	225,952	116,898
225,553	3,741	225,895	116,800
226,567	3,984	225,704	116,876
227,582	3,913	225,739	116,829
228,596	4,119	225,703	116,957
229,611	3,969	225,349	116,649
230,626	3,533	225,244	116,254
231,640	3,571	225,152	116,224
232,655	3,925	224,872	116,338
233,669	4,121	225,005	116,544
234,684	4,394	224,760	116,613
235,699	4,026	224,575	116,229
236,713	3,788	224,427	115,963
237,728	3,801	224,157	115,822
238,742	3,830	224,067	115,788
239,757	3,714	223,827	115,566
240,772	3,518	223,807	115,398
241,786	3,757	223,650	115,486
242,801	3,933	223,500	115,530
243,815	4,074	223,393	115,571
244,830	4,226	223,349	115,651
245,844	3,850	223,155	115,259
246,859	3,770	222,930	115,073
247,874	4,087	222,865	115,266
248,888	4,174	222,595	115,181
249,903	3,910	222,495	114,922
250,917	3,682	222,428	114,707
251,932	3,602	222,397	114,621
252,947	3,715	221,938	114,458
253,961	3,662	221,797	114,336
254,976	3,781	221,770	114,400
255,990	4,101	221,602	114,541
257,005	4,291	221,464	114,601
258,020	4,007	221,389	114,341
259,034	4,329	221,147	114,445
260,049	3,982	221,180	114,195
261,063	3,929	221,027	114,066
262,078	4,232	220,795	114,161
263,093	4,266	220,796	114,175
264,107	4,151	220,582	113,970
265,122	4,213	220,442	113,933
266,136	4,374	220,243	113,939
267,151	4,409	220,207	113,936
268,166	4,120	219,954	113,582
269,180	3,723	219,594	113,094
270,195	3,641	219,511	112,980
271,209	3,657	219,324	112,886
272,224	3,477	219,487	112,828
273,239	3,789	219,326	112,964
274,253	3,958	218,989	112,904
275,268	3,856	218,695	112,668
276,282	3,330	218,769	112,310
277,297	3,592	218,463	112,335
278,312	3,531	218,401	112,249
279,326	3,683	218,339	112,318
280,341	3,803	218,182	112,315
281,355	3,976	218,170	112,424
282,370	4,060	217,836	112,304
283,384	3,627	217,616	111,865
284,399	3,622	217,484	111,783
285,414	3,580	217,451	111,726
286,428	3,577	217,449	111,713
287,443	3,831	217,342	111,833
288,457	3,988	217,190	111,859
289,472	3,878	216,831	111,584
290,487	3,321	216,638	111,071
291,501	3,354	216,545	111,037
292,516	3,229	216,502	110,915
293,530	3,498	216,325	111,009
294,545	3,304	216,254	110,822
295,560	3,657	216,059	110,968
296,574	3,946	215,913	111,091
297,589	3,837	215,882	110,987
298,603	3,828	215,758	110,907
299,618	3,656	215,616	110,700
300,633	3,812	215,480	110,733
301,647	4,222	215,312	110,931
302,662	4,104	215,303	110,832
303,676	4,190	215,097	110,778
304,691	4,051	214,996	110,616
305,706	4,263	214,791	110,653
306,720	4,094	214,645	110,447
307,735	3,969	214,401	110,222
308,749	3,726	214,289	109,981
309,764	3,862	214,136	109,989
310,779	4,280	214,100	110,260
311,793	4,202	213,885	110,084
312,808	3,987	213,704	109,827
313,822	3,981	213,592	109,756
314,837	4,144	213,433	109,780
315,852	3,843	213,249	109,461
316,866	3,609	213,176	109,248
317,881	3,994	213,159	109,503
318,895	3,906	212,997	109,348
319,910	3,794	212,777	109,145
320,925	3,504	212,637	108,858
321,939	3,175	212,412	108,500
322,954	3,398	212,430	108,657
323,968	3,812	212,286	108,867
324,983	3,873	212,194	108,853
325,997	4,298	212,094	109,093
327,012	3,953	211,870	108,724
328,027	3,879	211,794	108,624
329,041	4,145	211,774	108,792
330,056	4,490	211,665	108,969
331,070	3,745	211,471	108,335
332,085	3,757	211,163	108,176
333,100	3,665	211,078	108,057
334,114	4,125	210,810	108,234
335,129	3,942	210,864	108,123
336,143	3,554	210,621	107,717
337,158	3,736	210,580	107,814
338,173	3,836	210,411	107,788
339,187	3,568	210,225	107,495
340,202	3,427	210,036	107,291
341,216	3,433	209,855	107,192
342,231	3,658	209,860	107,343
343,246	3,489	209,734	107,151
344,260	3,638	209,601	107,177
345,275	3,871	209,422	107,239
346,289	3,895	209,333	107,200
347,304	3,916	209,196	107,136
348,319	3,874	209,131	107,063
349,333	3,834	208,912	106,913
350,348	4,004	208,843	106,987
351,362	4,043	208,868	107,017
352,377	3,827	208,655	106,749
353,392	3,879	208,420	106,655
354,406	3,906	208,401	106,654
355,421	193,540	1345,581	1431,892
356,435	154,407	1484,224	1432,000
