DTS Sentinel unit serial number:	SN410029Multiplexer serial number:	ORYXHardware model number:	OX2-SRSoftware version number:	ORYX F/W v4,00 Oryx Data Collector v3.7.2.0data status	okinstallation	B6 Nyhavnadifferential loss correction	single-endedforward channel	channel 2reverse channel	N/Adate	2023/12/10time	10:55:08forward acquisition time	300,00reverse acquisition time	0,00gamma	499,1914k internal	0,3123k external	0,3123temperature offset calibration	1,0000default loss term (dB/km)	0,3820temperature slope calibration	1,0000multiplexer offset coefficient	1,0000multiplexer slope coefficient	1,0000fibre end	0,00T internal ref (°C)	22,61T ext. ref 1 (°C)	6,48T ext. ref 2 (°C)	6,47length (m)	temperature (°C)	Stokes	anti-Stokes-744,400	-64,821	0,070	0,021
-743,385	-23,805	-0,215	-0,096
-742,371	229,086	0,102	0,124
-741,356	47,949	-0,181	0,126
-740,342	-84,656	0,082	-0,019
-739,327	-126,011	-0,203	0,022
-738,312	231,294	0,053	-0,065
-737,298	-20,152	-0,237	0,108
-736,283	-200,000	0,032	-0,192
-735,269	-2,794	-0,237	0,123
-734,254	-54,077	0,132	0,045
-733,239	-92,150	-0,341	-0,071
-732,225	606,461	0,076	0,141
-731,210	-200,000	0,015	0,089
-730,196	-18,169	-0,096	-0,045
-729,181	-200,000	-0,051	-0,180
-728,167	-200,000	-0,030	-0,146
-727,152	-200,000	-0,031	0,000
-726,137	-40,223	-0,077	0,030
-725,123	-200,000	0,028	0,107
-724,108	800,000	-0,015	-0,048
-723,094	120,613	-0,090	-0,083
-722,079	-200,000	0,009	0,045
-721,064	186,726	-0,056	-0,062
-720,050	-200,000	-0,019	-0,089
-719,035	327,875	0,055	0,079
-718,021	-200,000	0,004	0,038
-717,006	100,947	-0,080	-0,069
-715,991	24,112	-0,049	-0,030
-714,977	303,646	-0,025	-0,035
-713,962	-122,828	-0,110	-0,013
-712,948	-57,731	0,085	0,028
-711,933	-200,000	-0,010	0,071
-710,918	-77,839	-0,050	-0,013
-709,904	-43,177	0,024	0,009
-708,889	800,000	0,051	-0,112
-707,875	82,489	0,054	-0,044
-706,860	-157,137	0,051	-0,002
-705,845	546,796	0,017	-0,030
-704,831	240,204	-0,054	0,067
-703,816	-42,100	-0,087	0,033
-702,802	800,000	-0,048	-0,101
-701,787	477,686	-0,071	-0,120
-700,772	207,708	-0,092	-0,107
-699,758	96,684	-0,101	0,086
-698,743	-80,102	-0,099	0,024
-697,729	481,661	0,064	0,109
-696,714	648,108	0,077	0,147
-695,699	-103,091	-0,054	-0,009
-694,685	-91,070	0,032	-0,007
-693,670	-54,208	-0,076	-0,026
-692,656	-173,586	0,034	0,001
-691,641	91,121	0,075	0,063
-690,627	4,399	0,084	-0,045
-689,612	-191,727	0,044	-0,000
-688,597	106,429	-0,043	0,038
-687,583	-200,000	0,008	-0,040
-686,568	-200,000	0,000	-0,117
-685,554	-107,903	0,081	-0,013
-684,539	-200,000	0,003	-0,027
-683,524	113,081	0,033	0,029
-682,510	-129,174	0,037	0,004
-681,495	149,491	-0,069	0,070
-680,481	229,449	-0,011	-0,013
-679,466	121,654	0,066	0,062
-678,451	800,000	-0,043	0,104
-677,437	67,710	-0,031	-0,024
-676,422	-48,778	-0,135	-0,048
-675,408	83,450	-0,127	-0,102
-674,393	800,000	-0,050	-0,111
-673,378	-200,000	-0,044	-0,198
-672,364	497,498	-0,010	0,017
-671,349	58,701	0,112	-0,081
-670,335	-43,968	0,027	0,010
-669,320	-200,000	0,013	-0,159
-668,305	45,927	0,037	-0,025
-667,291	-200,000	-0,015	-0,057
-666,276	800,000	0,024	-0,068
-665,262	-200,000	0,014	-0,074
-664,247	-76,774	-0,163	0,042
-663,232	344,287	0,035	-0,051
-662,218	-151,062	-0,124	-0,007
-661,203	38,114	0,069	-0,046
-660,189	417,111	0,025	-0,040
-659,174	203,419	0,068	-0,078
-658,159	50,585	-0,057	-0,040
-657,145	-101,489	0,081	-0,014
-656,130	-73,516	0,122	0,033
-655,116	-136,583	0,104	-0,009
-654,101	707,432	-0,033	0,065
-653,086	-200,000	0,028	0,094
-652,072	400,522	-0,065	0,101
-651,057	800,000	-0,037	0,102
-650,043	43,439	-0,058	0,040
-649,028	800,000	-0,012	0,038
-648,014	422,055	-0,092	-0,147
-646,999	800,000	-0,072	0,159
-645,984	-28,619	-0,133	-0,057
-644,970	54,760	0,115	0,082
-643,955	-200,000	0,002	-0,075
-642,941	21,550	0,033	-0,020
-641,926	294,220	0,058	0,078
-640,911	64,342	0,087	-0,065
-639,897	800,000	0,061	0,143
-638,882	28,555	0,077	0,048
-637,868	-200,000	-0,007	-0,077
-636,853	800,000	0,067	-0,169
-635,838	-29,377	-0,064	-0,027
-634,824	-200,000	-0,045	-0,178
-633,809	-137,109	0,073	-0,006
-632,795	-200,000	-0,006	-0,084
-631,780	-104,865	0,126	-0,021
-630,765	-200,000	0,008	0,039
-629,751	800,000	-0,056	0,131
-628,736	207,624	0,045	0,053
-627,722	147,105	0,049	-0,049
-626,707	-200,000	-0,019	-0,196
-625,692	356,638	-0,027	-0,040
-624,678	-200,000	0,013	0,151
-623,663	-200,000	-0,013	-0,080
-622,649	-110,396	-0,064	-0,010
-621,634	75,606	-0,149	-0,116
-620,619	-2,512	-0,075	-0,039
-619,605	800,000	-0,039	-0,089
-618,590	-2,924	-0,073	0,038
-617,576	-21,255	0,076	-0,034
-616,561	-200,000	-0,001	0,071
-615,546	150,867	0,078	-0,079
-614,532	-200,000	-0,003	-0,033
-613,517	-200,000	0,009	0,064
-612,503	2,235	0,035	0,019
-611,488	-200,000	-0,004	0,043
-610,474	-200,000	0,024	0,151
-609,459	684,145	0,013	0,024
-608,444	800,000	0,014	-0,045
-607,430	20,138	-0,123	-0,073
-606,415	324,509	-0,037	-0,053
-605,401	-47,251	-0,093	0,034
-604,386	481,362	0,056	0,094
-603,371	800,000	0,020	0,057
-602,357	-145,242	-0,033	0,002
-601,342	216,306	-0,033	-0,039
-600,328	-169,447	-0,093	-0,002
-599,313	7,450	0,049	-0,027
-598,298	-3,412	0,047	0,024
-597,284	74,598	0,101	-0,079
-596,269	-28,309	-0,066	-0,028
-595,255	-75,158	0,247	0,065
-594,240	-44,913	-0,203	0,075
-593,225	729,267	-0,070	-0,139
-592,211	-200,000	0,014	-0,059
-591,196	26,985	0,181	-0,112
-590,182	46,676	-0,112	0,077
-589,167	-200,000	0,016	0,123
-588,152	306,975	-0,132	0,183
-587,138	-146,939	-0,078	-0,005
-586,123	258,505	0,058	-0,074
-585,109	-200,000	-0,011	-0,043
-584,094	-108,158	0,014	0,002
-583,079	-68,516	-0,072	-0,021
-582,065	70,456	-0,098	-0,075
-581,050	-200,000	0,003	0,089
-580,036	346,968	0,028	-0,041
-579,021	178,443	-0,046	0,050
-578,006	-114,887	-0,132	0,018
-576,992	384,016	-0,068	-0,104
-575,977	-126,138	0,072	0,008
-574,963	-200,000	0,001	-0,014
-573,948	-150,312	-0,059	-0,003
-572,934	84,530	-0,090	-0,073
-571,919	682,458	0,049	-0,096
-570,904	-82,011	0,140	-0,034
-569,890	488,543	0,046	-0,078
-568,875	7,445	0,043	-0,024
-567,861	-131,578	0,073	0,007
-566,846	360,412	0,050	0,074
-565,831	28,133	-0,070	-0,044
-564,817	-200,000	-0,001	0,054
-563,802	-84,244	-0,031	0,007
-562,788	-134,375	-0,047	0,004
-561,773	31,855	0,036	-0,023
-560,758	-112,173	-0,099	-0,015
-559,744	-200,000	-0,028	0,101
-558,729	-97,084	-0,038	-0,007
-557,715	-67,067	0,103	0,030
-556,700	-200,000	0,001	-0,071
-555,685	411,436	-0,097	-0,152
-554,671	210,767	0,056	-0,065
-553,656	-200,000	-0,003	0,063
-552,642	-97,606	-0,051	-0,010
-551,627	97,313	0,106	-0,090
-550,612	-200,000	-0,002	-0,017
-549,598	478,101	0,034	-0,057
-548,583	800,000	0,024	-0,056
-547,569	-136,384	0,075	-0,006
-546,554	-200,000	-0,030	-0,123
-545,539	5,745	0,027	-0,015
-544,525	658,039	-0,088	0,168
-543,510	232,502	0,023	-0,028
-542,496	-200,000	-0,003	-0,163
-541,481	-107,268	-0,056	0,009
-540,466	-200,000	-0,014	-0,076
-539,452	-35,845	0,072	0,029
-538,437	800,000	0,027	-0,069
-537,423	-123,378	-0,126	0,015
-536,408	-200,000	0,045	0,168
-535,393	87,379	-0,105	-0,086
-534,379	118,231	-0,074	-0,067
-533,364	-41,266	-0,143	0,054
-532,350	89,773	0,067	-0,055
-531,335	-200,000	0,027	-0,106
-530,321	-64,465	0,112	0,033
-529,306	-51,158	-0,143	0,049
-528,291	206,391	0,040	0,047
-527,277	77,156	-0,071	-0,056
-526,262	-133,743	-0,106	-0,010
-525,248	-124,362	-0,076	0,009
-524,233	-64,519	0,072	0,021
-523,218	243,273	-0,064	0,080
-522,204	32,995	-0,060	0,038
-521,189	467,989	0,045	-0,074
-520,175	-139,847	-0,049	-0,004
-519,160	-85,659	0,062	0,014
-518,145	-43,865	-0,051	-0,019
-517,131	194,145	0,077	0,086
-516,116	-200,000	-0,013	0,133
-515,102	-200,000	-0,002	-0,081
-514,087	-200,000	0,005	-0,019
-513,072	800,000	-0,028	-0,060
-512,058	-13,197	0,138	-0,066
-511,043	126,157	0,023	0,021
-510,029	-200,000	-0,014	-0,070
-509,014	664,604	0,055	-0,104
-507,999	322,562	-0,046	0,065
-506,985	800,000	0,034	0,092
-505,970	-200,000	0,021	0,083
-504,956	-134,620	-0,028	0,002
-503,941	-200,000	-0,011	0,037
-502,926	13,152	-0,062	0,035
-501,912	-89,417	0,096	0,021
-500,897	710,452	-0,038	-0,075
-499,883	-103,491	-0,097	0,017
-498,868	17,979	-0,128	-0,075
-497,853	-121,725	0,087	-0,010
-496,839	267,421	-0,045	0,058
-495,824	-200,000	-0,011	0,071
-494,810	-23,475	0,058	0,025
-493,795	-84,086	0,016	0,004
-492,781	4,306	-0,023	-0,012
-491,766	114,547	0,064	-0,057
-490,751	800,000	0,032	-0,081
-489,737	82,665	-0,067	0,053
-488,722	-59,640	0,127	0,040
-487,708	-108,981	0,087	0,014
-486,693	-15,933	-0,109	0,051
-485,678	-65,270	-0,130	-0,038
-484,664	-200,000	0,021	-0,094
-483,649	242,817	-0,083	0,102
-482,635	800,000	0,032	0,083
-481,620	800,000	0,023	0,053
-480,605	300,778	0,012	-0,016
-479,591	800,000	-0,027	0,069
-478,576	800,000	-0,037	0,090
-477,562	-119,838	-0,155	0,019
-476,547	-200,000	-0,005	-0,080
-475,532	60,167	-0,105	0,076
-474,518	-200,000	0,013	-0,047
-473,503	367,377	0,111	-0,166
-472,489	-36,368	-0,076	-0,030
-471,474	-125,631	0,115	0,013
-470,459	476,573	-0,045	-0,075
-469,445	-200,000	-0,002	0,017
-468,430	-21,330	-0,108	-0,049
-467,416	-104,182	0,097	0,016
-466,401	495,387	-0,075	-0,127
-465,386	-54,984	-0,046	0,015
-464,372	-2,592	0,050	0,026
-463,357	575,654	0,008	0,014
-462,343	689,501	0,045	-0,087
-461,328	800,000	0,027	0,068
-460,313	-119,390	0,056	0,007
-459,299	72,752	0,175	0,134
-458,284	-200,000	0,018	0,144
-457,270	714,912	0,066	-0,130
-456,255	800,000	0,025	-0,079
-455,241	155,763	0,083	-0,084
-454,226	159,930	0,098	0,101
-453,211	800,000	0,022	0,050
-452,197	185,699	-0,074	-0,081
-451,182	173,411	-0,050	0,053
-450,168	-185,291	-0,028	-0,000
-449,153	-4,530	-0,091	0,046
-448,138	-200,000	0,011	-0,085
-447,124	229,128	-0,114	-0,137
-446,109	-40,725	0,027	-0,010
-445,095	650,925	-0,060	0,113
-444,080	-200,000	0,024	0,091
-443,065	62,088	0,121	0,089
-442,051	-200,000	-0,013	-0,094
-441,036	-200,000	-0,015	-0,117
-440,022	-95,542	0,192	-0,038
-439,007	-138,993	-0,060	0,005
-437,992	-107,050	-0,050	-0,008
-436,978	36,234	0,046	0,030
-435,963	-200,000	0,024	0,106
-434,949	-20,141	-0,185	0,083
-433,934	-200,000	0,034	0,169
-432,919	-140,152	-0,114	-0,009
-431,905	-139,544	-0,113	0,009
-430,890	-26,685	0,089	-0,038
-429,876	83,529	0,124	0,100
-428,861	212,602	-0,059	-0,069
-427,846	-5,130	-0,136	0,069
-426,832	104,205	-0,028	0,024
-425,817	351,306	-0,043	-0,063
-424,803	-200,000	0,082	0,000
-423,788	85,578	0,073	-0,059
-422,773	111,833	-0,062	-0,055
-421,759	-5,736	0,104	-0,052
-420,744	-30,446	-0,034	-0,014
-419,730	396,316	-0,091	-0,140
-418,715	127,976	0,081	0,076
-417,701	-80,125	-0,060	0,015
-416,686	800,000	0,011	0,028
-415,671	-200,000	0,006	-0,114
-414,657	135,954	0,052	0,050
-413,642	-200,000	-0,006	-0,049
-412,628	-200,000	0,007	-0,077
-411,613	-105,661	0,014	0,002
-410,598	36,204	0,093	0,060
-409,584	800,000	0,017	0,051
-408,569	-65,270	0,225	0,066
-407,555	-74,328	-0,020	0,005
-406,540	800,000	-0,031	-0,083
-405,525	8,434	0,064	0,035
-404,511	-200,000	-0,014	-0,064
-403,496	-200,000	-0,097	-0,000
-402,482	51,749	0,048	0,034
-401,467	-93,040	0,093	0,019
-400,452	-200,000	0,001	0,077
-399,438	-82,922	0,139	-0,033
-398,423	800,000	-0,028	-0,088
-397,409	164,926	0,055	-0,058
-396,394	576,143	0,061	-0,109
-395,379	800,000	-0,063	-0,160
-394,365	800,000	-0,040	0,095
-393,350	450,443	-0,031	0,051
-392,336	-200,000	-0,025	0,139
-391,321	-25,422	0,095	-0,041
-390,306	278,353	0,075	0,098
-389,292	-114,264	-0,122	-0,017
-388,277	-120,925	-0,033	0,004
-387,263	-49,164	0,074	0,026
-386,248	800,000	-0,036	0,087
-385,233	554,683	-0,054	0,096
-384,219	305,151	0,069	-0,094
-383,204	-109,611	-0,141	0,022
-382,190	-66,986	0,089	0,026
-381,175	139,747	0,054	0,053
-380,160	7,232	0,153	0,084
-379,146	-200,000	-0,008	-0,036
-378,131	56,698	-0,037	0,026
-377,117	234,287	0,042	-0,050
-376,102	800,000	-0,054	0,152
-375,088	800,000	-0,048	-0,119
-374,073	800,000	-0,031	0,087
-373,058	650,066	-0,075	0,142
-372,044	800,000	0,062	0,186
-371,029	-200,000	0,007	0,028
-370,015	31,292	0,031	0,019
-369,000	-40,578	0,063	-0,024
-367,985	800,000	-0,028	-0,071
-366,971	-200,000	-0,019	-0,082
-365,956	560,696	-0,024	-0,043
-364,942	-10,107	0,123	0,060
-363,927	-200,000	-0,011	0,148
-362,912	-39,516	-0,118	-0,045
-361,898	218,581	-0,039	-0,046
-360,883	-39,812	-0,027	0,010
-359,869	15,612	0,022	0,013
-358,854	-87,058	0,187	-0,042
-357,839	-89,487	0,075	0,016
-356,825	-108,724	0,033	0,005
-355,810	174,393	0,104	0,110
-354,796	800,000	0,033	-0,084
-353,781	-138,464	0,027	0,002
-352,766	-90,654	-0,081	0,017
-351,752	184,327	0,086	0,093
-350,737	-96,039	0,064	0,012
-349,723	-14,714	0,020	0,009
-348,708	-115,299	-0,102	-0,014
-347,693	-5,048	-0,078	-0,039
-346,679	-45,378	-0,022	-0,008
-345,664	-54,852	-0,033	-0,011
-344,650	-68,064	0,078	0,022
-343,635	-51,204	-0,060	0,020
-342,620	-200,000	0,001	0,214
-341,606	-200,000	0,010	0,122
-340,591	-100,410	-0,007	-0,001
-339,577	356,783	-0,028	-0,042
-338,562	-109,348	0,096	0,015
-337,548	800,000	0,032	0,093
-336,533	-34,394	-0,145	0,058
-335,518	800,000	0,011	0,033
-334,504	9,876	0,109	0,060
-333,489	-163,883	0,139	-0,005
-332,475	-109,091	-0,109	-0,017
-331,460	108,009	-0,105	0,092
-330,445	-200,000	0,023	0,100
-329,431	257,761	-0,061	-0,077
-328,416	260,299	-0,023	-0,029
-327,402	-103,806	-0,027	-0,005
-326,387	725,208	0,011	0,022
-325,372	-200,000	-0,004	-0,029
-324,358	-200,000	-0,018	-0,125
-323,343	350,709	0,040	0,058
-322,329	-200,000	-0,011	-0,053
-321,314	-49,440	0,065	-0,023
-320,299	-200,000	-0,028	0,164
-319,285	509,870	0,018	0,030
-318,270	-4,286	-0,055	-0,028
-317,256	-200,000	0,002	-0,112
-316,241	4,994	0,128	-0,069
-315,226	-144,608	-0,147	0,010
-314,212	-1,540	0,094	0,048
-313,197	-200,000	-0,012	0,051
-312,183	8,731	0,031	0,017
-311,168	-200,000	0,006	-0,081
-310,153	-75,863	-0,065	-0,017
-309,139	46,506	-0,112	0,076
-308,124	-200,000	-0,026	0,201
-307,110	66,628	0,016	-0,012
-306,095	-200,000	0,008	-0,047
-305,080	72,610	-0,020	0,016
-304,066	112,052	0,044	0,039
-303,051	800,000	-0,020	-0,063
-302,037	800,000	-0,022	-0,053
-301,022	119,727	0,033	0,030
-300,008	276,890	0,034	-0,045
-298,993	341,583	-0,013	-0,019
-297,978	-75,450	0,060	-0,015
-296,964	170,162	0,072	-0,075
-295,949	468,562	-0,047	-0,078
-294,935	-200,000	-0,003	-0,106
-293,920	-200,000	0,021	0,087
-292,905	-200,000	-0,017	0,138
-291,891	800,000	0,059	0,148
-290,876	-200,000	-0,033	0,111
-289,862	-166,950	-0,055	-0,002
-288,847	-200,000	-0,003	-0,076
-287,832	-26,506	0,128	-0,055
-286,818	-72,637	-0,027	-0,007
-285,803	-63,213	0,129	0,039
-284,789	-140,882	0,038	0,003
-283,774	234,182	-0,087	0,105
-282,759	-200,000	-0,044	-0,210
-281,745	425,484	-0,048	-0,077
-280,730	-200,000	-0,019	-0,164
-279,716	-167,600	-0,091	0,003
-278,701	-200,000	0,024	-0,121
-277,686	-89,042	0,052	-0,011
-276,672	150,327	0,054	0,054
-275,657	-79,597	0,080	0,020
-274,643	585,786	0,027	0,048
-273,628	800,000	-0,069	0,170
-272,613	-200,000	0,002	0,074
-271,599	-23,803	0,189	-0,082
-270,584	145,631	-0,037	0,036
-269,570	185,761	-0,094	-0,102
-268,555	-200,000	0,011	-0,038
-267,540	418,843	0,083	0,130
-266,526	-200,000	0,008	0,075
-265,511	-43,912	-0,048	0,017
-264,497	-159,234	0,083	-0,003
-263,482	208,218	-0,005	0,006
-262,467	600,438	-0,043	0,079
-261,453	-137,298	0,133	-0,011
-260,438	116,300	-0,026	-0,023
-259,424	795,867	0,023	-0,046
-258,409	-112,546	0,129	0,019
-257,395	-200,000	0,009	0,040
-256,380	800,000	0,059	0,124
-255,365	338,413	0,036	-0,051
-254,351	-200,000	-0,006	-0,068
-253,336	-73,997	0,158	-0,042
-252,322	68,219	-0,044	-0,033
-251,307	-61,287	0,046	0,014
-250,292	83,685	0,034	-0,027
-249,278	7,157	-0,023	0,013
-248,263	-46,591	-0,120	0,043
-247,249	154,160	0,095	0,096
-246,234	109,607	0,118	-0,103
-245,219	-200,000	0,005	0,073
-244,205	-12,845	-0,077	-0,037
-243,190	-108,550	0,097	0,015
-242,176	-110,257	0,100	-0,015
-241,161	-200,000	0,015	-0,049
-240,146	156,186	0,043	-0,043
-239,132	-116,694	-0,047	-0,006
-238,117	-111,181	-0,219	-0,032
-237,103	-78,269	0,101	0,025
-236,088	69,530	0,048	0,036
-235,073	-131,378	0,103	0,010
-234,059	-154,404	-0,016	-0,001
-233,044	-70,385	-0,110	-0,030
-232,030	-200,000	-0,013	-0,061
-231,015	-152,251	-0,073	-0,004
-230,000	-101,508	-0,188	0,033
-228,986	774,594	-0,030	0,061
-227,971	-200,000	0,002	0,024
-226,957	257,771	0,048	0,060
-225,942	-97,710	-0,102	0,019
-224,927	626,580	0,052	-0,097
-223,913	-47,629	-0,068	0,024
-222,898	-200,000	-0,043	-0,159
-221,884	-118,329	0,093	0,012
-220,869	-125,650	0,087	0,010
-219,855	74,698	0,108	-0,083
-218,840	-200,000	-0,029	0,101
-217,825	-85,702	0,199	-0,045
-216,811	645,892	-0,090	0,169
-215,796	-79,872	-0,066	-0,016
-214,782	800,000	0,033	-0,068
-213,767	-200,000	0,004	-0,073
-212,752	800,000	0,059	0,120
-211,738	18,835	0,095	0,056
-210,723	-99,851	0,078	0,014
-209,709	-27,807	-0,080	-0,034
-208,694	74,677	-0,089	-0,068
-207,679	-200,000	0,005	-0,043
-206,665	4,668	-0,123	-0,066
-205,650	-200,000	-0,002	0,019
-204,636	-200,000	0,003	0,017
-203,621	-105,200	-0,047	0,008
-202,606	55,412	0,101	-0,071
-201,592	208,850	-0,111	0,128
-200,577	-200,000	-0,004	0,081
-199,563	430,510	0,051	-0,081
-198,548	-200,000	0,005	-0,037
-197,533	-62,929	-0,048	-0,014
-196,519	46,033	0,050	0,033
-195,504	800,000	0,041	-0,124
-194,490	156,362	-0,040	-0,040
-193,475	800,000	0,016	-0,043
-192,460	120,603	0,074	-0,067
-191,446	-200,000	0,022	0,130
-190,431	181,851	-0,011	0,012
-189,417	800,000	-0,024	0,063
-188,402	639,583	-0,037	0,070
-187,387	-8,519	-0,137	0,067
-186,373	-200,000	0,003	-0,073
-185,358	-35,580	-0,016	0,006
-184,344	58,712	-0,093	0,067
-183,329	-90,382	0,072	-0,015
-182,315	213,840	0,084	-0,097
-181,300	-1,502	-0,087	0,045
-180,285	-62,264	-0,175	0,053
-179,271	-200,000	0,009	-0,062
-178,256	800,000	0,022	0,064
-177,242	-47,666	0,074	0,026
-176,227	383,682	0,061	-0,092
-175,212	23,040	0,144	-0,086
-174,198	-100,172	-0,050	-0,009
-173,183	800,000	-0,038	-0,119
-172,169	800,000	0,010	-0,025
-171,154	-9,942	-0,047	-0,023
-170,139	-200,000	0,014	-0,096
-169,125	-200,000	-0,031	0,000
-168,110	209,266	-0,083	0,095
-167,096	-50,499	-0,043	-0,015
-166,081	-200,000	0,009	0,096
-165,066	-108,904	0,008	-0,001
-164,052	800,000	-0,022	-0,066
-163,037	-161,334	-0,146	-0,005
-162,023	800,000	-0,042	0,109
-161,008	260,952	-0,058	0,073
-159,993	23,035	-0,040	0,024
-158,979	237,173	0,045	-0,055
-157,964	292,429	-0,044	0,059
-156,950	800,000	0,036	-0,104
-155,935	509,294	0,021	0,035
-154,920	-42,200	-0,147	-0,054
-153,906	-30,812	-0,079	-0,032
-152,891	-200,000	-0,008	0,041
-151,877	776,334	0,068	-0,136
-150,862	-200,000	0,009	0,044
-149,847	36,778	-0,086	0,055
-148,833	82,828	-0,078	0,062
-147,818	-200,000	0,006	0,055
-146,804	270,607	-0,070	-0,090
-145,789	-200,000	-0,029	0,112
-144,775	180,838	0,031	0,033
-143,760	800,000	-0,059	-0,140
-142,745	287,093	0,072	-0,095
-141,731	210,150	0,126	-0,145
-140,716	45,498	0,033	0,022
-139,702	-135,494	0,188	0,016
-138,687	271,513	0,030	0,039
-137,672	72,584	0,084	0,064
-136,658	800,000	0,039	-0,079
-135,643	-200,000	0,040	-0,130
-134,629	707,589	-0,061	-0,118
-133,614	185,256	-0,022	0,024
-132,599	333,654	-0,037	-0,052
-131,585	272,313	-0,052	0,067
-130,570	-200,000	-0,006	-0,083
-129,556	-200,000	-0,006	0,044
-128,541	301,814	0,085	-0,115
-127,526	356,075	-0,038	-0,055
-126,512	-3,837	0,108	-0,054
-125,497	-200,000	-0,020	0,110
-124,483	161,333	0,054	0,055
-123,468	-18,877	-0,058	-0,026
-122,453	-110,987	-0,096	0,014
-121,439	800,000	-0,042	-0,111
-120,424	35,274	-0,030	0,019
-119,410	-200,000	0,011	0,066
-118,395	36,732	-0,021	-0,014
-117,380	800,000	0,039	-0,094
-116,366	-92,879	0,051	0,010
-115,351	-200,000	0,009	0,064
-114,337	800,000	-0,032	0,068
-113,322	344,673	-0,018	-0,025
-112,307	800,000	-0,079	0,177
-111,293	-70,249	0,041	-0,011
-110,278	-83,583	-0,108	0,025
-109,264	-200,000	0,009	0,035
-108,249	800,000	-0,012	-0,039
-107,234	163,806	0,054	0,056
-106,220	-9,199	-0,100	-0,048
-105,205	626,288	-0,031	0,057
-104,191	44,623	-0,053	0,035
-103,176	15,821	-0,111	0,063
-102,162	-200,000	0,010	0,077
-101,147	640,560	-0,009	-0,017
-100,132	129,004	-0,139	-0,129
-99,118	800,000	-0,036	-0,083
-98,103	800,000	-0,032	-0,098
-97,089	323,179	0,038	-0,053
-96,074	-200,000	0,002	-0,007
-95,059	-159,141	-0,027	-0,001
-94,045	-200,000	-0,008	0,072
-93,030	-200,000	-0,051	0,000
-92,016	800,000	-0,036	-0,098
-91,001	800,000	-0,039	0,097
-89,986	16,682	-0,129	-0,074
-88,972	631,533	0,050	-0,093
-87,957	129,673	-0,004	0,004
-86,943	112,718	-0,074	0,065
-85,928	199,043	-0,053	-0,059
-84,913	-200,000	0,018	-0,205
-83,899	88,251	0,027	0,021
-82,884	59,192	0,012	-0,009
-81,870	-200,000	-0,015	-0,103
-80,855	124,959	-0,083	0,076
-79,840	-200,000	0,003	-0,028
-78,826	-16,709	0,078	0,036
-77,811	-29,308	0,074	-0,030
-76,797	-200,000	0,010	-0,050
-75,782	-200,000	0,078	-0,000
-74,767	-200,000	-0,006	0,096
-73,753	2,132	-0,154	0,080
-72,738	-142,167	0,126	-0,009
-71,724	-135,237	-0,107	0,009
-70,709	-3,146	-0,047	0,024
-69,694	-200,000	-0,010	0,178
-68,680	-200,000	-0,018	0,062
-67,665	-200,000	-0,017	0,081
-66,651	-105,766	-0,054	-0,009
-65,636	-200,000	-0,017	0,127
-64,622	-200,000	0,012	-0,144
-63,607	-28,610	0,020	-0,008
-62,592	-64,220	0,100	-0,029
-61,578	-109,928	0,149	-0,022
-60,563	91,254	0,036	-0,029
-59,549	-200,000	-0,010	0,059
-58,534	-180,007	-1,232	-0,019
-57,519	601,261	-0,854	-1,546
-56,505	-200,000	-0,957	-4,497
-55,490	71,125	0,627	-0,471
-54,476	800,000	4,888	11,793
-53,461	-200,000	13,451	253,349
-52,446	-200,000	688,544	2269,887
-51,432	596,990	1622,700	2928,777
-50,417	120,980	1636,179	1476,894
-49,403	73,684	1290,364	979,955
-48,388	38,434	1025,220	661,572
-47,373	24,595	982,507	588,489
-46,359	23,744	972,441	579,645
-45,344	22,790	968,112	573,922
-44,330	22,738	966,646	572,862
-43,315	22,631	965,307	571,696
-42,300	22,604	964,344	571,014
-41,286	22,650	963,199	570,465
-40,271	22,605	962,341	569,786
-39,257	22,673	961,328	569,384
-38,242	22,651	960,415	568,751
-37,227	22,596	959,548	568,036
-36,213	22,590	958,567	567,414
-35,198	22,536	957,915	566,831
-34,184	22,660	957,266	566,824
-33,169	22,570	956,344	565,967
-32,154	22,619	955,529	565,620
-31,140	22,670	954,489	565,145
-30,125	22,682	953,888	564,805
-29,111	22,642	952,861	564,047
-28,096	22,640	952,407	563,749
-27,082	22,627	951,435	563,108
-26,067	22,680	950,825	562,896
-25,052	22,621	950,166	562,293
-24,038	22,641	949,496	561,939
-23,023	22,642	948,789	561,503
-22,009	22,698	948,051	561,222
-20,994	22,732	947,465	560,963
-19,979	22,754	946,780	560,605
-18,965	22,662	946,341	560,028
-17,950	22,651	945,647	559,559
-16,936	22,609	944,857	558,935
-15,921	22,611	944,336	558,614
-14,906	22,567	943,496	557,953
-13,892	22,563	943,001	557,625
-12,877	22,489	942,454	557,046
-11,863	22,530	941,616	556,657
-10,848	22,563	941,016	556,384
-9,833	22,624	940,864	556,466
-8,819	22,577	940,249	555,931
-7,804	22,526	939,362	555,226
-6,790	22,499	938,816	554,794
-5,775	22,598	938,128	554,680
-4,760	22,526	937,507	554,061
-3,746	22,562	937,009	553,860
-2,731	22,367	936,422	552,875
-1,717	22,353	935,615	552,331
-0,702	22,324	934,979	551,841
0,313	22,171	934,205	551,737
1,327	25,221	932,187	560,091
2,342	34,876	796,798	504,474
3,356	32,907	452,066	283,222
4,371	1,997	293,974	153,327
5,386	-2,320	274,721	139,189
6,400	-3,971	269,044	134,768
7,415	-4,287	266,468	133,175
8,429	-4,017	265,075	132,713
9,444	-3,941	264,301	132,384
10,459	-4,018	263,675	131,989
11,473	-4,214	263,114	131,518
12,488	-4,006	262,627	131,451
13,502	-4,242	261,928	130,877
14,517	-4,253	261,635	130,709
15,531	-4,325	261,368	130,499
16,546	-4,372	260,903	130,212
17,561	-4,472	260,620	129,969
18,575	-4,190	260,249	130,026
19,590	-4,344	259,845	129,675
20,604	-4,332	259,703	129,603
21,619	-4,353	259,415	129,429
22,634	-4,330	258,921	129,192
23,648	-4,431	258,712	128,986
24,663	-4,413	258,544	128,907
25,677	-4,493	258,312	128,708
26,692	-4,456	257,943	128,546
27,707	-4,362	257,717	128,505
28,721	-4,335	257,436	128,377
29,736	-4,330	257,236	128,271
30,750	-4,286	256,876	128,119
31,765	-4,374	256,638	127,910
32,780	-4,386	256,463	127,801
33,794	-4,388	256,280	127,697
34,809	-4,427	255,928	127,476
35,823	-4,481	255,727	127,317
36,838	-4,532	255,477	127,136
37,853	-4,462	255,265	127,081
38,867	-4,497	255,046	126,930
39,882	-4,470	254,772	126,806
40,896	-4,485	254,627	126,710
41,911	-4,467	254,430	126,616
42,926	-4,383	254,179	126,553
43,940	-4,598	253,986	126,258
44,955	-4,565	253,695	126,130
45,969	-4,390	253,401	126,126
46,984	-4,745	253,281	125,745
47,999	-4,958	253,048	125,433
49,013	-5,242	252,709	125,007
50,028	-5,104	252,433	124,979
51,042	-5,244	252,177	124,720
52,057	-5,289	251,981	124,573
53,071	-5,235	251,905	124,571
54,086	-5,193	251,596	124,443
55,101	-4,976	251,525	124,585
56,115	-4,661	251,442	124,805
57,130	-4,232	251,274	125,081
58,144	-4,292	251,147	124,955
59,159	-4,337	250,980	124,821
60,174	-4,213	250,798	124,826
61,188	-4,237	250,499	124,646
62,203	-4,271	250,360	124,537
63,217	-4,293	250,126	124,390
64,232	-4,358	249,880	124,201
65,247	-4,355	249,652	124,079
66,261	-4,051	249,335	124,171
67,276	-4,447	249,194	123,751
68,290	-4,785	248,879	123,295
69,305	-4,882	248,740	123,132
70,320	-4,850	248,626	123,092
71,334	-4,661	248,466	123,163
72,349	-4,229	248,240	123,408
73,363	-4,269	247,988	123,237
74,378	-4,368	247,921	123,109
75,393	-4,320	247,687	123,023
76,407	-4,399	247,528	122,866
77,422	-4,229	247,148	122,810
78,436	-4,190	247,074	122,795
79,451	-4,051	246,831	122,781
80,466	-4,360	246,698	122,443
81,480	-4,514	246,317	122,112
82,495	-4,651	246,253	121,955
83,509	-4,585	246,148	121,947
84,524	-4,577	245,805	121,773
85,539	-4,761	245,614	121,513
86,553	-4,719	245,406	121,435
87,568	-4,788	245,211	121,269
88,582	-4,738	245,251	121,320
89,597	-4,529	244,789	121,256
90,611	-4,728	244,873	121,120
91,626	-4,577	244,631	121,116
92,641	-4,517	244,638	121,159
93,655	-4,454	244,179	120,973
94,670	-4,329	244,015	120,986
95,684	-4,699	243,868	120,594
96,699	-4,454	243,569	120,639
97,714	-4,548	243,404	120,468
98,728	-4,623	243,119	120,254
99,743	-4,609	243,029	120,210
100,757	-4,831	242,813	119,908
101,772	-4,811	242,507	119,763
102,787	-4,727	242,552	119,844
103,801	-4,374	242,210	119,957
104,816	-4,571	242,223	119,789
105,830	-4,359	242,088	119,888
106,845	-4,261	241,983	119,906
107,860	-4,299	241,711	119,730
108,874	-4,404	241,524	119,539
109,889	-4,628	241,317	119,241
110,903	-4,545	241,153	119,218
111,918	-4,554	240,979	119,114
112,933	-4,373	240,651	119,090
113,947	-4,224	240,654	119,203
114,962	-4,321	240,445	119,010
115,976	-4,365	240,289	118,886
116,991	-4,431	240,166	118,760
118,006	-4,577	240,067	118,581
119,020	-4,534	239,863	118,505
120,035	-4,273	239,615	118,585
121,049	-4,429	239,729	118,504
122,064	-4,469	239,456	118,325
123,079	-4,410	239,108	118,191
124,093	-4,464	239,009	118,087
125,108	-4,669	238,540	117,678
126,122	-4,982	238,458	117,372
127,137	-4,836	238,348	117,426
128,151	-4,864	238,133	117,287
129,166	-4,834	238,105	117,287
130,181	-4,678	237,715	117,212
131,195	-4,675	237,680	117,186
132,210	-4,685	237,532	117,094
133,224	-4,547	237,300	117,081
134,239	-4,375	237,167	117,145
135,254	-4,569	237,059	116,924
136,268	-4,694	236,825	116,697
137,283	-4,609	236,453	116,572
138,297	-4,806	236,325	116,339
139,312	-4,795	236,131	116,243
140,327	-4,479	236,021	116,433
141,341	-4,170	236,109	116,714
142,356	-4,018	235,814	116,681
143,370	-4,141	235,781	116,555
144,385	-3,998	235,548	116,544
145,400	-4,007	235,332	116,420
146,414	-4,141	235,232	116,252
147,429	-4,052	235,059	116,228
148,443	-4,100	234,832	116,066
149,458	-4,009	234,548	115,989
150,473	-4,022	234,570	115,979
151,487	-4,213	234,399	115,731
152,502	-4,221	234,244	115,638
153,516	-4,097	234,132	115,671
154,531	-4,020	233,851	115,584
155,546	-4,200	233,830	115,420
156,560	-4,115	233,539	115,333
157,575	-4,371	233,183	114,944
158,589	-4,252	233,063	114,969
159,604	-4,237	233,007	114,944
160,619	-4,146	232,997	115,000
161,633	-4,188	232,819	114,869
162,648	-4,059	232,715	114,909
163,662	-4,009	232,480	114,822
164,677	-4,185	232,381	114,624
165,692	-4,112	232,152	114,558
166,706	-3,932	231,843	114,538
167,721	-4,116	231,846	114,385
168,735	-3,903	231,633	114,437
169,750	-4,050	231,496	114,243
170,764	-3,995	231,350	114,204
171,779	-4,047	231,278	114,118
172,794	-3,901	231,207	114,187
173,808	-4,235	230,976	113,800
174,823	-4,619	230,597	113,302
175,837	-4,616	230,485	113,240
176,852	-4,442	230,477	113,362
177,867	-4,197	230,289	113,451
178,881	-3,992	230,114	113,515
179,896	-4,078	230,046	113,404
180,910	-3,815	229,773	113,465
181,925	-3,805	229,625	113,390
182,940	-3,921	229,417	113,186
183,954	-3,972	229,489	113,172
184,969	-3,969	229,215	113,029
185,983	-4,043	229,055	112,883
186,998	-3,940	228,976	112,914
188,013	-3,979	228,781	112,777
189,027	-3,881	228,667	112,787
190,042	-3,907	228,398	112,624
191,056	-4,144	228,338	112,401
192,071	-3,712	228,058	112,587
193,086	-3,889	227,942	112,383
194,100	-4,095	227,857	112,172
195,115	-4,009	227,405	112,006
196,129	-4,690	227,438	111,486
197,144	-1,155	228,435	114,704
198,159	2,938	229,524	118,419
199,173	4,232	229,567	119,433
200,188	4,176	229,547	119,369
201,202	4,185	229,541	119,362
202,217	4,409	229,341	119,421
203,232	4,512	229,254	119,445
204,246	4,964	229,061	119,683
205,261	4,940	228,775	119,504
206,275	4,951	228,889	119,562
207,290	4,905	228,724	119,429
208,304	4,768	228,558	119,226
209,319	4,862	228,352	119,180
210,334	4,725	228,301	119,038
211,348	4,496	228,073	118,732
212,363	4,106	227,752	118,255
213,377	4,124	227,422	118,087
214,392	3,845	227,380	117,841
215,407	3,889	227,385	117,867
216,421	4,223	227,116	117,972
217,436	4,043	226,866	117,694
218,450	3,769	226,742	117,410
219,465	3,668	226,595	117,246
220,480	3,929	226,447	117,359
221,494	3,912	226,362	117,291
222,509	3,871	226,253	117,193
223,523	3,862	226,118	117,105
224,538	3,801	225,968	116,971
225,553	3,971	225,706	116,954
226,567	4,006	225,577	116,903
227,582	4,245	225,583	117,077
228,596	4,383	225,413	117,084
229,611	4,226	225,247	116,868
230,626	3,842	224,948	116,411
231,640	3,807	224,845	116,322
232,655	4,365	224,785	116,703
233,669	4,450	224,831	116,780
234,684	4,476	224,572	116,655
235,699	4,354	224,492	116,511
236,713	4,063	224,189	116,124
237,728	3,870	223,829	115,782
238,742	4,031	223,758	115,856
239,757	3,929	223,667	115,721
240,772	3,950	223,589	115,686
241,786	3,873	223,362	115,501
242,801	4,340	223,127	115,720
243,815	4,380	223,308	115,833
244,830	4,474	222,992	115,730
245,844	3,932	222,846	115,237
246,859	3,983	222,756	115,218
247,874	3,950	222,585	115,095
248,888	4,214	222,540	115,259
249,903	4,285	222,212	115,132
250,917	3,928	222,207	114,852
251,932	3,994	221,953	114,760
252,947	3,987	221,662	114,594
253,961	3,931	221,475	114,445
254,976	3,828	221,393	114,317
255,990	4,238	221,335	114,581
257,005	4,267	221,278	114,563
258,020	4,127	221,278	114,449
259,034	4,281	221,204	114,515
260,049	4,215	221,014	114,357
261,063	4,465	220,719	114,379
262,078	4,296	220,520	114,141
263,093	4,263	220,548	114,121
264,107	4,403	220,400	114,138
265,122	4,303	220,305	114,005
266,136	4,331	220,278	114,001
267,151	4,478	220,036	113,974
268,166	4,071	219,579	113,428
269,180	3,800	219,445	113,148
270,195	3,828	219,357	113,114
271,209	3,909	219,211	113,088
272,224	3,951	219,062	113,031
273,239	3,993	218,995	113,018
274,253	4,067	218,703	112,911
275,268	3,668	218,607	112,559
276,282	3,515	218,500	112,382
277,297	3,707	218,227	112,372
278,312	3,686	218,167	112,316
279,326	3,993	218,126	112,509
280,341	4,001	218,064	112,473
281,355	4,069	217,768	112,360
282,370	4,222	217,613	112,382
283,384	3,892	217,371	112,006
284,399	3,932	217,224	111,950
285,414	3,494	217,246	111,633
286,428	3,808	217,231	111,843
287,443	4,237	216,962	112,006
288,457	4,243	216,851	111,943
289,472	4,046	216,706	111,715
290,487	3,530	216,556	111,254
291,501	3,450	216,339	111,075
292,516	3,768	216,176	111,212
293,530	3,697	216,223	111,174
294,545	3,723	215,957	111,046
295,560	3,813	215,907	111,075
296,574	3,743	215,747	110,933
297,589	3,964	215,689	111,052
298,603	4,014	215,529	110,996
299,618	4,097	215,364	110,962
300,633	3,857	215,330	110,761
301,647	4,174	215,216	110,921
302,662	4,205	215,090	110,868
303,676	4,455	214,793	110,885
304,691	4,034	214,787	110,570
305,706	4,159	214,652	110,580
306,720	4,208	214,464	110,508
307,735	3,895	214,333	110,207
308,749	3,705	214,064	109,922
309,764	3,910	214,155	110,107
310,779	4,175	213,808	110,107
311,793	4,282	213,670	110,103
312,808	4,210	213,528	109,969
313,822	4,033	213,537	109,837
314,837	4,012	213,341	109,711
315,852	3,883	213,019	109,444
316,866	3,991	213,042	109,523
317,881	3,965	213,126	109,538
318,895	4,175	212,772	109,496
319,910	3,923	212,545	109,190
320,925	3,840	212,377	109,035
321,939	3,432	212,156	108,623
322,954	3,655	212,075	108,730
323,968	3,837	212,264	108,946
324,983	3,982	212,138	108,974
325,997	4,085	211,962	108,947
327,012	4,089	211,804	108,859
328,027	4,061	211,687	108,769
329,041	4,220	211,562	108,807
330,056	4,481	211,343	108,869
331,070	4,240	211,172	108,602
332,085	3,717	210,926	108,098
333,100	4,104	210,797	108,294
334,114	4,224	210,703	108,320
335,129	3,898	210,619	108,038
336,143	3,872	210,426	107,912
337,158	3,824	210,301	107,804
338,173	3,966	210,166	107,825
339,187	3,807	210,034	107,636
340,202	3,812	209,831	107,527
341,216	3,649	209,622	107,296
342,231	3,530	209,593	107,188
343,246	3,651	209,376	107,152
344,260	3,925	209,211	107,249
345,275	4,018	209,296	107,348
346,289	4,140	209,255	107,402
347,304	4,208	208,917	107,267
348,319	3,885	208,936	107,041
349,333	3,900	208,718	106,931
350,348	3,769	208,592	106,766
351,362	4,005	208,430	106,838
352,377	4,020	208,443	106,845
353,392	4,069	208,086	106,686
354,406	4,247	208,031	106,772
355,421	193,776	1346,578	1434,677
356,435	154,590	1485,400	1434,799
