DTS Sentinel unit serial number:	SN410029Multiplexer serial number:	ORYXHardware model number:	OX2-SRSoftware version number:	ORYX F/W v4,00 Oryx Data Collector v3.7.2.0data status	okinstallation	B6 Nyhavnadifferential loss correction	single-endedforward channel	channel 2reverse channel	N/Adate	2023/12/07time	16:05:08forward acquisition time	300,00reverse acquisition time	0,00gamma	499,1914k internal	0,3164k external	0,3164temperature offset calibration	1,0000default loss term (dB/km)	0,3820temperature slope calibration	1,0000multiplexer offset coefficient	1,0000multiplexer slope coefficient	1,0000fibre end	0,00T internal ref (°C)	14,50T ext. ref 1 (°C)	-2,08T ext. ref 2 (°C)	-2,07length (m)	temperature (°C)	Stokes	anti-Stokes-744,400	-200,000	0,000	0,096
-743,385	-84,789	-0,220	0,050
-742,371	-200,000	0,006	0,066
-741,356	-89,917	-0,281	0,060
-740,342	-200,000	0,008	-0,076
-739,327	-93,709	-0,350	0,070
-738,312	-200,000	0,139	0,000
-737,298	-120,963	-0,254	-0,031
-736,283	-50,441	0,064	0,022
-735,269	-125,232	-0,299	-0,033
-734,254	-176,020	0,123	-0,002
-733,239	-76,109	-0,493	-0,127
-732,225	-42,854	0,156	-0,058
-731,210	264,802	0,035	0,045
-730,196	-200,000	-0,008	0,193
-729,181	35,262	-0,142	-0,092
-728,167	-200,000	0,024	-0,095
-727,152	259,685	-0,020	-0,025
-726,137	97,217	-0,147	-0,124
-725,123	-8,651	-0,069	-0,034
-724,108	800,000	-0,078	-0,184
-723,094	130,608	-0,091	-0,086
-722,079	-69,052	-0,097	-0,027
-721,064	-200,000	-0,006	-0,067
-720,050	-49,890	-0,057	0,020
-719,035	-4,915	0,054	0,027
-718,021	-200,000	-0,006	-0,163
-717,006	-200,000	-0,056	0,000
-715,991	-139,233	-0,146	-0,011
-714,977	353,969	-0,100	-0,146
-713,962	353,602	0,052	-0,076
-712,948	-200,000	-0,024	0,132
-711,933	-158,502	0,112	0,005
-710,918	59,283	-0,114	-0,083
-709,904	-89,891	0,072	-0,015
-708,889	-84,031	-0,053	0,012
-707,875	-200,000	-0,026	-0,177
-706,860	-200,000	-0,010	0,134
-705,845	800,000	-0,015	-0,038
-704,831	31,943	-0,117	0,074
-703,816	116,611	-0,086	0,078
-702,802	-37,400	-0,076	0,030
-701,787	-200,000	-0,014	-0,083
-700,772	54,824	-0,054	0,038
-699,758	800,000	-0,107	-0,221
-698,743	-200,000	0,001	-0,101
-697,729	166,869	-0,025	0,026
-696,714	-46,517	0,038	-0,014
-695,699	24,212	-0,128	-0,077
-694,685	-200,000	-0,026	0,107
-693,670	211,814	0,037	-0,043
-692,656	354,681	-0,066	-0,096
-691,641	199,301	0,115	-0,129
-690,627	87,118	0,102	-0,082
-689,612	29,237	-0,056	-0,035
-688,597	-10,519	-0,089	-0,043
-687,583	40,481	0,094	0,062
-686,568	-118,285	-0,019	0,002
-685,554	800,000	0,022	0,060
-684,539	800,000	-0,035	0,113
-683,524	-110,036	-0,045	0,007
-682,510	6,563	-0,077	-0,042
-681,495	800,000	0,031	-0,079
-680,481	519,038	-0,025	0,043
-679,466	-200,000	0,004	-0,057
-678,451	797,095	-0,018	-0,036
-677,437	24,674	-0,059	-0,036
-676,422	86,299	0,105	0,085
-675,408	36,699	0,030	0,020
-674,393	-14,210	-0,050	0,024
-673,378	-200,000	-0,025	-0,090
-672,364	162,860	-0,080	0,083
-671,349	129,328	-0,149	0,140
-670,335	507,588	0,070	0,120
-669,320	488,011	-0,018	0,030
-668,305	-200,000	0,001	0,125
-667,291	263,471	-0,048	-0,061
-666,276	-200,000	-0,024	-0,117
-665,262	-200,000	-0,000	-0,124
-664,247	-51,208	0,082	0,028
-663,232	-80,076	-0,073	-0,018
-662,218	-200,000	0,009	0,073
-661,203	-115,669	0,072	0,010
-660,189	-200,000	0,011	-0,052
-659,174	250,072	-0,040	-0,050
-658,159	-109,815	-0,082	0,012
-657,145	-138,934	0,028	0,002
-656,130	-0,009	-0,137	-0,072
-655,116	17,068	0,129	0,075
-654,101	52,878	0,012	-0,008
-653,086	800,000	-0,031	-0,097
-652,072	13,025	-0,121	-0,069
-651,057	27,845	-0,168	-0,103
-650,043	96,776	0,057	-0,048
-649,028	-148,191	0,044	0,003
-648,014	73,517	0,088	-0,067
-646,999	326,468	-0,036	-0,051
-645,984	-22,251	0,058	-0,025
-644,970	229,732	-0,078	-0,093
-643,955	-200,000	0,022	-0,090
-642,941	-119,822	-0,061	-0,008
-641,926	-128,862	0,062	-0,006
-640,911	210,536	-0,010	0,011
-639,897	114,868	-0,044	0,039
-638,882	111,467	-0,083	0,074
-637,868	9,953	0,132	0,073
-636,853	-200,000	-0,006	-0,022
-635,838	-200,000	0,006	-0,169
-634,824	55,102	0,059	-0,042
-633,809	-55,579	0,125	0,041
-632,795	800,000	0,051	0,110
-631,780	-137,327	-0,170	-0,014
-630,765	138,876	-0,090	0,087
-629,751	-147,477	-0,177	-0,011
-628,736	148,429	-0,094	0,093
-627,722	800,000	-0,022	0,049
-626,707	9,089	0,114	0,063
-625,692	-124,750	-0,044	0,005
-624,678	790,295	-0,040	-0,081
-623,663	168,344	-0,067	0,070
-622,649	-200,000	0,014	-0,090
-621,634	-41,861	-0,034	0,013
-620,619	261,843	0,091	-0,115
-619,605	360,464	0,018	-0,026
-618,590	70,914	0,081	-0,062
-617,576	67,232	-0,056	0,041
-616,561	425,129	0,024	-0,038
-615,546	-12,740	-0,054	0,026
-614,532	-74,536	-0,091	0,024
-613,517	-122,313	-0,041	-0,005
-612,503	53,405	0,040	-0,028
-611,488	-200,000	0,014	0,050
-610,474	800,000	0,029	0,087
-609,459	-200,000	0,012	0,058
-608,444	438,939	-0,064	0,103
-607,430	800,000	0,030	-0,089
-606,415	42,610	-0,087	-0,058
-605,401	697,467	-0,021	0,040
-604,386	103,899	0,075	-0,064
-603,371	-200,000	-0,015	-0,119
-602,357	111,794	0,010	0,009
-601,342	-81,365	-0,113	-0,027
-600,328	-147,222	-0,141	0,009
-599,313	-200,000	-0,008	0,077
-598,298	89,072	-0,090	-0,073
-597,284	-71,034	0,153	0,042
-596,269	-200,000	-0,003	-0,020
-595,255	230,482	0,058	0,069
-594,240	-200,000	0,012	0,076
-593,225	800,000	-0,057	-0,124
-592,211	329,097	-0,067	0,095
-591,196	-200,000	0,056	0,000
-590,182	-87,640	0,079	0,017
-589,167	37,040	-0,070	0,045
-588,152	-31,505	0,067	-0,028
-587,138	800,000	-0,036	0,116
-586,123	-105,163	-0,023	-0,004
-585,109	-200,000	0,007	0,075
-584,094	10,971	-0,121	-0,068
-583,079	-66,717	-0,085	0,024
-582,065	-176,084	0,059	0,001
-581,050	-90,726	0,144	-0,030
-580,036	329,326	-0,028	0,039
-579,021	-171,241	-0,207	0,005
-578,006	35,204	-0,165	-0,106
-576,992	144,854	-0,039	0,038
-575,977	121,784	-0,094	0,086
-574,963	-200,000	-0,004	0,049
-573,948	358,075	0,021	-0,031
-572,934	-126,738	-0,133	0,014
-571,919	-20,938	-0,137	0,061
-570,904	-200,000	0,003	-0,040
-569,890	-200,000	0,016	0,070
-568,875	-93,341	-0,093	0,019
-567,861	108,103	0,048	0,042
-566,846	-200,000	-0,030	0,123
-565,831	-200,000	0,021	0,077
-564,817	74,554	-0,091	0,070
-563,802	-200,000	-0,004	-0,054
-562,788	249,759	-0,071	-0,088
-561,773	-200,000	-0,062	0,208
-560,758	800,000	0,023	0,074
-559,744	50,068	0,128	0,088
-558,729	-200,000	0,002	0,065
-557,715	165,347	-0,034	-0,035
-556,700	-144,113	-0,046	-0,003
-555,685	800,000	-0,012	-0,036
-554,671	800,000	0,020	-0,053
-553,656	138,209	0,097	0,093
-552,642	-7,125	0,046	0,023
-551,627	-69,249	-0,111	-0,031
-550,612	34,788	0,039	0,025
-549,598	800,000	-0,017	0,046
-548,583	0,979	-0,063	0,033
-547,569	295,708	-0,038	0,051
-546,554	-24,169	0,067	0,029
-545,539	-200,000	-0,001	0,066
-544,525	130,642	0,077	0,072
-543,510	2,819	-0,074	-0,039
-542,496	-200,000	-0,016	-0,129
-541,481	-33,935	0,126	-0,051
-540,466	158,574	-0,016	0,016
-539,452	-200,000	-0,013	0,048
-538,437	59,704	0,136	0,098
-537,423	800,000	0,047	0,118
-536,408	800,000	-0,023	-0,073
-535,393	-200,000	0,003	0,019
-534,379	-200,000	0,026	-0,257
-533,364	-10,593	0,035	0,017
-532,350	551,130	0,038	-0,067
-531,335	-53,107	0,007	0,002
-530,321	15,032	0,084	0,048
-529,306	29,565	-0,083	0,052
-528,291	246,017	0,060	0,074
-527,277	-3,927	0,121	0,061
-526,262	278,386	-0,123	0,160
-525,248	-200,000	-0,002	-0,032
-524,233	-200,000	-0,016	-0,077
-523,218	-33,490	-0,085	0,034
-522,204	-200,000	-0,015	-0,132
-521,189	-200,000	0,007	-0,044
-520,175	-37,868	-0,092	0,036
-519,160	-200,000	-0,003	-0,072
-518,145	73,376	-0,033	0,025
-517,131	223,865	-0,052	0,061
-516,116	800,000	-0,066	0,157
-515,102	-200,000	-0,026	0,114
-514,087	-89,857	0,143	-0,030
-513,072	-200,000	-0,011	-0,177
-512,058	176,194	-0,049	0,052
-511,043	-49,041	0,153	0,053
-510,029	-105,314	0,178	-0,029
-509,014	91,874	-0,102	-0,083
-507,999	-157,764	0,025	-0,001
-506,985	158,129	0,014	0,014
-505,970	704,976	-0,082	-0,158
-504,956	-200,000	0,050	-0,180
-503,941	349,120	0,054	-0,077
-502,926	-200,000	-0,006	-0,124
-501,912	-44,668	0,154	-0,056
-500,897	-200,000	-0,027	-0,170
-499,883	800,000	0,023	0,054
-498,868	492,204	-0,044	0,073
-497,853	800,000	0,019	-0,040
-496,839	205,089	0,061	0,070
-495,824	55,501	-0,019	0,014
-494,810	641,128	0,050	0,093
-493,795	-101,979	-0,029	0,005
-492,781	53,992	-0,030	0,021
-491,766	-200,000	-0,018	-0,057
-490,751	602,127	0,016	-0,029
-489,737	65,091	-0,152	-0,112
-488,722	367,442	0,039	0,057
-487,708	-200,000	-0,020	0,085
-486,693	56,442	-0,100	0,070
-485,678	-200,000	0,038	-0,158
-484,664	-200,000	0,041	-0,170
-483,649	-200,000	-0,003	0,087
-482,635	-61,912	0,136	0,041
-481,620	641,005	0,069	0,128
-480,605	-200,000	0,005	-0,079
-479,591	113,236	-0,098	-0,086
-478,576	221,731	-0,049	-0,057
-477,562	-55,991	0,180	0,058
-476,547	179,955	-0,161	-0,172
-475,532	-83,926	-0,075	-0,017
-474,518	435,574	-0,068	-0,107
-473,503	-74,437	0,112	-0,029
-472,489	420,873	-0,047	-0,074
-471,474	444,074	-0,023	0,036
-470,459	-15,872	0,037	0,017
-469,445	-200,000	-0,014	0,058
-468,430	157,014	-0,077	0,077
-467,416	658,902	-0,055	-0,103
-466,401	32,693	0,112	-0,070
-465,386	-16,790	0,123	0,056
-464,372	800,000	-0,024	0,060
-463,357	30,778	-0,021	0,013
-462,343	-132,054	-0,130	-0,012
-461,328	-71,322	-0,063	0,017
-460,313	-149,092	0,054	-0,003
-459,299	-131,840	0,134	0,013
-458,284	800,000	-0,049	0,120
-457,270	-87,743	-0,172	-0,037
-456,255	800,000	-0,036	-0,114
-455,241	62,436	0,098	-0,071
-454,226	440,550	-0,048	0,076
-453,211	608,426	0,047	0,085
-452,197	-200,000	0,025	0,109
-451,182	286,830	0,050	-0,066
-450,168	-85,354	0,135	0,030
-449,153	311,623	0,019	-0,026
-448,138	800,000	-0,048	-0,125
-447,124	48,180	0,095	-0,064
-446,109	59,637	-0,067	0,048
-445,095	-47,580	0,074	0,026
-444,080	-8,069	0,089	0,044
-443,065	26,714	-0,056	0,034
-442,051	122,120	0,039	0,036
-441,036	175,023	0,044	-0,046
-440,022	666,478	-0,079	-0,149
-439,007	-93,553	0,139	-0,028
-437,992	799,793	-0,008	-0,016
-436,978	-38,356	0,035	0,013
-435,963	-141,910	-0,139	0,010
-434,949	800,000	0,020	-0,063
-433,934	-200,000	-0,007	0,067
-432,919	182,488	-0,025	-0,026
-431,905	-74,639	-0,067	0,017
-430,890	-26,900	0,075	0,032
-429,876	7,457	0,106	-0,057
-428,861	-55,801	0,123	0,040
-427,846	-200,000	-0,023	-0,077
-426,832	-6,875	-0,156	-0,077
-425,817	-200,000	-0,004	0,139
-424,803	-41,697	0,055	0,020
-423,788	-47,295	0,152	0,053
-422,773	646,888	-0,025	0,046
-421,759	800,000	-0,038	0,104
-420,744	800,000	-0,030	0,079
-419,730	88,462	0,080	0,065
-418,715	-200,000	-0,007	-0,029
-417,701	39,012	-0,023	0,015
-416,686	21,670	0,059	-0,035
-415,671	-200,000	-0,033	0,126
-414,657	-29,861	0,033	-0,013
-413,642	-80,193	-0,085	0,020
-412,628	-200,000	0,055	0,000
-411,613	800,000	-0,058	-0,139
-410,598	264,801	0,025	-0,031
-409,584	0,169	0,039	-0,020
-408,569	48,092	0,038	-0,026
-407,555	-200,000	0,006	0,031
-406,540	800,000	0,046	-0,129
-405,525	116,609	0,064	-0,057
-404,511	-200,000	0,018	-0,065
-403,496	-18,035	-0,108	-0,049
-402,482	50,146	-0,060	0,041
-401,467	60,268	0,064	0,046
-400,452	135,699	0,106	0,100
-399,438	-200,000	0,011	-0,045
-398,423	-42,840	0,019	0,007
-397,409	-43,935	-0,113	-0,041
-396,394	272,968	-0,050	-0,064
-395,379	-200,000	0,019	0,094
-394,365	-135,356	0,102	-0,009
-393,350	43,737	-0,059	0,039
-392,336	26,436	-0,137	-0,083
-391,321	-200,000	-0,013	-0,090
-390,306	-200,000	-0,013	-0,072
-389,292	-92,474	0,034	0,007
-388,277	79,429	0,035	0,027
-387,263	-93,185	-0,080	0,016
-386,248	-200,000	0,003	0,033
-385,233	13,625	-0,099	0,056
-384,219	-61,430	0,111	0,034
-383,204	-172,721	-0,127	0,003
-382,190	146,552	-0,086	0,084
-381,175	-117,550	0,157	0,020
-380,160	5,964	0,133	-0,071
-379,146	-200,000	-0,005	-0,095
-378,131	494,816	-0,069	0,116
-377,117	-200,000	-0,009	0,112
-376,102	-26,757	-0,064	-0,027
-375,088	354,751	0,047	-0,069
-374,073	-135,208	-0,125	-0,011
-373,058	98,580	0,034	0,028
-372,044	167,671	-0,072	0,074
-371,029	211,992	-0,090	0,103
-370,015	260,169	0,068	0,086
-369,000	800,000	0,024	-0,058
-367,985	-62,546	-0,106	0,032
-366,971	-66,482	-0,073	0,021
-365,956	800,000	0,022	-0,058
-364,942	-200,000	0,025	-0,119
-363,927	-131,051	-0,060	-0,006
-362,912	58,841	0,090	-0,064
-361,898	-200,000	0,013	0,047
-360,883	800,000	-0,024	-0,067
-359,869	198,944	0,028	0,032
-358,854	-0,297	0,198	0,102
-357,839	-46,805	-0,027	0,010
-356,825	634,833	0,064	-0,119
-355,810	800,000	-0,032	-0,065
-354,796	-19,744	-0,020	0,009
-353,781	-31,074	0,121	0,049
-352,766	-127,931	-0,131	-0,013
-351,752	48,136	0,135	-0,091
-350,737	15,416	0,102	0,058
-349,723	800,000	0,038	0,108
-348,708	603,372	0,066	0,119
-347,693	800,000	-0,024	0,060
-346,679	-44,814	-0,092	0,033
-345,664	-25,169	-0,048	-0,020
-344,650	-179,726	0,044	0,001
-343,635	27,619	-0,156	0,095
-342,620	41,841	0,035	0,023
-341,606	-189,203	-0,055	0,000
-340,591	294,651	0,040	-0,053
-339,577	243,085	-0,065	-0,079
-338,562	586,699	0,030	0,054
-337,548	-3,805	-0,070	-0,035
-336,533	800,000	0,045	-0,094
-335,518	416,514	-0,037	0,058
-334,504	295,617	0,080	-0,107
-333,489	27,101	-0,098	-0,059
-332,475	478,726	0,054	-0,088
-331,460	-60,472	-0,058	0,018
-330,445	-193,556	0,032	-0,000
-329,431	-19,700	0,129	-0,058
-328,416	800,000	0,036	0,078
-327,402	-1,950	0,035	0,018
-326,387	91,683	-0,086	-0,070
-325,372	278,752	-0,117	0,152
-324,358	259,778	0,005	0,006
-323,343	-144,117	-0,118	0,008
-322,329	-134,022	0,197	0,017
-321,314	-200,000	-0,012	-0,044
-320,299	564,617	0,093	-0,164
-319,285	111,836	-0,056	0,049
-318,270	-200,000	-0,000	-0,110
-317,256	63,740	0,014	-0,010
-316,241	800,000	0,053	-0,164
-315,226	45,870	-0,075	-0,050
-314,212	-124,066	-0,135	0,015
-313,197	123,809	0,041	-0,037
-312,183	789,294	0,052	-0,103
-311,168	217,852	-0,029	0,034
-310,153	800,000	-0,023	0,053
-309,139	-200,000	-0,005	-0,071
-308,124	339,396	-0,047	-0,067
-307,110	441,297	0,038	-0,061
-306,095	-71,118	0,098	0,026
-305,080	105,061	-0,094	0,080
-304,066	263,872	0,046	-0,058
-303,051	115,352	-0,097	0,086
-302,037	38,554	0,087	0,056
-301,022	163,980	0,076	0,078
-300,008	-118,436	0,121	-0,015
-298,993	-200,000	0,011	-0,074
-297,978	-45,369	-0,049	-0,018
-296,964	-200,000	0,024	0,105
-295,949	61,676	-0,083	-0,059
-294,935	84,361	0,059	-0,047
-293,920	-162,069	-0,075	-0,003
-292,905	-200,000	-0,004	0,223
-291,891	148,551	0,063	0,062
-290,876	-117,254	0,070	0,009
-289,862	800,000	0,005	-0,014
-288,847	346,442	-0,090	-0,129
-287,832	-65,257	0,013	-0,004
-286,818	-77,775	-0,106	0,026
-285,803	-200,000	-0,011	0,037
-284,789	122,132	0,085	0,076
-283,774	-0,738	0,060	0,031
-282,759	-200,000	-0,004	-0,063
-281,745	-200,000	0,020	-0,075
-280,730	76,884	0,014	-0,011
-279,716	-200,000	0,002	0,009
-278,701	-123,513	0,102	0,012
-277,686	800,000	0,073	0,151
-276,672	579,123	-0,024	0,042
-275,657	-19,323	-0,057	-0,025
-274,643	800,000	-0,058	-0,170
-273,628	-200,000	-0,056	-0,179
-272,613	-163,269	0,104	-0,004
-271,599	-200,000	0,023	0,086
-270,584	-166,963	0,131	0,004
-269,570	-90,654	-0,088	0,018
-268,555	-200,000	0,028	-0,104
-267,540	148,736	-0,035	-0,034
-266,526	800,000	0,050	-0,103
-265,511	800,000	0,030	-0,081
-264,497	-56,113	0,080	-0,026
-263,482	-133,674	0,216	0,019
-262,467	-200,000	-0,002	-0,084
-261,453	-104,494	-0,135	0,022
-260,438	-145,122	0,126	0,008
-259,424	376,706	-0,011	-0,016
-258,409	-59,013	-0,139	-0,043
-257,395	3,330	0,047	0,025
-256,380	-200,000	-0,010	0,103
-255,365	-72,603	-0,096	0,026
-254,351	-22,589	0,141	0,061
-253,336	-59,479	0,063	0,019
-252,322	30,901	-0,110	-0,068
-251,307	-61,198	-0,105	0,032
-250,292	-200,000	0,002	0,043
-249,278	-200,000	0,026	0,132
-248,263	800,000	-0,020	0,043
-247,249	-120,265	-0,086	-0,010
-246,234	81,263	-0,088	0,068
-245,219	224,289	-0,037	0,043
-244,205	588,502	0,023	0,041
-243,190	61,365	0,069	-0,049
-242,176	33,766	0,044	-0,028
-241,161	-200,000	0,029	0,180
-240,146	-93,999	0,063	0,012
-239,132	10,127	-0,089	-0,049
-238,117	221,399	-0,062	-0,072
-237,103	-100,698	-0,164	-0,029
-236,088	800,000	0,080	0,166
-235,073	19,807	0,079	0,046
-234,059	-200,000	0,001	0,116
-233,044	800,000	0,014	0,044
-232,030	162,998	-0,028	-0,029
-231,015	-188,267	0,143	-0,001
-230,000	-200,000	-0,010	-0,054
-228,986	-200,000	0,016	0,171
-227,971	-23,098	0,020	-0,009
-226,957	-200,000	-0,032	0,225
-225,942	-32,857	-0,055	0,022
-224,927	345,501	0,043	0,060
-223,913	0,544	-0,112	-0,057
-222,898	-200,000	-0,012	0,100
-221,884	-109,844	-0,077	0,012
-220,869	376,132	0,104	-0,154
-219,855	800,000	0,017	-0,038
-218,840	-122,040	0,097	-0,011
-217,825	-20,674	0,041	0,018
-216,811	-148,777	0,042	0,002
-215,796	-118,465	0,099	0,012
-214,782	-94,450	-0,101	-0,020
-213,767	-49,761	-0,155	-0,053
-212,752	-200,000	0,017	0,104
-211,738	-107,023	0,142	-0,022
-210,723	800,000	0,035	-0,095
-209,709	-200,000	0,012	-0,076
-208,694	-146,377	-0,069	-0,004
-207,679	-105,167	0,073	-0,012
-206,665	-62,164	0,110	0,033
-205,650	-80,956	0,104	-0,025
-204,636	-84,710	-0,033	-0,007
-203,621	-117,893	0,078	-0,010
-202,606	-200,000	-0,035	-0,119
-201,592	62,091	-0,111	-0,079
-200,577	94,827	-0,059	0,048
-199,563	-200,000	0,036	0,197
-198,548	-200,000	0,002	-0,188
-197,533	-66,148	0,114	-0,032
-196,519	112,602	0,025	0,022
-195,504	57,449	-0,141	-0,099
-194,490	466,190	0,035	-0,057
-193,475	-167,445	-0,096	0,003
-192,460	401,670	0,048	-0,074
-191,446	171,928	0,029	0,030
-190,431	128,509	0,042	0,039
-189,417	-186,607	-0,046	0,000
-188,402	800,000	-0,015	0,035
-187,387	161,958	-0,078	-0,078
-186,373	-162,103	-0,045	-0,002
-185,358	-200,000	-0,037	0,155
-184,344	-37,825	0,047	0,018
-183,329	440,065	0,047	0,074
-182,315	800,000	-0,011	-0,029
-181,300	-88,015	-0,083	0,018
-180,285	-200,000	-0,008	-0,030
-179,271	398,275	-0,125	-0,190
-178,256	-200,000	0,021	0,075
-177,242	116,065	0,076	-0,067
-176,227	-59,578	0,117	0,036
-175,212	279,578	0,036	0,046
-174,198	147,798	0,051	-0,049
-173,183	605,663	-0,041	-0,074
-172,169	-200,000	-0,020	-0,066
-171,154	-19,409	0,092	0,041
-170,139	-163,903	0,058	-0,002
-169,125	6,390	0,111	0,059
-168,110	-138,754	0,074	-0,006
-167,096	-200,000	0,012	-0,048
-166,081	50,889	-0,118	0,080
-165,066	-200,000	-0,013	0,103
-164,052	-114,335	-0,094	0,013
-163,037	-181,556	-0,093	-0,001
-162,023	199,005	-0,052	0,058
-161,008	-200,000	0,017	0,139
-159,993	147,384	0,079	-0,077
-158,979	162,692	-0,039	-0,039
-157,964	120,372	-0,103	-0,092
-156,950	-6,096	-0,076	-0,037
-155,935	207,864	0,044	0,049
-154,920	60,113	0,095	-0,067
-153,906	104,346	0,033	-0,028
-152,891	-200,000	-0,035	-0,143
-151,877	-64,511	-0,141	-0,041
-150,862	-200,000	0,007	0,134
-149,847	-155,351	0,031	0,001
-148,833	800,000	0,017	-0,048
-147,818	56,857	0,076	0,053
-146,804	63,717	0,088	0,064
-145,789	-26,285	-0,017	0,007
-144,775	-200,000	0,010	-0,062
-143,760	-200,000	0,003	-0,122
-142,745	-61,412	-0,075	-0,023
-141,731	800,000	-0,035	-0,095
-140,716	434,701	-0,014	0,021
-139,702	-42,124	0,123	-0,045
-138,687	-104,335	0,042	-0,007
-137,672	-200,000	-0,009	-0,037
-136,658	800,000	0,047	-0,101
-135,643	-67,706	-0,217	-0,061
-134,629	-188,708	-0,091	0,001
-133,614	-14,145	0,096	-0,044
-132,599	118,048	0,062	0,055
-131,585	800,000	-0,037	0,078
-130,570	-12,967	0,134	-0,062
-129,556	372,277	-0,081	-0,119
-128,541	-200,000	0,002	-0,070
-127,526	-59,088	-0,032	0,010
-126,512	9,354	-0,070	0,038
-125,497	250,537	0,042	0,051
-124,483	-55,960	0,011	-0,003
-123,468	130,026	-0,068	-0,062
-122,453	235,618	-0,087	-0,103
-121,439	-200,000	-0,017	-0,223
-120,424	800,000	-0,040	-0,090
-119,410	97,440	0,081	-0,067
-118,395	-11,775	-0,044	0,021
-117,380	311,348	0,099	0,133
-116,366	-117,618	-0,121	0,015
-115,351	-200,000	-0,013	0,055
-114,337	3,205	-0,132	-0,069
-113,322	-200,000	-0,005	0,073
-112,307	-200,000	-0,000	0,055
-111,293	-138,057	-0,100	-0,008
-110,278	-175,714	0,079	-0,001
-109,264	-200,000	0,010	0,080
-108,249	800,000	-0,044	0,116
-107,234	-200,000	0,012	0,074
-106,220	-26,872	-0,070	0,029
-105,205	-6,974	0,114	0,055
-104,191	5,932	0,100	0,053
-103,176	-200,000	-0,003	0,172
-102,162	452,780	-0,031	0,049
-101,147	-118,578	0,079	0,010
-100,132	649,449	0,079	-0,146
-99,118	-200,000	-0,035	-0,157
-98,103	103,010	-0,091	-0,077
-97,089	-200,000	0,029	0,117
-96,074	-200,000	-0,024	0,112
-95,059	-200,000	-0,012	0,085
-94,045	-22,345	-0,118	-0,051
-93,030	55,358	0,094	0,065
-92,016	472,543	0,048	-0,078
-91,001	-0,339	-0,062	-0,032
-89,986	389,559	0,047	0,070
-88,972	-124,362	0,176	0,019
-87,957	100,954	-0,078	-0,065
-86,943	-47,272	0,081	-0,028
-85,928	-200,000	0,005	-0,183
-84,913	800,000	-0,048	-0,108
-83,899	-200,000	0,001	-0,015
-82,884	-200,000	0,008	0,127
-81,870	800,000	-0,016	0,039
-80,855	81,324	0,167	0,129
-79,840	796,701	-0,019	-0,037
-78,826	85,489	-0,060	-0,047
-77,811	-4,587	-0,022	0,011
-76,797	-65,284	0,145	-0,042
-75,782	-64,815	-0,150	0,043
-74,767	-77,879	-0,061	-0,015
-73,753	-200,000	0,008	0,082
-72,738	5,465	-0,097	-0,051
-71,724	-19,788	-0,028	0,012
-70,709	-89,789	-0,171	0,036
-69,694	800,000	0,054	-0,149
-68,680	800,000	0,046	0,104
-67,665	-200,000	0,042	0,134
-66,651	800,000	0,029	0,080
-65,636	-200,000	-0,007	0,042
-64,622	-101,506	0,041	0,007
-63,607	328,554	0,052	-0,072
-62,592	800,000	-0,006	-0,012
-61,578	357,149	-0,014	0,020
-60,563	3,059	-0,077	0,040
-59,549	-200,000	0,004	0,153
-58,534	46,410	-1,962	-1,301
-57,519	-200,000	-0,080	-0,843
-56,505	-200,000	-1,276	-5,086
-55,490	102,868	0,775	0,650
-54,476	800,000	5,341	12,065
-53,461	-200,000	18,020	292,060
-52,446	800,000	729,410	2217,256
-51,432	524,370	1641,822	2775,830
-50,417	107,609	1631,123	1389,938
-49,403	71,950	1283,340	954,992
-48,388	30,553	1025,136	626,314
-47,373	19,934	987,136	568,208
-46,359	18,041	974,715	554,856
-45,344	14,818	970,798	542,103
-44,330	15,089	969,346	542,153
-43,315	14,575	967,422	539,386
-42,300	14,504	966,258	538,484
-41,286	14,414	965,458	537,725
-40,271	14,551	964,397	537,556
-39,257	14,576	963,423	537,073
-38,242	14,522	962,748	536,502
-37,227	14,478	961,901	535,866
-36,213	14,527	960,904	535,448
-35,198	14,483	960,032	534,797
-34,184	14,566	959,158	534,558
-33,169	14,474	958,175	533,691
-32,154	14,539	957,401	533,447
-31,140	14,559	956,484	532,983
-30,125	14,562	955,792	532,583
-29,111	14,574	954,740	532,013
-28,096	14,547	954,371	531,702
-27,082	14,561	953,438	531,207
-26,067	14,533	952,878	530,783
-25,052	14,548	952,251	530,460
-24,038	14,552	951,515	530,041
-23,023	14,548	950,744	529,579
-22,009	14,538	950,289	529,272
-20,994	14,544	949,726	528,958
-19,979	14,583	948,907	528,605
-18,965	14,487	948,396	527,992
-17,950	14,563	947,681	527,817
-16,936	14,463	947,151	527,183
-15,921	14,420	946,609	526,722
-14,906	14,418	945,711	526,194
-13,892	14,416	945,065	525,810
-12,877	14,392	944,546	525,424
-11,863	14,385	943,905	525,024
-10,848	14,433	943,254	524,792
-9,833	14,507	942,818	524,763
-8,819	14,483	942,269	524,361
-7,804	14,480	941,465	523,882
-6,790	14,392	941,002	523,327
-5,775	14,504	940,448	523,350
-4,760	14,461	939,803	522,836
-3,746	14,451	938,981	522,328
-2,731	14,290	938,482	521,523
-1,717	14,272	937,724	521,023
-0,702	14,228	937,208	520,578
0,313	14,100	936,453	520,541
1,327	17,444	934,400	529,843
2,342	26,273	787,268	469,567
3,356	22,492	443,034	258,650
4,371	-6,599	295,389	143,417
5,386	-10,335	277,083	130,983
6,400	-11,558	271,411	127,156
7,415	-11,752	269,197	125,929
8,429	-11,943	267,706	125,045
9,444	-12,232	266,958	124,421
10,459	-12,091	266,239	124,204
11,473	-12,173	265,532	123,788
12,488	-12,312	264,842	123,329
13,502	-12,496	264,325	122,912
14,517	-12,562	264,053	122,715
15,531	-12,234	263,445	122,716
16,546	-12,262	263,203	122,567
17,561	-12,393	262,761	122,234
18,575	-12,307	262,479	122,168
19,590	-12,456	262,208	121,898
20,604	-12,470	262,011	121,783
21,619	-12,420	261,461	121,561
22,634	-12,350	261,056	121,425
23,648	-12,711	260,969	121,052
24,663	-12,560	260,655	121,030
25,677	-12,428	260,156	120,904
26,692	-12,606	260,048	120,686
27,707	-12,490	259,786	120,656
28,721	-12,659	259,513	120,368
29,736	-12,652	259,218	120,227
30,750	-12,415	258,970	120,311
31,765	-12,708	258,815	119,969
32,780	-12,533	258,512	119,973
33,794	-12,535	258,170	119,801
34,809	-12,804	258,151	119,545
35,823	-12,670	257,623	119,408
36,838	-12,506	257,437	119,455
37,853	-12,508	257,210	119,337
38,867	-12,795	256,993	118,974
39,882	-12,526	256,898	119,155
40,896	-12,473	256,468	118,991
41,911	-12,630	256,413	118,818
42,926	-12,706	256,062	118,579
43,940	-12,543	255,801	118,589
44,955	-12,629	255,484	118,357
45,969	-12,800	255,217	118,074
46,984	-12,925	255,136	117,918
47,999	-12,953	254,855	117,753
49,013	-13,403	254,630	117,248
50,028	-13,146	254,142	117,235
51,042	-13,417	254,192	117,013
52,057	-13,308	253,830	116,930
53,071	-13,214	253,606	116,897
54,086	-13,097	253,482	116,931
55,101	-12,946	253,367	116,998
56,115	-12,951	253,262	116,935
57,130	-12,422	253,116	117,313
58,144	-12,404	253,034	117,280
59,159	-12,301	252,633	117,172
60,174	-12,499	252,512	116,935
61,188	-12,490	252,329	116,848
62,203	-12,516	252,097	116,708
63,217	-12,611	251,801	116,479
64,232	-12,545	251,729	116,492
65,247	-12,385	251,340	116,438
66,261	-12,483	251,213	116,285
67,276	-12,511	250,949	116,128
68,290	-12,744	250,605	115,760
69,305	-12,840	250,377	115,563
70,320	-12,886	250,202	115,433
71,334	-12,697	250,053	115,515
72,349	-12,296	249,784	115,721
73,363	-12,426	249,689	115,556
74,378	-12,309	249,437	115,528
75,393	-12,388	249,438	115,451
76,407	-12,603	249,191	115,144
77,422	-12,581	248,927	115,031
78,436	-12,496	248,707	114,990
79,451	-12,469	248,376	114,850
80,466	-12,527	248,131	114,678
81,480	-12,455	248,002	114,669
82,495	-12,687	247,773	114,357
83,509	-12,516	247,635	114,428
84,524	-12,764	247,548	114,169
85,539	-12,946	247,210	113,849
86,553	-12,797	246,922	113,832
87,568	-12,719	246,727	113,797
88,582	-12,793	246,649	113,688
89,597	-12,724	246,320	113,585
90,611	-12,804	246,428	113,558
91,626	-12,760	246,066	113,418
92,641	-12,611	245,943	113,475
93,655	-12,621	245,754	113,369
94,670	-12,766	245,481	113,112
95,684	-12,500	245,340	113,258
96,699	-12,651	245,102	113,013
97,714	-12,616	244,953	112,963
98,728	-12,602	244,729	112,862
99,743	-12,823	244,383	112,509
100,757	-12,807	244,192	112,424
101,772	-12,884	244,149	112,331
102,787	-12,658	243,880	112,384
103,801	-12,670	243,826	112,339
104,816	-12,669	243,732	112,286
105,830	-12,474	243,495	112,329
106,845	-12,426	243,226	112,233
107,860	-12,599	243,254	112,095
108,874	-12,537	242,967	112,003
109,889	-12,479	242,696	111,915
110,903	-12,671	242,499	111,657
111,918	-12,771	242,258	111,454
112,933	-12,702	242,234	111,490
113,947	-12,539	242,022	111,516
114,962	-12,625	241,858	111,359
115,976	-12,679	241,753	111,257
116,991	-12,633	241,499	111,168
118,006	-12,611	241,287	111,079
119,020	-12,533	241,182	111,084
120,035	-12,528	240,997	110,993
121,049	-12,409	240,826	111,001
122,064	-12,527	240,612	110,797
123,079	-12,405	240,503	110,836
124,093	-12,715	240,158	110,415
125,108	-12,745	240,095	110,352
126,122	-13,038	239,887	110,009
127,137	-12,996	239,538	109,873
128,151	-12,922	239,428	109,872
129,166	-12,777	239,257	109,901
130,181	-12,849	239,030	109,729
131,195	-12,955	238,856	109,554
132,210	-12,642	238,739	109,744
133,224	-12,628	238,475	109,623
134,239	-12,372	238,283	109,732
135,254	-12,473	238,327	109,661
136,268	-12,588	238,049	109,430
137,283	-12,882	237,673	109,011
138,297	-13,156	237,625	108,760
139,312	-13,079	237,291	108,659
140,327	-12,590	237,284	109,038
141,341	-12,165	237,268	109,362
142,356	-12,516	237,170	109,025
143,370	-12,254	236,905	109,104
144,385	-12,099	236,740	109,142
145,400	-12,191	236,559	108,975
146,414	-12,226	236,357	108,845
147,429	-12,477	236,167	108,547
148,443	-12,577	236,077	108,417
149,458	-12,517	235,880	108,364
150,473	-12,307	235,478	108,337
151,487	-12,436	235,560	108,262
152,502	-12,285	235,278	108,243
153,516	-12,322	235,174	108,156
154,531	-12,428	234,973	107,970
155,546	-12,306	234,719	107,940
156,560	-12,506	234,596	107,716
157,575	-12,456	234,372	107,643
158,589	-12,477	234,177	107,527
159,604	-12,282	234,270	107,715
160,619	-12,129	234,180	107,784
161,633	-12,203	233,853	107,566
162,648	-12,223	233,708	107,473
163,662	-12,288	233,453	107,295
164,677	-12,585	233,348	107,004
165,692	-12,426	233,154	107,030
166,706	-12,262	233,064	107,108
167,721	-11,977	233,040	107,312
168,735	-12,173	233,000	107,130
169,750	-12,271	232,673	106,893
170,764	-12,361	232,544	106,754
171,779	-12,333	232,335	106,671
172,794	-12,296	232,208	106,632
173,808	-12,372	231,828	106,388
174,823	-12,754	231,565	105,960
175,837	-12,743	231,297	105,836
176,852	-12,537	231,443	106,054
177,867	-12,415	231,353	106,099
178,881	-12,500	231,048	105,884
179,896	-12,492	230,881	105,804
180,910	-12,387	230,856	105,864
181,925	-12,236	230,538	105,826
182,940	-12,252	230,592	105,829
183,954	-12,237	230,313	105,704
184,969	-12,139	230,239	105,735
185,983	-11,896	230,175	105,885
186,998	-12,153	230,083	105,635
188,013	-12,053	229,642	105,500
189,027	-12,179	229,556	105,353
190,042	-12,171	229,366	105,263
191,056	-12,174	229,240	105,194
192,071	-12,182	229,178	105,150
193,086	-11,955	229,033	105,249
194,100	-12,113	228,951	105,080
195,115	-12,385	228,627	104,713
196,129	-12,062	228,720	104,994
197,144	-7,573	230,123	109,098
198,159	-2,890	231,372	113,312
199,173	0,815	232,509	116,738
200,188	1,505	232,504	117,261
201,202	1,201	232,287	116,905
202,217	1,252	232,122	116,852
203,232	1,533	232,045	117,020
204,246	1,632	231,840	116,982
205,261	1,715	231,744	116,988
206,275	1,726	231,841	117,035
207,290	1,770	231,625	116,949
208,304	1,711	231,348	116,754
209,319	1,850	231,116	116,733
210,334	1,614	231,068	116,517
211,348	1,512	230,713	116,248
212,363	1,217	230,507	115,908
213,377	1,251	230,272	115,806
214,392	0,996	230,324	115,625
215,407	1,381	230,019	115,757
216,421	1,455	230,009	115,799
217,436	1,069	229,847	115,411
218,450	1,192	229,551	115,347
219,465	1,124	229,278	115,147
220,480	1,363	229,182	115,271
221,494	1,130	229,058	115,020
222,509	1,534	229,107	115,343
223,523	1,373	228,917	115,114
224,538	1,104	228,957	114,919
225,553	1,213	228,589	114,807
226,567	1,076	228,410	114,603
227,582	1,406	228,428	114,853
228,596	1,568	228,427	114,965
229,611	1,524	228,035	114,724
230,626	1,119	227,782	114,280
231,640	1,042	227,725	114,182
232,655	1,482	227,635	114,461
233,669	1,610	227,434	114,446
234,684	1,806	227,388	114,561
235,699	1,548	227,216	114,269
236,713	1,499	226,966	114,096
237,728	1,344	226,849	113,911
238,742	1,101	226,682	113,633
239,757	1,448	226,468	113,777
240,772	1,012	226,356	113,382
241,786	1,166	226,197	113,408
242,801	1,524	226,151	113,644
243,815	1,895	225,996	113,835
244,830	1,830	225,782	113,668
245,844	1,390	225,622	113,248
246,859	1,362	225,477	113,144
247,874	1,297	225,309	113,001
248,888	1,497	225,394	113,184
249,903	1,271	225,124	112,868
250,917	1,238	224,968	112,756
251,932	1,460	224,652	112,753
252,947	1,114	224,501	112,409
253,961	1,076	224,469	112,354
254,976	1,116	224,188	112,234
255,990	1,572	224,164	112,551
257,005	1,276	224,226	112,352
258,020	1,446	223,991	112,351
259,034	1,573	223,786	112,332
260,049	1,572	223,605	112,231
261,063	1,298	223,554	111,991
262,078	1,690	223,419	112,205
263,093	1,876	223,246	112,245
264,107	1,606	223,098	111,961
265,122	1,712	223,017	111,989
266,136	1,968	222,888	112,104
267,151	1,713	222,687	111,804
268,166	1,465	222,376	111,455
269,180	0,974	222,164	110,977
270,195	1,082	222,126	111,027
271,209	1,325	221,862	111,065
272,224	1,323	221,903	111,074
273,239	1,524	221,813	111,166
274,253	1,206	221,528	110,780
275,268	1,209	221,388	110,703
276,282	1,172	221,217	110,580
277,297	0,908	221,016	110,276
278,312	1,211	220,913	110,437
279,326	1,171	220,714	110,299
280,341	1,562	220,774	110,605
281,355	1,484	220,598	110,449
282,370	1,433	220,474	110,341
283,384	1,042	220,383	110,000
284,399	1,035	220,114	109,850
285,414	1,192	219,977	109,886
286,428	1,235	220,009	109,924
287,443	1,624	219,769	110,077
288,457	1,520	219,695	109,955
289,472	1,426	219,364	109,711
290,487	0,829	219,214	109,192
291,501	1,070	219,012	109,257
292,516	0,944	218,896	109,098
293,530	1,021	218,726	109,059
294,545	1,171	218,673	109,132
295,560	1,311	218,500	109,137
296,574	1,243	218,462	109,059
297,589	1,295	218,366	109,039
298,603	1,282	218,251	108,963
299,618	1,360	218,082	108,925
300,633	1,515	218,053	109,013
301,647	1,648	217,887	109,016
302,662	1,746	217,657	108,962
303,676	1,576	217,498	108,750
304,691	1,602	217,392	108,706
305,706	1,729	217,091	108,637
306,720	1,528	217,210	108,543
307,735	1,351	216,754	108,178
308,749	1,298	216,790	108,148
309,764	1,494	216,687	108,227
310,779	1,688	216,493	108,260
311,793	1,426	216,230	107,932
312,808	1,639	216,148	108,033
313,822	1,515	216,209	107,966
314,837	1,417	215,998	107,780
315,852	1,435	215,727	107,648
316,866	1,667	215,701	107,792
317,881	1,619	215,612	107,703
318,895	1,538	215,420	107,539
319,910	1,255	215,243	107,240
320,925	1,011	215,081	106,977
321,939	0,897	214,850	106,772
322,954	0,621	214,915	106,599
323,968	1,575	214,691	107,154
324,983	1,669	214,702	107,217
325,997	1,879	214,587	107,299
327,012	1,654	214,460	107,066
328,027	1,494	214,340	106,884
329,041	1,746	214,167	106,966
330,056	1,590	213,931	106,728
331,070	1,155	213,545	106,220
332,085	1,007	213,446	106,057
333,100	1,578	213,484	106,468
334,114	1,765	213,320	106,509
335,129	1,837	213,180	106,480
336,143	1,394	212,993	106,065
337,158	1,380	212,969	106,034
338,173	1,497	212,824	106,035
339,187	1,333	212,608	105,803
340,202	1,095	212,458	105,552
341,216	1,179	212,331	105,539
342,231	1,331	212,215	105,578
343,246	1,288	212,017	105,440
344,260	1,070	211,944	105,241
345,275	1,514	211,847	105,494
346,289	1,561	211,824	105,506
347,304	1,696	211,794	105,576
348,319	1,794	211,548	105,512
349,333	1,899	211,238	105,422
350,348	1,608	211,267	105,224
351,362	1,598	211,215	105,182
352,377	1,805	210,990	105,204
353,392	1,759	210,734	105,035
354,406	1,680	210,646	104,928
355,421	196,719	1315,989	1393,121
356,435	157,285	1450,621	1393,096
