DTS Sentinel unit serial number:	SN410029Multiplexer serial number:	ORYXHardware model number:	OX2-SRSoftware version number:	ORYX F/W v4,00 Oryx Data Collector v3.7.2.0data status	okinstallation	B6 Nyhavnadifferential loss correction	single-endedforward channel	channel 2reverse channel	N/Adate	2023/12/08time	20:55:08forward acquisition time	300,00reverse acquisition time	0,00gamma	499,1914k internal	0,3158k external	0,3158temperature offset calibration	1,0000default loss term (dB/km)	0,3820temperature slope calibration	1,0000multiplexer offset coefficient	1,0000multiplexer slope coefficient	1,0000fibre end	0,00T internal ref (°C)	15,20T ext. ref 1 (°C)	-1,39T ext. ref 2 (°C)	-1,39length (m)	temperature (°C)	Stokes	anti-Stokes-744,400	-98,664	0,134	0,025
-743,385	-194,994	-0,270	-0,001
-742,371	-67,320	0,211	0,061
-741,356	-55,198	-0,294	-0,097
-740,342	-50,018	0,041	0,014
-739,327	-136,087	-0,354	0,030
-738,312	-200,000	-0,014	0,202
-737,298	-144,866	-0,360	-0,024
-736,283	-131,694	0,110	-0,010
-735,269	-136,193	-0,252	0,021
-734,254	383,342	0,125	0,190
-733,239	-42,609	-0,450	-0,168
-732,225	-200,000	0,009	-0,041
-731,210	-200,000	0,003	0,140
-730,196	-200,000	-0,004	-0,037
-729,181	6,104	-0,136	-0,074
-728,167	248,297	0,072	0,090
-727,152	-29,747	-0,019	0,008
-726,137	-24,469	-0,160	0,070
-725,123	-56,791	-0,122	-0,039
-724,108	136,560	-0,036	-0,034
-723,094	-200,000	-0,021	-0,113
-722,079	-200,000	-0,070	-0,000
-721,064	-99,181	0,106	-0,020
-720,050	93,129	0,090	0,075
-719,035	-200,000	-0,026	-0,095
-718,021	-200,000	-0,020	-0,075
-717,006	504,812	0,081	-0,139
-715,991	614,366	-0,063	-0,117
-714,977	121,324	-0,066	0,060
-713,962	-18,899	-0,077	0,035
-712,948	23,349	0,134	-0,081
-711,933	-200,000	-0,018	0,093
-710,918	-11,641	-0,128	0,062
-709,904	800,000	-0,053	-0,113
-708,889	-200,000	0,008	-0,104
-707,875	432,755	-0,111	-0,178
-706,860	800,000	-0,049	0,136
-705,845	-200,000	-0,004	0,122
-704,831	622,086	-0,055	-0,103
-703,816	23,079	-0,038	-0,023
-702,802	-200,000	0,009	-0,068
-701,787	-200,000	-0,136	-0,000
-700,772	123,889	0,086	0,079
-699,758	71,504	-0,077	-0,059
-698,743	33,509	-0,043	0,027
-697,729	82,655	-0,023	0,018
-696,714	-185,033	-0,070	0,001
-695,699	-200,000	-0,030	-0,131
-694,685	378,265	-0,065	-0,098
-693,670	800,000	0,077	-0,176
-692,656	86,146	-0,088	-0,071
-691,641	540,380	-0,027	0,047
-690,627	407,315	-0,028	0,044
-689,612	-107,318	-0,046	0,007
-688,597	646,203	0,037	-0,069
-687,583	-200,000	0,012	-0,081
-686,568	-36,135	-0,135	-0,053
-685,554	-7,863	-0,168	-0,083
-684,539	35,290	0,119	-0,076
-683,524	800,000	0,019	0,039
-682,510	-200,000	-0,044	-0,150
-681,495	-69,282	-0,181	0,051
-680,481	8,100	-0,095	0,053
-679,466	280,046	-0,100	-0,132
-678,451	149,804	0,031	-0,031
-677,437	32,032	0,077	-0,049
-676,422	800,000	0,010	-0,025
-675,408	800,000	0,059	-0,126
-674,393	-175,374	-0,062	0,001
-673,378	800,000	0,044	-0,116
-672,364	418,356	0,008	-0,013
-671,349	485,210	-0,004	-0,007
-670,335	777,276	0,020	0,041
-669,320	371,870	0,035	0,053
-668,305	243,004	0,041	-0,050
-667,291	-113,447	-0,099	-0,014
-666,276	646,923	0,086	-0,162
-665,262	39,350	-0,143	-0,094
-664,247	88,426	-0,082	-0,067
-663,232	800,000	0,025	-0,062
-662,218	800,000	-0,021	0,050
-661,203	800,000	-0,027	-0,065
-660,189	800,000	-0,057	-0,150
-659,174	70,477	-0,110	-0,083
-658,159	169,862	0,068	-0,071
-657,145	-195,370	-0,078	0,000
-656,130	343,830	0,104	0,150
-655,116	403,388	-0,029	0,045
-654,101	800,000	-0,037	-0,083
-653,086	-200,000	-0,002	0,038
-652,072	-200,000	0,008	0,051
-651,057	-98,350	-0,154	-0,029
-650,043	142,335	-0,052	-0,051
-649,028	-200,000	-0,020	-0,175
-648,014	-136,005	0,095	-0,008
-646,999	110,716	0,101	0,090
-645,984	443,082	0,021	0,034
-644,970	149,252	-0,032	-0,032
-643,955	-130,480	-0,057	-0,006
-642,941	800,000	-0,003	-0,008
-641,926	164,192	-0,097	0,100
-640,911	24,939	0,036	-0,022
-639,897	-200,000	0,008	0,068
-638,882	95,689	-0,091	-0,076
-637,868	107,429	-0,095	0,083
-636,853	-63,324	-0,100	0,030
-635,838	800,000	-0,018	-0,051
-634,824	-200,000	-0,009	-0,165
-633,809	-0,309	-0,185	-0,096
-632,795	800,000	0,038	0,090
-631,780	-200,000	0,018	-0,100
-630,765	-167,532	0,086	0,002
-629,751	-110,429	0,104	-0,016
-628,736	-200,000	0,014	-0,051
-627,722	-200,000	0,017	0,079
-626,707	-200,000	0,028	0,000
-625,692	-200,000	-0,028	0,110
-624,678	-200,000	0,001	0,051
-623,663	331,629	0,017	0,024
-622,649	-150,143	-0,068	-0,004
-621,634	-200,000	0,022	-0,128
-620,619	-58,784	0,060	0,019
-619,605	-200,000	-0,028	0,102
-618,590	-8,411	-0,200	-0,098
-617,576	-200,000	-0,001	-0,058
-616,561	8,069	-0,018	-0,010
-615,546	-200,000	-0,017	0,210
-614,532	501,174	-0,117	-0,199
-613,517	-200,000	0,002	-0,231
-612,503	-105,898	-0,108	-0,018
-611,488	-27,979	-0,031	-0,013
-610,474	732,308	-0,020	-0,040
-609,459	-200,000	-0,006	0,097
-608,444	323,610	-0,035	0,049
-607,430	-96,285	-0,052	-0,010
-606,415	-200,000	-0,029	-0,107
-605,401	800,000	-0,017	0,037
-604,386	800,000	-0,044	0,090
-603,371	-94,454	-0,104	-0,021
-602,357	-200,000	0,004	-0,019
-601,342	-118,689	-0,124	0,016
-600,328	163,236	-0,078	-0,080
-599,313	50,300	-0,230	-0,159
-598,298	204,693	-0,065	0,074
-597,284	436,401	0,041	0,065
-596,269	129,546	-0,135	-0,126
-595,255	-200,000	0,019	0,086
-594,240	276,053	-0,058	-0,076
-593,225	1,679	-0,064	0,034
-592,211	-87,491	-0,083	-0,018
-591,196	25,648	0,025	-0,015
-590,182	-18,783	-0,206	0,094
-589,167	238,269	-0,075	-0,091
-588,152	49,036	-0,123	0,084
-587,138	-55,120	0,107	0,035
-586,123	-40,642	-0,055	0,021
-585,109	66,382	0,057	-0,043
-584,094	-125,332	0,074	0,008
-583,079	52,384	0,163	-0,114
-582,065	-200,000	0,016	0,072
-581,050	800,000	-0,012	-0,037
-580,036	179,623	-0,035	0,038
-579,021	9,656	-0,007	0,004
-578,006	559,089	-0,031	0,054
-576,992	-200,000	0,009	0,051
-575,977	105,940	-0,057	0,049
-574,963	-200,000	-0,005	0,059
-573,948	130,169	0,030	0,028
-572,934	-200,000	-0,003	0,144
-571,919	-200,000	-0,007	-0,066
-570,904	437,350	-0,048	-0,077
-569,890	0,120	-0,103	-0,053
-568,875	413,731	-0,072	0,112
-567,861	-37,989	0,087	-0,034
-566,846	632,717	0,024	-0,044
-565,831	-200,000	-0,003	-0,054
-564,817	241,045	-0,076	0,094
-563,802	-96,845	-0,079	-0,015
-562,788	768,810	-0,036	-0,071
-561,773	-13,733	-0,120	-0,056
-560,758	-119,375	0,107	-0,013
-559,744	-200,000	-0,007	-0,081
-558,729	252,410	-0,084	-0,105
-557,715	130,766	-0,053	0,050
-556,700	-200,000	-0,012	-0,041
-555,685	15,933	-0,087	0,050
-554,671	-200,000	0,015	-0,056
-553,656	-200,000	-0,003	-0,041
-552,642	-200,000	-0,016	0,084
-551,627	-200,000	0,019	-0,170
-550,612	767,291	0,036	-0,073
-549,598	800,000	-0,050	-0,103
-548,583	-98,315	-0,109	0,020
-547,569	-25,908	-0,134	-0,057
-546,554	-139,146	0,038	0,003
-545,539	692,916	-0,032	0,062
-544,525	555,394	-0,046	0,082
-543,510	800,000	-0,025	0,063
-542,496	800,000	-0,056	-0,115
-541,481	-200,000	0,016	-0,079
-540,466	243,025	-0,059	-0,073
-539,452	186,634	-0,032	0,035
-538,437	-165,328	-0,049	0,002
-537,423	800,000	-0,008	0,021
-536,408	24,228	0,051	0,031
-535,393	-58,249	-0,020	-0,006
-534,379	-200,000	-0,020	-0,091
-533,364	160,421	0,034	0,035
-532,350	535,136	0,041	0,072
-531,335	68,589	0,045	0,033
-530,321	33,729	0,033	0,021
-529,306	667,957	0,024	-0,045
-528,291	800,000	0,019	-0,038
-527,277	-39,894	0,052	-0,020
-526,262	-38,880	0,015	0,006
-525,248	-87,361	0,242	-0,053
-524,233	-200,000	0,030	0,155
-523,218	-200,000	0,006	0,113
-522,204	800,000	-0,047	0,118
-521,189	43,226	0,063	0,042
-520,175	105,265	-0,032	0,028
-519,160	-89,963	-0,128	-0,027
-518,145	117,995	0,070	-0,063
-517,131	-200,000	-0,003	0,022
-516,116	800,000	0,071	0,204
-515,102	800,000	-0,012	0,038
-514,087	-200,000	-0,036	-0,187
-513,072	-200,000	0,019	-0,124
-512,058	-200,000	-0,030	-0,113
-511,043	800,000	-0,033	0,100
-510,029	-136,374	-0,068	-0,006
-509,014	778,335	-0,021	0,042
-507,999	177,947	-0,068	0,072
-506,985	-34,505	-0,067	0,027
-505,970	38,052	-0,032	-0,020
-504,956	-200,000	0,008	0,104
-503,941	-75,612	0,125	-0,032
-502,926	38,649	-0,066	-0,043
-501,912	-46,224	0,031	0,011
-500,897	456,540	-0,046	0,074
-499,883	-163,955	0,082	0,003
-498,868	-151,938	-0,086	0,005
-497,853	800,000	0,044	-0,098
-496,839	95,530	0,101	0,084
-495,824	-200,000	0,000	0,045
-494,810	-200,000	0,040	0,242
-493,795	26,819	-0,095	0,058
-492,781	499,603	-0,064	-0,108
-491,766	-26,087	-0,072	-0,031
-490,751	-151,956	0,062	-0,003
-489,737	344,113	-0,030	-0,042
-488,722	-92,485	0,076	-0,015
-487,708	-71,305	0,090	0,025
-486,693	-128,532	0,091	0,009
-485,678	800,000	0,027	0,063
-484,664	-200,000	0,005	-0,215
-483,649	236,313	-0,046	-0,056
-482,635	-68,158	-0,040	-0,011
-481,620	448,084	0,067	0,108
-480,605	-66,552	0,093	0,027
-479,591	-15,696	-0,115	0,053
-478,576	140,378	0,022	0,021
-477,562	256,663	-0,039	-0,049
-476,547	154,685	-0,087	-0,087
-475,532	-200,000	-0,003	-0,094
-474,518	50,914	-0,050	-0,035
-473,503	110,848	0,138	-0,121
-472,489	-198,406	0,155	0,001
-471,474	59,712	-0,136	0,098
-470,459	-135,246	-0,115	-0,010
-469,445	707,371	0,022	-0,043
-468,430	79,536	-0,051	0,040
-467,416	-187,997	0,133	0,001
-466,401	-200,000	-0,005	0,125
-465,386	-200,000	0,001	0,004
-464,372	99,389	-0,020	0,017
-463,357	108,543	-0,102	-0,089
-462,343	351,599	0,011	-0,015
-461,328	-121,700	-0,171	0,020
-460,313	-117,329	0,060	-0,008
-459,299	48,704	0,098	-0,067
-458,284	178,026	-0,074	0,078
-457,270	-98,541	-0,105	0,019
-456,255	480,551	-0,049	-0,081
-455,241	800,000	0,064	-0,145
-454,226	217,308	0,052	-0,060
-453,211	-69,573	0,178	0,049
-452,197	800,000	-0,023	0,050
-451,182	-106,025	0,090	0,015
-450,168	197,885	-0,052	0,058
-449,153	800,000	-0,061	0,172
-448,138	-200,000	0,015	-0,081
-447,124	74,479	-0,062	0,048
-446,109	-200,000	-0,030	-0,119
-445,095	364,086	-0,052	0,077
-444,080	800,000	0,004	0,010
-443,065	-200,000	-0,018	0,093
-442,051	-200,000	0,004	-0,054
-441,036	-200,000	-0,031	-0,121
-440,022	800,000	-0,070	-0,161
-439,007	-200,000	-0,003	-0,079
-437,992	-47,099	0,043	0,015
-436,978	-200,000	-0,000	-0,073
-435,963	-8,987	0,037	0,018
-434,949	-81,623	0,119	-0,028
-433,934	-146,630	-0,058	-0,004
-432,919	326,572	-0,086	-0,120
-431,905	555,004	0,072	-0,127
-430,890	-56,405	0,082	-0,026
-429,876	-61,793	0,147	0,045
-428,861	408,224	0,061	0,094
-427,846	2,521	-0,089	-0,047
-426,832	-54,650	0,200	-0,065
-425,817	-157,385	-0,101	-0,004
-424,803	-200,000	-0,018	-0,135
-423,788	-117,829	-0,085	0,011
-422,773	800,000	-0,004	-0,011
-421,759	367,222	-0,058	0,086
-420,744	465,393	0,073	0,120
-419,730	2,462	-0,150	-0,079
-418,715	-91,460	-0,162	0,033
-417,701	199,176	0,029	0,033
-416,686	-200,000	0,016	-0,068
-415,671	127,811	0,052	-0,048
-414,657	-113,406	0,060	-0,009
-413,642	50,205	-0,121	0,083
-412,628	571,420	0,042	-0,075
-411,613	800,000	-0,049	-0,111
-410,598	-200,000	0,023	-0,080
-409,584	-163,384	-0,037	0,001
-408,569	331,321	0,043	0,060
-407,555	84,879	0,045	0,036
-406,540	-200,000	0,004	0,018
-405,525	-200,000	-0,030	-0,111
-404,511	-80,340	0,100	-0,024
-403,496	9,776	0,103	-0,057
-402,482	-200,000	0,013	0,118
-401,467	-200,000	-0,008	0,030
-400,452	-200,000	-0,017	0,088
-399,438	648,620	-0,062	-0,116
-398,423	-200,000	0,005	-0,058
-397,409	-110,684	0,101	-0,015
-396,394	49,316	-0,059	0,041
-395,379	-88,031	0,036	0,008
-394,365	-113,792	0,144	0,020
-393,350	95,554	-0,056	0,047
-392,336	-9,362	0,178	-0,086
-391,321	29,910	-0,080	-0,049
-390,306	800,000	0,052	-0,136
-389,292	-200,000	-0,026	-0,096
-388,277	-200,000	0,020	0,195
-387,263	54,846	0,131	0,092
-386,248	-200,000	0,001	-0,041
-385,233	-200,000	0,032	0,179
-384,219	69,883	0,082	0,062
-383,204	-200,000	-0,006	-0,041
-382,190	-40,988	-0,055	-0,020
-381,175	36,258	0,085	-0,055
-380,160	-101,242	-0,053	0,009
-379,146	-124,306	-0,005	0,001
-378,131	-47,154	-0,078	0,027
-377,117	-200,000	0,037	-0,122
-376,102	255,174	-0,029	-0,037
-375,088	698,103	0,063	-0,121
-374,073	-200,000	-0,040	-0,215
-373,058	130,586	0,044	-0,041
-372,044	69,282	0,099	0,074
-371,029	-200,000	-0,018	0,143
-370,015	14,346	0,131	0,074
-369,000	8,621	0,138	0,075
-367,985	-109,475	0,042	-0,006
-366,971	-30,555	0,035	-0,014
-365,956	83,140	0,133	-0,105
-364,942	433,659	0,106	0,167
-363,927	-200,000	0,053	0,212
-362,912	108,173	-0,041	-0,035
-361,898	195,038	-0,091	-0,101
-360,883	800,000	-0,049	-0,152
-359,869	141,621	0,031	-0,030
-358,854	15,499	-0,009	0,005
-357,839	-104,852	0,167	-0,028
-356,825	-200,000	-0,014	-0,113
-355,810	596,282	-0,033	0,059
-354,796	-110,530	-0,141	0,021
-353,781	-47,520	0,086	-0,030
-352,766	-20,160	0,074	0,033
-351,752	-54,804	-0,095	0,031
-350,737	4,403	0,140	0,074
-349,723	-43,320	0,110	-0,040
-348,708	84,223	0,097	0,077
-347,693	-139,418	0,112	-0,009
-346,679	166,313	-0,096	0,099
-345,664	800,000	-0,056	0,116
-344,650	-120,247	-0,107	0,013
-343,635	800,000	-0,031	0,072
-342,620	-36,866	0,042	0,016
-341,606	-200,000	0,002	-0,051
-340,591	800,000	0,039	-0,084
-339,577	23,937	-0,073	0,044
-338,562	800,000	0,014	0,039
-337,548	60,886	-0,048	0,035
-336,533	16,270	0,037	0,021
-335,518	-121,737	0,095	-0,011
-334,504	21,637	-0,116	-0,068
-333,489	180,710	0,067	-0,072
-332,475	60,368	-0,041	-0,030
-331,460	-40,875	-0,128	-0,048
-330,445	-116,977	-0,111	0,015
-329,431	-200,000	0,009	0,167
-328,416	-200,000	0,003	0,050
-327,402	-87,287	-0,039	-0,009
-326,387	-132,830	-0,051	0,005
-325,372	-128,572	0,068	-0,007
-324,358	24,179	-0,113	-0,067
-323,343	800,000	-0,060	0,157
-322,329	-123,465	0,160	0,018
-321,314	48,238	0,087	0,059
-320,299	457,528	0,036	-0,059
-319,285	-200,000	-0,000	-0,108
-318,270	-200,000	0,004	-0,089
-317,256	194,089	-0,013	0,014
-316,241	800,000	0,013	-0,038
-315,226	125,199	0,056	-0,051
-314,212	159,373	-0,093	0,094
-313,197	386,307	0,048	0,072
-312,183	-62,452	0,087	-0,026
-311,168	-6,760	-0,032	-0,016
-310,153	-84,775	0,146	-0,033
-309,139	677,754	0,056	0,106
-308,124	-14,693	0,092	-0,043
-307,110	-200,000	0,000	-0,024
-306,095	22,438	-0,067	-0,039
-305,080	-200,000	0,003	-0,020
-304,066	91,847	0,029	-0,024
-303,051	-103,856	-0,084	-0,014
-302,037	232,936	0,098	-0,117
-301,022	-200,000	0,041	-0,131
-300,008	-200,000	-0,002	0,067
-298,993	-63,756	-0,076	0,022
-297,978	-123,199	0,213	0,024
-296,964	456,140	-0,042	0,068
-295,949	-117,598	0,117	-0,015
-294,935	42,580	0,041	-0,027
-293,920	202,487	0,063	0,070
-292,905	800,000	0,017	0,044
-291,891	286,446	0,108	0,142
-290,876	-95,372	-0,086	0,017
-289,862	-30,514	0,069	0,028
-288,847	-126,305	-0,122	0,013
-287,832	74,518	-0,102	0,078
-286,818	670,639	-0,019	0,037
-285,803	62,382	0,058	0,042
-284,789	-30,072	0,076	-0,031
-283,774	100,179	-0,090	0,075
-282,759	223,290	0,069	-0,081
-281,745	800,000	-0,046	-0,093
-280,730	-200,000	-0,005	-0,206
-279,716	245,688	-0,079	-0,097
-278,701	-200,000	0,018	0,073
-277,686	-27,910	0,140	0,059
-276,672	-72,219	-0,061	-0,016
-275,657	-38,071	0,020	0,008
-274,643	489,260	-0,064	0,106
-273,628	-200,000	-0,024	-0,091
-272,613	-200,000	0,017	0,085
-271,599	-32,254	0,098	0,040
-270,584	403,074	-0,020	0,030
-269,570	-200,000	-0,012	0,167
-268,555	37,488	0,088	0,057
-267,540	-2,135	-0,040	0,020
-266,526	331,135	-0,082	-0,114
-265,511	800,000	0,020	-0,044
-264,497	-193,653	-0,085	-0,001
-263,482	25,471	0,023	-0,014
-262,467	-153,289	0,060	-0,003
-261,453	800,000	-0,039	0,115
-260,438	-200,000	0,037	-0,140
-259,424	8,593	0,076	0,041
-258,409	13,529	0,142	-0,080
-257,395	-98,132	-0,049	-0,009
-256,380	107,514	0,093	-0,080
-255,365	155,761	0,055	0,055
-254,351	-15,959	-0,130	-0,060
-253,336	-37,167	0,066	-0,025
-252,322	582,916	0,011	-0,020
-251,307	255,432	0,040	-0,050
-250,292	-11,921	-0,071	-0,033
-249,278	357,553	0,092	0,134
-248,263	84,954	0,031	0,024
-247,249	187,582	0,028	0,030
-246,234	-20,292	0,034	0,015
-245,219	-200,000	0,009	0,084
-244,205	-200,000	-0,010	-0,147
-243,190	-200,000	-0,003	0,052
-242,176	799,058	-0,063	0,126
-241,161	-19,649	0,145	0,065
-240,146	-51,513	-0,072	-0,024
-239,132	-126,740	0,019	0,002
-238,117	136,807	-0,058	-0,055
-237,103	92,622	0,067	-0,055
-236,088	359,491	0,058	0,084
-235,073	177,137	-0,081	0,086
-234,059	-200,000	0,006	0,053
-233,044	20,680	0,056	0,033
-232,030	-200,000	-0,002	0,037
-231,015	-33,358	0,035	0,014
-230,000	328,695	-0,073	-0,102
-228,986	112,459	0,079	-0,069
-227,971	-200,000	-0,008	0,073
-226,957	21,979	0,126	0,074
-225,942	122,363	-0,162	-0,146
-224,927	-30,214	0,049	-0,020
-223,913	187,629	-0,011	-0,012
-222,898	-200,000	0,022	-0,097
-221,884	354,829	-0,078	0,112
-220,869	800,000	0,029	-0,084
-219,855	-170,333	0,199	-0,005
-218,840	-109,099	-0,105	-0,016
-217,825	470,035	0,090	0,147
-216,811	-136,558	-0,013	0,001
-215,796	28,602	-0,082	0,050
-214,782	-200,000	-0,000	-0,088
-213,767	800,000	0,039	0,091
-212,752	-200,000	-0,005	0,040
-211,738	73,074	-0,042	-0,032
-210,723	135,648	0,046	0,043
-209,709	-94,000	-0,062	0,012
-208,694	800,000	-0,012	-0,032
-207,679	76,967	0,078	-0,060
-206,665	-200,000	0,025	-0,116
-205,650	800,000	0,064	0,175
-204,636	336,080	0,022	0,030
-203,621	250,344	0,103	0,126
-202,606	-91,968	0,071	-0,014
-201,592	-118,790	-0,123	-0,015
-200,577	12,268	0,115	0,064
-199,563	-73,024	-0,059	0,016
-198,548	-200,000	0,006	0,068
-197,533	75,398	-0,038	-0,029
-196,519	-165,923	-0,147	-0,004
-195,504	84,456	0,039	-0,031
-194,490	-200,000	0,013	0,090
-193,475	-84,054	-0,031	0,007
-192,460	-157,032	0,107	0,005
-191,446	-200,000	-0,003	0,050
-190,431	338,166	-0,077	0,108
-189,417	-108,075	-0,159	0,025
-188,402	239,691	0,095	0,115
-187,387	-200,000	-0,035	-0,136
-186,373	298,057	-0,015	0,020
-185,358	-71,217	0,120	-0,032
-184,344	674,541	0,047	0,088
-183,329	-31,073	0,239	0,097
-182,315	-137,805	-0,145	-0,012
-181,300	-200,000	0,018	-0,069
-180,285	180,209	0,020	-0,021
-179,271	22,805	0,088	-0,052
-178,256	-200,000	0,021	0,101
-177,242	-44,220	-0,118	-0,043
-176,227	-136,875	-0,066	0,005
-175,212	-27,136	0,141	-0,059
-174,198	-200,000	0,003	0,041
-173,183	-44,558	-0,065	0,023
-172,169	98,240	-0,056	0,046
-171,154	155,118	-0,073	0,073
-170,139	-200,000	-0,030	0,097
-169,125	-98,717	-0,006	0,001
-168,110	-110,680	0,155	0,023
-167,096	38,805	-0,049	0,032
-166,081	-42,437	-0,141	-0,052
-165,066	-162,476	-0,029	0,001
-164,052	115,928	0,038	-0,034
-163,037	-200,000	0,025	-0,087
-162,023	101,856	-0,073	-0,061
-161,008	85,482	-0,054	0,043
-159,993	176,269	0,032	-0,033
-158,979	800,000	0,013	-0,027
-157,964	-26,170	0,116	0,049
-156,950	176,928	-0,054	0,057
-155,935	74,552	0,014	0,011
-154,920	119,435	-0,075	-0,067
-153,906	214,905	0,102	0,117
-152,891	-200,000	0,002	0,010
-151,877	-69,104	0,073	0,020
-150,862	-98,326	-0,060	0,011
-149,847	800,000	0,051	-0,124
-148,833	126,960	-0,031	-0,028
-147,818	693,933	0,055	0,104
-146,804	503,889	0,058	0,096
-145,789	-200,000	0,034	0,120
-144,775	-107,022	0,077	-0,012
-143,760	-200,000	-0,149	-0,000
-142,745	290,798	0,022	0,029
-141,731	-73,575	0,079	0,020
-140,716	-180,258	0,061	0,001
-139,702	30,182	-0,104	-0,064
-138,687	423,225	0,038	0,060
-137,672	188,703	-0,121	-0,131
-136,658	459,114	-0,031	-0,051
-135,643	800,000	0,017	-0,037
-134,629	-200,000	-0,004	-0,037
-133,614	-200,000	0,004	0,077
-132,599	-200,000	-0,008	-0,070
-131,585	-200,000	-0,014	0,076
-130,570	144,543	0,030	-0,029
-129,556	170,240	-0,036	-0,038
-128,541	800,000	0,067	-0,175
-127,526	229,983	0,112	0,132
-126,512	-200,000	0,005	0,138
-125,497	-200,000	0,003	0,012
-124,483	-200,000	-0,002	0,078
-123,468	-78,202	-0,118	-0,029
-122,453	15,218	0,106	0,060
-121,439	199,905	-0,039	-0,043
-120,424	-56,956	-0,068	-0,021
-119,410	-200,000	0,003	0,122
-118,395	236,912	-0,010	0,012
-117,380	-68,139	0,043	0,012
-116,366	-48,311	-0,119	0,041
-115,351	-24,438	0,080	-0,034
-114,337	778,980	-0,079	-0,155
-113,322	-116,528	0,102	0,013
-112,307	0,408	0,153	0,078
-111,293	769,996	-0,053	0,104
-110,278	-153,162	0,097	-0,005
-109,264	-200,000	0,015	-0,050
-108,249	181,202	-0,050	0,052
-107,234	-120,831	-0,157	0,019
-106,220	800,000	-0,033	-0,084
-105,205	-200,000	0,014	0,051
-104,191	800,000	-0,029	-0,067
-103,176	-200,000	0,024	-0,217
-102,162	66,885	0,072	0,053
-101,147	-124,504	-0,120	0,013
-100,132	81,061	-0,107	-0,083
-99,118	270,259	-0,031	-0,039
-98,103	71,931	-0,160	0,119
-97,089	-200,000	-0,021	0,091
-96,074	89,554	-0,114	0,091
-95,059	-200,000	-0,003	0,076
-94,045	800,000	0,017	-0,034
-93,030	800,000	-0,012	0,038
-92,016	-88,913	0,054	-0,011
-91,001	800,000	0,040	0,095
-89,986	800,000	0,020	-0,053
-88,972	-23,668	0,073	0,031
-87,957	60,653	0,118	-0,084
-86,943	-200,000	0,001	-0,117
-85,928	800,000	-0,025	0,070
-84,913	-200,000	-0,012	0,039
-83,899	207,134	-0,028	-0,031
-82,884	-200,000	0,016	-0,055
-81,870	800,000	0,018	0,048
-80,855	159,105	0,076	0,076
-79,840	-88,541	-0,072	0,015
-78,826	19,725	0,102	-0,059
-77,811	30,951	-0,019	0,012
-76,797	345,688	-0,090	0,127
-75,782	33,726	0,057	0,036
-74,767	640,787	0,026	0,048
-73,753	800,000	-0,027	-0,085
-72,738	-79,614	0,100	-0,024
-71,724	-200,000	-0,013	-0,063
-70,709	800,000	-0,024	-0,063
-69,694	800,000	0,022	0,062
-68,680	-1,062	-0,101	-0,051
-67,665	-78,756	0,093	-0,023
-66,651	-200,000	0,015	0,085
-65,636	-200,000	0,022	-0,110
-64,622	-161,239	-0,100	0,004
-63,607	-200,000	-0,019	-0,090
-62,592	-114,073	-0,050	-0,007
-61,578	-171,132	0,069	0,002
-60,563	-84,557	0,060	0,013
-59,549	197,490	-0,110	0,120
-58,534	14,049	-2,074	-1,156
-57,519	-200,000	-0,178	-0,800
-56,505	-200,000	-1,392	-4,970
-55,490	61,509	0,829	0,591
-54,476	800,000	5,243	11,934
-53,461	-200,000	17,811	289,853
-52,446	800,000	726,480	2228,976
-51,432	536,772	1639,373	2804,144
-50,417	109,569	1629,684	1400,944
-49,403	73,166	1283,646	962,058
-48,388	31,461	1026,270	631,384
-47,373	19,954	988,264	570,092
-46,359	18,299	976,182	557,683
-45,344	15,521	972,408	546,423
-44,330	15,753	970,817	546,263
-43,315	15,295	969,090	543,778
-42,300	15,230	968,117	542,997
-41,286	15,203	967,049	542,290
-40,271	15,207	965,985	541,683
-39,257	15,242	965,001	541,226
-38,242	15,256	964,264	540,837
-37,227	15,200	963,473	540,189
-36,213	15,299	962,561	539,975
-35,198	15,204	961,776	539,207
-34,184	15,260	961,068	538,969
-33,169	15,207	960,100	538,234
-32,154	15,261	959,164	537,864
-31,140	15,226	958,479	537,346
-30,125	15,245	957,751	536,976
-29,111	15,234	956,867	536,422
-28,096	15,211	956,166	535,934
-27,082	15,215	955,309	535,445
-26,067	15,238	954,536	535,066
-25,052	15,253	953,812	534,686
-24,038	15,238	953,228	534,292
-23,023	15,226	952,330	533,727
-22,009	15,242	951,857	533,493
-20,994	15,257	951,260	533,183
-19,979	15,238	950,783	532,834
-18,965	15,225	949,867	532,259
-17,950	15,231	949,453	532,024
-16,936	15,188	948,763	531,482
-15,921	15,166	948,328	531,146
-14,906	15,144	947,411	530,541
-13,892	15,071	946,763	529,926
-12,877	15,089	946,258	529,677
-11,863	15,116	945,364	529,243
-10,848	15,142	944,903	529,045
-9,833	15,230	944,537	529,100
-8,819	15,220	943,806	528,638
-7,804	15,180	943,401	528,264
-6,790	15,101	942,687	527,592
-5,775	15,199	941,984	527,487
-4,760	15,176	941,495	527,119
-3,746	15,184	940,805	526,738
-2,731	15,074	939,993	525,916
-1,717	14,984	939,445	525,302
-0,702	15,018	938,788	525,021
0,313	14,801	938,117	524,755
1,327	18,169	936,159	534,214
2,342	27,281	790,030	474,832
3,356	23,982	444,928	262,504
4,371	-5,629	295,757	144,872
5,386	-9,494	277,266	132,138
6,400	-10,855	271,802	128,255
7,415	-11,011	269,366	126,951
8,429	-10,975	268,021	126,339
9,444	-11,040	267,088	125,828
10,459	-10,939	266,579	125,669
11,473	-11,175	265,850	125,100
12,488	-11,200	265,325	124,818
13,502	-11,533	264,755	124,238
14,517	-11,384	264,380	124,186
15,531	-11,321	264,064	124,084
16,546	-11,077	263,516	124,034
17,561	-11,252	263,144	123,691
18,575	-11,028	262,870	123,753
19,590	-11,360	262,589	123,311
20,604	-11,161	262,376	123,378
21,619	-11,119	261,909	123,186
22,634	-11,155	261,681	123,035
23,648	-11,192	261,149	122,741
24,663	-11,367	261,050	122,527
25,677	-11,164	260,790	122,575
26,692	-11,469	260,538	122,175
27,707	-11,384	260,267	122,112
28,721	-11,429	259,937	121,906
29,736	-11,281	259,661	121,897
30,750	-11,211	259,322	121,790
31,765	-11,501	259,253	121,490
32,780	-11,429	259,048	121,446
33,794	-11,426	258,755	121,300
34,809	-11,342	258,413	121,204
35,823	-11,237	258,142	121,158
36,838	-11,271	257,913	121,010
37,853	-11,468	257,817	120,781
38,867	-11,545	257,499	120,553
39,882	-11,398	257,365	120,609
40,896	-11,440	257,079	120,427
41,911	-11,586	256,994	120,248
42,926	-11,515	256,573	120,103
43,940	-11,484	256,364	120,022
44,955	-11,337	256,069	120,001
45,969	-11,538	255,756	119,669
46,984	-11,688	255,540	119,426
47,999	-11,972	255,331	119,070
49,013	-12,226	255,141	118,750
50,028	-12,373	255,003	118,547
51,042	-12,307	254,541	118,379
52,057	-12,444	254,325	118,149
53,071	-12,148	254,181	118,328
54,086	-12,149	254,106	118,282
55,101	-12,044	253,844	118,241
56,115	-11,842	253,723	118,348
57,130	-11,229	253,618	118,819
58,144	-11,199	253,478	118,769
59,159	-11,305	253,170	118,523
60,174	-11,307	253,164	118,507
61,188	-11,262	252,951	118,435
62,203	-11,291	252,613	118,242
63,217	-11,174	252,331	118,200
64,232	-11,189	252,097	118,067
65,247	-11,315	252,039	117,921
66,261	-11,388	251,856	117,762
67,276	-11,516	251,429	117,442
68,290	-11,760	251,290	117,158
69,305	-12,013	251,053	116,821
70,320	-11,759	250,732	116,878
71,334	-11,577	250,677	116,997
72,349	-11,229	250,571	117,235
73,363	-11,161	250,308	117,159
74,378	-11,194	250,038	116,994
75,393	-11,348	249,886	116,781
76,407	-11,213	249,640	116,771
77,422	-11,328	249,457	116,577
78,436	-11,238	249,286	116,563
79,451	-11,256	249,058	116,431
80,466	-11,505	248,760	116,071
81,480	-11,500	248,413	115,903
82,495	-11,486	248,324	115,862
83,509	-11,494	248,283	115,826
84,524	-11,542	248,036	115,660
85,539	-11,649	247,740	115,422
86,553	-11,756	247,615	115,263
87,568	-11,778	247,497	115,179
88,582	-11,502	247,295	115,307
89,597	-11,552	247,064	115,147
90,611	-11,593	246,944	115,047
91,626	-11,506	246,829	115,056
92,641	-11,380	246,582	115,036
93,655	-11,541	246,441	114,825
94,670	-11,457	246,146	114,747
95,684	-11,544	245,855	114,529
96,699	-11,331	245,728	114,638
97,714	-11,556	245,430	114,300
98,728	-11,664	245,258	114,120
99,743	-11,714	245,162	114,024
100,757	-11,935	245,023	113,765
101,772	-11,695	244,727	113,817
102,787	-11,837	244,515	113,590
103,801	-11,606	244,440	113,737
104,816	-11,543	244,301	113,715
105,830	-11,315	244,123	113,811
106,845	-11,261	243,941	113,760
107,860	-11,511	243,711	113,436
108,874	-11,312	243,460	113,474
109,889	-11,616	243,286	113,131
110,903	-11,634	243,074	113,007
111,918	-11,678	242,938	112,898
112,933	-11,494	242,801	112,976
113,947	-11,498	242,549	112,846
114,962	-11,479	242,613	112,880
115,976	-11,547	242,287	112,663
116,991	-11,448	242,190	112,689
118,006	-11,352	241,986	112,663
119,020	-11,445	241,801	112,490
120,035	-11,403	241,762	112,497
121,049	-11,083	241,637	112,691
122,064	-11,225	241,326	112,420
123,079	-11,389	241,080	112,161
124,093	-11,763	240,950	111,785
125,108	-11,915	240,609	111,493
126,122	-11,885	240,474	111,445
127,137	-11,968	240,169	111,226
128,151	-11,662	239,963	111,369
129,166	-11,902	239,925	111,147
130,181	-11,783	239,656	111,109
131,195	-11,763	239,434	111,012
132,210	-11,660	239,426	111,083
133,224	-11,719	239,207	110,923
134,239	-11,254	238,975	111,182
135,254	-11,225	238,689	111,062
136,268	-11,586	238,560	110,700
137,283	-11,885	238,268	110,315
138,297	-11,930	238,061	110,172
139,312	-12,045	237,929	110,008
140,327	-11,669	237,926	110,301
141,341	-11,063	237,796	110,718
142,356	-11,085	237,660	110,627
143,370	-11,123	237,462	110,494
144,385	-11,023	237,459	110,563
145,400	-11,032	237,264	110,455
146,414	-11,049	237,071	110,342
147,429	-11,164	236,825	110,126
148,443	-11,283	236,768	109,994
149,458	-11,200	236,569	109,958
150,473	-11,226	236,414	109,856
151,487	-11,184	236,072	109,720
152,502	-11,127	235,901	109,677
153,516	-11,012	235,733	109,680
154,531	-11,112	235,736	109,592
155,546	-11,234	235,499	109,375
156,560	-11,115	235,264	109,351
157,575	-11,185	235,024	109,174
158,589	-11,191	234,898	109,101
159,604	-11,160	234,892	109,113
160,619	-10,883	234,688	109,228
161,633	-10,935	234,552	109,114
162,648	-11,058	234,339	108,908
163,662	-11,113	234,338	108,854
164,677	-11,010	233,949	108,745
165,692	-11,005	233,745	108,644
166,706	-11,043	233,652	108,562
167,721	-11,017	233,688	108,589
168,735	-10,798	233,418	108,626
169,750	-10,988	233,159	108,347
170,764	-10,962	233,169	108,362
171,779	-10,914	233,011	108,317
172,794	-11,100	232,866	108,094
173,808	-11,457	232,674	107,715
174,823	-11,791	232,313	107,277
175,837	-11,892	232,169	107,121
176,852	-11,591	232,149	107,338
177,867	-11,177	232,096	107,628
178,881	-11,006	231,851	107,639
179,896	-11,041	231,709	107,535
180,910	-11,062	231,518	107,421
181,925	-10,886	231,360	107,476
182,940	-11,020	231,367	107,364
183,954	-10,904	231,108	107,325
184,969	-11,032	230,986	107,159
185,983	-10,990	230,756	107,076
186,998	-10,722	230,651	107,226
188,013	-10,865	230,569	107,067
189,027	-10,850	230,253	106,923
190,042	-10,889	230,172	106,845
191,056	-11,009	230,100	106,709
192,071	-10,953	229,742	106,577
193,086	-10,966	229,694	106,535
194,100	-10,860	229,471	106,504
195,115	-11,375	229,213	105,978
196,129	-11,189	229,171	106,092
197,144	-5,683	231,134	111,271
198,159	0,523	232,858	116,937
199,173	2,959	233,248	119,023
200,188	3,169	233,399	119,253
201,202	3,371	233,217	119,307
202,217	3,612	233,144	119,446
203,232	3,749	233,074	119,506
204,246	3,799	232,982	119,488
205,261	3,638	232,818	119,267
206,275	3,961	232,732	119,464
207,290	4,018	232,634	119,447
208,304	3,923	232,367	119,225
209,319	3,742	232,328	119,055
210,334	3,842	231,981	118,944
211,348	3,456	231,827	118,555
212,363	3,405	231,640	118,410
213,377	3,135	231,292	118,013
214,392	3,055	231,223	117,906
215,407	3,148	231,146	117,928
216,421	3,403	230,925	118,001
217,436	3,067	230,893	117,715
218,450	2,942	230,447	117,381
219,465	2,984	230,407	117,383
220,480	3,020	230,295	117,343
221,494	2,980	230,148	117,226
222,509	3,185	230,194	117,397
223,523	3,359	229,866	117,353
224,538	3,094	229,620	117,014
225,553	3,069	229,609	116,979
226,567	3,282	229,459	117,054
227,582	3,657	229,269	117,234
228,596	3,682	229,170	117,192
229,611	3,217	229,084	116,783
230,626	3,151	228,726	116,539
231,640	3,133	228,626	116,464
232,655	3,440	228,608	116,679
233,669	3,551	228,516	116,705
234,684	3,802	228,373	116,813
235,699	3,843	228,111	116,700
236,713	3,564	227,966	116,403
237,728	3,339	227,747	116,110
238,742	3,149	227,499	115,830
239,757	3,194	227,475	115,841
240,772	3,294	227,391	115,864
241,786	3,161	227,232	115,672
242,801	3,479	227,100	115,835
243,815	3,828	226,951	116,011
244,830	3,440	226,962	115,714
245,844	3,226	226,621	115,368
246,859	3,495	226,397	115,447
247,874	3,451	226,237	115,322
248,888	3,690	226,244	115,495
249,903	3,370	226,123	115,183
250,917	3,155	225,915	114,905
251,932	3,283	225,655	114,858
252,947	3,268	225,444	114,730
253,961	3,102	225,477	114,612
254,976	3,096	225,345	114,530
255,990	3,440	225,329	114,769
257,005	3,408	224,980	114,557
258,020	3,426	224,958	114,549
259,034	3,661	224,882	114,676
260,049	3,616	224,624	114,500
261,063	3,424	224,401	114,233
262,078	3,708	224,367	114,417
263,093	3,409	224,360	114,181
264,107	3,302	224,289	114,055
265,122	3,425	224,050	114,015
266,136	3,768	223,938	114,203
267,151	3,899	223,637	114,136
268,166	3,457	223,352	113,652
269,180	2,935	223,290	113,224
270,195	3,227	222,988	113,277
271,209	3,301	222,801	113,227
272,224	3,075	222,945	113,123
273,239	3,370	222,710	113,212
274,253	3,191	222,604	113,015
275,268	3,115	222,459	112,875
276,282	2,984	222,176	112,625
277,297	2,593	222,132	112,304
278,312	3,102	221,828	112,515
279,326	3,165	221,911	112,594
280,341	3,210	221,650	112,485
281,355	3,288	221,574	112,493
282,370	3,474	221,370	112,516
283,384	3,068	221,185	112,115
284,399	2,809	221,039	111,840
285,414	2,789	220,931	111,761
286,428	3,183	220,756	111,951
287,443	3,021	220,887	111,888
288,457	3,747	220,557	112,242
289,472	3,167	220,430	111,744
290,487	2,865	220,117	111,355
291,501	2,756	219,859	111,135
292,516	3,127	220,023	111,479
293,530	2,911	219,728	111,162
294,545	2,881	219,684	111,108
295,560	2,942	219,522	111,061
296,574	3,143	219,404	111,137
297,589	3,200	219,304	111,118
298,603	3,392	219,092	111,140
299,618	3,368	219,047	111,090
300,633	3,215	218,879	110,884
301,647	3,400	218,808	110,972
302,662	3,533	218,698	111,003
303,676	3,423	218,478	110,801
304,691	3,404	218,358	110,717
305,706	3,545	218,161	110,709
306,720	3,219	218,215	110,491
307,735	3,015	218,080	110,266
308,749	3,029	217,759	110,104
309,764	3,380	217,631	110,282
310,779	3,493	217,506	110,290
311,793	3,289	217,394	110,077
312,808	3,563	217,139	110,134
313,822	3,333	217,131	109,955
314,837	3,210	216,966	109,774
315,852	3,179	216,716	109,615
316,866	3,102	216,740	109,563
317,881	3,428	216,585	109,708
318,895	3,355	216,348	109,525
319,910	3,067	216,194	109,232
320,925	2,986	215,980	109,057
321,939	2,459	215,901	108,631
322,954	2,986	215,806	108,949
323,968	3,202	215,786	109,084
324,983	3,378	215,611	109,110
325,997	3,464	215,370	109,040
327,012	3,257	215,316	108,856
328,027	3,499	215,186	108,952
329,041	3,763	215,143	109,108
330,056	3,706	215,151	109,062
331,070	3,319	214,811	108,606
332,085	3,066	214,510	108,265
333,100	3,294	214,495	108,409
334,114	3,444	214,365	108,440
335,129	3,307	214,186	108,243
336,143	3,335	213,904	108,110
337,158	3,160	213,947	107,999
338,173	3,172	213,760	107,903
339,187	3,105	213,602	107,766
340,202	2,862	213,471	107,519
341,216	3,102	213,302	107,594
342,231	3,209	213,097	107,556
343,246	3,092	213,032	107,432
344,260	3,068	212,816	107,296
345,275	3,334	212,852	107,491
346,289	3,428	212,760	107,501
347,304	3,491	212,615	107,463
348,319	3,373	212,379	107,251
349,333	3,287	212,240	107,111
350,348	3,310	212,112	107,053
351,362	3,430	212,035	107,089
352,377	3,511	211,876	107,055
353,392	3,314	211,689	106,814
354,406	3,447	211,658	106,882
355,421	196,067	1340,738	1420,143
356,435	156,644	1478,263	1420,107
