DTS Sentinel unit serial number:	SN410029Multiplexer serial number:	ORYXHardware model number:	OX2-SRSoftware version number:	ORYX F/W v4,00 Oryx Data Collector v3.7.2.0data status	okinstallation	B6 Nyhavnadifferential loss correction	single-endedforward channel	channel 2reverse channel	N/Adate	2023/12/10time	03:15:08forward acquisition time	300,00reverse acquisition time	0,00gamma	499,1914k internal	0,3125k external	0,3125temperature offset calibration	1,0000default loss term (dB/km)	0,3820temperature slope calibration	1,0000multiplexer offset coefficient	1,0000multiplexer slope coefficient	1,0000fibre end	0,00T internal ref (°C)	22,00T ext. ref 1 (°C)	5,86T ext. ref 2 (°C)	5,83length (m)	temperature (°C)	Stokes	anti-Stokes-744,400	322,416	-0,013	-0,019
-743,385	-25,228	-0,114	-0,050
-742,371	651,016	-0,026	-0,049
-741,356	-200,000	-0,059	0,206
-740,342	-135,434	0,092	-0,008
-739,327	-96,896	-0,318	0,062
-738,312	-200,000	-0,008	-0,100
-737,298	-60,024	-0,227	0,072
-736,283	178,242	-0,021	-0,023
-735,269	-76,042	-0,315	0,082
-734,254	102,843	0,128	-0,112
-733,239	-90,039	-0,394	-0,085
-732,225	-88,965	0,132	-0,029
-731,210	800,000	-0,083	0,182
-730,196	163,691	0,041	-0,043
-729,181	-168,716	-0,085	-0,002
-728,167	-112,333	0,146	-0,022
-727,152	-86,236	-0,136	-0,031
-726,137	-86,484	0,051	-0,012
-725,123	217,354	-0,143	-0,169
-724,108	-102,991	-0,095	0,017
-723,094	556,994	-0,055	-0,099
-722,079	-200,000	0,022	-0,090
-721,064	-60,648	-0,074	0,023
-720,050	-17,698	-0,072	0,034
-719,035	-200,000	-0,001	-0,085
-718,021	800,000	-0,003	0,008
-717,006	88,791	0,045	0,037
-715,991	-103,694	-0,046	-0,008
-714,977	23,452	-0,125	0,076
-713,962	800,000	-0,075	-0,164
-712,948	-200,000	-0,016	-0,099
-711,933	29,423	0,069	0,044
-710,918	660,774	-0,021	0,040
-709,904	-200,000	-0,004	-0,051
-708,889	194,808	0,112	-0,126
-707,875	296,047	0,054	-0,074
-706,860	800,000	0,047	-0,125
-705,845	67,077	-0,035	-0,027
-704,831	236,738	0,074	0,091
-703,816	-129,633	0,031	-0,003
-702,802	17,227	-0,101	0,059
-701,787	263,452	0,041	-0,053
-700,772	-134,122	-0,117	-0,011
-699,758	167,253	0,057	0,060
-698,743	150,575	-0,063	0,064
-697,729	65,296	0,030	-0,022
-696,714	420,514	-0,047	-0,074
-695,699	-200,000	0,008	-0,114
-694,685	224,746	0,060	-0,072
-693,670	-200,000	0,004	0,021
-692,656	159,684	0,091	0,094
-691,641	-117,816	0,227	-0,030
-690,627	-117,903	0,091	-0,012
-689,612	-200,000	-0,012	-0,099
-688,597	290,567	-0,047	-0,064
-687,583	-200,000	0,000	-0,037
-686,568	21,408	-0,124	-0,075
-685,554	-200,000	-0,015	-0,094
-684,539	-112,944	0,085	-0,012
-683,524	223,160	0,093	-0,111
-682,510	-200,000	0,001	-0,043
-681,495	-200,000	0,012	-0,049
-680,481	234,273	-0,030	-0,037
-679,466	744,949	0,016	-0,031
-678,451	14,709	0,128	-0,074
-677,437	165,336	-0,070	-0,074
-676,422	-200,000	0,024	0,095
-675,408	-178,186	-0,135	0,002
-674,393	-200,000	-0,042	-0,177
-673,378	-200,000	0,022	-0,123
-672,364	4,101	0,012	0,007
-671,349	657,394	0,076	-0,146
-670,335	326,426	-0,106	-0,152
-669,320	800,000	-0,031	0,071
-668,305	-114,837	-0,108	0,015
-667,291	424,424	-0,035	-0,055
-666,276	-119,673	0,063	0,008
-665,262	-200,000	0,009	-0,099
-664,247	-200,000	-0,022	-0,095
-663,232	-200,000	0,012	-0,072
-662,218	-200,000	0,002	0,085
-661,203	99,995	0,092	-0,079
-660,189	721,318	0,090	0,179
-659,174	-39,825	-0,138	-0,053
-658,159	402,282	-0,052	-0,081
-657,145	-51,933	-0,067	-0,023
-656,130	163,503	-0,053	-0,055
-655,116	15,683	-0,014	0,008
-654,101	21,222	-0,005	0,003
-653,086	105,560	0,090	0,079
-652,072	105,782	-0,090	0,079
-651,057	97,398	-0,070	0,060
-650,043	411,962	-0,065	-0,103
-649,028	131,528	0,120	0,115
-648,014	1,512	0,071	0,038
-646,999	729,546	-0,012	-0,024
-645,984	583,928	0,026	0,048
-644,970	60,152	-0,118	-0,086
-643,955	-200,000	0,010	-0,033
-642,941	312,949	0,047	-0,066
-641,926	-30,564	-0,055	0,023
-640,911	172,216	0,045	0,048
-639,897	-34,803	-0,097	-0,039
-638,882	50,122	-0,098	-0,068
-637,868	-200,000	-0,000	-0,022
-636,853	-87,758	-0,133	-0,029
-635,838	-133,733	-0,038	0,003
-634,824	67,048	0,050	-0,038
-633,809	-200,000	-0,037	-0,165
-632,795	-112,333	-0,241	0,035
-631,780	299,651	0,015	-0,020
-630,765	-200,000	0,001	-0,035
-629,751	800,000	0,012	-0,037
-628,736	-41,514	-0,148	0,056
-627,722	55,066	-0,095	0,068
-626,707	800,000	0,027	0,080
-625,692	360,193	-0,072	0,107
-624,678	346,716	-0,039	0,057
-623,663	128,177	-0,044	0,041
-622,649	-200,000	-0,036	0,122
-621,634	800,000	-0,073	-0,186
-620,619	199,232	-0,058	0,066
-619,605	103,155	0,036	0,031
-618,590	800,000	0,030	0,066
-617,576	23,160	0,078	0,048
-616,561	29,172	-0,110	0,069
-615,546	36,820	-0,113	-0,074
-614,532	-200,000	0,012	-0,046
-613,517	-46,073	-0,144	-0,052
-612,503	12,053	-0,115	-0,065
-611,488	232,358	-0,024	-0,029
-610,474	-200,000	0,006	0,061
-609,459	-177,291	0,059	-0,001
-608,444	800,000	-0,040	-0,101
-607,430	800,000	-0,030	-0,080
-606,415	-131,263	0,094	-0,009
-605,401	-18,652	0,115	0,053
-604,386	800,000	0,078	0,183
-603,371	360,837	-0,034	0,050
-602,357	473,258	-0,060	-0,100
-601,342	-158,838	-0,104	-0,004
-600,328	-130,499	-0,191	-0,019
-599,313	160,312	-0,030	0,031
-598,298	27,323	-0,126	0,078
-597,284	-200,000	-0,027	0,101
-596,269	337,926	-0,009	0,012
-595,255	-103,178	-0,028	0,005
-594,240	57,075	0,102	0,074
-593,225	-83,356	-0,111	0,026
-592,211	12,159	-0,067	-0,038
-591,196	644,602	-0,029	0,055
-590,182	-200,000	0,023	-0,091
-589,167	91,160	-0,059	0,049
-588,152	800,000	0,016	0,033
-587,138	-200,000	0,004	-0,057
-586,123	23,332	0,087	-0,053
-585,109	-200,000	-0,014	-0,143
-584,094	-200,000	-0,016	-0,111
-583,079	753,470	-0,015	0,031
-582,065	13,533	0,098	0,056
-581,050	-200,000	-0,026	0,154
-580,036	507,522	0,018	-0,032
-579,021	-200,000	-0,025	0,112
-578,006	-89,015	0,096	-0,021
-576,992	-200,000	-0,024	-0,102
-575,977	29,587	-0,143	-0,090
-574,963	-129,076	0,004	0,000
-573,948	609,641	0,077	-0,143
-572,934	127,484	0,112	-0,105
-571,919	6,242	-0,107	0,059
-570,904	-43,610	-0,040	-0,015
-569,890	-8,714	-0,012	0,006
-568,875	26,679	-0,089	0,055
-567,861	-200,000	0,018	-0,129
-566,846	337,263	0,049	-0,070
-565,831	21,664	-0,125	0,075
-564,817	336,537	-0,137	-0,198
-563,802	-92,728	-0,207	-0,042
-562,788	139,775	0,086	0,083
-561,773	-200,000	0,037	0,168
-560,758	-200,000	0,003	-0,037
-559,744	653,030	-0,026	-0,050
-558,729	-28,431	-0,068	0,029
-557,715	-200,000	0,031	-0,109
-556,700	-9,480	-0,112	-0,055
-555,685	-153,507	0,111	-0,006
-554,671	88,874	0,107	0,088
-553,656	-16,561	0,056	-0,026
-552,642	-27,508	0,093	-0,040
-551,627	114,574	-0,075	-0,068
-550,612	183,357	-0,030	0,033
-549,598	16,152	-0,006	-0,003
-548,583	140,254	-0,049	-0,048
-547,569	-200,000	-0,006	-0,075
-546,554	45,308	0,094	0,064
-545,539	208,969	0,104	0,121
-544,525	284,210	-0,010	-0,013
-543,510	89,829	-0,017	-0,014
-542,496	800,000	-0,031	0,097
-541,481	-200,000	-0,001	0,012
-540,466	585,802	-0,050	0,091
-539,452	23,675	-0,065	-0,039
-538,437	140,746	0,062	-0,060
-537,423	-200,000	0,010	0,117
-536,408	-26,314	0,069	0,030
-535,393	677,116	-0,024	-0,047
-534,379	460,625	-0,067	-0,111
-533,364	-200,000	0,048	0,211
-532,350	16,246	-0,025	0,014
-531,335	-200,000	0,003	0,095
-530,321	-200,000	-0,034	0,159
-529,306	82,546	-0,075	0,060
-528,291	-200,000	-0,010	-0,064
-527,277	-8,813	-0,020	-0,010
-526,262	-154,211	-0,198	-0,010
-525,248	-92,628	0,075	-0,015
-524,233	-68,205	0,096	0,027
-523,218	-120,699	0,121	-0,015
-522,204	-200,000	0,003	0,056
-521,189	800,000	0,031	-0,095
-520,175	61,132	0,022	0,016
-519,160	-161,833	-0,154	0,006
-518,145	114,320	0,056	0,051
-517,131	68,887	0,078	0,059
-516,116	595,419	0,039	0,072
-515,102	-200,000	0,008	0,027
-514,087	349,312	-0,023	0,034
-513,072	-85,631	0,139	0,032
-512,058	-177,935	-0,039	0,001
-511,043	-113,114	0,145	0,021
-510,029	-120,679	0,128	0,016
-509,014	-200,000	0,005	-0,032
-507,999	154,017	-0,045	0,045
-506,985	-14,337	0,087	0,041
-505,970	-157,561	-0,084	-0,004
-504,956	793,137	-0,045	0,091
-503,941	470,689	0,054	0,090
-502,926	245,382	0,058	0,073
-501,912	420,990	0,136	0,215
-500,897	-148,937	-0,117	-0,007
-499,883	-146,911	-0,015	-0,001
-498,868	-140,393	-0,083	0,006
-497,853	190,682	-0,020	0,022
-496,839	312,612	0,045	-0,063
-495,824	-200,000	-0,001	-0,007
-494,810	-135,765	0,018	0,002
-493,795	-200,000	0,037	0,121
-492,781	410,346	0,055	0,086
-491,766	800,000	-0,033	0,096
-490,751	-200,000	0,001	-0,112
-489,737	-200,000	-0,025	-0,083
-488,722	-24,840	0,045	-0,020
-487,708	22,131	0,032	-0,019
-486,693	-200,000	-0,022	-0,088
-485,678	39,771	0,096	0,064
-484,664	-17,838	0,056	-0,026
-483,649	-200,000	0,023	-0,078
-482,635	45,971	-0,065	0,044
-481,620	325,340	-0,072	-0,102
-480,605	-200,000	-0,011	0,065
-479,591	-82,436	0,056	-0,013
-478,576	800,000	0,049	-0,139
-477,562	-165,240	-0,047	-0,001
-476,547	-27,353	0,046	0,019
-475,532	49,864	0,155	-0,107
-474,518	286,723	-0,137	0,183
-473,503	800,000	0,020	0,049
-472,489	141,566	-0,047	-0,045
-471,474	-133,892	-0,033	-0,003
-470,459	-10,892	-0,120	-0,058
-469,445	-200,000	0,015	0,050
-468,430	-200,000	-0,018	0,238
-467,416	15,030	-0,090	0,052
-466,401	-22,198	0,056	0,025
-465,386	800,000	0,019	-0,060
-464,372	-77,222	0,107	0,027
-463,357	-52,822	-0,116	-0,039
-462,343	-62,363	0,013	-0,004
-461,328	-200,000	-0,004	0,029
-460,313	390,040	-0,022	-0,033
-459,299	-48,217	0,145	0,051
-458,284	-170,616	0,111	-0,003
-457,270	-109,948	0,148	-0,023
-456,255	43,806	0,086	-0,058
-455,241	-39,695	-0,080	0,031
-454,226	699,981	-0,010	-0,020
-453,211	54,761	0,046	0,032
-452,197	152,348	-0,088	-0,089
-451,182	-200,000	-0,028	-0,156
-450,168	310,453	0,085	-0,117
-449,153	-138,933	0,076	0,006
-448,138	-192,510	-0,070	0,000
-447,124	800,000	-0,031	-0,098
-446,109	-200,000	0,017	-0,082
-445,095	-200,000	0,010	0,083
-444,080	-82,959	0,112	0,026
-443,065	-77,812	-0,033	0,008
-442,051	42,298	-0,103	0,069
-441,036	480,427	-0,019	-0,032
-440,022	89,263	0,106	-0,087
-439,007	800,000	0,027	-0,062
-437,992	614,673	-0,051	-0,095
-436,978	91,893	0,125	0,104
-435,963	-200,000	-0,027	0,094
-434,949	22,738	-0,087	0,052
-433,934	51,959	-0,116	0,081
-432,919	-126,848	-0,043	0,005
-431,905	524,612	0,085	-0,148
-430,890	320,133	0,083	0,116
-429,876	-200,000	-0,009	-0,052
-428,861	-52,095	0,030	-0,010
-427,846	193,433	-0,085	-0,095
-426,832	570,213	-0,024	0,044
-425,817	800,000	-0,026	0,057
-424,803	-200,000	-0,001	0,024
-423,788	253,508	0,033	-0,042
-422,773	-41,426	-0,062	0,023
-421,759	800,000	0,049	-0,129
-420,744	174,132	0,059	0,063
-419,730	-200,000	-0,034	-0,177
-418,715	-51,296	-0,059	-0,020
-417,701	-178,509	0,102	-0,002
-416,686	307,386	0,011	-0,016
-415,671	-200,000	-0,042	0,141
-414,657	-200,000	0,028	0,107
-413,642	800,000	0,038	0,081
-412,628	101,233	-0,064	-0,055
-411,613	800,000	-0,030	0,072
-410,598	-75,346	-0,075	-0,019
-409,584	-63,594	0,081	0,024
-408,569	-31,615	0,102	0,042
-407,555	64,802	0,115	0,086
-406,540	-71,674	0,038	0,010
-405,525	-60,338	0,071	0,022
-404,511	-13,657	-0,094	-0,045
-403,496	-200,000	0,033	-0,217
-402,482	268,728	0,015	-0,019
-401,467	-200,000	-0,028	0,256
-400,452	-200,000	-0,005	-0,023
-399,438	-68,841	-0,063	-0,018
-398,423	105,346	0,110	-0,096
-397,409	-65,053	0,156	-0,046
-396,394	121,359	0,060	-0,055
-395,379	629,323	0,050	-0,093
-394,365	-200,000	-0,004	0,150
-393,350	-200,000	-0,012	0,071
-392,336	-58,048	-0,115	0,037
-391,321	116,127	0,088	-0,079
-390,306	-200,000	-0,018	0,120
-389,292	-200,000	0,026	-0,136
-388,277	-22,093	0,075	-0,033
-387,263	-66,088	-0,110	-0,032
-386,248	226,974	0,086	-0,103
-385,233	-25,610	-0,088	0,038
-384,219	800,000	-0,065	-0,137
-383,204	8,227	0,103	-0,056
-382,190	-58,733	-0,091	-0,029
-381,175	-117,461	-0,055	0,007
-380,160	-200,000	-0,040	-0,130
-379,146	800,000	0,014	0,035
-378,131	366,590	-0,051	0,075
-377,117	-200,000	0,013	-0,165
-376,102	-200,000	-0,003	-0,138
-375,088	169,298	0,056	-0,059
-374,073	23,616	0,013	0,008
-373,058	125,339	-0,056	0,052
-372,044	-125,485	0,058	-0,006
-371,029	120,437	0,056	0,051
-370,015	800,000	-0,035	0,096
-369,000	85,608	0,081	0,065
-367,985	203,628	0,030	0,034
-366,971	-116,176	-0,030	0,004
-365,956	1,346	-0,043	-0,023
-364,942	-117,674	0,103	0,013
-363,927	800,000	-0,047	-0,105
-362,912	207,556	0,021	0,024
-361,898	737,771	0,050	-0,098
-360,883	216,039	0,061	-0,072
-359,869	800,000	-0,029	-0,083
-358,854	550,548	0,040	-0,070
-357,839	-40,479	-0,079	0,030
-356,825	-169,752	0,049	-0,001
-355,810	-200,000	0,008	-0,114
-354,796	174,537	-0,018	0,019
-353,781	28,352	-0,040	-0,025
-352,766	78,188	-0,047	-0,037
-351,752	117,662	-0,036	0,033
-350,737	-69,959	-0,086	0,024
-349,723	195,388	0,087	-0,097
-348,708	-200,000	-0,020	0,095
-347,693	-200,000	0,002	-0,012
-346,679	800,000	-0,031	-0,071
-345,664	37,179	-0,181	0,118
-344,650	800,000	0,021	0,066
-343,635	180,494	0,126	0,136
-342,620	800,000	0,048	0,120
-341,606	-25,569	-0,084	0,036
-340,591	-200,000	0,005	-0,046
-339,577	150,016	-0,046	-0,046
-338,562	204,903	0,034	-0,038
-337,548	-200,000	-0,018	0,094
-336,533	-200,000	0,007	-0,026
-335,518	-200,000	0,016	0,072
-334,504	800,000	-0,087	0,229
-333,489	-200,000	0,005	0,104
-332,475	-58,379	-0,063	0,020
-331,460	780,841	0,053	-0,108
-330,445	-103,946	-0,083	-0,014
-329,431	-200,000	0,002	0,079
-328,416	-200,000	0,028	0,118
-327,402	-25,060	0,088	0,038
-326,387	-200,000	0,012	0,041
-325,372	-83,418	-0,052	0,012
-324,358	-200,000	0,006	-0,128
-323,343	-37,027	-0,142	-0,056
-322,329	-200,000	0,011	-0,125
-321,314	-200,000	0,029	0,111
-320,299	35,648	0,063	-0,040
-319,285	245,905	0,060	-0,074
-318,270	-14,207	0,066	-0,031
-317,256	108,748	-0,124	-0,108
-316,241	152,379	-0,134	-0,134
-315,226	-200,000	-0,025	-0,149
-314,212	800,000	-0,023	0,050
-313,197	-200,000	0,014	0,118
-312,183	68,299	0,020	0,015
-311,168	-129,249	0,073	0,007
-310,153	-77,228	0,050	-0,013
-309,139	-200,000	0,006	-0,055
-308,124	800,000	-0,027	0,071
-307,110	-145,651	0,114	0,007
-306,095	-200,000	-0,012	0,099
-305,080	-200,000	0,005	-0,081
-304,066	-200,000	-0,016	-0,086
-303,051	-151,477	-0,052	-0,003
-302,037	-146,087	-0,052	-0,003
-301,022	-126,189	-0,148	-0,016
-300,008	-200,000	0,009	-0,053
-298,993	13,841	0,020	-0,011
-297,978	-146,161	0,070	0,004
-296,964	-86,455	-0,065	0,014
-295,949	193,096	-0,050	-0,055
-294,935	348,230	0,083	-0,119
-293,920	-91,817	0,091	0,019
-292,905	90,919	-0,112	-0,092
-291,891	407,333	-0,023	0,036
-290,876	-200,000	0,025	-0,108
-289,862	-200,000	0,000	-0,011
-288,847	800,000	-0,028	0,072
-287,832	-200,000	0,026	-0,104
-286,818	-29,059	-0,077	0,032
-285,803	800,000	-0,046	0,133
-284,789	800,000	-0,047	0,112
-283,774	-200,000	0,002	0,053
-282,759	-30,639	0,110	-0,045
-281,745	-154,754	-0,080	0,004
-280,730	7,829	-0,059	-0,032
-279,716	-200,000	-0,023	0,089
-278,701	800,000	0,011	0,031
-277,686	-101,262	-0,114	0,020
-276,672	253,303	-0,040	-0,050
-275,657	110,328	-0,019	-0,016
-274,643	147,217	0,070	0,069
-273,628	-85,279	-0,128	-0,029
-272,613	160,791	-0,046	0,047
-271,599	-34,915	-0,071	-0,028
-270,584	-200,000	0,002	-0,040
-269,570	-94,576	0,083	-0,016
-268,555	-58,234	0,143	0,045
-267,540	-71,792	0,060	0,016
-266,526	75,954	0,031	-0,024
-265,511	56,523	0,030	-0,021
-264,497	107,751	0,104	-0,091
-263,482	-200,000	0,037	-0,178
-262,467	793,900	0,070	0,141
-261,453	-32,211	0,067	-0,027
-260,438	184,750	0,072	-0,078
-259,424	125,618	0,061	0,057
-258,409	800,000	0,020	-0,051
-257,395	800,000	-0,018	0,055
-256,380	-200,000	0,011	-0,036
-255,365	-200,000	0,014	0,059
-254,351	678,732	0,047	0,089
-253,336	674,355	0,067	0,128
-252,322	181,567	-0,146	-0,157
-251,307	-96,826	-0,049	0,009
-250,292	207,702	0,043	0,049
-249,278	-200,000	0,007	0,033
-248,263	-84,436	0,162	0,037
-247,249	-169,350	-0,079	0,002
-246,234	597,958	0,035	0,064
-245,219	-200,000	-0,008	-0,128
-244,205	-200,000	-0,010	-0,069
-243,190	19,688	0,102	-0,060
-242,176	-107,136	0,051	-0,008
-241,161	702,381	-0,051	0,098
-240,146	-128,148	0,179	0,018
-239,132	-200,000	-0,015	0,065
-238,117	93,132	-0,086	-0,071
-237,103	-200,000	0,016	0,084
-236,088	-200,000	-0,021	-0,088
-235,073	800,000	0,036	-0,091
-234,059	-167,243	0,085	-0,002
-233,044	72,795	0,089	-0,068
-232,030	-97,780	-0,124	-0,023
-231,015	393,134	-0,041	-0,062
-230,000	448,555	-0,029	-0,047
-228,986	13,959	-0,038	0,022
-227,971	60,485	0,109	0,079
-226,957	29,942	0,103	0,064
-225,942	9,936	-0,071	-0,039
-224,927	-76,975	-0,099	-0,025
-223,913	800,000	-0,043	-0,105
-222,898	22,349	-0,056	0,033
-221,884	800,000	0,061	-0,144
-220,869	-200,000	0,024	0,105
-219,855	-200,000	-0,019	0,092
-218,840	431,935	0,059	0,094
-217,825	659,528	-0,054	0,102
-216,811	-142,477	-0,103	0,007
-215,796	146,026	-0,050	0,049
-214,782	-200,000	-0,001	-0,039
-213,767	51,759	0,048	-0,033
-212,752	324,909	0,042	0,059
-211,738	-129,727	0,093	-0,009
-210,723	-3,689	-0,113	0,057
-209,709	60,730	-0,021	0,015
-208,694	-200,000	-0,021	0,094
-207,679	153,837	-0,069	0,069
-206,665	-125,061	0,155	-0,017
-205,650	-200,000	-0,020	-0,109
-204,636	-123,403	0,091	0,011
-203,621	-200,000	-0,021	0,197
-202,606	59,026	0,084	-0,060
-201,592	-66,815	-0,035	-0,010
-200,577	131,577	-0,033	-0,031
-199,563	-200,000	0,010	-0,073
-198,548	-200,000	-0,002	0,164
-197,533	-185,332	0,057	-0,001
-196,519	-200,000	-0,017	-0,123
-195,504	116,857	0,079	-0,070
-194,490	-200,000	0,053	-0,181
-193,475	-200,000	-0,003	-0,051
-192,460	424,670	-0,019	0,030
-191,446	-200,000	0,002	0,110
-190,431	36,855	0,054	-0,035
-189,417	-92,095	0,065	0,013
-188,402	34,099	0,042	-0,027
-187,387	-200,000	-0,008	0,158
-186,373	-88,400	0,051	-0,011
-185,358	-200,000	0,014	-0,078
-184,344	208,138	0,068	0,077
-183,329	-200,000	0,015	0,052
-182,315	-200,000	-0,008	-0,090
-181,300	204,765	0,082	-0,092
-180,285	-200,000	0,018	-0,081
-179,271	-59,193	0,046	0,014
-178,256	-1,747	-0,156	-0,080
-177,242	800,000	0,012	-0,038
-176,227	108,758	0,044	0,038
-175,212	-124,845	0,072	0,008
-174,198	42,772	-0,021	-0,014
-173,183	75,159	-0,052	-0,040
-172,169	-164,168	0,060	0,002
-171,154	69,817	0,057	0,043
-170,139	-141,787	0,107	0,008
-169,125	-12,344	0,051	-0,024
-168,110	-200,000	0,001	-0,023
-167,096	-200,000	0,007	-0,031
-166,081	-66,223	-0,094	0,027
-165,066	-115,239	0,069	-0,009
-164,052	53,535	-0,047	0,033
-163,037	-183,335	0,068	-0,001
-162,023	559,383	-0,009	-0,016
-161,008	-134,551	0,059	-0,005
-159,993	19,059	0,075	-0,044
-158,979	-67,984	-0,142	-0,040
-157,964	-49,938	-0,133	-0,046
-156,950	152,517	-0,036	0,036
-155,935	243,980	-0,130	0,160
-154,920	-200,000	0,055	0,201
-153,906	107,012	0,016	-0,014
-152,891	800,000	0,035	-0,104
-151,877	287,111	0,060	0,079
-150,862	793,052	-0,039	0,079
-149,847	800,000	-0,032	0,065
-148,833	-114,285	-0,153	0,021
-147,818	182,069	0,057	-0,061
-146,804	74,376	-0,036	-0,027
-145,789	-60,756	0,052	-0,016
-144,775	-200,000	-0,009	0,190
-143,760	-200,000	0,013	-0,115
-142,745	764,778	-0,012	0,024
-141,731	-43,591	0,120	-0,044
-140,716	-60,936	0,040	0,012
-139,702	53,439	0,036	0,025
-138,687	800,000	0,016	0,037
-137,672	0,468	-0,082	-0,043
-136,658	-95,316	-0,145	0,028
-135,643	80,033	-0,050	0,039
-134,629	-95,811	0,122	0,024
-133,614	-45,303	0,033	0,012
-132,599	-200,000	0,011	0,172
-131,585	-160,917	0,205	0,008
-130,570	204,337	-0,063	0,071
-129,556	800,000	0,023	-0,051
-128,541	578,529	0,027	0,049
-127,526	-200,000	-0,020	-0,206
-126,512	-7,653	0,013	-0,006
-125,497	26,197	-0,038	0,023
-124,483	-200,000	0,012	0,056
-123,468	-200,000	0,017	0,080
-122,453	218,062	0,050	0,058
-121,439	101,762	-0,100	0,085
-120,424	163,254	-0,073	0,075
-119,410	98,359	0,060	-0,050
-118,395	-200,000	0,012	0,042
-117,380	115,581	0,072	0,064
-116,366	41,998	-0,049	0,032
-115,351	-171,612	0,068	-0,002
-114,337	135,331	-0,032	-0,030
-113,322	573,465	0,056	-0,099
-112,307	474,189	-0,010	0,016
-111,293	43,728	-0,049	0,033
-110,278	8,418	0,050	-0,027
-109,264	-200,000	-0,005	-0,045
-108,249	375,946	0,040	-0,059
-107,234	42,563	-0,149	-0,098
-106,220	800,000	0,034	-0,070
-105,205	-200,000	-0,029	0,139
-104,191	-200,000	-0,020	0,082
-103,176	72,996	-0,141	-0,107
-102,162	-200,000	0,040	-0,138
-101,147	-117,980	0,055	-0,007
-100,132	-62,319	0,061	0,018
-99,118	25,584	0,021	0,012
-98,103	-5,835	0,069	0,034
-97,089	170,145	0,138	0,144
-96,074	-81,942	-0,015	0,004
-95,059	-50,101	0,069	0,024
-94,045	-109,021	-0,098	0,015
-93,030	-2,677	-0,056	-0,028
-92,016	-200,000	0,010	-0,090
-91,001	193,744	-0,039	-0,042
-89,986	-200,000	-0,012	0,112
-88,972	667,293	0,042	0,080
-87,957	800,000	-0,071	0,165
-86,943	800,000	0,072	0,163
-85,928	349,675	-0,017	0,024
-84,913	-59,639	0,096	-0,030
-83,899	-27,234	-0,096	0,040
-82,884	243,151	0,044	-0,054
-81,870	-200,000	0,001	0,013
-80,855	260,542	-0,052	-0,065
-79,840	324,790	-0,035	-0,049
-78,826	-127,232	0,142	0,015
-77,811	-55,203	-0,214	-0,070
-76,797	89,028	0,124	-0,100
-75,782	-132,813	-0,089	0,008
-74,767	468,921	0,038	0,061
-73,753	-47,296	0,159	0,056
-72,738	-130,187	0,164	-0,016
-71,724	-66,158	-0,129	-0,037
-70,709	675,968	0,031	-0,059
-69,694	157,038	-0,037	0,037
-68,680	57,134	0,075	-0,053
-67,665	-41,630	-0,049	0,018
-66,651	-118,863	0,059	-0,007
-65,636	95,232	-0,117	0,097
-64,622	800,000	0,012	-0,025
-63,607	685,177	0,025	-0,047
-62,592	150,718	-0,040	-0,040
-61,578	800,000	-0,036	0,094
-60,563	-42,239	0,059	-0,022
-59,549	-43,068	-0,038	-0,014
-58,534	-80,825	-1,402	-0,335
-57,519	800,000	-0,696	-1,556
-56,505	-200,000	-0,887	-4,579
-55,490	-57,137	0,631	-0,200
-54,476	800,000	4,867	11,778
-53,461	-200,000	13,971	253,104
-52,446	-200,000	692,890	2241,382
-51,432	576,429	1623,442	2887,612
-50,417	117,668	1633,245	1457,448
-49,403	72,336	1287,014	971,228
-48,388	37,573	1023,298	656,928
-47,373	23,989	981,270	585,317
-46,359	23,231	970,760	576,542
-45,344	22,246	966,581	570,822
-44,330	22,222	965,025	569,801
-43,315	22,088	963,735	568,582
-42,300	22,053	962,695	567,831
-41,286	22,020	961,682	567,103
-40,271	22,054	960,621	566,567
-39,257	22,058	959,869	566,115
-38,242	22,046	958,900	565,480
-37,227	22,033	957,911	564,831
-36,213	21,921	957,087	563,964
-35,198	21,981	956,253	563,643
-34,184	22,121	955,514	563,637
-33,169	21,980	954,696	562,678
-32,154	22,054	953,709	562,311
-31,140	22,069	952,738	561,764
-30,125	22,057	952,199	561,386
-29,111	21,938	951,483	560,560
-28,096	22,031	950,670	560,356
-27,082	22,045	949,840	559,889
-26,067	22,086	949,056	559,536
-25,052	22,036	948,451	559,000
-24,038	21,996	947,846	558,491
-23,023	22,053	947,138	558,233
-22,009	22,105	946,331	557,902
-20,994	22,072	945,959	557,555
-19,979	22,076	945,323	557,170
-18,965	22,050	944,734	556,718
-17,950	22,060	944,071	556,339
-16,936	22,002	943,364	555,715
-15,921	21,975	942,682	555,204
-14,906	21,903	942,040	554,576
-13,892	21,892	941,284	554,074
-12,877	21,942	940,671	553,849
-11,863	21,905	940,007	553,321
-10,848	21,905	939,633	553,077
-9,833	22,050	939,016	553,153
-8,819	21,945	938,685	552,601
-7,804	21,921	937,823	551,997
-6,790	21,947	936,918	551,526
-5,775	21,913	936,493	551,144
-4,760	21,954	935,913	550,910
-3,746	21,872	935,571	550,429
-2,731	21,775	934,715	549,597
-1,717	21,724	933,865	548,914
-0,702	21,731	933,360	548,618
0,313	21,522	932,701	548,401
1,327	24,670	930,765	557,100
2,342	34,259	794,622	501,097
3,356	31,940	450,837	280,790
4,371	1,113	293,944	152,307
5,386	-3,440	274,933	138,133
6,400	-4,465	269,308	134,343
7,415	-5,055	267,115	132,693
8,429	-4,715	265,618	132,250
9,444	-4,639	264,801	131,900
10,459	-4,614	264,147	131,586
11,473	-4,771	263,595	131,156
12,488	-4,911	263,113	130,778
13,502	-4,967	262,551	130,436
14,517	-4,966	262,157	130,230
15,531	-5,064	261,733	129,919
16,546	-4,804	261,211	129,883
17,561	-4,700	260,875	129,797
18,575	-4,773	260,763	129,664
19,590	-4,998	260,387	129,264
20,604	-4,803	260,120	129,295
21,619	-4,954	259,650	128,914
22,634	-4,824	259,304	128,848
23,648	-4,961	259,153	128,639
24,663	-5,001	258,905	128,468
25,677	-5,077	258,694	128,284
26,692	-5,079	258,313	128,082
27,707	-4,996	258,026	128,002
28,721	-4,867	257,796	127,991
29,736	-4,744	257,383	127,884
30,750	-4,934	257,285	127,656
31,765	-5,087	257,085	127,410
32,780	-4,937	256,727	127,353
33,794	-4,939	256,618	127,286
34,809	-5,014	256,430	127,115
35,823	-5,080	256,236	126,950
36,838	-5,047	255,922	126,811
37,853	-5,053	255,735	126,702
38,867	-5,001	255,454	126,597
39,882	-5,145	255,318	126,392
40,896	-5,044	255,187	126,405
41,911	-4,984	254,855	126,282
42,926	-4,844	254,630	126,282
43,940	-4,842	254,203	126,060
44,955	-5,095	254,142	125,798
45,969	-5,318	253,970	125,507
46,984	-5,015	253,469	125,512
47,999	-5,483	253,383	125,050
49,013	-5,591	253,139	124,825
50,028	-5,558	252,823	124,686
51,042	-5,873	252,683	124,333
52,057	-5,805	252,353	124,218
53,071	-5,811	252,378	124,215
54,086	-5,522	251,976	124,256
55,101	-5,387	251,928	124,338
56,115	-5,312	251,783	124,320
57,130	-5,040	251,571	124,440
58,144	-4,721	251,529	124,683
59,159	-4,516	251,258	124,714
60,174	-4,818	251,090	124,359
61,188	-4,909	250,878	124,165
62,203	-5,006	250,809	124,036
63,217	-5,015	250,472	123,851
64,232	-4,859	250,301	123,890
65,247	-4,720	249,959	123,828
66,261	-4,869	249,769	123,595
67,276	-5,002	249,585	123,380
68,290	-5,321	249,249	122,929
69,305	-5,402	249,046	122,749
70,320	-5,127	248,688	122,796
71,334	-5,198	248,784	122,773
72,349	-4,907	248,557	122,898
73,363	-4,989	248,574	122,825
74,378	-4,757	248,113	122,783
75,393	-4,867	248,120	122,682
76,407	-4,772	247,763	122,576
77,422	-4,772	247,678	122,523
78,436	-4,735	247,359	122,386
79,451	-5,043	247,181	122,025
80,466	-5,098	246,971	121,865
81,480	-4,899	246,616	121,846
82,495	-5,139	246,563	121,607
83,509	-5,045	246,279	121,535
84,524	-5,008	246,175	121,504
85,539	-5,198	245,896	121,196
86,553	-5,313	245,766	121,024
87,568	-5,260	245,660	121,006
88,582	-5,139	245,418	120,977
89,597	-5,366	245,190	120,663
90,611	-5,180	245,053	120,741
91,626	-4,838	244,787	120,887
92,641	-4,880	244,687	120,791
93,655	-5,017	244,525	120,585
94,670	-4,962	244,269	120,494
95,684	-5,026	244,181	120,387
96,699	-4,951	243,992	120,346
97,714	-5,215	243,808	120,023
98,728	-5,124	243,501	119,938
99,743	-5,174	243,250	119,761
100,757	-5,321	243,202	119,605
101,772	-5,199	243,052	119,622
102,787	-5,349	242,770	119,349
103,801	-5,134	242,581	119,423
104,816	-5,163	242,584	119,389
105,830	-4,963	242,379	119,444
106,845	-4,871	242,184	119,414
107,860	-4,871	241,897	119,261
108,874	-5,044	241,805	119,063
109,889	-5,069	241,537	118,899
110,903	-5,049	241,394	118,834
111,918	-5,155	241,271	118,676
112,933	-5,201	241,165	118,575
113,947	-4,814	241,037	118,820
114,962	-4,960	240,738	118,542
115,976	-4,802	240,478	118,534
116,991	-5,078	240,416	118,266
118,006	-4,896	240,206	118,302
119,020	-4,825	240,068	118,281
120,035	-5,046	239,996	118,054
121,049	-4,930	239,824	118,054
122,064	-5,004	239,440	117,794
123,079	-4,934	239,292	117,768
124,093	-5,250	239,177	117,442
125,108	-5,276	238,971	117,309
126,122	-5,350	238,717	117,114
127,137	-5,442	238,639	116,991
128,151	-5,414	238,421	116,896
129,166	-5,178	238,195	116,967
130,181	-5,161	238,051	116,899
131,195	-5,345	237,863	116,647
132,210	-5,039	237,667	116,789
133,224	-5,158	237,618	116,658
134,239	-5,177	237,478	116,563
135,254	-4,995	237,360	116,642
136,268	-5,120	237,147	116,426
137,283	-5,326	236,809	116,084
138,297	-5,471	236,579	115,843
139,312	-5,326	236,401	115,863
140,327	-5,181	236,359	115,948
141,341	-4,679	236,306	116,317
142,356	-4,839	236,243	116,147
143,370	-4,655	235,989	116,159
144,385	-4,753	235,755	115,955
145,400	-4,825	235,810	115,914
146,414	-4,804	235,507	115,771
147,429	-4,714	235,254	115,709
148,443	-4,819	235,094	115,536
149,458	-4,824	234,930	115,440
150,473	-4,871	234,930	115,393
151,487	-4,700	234,670	115,392
152,502	-4,806	234,494	115,211
153,516	-4,647	234,345	115,254
154,531	-4,726	234,095	115,058
155,546	-4,717	233,943	114,980
156,560	-4,521	233,727	115,019
157,575	-4,896	233,595	114,645
158,589	-4,836	233,472	114,623
159,604	-4,615	233,245	114,676
160,619	-4,803	233,168	114,479
161,633	-4,574	232,952	114,544
162,648	-4,529	232,809	114,499
163,662	-4,601	232,763	114,410
164,677	-4,633	232,428	114,210
165,692	-4,755	232,454	114,116
166,706	-4,649	232,302	114,115
167,721	-4,414	232,037	114,160
168,735	-4,456	231,933	114,066
169,750	-4,652	231,809	113,840
170,764	-4,834	231,688	113,627
171,779	-4,786	231,467	113,546
172,794	-4,530	231,251	113,631
173,808	-4,660	231,169	113,478
174,823	-4,969	230,681	112,986
175,837	-5,237	230,579	112,717
176,852	-4,760	230,610	113,095
177,867	-4,744	230,413	113,001
178,881	-4,590	230,359	113,085
179,896	-4,592	230,196	112,993
180,910	-4,604	230,087	112,920
181,925	-4,632	229,912	112,803
182,940	-4,566	229,717	112,749
183,954	-4,591	229,652	112,687
184,969	-4,535	229,438	112,616
185,983	-4,556	229,449	112,595
186,998	-4,408	229,117	112,537
188,013	-4,358	228,797	112,409
189,027	-4,662	228,916	112,221
190,042	-4,463	228,626	112,223
191,056	-4,488	228,509	112,136
192,071	-4,475	228,377	112,072
193,086	-4,604	228,193	111,872
194,100	-4,585	228,010	111,786
195,115	-4,689	227,800	111,593
196,129	-5,270	227,500	110,988
197,144	-3,037	228,150	113,022
198,159	0,671	229,278	116,449
199,173	3,800	229,975	119,223
200,188	4,072	229,946	119,409
201,202	4,240	229,948	119,530
202,217	4,297	229,623	119,394
203,232	4,390	229,625	119,456
204,246	4,393	229,592	119,431
205,261	4,736	229,115	119,437
206,275	4,812	229,326	119,595
207,290	4,742	229,181	119,455
208,304	4,761	228,858	119,290
209,319	4,468	228,781	119,014
210,334	4,501	228,528	118,897
211,348	4,301	228,372	118,651
212,363	3,976	228,125	118,263
213,377	3,736	227,989	117,997
214,392	3,843	227,814	117,978
215,407	3,876	227,674	117,920
216,421	3,945	227,406	117,824
217,436	3,882	227,324	117,723
218,450	3,724	227,056	117,453
219,465	3,508	226,934	117,214
220,480	3,570	226,748	117,155
221,494	3,652	226,789	117,228
222,509	3,785	226,658	117,251
223,523	3,757	226,411	117,092
224,538	3,597	226,214	116,858
225,553	3,865	225,996	116,939
226,567	3,918	225,897	116,917
227,582	3,935	225,957	116,951
228,596	4,148	225,783	117,012
229,611	3,704	225,617	116,579
230,626	3,619	225,270	116,324
231,640	3,549	225,175	116,212
232,655	3,959	225,025	116,435
233,669	4,387	225,129	116,802
234,684	4,539	225,034	116,857
235,699	4,262	224,756	116,493
236,713	3,977	224,668	116,222
237,728	3,779	224,463	115,956
238,742	3,545	224,246	115,658
239,757	3,816	223,950	115,699
240,772	3,856	223,934	115,710
241,786	3,708	223,854	115,547
242,801	3,850	223,688	115,557
243,815	4,156	223,598	115,731
244,830	4,049	223,565	115,623
245,844	4,004	223,298	115,441
246,859	3,716	223,100	115,112
247,874	3,885	222,966	115,160
248,888	4,056	222,828	115,206
249,903	3,858	222,681	114,972
250,917	3,829	222,493	114,842
251,932	4,018	222,369	114,909
252,947	3,689	222,159	114,545
253,961	3,597	221,978	114,373
254,976	3,787	221,828	114,427
255,990	4,066	221,885	114,654
257,005	3,990	221,648	114,465
258,020	4,057	221,512	114,434
259,034	4,037	221,436	114,370
260,049	4,175	221,249	114,365
261,063	3,916	221,230	114,153
262,078	4,078	221,057	114,174
263,093	4,374	220,736	114,217
264,107	4,102	220,755	114,016
265,122	4,064	220,552	113,873
266,136	4,246	220,400	113,918
267,151	4,322	220,303	113,914
268,166	3,826	220,103	113,434
269,180	3,612	219,830	113,126
270,195	3,677	219,769	113,132
271,209	3,735	219,492	113,022
272,224	3,762	219,421	112,995
273,239	3,864	219,387	113,043
274,253	3,655	219,181	112,773
275,268	3,528	218,998	112,575
276,282	3,546	218,838	112,496
277,297	3,658	218,658	112,476
278,312	3,639	218,546	112,395
279,326	3,638	218,554	112,388
280,341	3,789	218,320	112,368
281,355	3,896	218,137	112,342
282,370	3,982	218,008	112,329
283,384	3,403	217,935	111,858
284,399	3,332	217,785	111,720
285,414	3,479	217,552	111,697
286,428	3,951	217,447	111,977
287,443	3,923	217,326	111,884
288,457	4,159	217,185	111,973
289,472	3,763	217,003	111,582
290,487	3,373	216,792	111,180
291,501	3,053	216,462	110,769
292,516	3,048	216,397	110,722
293,530	3,395	216,380	110,955
294,545	3,165	216,297	110,736
295,560	3,335	216,323	110,863
296,574	3,985	215,952	111,133
297,589	3,677	216,071	110,961
298,603	4,076	215,836	111,118
299,618	3,846	215,620	110,832
300,633	3,920	215,543	110,836
301,647	3,873	215,558	110,799
302,662	3,900	215,377	110,716
303,676	4,024	215,216	110,713
304,691	4,113	214,969	110,640
305,706	4,130	214,781	110,545
306,720	4,037	214,768	110,462
307,735	3,709	214,691	110,177
308,749	3,786	214,377	110,061
309,764	3,884	214,387	110,127
310,779	4,093	214,366	110,255
311,793	3,973	214,126	110,037
312,808	4,059	213,863	109,953
313,822	4,045	213,675	109,836
314,837	3,876	213,544	109,639
315,852	3,562	213,502	109,384
316,866	4,092	213,338	109,667
317,881	4,056	213,315	109,620
318,895	4,159	213,080	109,563
319,910	3,891	212,894	109,267
320,925	3,543	212,677	108,899
321,939	3,333	212,656	108,729
322,954	3,672	212,358	108,807
323,968	3,961	212,448	109,049
324,983	3,965	212,343	108,988
325,997	4,101	212,124	108,962
327,012	3,914	211,968	108,740
328,027	3,787	211,962	108,637
329,041	3,938	211,876	108,690
330,056	4,217	211,754	108,815
331,070	3,750	211,450	108,320
332,085	3,348	211,304	107,952
333,100	3,726	211,083	108,096
334,114	3,877	211,051	108,176
335,129	3,818	210,920	108,058
336,143	3,847	210,634	107,922
337,158	3,815	210,633	107,889
338,173	3,744	210,630	107,828
339,187	3,515	210,380	107,530
340,202	3,552	210,178	107,443
341,216	3,538	209,929	107,297
342,231	3,711	209,940	107,414
343,246	3,595	209,809	107,256
344,260	3,598	209,708	107,197
345,275	3,716	209,624	107,227
346,289	3,771	209,490	107,187
347,304	3,975	209,366	107,256
348,319	3,785	209,173	107,015
349,333	3,644	208,996	106,817
350,348	3,718	209,019	106,871
351,362	4,239	208,828	107,126
352,377	4,055	208,756	106,952
353,392	3,672	208,709	106,652
354,406	3,887	208,373	106,620
355,421	194,007	1344,641	1432,326
356,435	154,802	1483,178	1432,438
