DTS Sentinel unit serial number:	SN410029Multiplexer serial number:	ORYXHardware model number:	OX2-SRSoftware version number:	ORYX F/W v4,00 Oryx Data Collector v3.7.2.0data status	okinstallation	B6 Nyhavnadifferential loss correction	single-endedforward channel	channel 2reverse channel	N/Adate	2023/12/10time	14:35:08forward acquisition time	300,00reverse acquisition time	0,00gamma	499,1914k internal	0,3122k external	0,3122temperature offset calibration	1,0000default loss term (dB/km)	0,3820temperature slope calibration	1,0000multiplexer offset coefficient	1,0000multiplexer slope coefficient	1,0000fibre end	0,00T internal ref (°C)	22,61T ext. ref 1 (°C)	6,07T ext. ref 2 (°C)	6,08length (m)	temperature (°C)	Stokes	anti-Stokes-744,400	21,779	0,090	-0,054
-743,385	-67,323	-0,237	0,069
-742,371	570,456	0,058	-0,106
-741,356	37,009	-0,211	0,139
-740,342	80,503	0,118	-0,095
-739,327	-26,411	-0,200	0,087
-738,312	-200,000	0,007	-0,092
-737,298	-151,660	-0,344	0,019
-736,283	800,000	-0,039	-0,094
-735,269	76,291	-0,168	0,132
-734,254	-129,482	0,043	-0,004
-733,239	-34,155	-0,319	-0,130
-732,225	-200,000	0,000	0,031
-731,210	-135,752	0,064	-0,006
-730,196	-200,000	-0,015	-0,084
-729,181	-52,944	0,111	-0,038
-728,167	43,139	0,047	0,032
-727,152	-200,000	-0,008	-0,154
-726,137	-146,591	-0,067	0,004
-725,123	59,687	-0,107	0,079
-724,108	-200,000	0,006	-0,047
-723,094	-98,216	-0,021	-0,004
-722,079	800,000	-0,045	-0,115
-721,064	-58,099	-0,099	0,032
-720,050	-200,000	-0,003	-0,142
-719,035	374,316	-0,052	0,080
-718,021	-64,652	-0,116	0,035
-717,006	161,316	0,102	-0,107
-715,991	275,178	-0,043	-0,057
-714,977	93,959	-0,148	-0,125
-713,962	-45,147	-0,197	-0,072
-712,948	101,171	0,015	0,013
-711,933	-200,000	0,013	0,092
-710,918	84,789	-0,065	-0,053
-709,904	65,108	-0,072	-0,054
-708,889	-81,108	-0,080	-0,020
-707,875	-200,000	-0,016	-0,166
-706,860	137,056	-0,118	-0,115
-705,845	-200,000	0,019	0,081
-704,831	-4,068	-0,086	-0,044
-703,816	420,340	0,039	-0,063
-702,802	800,000	-0,026	0,080
-701,787	331,751	-0,013	-0,019
-700,772	-143,771	0,062	-0,004
-699,758	-70,694	-0,082	-0,023
-698,743	580,249	0,066	0,120
-697,729	-200,000	-0,006	0,067
-696,714	95,332	-0,122	-0,104
-695,699	-48,838	0,143	-0,051
-694,685	6,828	-0,110	-0,061
-693,670	733,885	-0,025	-0,049
-692,656	-190,966	0,081	-0,001
-691,641	-80,431	0,125	0,031
-690,627	188,463	0,054	-0,060
-689,612	-12,482	0,104	0,050
-688,597	60,622	-0,104	-0,077
-687,583	139,075	0,044	-0,043
-686,568	216,395	-0,047	-0,056
-685,554	-107,365	0,048	0,008
-684,539	84,691	0,047	0,038
-683,524	-200,000	-0,050	0,213
-682,510	800,000	0,029	-0,071
-681,495	800,000	-0,032	-0,099
-680,481	-27,766	-0,087	-0,037
-679,466	273,320	-0,061	-0,080
-678,451	665,997	0,024	0,046
-677,437	-200,000	0,027	0,105
-676,422	199,645	0,053	0,061
-675,408	-81,261	-0,081	0,020
-674,393	589,252	0,009	-0,016
-673,378	33,624	-0,030	0,020
-672,364	170,614	-0,081	0,087
-671,349	197,205	-0,120	-0,137
-670,335	329,908	-0,035	-0,050
-669,320	121,455	0,057	-0,053
-668,305	-134,371	0,038	-0,003
-667,291	4,608	-0,104	-0,056
-666,276	-15,202	-0,127	0,060
-665,262	116,253	-0,050	-0,046
-664,247	63,384	0,073	-0,055
-663,232	-200,000	-0,019	0,108
-662,218	175,195	0,032	0,034
-661,203	-200,000	0,020	0,129
-660,189	-200,000	0,002	0,053
-659,174	-200,000	-0,002	-0,025
-658,159	-200,000	0,007	-0,085
-657,145	-55,397	0,158	0,052
-656,130	800,000	-0,006	-0,013
-655,116	775,591	0,049	-0,099
-654,101	-87,271	0,093	-0,021
-653,086	289,285	0,021	0,028
-652,072	-200,000	0,009	-0,177
-651,057	740,119	-0,082	-0,164
-650,043	38,841	0,041	0,027
-649,028	2,955	0,067	-0,036
-648,014	128,885	0,075	0,071
-646,999	255,056	0,051	0,064
-645,984	33,227	-0,032	0,021
-644,970	334,913	-0,043	-0,062
-643,955	-185,143	-0,007	0,000
-642,941	-200,000	-0,173	-0,000
-641,926	-101,001	0,082	-0,015
-640,911	-33,908	-0,080	-0,032
-639,897	-108,616	0,055	-0,009
-638,882	-73,569	0,121	-0,033
-637,868	158,099	0,063	0,065
-636,853	237,286	-0,104	-0,129
-635,838	90,809	-0,080	-0,067
-634,824	-94,829	0,037	0,007
-633,809	-200,000	-0,012	-0,042
-632,795	-69,457	0,049	0,014
-631,780	-200,000	-0,007	-0,036
-630,765	-127,407	-0,112	0,012
-629,751	164,907	-0,153	-0,160
-628,736	158,537	-0,029	-0,030
-627,722	256,989	-0,030	-0,038
-626,707	800,000	-0,030	-0,089
-625,692	69,598	-0,033	-0,025
-624,678	647,003	0,056	0,107
-623,663	93,477	-0,036	0,030
-622,649	-71,397	0,111	0,031
-621,634	800,000	-0,011	0,026
-620,619	800,000	-0,017	0,055
-619,605	98,936	-0,071	-0,061
-618,590	-200,000	-0,013	0,068
-617,576	126,442	-0,122	0,114
-616,561	-129,865	0,075	-0,007
-615,546	85,371	0,066	0,053
-614,532	-57,472	-0,048	-0,016
-613,517	14,024	-0,087	-0,050
-612,503	268,584	-0,018	-0,023
-611,488	86,457	0,120	-0,098
-610,474	-200,000	0,015	0,094
-609,459	401,614	0,043	0,067
-608,444	-12,230	-0,043	-0,021
-607,430	172,715	0,048	0,052
-606,415	15,279	-0,098	0,057
-605,401	800,000	0,042	0,121
-604,386	73,803	0,054	0,042
-603,371	3,568	0,098	0,053
-602,357	-70,874	-0,114	-0,032
-601,342	92,456	0,065	-0,054
-600,328	88,598	-0,081	0,067
-599,313	-128,658	-0,083	-0,009
-598,298	-14,910	0,089	-0,042
-597,284	800,000	0,057	0,147
-596,269	-51,931	-0,038	0,013
-595,255	-88,365	-0,126	-0,028
-594,240	-74,029	-0,120	-0,032
-593,225	230,503	-0,054	-0,065
-592,211	152,704	-0,090	-0,092
-591,196	800,000	-0,038	0,117
-590,182	34,999	-0,076	0,049
-589,167	18,810	0,165	0,098
-588,152	-51,608	0,123	0,042
-587,138	-200,000	-0,012	0,103
-586,123	-33,194	0,022	-0,009
-585,109	-142,354	0,023	0,002
-584,094	358,814	-0,046	0,069
-583,079	-200,000	0,001	-0,107
-582,065	445,315	-0,018	0,030
-581,050	13,765	0,103	0,059
-580,036	-115,553	-0,004	-0,001
-579,021	17,319	0,116	-0,068
-578,006	800,000	0,033	-0,083
-576,992	-42,719	-0,038	0,014
-575,977	-200,000	0,010	-0,069
-574,963	-200,000	-0,001	0,039
-573,948	-200,000	0,005	-0,051
-572,934	-200,000	0,014	0,090
-571,919	-200,000	-0,011	-0,146
-570,904	-111,077	-0,007	-0,001
-569,890	-48,878	-0,162	-0,057
-568,875	-158,877	0,027	0,001
-567,861	177,588	0,038	-0,041
-566,846	-200,000	0,014	-0,090
-565,831	376,949	0,062	-0,094
-564,817	-33,662	-0,111	0,045
-563,802	-200,000	0,022	-0,193
-562,788	-200,000	-0,012	-0,087
-561,773	463,133	0,016	0,027
-560,758	-27,144	0,052	0,022
-559,744	43,136	-0,110	0,074
-558,729	103,909	0,046	0,040
-557,715	-86,312	-0,104	-0,023
-556,700	90,016	0,012	0,010
-555,685	-200,000	0,030	-0,103
-554,671	-99,048	-0,114	-0,021
-553,656	800,000	-0,018	-0,042
-552,642	-200,000	-0,017	0,116
-551,627	-200,000	-0,014	-0,047
-550,612	3,631	0,103	-0,055
-549,598	103,725	-0,047	-0,041
-548,583	-200,000	0,000	-0,145
-547,569	73,815	0,047	0,036
-546,554	70,544	-0,095	-0,073
-545,539	555,360	0,019	-0,034
-544,525	-40,138	0,021	-0,008
-543,510	702,515	-0,033	-0,064
-542,496	-140,601	-0,097	-0,007
-541,481	-60,007	-0,115	-0,036
-540,466	212,564	0,033	0,038
-539,452	123,936	-0,056	-0,052
-538,437	449,943	0,084	-0,138
-537,423	-20,329	0,081	0,037
-536,408	800,000	-0,023	0,070
-535,393	789,266	0,027	-0,055
-534,379	505,211	-0,043	-0,074
-533,364	-200,000	0,009	-0,035
-532,350	-200,000	0,017	0,091
-531,335	249,193	-0,045	0,057
-530,321	202,982	-0,144	0,165
-529,306	168,295	-0,112	0,118
-528,291	268,373	-0,074	0,097
-527,277	-75,170	0,027	0,007
-526,262	-200,000	-0,012	0,102
-525,248	35,498	0,069	0,045
-524,233	260,713	-0,041	-0,053
-523,218	-84,544	0,098	0,023
-522,204	604,646	-0,031	-0,057
-521,189	-32,789	-0,126	-0,052
-520,175	-195,772	-0,120	-0,001
-519,160	294,483	0,053	-0,072
-518,145	-33,809	-0,097	0,039
-517,131	-200,000	0,005	0,065
-516,116	-200,000	-0,008	-0,068
-515,102	800,000	-0,051	0,105
-514,087	-97,038	0,060	-0,011
-513,072	-200,000	0,002	-0,156
-512,058	328,238	-0,031	-0,044
-511,043	591,950	-0,018	0,033
-510,029	800,000	-0,015	0,032
-509,014	321,338	0,071	0,100
-507,999	168,335	0,025	-0,026
-506,985	800,000	0,018	-0,046
-505,970	134,749	-0,130	-0,125
-504,956	-200,000	-0,028	-0,103
-503,941	-72,406	0,179	-0,049
-502,926	-92,435	0,065	-0,013
-501,912	19,917	0,087	0,052
-500,897	-52,399	-0,060	0,020
-499,883	-60,811	-0,116	0,036
-498,868	267,821	0,096	-0,125
-497,853	800,000	-0,046	-0,117
-496,839	525,350	0,053	-0,093
-495,824	-55,467	0,114	-0,038
-494,810	413,335	0,047	0,074
-493,795	-130,795	-0,126	-0,012
-492,781	300,567	-0,064	-0,088
-491,766	-200,000	-0,084	0,000
-490,751	159,638	-0,063	0,064
-489,737	-200,000	0,018	0,060
-488,722	-200,000	0,001	0,094
-487,708	-67,967	0,183	-0,052
-486,693	800,000	0,055	0,129
-485,678	587,515	-0,036	0,065
-484,664	9,704	0,032	0,018
-483,649	51,238	-0,151	-0,106
-482,635	304,231	0,050	-0,069
-481,620	-167,357	0,034	0,001
-480,605	36,507	0,057	0,037
-479,591	-55,998	0,084	0,027
-478,576	81,750	-0,090	-0,072
-477,562	-200,000	0,006	-0,064
-476,547	179,221	-0,094	-0,102
-475,532	237,150	-0,052	-0,064
-474,518	-54,590	0,054	0,018
-473,503	115,639	0,136	0,123
-472,489	-123,510	0,097	0,011
-471,474	-44,468	-0,159	-0,058
-470,459	-45,317	-0,037	-0,014
-469,445	213,010	0,099	0,116
-468,430	800,000	-0,093	-0,222
-467,416	71,471	0,135	-0,103
-466,401	224,105	-0,036	0,043
-465,386	-200,000	0,004	0,113
-464,372	-200,000	0,016	0,072
-463,357	60,355	-0,110	-0,080
-462,343	-200,000	-0,008	0,034
-461,328	753,780	-0,022	-0,043
-460,313	-200,000	0,002	-0,108
-459,299	665,485	0,078	0,149
-458,284	1,176	-0,098	0,052
-457,270	-102,400	-0,046	0,008
-456,255	118,751	-0,128	-0,117
-455,241	9,097	0,034	-0,019
-454,226	-200,000	0,006	-0,076
-453,211	-28,561	0,050	-0,021
-452,197	-200,000	0,003	0,088
-451,182	386,384	0,043	0,065
-450,168	-111,498	-0,099	-0,015
-449,153	800,000	-0,049	0,108
-448,138	54,196	0,048	-0,034
-447,124	-81,040	0,096	0,023
-446,109	-97,395	0,091	0,017
-445,095	112,074	0,085	-0,075
-444,080	800,000	0,026	0,070
-443,065	670,238	0,024	-0,045
-442,051	800,000	-0,052	0,110
-441,036	-86,936	-0,055	-0,012
-440,022	-200,000	0,026	-0,121
-439,007	-133,498	0,117	-0,011
-437,992	-74,056	0,081	0,022
-436,978	587,091	-0,015	-0,027
-435,963	231,537	0,079	0,096
-434,949	378,909	-0,104	0,158
-433,934	-49,389	0,056	-0,020
-432,919	78,896	-0,049	-0,039
-431,905	437,735	0,035	0,057
-430,890	-146,325	-0,169	0,011
-429,876	-200,000	-0,009	0,111
-428,861	-200,000	-0,023	0,152
-427,846	-55,772	-0,199	-0,065
-426,832	-97,273	-0,105	0,020
-425,817	-200,000	-0,025	-0,127
-424,803	-62,963	0,074	-0,022
-423,788	-173,869	0,129	-0,003
-422,773	800,000	0,022	0,064
-421,759	800,000	-0,068	0,150
-420,744	-102,091	0,096	-0,017
-419,730	-2,775	-0,038	0,020
-418,715	-200,000	-0,040	-0,174
-417,701	341,846	-0,088	-0,128
-416,686	-42,603	0,097	0,036
-415,671	-43,744	0,033	0,012
-414,657	-200,000	0,009	0,127
-413,642	-200,000	0,010	0,089
-412,628	-200,000	0,021	0,115
-411,613	-7,641	-0,055	-0,027
-410,598	306,038	0,097	-0,134
-409,584	247,569	0,057	0,071
-408,569	-91,176	-0,028	0,006
-407,555	-200,000	-0,034	0,144
-406,540	-15,769	0,079	-0,037
-405,525	76,804	0,153	0,119
-404,511	-146,343	0,062	0,004
-403,496	29,322	-0,043	-0,027
-402,482	171,833	0,067	-0,071
-401,467	-30,878	-0,040	-0,017
-400,452	226,013	0,100	0,120
-399,438	-200,000	0,011	0,104
-398,423	77,047	-0,125	0,098
-397,409	-116,034	0,093	0,013
-396,394	126,168	-0,070	-0,065
-395,379	-147,238	0,085	0,005
-394,365	317,124	0,101	-0,141
-393,350	414,263	0,118	0,185
-392,336	720,574	-0,035	-0,070
-391,321	9,392	0,084	0,047
-390,306	-81,764	-0,108	0,026
-389,292	800,000	0,022	0,062
-388,277	159,848	-0,078	-0,080
-387,263	-169,170	0,127	-0,003
-386,248	-200,000	0,021	0,083
-385,233	217,536	-0,021	-0,024
-384,219	-25,438	-0,112	-0,048
-383,204	-9,527	0,047	0,023
-382,190	-115,888	-0,169	0,023
-381,175	624,798	-0,025	-0,047
-380,160	158,637	0,054	0,056
-379,146	-200,000	0,011	-0,125
-378,131	246,033	-0,085	0,106
-377,117	282,248	0,113	0,149
-376,102	527,980	-0,066	-0,115
-375,088	-125,110	-0,059	-0,007
-374,073	-200,000	-0,012	-0,134
-373,058	232,635	-0,048	-0,058
-372,044	110,523	0,058	0,052
-371,029	-89,819	-0,035	0,007
-370,015	386,986	0,033	-0,050
-369,000	-200,000	-0,012	-0,039
-367,985	88,239	0,088	-0,072
-366,971	-44,014	-0,030	0,011
-365,956	-9,017	0,066	-0,032
-364,942	-32,109	0,108	-0,044
-363,927	-200,000	0,007	0,113
-362,912	800,000	0,024	0,065
-361,898	329,248	-0,056	0,080
-360,883	-200,000	-0,004	-0,047
-359,869	-113,393	0,018	0,003
-358,854	-200,000	0,020	0,086
-357,839	800,000	-0,034	0,072
-356,825	-200,000	0,012	-0,055
-355,810	-119,877	0,088	-0,011
-354,796	-142,653	0,075	-0,005
-353,781	-88,138	-0,132	-0,029
-352,766	133,558	-0,016	0,015
-351,752	-106,316	0,067	0,011
-350,737	212,256	-0,070	0,081
-349,723	-109,727	0,083	0,013
-348,708	96,531	0,012	0,010
-347,693	-178,713	-0,051	-0,001
-346,679	445,515	-0,054	0,087
-345,664	598,257	-0,043	0,078
-344,650	127,207	-0,094	-0,088
-343,635	800,000	0,053	0,117
-342,620	-69,931	-0,108	0,030
-341,606	11,496	-0,081	0,046
-340,591	-200,000	0,002	0,068
-339,577	-79,849	-0,104	0,026
-338,562	79,600	-0,061	-0,048
-337,548	-165,990	-0,090	-0,003
-336,533	190,571	0,110	0,122
-335,518	-148,257	0,041	-0,002
-334,504	-200,000	-0,019	0,065
-333,489	62,020	0,087	-0,064
-332,475	23,884	-0,112	0,068
-331,460	129,772	0,082	-0,077
-330,445	-60,416	-0,033	0,010
-329,431	-200,000	-0,014	-0,048
-328,416	-130,560	0,168	-0,016
-327,402	-200,000	-0,019	0,095
-326,387	-4,018	0,033	0,017
-325,372	386,976	-0,010	0,015
-324,358	800,000	-0,007	0,016
-323,343	-63,524	-0,078	-0,023
-322,329	166,820	0,069	0,072
-321,314	800,000	0,029	0,069
-320,299	800,000	-0,067	0,192
-319,285	-65,198	0,078	-0,023
-318,270	-146,349	-0,079	-0,005
-317,256	-200,000	-0,027	-0,135
-316,241	-0,168	-0,101	-0,053
-315,226	-186,084	0,127	0,001
-314,212	-200,000	-0,023	-0,142
-313,197	-4,820	0,042	-0,021
-312,183	349,641	-0,055	0,080
-311,168	-25,247	-0,138	-0,060
-310,153	276,628	-0,060	0,078
-309,139	-94,088	0,026	-0,005
-308,124	-200,000	0,007	-0,141
-307,110	594,936	0,059	-0,107
-306,095	-51,045	0,088	-0,030
-305,080	-18,136	0,174	0,080
-304,066	-86,464	-0,102	0,023
-303,051	29,477	-0,132	-0,082
-302,037	-200,000	0,017	-0,113
-301,022	330,546	0,012	0,017
-300,008	57,159	0,018	-0,013
-298,993	120,834	-0,060	-0,054
-297,978	-30,152	-0,068	0,028
-296,964	24,744	0,039	0,024
-295,949	159,935	0,098	0,100
-294,935	-33,000	-0,121	-0,049
-293,920	-118,607	0,219	-0,028
-292,905	118,121	0,118	0,107
-291,891	74,335	0,040	0,031
-290,876	800,000	0,023	0,050
-289,862	44,113	-0,146	-0,098
-288,847	-200,000	0,001	-0,034
-287,832	36,130	-0,059	0,038
-286,818	-67,037	0,178	0,051
-285,803	-118,063	0,157	0,020
-284,789	45,741	-0,081	0,055
-283,774	56,500	0,054	-0,038
-282,759	-107,838	-0,022	0,003
-281,745	800,000	0,056	-0,122
-280,730	-200,000	0,014	-0,150
-279,716	51,272	-0,019	-0,013
-278,701	-85,143	0,133	0,030
-277,686	-200,000	-0,010	0,063
-276,672	17,951	0,009	-0,005
-275,657	-100,546	-0,047	0,008
-274,643	-127,399	-0,106	-0,011
-273,628	800,000	0,033	0,075
-272,613	-65,005	0,052	-0,015
-271,599	-160,788	0,044	0,002
-270,584	21,386	-0,077	-0,046
-269,570	81,511	0,050	0,040
-268,555	-36,929	0,060	-0,024
-267,540	254,579	-0,057	-0,072
-266,526	-45,753	-0,111	-0,040
-265,511	-200,000	0,012	-0,122
-264,497	471,403	0,018	-0,030
-263,482	70,876	0,134	0,101
-262,467	17,528	-0,049	0,029
-261,453	189,143	0,092	0,100
-260,438	-117,445	-0,020	0,003
-259,424	-200,000	0,037	-0,129
-258,409	-90,475	-0,098	0,021
-257,395	-200,000	-0,002	0,036
-256,380	46,736	0,007	-0,005
-255,365	656,992	0,076	0,144
-254,351	800,000	-0,015	0,034
-253,336	-125,302	0,087	0,010
-252,322	-97,420	-0,047	-0,009
-251,307	175,085	-0,023	0,024
-250,292	-172,335	0,188	-0,004
-249,278	-200,000	0,013	0,044
-248,263	261,419	0,065	0,082
-247,249	-12,752	-0,105	0,050
-246,234	40,682	-0,060	0,039
-245,219	298,702	0,030	-0,041
-244,205	-86,807	0,044	0,010
-243,190	426,443	0,032	-0,051
-242,176	800,000	-0,050	0,102
-241,161	800,000	-0,012	-0,038
-240,146	-23,483	-0,092	-0,040
-239,132	-12,841	-0,043	-0,020
-238,117	800,000	0,013	-0,030
-237,103	-200,000	-0,004	-0,123
-236,088	-32,758	0,152	0,062
-235,073	226,518	0,066	0,078
-234,059	-37,369	0,049	-0,019
-233,044	716,436	0,022	0,043
-232,030	-200,000	-0,002	-0,087
-231,015	-200,000	-0,015	-0,206
-230,000	-53,817	-0,144	0,048
-228,986	192,621	-0,077	-0,085
-227,971	200,459	-0,058	-0,065
-226,957	274,444	0,085	0,110
-225,942	619,878	0,047	0,087
-224,927	108,012	-0,061	0,053
-223,913	112,148	0,071	-0,063
-222,898	-56,767	-0,124	-0,040
-221,884	120,009	-0,052	-0,047
-220,869	800,000	-0,036	-0,076
-219,855	5,680	-0,032	0,017
-218,840	139,010	0,029	-0,028
-217,825	-200,000	0,002	0,016
-216,811	-200,000	0,033	-0,119
-215,796	-200,000	-0,037	-0,195
-214,782	-200,000	-0,017	0,071
-213,767	796,251	-0,032	-0,065
-212,752	-200,000	-0,001	0,015
-211,738	-200,000	-0,004	-0,015
-210,723	361,133	-0,035	0,051
-209,709	-200,000	0,020	0,067
-208,694	76,611	-0,064	-0,050
-207,679	-200,000	-0,005	-0,066
-206,665	-200,000	0,006	0,052
-205,650	258,258	0,107	0,134
-204,636	374,878	0,012	0,018
-203,621	800,000	-0,005	0,012
-202,606	13,889	0,080	-0,045
-201,592	6,316	-0,067	-0,036
-200,577	-200,000	-0,000	0,107
-199,563	141,968	-0,096	0,093
-198,548	333,091	0,044	-0,062
-197,533	84,016	0,046	0,037
-196,519	-200,000	0,023	0,100
-195,504	63,624	0,051	-0,038
-194,490	455,986	-0,028	-0,046
-193,475	-200,000	-0,006	-0,089
-192,460	-136,377	0,052	0,004
-191,446	143,700	-0,069	0,067
-190,431	-37,629	0,137	0,053
-189,417	800,000	-0,026	0,061
-188,402	-200,000	0,028	-0,101
-187,387	-163,057	-0,033	-0,001
-186,373	-49,381	-0,059	0,020
-185,358	-101,668	-0,086	0,015
-184,344	30,765	0,133	-0,083
-183,329	-200,000	0,013	0,050
-182,315	-153,571	-0,041	0,002
-181,300	183,608	0,088	-0,095
-180,285	-200,000	-0,016	-0,162
-179,271	-125,950	0,041	-0,004
-178,256	800,000	-0,024	-0,074
-177,242	-118,140	0,056	0,007
-176,227	-200,000	-0,005	-0,039
-175,212	60,110	0,045	-0,033
-174,198	-200,000	-0,003	0,052
-173,183	-200,000	0,003	-0,073
-172,169	67,212	-0,110	-0,082
-171,154	94,288	-0,083	-0,068
-170,139	-200,000	0,005	0,066
-169,125	11,931	0,147	-0,082
-168,110	515,000	-0,068	-0,116
-167,096	-21,198	0,022	0,010
-166,081	800,000	0,043	0,120
-165,066	211,958	-0,076	0,087
-164,052	-8,345	0,096	-0,047
-163,037	-145,908	-0,074	-0,005
-162,023	-200,000	0,033	0,131
-161,008	405,846	0,042	0,065
-159,993	136,486	-0,110	0,104
-158,979	-200,000	0,003	-0,143
-157,964	669,830	0,051	-0,097
-156,950	132,844	-0,066	-0,062
-155,935	-200,000	-0,008	0,091
-154,920	-32,970	0,071	0,029
-153,906	-200,000	-0,030	0,181
-152,891	-52,638	0,175	0,058
-151,877	800,000	0,028	0,088
-150,862	800,000	0,028	-0,070
-149,847	800,000	0,045	-0,091
-148,833	-200,000	-0,009	-0,085
-147,818	-200,000	0,006	-0,123
-146,804	-200,000	0,033	0,122
-145,789	-85,620	0,079	-0,018
-144,775	-36,507	0,071	-0,028
-143,760	209,472	0,023	-0,026
-142,745	147,298	-0,079	-0,078
-141,731	406,186	0,075	-0,116
-140,716	102,179	-0,045	0,038
-139,702	-28,674	0,113	-0,047
-138,687	189,398	0,029	-0,032
-137,672	494,416	0,051	-0,086
-136,658	143,797	-0,104	-0,101
-135,643	-41,139	-0,037	-0,014
-134,629	224,726	0,121	0,142
-133,614	127,572	-0,104	0,096
-132,599	67,632	-0,033	0,024
-131,585	62,572	0,091	0,066
-130,570	-49,324	-0,080	0,028
-129,556	800,000	0,055	0,121
-128,541	243,458	-0,125	-0,153
-127,526	-200,000	0,000	-0,036
-126,512	-200,000	-0,020	-0,083
-125,497	181,975	0,042	0,045
-124,483	-76,449	-0,143	-0,036
-123,468	-200,000	0,005	-0,070
-122,453	17,025	0,074	-0,043
-121,439	-168,163	-0,044	-0,001
-120,424	-162,425	-0,065	0,002
-119,410	-200,000	0,008	0,062
-118,395	-200,000	0,038	0,170
-117,380	-200,000	-0,033	0,137
-116,366	800,000	-0,045	0,098
-115,351	-200,000	0,030	0,111
-114,337	-16,112	-0,147	-0,068
-113,322	-200,000	-0,002	-0,125
-112,307	-200,000	0,005	-0,051
-111,293	100,041	-0,042	0,036
-110,278	-200,000	-0,007	0,076
-109,264	410,896	-0,047	0,073
-108,249	-89,733	-0,140	0,030
-107,234	22,014	0,191	-0,113
-106,220	-83,861	-0,196	-0,045
-105,205	-102,181	0,073	0,013
-104,191	679,976	0,072	-0,136
-103,176	-106,060	0,087	0,014
-102,162	-121,954	-0,128	-0,015
-101,147	169,588	0,074	-0,077
-100,132	800,000	-0,051	-0,147
-99,118	689,628	0,042	0,080
-98,103	-200,000	-0,002	-0,106
-97,089	-95,355	0,068	0,013
-96,074	-144,179	0,033	-0,002
-95,059	-200,000	0,004	0,102
-94,045	71,354	-0,054	0,041
-93,030	443,615	0,048	0,077
-92,016	800,000	0,023	-0,051
-91,001	-200,000	0,005	-0,032
-89,986	-200,000	-0,004	-0,097
-88,972	-41,065	0,036	0,013
-87,957	649,047	-0,039	-0,072
-86,943	-111,987	0,070	0,010
-85,928	-200,000	0,016	-0,091
-84,913	512,430	-0,037	-0,063
-83,899	-123,472	0,050	0,006
-82,884	-200,000	0,007	0,105
-81,870	-100,001	-0,019	-0,003
-80,855	-37,926	-0,070	-0,027
-79,840	17,735	0,092	-0,053
-78,826	45,730	0,132	0,089
-77,811	800,000	0,040	0,099
-76,797	463,012	0,042	0,069
-75,782	800,000	0,035	-0,084
-74,767	83,095	-0,036	0,029
-73,753	68,855	-0,111	-0,083
-72,738	163,182	-0,102	-0,104
-71,724	205,942	0,064	-0,072
-70,709	-126,356	-0,054	-0,006
-69,694	623,998	-0,009	0,016
-68,680	548,745	0,014	-0,024
-67,665	456,744	-0,020	0,032
-66,651	-33,207	-0,047	-0,019
-65,636	76,415	0,027	0,021
-64,622	800,000	0,050	-0,124
-63,607	-22,502	-0,169	-0,074
-62,592	23,293	0,084	0,050
-61,578	-68,636	0,082	0,023
-60,563	661,525	-0,026	0,049
-59,549	800,000	-0,016	0,037
-58,534	-151,864	-1,393	-0,073
-57,519	592,702	-0,799	-1,439
-56,505	-200,000	-0,957	-4,399
-55,490	53,419	0,632	-0,439
-54,476	800,000	4,976	11,718
-53,461	-200,000	13,442	253,727
-52,446	-200,000	688,924	2269,790
-51,432	596,454	1622,534	2928,557
-50,417	120,625	1635,932	1475,550
-49,403	73,742	1289,842	980,164
-48,388	38,394	1024,659	661,325
-47,373	24,552	982,342	588,473
-46,359	23,687	972,135	579,495
-45,344	22,780	967,996	574,041
-44,330	22,711	966,435	572,866
-43,315	22,669	964,984	571,846
-42,300	22,632	963,860	571,037
-41,286	22,622	963,082	570,519
-40,271	22,573	962,182	569,804
-39,257	22,638	961,053	569,326
-38,242	22,613	960,232	568,736
-37,227	22,631	959,252	568,190
-36,213	22,591	958,391	567,527
-35,198	22,567	957,689	567,014
-34,184	22,669	957,015	566,920
-33,169	22,582	956,191	566,128
-32,154	22,648	955,178	565,720
-31,140	22,619	954,313	565,092
-30,125	22,657	953,488	564,704
-29,111	22,658	952,838	564,298
-28,096	22,670	951,909	563,764
-27,082	22,647	951,314	563,315
-26,067	22,668	950,489	562,871
-25,052	22,674	949,788	562,455
-24,038	22,661	949,177	562,029
-23,023	22,636	948,580	561,575
-22,009	22,673	947,919	561,278
-20,994	22,716	947,160	560,944
-19,979	22,710	946,648	560,600
-18,965	22,686	945,988	560,109
-17,950	22,635	945,391	559,571
-16,936	22,610	944,618	559,010
-15,921	22,598	944,080	558,633
-14,906	22,518	943,244	557,861
-13,892	22,520	942,697	557,521
-12,877	22,490	942,118	557,063
-11,863	22,447	941,515	556,547
-10,848	22,490	940,869	556,280
-9,833	22,637	940,509	556,511
-8,819	22,598	939,757	555,919
-7,804	22,544	939,131	555,356
-6,790	22,521	938,631	554,966
-5,775	22,554	937,894	554,612
-4,760	22,485	937,412	554,088
-3,746	22,482	936,911	553,758
-2,731	22,391	936,090	552,965
-1,717	22,379	935,332	552,456
-0,702	22,332	934,671	551,897
0,313	22,146	934,119	551,817
1,327	25,265	931,798	560,207
2,342	34,814	796,630	504,395
3,356	32,714	451,964	282,974
4,371	1,594	294,088	153,037
5,386	-2,755	274,790	138,864
6,400	-4,410	269,095	134,437
7,415	-4,801	266,517	132,777
8,429	-4,581	265,367	132,394
9,444	-4,406	264,512	132,115
10,459	-4,462	263,962	131,778
11,473	-4,637	263,243	131,248
12,488	-4,706	262,909	131,008
13,502	-4,826	262,070	130,470
14,517	-4,696	261,728	130,405
15,531	-4,630	261,485	130,331
16,546	-4,426	261,180	130,352
17,561	-4,307	260,778	130,246
18,575	-4,349	260,380	129,998
19,590	-4,505	260,008	129,661
20,604	-4,440	259,897	129,652
21,619	-4,678	259,545	129,252
22,634	-4,589	259,240	129,168
23,648	-4,735	258,932	128,873
24,663	-4,410	258,547	128,960
25,677	-4,587	258,484	128,759
26,692	-4,724	258,242	128,505
27,707	-4,469	257,936	128,568
28,721	-4,690	257,535	128,161
29,736	-4,714	257,458	128,089
30,750	-4,560	257,096	128,035
31,765	-4,508	256,848	127,946
32,780	-4,526	256,553	127,771
33,794	-4,649	256,476	127,613
34,809	-4,597	256,155	127,487
35,823	-4,442	256,068	127,570
36,838	-4,675	255,686	127,163
37,853	-4,602	255,445	127,096
38,867	-4,721	255,243	126,879
39,882	-4,572	255,007	126,882
40,896	-4,598	254,804	126,746
41,911	-4,479	254,629	126,753
42,926	-4,622	254,378	126,491
43,940	-4,627	254,172	126,373
44,955	-4,677	253,966	126,216
45,969	-4,688	253,589	126,007
46,984	-5,153	253,485	125,538
47,999	-5,138	253,180	125,390
49,013	-5,319	252,973	125,118
50,028	-5,293	252,712	125,000
51,042	-5,441	252,429	124,721
52,057	-5,559	252,249	124,519
53,071	-5,453	252,068	124,510
54,086	-5,433	251,921	124,443
55,101	-5,526	251,815	124,299
56,115	-5,151	251,650	124,532
57,130	-4,719	251,573	124,856
58,144	-4,511	251,157	124,818
59,159	-4,558	251,176	124,776
60,174	-4,466	250,781	124,647
61,188	-4,395	250,694	124,654
62,203	-4,570	250,362	124,328
63,217	-4,458	250,161	124,313
64,232	-4,434	250,042	124,263
65,247	-4,309	249,746	124,213
66,261	-4,465	249,731	124,061
67,276	-4,813	249,355	123,565
68,290	-4,846	249,067	123,382
69,305	-5,227	249,006	123,015
70,320	-5,009	248,639	123,009
71,334	-4,717	248,633	123,245
72,349	-4,591	248,478	123,265
73,363	-4,514	248,403	123,282
74,378	-4,544	247,988	123,039
75,393	-4,568	247,798	122,914
76,407	-4,635	247,657	122,775
77,422	-4,730	247,578	122,645
78,436	-4,509	247,236	122,652
79,451	-4,545	247,052	122,519
80,466	-4,549	246,649	122,305
81,480	-4,679	246,564	122,142
82,495	-4,865	246,422	121,903
83,509	-4,818	246,250	121,847
84,524	-4,700	245,937	121,781
85,539	-4,739	245,816	121,677
86,553	-4,750	245,573	121,537
87,568	-4,610	245,316	121,517
88,582	-4,885	245,255	121,244
89,597	-4,751	245,105	121,272
90,611	-4,733	244,913	121,181
91,626	-4,490	244,722	121,280
92,641	-4,554	244,574	121,142
93,655	-4,633	244,355	120,957
94,670	-4,715	244,232	120,817
95,684	-4,706	243,897	120,648
96,699	-4,646	243,884	120,680
97,714	-4,907	243,671	120,347
98,728	-4,738	243,376	120,331
99,743	-5,007	243,129	119,974
100,757	-4,986	243,007	119,921
101,772	-5,014	242,743	119,756
102,787	-5,072	242,700	119,676
103,801	-4,753	242,338	119,752
104,816	-4,707	242,348	119,784
105,830	-4,472	242,237	119,914
106,845	-4,518	241,985	119,740
107,860	-4,672	241,963	119,591
108,874	-4,653	241,664	119,449
109,889	-4,983	241,380	119,024
110,903	-4,788	241,183	119,078
111,918	-4,790	241,089	119,020
112,933	-4,694	240,651	118,872
113,947	-4,849	240,828	118,820
114,962	-4,783	240,659	118,780
115,976	-4,890	240,512	118,610
116,991	-4,531	240,129	118,705
118,006	-4,904	240,150	118,398
119,020	-4,614	239,923	118,514
120,035	-4,634	239,758	118,406
121,049	-4,583	239,724	118,420
122,064	-4,729	239,567	118,212
123,079	-4,521	239,191	118,186
124,093	-4,813	239,086	117,885
125,108	-4,652	238,785	117,857
126,122	-5,243	238,492	117,221
127,137	-5,128	238,363	117,241
128,151	-5,157	238,357	117,204
129,166	-4,927	238,053	117,230
130,181	-4,820	237,962	117,263
131,195	-4,816	237,730	117,141
132,210	-4,884	237,590	117,006
133,224	-4,786	237,442	117,003
134,239	-4,719	237,302	116,978
135,254	-4,864	237,177	116,788
136,268	-4,996	236,906	116,538
137,283	-5,095	236,833	116,411
138,297	-5,197	236,476	116,142
139,312	-5,218	236,302	116,030
140,327	-4,996	236,248	116,172
141,341	-4,614	236,204	116,448
142,356	-4,563	236,140	116,447
143,370	-4,451	235,858	116,388
144,385	-4,464	235,752	116,315
145,400	-4,239	235,572	116,396
146,414	-4,379	235,473	116,224
147,429	-4,516	235,324	116,031
148,443	-4,524	235,084	115,896
149,458	-4,403	234,841	115,862
150,473	-4,449	234,770	115,780
151,487	-4,512	234,496	115,585
152,502	-4,290	234,418	115,713
153,516	-4,546	234,253	115,417
154,531	-4,410	234,099	115,439
155,546	-4,587	233,918	115,199
156,560	-4,530	233,718	115,135
157,575	-4,835	233,535	114,792
158,589	-4,531	233,236	114,877
159,604	-4,345	233,262	115,027
160,619	-4,252	233,017	114,970
161,633	-4,247	232,928	114,919
162,648	-4,296	232,765	114,790
163,662	-4,378	232,687	114,676
164,677	-4,475	232,305	114,401
165,692	-4,242	232,190	114,518
166,706	-4,281	232,046	114,407
167,721	-4,268	232,040	114,404
168,735	-4,176	231,922	114,408
169,750	-4,403	231,708	114,113
170,764	-4,391	231,615	114,067
171,779	-4,422	231,387	113,919
172,794	-4,167	231,216	114,026
173,808	-4,545	230,987	113,606
174,823	-5,016	230,759	113,113
175,837	-4,970	230,488	113,007
176,852	-4,754	230,493	113,168
177,867	-4,383	230,403	113,405
178,881	-4,394	230,352	113,361
179,896	-4,297	230,030	113,268
180,910	-4,121	229,946	113,355
181,925	-4,312	229,835	113,141
182,940	-4,458	229,697	112,948
183,954	-4,438	229,553	112,883
184,969	-4,163	229,477	113,050
185,983	-4,047	229,293	113,040
186,998	-4,027	228,952	112,877
188,013	-4,125	228,923	112,777
189,027	-4,172	228,784	112,661
190,042	-4,122	228,626	112,612
191,056	-4,076	228,354	112,504
192,071	-3,930	228,252	112,557
193,086	-4,278	228,170	112,237
194,100	-4,240	227,941	112,144
195,115	-4,570	227,501	111,662
196,129	-5,698	227,335	110,700
197,144	-2,244	228,316	113,844
198,159	1,872	229,411	117,579
199,173	3,901	229,943	119,417
200,188	4,061	229,927	119,522
201,202	4,223	229,769	119,556
202,217	4,360	229,657	119,593
203,232	4,666	229,428	119,700
204,246	4,845	229,346	119,785
205,261	4,724	229,080	119,542
206,275	4,781	229,103	119,588
207,290	4,914	228,875	119,561
208,304	4,888	228,912	119,549
209,319	4,945	228,746	119,496
210,334	4,733	228,390	119,136
211,348	4,583	228,239	118,931
212,363	4,289	227,905	118,520
213,377	3,981	227,712	118,173
214,392	4,038	227,584	118,139
215,407	4,209	227,499	118,216
216,421	4,205	227,394	118,148
217,436	3,980	227,368	117,952
218,450	3,885	226,791	117,569
219,465	3,415	226,888	117,249
220,480	3,719	226,708	117,378
221,494	3,721	226,545	117,285
222,509	3,801	226,555	117,340
223,523	3,760	226,274	117,154
224,538	4,034	226,072	117,247
225,553	3,961	225,938	117,111
226,567	4,050	225,911	117,155
227,582	4,069	225,776	117,089
228,596	4,510	225,787	117,419
229,611	4,006	225,509	116,881
230,626	3,885	225,284	116,663
231,640	3,839	225,108	116,526
232,655	4,174	224,957	116,692
233,669	4,774	225,039	117,178
234,684	4,585	224,876	116,940
235,699	4,479	224,638	116,725
236,713	4,173	224,382	116,351
237,728	4,008	224,224	116,135
238,742	3,833	223,905	115,827
239,757	4,007	223,871	115,930
240,772	4,040	223,799	115,907
241,786	4,031	223,552	115,762
242,801	4,099	223,615	115,836
243,815	4,492	223,410	116,014
244,830	4,421	223,316	115,902
245,844	4,301	223,032	115,654
246,859	4,116	223,048	115,513
247,874	4,346	222,908	115,603
248,888	4,639	222,767	115,739
249,903	4,146	222,506	115,224
250,917	3,949	222,410	115,017
251,932	4,018	222,226	114,963
252,947	3,887	222,132	114,806
253,961	4,150	221,834	114,838
254,976	3,902	221,658	114,552
255,990	3,979	221,725	114,634
257,005	4,318	221,520	114,770
258,020	4,206	221,443	114,636
259,034	4,464	221,413	114,803
260,049	4,456	221,202	114,677
261,063	4,123	221,003	114,316
262,078	4,293	220,867	114,362
263,093	4,370	220,750	114,348
264,107	4,397	220,498	114,227
265,122	4,275	220,456	114,105
266,136	4,525	220,366	114,234
267,151	4,455	220,149	114,059
268,166	4,211	219,868	113,723
269,180	4,041	219,665	113,483
270,195	3,887	219,553	113,301
271,209	3,982	219,426	113,295
272,224	3,891	219,282	113,144
273,239	4,238	219,252	113,374
274,253	3,953	219,139	113,096
275,268	3,828	218,735	112,785
276,282	3,910	218,624	112,779
277,297	3,510	218,583	112,454
278,312	3,919	218,421	112,660
279,326	3,874	218,345	112,578
280,341	3,921	218,301	112,580
281,355	4,225	218,061	112,668
282,370	4,047	217,860	112,424
283,384	3,945	217,679	112,247
284,399	3,868	217,488	112,082
285,414	3,584	217,503	111,873
286,428	3,883	217,446	112,051
287,443	4,043	217,325	112,095
288,457	4,070	217,330	112,107
289,472	4,178	216,837	111,922
290,487	3,837	216,677	111,582
291,501	3,704	216,410	111,337
292,516	3,594	216,424	111,255
293,530	3,750	216,388	111,339
294,545	3,519	216,306	111,120
295,560	3,848	216,094	111,240
296,574	3,828	216,131	111,234
297,589	3,994	215,848	111,199
298,603	3,780	215,682	110,949
299,618	4,085	215,555	111,093
300,633	3,880	215,439	110,876
301,647	4,317	215,404	111,163
302,662	4,256	215,327	111,070
303,676	4,378	215,044	111,001
304,691	4,122	214,969	110,769
305,706	4,414	214,908	110,937
306,720	4,177	214,661	110,630
307,735	3,902	214,588	110,385
308,749	3,923	214,318	110,251
309,764	4,171	214,233	110,375
310,779	4,145	214,142	110,300
311,793	4,067	213,949	110,135
312,808	4,150	213,860	110,139
313,822	4,078	213,681	109,985
314,837	3,981	213,545	109,837
315,852	3,717	213,382	109,554
316,866	3,989	213,199	109,644
317,881	4,156	213,164	109,735
318,895	4,102	213,095	109,651
319,910	4,022	212,819	109,443
320,925	3,768	212,783	109,234
321,939	3,522	212,610	108,961
322,954	3,452	212,389	108,788
323,968	4,186	212,241	109,223
324,983	4,208	212,185	109,200
325,997	4,279	212,041	109,166
327,012	4,260	211,866	109,053
328,027	4,116	211,789	108,902
329,041	4,383	211,714	109,043
330,056	4,348	211,708	109,004
331,070	4,076	211,432	108,661
332,085	3,613	211,149	108,179
333,100	3,703	211,241	108,281
334,114	3,836	211,087	108,286
335,129	3,999	210,765	108,225
336,143	3,969	210,540	108,080
337,158	4,153	210,413	108,134
338,173	3,832	210,419	107,902
339,187	3,846	210,138	107,758
340,202	3,672	210,058	107,585
341,216	3,786	209,832	107,540
342,231	3,867	209,756	107,548
343,246	3,642	209,614	107,308
344,260	3,857	209,549	107,415
345,275	3,724	209,510	107,293
346,289	4,079	209,397	107,473
347,304	4,292	209,118	107,469
348,319	4,165	209,026	107,324
349,333	3,948	209,048	107,174
350,348	3,999	208,832	107,090
351,362	4,160	208,885	107,219
352,377	4,091	208,735	107,085
353,392	4,106	208,340	106,883
354,406	3,996	208,307	106,781
355,421	193,539	1346,282	1434,128
356,435	154,403	1485,024	1434,252
